,PID,practice,trial,block,run,gain_left,left_item_id,right_item_id,left_pair_id,right_pair_id,left_stimulus,right_stimulus,left_category,right_category,left_rating,right_rating,left_path,right_path,no_response,left_chosen,rt,higher_outcome_chosen,choice_type,chosen_stimulus,unchosen_stimulus,chosen_category,unchosen_category,iti,long_iti,simulation,version
0,,1,1,0,0,,,,,,,,,,,,Stimuli/Practice_stims/Final_decisions/debby-hudson-FmCSSSGge-0-unsplash.jpg,Stimuli/Practice_stims/Final_decisions/yassine-khalfalli-adsQ9d_Cx0c-unsplash.jpg,0,,,,,,,,,3000,,6,1
1,,1,2,0,0,,,,,,,,,,,,Stimuli/Practice_stims/Final_decisions/florian-wehde-iVW7mZPwd4g-unsplash.jpg,Stimuli/Practice_stims/Final_decisions/patrick-perkins-3wylDrjxH-E-unsplash.jpg,0,,,,,,,,,1500,,6,1
2,,1,3,0,0,,,,,,,,,,,,Stimuli/Practice_stims/Final_decisions/debby-hudson-FmCSSSGge-0-unsplash.jpg,Stimuli/Practice_stims/Final_decisions/florian-wehde-iVW7mZPwd4g-unsplash.jpg,0,,,,,,,,,2000,,6,1
3,,1,4,0,0,,,,,,,,,,,,Stimuli/Practice_stims/Final_decisions/yassine-khalfalli-adsQ9d_Cx0c-unsplash.jpg,Stimuli/Practice_stims/Final_decisions/debby-hudson-FmCSSSGge-0-unsplash.jpg,0,,,,,,,,,1000,,6,1
4,,0,5,1,1,0,no_gain4,gain5,,,,,,,,,,,0,,,,chosen,,,,,1800,0,6,1
5,,0,6,1,1,1,gain3,no_gain6,,,,,,,,,,,0,,,,chosen,,,,,1700,0,6,1
6,,0,7,1,1,1,gain6,no_gain3,,,,,,,,,,,0,,,,unchosen,,,,,2300,0,6,1
7,,0,8,1,1,0,no_gain2,gain3,,,,,,,,,,,0,,,,chosen,,,,,1700,0,6,1
8,,0,9,1,1,1,gain4,no_gain5,,,,,,,,,,,0,,,,unchosen,,,,,3900,1,6,1
9,,0,10,1,1,1,gain2,no_gain5,,,,,,,,,,,0,,,,unchosen,,,,,1200,0,6,1
10,,0,11,1,1,1,gain2,no_gain5,,,,,,,,,,,0,,,,chosen,,,,,1200,0,6,1
11,,0,12,1,1,0,no_gain5,gain5,,,,,,,,,,,0,,,,chosen,,,,,2600,0,6,1
12,,0,13,1,1,0,no_gain1,gain4,,,,,,,,,,,0,,,,unchosen,,,,,2200,0,6,1
13,,0,14,1,1,1,gain4,no_gain6,,,,,,,,,,,0,,,,chosen,,,,,1700,0,6,1
14,,0,15,1,1,1,gain4,no_gain4,,,,,,,,,,,0,,,,chosen,,,,,3100,1,6,1
15,,0,16,1,1,1,gain2,no_gain1,,,,,,,,,,,0,,,,unchosen,,,,,2100,0,6,1
16,,0,17,1,1,0,no_gain2,gain5,,,,,,,,,,,0,,,,chosen,,,,,1900,0,6,1
17,,0,18,1,1,0,no_gain1,gain5,,,,,,,,,,,0,,,,chosen,,,,,1400,0,6,1
18,,0,19,1,1,1,gain3,no_gain5,,,,,,,,,,,0,,,,chosen,,,,,1500,0,6,1
19,,0,20,1,1,0,no_gain4,gain2,,,,,,,,,,,0,,,,unchosen,,,,,1600,0,6,1
20,,0,21,1,1,0,no_gain1,gain3,,,,,,,,,,,0,,,,chosen,,,,,3200,1,6,1
21,,0,22,1,1,1,gain5,no_gain5,,,,,,,,,,,0,,,,unchosen,,,,,1900,0,6,1
22,,0,23,1,1,0,no_gain6,gain6,,,,,,,,,,,0,,,,unchosen,,,,,1600,0,6,1
23,,0,24,1,1,0,no_gain6,gain2,,,,,,,,,,,0,,,,chosen,,,,,1100,0,6,1
24,,0,25,1,1,1,gain4,no_gain2,,,,,,,,,,,0,,,,unchosen,,,,,2200,0,6,1
25,,0,26,1,1,1,gain2,no_gain3,,,,,,,,,,,0,,,,unchosen,,,,,3300,1,6,1
26,,0,27,1,1,0,no_gain2,gain4,,,,,,,,,,,0,,,,chosen,,,,,2100,0,6,1
27,,0,28,1,1,0,no_gain2,gain2,,,,,,,,,,,0,,,,unchosen,,,,,1000,0,6,1
28,,0,29,1,1,0,no_gain4,gain3,,,,,,,,,,,0,,,,unchosen,,,,,2600,0,6,1
29,,0,30,1,1,0,no_gain3,gain2,,,,,,,,,,,0,,,,chosen,,,,,1500,0,6,1
30,,0,31,1,1,1,gain5,no_gain4,,,,,,,,,,,0,,,,unchosen,,,,,1200,0,6,1
31,,0,32,1,1,0,no_gain3,gain5,,,,,,,,,,,0,,,,unchosen,,,,,2100,0,6,1
32,,0,33,1,1,0,no_gain5,gain4,,,,,,,,,,,0,,,,chosen,,,,,4300,1,6,1
33,,0,34,1,1,0,no_gain1,gain5,,,,,,,,,,,0,,,,unchosen,,,,,1000,0,6,1
34,,0,35,1,1,1,gain1,no_gain3,,,,,,,,,,,0,,,,chosen,,,,,2300,0,6,1
35,,0,36,1,1,0,no_gain6,gain5,,,,,,,,,,,0,,,,unchosen,,,,,1200,0,6,1
36,,0,37,1,1,1,gain6,no_gain1,,,,,,,,,,,0,,,,chosen,,,,,1300,0,6,1
37,,0,38,1,1,1,gain4,no_gain3,,,,,,,,,,,0,,,,chosen,,,,,1700,0,6,1
38,,0,39,1,1,1,gain1,no_gain5,,,,,,,,,,,0,,,,chosen,,,,,1300,0,6,1
39,,0,40,1,1,0,no_gain6,gain3,,,,,,,,,,,0,,,,unchosen,,,,,1200,0,6,1
40,,0,41,1,1,0,no_gain2,gain1,,,,,,,,,,,0,,,,chosen,,,,,1900,0,6,1
41,,0,42,1,1,1,gain4,no_gain3,,,,,,,,,,,0,,,,unchosen,,,,,1200,0,6,1
42,,0,43,1,1,1,gain6,no_gain6,,,,,,,,,,,0,,,,chosen,,,,,4000,1,6,1
43,,0,44,1,1,0,no_gain3,gain3,,,,,,,,,,,0,,,,chosen,,,,,2300,0,6,1
44,,0,45,1,1,1,gain2,no_gain6,,,,,,,,,,,0,,,,unchosen,,,,,1500,0,6,1
45,,0,46,1,1,0,no_gain1,gain1,,,,,,,,,,,0,,,,chosen,,,,,1100,0,6,1
46,,0,47,1,1,0,no_gain5,gain6,,,,,,,,,,,0,,,,unchosen,,,,,1100,0,6,1
47,,0,48,1,1,0,no_gain5,gain6,,,,,,,,,,,0,,,,chosen,,,,,3200,1,6,1
48,,0,49,1,1,0,no_gain2,gain6,,,,,,,,,,,0,,,,unchosen,,,,,1900,0,6,1
49,,0,50,1,1,1,gain4,no_gain4,,,,,,,,,,,0,,,,unchosen,,,,,2300,0,6,1
50,,0,51,1,1,1,gain6,no_gain4,,,,,,,,,,,0,,,,unchosen,,,,,1200,0,6,1
51,,0,52,1,1,0,no_gain6,gain1,,,,,,,,,,,0,,,,chosen,,,,,2400,0,6,1
52,,0,53,1,1,1,gain2,no_gain1,,,,,,,,,,,0,,,,chosen,,,,,1600,0,6,1
53,,0,54,1,1,1,gain5,no_gain6,,,,,,,,,,,0,,,,chosen,,,,,3100,1,6,1
54,,0,55,1,1,0,no_gain5,gain1,,,,,,,,,,,0,,,,unchosen,,,,,2300,0,6,1
55,,0,56,1,1,1,gain2,no_gain2,,,,,,,,,,,0,,,,chosen,,,,,2600,0,6,1
56,,0,57,1,1,1,gain3,no_gain2,,,,,,,,,,,0,,,,unchosen,,,,,1700,0,6,1
57,,0,58,1,1,0,no_gain1,gain3,,,,,,,,,,,0,,,,unchosen,,,,,1100,0,6,1
58,,0,59,1,1,1,gain6,no_gain4,,,,,,,,,,,0,,,,chosen,,,,,2600,0,6,1
59,,0,60,1,1,1,gain6,no_gain1,,,,,,,,,,,0,,,,unchosen,,,,,1000,0,6,1
60,,0,61,1,1,1,gain1,no_gain3,,,,,,,,,,,0,,,,unchosen,,,,,2400,0,6,1
61,,0,62,1,1,0,no_gain6,gain4,,,,,,,,,,,0,,,,unchosen,,,,,3500,1,6,1
62,,0,63,1,1,1,gain6,no_gain3,,,,,,,,,,,0,,,,chosen,,,,,1700,0,6,1
63,,0,64,1,1,1,gain2,no_gain4,,,,,,,,,,,0,,,,chosen,,,,,1200,0,6,1
64,,0,65,1,1,0,no_gain6,gain1,,,,,,,,,,,0,,,,unchosen,,,,,1600,0,6,1
65,,0,66,1,1,0,no_gain4,gain1,,,,,,,,,,,0,,,,unchosen,,,,,1200,0,6,1
66,,0,67,1,1,1,gain5,no_gain2,,,,,,,,,,,0,,,,unchosen,,,,,3400,1,6,1
67,,0,68,1,1,0,no_gain1,gain4,,,,,,,,,,,0,,,,chosen,,,,,1900,0,6,1
68,,0,69,1,1,1,gain6,no_gain2,,,,,,,,,,,0,,,,chosen,,,,,2200,0,6,1
69,,0,70,1,1,1,gain5,no_gain3,,,,,,,,,,,0,,,,chosen,,,,,1100,0,6,1
70,,0,71,1,1,0,no_gain1,gain1,,,,,,,,,,,0,,,,unchosen,,,,,2600,0,6,1
71,,0,72,1,1,1,gain1,no_gain2,,,,,,,,,,,0,,,,unchosen,,,,,2100,0,6,1
72,,0,73,1,1,0,no_gain3,gain3,,,,,,,,,,,0,,,,unchosen,,,,,1600,0,6,1
73,,0,74,1,1,0,no_gain4,gain1,,,,,,,,,,,0,,,,chosen,,,,,1200,0,6,1
74,,0,75,1,1,1,gain3,no_gain5,,,,,,,,,,,0,,,,unchosen,,,,,2600,0,6,1
75,,0,76,1,1,0,no_gain4,gain3,,,,,,,,,,,0,,,,chosen,,,,,3600,1,6,1
76,,0,77,2,2,1,gain4,no_gain6,,,,,,,,,,,0,,,,unchosen,,,,,3100,1,4,1
77,,0,78,2,2,1,gain3,no_gain1,,,,,,,,,,,0,,,,chosen,,,,,2600,0,4,1
78,,0,79,2,2,0,no_gain5,gain5,,,,,,,,,,,0,,,,chosen,,,,,1800,0,4,1
79,,0,80,2,2,0,no_gain5,gain2,,,,,,,,,,,0,,,,unchosen,,,,,1000,0,4,1
80,,0,81,2,2,0,no_gain5,gain6,,,,,,,,,,,0,,,,chosen,,,,,2300,0,4,1
81,,0,82,2,2,1,gain2,no_gain1,,,,,,,,,,,0,,,,chosen,,,,,1100,0,4,1
82,,0,83,2,2,1,gain6,no_gain4,,,,,,,,,,,0,,,,chosen,,,,,1500,0,4,1
83,,0,84,2,2,1,gain1,no_gain4,,,,,,,,,,,0,,,,unchosen,,,,,2400,0,4,1
84,,0,85,2,2,0,no_gain2,gain2,,,,,,,,,,,0,,,,unchosen,,,,,2300,0,4,1
85,,0,86,2,2,1,gain6,no_gain3,,,,,,,,,,,0,,,,chosen,,,,,1200,0,4,1
86,,0,87,2,2,0,no_gain5,gain4,,,,,,,,,,,0,,,,unchosen,,,,,1300,0,4,1
87,,0,88,2,2,1,gain2,no_gain2,,,,,,,,,,,0,,,,chosen,,,,,3700,1,4,1
88,,0,89,2,2,1,gain5,no_gain3,,,,,,,,,,,0,,,,chosen,,,,,1600,0,4,1
89,,0,90,2,2,0,no_gain3,gain1,,,,,,,,,,,0,,,,chosen,,,,,1700,0,4,1
90,,0,91,2,2,0,no_gain2,gain1,,,,,,,,,,,0,,,,unchosen,,,,,1200,0,4,1
91,,0,92,2,2,0,no_gain6,gain5,,,,,,,,,,,0,,,,chosen,,,,,1100,0,4,1
92,,0,93,2,2,0,no_gain4,gain3,,,,,,,,,,,0,,,,chosen,,,,,1300,0,4,1
93,,0,94,2,2,1,gain4,no_gain5,,,,,,,,,,,0,,,,chosen,,,,,4500,1,4,1
94,,0,95,2,2,0,no_gain5,gain1,,,,,,,,,,,0,,,,unchosen,,,,,1900,0,4,1
95,,0,96,2,2,1,gain1,no_gain3,,,,,,,,,,,0,,,,unchosen,,,,,1100,0,4,1
96,,0,97,2,2,1,gain3,no_gain3,,,,,,,,,,,0,,,,unchosen,,,,,2300,0,4,1
97,,0,98,2,2,0,no_gain5,gain1,,,,,,,,,,,0,,,,chosen,,,,,2800,0,4,1
98,,0,99,2,2,0,no_gain5,gain5,,,,,,,,,,,0,,,,unchosen,,,,,3200,1,4,1
99,,0,100,2,2,1,gain5,no_gain1,,,,,,,,,,,0,,,,chosen,,,,,2000,0,4,1
100,,0,101,2,2,0,no_gain2,gain6,,,,,,,,,,,0,,,,chosen,,,,,2500,0,4,1
101,,0,102,2,2,1,gain3,no_gain5,,,,,,,,,,,0,,,,unchosen,,,,,1300,0,4,1
102,,0,103,2,2,1,gain6,no_gain3,,,,,,,,,,,0,,,,unchosen,,,,,1300,0,4,1
103,,0,104,2,2,1,gain4,no_gain4,,,,,,,,,,,0,,,,unchosen,,,,,4500,1,4,1
104,,0,105,2,2,1,gain6,no_gain1,,,,,,,,,,,0,,,,chosen,,,,,1400,0,4,1
105,,0,106,2,2,1,gain2,no_gain6,,,,,,,,,,,0,,,,unchosen,,,,,2600,0,4,1
106,,0,107,2,2,1,gain4,no_gain4,,,,,,,,,,,0,,,,chosen,,,,,2100,0,4,1
107,,0,108,2,2,0,no_gain6,gain6,,,,,,,,,,,0,,,,unchosen,,,,,2100,0,4,1
108,,0,109,2,2,1,gain4,no_gain3,,,,,,,,,,,0,,,,unchosen,,,,,2600,0,4,1
109,,0,110,2,2,0,no_gain1,gain1,,,,,,,,,,,0,,,,chosen,,,,,3000,1,4,1
110,,0,111,2,2,1,gain2,no_gain4,,,,,,,,,,,0,,,,chosen,,,,,1100,0,4,1
111,,0,112,2,2,0,no_gain1,gain3,,,,,,,,,,,0,,,,unchosen,,,,,1000,0,4,1
112,,0,113,2,2,1,gain5,no_gain1,,,,,,,,,,,0,,,,unchosen,,,,,1300,0,4,1
113,,0,114,2,2,1,gain3,no_gain6,,,,,,,,,,,0,,,,chosen,,,,,1000,0,4,1
114,,0,115,2,2,0,no_gain1,gain1,,,,,,,,,,,0,,,,unchosen,,,,,1200,0,4,1
115,,0,116,2,2,0,no_gain5,gain3,,,,,,,,,,,0,,,,chosen,,,,,1800,0,4,1
116,,0,117,2,2,1,gain5,no_gain2,,,,,,,,,,,0,,,,unchosen,,,,,2300,0,4,1
117,,0,118,2,2,1,gain4,no_gain1,,,,,,,,,,,0,,,,chosen,,,,,3500,1,4,1
118,,0,119,2,2,0,no_gain2,gain6,,,,,,,,,,,0,,,,unchosen,,,,,1300,0,4,1
119,,0,120,2,2,0,no_gain2,gain5,,,,,,,,,,,0,,,,chosen,,,,,1400,0,4,1
120,,0,121,2,2,1,gain3,no_gain3,,,,,,,,,,,0,,,,chosen,,,,,1300,0,4,1
121,,0,122,2,2,1,gain6,no_gain1,,,,,,,,,,,0,,,,unchosen,,,,,2800,0,4,1
122,,0,123,2,2,1,gain5,no_gain6,,,,,,,,,,,0,,,,unchosen,,,,,1800,0,4,1
123,,0,124,2,2,0,no_gain2,gain4,,,,,,,,,,,0,,,,unchosen,,,,,1200,0,4,1
124,,0,125,2,2,0,no_gain3,gain4,,,,,,,,,,,0,,,,chosen,,,,,1000,0,4,1
125,,0,126,2,2,1,gain3,no_gain4,,,,,,,,,,,0,,,,unchosen,,,,,1600,0,4,1
126,,0,127,2,2,0,no_gain2,gain4,,,,,,,,,,,0,,,,chosen,,,,,1500,0,4,1
127,,0,128,2,2,0,no_gain5,gain2,,,,,,,,,,,0,,,,chosen,,,,,3300,1,4,1
128,,0,129,2,2,0,no_gain4,gain1,,,,,,,,,,,0,,,,chosen,,,,,2200,0,4,1
129,,0,130,2,2,0,no_gain5,gain6,,,,,,,,,,,0,,,,unchosen,,,,,2400,0,4,1
130,,0,131,2,2,1,gain2,no_gain3,,,,,,,,,,,0,,,,chosen,,,,,1300,0,4,1
131,,0,132,2,2,1,gain6,no_gain4,,,,,,,,,,,0,,,,unchosen,,,,,2400,0,4,1
132,,0,133,2,2,0,no_gain1,gain4,,,,,,,,,,,0,,,,unchosen,,,,,2200,0,4,1
133,,0,134,2,2,0,no_gain6,gain4,,,,,,,,,,,0,,,,chosen,,,,,2900,1,4,1
134,,0,135,2,2,1,gain1,no_gain6,,,,,,,,,,,0,,,,chosen,,,,,1900,0,4,1
135,,0,136,2,2,0,no_gain1,gain2,,,,,,,,,,,0,,,,unchosen,,,,,1700,0,4,1
136,,0,137,2,2,0,no_gain4,gain2,,,,,,,,,,,0,,,,unchosen,,,,,1900,0,4,1
137,,0,138,2,2,1,gain6,no_gain6,,,,,,,,,,,0,,,,chosen,,,,,1700,0,4,1
138,,0,139,2,2,0,no_gain3,gain2,,,,,,,,,,,0,,,,unchosen,,,,,1300,0,4,1
139,,0,140,2,2,1,gain5,no_gain4,,,,,,,,,,,0,,,,unchosen,,,,,3600,1,4,1
140,,0,141,2,2,1,gain5,no_gain4,,,,,,,,,,,0,,,,chosen,,,,,1700,0,4,1
141,,0,142,2,2,0,no_gain6,gain2,,,,,,,,,,,0,,,,chosen,,,,,1900,0,4,1
142,,0,143,2,2,0,no_gain2,gain1,,,,,,,,,,,0,,,,chosen,,,,,2200,0,4,1
143,,0,144,2,2,0,no_gain3,gain5,,,,,,,,,,,0,,,,unchosen,,,,,1800,0,4,1
144,,0,145,2,2,0,no_gain6,gain3,,,,,,,,,,,0,,,,unchosen,,,,,1400,0,4,1
145,,0,146,2,2,0,no_gain2,gain3,,,,,,,,,,,0,,,,chosen,,,,,1800,0,4,1
146,,0,147,2,2,1,gain3,no_gain2,,,,,,,,,,,0,,,,unchosen,,,,,1300,0,4,1
147,,0,148,2,2,1,gain1,no_gain6,,,,,,,,,,,0,,,,unchosen,,,,,3600,1,4,1
148,,0,149,3,3,1,gain3,no_gain6,,,,,,,,,,,0,,,,unchosen,,,,,1200,0,5,1
149,,0,150,3,3,1,gain3,no_gain3,,,,,,,,,,,0,,,,chosen,,,,,1100,0,5,1
150,,0,151,3,3,1,gain1,no_gain4,,,,,,,,,,,0,,,,chosen,,,,,1100,0,5,1
151,,0,152,3,3,1,gain5,no_gain6,,,,,,,,,,,0,,,,unchosen,,,,,1300,0,5,1
152,,0,153,3,3,1,gain2,no_gain6,,,,,,,,,,,0,,,,chosen,,,,,3300,1,5,1
153,,0,154,3,3,1,gain6,no_gain6,,,,,,,,,,,0,,,,chosen,,,,,1000,0,5,1
154,,0,155,3,3,1,gain1,no_gain2,,,,,,,,,,,0,,,,unchosen,,,,,1300,0,5,1
155,,0,156,3,3,0,no_gain4,gain3,,,,,,,,,,,0,,,,chosen,,,,,1300,0,5,1
156,,0,157,3,3,0,no_gain4,gain4,,,,,,,,,,,0,,,,chosen,,,,,1600,0,5,1
157,,0,158,3,3,1,gain6,no_gain3,,,,,,,,,,,0,,,,chosen,,,,,1400,0,5,1
158,,0,159,3,3,0,no_gain1,gain2,,,,,,,,,,,0,,,,unchosen,,,,,2100,0,5,1
159,,0,160,3,3,0,no_gain4,gain3,,,,,,,,,,,0,,,,unchosen,,,,,1200,0,5,1
160,,0,161,3,3,0,no_gain1,gain3,,,,,,,,,,,0,,,,chosen,,,,,4100,1,5,1
161,,0,162,3,3,0,no_gain1,gain4,,,,,,,,,,,0,,,,unchosen,,,,,1900,0,5,1
162,,0,163,3,3,1,gain5,no_gain5,,,,,,,,,,,0,,,,chosen,,,,,2000,0,5,1
163,,0,164,3,3,0,no_gain2,gain5,,,,,,,,,,,0,,,,unchosen,,,,,2600,0,5,1
164,,0,165,3,3,1,gain1,no_gain4,,,,,,,,,,,0,,,,unchosen,,,,,1100,0,5,1
165,,0,166,3,3,0,no_gain4,gain5,,,,,,,,,,,0,,,,chosen,,,,,4400,1,5,1
166,,0,167,3,3,0,no_gain5,gain4,,,,,,,,,,,0,,,,unchosen,,,,,1200,0,5,1
167,,0,168,3,3,0,no_gain5,gain6,,,,,,,,,,,0,,,,chosen,,,,,1100,0,5,1
168,,0,169,3,3,1,gain1,no_gain6,,,,,,,,,,,0,,,,unchosen,,,,,1700,0,5,1
169,,0,170,3,3,1,gain2,no_gain2,,,,,,,,,,,0,,,,chosen,,,,,1100,0,5,1
170,,0,171,3,3,0,no_gain2,gain4,,,,,,,,,,,0,,,,unchosen,,,,,3300,1,5,1
171,,0,172,3,3,0,no_gain3,gain2,,,,,,,,,,,0,,,,chosen,,,,,2800,0,5,1
172,,0,173,3,3,0,no_gain4,gain2,,,,,,,,,,,0,,,,chosen,,,,,1000,0,5,1
173,,0,174,3,3,0,no_gain1,gain6,,,,,,,,,,,0,,,,unchosen,,,,,3100,0,5,1
174,,0,175,3,3,1,gain4,no_gain1,,,,,,,,,,,0,,,,chosen,,,,,2000,0,5,1
175,,0,176,3,3,0,no_gain6,gain6,,,,,,,,,,,0,,,,unchosen,,,,,2300,0,5,1
176,,0,177,3,3,0,no_gain2,gain5,,,,,,,,,,,0,,,,chosen,,,,,1500,0,5,1
177,,0,178,3,3,0,no_gain5,gain2,,,,,,,,,,,0,,,,unchosen,,,,,1600,0,5,1
178,,0,179,3,3,1,gain6,no_gain1,,,,,,,,,,,0,,,,chosen,,,,,4200,1,5,1
179,,0,180,3,3,0,no_gain5,gain4,,,,,,,,,,,0,,,,chosen,,,,,1000,0,5,1
180,,0,181,3,3,0,no_gain6,gain3,,,,,,,,,,,0,,,,chosen,,,,,2000,0,5,1
181,,0,182,3,3,1,gain4,no_gain3,,,,,,,,,,,0,,,,unchosen,,,,,1700,0,5,1
182,,0,183,3,3,1,gain2,no_gain6,,,,,,,,,,,0,,,,unchosen,,,,,2300,0,5,1
183,,0,184,3,3,1,gain4,no_gain4,,,,,,,,,,,0,,,,unchosen,,,,,3300,1,5,1
184,,0,185,3,3,0,no_gain1,gain2,,,,,,,,,,,0,,,,chosen,,,,,1100,0,5,1
185,,0,186,3,3,0,no_gain4,gain6,,,,,,,,,,,0,,,,chosen,,,,,1900,0,5,1
186,,0,187,3,3,1,gain3,no_gain5,,,,,,,,,,,0,,,,chosen,,,,,2400,0,5,1
187,,0,188,3,3,0,no_gain2,gain6,,,,,,,,,,,0,,,,unchosen,,,,,1900,0,5,1
188,,0,189,3,3,0,no_gain1,gain1,,,,,,,,,,,0,,,,unchosen,,,,,3300,1,5,1
189,,0,190,3,3,0,no_gain3,gain5,,,,,,,,,,,0,,,,unchosen,,,,,1200,0,5,1
190,,0,191,3,3,1,gain1,no_gain1,,,,,,,,,,,0,,,,chosen,,,,,1100,0,5,1
191,,0,192,3,3,0,no_gain4,gain5,,,,,,,,,,,0,,,,unchosen,,,,,1400,0,5,1
192,,0,193,3,3,1,gain3,no_gain1,,,,,,,,,,,0,,,,unchosen,,,,,2600,0,5,1
193,,0,194,3,3,1,gain6,no_gain4,,,,,,,,,,,0,,,,unchosen,,,,,1100,0,5,1
194,,0,195,3,3,1,gain1,no_gain3,,,,,,,,,,,0,,,,chosen,,,,,4100,1,5,1
195,,0,196,3,3,1,gain6,no_gain3,,,,,,,,,,,0,,,,unchosen,,,,,1000,0,5,1
196,,0,197,3,3,0,no_gain3,gain4,,,,,,,,,,,0,,,,chosen,,,,,1800,0,5,1
197,,0,198,3,3,1,gain1,no_gain3,,,,,,,,,,,0,,,,unchosen,,,,,1600,0,5,1
198,,0,199,3,3,1,gain4,no_gain6,,,,,,,,,,,0,,,,unchosen,,,,,2100,0,5,1
199,,0,200,3,3,1,gain2,no_gain4,,,,,,,,,,,0,,,,unchosen,,,,,1700,0,5,1
200,,0,201,3,3,1,gain5,no_gain3,,,,,,,,,,,0,,,,chosen,,,,,3200,1,5,1
201,,0,202,3,3,0,no_gain6,gain4,,,,,,,,,,,0,,,,chosen,,,,,1100,0,5,1
202,,0,203,3,3,1,gain2,no_gain2,,,,,,,,,,,0,,,,unchosen,,,,,2800,0,5,1
203,,0,204,3,3,1,gain2,no_gain5,,,,,,,,,,,0,,,,chosen,,,,,1400,0,5,1
204,,0,205,3,3,1,gain1,no_gain2,,,,,,,,,,,0,,,,chosen,,,,,2200,0,5,1
205,,0,206,3,3,1,gain3,no_gain3,,,,,,,,,,,0,,,,unchosen,,,,,1200,0,5,1
206,,0,207,3,3,0,no_gain6,gain5,,,,,,,,,,,0,,,,chosen,,,,,2100,0,5,1
207,,0,208,3,3,1,gain1,no_gain5,,,,,,,,,,,0,,,,chosen,,,,,2600,0,5,1
208,,0,209,3,3,0,no_gain2,gain3,,,,,,,,,,,0,,,,unchosen,,,,,3800,1,5,1
209,,0,210,3,3,0,no_gain6,gain1,,,,,,,,,,,0,,,,chosen,,,,,2300,0,5,1
210,,0,211,3,3,1,gain3,no_gain2,,,,,,,,,,,0,,,,chosen,,,,,1500,0,5,1
211,,0,212,3,3,0,no_gain3,gain2,,,,,,,,,,,0,,,,unchosen,,,,,1700,0,5,1
212,,0,213,3,3,1,gain5,no_gain5,,,,,,,,,,,0,,,,unchosen,,,,,1000,0,5,1
213,,0,214,3,3,1,gain6,no_gain5,,,,,,,,,,,0,,,,unchosen,,,,,2800,0,5,1
214,,0,215,3,3,0,no_gain1,gain5,,,,,,,,,,,0,,,,chosen,,,,,2400,0,5,1
215,,0,216,3,3,0,no_gain1,gain5,,,,,,,,,,,0,,,,unchosen,,,,,3800,1,5,1
216,,0,217,3,3,0,no_gain5,gain3,,,,,,,,,,,0,,,,unchosen,,,,,1500,0,5,1
217,,0,218,3,3,0,no_gain5,gain1,,,,,,,,,,,0,,,,unchosen,,,,,1100,0,5,1
218,,0,219,3,3,1,gain4,no_gain2,,,,,,,,,,,0,,,,chosen,,,,,1500,0,5,1
219,,0,220,3,3,0,no_gain2,gain6,,,,,,,,,,,0,,,,chosen,,,,,2500,0,5,1
220,,0,221,4,4,0,no_gain5,gain1,,,,,,,,,,,0,,,,unchosen,,,,,3400,1,3,1
221,,0,222,4,4,0,no_gain5,gain4,,,,,,,,,,,0,,,,chosen,,,,,1500,0,3,1
222,,0,223,4,4,0,no_gain2,gain3,,,,,,,,,,,0,,,,unchosen,,,,,2000,0,3,1
223,,0,224,4,4,0,no_gain4,gain3,,,,,,,,,,,0,,,,unchosen,,,,,1100,0,3,1
224,,0,225,4,4,0,no_gain1,gain6,,,,,,,,,,,0,,,,unchosen,,,,,2700,0,3,1
225,,0,226,4,4,0,no_gain4,gain2,,,,,,,,,,,0,,,,chosen,,,,,1700,0,3,1
226,,0,227,4,4,0,no_gain1,gain1,,,,,,,,,,,0,,,,chosen,,,,,3500,1,3,1
227,,0,228,4,4,0,no_gain3,gain3,,,,,,,,,,,0,,,,unchosen,,,,,2700,0,3,1
228,,0,229,4,4,1,gain4,no_gain5,,,,,,,,,,,0,,,,unchosen,,,,,1500,0,3,1
229,,0,230,4,4,0,no_gain6,gain1,,,,,,,,,,,0,,,,chosen,,,,,1700,0,3,1
230,,0,231,4,4,0,no_gain1,gain2,,,,,,,,,,,0,,,,unchosen,,,,,2300,0,3,1
231,,0,232,4,4,0,no_gain4,gain6,,,,,,,,,,,0,,,,chosen,,,,,3100,1,3,1
232,,0,233,4,4,1,gain5,no_gain3,,,,,,,,,,,0,,,,chosen,,,,,1300,0,3,1
233,,0,234,4,4,1,gain1,no_gain3,,,,,,,,,,,0,,,,chosen,,,,,1400,0,3,1
234,,0,235,4,4,1,gain2,no_gain4,,,,,,,,,,,0,,,,unchosen,,,,,2500,0,3,1
235,,0,236,4,4,1,gain2,no_gain5,,,,,,,,,,,0,,,,unchosen,,,,,1500,0,3,1
236,,0,237,4,4,1,gain4,no_gain1,,,,,,,,,,,0,,,,unchosen,,,,,1900,0,3,1
237,,0,238,4,4,1,gain6,no_gain3,,,,,,,,,,,0,,,,chosen,,,,,1200,0,3,1
238,,0,239,4,4,1,gain2,no_gain5,,,,,,,,,,,0,,,,chosen,,,,,3500,1,3,1
239,,0,240,4,4,0,no_gain2,gain6,,,,,,,,,,,0,,,,unchosen,,,,,1500,0,3,1
240,,0,241,4,4,1,gain5,no_gain6,,,,,,,,,,,0,,,,chosen,,,,,2200,0,3,1
241,,0,242,4,4,1,gain6,no_gain2,,,,,,,,,,,0,,,,chosen,,,,,1100,0,3,1
242,,0,243,4,4,0,no_gain3,gain2,,,,,,,,,,,0,,,,chosen,,,,,1300,0,3,1
243,,0,244,4,4,0,no_gain3,gain5,,,,,,,,,,,0,,,,unchosen,,,,,1500,0,3,1
244,,0,245,4,4,0,no_gain6,gain6,,,,,,,,,,,0,,,,chosen,,,,,1100,0,3,1
245,,0,246,4,4,1,gain3,no_gain6,,,,,,,,,,,0,,,,chosen,,,,,2000,0,3,1
246,,0,247,4,4,0,no_gain2,gain5,,,,,,,,,,,0,,,,unchosen,,,,,4700,1,3,1
247,,0,248,4,4,0,no_gain1,gain3,,,,,,,,,,,0,,,,chosen,,,,,2400,0,3,1
248,,0,249,4,4,1,gain4,no_gain2,,,,,,,,,,,0,,,,unchosen,,,,,1100,0,3,1
249,,0,250,4,4,1,gain6,no_gain5,,,,,,,,,,,0,,,,chosen,,,,,2400,0,3,1
250,,0,251,4,4,1,gain4,no_gain6,,,,,,,,,,,0,,,,unchosen,,,,,1600,0,3,1
251,,0,252,4,4,0,no_gain1,gain1,,,,,,,,,,,0,,,,unchosen,,,,,2300,0,3,1
252,,0,253,4,4,0,no_gain3,gain4,,,,,,,,,,,0,,,,chosen,,,,,2500,0,3,1
253,,0,254,4,4,1,gain3,no_gain5,,,,,,,,,,,0,,,,chosen,,,,,3700,1,3,1
254,,0,255,4,4,1,gain2,no_gain1,,,,,,,,,,,0,,,,chosen,,,,,2100,0,3,1
255,,0,256,4,4,1,gain6,no_gain3,,,,,,,,,,,0,,,,unchosen,,,,,2300,0,3,1
256,,0,257,4,4,0,no_gain6,gain1,,,,,,,,,,,0,,,,unchosen,,,,,1700,0,3,1
257,,0,258,4,4,0,no_gain4,gain6,,,,,,,,,,,0,,,,unchosen,,,,,2900,0,3,1
258,,0,259,4,4,0,no_gain4,gain1,,,,,,,,,,,0,,,,chosen,,,,,3000,1,3,1
259,,0,260,4,4,1,gain2,no_gain3,,,,,,,,,,,0,,,,unchosen,,,,,2600,0,3,1
260,,0,261,4,4,0,no_gain6,gain5,,,,,,,,,,,0,,,,unchosen,,,,,1700,0,3,1
261,,0,262,4,4,0,no_gain3,gain1,,,,,,,,,,,0,,,,unchosen,,,,,1800,0,3,1
262,,0,263,4,4,1,gain5,no_gain5,,,,,,,,,,,0,,,,chosen,,,,,1400,0,3,1
263,,0,264,4,4,0,no_gain2,gain1,,,,,,,,,,,0,,,,chosen,,,,,2200,0,3,1
264,,0,265,4,4,0,no_gain2,gain1,,,,,,,,,,,0,,,,unchosen,,,,,3500,1,3,1
265,,0,266,4,4,1,gain3,no_gain3,,,,,,,,,,,0,,,,chosen,,,,,1400,0,3,1
266,,0,267,4,4,0,no_gain2,gain4,,,,,,,,,,,0,,,,chosen,,,,,1100,0,3,1
267,,0,268,4,4,1,gain6,no_gain1,,,,,,,,,,,0,,,,chosen,,,,,1300,0,3,1
268,,0,269,4,4,0,no_gain1,gain3,,,,,,,,,,,0,,,,unchosen,,,,,2600,0,3,1
269,,0,270,4,4,0,no_gain4,gain4,,,,,,,,,,,0,,,,chosen,,,,,1100,0,3,1
270,,0,271,4,4,1,gain1,no_gain4,,,,,,,,,,,0,,,,unchosen,,,,,1400,0,3,1
271,,0,272,4,4,1,gain4,no_gain3,,,,,,,,,,,0,,,,unchosen,,,,,3200,1,3,1
272,,0,273,4,4,0,no_gain6,gain2,,,,,,,,,,,0,,,,chosen,,,,,1600,0,3,1
273,,0,274,4,4,0,no_gain2,gain5,,,,,,,,,,,0,,,,chosen,,,,,1000,0,3,1
274,,0,275,4,4,1,gain1,no_gain5,,,,,,,,,,,0,,,,chosen,,,,,1700,0,3,1
275,,0,276,4,4,1,gain4,no_gain4,,,,,,,,,,,0,,,,unchosen,,,,,1200,0,3,1
276,,0,277,4,4,1,gain3,no_gain5,,,,,,,,,,,0,,,,unchosen,,,,,2200,0,3,1
277,,0,278,4,4,0,no_gain5,gain6,,,,,,,,,,,0,,,,unchosen,,,,,2000,0,3,1
278,,0,279,4,4,1,gain3,no_gain4,,,,,,,,,,,0,,,,chosen,,,,,3100,1,3,1
279,,0,280,4,4,1,gain5,no_gain5,,,,,,,,,,,0,,,,unchosen,,,,,2400,0,3,1
280,,0,281,4,4,1,gain4,no_gain1,,,,,,,,,,,0,,,,chosen,,,,,1000,0,3,1
281,,0,282,4,4,0,no_gain1,gain5,,,,,,,,,,,0,,,,chosen,,,,,1900,0,3,1
282,,0,283,4,4,0,no_gain4,gain5,,,,,,,,,,,0,,,,unchosen,,,,,2400,0,3,1
283,,0,284,4,4,1,gain2,no_gain2,,,,,,,,,,,0,,,,chosen,,,,,1300,0,3,1
284,,0,285,4,4,0,no_gain4,gain5,,,,,,,,,,,0,,,,chosen,,,,,1600,0,3,1
285,,0,286,4,4,1,gain6,no_gain6,,,,,,,,,,,0,,,,unchosen,,,,,1000,0,3,1
286,,0,287,4,4,0,no_gain6,gain4,,,,,,,,,,,0,,,,chosen,,,,,1500,0,3,1
287,,0,288,4,4,1,gain5,no_gain1,,,,,,,,,,,0,,,,unchosen,,,,,1900,0,3,1
288,,0,289,4,4,1,gain3,no_gain2,,,,,,,,,,,0,,,,chosen,,,,,1600,0,3,1
289,,0,290,4,4,1,gain3,no_gain6,,,,,,,,,,,0,,,,unchosen,,,,,1200,0,3,1
290,,0,291,4,4,1,gain2,no_gain2,,,,,,,,,,,0,,,,unchosen,,,,,1000,0,3,1
291,,0,292,4,4,1,gain2,no_gain6,,,,,,,,,,,0,,,,unchosen,,,,,3200,1,3,1