,PID,practice,trial,block,run,gain_left,left_item_id,right_item_id,left_pair_id,right_pair_id,left_stimulus,right_stimulus,left_category,right_category,left_rating,right_rating,left_path,right_path,no_response,left_chosen,rt,higher_outcome_chosen,choice_type,chosen_stimulus,unchosen_stimulus,chosen_category,unchosen_category,iti,long_iti,simulation,version
0,21592,1,1,0,0,0,,,,,,,,,,,Stimuli/Practice_stims/Final_decisions/debby-hudson-FmCSSSGge-0-unsplash.jpg,Stimuli/Practice_stims/Final_decisions/yassine-khalfalli-adsQ9d_Cx0c-unsplash.jpg,0,0,1152,1,,,,,,3000,0,6,1
1,21592,1,2,0,0,0,,,,,,,,,,,Stimuli/Practice_stims/Final_decisions/florian-wehde-iVW7mZPwd4g-unsplash.jpg,Stimuli/Practice_stims/Final_decisions/patrick-perkins-3wylDrjxH-E-unsplash.jpg,0,1,701,0,,,,,,1500,0,6,1
2,21592,1,3,0,0,0,,,,,,,,,,,Stimuli/Practice_stims/Final_decisions/debby-hudson-FmCSSSGge-0-unsplash.jpg,Stimuli/Practice_stims/Final_decisions/florian-wehde-iVW7mZPwd4g-unsplash.jpg,0,0,855,1,,,,,,2000,0,6,1
3,21592,1,4,0,0,0,,,,,,,,,,,Stimuli/Practice_stims/Final_decisions/yassine-khalfalli-adsQ9d_Cx0c-unsplash.jpg,Stimuli/Practice_stims/Final_decisions/debby-hudson-FmCSSSGge-0-unsplash.jpg,0,1,671,0,,,,,,1000,0,6,1
4,21592,0,5,1,1,0,no_gain4,gain5,B,H,8,5,outdoor_scenes,outdoor_scenes,73,86,Stimuli/Experimental_stims/outdoor_scenes/samsommer-vddccTqwal8-unsplash.jpg,Stimuli/Experimental_stims/outdoor_scenes/jeff-king-bJHWJeiHfHc-unsplash.jpg,0,0,1012,1,chosen,5,8,outdoor_scenes,outdoor_scenes,1800,0,6,1
5,21592,0,6,1,1,1,gain3,no_gain6,A,F,9,32,outdoor_scenes,body_parts,71,30,Stimuli/Experimental_stims/outdoor_scenes/sergey-pesterev-y-b_FOmJXdg-unsplash.jpg,Stimuli/Experimental_stims/body_parts/towfiqu-barbhuiya-3AsiVDsZnHg-unsplash.jpg,0,1,1047,1,chosen,9,32,outdoor_scenes,body_parts,1700,0,6,1
6,21592,0,7,1,1,1,gain6,no_gain3,E,K,42,33,objects,body_parts,54,43,Stimuli/Experimental_stims/objects/jess-bailey-nOeVi8DsN8U-unsplash.jpg,Stimuli/Experimental_stims/body_parts/tucker-good-36skLT5jZcc-unsplash.jpg,0,0,1057,0,unchosen,33,42,body_parts,objects,2300,0,6,1
7,21592,0,8,1,1,0,no_gain2,gain3,G,A,6,9,outdoor_scenes,outdoor_scenes,71,71,Stimuli/Experimental_stims/outdoor_scenes/meng-ji-8BH_M-53CyA-unsplash.jpg,Stimuli/Experimental_stims/outdoor_scenes/sergey-pesterev-y-b_FOmJXdg-unsplash.jpg,0,1,1204,0,chosen,6,9,outdoor_scenes,outdoor_scenes,1700,0,6,1
8,21592,0,9,1,1,1,gain4,no_gain5,C,I,24,30,body_parts,body_parts,68,55,Stimuli/Experimental_stims/body_parts/clay-banks-LjqARJaJotc-unsplash.jpg,Stimuli/Experimental_stims/body_parts/mika-korhonen-Xodzxosar18-unsplash.jpg,0,1,1202,1,unchosen,24,30,body_parts,body_parts,3900,1,6,1
9,21592,0,10,1,1,1,gain2,no_gain5,D,I,46,30,objects,body_parts,54,55,Stimuli/Experimental_stims/objects/mockup-graphics-PNsj6RiHAF4-unsplash.jpg,Stimuli/Experimental_stims/body_parts/mika-korhonen-Xodzxosar18-unsplash.jpg,0,0,932,0,unchosen,30,46,body_parts,objects,1200,0,6,1
10,21592,0,11,1,1,1,gain2,no_gain5,D,I,21,1,faces,outdoor_scenes,68,62,Stimuli/Experimental_stims/faces/leilani-angel-K84vnnzxmTQ-unsplash.jpg,Stimuli/Experimental_stims/outdoor_scenes/ashim-d-silva-S2Q5mdOrrVc-unsplash.jpg,0,1,872,1,chosen,21,1,faces,outdoor_scenes,1200,0,6,1
11,21592,0,12,1,1,0,no_gain5,gain5,I,H,1,5,outdoor_scenes,outdoor_scenes,62,86,Stimuli/Experimental_stims/outdoor_scenes/ashim-d-silva-S2Q5mdOrrVc-unsplash.jpg,Stimuli/Experimental_stims/outdoor_scenes/jeff-king-bJHWJeiHfHc-unsplash.jpg,0,0,744,1,chosen,5,1,outdoor_scenes,outdoor_scenes,2600,0,6,1
12,21592,0,13,1,1,0,no_gain1,gain4,L,C,35,24,body_parts,body_parts,36,68,Stimuli/Experimental_stims/body_parts/wc-so-KH4AAPjb-tI-unsplash.jpg,Stimuli/Experimental_stims/body_parts/clay-banks-LjqARJaJotc-unsplash.jpg,0,1,1281,0,unchosen,35,24,body_parts,body_parts,2200,0,6,1
13,21592,0,14,1,1,1,gain4,no_gain6,C,F,7,32,outdoor_scenes,body_parts,69,30,Stimuli/Experimental_stims/outdoor_scenes/petr-vysohlid-9fqwGqGLUxc-unsplash.jpg,Stimuli/Experimental_stims/body_parts/towfiqu-barbhuiya-3AsiVDsZnHg-unsplash.jpg,0,1,984,1,chosen,7,32,outdoor_scenes,body_parts,1700,0,6,1
14,21592,0,15,1,1,1,gain4,no_gain4,C,B,7,8,outdoor_scenes,outdoor_scenes,69,73,Stimuli/Experimental_stims/outdoor_scenes/petr-vysohlid-9fqwGqGLUxc-unsplash.jpg,Stimuli/Experimental_stims/outdoor_scenes/samsommer-vddccTqwal8-unsplash.jpg,0,1,914,1,chosen,7,8,outdoor_scenes,outdoor_scenes,3100,1,6,1
15,21592,0,16,1,1,1,gain2,no_gain1,D,L,46,35,objects,body_parts,54,36,Stimuli/Experimental_stims/objects/mockup-graphics-PNsj6RiHAF4-unsplash.jpg,Stimuli/Experimental_stims/body_parts/wc-so-KH4AAPjb-tI-unsplash.jpg,0,0,745,0,unchosen,35,46,body_parts,objects,2100,0,6,1
16,21592,0,17,1,1,0,no_gain2,gain5,G,H,6,5,outdoor_scenes,outdoor_scenes,71,86,Stimuli/Experimental_stims/outdoor_scenes/meng-ji-8BH_M-53CyA-unsplash.jpg,Stimuli/Experimental_stims/outdoor_scenes/jeff-king-bJHWJeiHfHc-unsplash.jpg,0,0,1229,1,chosen,5,6,outdoor_scenes,outdoor_scenes,1900,0,6,1
17,21592,0,18,1,1,0,no_gain1,gain5,L,H,14,5,faces,outdoor_scenes,42,86,Stimuli/Experimental_stims/faces/david-siglin-UuW4psOb388-unsplash.jpg,Stimuli/Experimental_stims/outdoor_scenes/jeff-king-bJHWJeiHfHc-unsplash.jpg,0,0,863,1,chosen,5,14,outdoor_scenes,faces,1400,0,6,1
18,21592,0,19,1,1,1,gain3,no_gain5,A,I,9,1,outdoor_scenes,outdoor_scenes,71,62,Stimuli/Experimental_stims/outdoor_scenes/sergey-pesterev-y-b_FOmJXdg-unsplash.jpg,Stimuli/Experimental_stims/outdoor_scenes/ashim-d-silva-S2Q5mdOrrVc-unsplash.jpg,0,1,1083,1,chosen,9,1,outdoor_scenes,outdoor_scenes,1500,0,6,1
19,21592,0,20,1,1,0,no_gain4,gain2,B,D,16,46,faces,objects,84,54,Stimuli/Experimental_stims/faces/freddy-kearney-o-ioeoATbIM-unsplash.jpg,Stimuli/Experimental_stims/objects/mockup-graphics-PNsj6RiHAF4-unsplash.jpg,0,1,1398,0,unchosen,16,46,faces,objects,1600,0,6,1
20,21592,0,21,1,1,0,no_gain1,gain3,L,A,14,9,faces,outdoor_scenes,42,71,Stimuli/Experimental_stims/faces/david-siglin-UuW4psOb388-unsplash.jpg,Stimuli/Experimental_stims/outdoor_scenes/sergey-pesterev-y-b_FOmJXdg-unsplash.jpg,0,0,1201,1,chosen,9,14,outdoor_scenes,faces,3200,1,6,1
21,21592,0,22,1,1,1,gain5,no_gain5,H,I,18,30,faces,body_parts,77,55,Stimuli/Experimental_stims/faces/jessica-radanavong-mrYkTuAesKE-unsplash.jpg,Stimuli/Experimental_stims/body_parts/mika-korhonen-Xodzxosar18-unsplash.jpg,0,1,1123,1,unchosen,18,30,faces,body_parts,1900,0,6,1
22,21592,0,23,1,1,0,no_gain6,gain6,F,E,15,42,faces,objects,73,54,Stimuli/Experimental_stims/faces/erik-lucatero-d2MSDujJl2g-unsplash.jpg,Stimuli/Experimental_stims/objects/jess-bailey-nOeVi8DsN8U-unsplash.jpg,0,1,808,0,unchosen,15,42,faces,objects,1600,0,6,1
23,21592,0,24,1,1,0,no_gain6,gain2,F,D,32,21,body_parts,faces,30,68,Stimuli/Experimental_stims/body_parts/towfiqu-barbhuiya-3AsiVDsZnHg-unsplash.jpg,Stimuli/Experimental_stims/faces/leilani-angel-K84vnnzxmTQ-unsplash.jpg,0,0,988,1,chosen,21,32,faces,body_parts,1100,0,6,1
24,21592,0,25,1,1,1,gain4,no_gain2,C,G,24,40,body_parts,objects,68,36,Stimuli/Experimental_stims/body_parts/clay-banks-LjqARJaJotc-unsplash.jpg,Stimuli/Experimental_stims/objects/fabian-blank-pElSkGRA2NU-unsplash.jpg,0,1,1031,1,unchosen,24,40,body_parts,objects,2200,0,6,1
25,21592,0,26,1,1,1,gain2,no_gain3,D,K,46,33,objects,body_parts,54,43,Stimuli/Experimental_stims/objects/mockup-graphics-PNsj6RiHAF4-unsplash.jpg,Stimuli/Experimental_stims/body_parts/tucker-good-36skLT5jZcc-unsplash.jpg,0,1,1330,1,unchosen,46,33,objects,body_parts,3300,1,6,1
26,21592,0,27,1,1,0,no_gain2,gain4,G,C,6,7,outdoor_scenes,outdoor_scenes,71,69,Stimuli/Experimental_stims/outdoor_scenes/meng-ji-8BH_M-53CyA-unsplash.jpg,Stimuli/Experimental_stims/outdoor_scenes/petr-vysohlid-9fqwGqGLUxc-unsplash.jpg,0,0,1456,1,chosen,7,6,outdoor_scenes,outdoor_scenes,2100,0,6,1
27,21592,0,28,1,1,0,no_gain2,gain2,G,D,40,46,objects,objects,36,54,Stimuli/Experimental_stims/objects/fabian-blank-pElSkGRA2NU-unsplash.jpg,Stimuli/Experimental_stims/objects/mockup-graphics-PNsj6RiHAF4-unsplash.jpg,1,NaN,,NaN,unchosen,NaN,NaN,NaN,NaN,1000,0,6,1
28,21592,0,29,1,1,0,no_gain4,gain3,B,A,16,43,faces,objects,84,41,Stimuli/Experimental_stims/faces/freddy-kearney-o-ioeoATbIM-unsplash.jpg,Stimuli/Experimental_stims/objects/jonathan-greenaway-Y4hGgeiFn3s-unsplash.jpg,0,1,1293,0,unchosen,16,43,faces,objects,2600,0,6,1
29,21592,0,30,1,1,0,no_gain3,gain2,K,D,37,21,objects,faces,55,68,Stimuli/Experimental_stims/objects/alexander-andrews-VLGWE_SumrA-unsplash.jpg,Stimuli/Experimental_stims/faces/leilani-angel-K84vnnzxmTQ-unsplash.jpg,0,0,1080,1,chosen,21,37,faces,objects,1500,0,6,1
30,21592,0,31,1,1,1,gain5,no_gain4,H,B,18,16,faces,faces,77,84,Stimuli/Experimental_stims/faces/jessica-radanavong-mrYkTuAesKE-unsplash.jpg,Stimuli/Experimental_stims/faces/freddy-kearney-o-ioeoATbIM-unsplash.jpg,0,0,746,0,unchosen,16,18,faces,faces,1200,0,6,1
31,21592,0,32,1,1,0,no_gain3,gain5,K,H,33,18,body_parts,faces,43,77,Stimuli/Experimental_stims/body_parts/tucker-good-36skLT5jZcc-unsplash.jpg,Stimuli/Experimental_stims/faces/jessica-radanavong-mrYkTuAesKE-unsplash.jpg,0,0,987,1,unchosen,18,33,faces,body_parts,2100,0,6,1
32,21592,0,33,1,1,0,no_gain5,gain4,I,C,1,7,outdoor_scenes,outdoor_scenes,62,69,Stimuli/Experimental_stims/outdoor_scenes/ashim-d-silva-S2Q5mdOrrVc-unsplash.jpg,Stimuli/Experimental_stims/outdoor_scenes/petr-vysohlid-9fqwGqGLUxc-unsplash.jpg,0,0,1138,1,chosen,7,1,outdoor_scenes,outdoor_scenes,4300,1,6,1
33,21592,0,34,1,1,0,no_gain1,gain5,L,H,35,18,body_parts,faces,36,77,Stimuli/Experimental_stims/body_parts/wc-so-KH4AAPjb-tI-unsplash.jpg,Stimuli/Experimental_stims/faces/jessica-radanavong-mrYkTuAesKE-unsplash.jpg,0,1,1340,0,unchosen,35,18,body_parts,faces,1000,0,6,1
34,21592,0,35,1,1,1,gain1,no_gain3,J,K,47,37,objects,objects,55,55,Stimuli/Experimental_stims/objects/ronaldo-arthur-vidal-Cdz_lvnl37k-unsplash.jpg,Stimuli/Experimental_stims/objects/alexander-andrews-VLGWE_SumrA-unsplash.jpg,1,NaN,,NaN,chosen,NaN,NaN,NaN,NaN,2300,0,6,1
35,21592,0,36,1,1,0,no_gain6,gain5,F,H,15,18,faces,faces,73,77,Stimuli/Experimental_stims/faces/erik-lucatero-d2MSDujJl2g-unsplash.jpg,Stimuli/Experimental_stims/faces/jessica-radanavong-mrYkTuAesKE-unsplash.jpg,0,1,814,0,unchosen,15,18,faces,faces,1200,0,6,1
36,21592,0,37,1,1,1,gain6,no_gain1,E,L,28,14,body_parts,faces,77,42,Stimuli/Experimental_stims/body_parts/ira-vishnevskaya-8DQAvdCby1I-unsplash.jpg,Stimuli/Experimental_stims/faces/david-siglin-UuW4psOb388-unsplash.jpg,0,1,755,1,chosen,28,14,body_parts,faces,1300,0,6,1
37,21592,0,38,1,1,1,gain4,no_gain3,C,K,7,37,outdoor_scenes,objects,69,55,Stimuli/Experimental_stims/outdoor_scenes/petr-vysohlid-9fqwGqGLUxc-unsplash.jpg,Stimuli/Experimental_stims/objects/alexander-andrews-VLGWE_SumrA-unsplash.jpg,0,0,781,0,chosen,37,7,objects,outdoor_scenes,1700,0,6,1
38,21592,0,39,1,1,1,gain1,no_gain5,J,I,47,1,objects,outdoor_scenes,55,62,Stimuli/Experimental_stims/objects/ronaldo-arthur-vidal-Cdz_lvnl37k-unsplash.jpg,Stimuli/Experimental_stims/outdoor_scenes/ashim-d-silva-S2Q5mdOrrVc-unsplash.jpg,0,1,733,1,chosen,47,1,objects,outdoor_scenes,1300,0,6,1
39,21592,0,40,1,1,0,no_gain6,gain3,F,A,15,43,faces,objects,73,41,Stimuli/Experimental_stims/faces/erik-lucatero-d2MSDujJl2g-unsplash.jpg,Stimuli/Experimental_stims/objects/jonathan-greenaway-Y4hGgeiFn3s-unsplash.jpg,0,1,680,0,unchosen,15,43,faces,objects,1200,0,6,1
40,21592,0,41,1,1,0,no_gain2,gain1,G,J,6,47,outdoor_scenes,objects,71,55,Stimuli/Experimental_stims/outdoor_scenes/meng-ji-8BH_M-53CyA-unsplash.jpg,Stimuli/Experimental_stims/objects/ronaldo-arthur-vidal-Cdz_lvnl37k-unsplash.jpg,0,0,866,1,chosen,47,6,objects,outdoor_scenes,1900,0,6,1
41,21592,0,42,1,1,1,gain4,no_gain3,C,K,24,33,body_parts,body_parts,68,43,Stimuli/Experimental_stims/body_parts/clay-banks-LjqARJaJotc-unsplash.jpg,Stimuli/Experimental_stims/body_parts/tucker-good-36skLT5jZcc-unsplash.jpg,0,1,949,1,unchosen,24,33,body_parts,body_parts,1200,0,6,1
42,21592,0,43,1,1,1,gain6,no_gain6,E,F,28,32,body_parts,body_parts,77,30,Stimuli/Experimental_stims/body_parts/ira-vishnevskaya-8DQAvdCby1I-unsplash.jpg,Stimuli/Experimental_stims/body_parts/towfiqu-barbhuiya-3AsiVDsZnHg-unsplash.jpg,0,1,702,1,chosen,28,32,body_parts,body_parts,4000,1,6,1
43,21592,0,44,1,1,0,no_gain3,gain3,K,A,37,9,objects,outdoor_scenes,55,71,Stimuli/Experimental_stims/objects/alexander-andrews-VLGWE_SumrA-unsplash.jpg,Stimuli/Experimental_stims/outdoor_scenes/sergey-pesterev-y-b_FOmJXdg-unsplash.jpg,0,1,856,0,chosen,37,9,objects,outdoor_scenes,2300,0,6,1
44,21592,0,45,1,1,1,gain2,no_gain6,D,F,46,15,objects,faces,54,73,Stimuli/Experimental_stims/objects/mockup-graphics-PNsj6RiHAF4-unsplash.jpg,Stimuli/Experimental_stims/faces/erik-lucatero-d2MSDujJl2g-unsplash.jpg,0,0,654,0,unchosen,15,46,faces,objects,1500,0,6,1
45,21592,0,46,1,1,0,no_gain1,gain1,L,J,14,47,faces,objects,42,55,Stimuli/Experimental_stims/faces/david-siglin-UuW4psOb388-unsplash.jpg,Stimuli/Experimental_stims/objects/ronaldo-arthur-vidal-Cdz_lvnl37k-unsplash.jpg,0,0,960,1,chosen,47,14,objects,faces,1100,0,6,1
46,21592,0,47,1,1,0,no_gain5,gain6,I,E,30,42,body_parts,objects,55,54,Stimuli/Experimental_stims/body_parts/mika-korhonen-Xodzxosar18-unsplash.jpg,Stimuli/Experimental_stims/objects/jess-bailey-nOeVi8DsN8U-unsplash.jpg,0,1,858,0,unchosen,30,42,body_parts,objects,1100,0,6,1
47,21592,0,48,1,1,0,no_gain5,gain6,I,E,1,28,outdoor_scenes,body_parts,62,77,Stimuli/Experimental_stims/outdoor_scenes/ashim-d-silva-S2Q5mdOrrVc-unsplash.jpg,Stimuli/Experimental_stims/body_parts/ira-vishnevskaya-8DQAvdCby1I-unsplash.jpg,0,0,889,1,chosen,28,1,body_parts,outdoor_scenes,3200,1,6,1
48,21592,0,49,1,1,0,no_gain2,gain6,G,E,40,42,objects,objects,36,54,Stimuli/Experimental_stims/objects/fabian-blank-pElSkGRA2NU-unsplash.jpg,Stimuli/Experimental_stims/objects/jess-bailey-nOeVi8DsN8U-unsplash.jpg,0,1,930,0,unchosen,40,42,objects,objects,1900,0,6,1
49,21592,0,50,1,1,1,gain4,no_gain4,C,B,24,16,body_parts,faces,68,84,Stimuli/Experimental_stims/body_parts/clay-banks-LjqARJaJotc-unsplash.jpg,Stimuli/Experimental_stims/faces/freddy-kearney-o-ioeoATbIM-unsplash.jpg,0,0,850,0,unchosen,16,24,faces,body_parts,2300,0,6,1
50,21592,0,51,1,1,1,gain6,no_gain4,E,B,42,16,objects,faces,54,84,Stimuli/Experimental_stims/objects/jess-bailey-nOeVi8DsN8U-unsplash.jpg,Stimuli/Experimental_stims/faces/freddy-kearney-o-ioeoATbIM-unsplash.jpg,0,0,741,0,unchosen,16,42,faces,objects,1200,0,6,1
51,21592,0,52,1,1,0,no_gain6,gain1,F,J,32,47,body_parts,objects,30,55,Stimuli/Experimental_stims/body_parts/towfiqu-barbhuiya-3AsiVDsZnHg-unsplash.jpg,Stimuli/Experimental_stims/objects/ronaldo-arthur-vidal-Cdz_lvnl37k-unsplash.jpg,0,0,924,1,chosen,47,32,objects,body_parts,2400,0,6,1
52,21592,0,53,1,1,1,gain2,no_gain1,D,L,21,14,faces,faces,68,42,Stimuli/Experimental_stims/faces/leilani-angel-K84vnnzxmTQ-unsplash.jpg,Stimuli/Experimental_stims/faces/david-siglin-UuW4psOb388-unsplash.jpg,0,1,824,1,chosen,21,14,faces,faces,1600,0,6,1
53,21592,0,54,1,1,1,gain5,no_gain6,H,F,5,32,outdoor_scenes,body_parts,86,30,Stimuli/Experimental_stims/outdoor_scenes/jeff-king-bJHWJeiHfHc-unsplash.jpg,Stimuli/Experimental_stims/body_parts/towfiqu-barbhuiya-3AsiVDsZnHg-unsplash.jpg,0,1,742,1,chosen,5,32,outdoor_scenes,body_parts,3100,1,6,1
54,21592,0,55,1,1,0,no_gain5,gain1,I,J,30,20,body_parts,faces,55,68,Stimuli/Experimental_stims/body_parts/mika-korhonen-Xodzxosar18-unsplash.jpg,Stimuli/Experimental_stims/faces/justin-chen-J7Cf1Gch49E-unsplash.jpg,0,0,1155,1,unchosen,20,30,faces,body_parts,2300,0,6,1
55,21592,0,56,1,1,1,gain2,no_gain2,D,G,21,6,faces,outdoor_scenes,68,71,Stimuli/Experimental_stims/faces/leilani-angel-K84vnnzxmTQ-unsplash.jpg,Stimuli/Experimental_stims/outdoor_scenes/meng-ji-8BH_M-53CyA-unsplash.jpg,0,1,785,1,chosen,21,6,faces,outdoor_scenes,2600,0,6,1
56,21592,0,57,1,1,1,gain3,no_gain2,A,G,43,40,objects,objects,41,36,Stimuli/Experimental_stims/objects/jonathan-greenaway-Y4hGgeiFn3s-unsplash.jpg,Stimuli/Experimental_stims/objects/fabian-blank-pElSkGRA2NU-unsplash.jpg,0,0,981,0,unchosen,40,43,objects,objects,1700,0,6,1
57,21592,0,58,1,1,0,no_gain1,gain3,L,A,35,43,body_parts,objects,36,41,Stimuli/Experimental_stims/body_parts/wc-so-KH4AAPjb-tI-unsplash.jpg,Stimuli/Experimental_stims/objects/jonathan-greenaway-Y4hGgeiFn3s-unsplash.jpg,0,1,1209,0,unchosen,35,43,body_parts,objects,1100,0,6,1
58,21592,0,59,1,1,1,gain6,no_gain4,E,B,28,8,body_parts,outdoor_scenes,77,73,Stimuli/Experimental_stims/body_parts/ira-vishnevskaya-8DQAvdCby1I-unsplash.jpg,Stimuli/Experimental_stims/outdoor_scenes/samsommer-vddccTqwal8-unsplash.jpg,0,1,944,1,chosen,28,8,body_parts,outdoor_scenes,2600,0,6,1
59,21592,0,60,1,1,1,gain6,no_gain1,E,L,42,35,objects,body_parts,54,36,Stimuli/Experimental_stims/objects/jess-bailey-nOeVi8DsN8U-unsplash.jpg,Stimuli/Experimental_stims/body_parts/wc-so-KH4AAPjb-tI-unsplash.jpg,0,0,861,0,unchosen,35,42,body_parts,objects,1000,0,6,1
60,21592,0,61,1,1,1,gain1,no_gain3,J,K,20,33,faces,body_parts,68,43,Stimuli/Experimental_stims/faces/justin-chen-J7Cf1Gch49E-unsplash.jpg,Stimuli/Experimental_stims/body_parts/tucker-good-36skLT5jZcc-unsplash.jpg,1,NaN,,NaN,unchosen,NaN,NaN,NaN,NaN,2400,0,6,1
61,21592,0,62,1,1,0,no_gain6,gain4,F,C,15,24,faces,body_parts,73,68,Stimuli/Experimental_stims/faces/erik-lucatero-d2MSDujJl2g-unsplash.jpg,Stimuli/Experimental_stims/body_parts/clay-banks-LjqARJaJotc-unsplash.jpg,0,1,692,0,unchosen,15,24,faces,body_parts,3500,1,6,1
62,21592,0,63,1,1,1,gain6,no_gain3,E,K,28,37,body_parts,objects,77,55,Stimuli/Experimental_stims/body_parts/ira-vishnevskaya-8DQAvdCby1I-unsplash.jpg,Stimuli/Experimental_stims/objects/alexander-andrews-VLGWE_SumrA-unsplash.jpg,0,1,952,1,chosen,28,37,body_parts,objects,1700,0,6,1
63,21592,0,64,1,1,1,gain2,no_gain4,D,B,21,8,faces,outdoor_scenes,68,73,Stimuli/Experimental_stims/faces/leilani-angel-K84vnnzxmTQ-unsplash.jpg,Stimuli/Experimental_stims/outdoor_scenes/samsommer-vddccTqwal8-unsplash.jpg,0,1,744,1,chosen,21,8,faces,outdoor_scenes,1200,0,6,1
64,21592,0,65,1,1,0,no_gain6,gain1,F,J,15,20,faces,faces,73,68,Stimuli/Experimental_stims/faces/erik-lucatero-d2MSDujJl2g-unsplash.jpg,Stimuli/Experimental_stims/faces/justin-chen-J7Cf1Gch49E-unsplash.jpg,0,1,1027,0,unchosen,15,20,faces,faces,1600,0,6,1
65,21592,0,66,1,1,0,no_gain4,gain1,B,J,16,20,faces,faces,84,68,Stimuli/Experimental_stims/faces/freddy-kearney-o-ioeoATbIM-unsplash.jpg,Stimuli/Experimental_stims/faces/justin-chen-J7Cf1Gch49E-unsplash.jpg,0,1,1186,0,unchosen,16,20,faces,faces,1200,0,6,1
66,21592,0,67,1,1,1,gain5,no_gain2,H,G,18,40,faces,objects,77,36,Stimuli/Experimental_stims/faces/jessica-radanavong-mrYkTuAesKE-unsplash.jpg,Stimuli/Experimental_stims/objects/fabian-blank-pElSkGRA2NU-unsplash.jpg,0,1,1267,1,unchosen,18,40,faces,objects,3400,1,6,1
67,21592,0,68,1,1,0,no_gain1,gain4,L,C,14,7,faces,outdoor_scenes,42,69,Stimuli/Experimental_stims/faces/david-siglin-UuW4psOb388-unsplash.jpg,Stimuli/Experimental_stims/outdoor_scenes/petr-vysohlid-9fqwGqGLUxc-unsplash.jpg,1,NaN,,NaN,chosen,NaN,NaN,NaN,NaN,1900,0,6,1
68,21592,0,69,1,1,1,gain6,no_gain2,E,G,28,6,body_parts,outdoor_scenes,77,71,Stimuli/Experimental_stims/body_parts/ira-vishnevskaya-8DQAvdCby1I-unsplash.jpg,Stimuli/Experimental_stims/outdoor_scenes/meng-ji-8BH_M-53CyA-unsplash.jpg,0,1,725,1,chosen,28,6,body_parts,outdoor_scenes,2200,0,6,1
69,21592,0,70,1,1,1,gain5,no_gain3,H,K,5,37,outdoor_scenes,objects,86,55,Stimuli/Experimental_stims/outdoor_scenes/jeff-king-bJHWJeiHfHc-unsplash.jpg,Stimuli/Experimental_stims/objects/alexander-andrews-VLGWE_SumrA-unsplash.jpg,0,1,794,1,chosen,5,37,outdoor_scenes,objects,1100,0,6,1
70,21592,0,71,1,1,0,no_gain1,gain1,L,J,35,20,body_parts,faces,36,68,Stimuli/Experimental_stims/body_parts/wc-so-KH4AAPjb-tI-unsplash.jpg,Stimuli/Experimental_stims/faces/justin-chen-J7Cf1Gch49E-unsplash.jpg,0,1,669,0,unchosen,35,20,body_parts,faces,2600,0,6,1
71,21592,0,72,1,1,1,gain1,no_gain2,J,G,20,40,faces,objects,68,36,Stimuli/Experimental_stims/faces/justin-chen-J7Cf1Gch49E-unsplash.jpg,Stimuli/Experimental_stims/objects/fabian-blank-pElSkGRA2NU-unsplash.jpg,0,0,1044,0,unchosen,40,20,objects,faces,2100,0,6,1
72,21592,0,73,1,1,0,no_gain3,gain3,K,A,33,43,body_parts,objects,43,41,Stimuli/Experimental_stims/body_parts/tucker-good-36skLT5jZcc-unsplash.jpg,Stimuli/Experimental_stims/objects/jonathan-greenaway-Y4hGgeiFn3s-unsplash.jpg,0,1,1216,0,unchosen,33,43,body_parts,objects,1600,0,6,1
73,21592,0,74,1,1,0,no_gain4,gain1,B,J,8,47,outdoor_scenes,objects,73,55,Stimuli/Experimental_stims/outdoor_scenes/samsommer-vddccTqwal8-unsplash.jpg,Stimuli/Experimental_stims/objects/ronaldo-arthur-vidal-Cdz_lvnl37k-unsplash.jpg,0,0,935,1,chosen,47,8,objects,outdoor_scenes,1200,0,6,1
74,21592,0,75,1,1,1,gain3,no_gain5,A,I,43,30,objects,body_parts,41,55,Stimuli/Experimental_stims/objects/jonathan-greenaway-Y4hGgeiFn3s-unsplash.jpg,Stimuli/Experimental_stims/body_parts/mika-korhonen-Xodzxosar18-unsplash.jpg,0,0,1104,0,unchosen,30,43,body_parts,objects,2600,0,6,1
75,21592,0,76,1,1,0,no_gain4,gain3,B,A,8,9,outdoor_scenes,outdoor_scenes,73,71,Stimuli/Experimental_stims/outdoor_scenes/samsommer-vddccTqwal8-unsplash.jpg,Stimuli/Experimental_stims/outdoor_scenes/sergey-pesterev-y-b_FOmJXdg-unsplash.jpg,0,0,953,1,chosen,9,8,outdoor_scenes,outdoor_scenes,3600,1,6,1
76,21592,0,77,2,2,1,gain4,no_gain6,C,F,24,15,body_parts,faces,68,73,Stimuli/Experimental_stims/body_parts/clay-banks-LjqARJaJotc-unsplash.jpg,Stimuli/Experimental_stims/faces/erik-lucatero-d2MSDujJl2g-unsplash.jpg,0,0,1165,0,unchosen,15,24,faces,body_parts,3100,1,4,1
77,21592,0,78,2,2,1,gain3,no_gain1,A,L,9,14,outdoor_scenes,faces,71,42,Stimuli/Experimental_stims/outdoor_scenes/sergey-pesterev-y-b_FOmJXdg-unsplash.jpg,Stimuli/Experimental_stims/faces/david-siglin-UuW4psOb388-unsplash.jpg,0,1,1254,1,chosen,9,14,outdoor_scenes,faces,2600,0,4,1
78,21592,0,79,2,2,0,no_gain5,gain5,I,H,1,5,outdoor_scenes,outdoor_scenes,62,86,Stimuli/Experimental_stims/outdoor_scenes/ashim-d-silva-S2Q5mdOrrVc-unsplash.jpg,Stimuli/Experimental_stims/outdoor_scenes/jeff-king-bJHWJeiHfHc-unsplash.jpg,0,0,617,1,chosen,5,1,outdoor_scenes,outdoor_scenes,1800,0,4,1
79,21592,0,80,2,2,0,no_gain5,gain2,I,D,30,46,body_parts,objects,55,54,Stimuli/Experimental_stims/body_parts/mika-korhonen-Xodzxosar18-unsplash.jpg,Stimuli/Experimental_stims/objects/mockup-graphics-PNsj6RiHAF4-unsplash.jpg,0,1,724,0,unchosen,30,46,body_parts,objects,1000,0,4,1
80,21592,0,81,2,2,0,no_gain5,gain6,I,E,1,28,outdoor_scenes,body_parts,62,77,Stimuli/Experimental_stims/outdoor_scenes/ashim-d-silva-S2Q5mdOrrVc-unsplash.jpg,Stimuli/Experimental_stims/body_parts/ira-vishnevskaya-8DQAvdCby1I-unsplash.jpg,0,0,630,1,chosen,28,1,body_parts,outdoor_scenes,2300,0,4,1
81,21592,0,82,2,2,1,gain2,no_gain1,D,L,21,14,faces,faces,68,42,Stimuli/Experimental_stims/faces/leilani-angel-K84vnnzxmTQ-unsplash.jpg,Stimuli/Experimental_stims/faces/david-siglin-UuW4psOb388-unsplash.jpg,0,1,709,1,chosen,21,14,faces,faces,1100,0,4,1
82,21592,0,83,2,2,1,gain6,no_gain4,E,B,28,8,body_parts,outdoor_scenes,77,73,Stimuli/Experimental_stims/body_parts/ira-vishnevskaya-8DQAvdCby1I-unsplash.jpg,Stimuli/Experimental_stims/outdoor_scenes/samsommer-vddccTqwal8-unsplash.jpg,0,1,703,1,chosen,28,8,body_parts,outdoor_scenes,1500,0,4,1
83,21592,0,84,2,2,1,gain1,no_gain4,J,B,20,16,faces,faces,68,84,Stimuli/Experimental_stims/faces/justin-chen-J7Cf1Gch49E-unsplash.jpg,Stimuli/Experimental_stims/faces/freddy-kearney-o-ioeoATbIM-unsplash.jpg,0,0,915,0,unchosen,16,20,faces,faces,2400,0,4,1
84,21592,0,85,2,2,0,no_gain2,gain2,G,D,40,46,objects,objects,36,54,Stimuli/Experimental_stims/objects/fabian-blank-pElSkGRA2NU-unsplash.jpg,Stimuli/Experimental_stims/objects/mockup-graphics-PNsj6RiHAF4-unsplash.jpg,0,0,943,1,unchosen,46,40,objects,objects,2300,0,4,1
85,21592,0,86,2,2,1,gain6,no_gain3,E,K,28,37,body_parts,objects,77,55,Stimuli/Experimental_stims/body_parts/ira-vishnevskaya-8DQAvdCby1I-unsplash.jpg,Stimuli/Experimental_stims/objects/alexander-andrews-VLGWE_SumrA-unsplash.jpg,0,1,505,1,chosen,28,37,body_parts,objects,1200,0,4,1
86,21592,0,87,2,2,0,no_gain5,gain4,I,C,30,24,body_parts,body_parts,55,68,Stimuli/Experimental_stims/body_parts/mika-korhonen-Xodzxosar18-unsplash.jpg,Stimuli/Experimental_stims/body_parts/clay-banks-LjqARJaJotc-unsplash.jpg,0,1,1112,0,unchosen,30,24,body_parts,body_parts,1300,0,4,1
87,21592,0,88,2,2,1,gain2,no_gain2,D,G,21,6,faces,outdoor_scenes,68,71,Stimuli/Experimental_stims/faces/leilani-angel-K84vnnzxmTQ-unsplash.jpg,Stimuli/Experimental_stims/outdoor_scenes/meng-ji-8BH_M-53CyA-unsplash.jpg,0,1,697,1,chosen,21,6,faces,outdoor_scenes,3700,1,4,1
88,21592,0,89,2,2,1,gain5,no_gain3,H,K,5,37,outdoor_scenes,objects,86,55,Stimuli/Experimental_stims/outdoor_scenes/jeff-king-bJHWJeiHfHc-unsplash.jpg,Stimuli/Experimental_stims/objects/alexander-andrews-VLGWE_SumrA-unsplash.jpg,0,1,694,1,chosen,5,37,outdoor_scenes,objects,1600,0,4,1
89,21592,0,90,2,2,0,no_gain3,gain1,K,J,37,47,objects,objects,55,55,Stimuli/Experimental_stims/objects/alexander-andrews-VLGWE_SumrA-unsplash.jpg,Stimuli/Experimental_stims/objects/ronaldo-arthur-vidal-Cdz_lvnl37k-unsplash.jpg,0,0,969,1,chosen,47,37,objects,objects,1700,0,4,1
90,21592,0,91,2,2,0,no_gain2,gain1,G,J,40,20,objects,faces,36,68,Stimuli/Experimental_stims/objects/fabian-blank-pElSkGRA2NU-unsplash.jpg,Stimuli/Experimental_stims/faces/justin-chen-J7Cf1Gch49E-unsplash.jpg,0,0,907,1,unchosen,20,40,faces,objects,1200,0,4,1
91,21592,0,92,2,2,0,no_gain6,gain5,F,H,32,5,body_parts,outdoor_scenes,30,86,Stimuli/Experimental_stims/body_parts/towfiqu-barbhuiya-3AsiVDsZnHg-unsplash.jpg,Stimuli/Experimental_stims/outdoor_scenes/jeff-king-bJHWJeiHfHc-unsplash.jpg,0,0,709,1,chosen,5,32,outdoor_scenes,body_parts,1100,0,4,1
92,21592,0,93,2,2,0,no_gain4,gain3,B,A,8,9,outdoor_scenes,outdoor_scenes,73,71,Stimuli/Experimental_stims/outdoor_scenes/samsommer-vddccTqwal8-unsplash.jpg,Stimuli/Experimental_stims/outdoor_scenes/sergey-pesterev-y-b_FOmJXdg-unsplash.jpg,0,0,796,1,chosen,9,8,outdoor_scenes,outdoor_scenes,1300,0,4,1
93,21592,0,94,2,2,1,gain4,no_gain5,C,I,7,1,outdoor_scenes,outdoor_scenes,69,62,Stimuli/Experimental_stims/outdoor_scenes/petr-vysohlid-9fqwGqGLUxc-unsplash.jpg,Stimuli/Experimental_stims/outdoor_scenes/ashim-d-silva-S2Q5mdOrrVc-unsplash.jpg,0,1,904,1,chosen,7,1,outdoor_scenes,outdoor_scenes,4500,1,4,1
94,21592,0,95,2,2,0,no_gain5,gain1,I,J,30,20,body_parts,faces,55,68,Stimuli/Experimental_stims/body_parts/mika-korhonen-Xodzxosar18-unsplash.jpg,Stimuli/Experimental_stims/faces/justin-chen-J7Cf1Gch49E-unsplash.jpg,0,0,821,1,unchosen,20,30,faces,body_parts,1900,0,4,1
95,21592,0,96,2,2,1,gain1,no_gain3,J,K,20,33,faces,body_parts,68,43,Stimuli/Experimental_stims/faces/justin-chen-J7Cf1Gch49E-unsplash.jpg,Stimuli/Experimental_stims/body_parts/tucker-good-36skLT5jZcc-unsplash.jpg,0,1,746,1,unchosen,20,33,faces,body_parts,1100,0,4,1
96,21592,0,97,2,2,1,gain3,no_gain3,A,K,43,33,objects,body_parts,41,43,Stimuli/Experimental_stims/objects/jonathan-greenaway-Y4hGgeiFn3s-unsplash.jpg,Stimuli/Experimental_stims/body_parts/tucker-good-36skLT5jZcc-unsplash.jpg,0,1,1477,1,unchosen,43,33,objects,body_parts,2300,0,4,1
97,21592,0,98,2,2,0,no_gain5,gain1,I,J,1,47,outdoor_scenes,objects,62,55,Stimuli/Experimental_stims/outdoor_scenes/ashim-d-silva-S2Q5mdOrrVc-unsplash.jpg,Stimuli/Experimental_stims/objects/ronaldo-arthur-vidal-Cdz_lvnl37k-unsplash.jpg,0,0,719,1,chosen,47,1,objects,outdoor_scenes,2800,0,4,1
98,21592,0,99,2,2,0,no_gain5,gain5,I,H,30,18,body_parts,faces,55,77,Stimuli/Experimental_stims/body_parts/mika-korhonen-Xodzxosar18-unsplash.jpg,Stimuli/Experimental_stims/faces/jessica-radanavong-mrYkTuAesKE-unsplash.jpg,0,0,915,1,unchosen,18,30,faces,body_parts,3200,1,4,1
99,21592,0,100,2,2,1,gain5,no_gain1,H,L,5,14,outdoor_scenes,faces,86,42,Stimuli/Experimental_stims/outdoor_scenes/jeff-king-bJHWJeiHfHc-unsplash.jpg,Stimuli/Experimental_stims/faces/david-siglin-UuW4psOb388-unsplash.jpg,0,1,558,1,chosen,5,14,outdoor_scenes,faces,2000,0,4,1
100,21592,0,101,2,2,0,no_gain2,gain6,G,E,6,28,outdoor_scenes,body_parts,71,77,Stimuli/Experimental_stims/outdoor_scenes/meng-ji-8BH_M-53CyA-unsplash.jpg,Stimuli/Experimental_stims/body_parts/ira-vishnevskaya-8DQAvdCby1I-unsplash.jpg,0,0,689,1,chosen,28,6,body_parts,outdoor_scenes,2500,0,4,1
101,21592,0,102,2,2,1,gain3,no_gain5,A,I,43,30,objects,body_parts,41,55,Stimuli/Experimental_stims/objects/jonathan-greenaway-Y4hGgeiFn3s-unsplash.jpg,Stimuli/Experimental_stims/body_parts/mika-korhonen-Xodzxosar18-unsplash.jpg,0,1,684,1,unchosen,43,30,objects,body_parts,1300,0,4,1
102,21592,0,103,2,2,1,gain6,no_gain3,E,K,42,33,objects,body_parts,54,43,Stimuli/Experimental_stims/objects/jess-bailey-nOeVi8DsN8U-unsplash.jpg,Stimuli/Experimental_stims/body_parts/tucker-good-36skLT5jZcc-unsplash.jpg,0,0,631,0,unchosen,33,42,body_parts,objects,1300,0,4,1
103,21592,0,104,2,2,1,gain4,no_gain4,C,B,24,16,body_parts,faces,68,84,Stimuli/Experimental_stims/body_parts/clay-banks-LjqARJaJotc-unsplash.jpg,Stimuli/Experimental_stims/faces/freddy-kearney-o-ioeoATbIM-unsplash.jpg,0,0,675,0,unchosen,16,24,faces,body_parts,4500,1,4,1
104,21592,0,105,2,2,1,gain6,no_gain1,E,L,28,14,body_parts,faces,77,42,Stimuli/Experimental_stims/body_parts/ira-vishnevskaya-8DQAvdCby1I-unsplash.jpg,Stimuli/Experimental_stims/faces/david-siglin-UuW4psOb388-unsplash.jpg,0,1,742,1,chosen,28,14,body_parts,faces,1400,0,4,1
105,21592,0,106,2,2,1,gain2,no_gain6,D,F,46,15,objects,faces,54,73,Stimuli/Experimental_stims/objects/mockup-graphics-PNsj6RiHAF4-unsplash.jpg,Stimuli/Experimental_stims/faces/erik-lucatero-d2MSDujJl2g-unsplash.jpg,0,0,602,0,unchosen,15,46,faces,objects,2600,0,4,1
106,21592,0,107,2,2,1,gain4,no_gain4,C,B,7,8,outdoor_scenes,outdoor_scenes,69,73,Stimuli/Experimental_stims/outdoor_scenes/petr-vysohlid-9fqwGqGLUxc-unsplash.jpg,Stimuli/Experimental_stims/outdoor_scenes/samsommer-vddccTqwal8-unsplash.jpg,0,1,756,1,chosen,7,8,outdoor_scenes,outdoor_scenes,2100,0,4,1
107,21592,0,108,2,2,0,no_gain6,gain6,F,E,15,42,faces,objects,73,54,Stimuli/Experimental_stims/faces/erik-lucatero-d2MSDujJl2g-unsplash.jpg,Stimuli/Experimental_stims/objects/jess-bailey-nOeVi8DsN8U-unsplash.jpg,0,1,565,0,unchosen,15,42,faces,objects,2100,0,4,1
108,21592,0,109,2,2,1,gain4,no_gain3,C,K,24,33,body_parts,body_parts,68,43,Stimuli/Experimental_stims/body_parts/clay-banks-LjqARJaJotc-unsplash.jpg,Stimuli/Experimental_stims/body_parts/tucker-good-36skLT5jZcc-unsplash.jpg,0,1,810,1,unchosen,24,33,body_parts,body_parts,2600,0,4,1
109,21592,0,110,2,2,0,no_gain1,gain1,L,J,14,47,faces,objects,42,55,Stimuli/Experimental_stims/faces/david-siglin-UuW4psOb388-unsplash.jpg,Stimuli/Experimental_stims/objects/ronaldo-arthur-vidal-Cdz_lvnl37k-unsplash.jpg,0,0,705,1,chosen,47,14,objects,faces,3000,1,4,1
110,21592,0,111,2,2,1,gain2,no_gain4,D,B,21,8,faces,outdoor_scenes,68,73,Stimuli/Experimental_stims/faces/leilani-angel-K84vnnzxmTQ-unsplash.jpg,Stimuli/Experimental_stims/outdoor_scenes/samsommer-vddccTqwal8-unsplash.jpg,0,1,536,1,chosen,21,8,faces,outdoor_scenes,1100,0,4,1
111,21592,0,112,2,2,0,no_gain1,gain3,L,A,35,43,body_parts,objects,36,41,Stimuli/Experimental_stims/body_parts/wc-so-KH4AAPjb-tI-unsplash.jpg,Stimuli/Experimental_stims/objects/jonathan-greenaway-Y4hGgeiFn3s-unsplash.jpg,0,1,993,0,unchosen,35,43,body_parts,objects,1000,0,4,1
112,21592,0,113,2,2,1,gain5,no_gain1,H,L,18,35,faces,body_parts,77,36,Stimuli/Experimental_stims/faces/jessica-radanavong-mrYkTuAesKE-unsplash.jpg,Stimuli/Experimental_stims/body_parts/wc-so-KH4AAPjb-tI-unsplash.jpg,0,1,677,1,unchosen,18,35,faces,body_parts,1300,0,4,1
113,21592,0,114,2,2,1,gain3,no_gain6,A,F,9,32,outdoor_scenes,body_parts,71,30,Stimuli/Experimental_stims/outdoor_scenes/sergey-pesterev-y-b_FOmJXdg-unsplash.jpg,Stimuli/Experimental_stims/body_parts/towfiqu-barbhuiya-3AsiVDsZnHg-unsplash.jpg,0,1,671,1,chosen,9,32,outdoor_scenes,body_parts,1000,0,4,1
114,21592,0,115,2,2,0,no_gain1,gain1,L,J,35,20,body_parts,faces,36,68,Stimuli/Experimental_stims/body_parts/wc-so-KH4AAPjb-tI-unsplash.jpg,Stimuli/Experimental_stims/faces/justin-chen-J7Cf1Gch49E-unsplash.jpg,0,1,778,0,unchosen,35,20,body_parts,faces,1200,0,4,1
115,21592,0,116,2,2,0,no_gain5,gain3,I,A,1,9,outdoor_scenes,outdoor_scenes,62,71,Stimuli/Experimental_stims/outdoor_scenes/ashim-d-silva-S2Q5mdOrrVc-unsplash.jpg,Stimuli/Experimental_stims/outdoor_scenes/sergey-pesterev-y-b_FOmJXdg-unsplash.jpg,0,0,619,1,chosen,9,1,outdoor_scenes,outdoor_scenes,1800,0,4,1
116,21592,0,117,2,2,1,gain5,no_gain2,H,G,18,40,faces,objects,77,36,Stimuli/Experimental_stims/faces/jessica-radanavong-mrYkTuAesKE-unsplash.jpg,Stimuli/Experimental_stims/objects/fabian-blank-pElSkGRA2NU-unsplash.jpg,0,1,683,1,unchosen,18,40,faces,objects,2300,0,4,1
117,21592,0,118,2,2,1,gain4,no_gain1,C,L,7,14,outdoor_scenes,faces,69,42,Stimuli/Experimental_stims/outdoor_scenes/petr-vysohlid-9fqwGqGLUxc-unsplash.jpg,Stimuli/Experimental_stims/faces/david-siglin-UuW4psOb388-unsplash.jpg,0,1,754,1,chosen,7,14,outdoor_scenes,faces,3500,1,4,1
118,21592,0,119,2,2,0,no_gain2,gain6,G,E,40,42,objects,objects,36,54,Stimuli/Experimental_stims/objects/fabian-blank-pElSkGRA2NU-unsplash.jpg,Stimuli/Experimental_stims/objects/jess-bailey-nOeVi8DsN8U-unsplash.jpg,0,0,698,1,unchosen,42,40,objects,objects,1300,0,4,1
119,21592,0,120,2,2,0,no_gain2,gain5,G,H,6,5,outdoor_scenes,outdoor_scenes,71,86,Stimuli/Experimental_stims/outdoor_scenes/meng-ji-8BH_M-53CyA-unsplash.jpg,Stimuli/Experimental_stims/outdoor_scenes/jeff-king-bJHWJeiHfHc-unsplash.jpg,0,0,777,1,chosen,5,6,outdoor_scenes,outdoor_scenes,1400,0,4,1
120,21592,0,121,2,2,1,gain3,no_gain3,A,K,9,37,outdoor_scenes,objects,71,55,Stimuli/Experimental_stims/outdoor_scenes/sergey-pesterev-y-b_FOmJXdg-unsplash.jpg,Stimuli/Experimental_stims/objects/alexander-andrews-VLGWE_SumrA-unsplash.jpg,0,1,648,1,chosen,9,37,outdoor_scenes,objects,1300,0,4,1
121,21592,0,122,2,2,1,gain6,no_gain1,E,L,42,35,objects,body_parts,54,36,Stimuli/Experimental_stims/objects/jess-bailey-nOeVi8DsN8U-unsplash.jpg,Stimuli/Experimental_stims/body_parts/wc-so-KH4AAPjb-tI-unsplash.jpg,0,0,706,0,unchosen,35,42,body_parts,objects,2800,0,4,1
122,21592,0,123,2,2,1,gain5,no_gain6,H,F,18,15,faces,faces,77,73,Stimuli/Experimental_stims/faces/jessica-radanavong-mrYkTuAesKE-unsplash.jpg,Stimuli/Experimental_stims/faces/erik-lucatero-d2MSDujJl2g-unsplash.jpg,0,0,667,0,unchosen,15,18,faces,faces,1800,0,4,1
123,21592,0,124,2,2,0,no_gain2,gain4,G,C,40,24,objects,body_parts,36,68,Stimuli/Experimental_stims/objects/fabian-blank-pElSkGRA2NU-unsplash.jpg,Stimuli/Experimental_stims/body_parts/clay-banks-LjqARJaJotc-unsplash.jpg,0,0,1055,1,unchosen,24,40,body_parts,objects,1200,0,4,1
124,21592,0,125,2,2,0,no_gain3,gain4,K,C,37,7,objects,outdoor_scenes,55,69,Stimuli/Experimental_stims/objects/alexander-andrews-VLGWE_SumrA-unsplash.jpg,Stimuli/Experimental_stims/outdoor_scenes/petr-vysohlid-9fqwGqGLUxc-unsplash.jpg,0,0,600,1,chosen,7,37,outdoor_scenes,objects,1000,0,4,1
125,21592,0,126,2,2,1,gain3,no_gain4,A,B,43,16,objects,faces,41,84,Stimuli/Experimental_stims/objects/jonathan-greenaway-Y4hGgeiFn3s-unsplash.jpg,Stimuli/Experimental_stims/faces/freddy-kearney-o-ioeoATbIM-unsplash.jpg,0,0,1094,0,unchosen,16,43,faces,objects,1600,0,4,1
126,21592,0,127,2,2,0,no_gain2,gain4,G,C,6,7,outdoor_scenes,outdoor_scenes,71,69,Stimuli/Experimental_stims/outdoor_scenes/meng-ji-8BH_M-53CyA-unsplash.jpg,Stimuli/Experimental_stims/outdoor_scenes/petr-vysohlid-9fqwGqGLUxc-unsplash.jpg,0,0,728,1,chosen,7,6,outdoor_scenes,outdoor_scenes,1500,0,4,1
127,21592,0,128,2,2,0,no_gain5,gain2,I,D,1,21,outdoor_scenes,faces,62,68,Stimuli/Experimental_stims/outdoor_scenes/ashim-d-silva-S2Q5mdOrrVc-unsplash.jpg,Stimuli/Experimental_stims/faces/leilani-angel-K84vnnzxmTQ-unsplash.jpg,0,0,709,1,chosen,21,1,faces,outdoor_scenes,3300,1,4,1
128,21592,0,129,2,2,0,no_gain4,gain1,B,J,8,47,outdoor_scenes,objects,73,55,Stimuli/Experimental_stims/outdoor_scenes/samsommer-vddccTqwal8-unsplash.jpg,Stimuli/Experimental_stims/objects/ronaldo-arthur-vidal-Cdz_lvnl37k-unsplash.jpg,0,0,1004,1,chosen,47,8,objects,outdoor_scenes,2200,0,4,1
129,21592,0,130,2,2,0,no_gain5,gain6,I,E,30,42,body_parts,objects,55,54,Stimuli/Experimental_stims/body_parts/mika-korhonen-Xodzxosar18-unsplash.jpg,Stimuli/Experimental_stims/objects/jess-bailey-nOeVi8DsN8U-unsplash.jpg,0,1,1073,0,unchosen,30,42,body_parts,objects,2400,0,4,1
130,21592,0,131,2,2,1,gain2,no_gain3,D,K,21,37,faces,objects,68,55,Stimuli/Experimental_stims/faces/leilani-angel-K84vnnzxmTQ-unsplash.jpg,Stimuli/Experimental_stims/objects/alexander-andrews-VLGWE_SumrA-unsplash.jpg,0,1,821,1,chosen,21,37,faces,objects,1300,0,4,1
131,21592,0,132,2,2,1,gain6,no_gain4,E,B,42,16,objects,faces,54,84,Stimuli/Experimental_stims/objects/jess-bailey-nOeVi8DsN8U-unsplash.jpg,Stimuli/Experimental_stims/faces/freddy-kearney-o-ioeoATbIM-unsplash.jpg,0,0,650,0,unchosen,16,42,faces,objects,2400,0,4,1
132,21592,0,133,2,2,0,no_gain1,gain4,L,C,35,24,body_parts,body_parts,36,68,Stimuli/Experimental_stims/body_parts/wc-so-KH4AAPjb-tI-unsplash.jpg,Stimuli/Experimental_stims/body_parts/clay-banks-LjqARJaJotc-unsplash.jpg,0,0,966,1,unchosen,24,35,body_parts,body_parts,2200,0,4,1
133,21592,0,134,2,2,0,no_gain6,gain4,F,C,32,7,body_parts,outdoor_scenes,30,69,Stimuli/Experimental_stims/body_parts/towfiqu-barbhuiya-3AsiVDsZnHg-unsplash.jpg,Stimuli/Experimental_stims/outdoor_scenes/petr-vysohlid-9fqwGqGLUxc-unsplash.jpg,0,0,616,1,chosen,7,32,outdoor_scenes,body_parts,2900,1,4,1
134,21592,0,135,2,2,1,gain1,no_gain6,J,F,47,32,objects,body_parts,55,30,Stimuli/Experimental_stims/objects/ronaldo-arthur-vidal-Cdz_lvnl37k-unsplash.jpg,Stimuli/Experimental_stims/body_parts/towfiqu-barbhuiya-3AsiVDsZnHg-unsplash.jpg,0,1,700,1,chosen,47,32,objects,body_parts,1900,0,4,1
135,21592,0,136,2,2,0,no_gain1,gain2,L,D,35,46,body_parts,objects,36,54,Stimuli/Experimental_stims/body_parts/wc-so-KH4AAPjb-tI-unsplash.jpg,Stimuli/Experimental_stims/objects/mockup-graphics-PNsj6RiHAF4-unsplash.jpg,0,1,889,0,unchosen,35,46,body_parts,objects,1700,0,4,1
136,21592,0,137,2,2,0,no_gain4,gain2,B,D,16,46,faces,objects,84,54,Stimuli/Experimental_stims/faces/freddy-kearney-o-ioeoATbIM-unsplash.jpg,Stimuli/Experimental_stims/objects/mockup-graphics-PNsj6RiHAF4-unsplash.jpg,0,1,584,0,unchosen,16,46,faces,objects,1900,0,4,1
137,21592,0,138,2,2,1,gain6,no_gain6,E,F,28,32,body_parts,body_parts,77,30,Stimuli/Experimental_stims/body_parts/ira-vishnevskaya-8DQAvdCby1I-unsplash.jpg,Stimuli/Experimental_stims/body_parts/towfiqu-barbhuiya-3AsiVDsZnHg-unsplash.jpg,0,1,566,1,chosen,28,32,body_parts,body_parts,1700,0,4,1
138,21592,0,139,2,2,0,no_gain3,gain2,K,D,33,46,body_parts,objects,43,54,Stimuli/Experimental_stims/body_parts/tucker-good-36skLT5jZcc-unsplash.jpg,Stimuli/Experimental_stims/objects/mockup-graphics-PNsj6RiHAF4-unsplash.jpg,0,0,718,1,unchosen,46,33,objects,body_parts,1300,0,4,1
139,21592,0,140,2,2,1,gain5,no_gain4,H,B,18,16,faces,faces,77,84,Stimuli/Experimental_stims/faces/jessica-radanavong-mrYkTuAesKE-unsplash.jpg,Stimuli/Experimental_stims/faces/freddy-kearney-o-ioeoATbIM-unsplash.jpg,0,0,876,0,unchosen,16,18,faces,faces,3600,1,4,1
140,21592,0,141,2,2,1,gain5,no_gain4,H,B,5,8,outdoor_scenes,outdoor_scenes,86,73,Stimuli/Experimental_stims/outdoor_scenes/jeff-king-bJHWJeiHfHc-unsplash.jpg,Stimuli/Experimental_stims/outdoor_scenes/samsommer-vddccTqwal8-unsplash.jpg,0,1,541,1,chosen,5,8,outdoor_scenes,outdoor_scenes,1700,0,4,1
141,21592,0,142,2,2,0,no_gain6,gain2,F,D,32,21,body_parts,faces,30,68,Stimuli/Experimental_stims/body_parts/towfiqu-barbhuiya-3AsiVDsZnHg-unsplash.jpg,Stimuli/Experimental_stims/faces/leilani-angel-K84vnnzxmTQ-unsplash.jpg,0,0,621,1,chosen,21,32,faces,body_parts,1900,0,4,1
142,21592,0,143,2,2,0,no_gain2,gain1,G,J,6,47,outdoor_scenes,objects,71,55,Stimuli/Experimental_stims/outdoor_scenes/meng-ji-8BH_M-53CyA-unsplash.jpg,Stimuli/Experimental_stims/objects/ronaldo-arthur-vidal-Cdz_lvnl37k-unsplash.jpg,0,0,645,1,chosen,47,6,objects,outdoor_scenes,2200,0,4,1
143,21592,0,144,2,2,0,no_gain3,gain5,K,H,33,18,body_parts,faces,43,77,Stimuli/Experimental_stims/body_parts/tucker-good-36skLT5jZcc-unsplash.jpg,Stimuli/Experimental_stims/faces/jessica-radanavong-mrYkTuAesKE-unsplash.jpg,0,0,675,1,unchosen,18,33,faces,body_parts,1800,0,4,1
144,21592,0,145,2,2,0,no_gain6,gain3,F,A,15,43,faces,objects,73,41,Stimuli/Experimental_stims/faces/erik-lucatero-d2MSDujJl2g-unsplash.jpg,Stimuli/Experimental_stims/objects/jonathan-greenaway-Y4hGgeiFn3s-unsplash.jpg,0,1,595,0,unchosen,15,43,faces,objects,1400,0,4,1
145,21592,0,146,2,2,0,no_gain2,gain3,G,A,6,9,outdoor_scenes,outdoor_scenes,71,71,Stimuli/Experimental_stims/outdoor_scenes/meng-ji-8BH_M-53CyA-unsplash.jpg,Stimuli/Experimental_stims/outdoor_scenes/sergey-pesterev-y-b_FOmJXdg-unsplash.jpg,0,0,633,1,chosen,9,6,outdoor_scenes,outdoor_scenes,1800,0,4,1
146,21592,0,147,2,2,1,gain3,no_gain2,A,G,43,40,objects,objects,41,36,Stimuli/Experimental_stims/objects/jonathan-greenaway-Y4hGgeiFn3s-unsplash.jpg,Stimuli/Experimental_stims/objects/fabian-blank-pElSkGRA2NU-unsplash.jpg,0,1,781,1,unchosen,43,40,objects,objects,1300,0,4,1
147,21592,0,148,2,2,1,gain1,no_gain6,J,F,20,15,faces,faces,68,73,Stimuli/Experimental_stims/faces/justin-chen-J7Cf1Gch49E-unsplash.jpg,Stimuli/Experimental_stims/faces/erik-lucatero-d2MSDujJl2g-unsplash.jpg,0,0,483,0,unchosen,15,20,faces,faces,3600,1,4,1
148,21592,0,149,3,3,1,gain3,no_gain6,A,F,43,15,objects,faces,41,73,Stimuli/Experimental_stims/objects/jonathan-greenaway-Y4hGgeiFn3s-unsplash.jpg,Stimuli/Experimental_stims/faces/erik-lucatero-d2MSDujJl2g-unsplash.jpg,0,0,699,0,unchosen,15,43,faces,objects,1200,0,5,1
149,21592,0,150,3,3,1,gain3,no_gain3,A,K,9,37,outdoor_scenes,objects,71,55,Stimuli/Experimental_stims/outdoor_scenes/sergey-pesterev-y-b_FOmJXdg-unsplash.jpg,Stimuli/Experimental_stims/objects/alexander-andrews-VLGWE_SumrA-unsplash.jpg,0,1,916,1,chosen,9,37,outdoor_scenes,objects,1100,0,5,1
150,21592,0,151,3,3,1,gain1,no_gain4,J,B,47,8,objects,outdoor_scenes,55,73,Stimuli/Experimental_stims/objects/ronaldo-arthur-vidal-Cdz_lvnl37k-unsplash.jpg,Stimuli/Experimental_stims/outdoor_scenes/samsommer-vddccTqwal8-unsplash.jpg,0,1,730,1,chosen,47,8,objects,outdoor_scenes,1100,0,5,1
151,21592,0,152,3,3,1,gain5,no_gain6,H,F,18,15,faces,faces,77,73,Stimuli/Experimental_stims/faces/jessica-radanavong-mrYkTuAesKE-unsplash.jpg,Stimuli/Experimental_stims/faces/erik-lucatero-d2MSDujJl2g-unsplash.jpg,0,0,650,0,unchosen,15,18,faces,faces,1300,0,5,1
152,21592,0,153,3,3,1,gain2,no_gain6,D,F,21,32,faces,body_parts,68,30,Stimuli/Experimental_stims/faces/leilani-angel-K84vnnzxmTQ-unsplash.jpg,Stimuli/Experimental_stims/body_parts/towfiqu-barbhuiya-3AsiVDsZnHg-unsplash.jpg,0,1,665,1,chosen,21,32,faces,body_parts,3300,1,5,1
153,21592,0,154,3,3,1,gain6,no_gain6,E,F,28,32,body_parts,body_parts,77,30,Stimuli/Experimental_stims/body_parts/ira-vishnevskaya-8DQAvdCby1I-unsplash.jpg,Stimuli/Experimental_stims/body_parts/towfiqu-barbhuiya-3AsiVDsZnHg-unsplash.jpg,0,1,675,1,chosen,28,32,body_parts,body_parts,1000,0,5,1
154,21592,0,155,3,3,1,gain1,no_gain2,J,G,20,40,faces,objects,68,36,Stimuli/Experimental_stims/faces/justin-chen-J7Cf1Gch49E-unsplash.jpg,Stimuli/Experimental_stims/objects/fabian-blank-pElSkGRA2NU-unsplash.jpg,0,0,760,0,unchosen,40,20,objects,faces,1300,0,5,1
155,21592,0,156,3,3,0,no_gain4,gain3,B,A,8,9,outdoor_scenes,outdoor_scenes,73,71,Stimuli/Experimental_stims/outdoor_scenes/samsommer-vddccTqwal8-unsplash.jpg,Stimuli/Experimental_stims/outdoor_scenes/sergey-pesterev-y-b_FOmJXdg-unsplash.jpg,0,0,568,1,chosen,9,8,outdoor_scenes,outdoor_scenes,1300,0,5,1
156,21592,0,157,3,3,0,no_gain4,gain4,B,C,8,7,outdoor_scenes,outdoor_scenes,73,69,Stimuli/Experimental_stims/outdoor_scenes/samsommer-vddccTqwal8-unsplash.jpg,Stimuli/Experimental_stims/outdoor_scenes/petr-vysohlid-9fqwGqGLUxc-unsplash.jpg,0,0,716,1,chosen,7,8,outdoor_scenes,outdoor_scenes,1600,0,5,1
157,21592,0,158,3,3,1,gain6,no_gain3,E,K,28,37,body_parts,objects,77,55,Stimuli/Experimental_stims/body_parts/ira-vishnevskaya-8DQAvdCby1I-unsplash.jpg,Stimuli/Experimental_stims/objects/alexander-andrews-VLGWE_SumrA-unsplash.jpg,0,1,583,1,chosen,28,37,body_parts,objects,1400,0,5,1
158,21592,0,159,3,3,0,no_gain1,gain2,L,D,35,46,body_parts,objects,36,54,Stimuli/Experimental_stims/body_parts/wc-so-KH4AAPjb-tI-unsplash.jpg,Stimuli/Experimental_stims/objects/mockup-graphics-PNsj6RiHAF4-unsplash.jpg,0,0,985,1,unchosen,46,35,objects,body_parts,2100,0,5,1
159,21592,0,160,3,3,0,no_gain4,gain3,B,A,16,43,faces,objects,84,41,Stimuli/Experimental_stims/faces/freddy-kearney-o-ioeoATbIM-unsplash.jpg,Stimuli/Experimental_stims/objects/jonathan-greenaway-Y4hGgeiFn3s-unsplash.jpg,0,0,769,1,unchosen,43,16,objects,faces,1200,0,5,1
160,21592,0,161,3,3,0,no_gain1,gain3,L,A,14,9,faces,outdoor_scenes,42,71,Stimuli/Experimental_stims/faces/david-siglin-UuW4psOb388-unsplash.jpg,Stimuli/Experimental_stims/outdoor_scenes/sergey-pesterev-y-b_FOmJXdg-unsplash.jpg,0,0,816,1,chosen,9,14,outdoor_scenes,faces,4100,1,5,1
161,21592,0,162,3,3,0,no_gain1,gain4,L,C,35,24,body_parts,body_parts,36,68,Stimuli/Experimental_stims/body_parts/wc-so-KH4AAPjb-tI-unsplash.jpg,Stimuli/Experimental_stims/body_parts/clay-banks-LjqARJaJotc-unsplash.jpg,0,0,808,1,unchosen,24,35,body_parts,body_parts,1900,0,5,1
162,21592,0,163,3,3,1,gain5,no_gain5,H,I,5,1,outdoor_scenes,outdoor_scenes,86,62,Stimuli/Experimental_stims/outdoor_scenes/jeff-king-bJHWJeiHfHc-unsplash.jpg,Stimuli/Experimental_stims/outdoor_scenes/ashim-d-silva-S2Q5mdOrrVc-unsplash.jpg,0,1,551,1,chosen,5,1,outdoor_scenes,outdoor_scenes,2000,0,5,1
163,21592,0,164,3,3,0,no_gain2,gain5,G,H,40,18,objects,faces,36,77,Stimuli/Experimental_stims/objects/fabian-blank-pElSkGRA2NU-unsplash.jpg,Stimuli/Experimental_stims/faces/jessica-radanavong-mrYkTuAesKE-unsplash.jpg,0,0,694,1,unchosen,18,40,faces,objects,2600,0,5,1
164,21592,0,165,3,3,1,gain1,no_gain4,J,B,20,16,faces,faces,68,84,Stimuli/Experimental_stims/faces/justin-chen-J7Cf1Gch49E-unsplash.jpg,Stimuli/Experimental_stims/faces/freddy-kearney-o-ioeoATbIM-unsplash.jpg,0,0,747,0,unchosen,16,20,faces,faces,1100,0,5,1
165,21592,0,166,3,3,0,no_gain4,gain5,B,H,8,5,outdoor_scenes,outdoor_scenes,73,86,Stimuli/Experimental_stims/outdoor_scenes/samsommer-vddccTqwal8-unsplash.jpg,Stimuli/Experimental_stims/outdoor_scenes/jeff-king-bJHWJeiHfHc-unsplash.jpg,0,0,573,1,chosen,5,8,outdoor_scenes,outdoor_scenes,4400,1,5,1
166,21592,0,167,3,3,0,no_gain5,gain4,I,C,30,24,body_parts,body_parts,55,68,Stimuli/Experimental_stims/body_parts/mika-korhonen-Xodzxosar18-unsplash.jpg,Stimuli/Experimental_stims/body_parts/clay-banks-LjqARJaJotc-unsplash.jpg,0,0,561,1,unchosen,24,30,body_parts,body_parts,1200,0,5,1
167,21592,0,168,3,3,0,no_gain5,gain6,I,E,1,28,outdoor_scenes,body_parts,62,77,Stimuli/Experimental_stims/outdoor_scenes/ashim-d-silva-S2Q5mdOrrVc-unsplash.jpg,Stimuli/Experimental_stims/body_parts/ira-vishnevskaya-8DQAvdCby1I-unsplash.jpg,0,0,561,1,chosen,28,1,body_parts,outdoor_scenes,1100,0,5,1
168,21592,0,169,3,3,1,gain1,no_gain6,J,F,20,15,faces,faces,68,73,Stimuli/Experimental_stims/faces/justin-chen-J7Cf1Gch49E-unsplash.jpg,Stimuli/Experimental_stims/faces/erik-lucatero-d2MSDujJl2g-unsplash.jpg,0,0,663,0,unchosen,15,20,faces,faces,1700,0,5,1
169,21592,0,170,3,3,1,gain2,no_gain2,D,G,21,6,faces,outdoor_scenes,68,71,Stimuli/Experimental_stims/faces/leilani-angel-K84vnnzxmTQ-unsplash.jpg,Stimuli/Experimental_stims/outdoor_scenes/meng-ji-8BH_M-53CyA-unsplash.jpg,0,1,669,1,chosen,21,6,faces,outdoor_scenes,1100,0,5,1
170,21592,0,171,3,3,0,no_gain2,gain4,G,C,40,24,objects,body_parts,36,68,Stimuli/Experimental_stims/objects/fabian-blank-pElSkGRA2NU-unsplash.jpg,Stimuli/Experimental_stims/body_parts/clay-banks-LjqARJaJotc-unsplash.jpg,0,0,570,1,unchosen,24,40,body_parts,objects,3300,1,5,1
171,21592,0,172,3,3,0,no_gain3,gain2,K,D,37,21,objects,faces,55,68,Stimuli/Experimental_stims/objects/alexander-andrews-VLGWE_SumrA-unsplash.jpg,Stimuli/Experimental_stims/faces/leilani-angel-K84vnnzxmTQ-unsplash.jpg,0,0,541,1,chosen,21,37,faces,objects,2800,0,5,1
172,21592,0,173,3,3,0,no_gain4,gain2,B,D,8,21,outdoor_scenes,faces,73,68,Stimuli/Experimental_stims/outdoor_scenes/samsommer-vddccTqwal8-unsplash.jpg,Stimuli/Experimental_stims/faces/leilani-angel-K84vnnzxmTQ-unsplash.jpg,0,1,533,0,chosen,8,21,outdoor_scenes,faces,1000,0,5,1
173,21592,0,174,3,3,0,no_gain1,gain6,L,E,35,42,body_parts,objects,36,54,Stimuli/Experimental_stims/body_parts/wc-so-KH4AAPjb-tI-unsplash.jpg,Stimuli/Experimental_stims/objects/jess-bailey-nOeVi8DsN8U-unsplash.jpg,0,1,1484,0,unchosen,35,42,body_parts,objects,3100,0,5,1
174,21592,0,175,3,3,1,gain4,no_gain1,C,L,7,14,outdoor_scenes,faces,69,42,Stimuli/Experimental_stims/outdoor_scenes/petr-vysohlid-9fqwGqGLUxc-unsplash.jpg,Stimuli/Experimental_stims/faces/david-siglin-UuW4psOb388-unsplash.jpg,0,1,640,1,chosen,7,14,outdoor_scenes,faces,2000,0,5,1
175,21592,0,176,3,3,0,no_gain6,gain6,F,E,15,42,faces,objects,73,54,Stimuli/Experimental_stims/faces/erik-lucatero-d2MSDujJl2g-unsplash.jpg,Stimuli/Experimental_stims/objects/jess-bailey-nOeVi8DsN8U-unsplash.jpg,0,1,516,0,unchosen,15,42,faces,objects,2300,0,5,1
176,21592,0,177,3,3,0,no_gain2,gain5,G,H,6,5,outdoor_scenes,outdoor_scenes,71,86,Stimuli/Experimental_stims/outdoor_scenes/meng-ji-8BH_M-53CyA-unsplash.jpg,Stimuli/Experimental_stims/outdoor_scenes/jeff-king-bJHWJeiHfHc-unsplash.jpg,0,0,532,1,chosen,5,6,outdoor_scenes,outdoor_scenes,1500,0,5,1
177,21592,0,178,3,3,0,no_gain5,gain2,I,D,30,46,body_parts,objects,55,54,Stimuli/Experimental_stims/body_parts/mika-korhonen-Xodzxosar18-unsplash.jpg,Stimuli/Experimental_stims/objects/mockup-graphics-PNsj6RiHAF4-unsplash.jpg,0,0,959,1,unchosen,46,30,objects,body_parts,1600,0,5,1
178,21592,0,179,3,3,1,gain6,no_gain1,E,L,28,14,body_parts,faces,77,42,Stimuli/Experimental_stims/body_parts/ira-vishnevskaya-8DQAvdCby1I-unsplash.jpg,Stimuli/Experimental_stims/faces/david-siglin-UuW4psOb388-unsplash.jpg,0,1,629,1,chosen,28,14,body_parts,faces,4200,1,5,1
179,21592,0,180,3,3,0,no_gain5,gain4,I,C,1,7,outdoor_scenes,outdoor_scenes,62,69,Stimuli/Experimental_stims/outdoor_scenes/ashim-d-silva-S2Q5mdOrrVc-unsplash.jpg,Stimuli/Experimental_stims/outdoor_scenes/petr-vysohlid-9fqwGqGLUxc-unsplash.jpg,0,0,656,1,chosen,7,1,outdoor_scenes,outdoor_scenes,1000,0,5,1
180,21592,0,181,3,3,0,no_gain6,gain3,F,A,32,9,body_parts,outdoor_scenes,30,71,Stimuli/Experimental_stims/body_parts/towfiqu-barbhuiya-3AsiVDsZnHg-unsplash.jpg,Stimuli/Experimental_stims/outdoor_scenes/sergey-pesterev-y-b_FOmJXdg-unsplash.jpg,0,0,628,1,chosen,9,32,outdoor_scenes,body_parts,2000,0,5,1
181,21592,0,182,3,3,1,gain4,no_gain3,C,K,24,33,body_parts,body_parts,68,43,Stimuli/Experimental_stims/body_parts/clay-banks-LjqARJaJotc-unsplash.jpg,Stimuli/Experimental_stims/body_parts/tucker-good-36skLT5jZcc-unsplash.jpg,0,1,938,1,unchosen,24,33,body_parts,body_parts,1700,0,5,1
182,21592,0,183,3,3,1,gain2,no_gain6,D,F,46,15,objects,faces,54,73,Stimuli/Experimental_stims/objects/mockup-graphics-PNsj6RiHAF4-unsplash.jpg,Stimuli/Experimental_stims/faces/erik-lucatero-d2MSDujJl2g-unsplash.jpg,0,0,573,0,unchosen,15,46,faces,objects,2300,0,5,1
183,21592,0,184,3,3,1,gain4,no_gain4,C,B,24,16,body_parts,faces,68,84,Stimuli/Experimental_stims/body_parts/clay-banks-LjqARJaJotc-unsplash.jpg,Stimuli/Experimental_stims/faces/freddy-kearney-o-ioeoATbIM-unsplash.jpg,0,0,690,0,unchosen,16,24,faces,body_parts,3300,1,5,1
184,21592,0,185,3,3,0,no_gain1,gain2,L,D,14,21,faces,faces,42,68,Stimuli/Experimental_stims/faces/david-siglin-UuW4psOb388-unsplash.jpg,Stimuli/Experimental_stims/faces/leilani-angel-K84vnnzxmTQ-unsplash.jpg,0,0,602,1,chosen,21,14,faces,faces,1100,0,5,1
185,21592,0,186,3,3,0,no_gain4,gain6,B,E,8,28,outdoor_scenes,body_parts,73,77,Stimuli/Experimental_stims/outdoor_scenes/samsommer-vddccTqwal8-unsplash.jpg,Stimuli/Experimental_stims/body_parts/ira-vishnevskaya-8DQAvdCby1I-unsplash.jpg,0,0,997,1,chosen,28,8,body_parts,outdoor_scenes,1900,0,5,1
186,21592,0,187,3,3,1,gain3,no_gain5,A,I,9,1,outdoor_scenes,outdoor_scenes,71,62,Stimuli/Experimental_stims/outdoor_scenes/sergey-pesterev-y-b_FOmJXdg-unsplash.jpg,Stimuli/Experimental_stims/outdoor_scenes/ashim-d-silva-S2Q5mdOrrVc-unsplash.jpg,0,1,617,1,chosen,9,1,outdoor_scenes,outdoor_scenes,2400,0,5,1
187,21592,0,188,3,3,0,no_gain2,gain6,G,E,40,42,objects,objects,36,54,Stimuli/Experimental_stims/objects/fabian-blank-pElSkGRA2NU-unsplash.jpg,Stimuli/Experimental_stims/objects/jess-bailey-nOeVi8DsN8U-unsplash.jpg,0,0,1000,1,unchosen,42,40,objects,objects,1900,0,5,1
188,21592,0,189,3,3,0,no_gain1,gain1,L,J,35,20,body_parts,faces,36,68,Stimuli/Experimental_stims/body_parts/wc-so-KH4AAPjb-tI-unsplash.jpg,Stimuli/Experimental_stims/faces/justin-chen-J7Cf1Gch49E-unsplash.jpg,0,1,814,0,unchosen,35,20,body_parts,faces,3300,1,5,1
189,21592,0,190,3,3,0,no_gain3,gain5,K,H,33,18,body_parts,faces,43,77,Stimuli/Experimental_stims/body_parts/tucker-good-36skLT5jZcc-unsplash.jpg,Stimuli/Experimental_stims/faces/jessica-radanavong-mrYkTuAesKE-unsplash.jpg,0,0,599,1,unchosen,18,33,faces,body_parts,1200,0,5,1
190,21592,0,191,3,3,1,gain1,no_gain1,J,L,47,14,objects,faces,55,42,Stimuli/Experimental_stims/objects/ronaldo-arthur-vidal-Cdz_lvnl37k-unsplash.jpg,Stimuli/Experimental_stims/faces/david-siglin-UuW4psOb388-unsplash.jpg,0,1,1103,1,chosen,47,14,objects,faces,1100,0,5,1
191,21592,0,192,3,3,0,no_gain4,gain5,B,H,16,18,faces,faces,84,77,Stimuli/Experimental_stims/faces/freddy-kearney-o-ioeoATbIM-unsplash.jpg,Stimuli/Experimental_stims/faces/jessica-radanavong-mrYkTuAesKE-unsplash.jpg,0,0,586,1,unchosen,18,16,faces,faces,1400,0,5,1
192,21592,0,193,3,3,1,gain3,no_gain1,A,L,43,35,objects,body_parts,41,36,Stimuli/Experimental_stims/objects/jonathan-greenaway-Y4hGgeiFn3s-unsplash.jpg,Stimuli/Experimental_stims/body_parts/wc-so-KH4AAPjb-tI-unsplash.jpg,0,1,717,1,unchosen,43,35,objects,body_parts,2600,0,5,1
193,21592,0,194,3,3,1,gain6,no_gain4,E,B,42,16,objects,faces,54,84,Stimuli/Experimental_stims/objects/jess-bailey-nOeVi8DsN8U-unsplash.jpg,Stimuli/Experimental_stims/faces/freddy-kearney-o-ioeoATbIM-unsplash.jpg,0,0,570,0,unchosen,16,42,faces,objects,1100,0,5,1
194,21592,0,195,3,3,1,gain1,no_gain3,J,K,47,37,objects,objects,55,55,Stimuli/Experimental_stims/objects/ronaldo-arthur-vidal-Cdz_lvnl37k-unsplash.jpg,Stimuli/Experimental_stims/objects/alexander-andrews-VLGWE_SumrA-unsplash.jpg,0,1,763,1,chosen,47,37,objects,objects,4100,1,5,1
195,21592,0,196,3,3,1,gain6,no_gain3,E,K,42,33,objects,body_parts,54,43,Stimuli/Experimental_stims/objects/jess-bailey-nOeVi8DsN8U-unsplash.jpg,Stimuli/Experimental_stims/body_parts/tucker-good-36skLT5jZcc-unsplash.jpg,0,0,724,0,unchosen,33,42,body_parts,objects,1000,0,5,1
196,21592,0,197,3,3,0,no_gain3,gain4,K,C,37,7,objects,outdoor_scenes,55,69,Stimuli/Experimental_stims/objects/alexander-andrews-VLGWE_SumrA-unsplash.jpg,Stimuli/Experimental_stims/outdoor_scenes/petr-vysohlid-9fqwGqGLUxc-unsplash.jpg,0,0,836,1,chosen,7,37,outdoor_scenes,objects,1800,0,5,1
197,21592,0,198,3,3,1,gain1,no_gain3,J,K,20,33,faces,body_parts,68,43,Stimuli/Experimental_stims/faces/justin-chen-J7Cf1Gch49E-unsplash.jpg,Stimuli/Experimental_stims/body_parts/tucker-good-36skLT5jZcc-unsplash.jpg,0,1,1099,1,unchosen,20,33,faces,body_parts,1600,0,5,1
198,21592,0,199,3,3,1,gain4,no_gain6,C,F,24,15,body_parts,faces,68,73,Stimuli/Experimental_stims/body_parts/clay-banks-LjqARJaJotc-unsplash.jpg,Stimuli/Experimental_stims/faces/erik-lucatero-d2MSDujJl2g-unsplash.jpg,0,0,629,0,unchosen,15,24,faces,body_parts,2100,0,5,1
199,21592,0,200,3,3,1,gain2,no_gain4,D,B,46,16,objects,faces,54,84,Stimuli/Experimental_stims/objects/mockup-graphics-PNsj6RiHAF4-unsplash.jpg,Stimuli/Experimental_stims/faces/freddy-kearney-o-ioeoATbIM-unsplash.jpg,0,0,710,0,unchosen,16,46,faces,objects,1700,0,5,1
200,21592,0,201,3,3,1,gain5,no_gain3,H,K,5,37,outdoor_scenes,objects,86,55,Stimuli/Experimental_stims/outdoor_scenes/jeff-king-bJHWJeiHfHc-unsplash.jpg,Stimuli/Experimental_stims/objects/alexander-andrews-VLGWE_SumrA-unsplash.jpg,0,1,571,1,chosen,5,37,outdoor_scenes,objects,3200,1,5,1
201,21592,0,202,3,3,0,no_gain6,gain4,F,C,32,7,body_parts,outdoor_scenes,30,69,Stimuli/Experimental_stims/body_parts/towfiqu-barbhuiya-3AsiVDsZnHg-unsplash.jpg,Stimuli/Experimental_stims/outdoor_scenes/petr-vysohlid-9fqwGqGLUxc-unsplash.jpg,0,0,544,1,chosen,7,32,outdoor_scenes,body_parts,1100,0,5,1
202,21592,0,203,3,3,1,gain2,no_gain2,D,G,46,40,objects,objects,54,36,Stimuli/Experimental_stims/objects/mockup-graphics-PNsj6RiHAF4-unsplash.jpg,Stimuli/Experimental_stims/objects/fabian-blank-pElSkGRA2NU-unsplash.jpg,0,1,814,1,unchosen,46,40,objects,objects,2800,0,5,1
203,21592,0,204,3,3,1,gain2,no_gain5,D,I,21,1,faces,outdoor_scenes,68,62,Stimuli/Experimental_stims/faces/leilani-angel-K84vnnzxmTQ-unsplash.jpg,Stimuli/Experimental_stims/outdoor_scenes/ashim-d-silva-S2Q5mdOrrVc-unsplash.jpg,0,1,754,1,chosen,21,1,faces,outdoor_scenes,1400,0,5,1
204,21592,0,205,3,3,1,gain1,no_gain2,J,G,47,6,objects,outdoor_scenes,55,71,Stimuli/Experimental_stims/objects/ronaldo-arthur-vidal-Cdz_lvnl37k-unsplash.jpg,Stimuli/Experimental_stims/outdoor_scenes/meng-ji-8BH_M-53CyA-unsplash.jpg,0,1,847,1,chosen,47,6,objects,outdoor_scenes,2200,0,5,1
205,21592,0,206,3,3,1,gain3,no_gain3,A,K,43,33,objects,body_parts,41,43,Stimuli/Experimental_stims/objects/jonathan-greenaway-Y4hGgeiFn3s-unsplash.jpg,Stimuli/Experimental_stims/body_parts/tucker-good-36skLT5jZcc-unsplash.jpg,0,1,642,1,unchosen,43,33,objects,body_parts,1200,0,5,1
206,21592,0,207,3,3,0,no_gain6,gain5,F,H,32,5,body_parts,outdoor_scenes,30,86,Stimuli/Experimental_stims/body_parts/towfiqu-barbhuiya-3AsiVDsZnHg-unsplash.jpg,Stimuli/Experimental_stims/outdoor_scenes/jeff-king-bJHWJeiHfHc-unsplash.jpg,0,0,517,1,chosen,5,32,outdoor_scenes,body_parts,2100,0,5,1
207,21592,0,208,3,3,1,gain1,no_gain5,J,I,47,1,objects,outdoor_scenes,55,62,Stimuli/Experimental_stims/objects/ronaldo-arthur-vidal-Cdz_lvnl37k-unsplash.jpg,Stimuli/Experimental_stims/outdoor_scenes/ashim-d-silva-S2Q5mdOrrVc-unsplash.jpg,0,1,964,1,chosen,47,1,objects,outdoor_scenes,2600,0,5,1
208,21592,0,209,3,3,0,no_gain2,gain3,G,A,40,43,objects,objects,36,41,Stimuli/Experimental_stims/objects/fabian-blank-pElSkGRA2NU-unsplash.jpg,Stimuli/Experimental_stims/objects/jonathan-greenaway-Y4hGgeiFn3s-unsplash.jpg,0,1,733,0,unchosen,40,43,objects,objects,3800,1,5,1
209,21592,0,210,3,3,0,no_gain6,gain1,F,J,32,47,body_parts,objects,30,55,Stimuli/Experimental_stims/body_parts/towfiqu-barbhuiya-3AsiVDsZnHg-unsplash.jpg,Stimuli/Experimental_stims/objects/ronaldo-arthur-vidal-Cdz_lvnl37k-unsplash.jpg,0,0,744,1,chosen,47,32,objects,body_parts,2300,0,5,1
210,21592,0,211,3,3,1,gain3,no_gain2,A,G,9,6,outdoor_scenes,outdoor_scenes,71,71,Stimuli/Experimental_stims/outdoor_scenes/sergey-pesterev-y-b_FOmJXdg-unsplash.jpg,Stimuli/Experimental_stims/outdoor_scenes/meng-ji-8BH_M-53CyA-unsplash.jpg,0,1,1011,1,chosen,9,6,outdoor_scenes,outdoor_scenes,1500,0,5,1
211,21592,0,212,3,3,0,no_gain3,gain2,K,D,33,46,body_parts,objects,43,54,Stimuli/Experimental_stims/body_parts/tucker-good-36skLT5jZcc-unsplash.jpg,Stimuli/Experimental_stims/objects/mockup-graphics-PNsj6RiHAF4-unsplash.jpg,0,0,886,1,unchosen,46,33,objects,body_parts,1700,0,5,1
212,21592,0,213,3,3,1,gain5,no_gain5,H,I,18,30,faces,body_parts,77,55,Stimuli/Experimental_stims/faces/jessica-radanavong-mrYkTuAesKE-unsplash.jpg,Stimuli/Experimental_stims/body_parts/mika-korhonen-Xodzxosar18-unsplash.jpg,0,1,790,1,unchosen,18,30,faces,body_parts,1000,0,5,1
213,21592,0,214,3,3,1,gain6,no_gain5,E,I,42,30,objects,body_parts,54,55,Stimuli/Experimental_stims/objects/jess-bailey-nOeVi8DsN8U-unsplash.jpg,Stimuli/Experimental_stims/body_parts/mika-korhonen-Xodzxosar18-unsplash.jpg,0,0,810,0,unchosen,30,42,body_parts,objects,2800,0,5,1
214,21592,0,215,3,3,0,no_gain1,gain5,L,H,14,5,faces,outdoor_scenes,42,86,Stimuli/Experimental_stims/faces/david-siglin-UuW4psOb388-unsplash.jpg,Stimuli/Experimental_stims/outdoor_scenes/jeff-king-bJHWJeiHfHc-unsplash.jpg,0,0,746,1,chosen,5,14,outdoor_scenes,faces,2400,0,5,1
215,21592,0,216,3,3,0,no_gain1,gain5,L,H,35,18,body_parts,faces,36,77,Stimuli/Experimental_stims/body_parts/wc-so-KH4AAPjb-tI-unsplash.jpg,Stimuli/Experimental_stims/faces/jessica-radanavong-mrYkTuAesKE-unsplash.jpg,0,0,705,1,unchosen,18,35,faces,body_parts,3800,1,5,1
216,21592,0,217,3,3,0,no_gain5,gain3,I,A,30,43,body_parts,objects,55,41,Stimuli/Experimental_stims/body_parts/mika-korhonen-Xodzxosar18-unsplash.jpg,Stimuli/Experimental_stims/objects/jonathan-greenaway-Y4hGgeiFn3s-unsplash.jpg,0,1,817,0,unchosen,30,43,body_parts,objects,1500,0,5,1
217,21592,0,218,3,3,0,no_gain5,gain1,I,J,30,20,body_parts,faces,55,68,Stimuli/Experimental_stims/body_parts/mika-korhonen-Xodzxosar18-unsplash.jpg,Stimuli/Experimental_stims/faces/justin-chen-J7Cf1Gch49E-unsplash.jpg,0,1,842,0,unchosen,30,20,body_parts,faces,1100,0,5,1
218,21592,0,219,3,3,1,gain4,no_gain2,C,G,7,6,outdoor_scenes,outdoor_scenes,69,71,Stimuli/Experimental_stims/outdoor_scenes/petr-vysohlid-9fqwGqGLUxc-unsplash.jpg,Stimuli/Experimental_stims/outdoor_scenes/meng-ji-8BH_M-53CyA-unsplash.jpg,0,1,911,1,chosen,7,6,outdoor_scenes,outdoor_scenes,1500,0,5,1
219,21592,0,220,3,3,0,no_gain2,gain6,G,E,6,28,outdoor_scenes,body_parts,71,77,Stimuli/Experimental_stims/outdoor_scenes/meng-ji-8BH_M-53CyA-unsplash.jpg,Stimuli/Experimental_stims/body_parts/ira-vishnevskaya-8DQAvdCby1I-unsplash.jpg,0,0,651,1,chosen,28,6,body_parts,outdoor_scenes,2500,0,5,1
220,21592,0,221,4,4,0,no_gain5,gain1,I,J,30,20,body_parts,faces,55,68,Stimuli/Experimental_stims/body_parts/mika-korhonen-Xodzxosar18-unsplash.jpg,Stimuli/Experimental_stims/faces/justin-chen-J7Cf1Gch49E-unsplash.jpg,0,0,743,1,unchosen,20,30,faces,body_parts,3400,1,3,1
221,21592,0,222,4,4,0,no_gain5,gain4,I,C,1,7,outdoor_scenes,outdoor_scenes,62,69,Stimuli/Experimental_stims/outdoor_scenes/ashim-d-silva-S2Q5mdOrrVc-unsplash.jpg,Stimuli/Experimental_stims/outdoor_scenes/petr-vysohlid-9fqwGqGLUxc-unsplash.jpg,0,0,566,1,chosen,7,1,outdoor_scenes,outdoor_scenes,1500,0,3,1
222,21592,0,223,4,4,0,no_gain2,gain3,G,A,40,43,objects,objects,36,41,Stimuli/Experimental_stims/objects/fabian-blank-pElSkGRA2NU-unsplash.jpg,Stimuli/Experimental_stims/objects/jonathan-greenaway-Y4hGgeiFn3s-unsplash.jpg,0,1,1063,0,unchosen,40,43,objects,objects,2000,0,3,1
223,21592,0,224,4,4,0,no_gain4,gain3,B,A,16,43,faces,objects,84,41,Stimuli/Experimental_stims/faces/freddy-kearney-o-ioeoATbIM-unsplash.jpg,Stimuli/Experimental_stims/objects/jonathan-greenaway-Y4hGgeiFn3s-unsplash.jpg,0,0,917,1,unchosen,43,16,objects,faces,1100,0,3,1
224,21592,0,225,4,4,0,no_gain1,gain6,L,E,35,42,body_parts,objects,36,54,Stimuli/Experimental_stims/body_parts/wc-so-KH4AAPjb-tI-unsplash.jpg,Stimuli/Experimental_stims/objects/jess-bailey-nOeVi8DsN8U-unsplash.jpg,0,1,802,0,unchosen,35,42,body_parts,objects,2700,0,3,1
225,21592,0,226,4,4,0,no_gain4,gain2,B,D,8,21,outdoor_scenes,faces,73,68,Stimuli/Experimental_stims/outdoor_scenes/samsommer-vddccTqwal8-unsplash.jpg,Stimuli/Experimental_stims/faces/leilani-angel-K84vnnzxmTQ-unsplash.jpg,0,0,664,1,chosen,21,8,faces,outdoor_scenes,1700,0,3,1
226,21592,0,227,4,4,0,no_gain1,gain1,L,J,14,47,faces,objects,42,55,Stimuli/Experimental_stims/faces/david-siglin-UuW4psOb388-unsplash.jpg,Stimuli/Experimental_stims/objects/ronaldo-arthur-vidal-Cdz_lvnl37k-unsplash.jpg,0,0,944,1,chosen,47,14,objects,faces,3500,1,3,1
227,21592,0,228,4,4,0,no_gain3,gain3,K,A,33,43,body_parts,objects,43,41,Stimuli/Experimental_stims/body_parts/tucker-good-36skLT5jZcc-unsplash.jpg,Stimuli/Experimental_stims/objects/jonathan-greenaway-Y4hGgeiFn3s-unsplash.jpg,0,0,816,1,unchosen,43,33,objects,body_parts,2700,0,3,1
228,21592,0,229,4,4,1,gain4,no_gain5,C,I,24,30,body_parts,body_parts,68,55,Stimuli/Experimental_stims/body_parts/clay-banks-LjqARJaJotc-unsplash.jpg,Stimuli/Experimental_stims/body_parts/mika-korhonen-Xodzxosar18-unsplash.jpg,0,1,1360,1,unchosen,24,30,body_parts,body_parts,1500,0,3,1
229,21592,0,230,4,4,0,no_gain6,gain1,F,J,32,47,body_parts,objects,30,55,Stimuli/Experimental_stims/body_parts/towfiqu-barbhuiya-3AsiVDsZnHg-unsplash.jpg,Stimuli/Experimental_stims/objects/ronaldo-arthur-vidal-Cdz_lvnl37k-unsplash.jpg,0,0,673,1,chosen,47,32,objects,body_parts,1700,0,3,1
230,21592,0,231,4,4,0,no_gain1,gain2,L,D,35,46,body_parts,objects,36,54,Stimuli/Experimental_stims/body_parts/wc-so-KH4AAPjb-tI-unsplash.jpg,Stimuli/Experimental_stims/objects/mockup-graphics-PNsj6RiHAF4-unsplash.jpg,0,0,854,1,unchosen,46,35,objects,body_parts,2300,0,3,1
231,21592,0,232,4,4,0,no_gain4,gain6,B,E,8,28,outdoor_scenes,body_parts,73,77,Stimuli/Experimental_stims/outdoor_scenes/samsommer-vddccTqwal8-unsplash.jpg,Stimuli/Experimental_stims/body_parts/ira-vishnevskaya-8DQAvdCby1I-unsplash.jpg,0,0,768,1,chosen,28,8,body_parts,outdoor_scenes,3100,1,3,1
232,21592,0,233,4,4,1,gain5,no_gain3,H,K,5,37,outdoor_scenes,objects,86,55,Stimuli/Experimental_stims/outdoor_scenes/jeff-king-bJHWJeiHfHc-unsplash.jpg,Stimuli/Experimental_stims/objects/alexander-andrews-VLGWE_SumrA-unsplash.jpg,0,1,745,1,chosen,5,37,outdoor_scenes,objects,1300,0,3,1
233,21592,0,234,4,4,1,gain1,no_gain3,J,K,47,37,objects,objects,55,55,Stimuli/Experimental_stims/objects/ronaldo-arthur-vidal-Cdz_lvnl37k-unsplash.jpg,Stimuli/Experimental_stims/objects/alexander-andrews-VLGWE_SumrA-unsplash.jpg,0,1,819,1,chosen,47,37,objects,objects,1400,0,3,1
234,21592,0,235,4,4,1,gain2,no_gain4,D,B,46,16,objects,faces,54,84,Stimuli/Experimental_stims/objects/mockup-graphics-PNsj6RiHAF4-unsplash.jpg,Stimuli/Experimental_stims/faces/freddy-kearney-o-ioeoATbIM-unsplash.jpg,0,0,828,0,unchosen,16,46,faces,objects,2500,0,3,1
235,21592,0,236,4,4,1,gain2,no_gain5,D,I,46,30,objects,body_parts,54,55,Stimuli/Experimental_stims/objects/mockup-graphics-PNsj6RiHAF4-unsplash.jpg,Stimuli/Experimental_stims/body_parts/mika-korhonen-Xodzxosar18-unsplash.jpg,0,1,688,1,unchosen,46,30,objects,body_parts,1500,0,3,1
236,21592,0,237,4,4,1,gain4,no_gain1,C,L,24,35,body_parts,body_parts,68,36,Stimuli/Experimental_stims/body_parts/clay-banks-LjqARJaJotc-unsplash.jpg,Stimuli/Experimental_stims/body_parts/wc-so-KH4AAPjb-tI-unsplash.jpg,0,1,725,1,unchosen,24,35,body_parts,body_parts,1900,0,3,1
237,21592,0,238,4,4,1,gain6,no_gain3,E,K,28,37,body_parts,objects,77,55,Stimuli/Experimental_stims/body_parts/ira-vishnevskaya-8DQAvdCby1I-unsplash.jpg,Stimuli/Experimental_stims/objects/alexander-andrews-VLGWE_SumrA-unsplash.jpg,0,0,788,0,chosen,37,28,objects,body_parts,1200,0,3,1
238,21592,0,239,4,4,1,gain2,no_gain5,D,I,21,1,faces,outdoor_scenes,68,62,Stimuli/Experimental_stims/faces/leilani-angel-K84vnnzxmTQ-unsplash.jpg,Stimuli/Experimental_stims/outdoor_scenes/ashim-d-silva-S2Q5mdOrrVc-unsplash.jpg,0,1,861,1,chosen,21,1,faces,outdoor_scenes,3500,1,3,1
239,21592,0,240,4,4,0,no_gain2,gain6,G,E,40,42,objects,objects,36,54,Stimuli/Experimental_stims/objects/fabian-blank-pElSkGRA2NU-unsplash.jpg,Stimuli/Experimental_stims/objects/jess-bailey-nOeVi8DsN8U-unsplash.jpg,0,0,1159,1,unchosen,42,40,objects,objects,1500,0,3,1
240,21592,0,241,4,4,1,gain5,no_gain6,H,F,5,32,outdoor_scenes,body_parts,86,30,Stimuli/Experimental_stims/outdoor_scenes/jeff-king-bJHWJeiHfHc-unsplash.jpg,Stimuli/Experimental_stims/body_parts/towfiqu-barbhuiya-3AsiVDsZnHg-unsplash.jpg,0,1,697,1,chosen,5,32,outdoor_scenes,body_parts,2200,0,3,1
241,21592,0,242,4,4,1,gain6,no_gain2,E,G,28,6,body_parts,outdoor_scenes,77,71,Stimuli/Experimental_stims/body_parts/ira-vishnevskaya-8DQAvdCby1I-unsplash.jpg,Stimuli/Experimental_stims/outdoor_scenes/meng-ji-8BH_M-53CyA-unsplash.jpg,0,1,852,1,chosen,28,6,body_parts,outdoor_scenes,1100,0,3,1
242,21592,0,243,4,4,0,no_gain3,gain2,K,D,37,21,objects,faces,55,68,Stimuli/Experimental_stims/objects/alexander-andrews-VLGWE_SumrA-unsplash.jpg,Stimuli/Experimental_stims/faces/leilani-angel-K84vnnzxmTQ-unsplash.jpg,0,0,960,1,chosen,21,37,faces,objects,1300,0,3,1
243,21592,0,244,4,4,0,no_gain3,gain5,K,H,33,18,body_parts,faces,43,77,Stimuli/Experimental_stims/body_parts/tucker-good-36skLT5jZcc-unsplash.jpg,Stimuli/Experimental_stims/faces/jessica-radanavong-mrYkTuAesKE-unsplash.jpg,0,0,878,1,unchosen,18,33,faces,body_parts,1500,0,3,1
244,21592,0,245,4,4,0,no_gain6,gain6,F,E,32,28,body_parts,body_parts,30,77,Stimuli/Experimental_stims/body_parts/towfiqu-barbhuiya-3AsiVDsZnHg-unsplash.jpg,Stimuli/Experimental_stims/body_parts/ira-vishnevskaya-8DQAvdCby1I-unsplash.jpg,0,0,662,1,chosen,28,32,body_parts,body_parts,1100,0,3,1
245,21592,0,246,4,4,1,gain3,no_gain6,A,F,9,32,outdoor_scenes,body_parts,71,30,Stimuli/Experimental_stims/outdoor_scenes/sergey-pesterev-y-b_FOmJXdg-unsplash.jpg,Stimuli/Experimental_stims/body_parts/towfiqu-barbhuiya-3AsiVDsZnHg-unsplash.jpg,0,1,606,1,chosen,9,32,outdoor_scenes,body_parts,2000,0,3,1
246,21592,0,247,4,4,0,no_gain2,gain5,G,H,40,18,objects,faces,36,77,Stimuli/Experimental_stims/objects/fabian-blank-pElSkGRA2NU-unsplash.jpg,Stimuli/Experimental_stims/faces/jessica-radanavong-mrYkTuAesKE-unsplash.jpg,0,0,592,1,unchosen,18,40,faces,objects,4700,1,3,1
247,21592,0,248,4,4,0,no_gain1,gain3,L,A,14,9,faces,outdoor_scenes,42,71,Stimuli/Experimental_stims/faces/david-siglin-UuW4psOb388-unsplash.jpg,Stimuli/Experimental_stims/outdoor_scenes/sergey-pesterev-y-b_FOmJXdg-unsplash.jpg,0,0,808,1,chosen,9,14,outdoor_scenes,faces,2400,0,3,1
248,21592,0,249,4,4,1,gain4,no_gain2,C,G,24,40,body_parts,objects,68,36,Stimuli/Experimental_stims/body_parts/clay-banks-LjqARJaJotc-unsplash.jpg,Stimuli/Experimental_stims/objects/fabian-blank-pElSkGRA2NU-unsplash.jpg,0,1,649,1,unchosen,24,40,body_parts,objects,1100,0,3,1
249,21592,0,250,4,4,1,gain6,no_gain5,E,I,28,1,body_parts,outdoor_scenes,77,62,Stimuli/Experimental_stims/body_parts/ira-vishnevskaya-8DQAvdCby1I-unsplash.jpg,Stimuli/Experimental_stims/outdoor_scenes/ashim-d-silva-S2Q5mdOrrVc-unsplash.jpg,0,1,1004,1,chosen,28,1,body_parts,outdoor_scenes,2400,0,3,1
250,21592,0,251,4,4,1,gain4,no_gain6,C,F,24,15,body_parts,faces,68,73,Stimuli/Experimental_stims/body_parts/clay-banks-LjqARJaJotc-unsplash.jpg,Stimuli/Experimental_stims/faces/erik-lucatero-d2MSDujJl2g-unsplash.jpg,0,0,604,0,unchosen,15,24,faces,body_parts,1600,0,3,1
251,21592,0,252,4,4,0,no_gain1,gain1,L,J,35,20,body_parts,faces,36,68,Stimuli/Experimental_stims/body_parts/wc-so-KH4AAPjb-tI-unsplash.jpg,Stimuli/Experimental_stims/faces/justin-chen-J7Cf1Gch49E-unsplash.jpg,0,1,806,0,unchosen,35,20,body_parts,faces,2300,0,3,1
252,21592,0,253,4,4,0,no_gain3,gain4,K,C,37,7,objects,outdoor_scenes,55,69,Stimuli/Experimental_stims/objects/alexander-andrews-VLGWE_SumrA-unsplash.jpg,Stimuli/Experimental_stims/outdoor_scenes/petr-vysohlid-9fqwGqGLUxc-unsplash.jpg,0,0,892,1,chosen,7,37,outdoor_scenes,objects,2500,0,3,1
253,21592,0,254,4,4,1,gain3,no_gain5,A,I,9,1,outdoor_scenes,outdoor_scenes,71,62,Stimuli/Experimental_stims/outdoor_scenes/sergey-pesterev-y-b_FOmJXdg-unsplash.jpg,Stimuli/Experimental_stims/outdoor_scenes/ashim-d-silva-S2Q5mdOrrVc-unsplash.jpg,0,1,783,1,chosen,9,1,outdoor_scenes,outdoor_scenes,3700,1,3,1
254,21592,0,255,4,4,1,gain2,no_gain1,D,L,21,14,faces,faces,68,42,Stimuli/Experimental_stims/faces/leilani-angel-K84vnnzxmTQ-unsplash.jpg,Stimuli/Experimental_stims/faces/david-siglin-UuW4psOb388-unsplash.jpg,0,1,786,1,chosen,21,14,faces,faces,2100,0,3,1
255,21592,0,256,4,4,1,gain6,no_gain3,E,K,42,33,objects,body_parts,54,43,Stimuli/Experimental_stims/objects/jess-bailey-nOeVi8DsN8U-unsplash.jpg,Stimuli/Experimental_stims/body_parts/tucker-good-36skLT5jZcc-unsplash.jpg,0,1,1156,1,unchosen,42,33,objects,body_parts,2300,0,3,1
256,21592,0,257,4,4,0,no_gain6,gain1,F,J,15,20,faces,faces,73,68,Stimuli/Experimental_stims/faces/erik-lucatero-d2MSDujJl2g-unsplash.jpg,Stimuli/Experimental_stims/faces/justin-chen-J7Cf1Gch49E-unsplash.jpg,0,1,647,0,unchosen,15,20,faces,faces,1700,0,3,1
257,21592,0,258,4,4,0,no_gain4,gain6,B,E,16,42,faces,objects,84,54,Stimuli/Experimental_stims/faces/freddy-kearney-o-ioeoATbIM-unsplash.jpg,Stimuli/Experimental_stims/objects/jess-bailey-nOeVi8DsN8U-unsplash.jpg,0,1,542,0,unchosen,16,42,faces,objects,2900,0,3,1
258,21592,0,259,4,4,0,no_gain4,gain1,B,J,8,47,outdoor_scenes,objects,73,55,Stimuli/Experimental_stims/outdoor_scenes/samsommer-vddccTqwal8-unsplash.jpg,Stimuli/Experimental_stims/objects/ronaldo-arthur-vidal-Cdz_lvnl37k-unsplash.jpg,0,0,842,1,chosen,47,8,objects,outdoor_scenes,3000,1,3,1
259,21592,0,260,4,4,1,gain2,no_gain3,D,K,46,33,objects,body_parts,54,43,Stimuli/Experimental_stims/objects/mockup-graphics-PNsj6RiHAF4-unsplash.jpg,Stimuli/Experimental_stims/body_parts/tucker-good-36skLT5jZcc-unsplash.jpg,0,1,733,1,unchosen,46,33,objects,body_parts,2600,0,3,1
260,21592,0,261,4,4,0,no_gain6,gain5,F,H,15,18,faces,faces,73,77,Stimuli/Experimental_stims/faces/erik-lucatero-d2MSDujJl2g-unsplash.jpg,Stimuli/Experimental_stims/faces/jessica-radanavong-mrYkTuAesKE-unsplash.jpg,0,1,585,0,unchosen,15,18,faces,faces,1700,0,3,1
261,21592,0,262,4,4,0,no_gain3,gain1,K,J,33,20,body_parts,faces,43,68,Stimuli/Experimental_stims/body_parts/tucker-good-36skLT5jZcc-unsplash.jpg,Stimuli/Experimental_stims/faces/justin-chen-J7Cf1Gch49E-unsplash.jpg,0,0,755,1,unchosen,20,33,faces,body_parts,1800,0,3,1
262,21592,0,263,4,4,1,gain5,no_gain5,H,I,5,1,outdoor_scenes,outdoor_scenes,86,62,Stimuli/Experimental_stims/outdoor_scenes/jeff-king-bJHWJeiHfHc-unsplash.jpg,Stimuli/Experimental_stims/outdoor_scenes/ashim-d-silva-S2Q5mdOrrVc-unsplash.jpg,0,1,1070,1,chosen,5,1,outdoor_scenes,outdoor_scenes,1400,0,3,1
263,21592,0,264,4,4,0,no_gain2,gain1,G,J,6,47,outdoor_scenes,objects,71,55,Stimuli/Experimental_stims/outdoor_scenes/meng-ji-8BH_M-53CyA-unsplash.jpg,Stimuli/Experimental_stims/objects/ronaldo-arthur-vidal-Cdz_lvnl37k-unsplash.jpg,0,0,590,1,chosen,47,6,objects,outdoor_scenes,2200,0,3,1
264,21592,0,265,4,4,0,no_gain2,gain1,G,J,40,20,objects,faces,36,68,Stimuli/Experimental_stims/objects/fabian-blank-pElSkGRA2NU-unsplash.jpg,Stimuli/Experimental_stims/faces/justin-chen-J7Cf1Gch49E-unsplash.jpg,0,0,904,1,unchosen,20,40,faces,objects,3500,1,3,1
265,21592,0,266,4,4,1,gain3,no_gain3,A,K,9,37,outdoor_scenes,objects,71,55,Stimuli/Experimental_stims/outdoor_scenes/sergey-pesterev-y-b_FOmJXdg-unsplash.jpg,Stimuli/Experimental_stims/objects/alexander-andrews-VLGWE_SumrA-unsplash.jpg,0,1,868,1,chosen,9,37,outdoor_scenes,objects,1400,0,3,1
266,21592,0,267,4,4,0,no_gain2,gain4,G,C,6,7,outdoor_scenes,outdoor_scenes,71,69,Stimuli/Experimental_stims/outdoor_scenes/meng-ji-8BH_M-53CyA-unsplash.jpg,Stimuli/Experimental_stims/outdoor_scenes/petr-vysohlid-9fqwGqGLUxc-unsplash.jpg,0,0,804,1,chosen,7,6,outdoor_scenes,outdoor_scenes,1100,0,3,1
267,21592,0,268,4,4,1,gain6,no_gain1,E,L,28,14,body_parts,faces,77,42,Stimuli/Experimental_stims/body_parts/ira-vishnevskaya-8DQAvdCby1I-unsplash.jpg,Stimuli/Experimental_stims/faces/david-siglin-UuW4psOb388-unsplash.jpg,0,1,615,1,chosen,28,14,body_parts,faces,1300,0,3,1
268,21592,0,269,4,4,0,no_gain1,gain3,L,A,35,43,body_parts,objects,36,41,Stimuli/Experimental_stims/body_parts/wc-so-KH4AAPjb-tI-unsplash.jpg,Stimuli/Experimental_stims/objects/jonathan-greenaway-Y4hGgeiFn3s-unsplash.jpg,0,0,1079,1,unchosen,43,35,objects,body_parts,2600,0,3,1
269,21592,0,270,4,4,0,no_gain4,gain4,B,C,8,7,outdoor_scenes,outdoor_scenes,73,69,Stimuli/Experimental_stims/outdoor_scenes/samsommer-vddccTqwal8-unsplash.jpg,Stimuli/Experimental_stims/outdoor_scenes/petr-vysohlid-9fqwGqGLUxc-unsplash.jpg,0,0,621,1,chosen,7,8,outdoor_scenes,outdoor_scenes,1100,0,3,1
270,21592,0,271,4,4,1,gain1,no_gain4,J,B,20,16,faces,faces,68,84,Stimuli/Experimental_stims/faces/justin-chen-J7Cf1Gch49E-unsplash.jpg,Stimuli/Experimental_stims/faces/freddy-kearney-o-ioeoATbIM-unsplash.jpg,0,0,839,0,unchosen,16,20,faces,faces,1400,0,3,1
271,21592,0,272,4,4,1,gain4,no_gain3,C,K,24,33,body_parts,body_parts,68,43,Stimuli/Experimental_stims/body_parts/clay-banks-LjqARJaJotc-unsplash.jpg,Stimuli/Experimental_stims/body_parts/tucker-good-36skLT5jZcc-unsplash.jpg,0,1,675,1,unchosen,24,33,body_parts,body_parts,3200,1,3,1
272,21592,0,273,4,4,0,no_gain6,gain2,F,D,32,21,body_parts,faces,30,68,Stimuli/Experimental_stims/body_parts/towfiqu-barbhuiya-3AsiVDsZnHg-unsplash.jpg,Stimuli/Experimental_stims/faces/leilani-angel-K84vnnzxmTQ-unsplash.jpg,0,0,670,1,chosen,21,32,faces,body_parts,1600,0,3,1
273,21592,0,274,4,4,0,no_gain2,gain5,G,H,6,5,outdoor_scenes,outdoor_scenes,71,86,Stimuli/Experimental_stims/outdoor_scenes/meng-ji-8BH_M-53CyA-unsplash.jpg,Stimuli/Experimental_stims/outdoor_scenes/jeff-king-bJHWJeiHfHc-unsplash.jpg,0,0,631,1,chosen,5,6,outdoor_scenes,outdoor_scenes,1000,0,3,1
274,21592,0,275,4,4,1,gain1,no_gain5,J,I,47,1,objects,outdoor_scenes,55,62,Stimuli/Experimental_stims/objects/ronaldo-arthur-vidal-Cdz_lvnl37k-unsplash.jpg,Stimuli/Experimental_stims/outdoor_scenes/ashim-d-silva-S2Q5mdOrrVc-unsplash.jpg,0,1,900,1,chosen,47,1,objects,outdoor_scenes,1700,0,3,1
275,21592,0,276,4,4,1,gain4,no_gain4,C,B,24,16,body_parts,faces,68,84,Stimuli/Experimental_stims/body_parts/clay-banks-LjqARJaJotc-unsplash.jpg,Stimuli/Experimental_stims/faces/freddy-kearney-o-ioeoATbIM-unsplash.jpg,0,1,929,1,unchosen,24,16,body_parts,faces,1200,0,3,1
276,21592,0,277,4,4,1,gain3,no_gain5,A,I,43,30,objects,body_parts,41,55,Stimuli/Experimental_stims/objects/jonathan-greenaway-Y4hGgeiFn3s-unsplash.jpg,Stimuli/Experimental_stims/body_parts/mika-korhonen-Xodzxosar18-unsplash.jpg,0,0,697,0,unchosen,30,43,body_parts,objects,2200,0,3,1
277,21592,0,278,4,4,0,no_gain5,gain6,I,E,30,42,body_parts,objects,55,54,Stimuli/Experimental_stims/body_parts/mika-korhonen-Xodzxosar18-unsplash.jpg,Stimuli/Experimental_stims/objects/jess-bailey-nOeVi8DsN8U-unsplash.jpg,0,1,733,0,unchosen,30,42,body_parts,objects,2000,0,3,1
278,21592,0,279,4,4,1,gain3,no_gain4,A,B,9,8,outdoor_scenes,outdoor_scenes,71,73,Stimuli/Experimental_stims/outdoor_scenes/sergey-pesterev-y-b_FOmJXdg-unsplash.jpg,Stimuli/Experimental_stims/outdoor_scenes/samsommer-vddccTqwal8-unsplash.jpg,0,1,721,1,chosen,9,8,outdoor_scenes,outdoor_scenes,3100,1,3,1
279,21592,0,280,4,4,1,gain5,no_gain5,H,I,18,30,faces,body_parts,77,55,Stimuli/Experimental_stims/faces/jessica-radanavong-mrYkTuAesKE-unsplash.jpg,Stimuli/Experimental_stims/body_parts/mika-korhonen-Xodzxosar18-unsplash.jpg,0,1,745,1,unchosen,18,30,faces,body_parts,2400,0,3,1
280,21592,0,281,4,4,1,gain4,no_gain1,C,L,7,14,outdoor_scenes,faces,69,42,Stimuli/Experimental_stims/outdoor_scenes/petr-vysohlid-9fqwGqGLUxc-unsplash.jpg,Stimuli/Experimental_stims/faces/david-siglin-UuW4psOb388-unsplash.jpg,0,1,678,1,chosen,7,14,outdoor_scenes,faces,1000,0,3,1
281,21592,0,282,4,4,0,no_gain1,gain5,L,H,14,5,faces,outdoor_scenes,42,86,Stimuli/Experimental_stims/faces/david-siglin-UuW4psOb388-unsplash.jpg,Stimuli/Experimental_stims/outdoor_scenes/jeff-king-bJHWJeiHfHc-unsplash.jpg,0,0,621,1,chosen,5,14,outdoor_scenes,faces,1900,0,3,1
282,21592,0,283,4,4,0,no_gain4,gain5,B,H,16,18,faces,faces,84,77,Stimuli/Experimental_stims/faces/freddy-kearney-o-ioeoATbIM-unsplash.jpg,Stimuli/Experimental_stims/faces/jessica-radanavong-mrYkTuAesKE-unsplash.jpg,0,0,780,1,unchosen,18,16,faces,faces,2400,0,3,1
283,21592,0,284,4,4,1,gain2,no_gain2,D,G,21,6,faces,outdoor_scenes,68,71,Stimuli/Experimental_stims/faces/leilani-angel-K84vnnzxmTQ-unsplash.jpg,Stimuli/Experimental_stims/outdoor_scenes/meng-ji-8BH_M-53CyA-unsplash.jpg,0,1,866,1,chosen,21,6,faces,outdoor_scenes,1300,0,3,1
284,21592,0,285,4,4,0,no_gain4,gain5,B,H,8,5,outdoor_scenes,outdoor_scenes,73,86,Stimuli/Experimental_stims/outdoor_scenes/samsommer-vddccTqwal8-unsplash.jpg,Stimuli/Experimental_stims/outdoor_scenes/jeff-king-bJHWJeiHfHc-unsplash.jpg,0,0,729,1,chosen,5,8,outdoor_scenes,outdoor_scenes,1600,0,3,1
285,21592,0,286,4,4,1,gain6,no_gain6,E,F,42,15,objects,faces,54,73,Stimuli/Experimental_stims/objects/jess-bailey-nOeVi8DsN8U-unsplash.jpg,Stimuli/Experimental_stims/faces/erik-lucatero-d2MSDujJl2g-unsplash.jpg,0,0,726,0,unchosen,15,42,faces,objects,1000,0,3,1
286,21592,0,287,4,4,0,no_gain6,gain4,F,C,32,7,body_parts,outdoor_scenes,30,69,Stimuli/Experimental_stims/body_parts/towfiqu-barbhuiya-3AsiVDsZnHg-unsplash.jpg,Stimuli/Experimental_stims/outdoor_scenes/petr-vysohlid-9fqwGqGLUxc-unsplash.jpg,0,0,1003,1,chosen,7,32,outdoor_scenes,body_parts,1500,0,3,1
287,21592,0,288,4,4,1,gain5,no_gain1,H,L,18,35,faces,body_parts,77,36,Stimuli/Experimental_stims/faces/jessica-radanavong-mrYkTuAesKE-unsplash.jpg,Stimuli/Experimental_stims/body_parts/wc-so-KH4AAPjb-tI-unsplash.jpg,0,1,900,1,unchosen,18,35,faces,body_parts,1900,0,3,1
288,21592,0,289,4,4,1,gain3,no_gain2,A,G,9,6,outdoor_scenes,outdoor_scenes,71,71,Stimuli/Experimental_stims/outdoor_scenes/sergey-pesterev-y-b_FOmJXdg-unsplash.jpg,Stimuli/Experimental_stims/outdoor_scenes/meng-ji-8BH_M-53CyA-unsplash.jpg,0,1,634,1,chosen,9,6,outdoor_scenes,outdoor_scenes,1600,0,3,1
289,21592,0,290,4,4,1,gain3,no_gain6,A,F,43,15,objects,faces,41,73,Stimuli/Experimental_stims/objects/jonathan-greenaway-Y4hGgeiFn3s-unsplash.jpg,Stimuli/Experimental_stims/faces/erik-lucatero-d2MSDujJl2g-unsplash.jpg,0,0,581,0,unchosen,15,43,faces,objects,1200,0,3,1
290,21592,0,291,4,4,1,gain2,no_gain2,D,G,46,40,objects,objects,54,36,Stimuli/Experimental_stims/objects/mockup-graphics-PNsj6RiHAF4-unsplash.jpg,Stimuli/Experimental_stims/objects/fabian-blank-pElSkGRA2NU-unsplash.jpg,0,1,1145,1,unchosen,46,40,objects,objects,1000,0,3,1
291,21592,0,292,4,4,1,gain2,no_gain6,D,F,46,15,objects,faces,54,73,Stimuli/Experimental_stims/objects/mockup-graphics-PNsj6RiHAF4-unsplash.jpg,Stimuli/Experimental_stims/faces/erik-lucatero-d2MSDujJl2g-unsplash.jpg,0,0,596,0,unchosen,15,46,faces,objects,3200,1,3,1