,PID,practice,trial,block,run,gain_left,left_item_id,right_item_id,left_pair_id,right_pair_id,left_stimulus,right_stimulus,left_category,right_category,left_rating,right_rating,left_path,right_path,no_response,left_chosen,rt,higher_outcome_chosen,choice_type,chosen_stimulus,unchosen_stimulus,chosen_category,unchosen_category,iti,long_iti,simulation,version
0,29646,1,1,0,0,0,,,,,,,,,,,Stimuli/Practice_stims/Final_decisions/debby-hudson-FmCSSSGge-0-unsplash.jpg,Stimuli/Practice_stims/Final_decisions/yassine-khalfalli-adsQ9d_Cx0c-unsplash.jpg,0,1,943,0,,,,,,3000,0,9,3
1,29646,1,2,0,0,0,,,,,,,,,,,Stimuli/Practice_stims/Final_decisions/florian-wehde-iVW7mZPwd4g-unsplash.jpg,Stimuli/Practice_stims/Final_decisions/patrick-perkins-3wylDrjxH-E-unsplash.jpg,0,1,1071,0,,,,,,1500,0,9,3
2,29646,1,3,0,0,0,,,,,,,,,,,Stimuli/Practice_stims/Final_decisions/debby-hudson-FmCSSSGge-0-unsplash.jpg,Stimuli/Practice_stims/Final_decisions/florian-wehde-iVW7mZPwd4g-unsplash.jpg,0,1,293,0,,,,,,2000,0,9,3
3,29646,1,4,0,0,0,,,,,,,,,,,Stimuli/Practice_stims/Final_decisions/yassine-khalfalli-adsQ9d_Cx0c-unsplash.jpg,Stimuli/Practice_stims/Final_decisions/debby-hudson-FmCSSSGge-0-unsplash.jpg,0,1,404,0,,,,,,1000,0,9,3
4,29646,0,5,1,1,1,gain5,no_gain5,L,C,14,26,faces,body_parts,50,50,Stimuli/Experimental_stims/faces/david-siglin-UuW4psOb388-unsplash.jpg,Stimuli/Experimental_stims/body_parts/engin-akyurt-x_3gyC42btc-unsplash.jpg,0,1,916,1,unchosen,14,26,faces,body_parts,4700,1,9,3
5,29646,0,6,1,1,1,gain3,no_gain2,H,F,22,27,faces,body_parts,50,50,Stimuli/Experimental_stims/faces/ravi-patel-VMGAbeeJTKo-unsplash.jpg,Stimuli/Experimental_stims/body_parts/heike-mintel-i_Gns0ELnLw-unsplash.jpg,1,NaN,,NaN,unchosen,NaN,NaN,NaN,NaN,2300,0,9,3
6,29646,0,7,1,1,1,gain1,no_gain2,K,F,29,27,body_parts,body_parts,50,50,Stimuli/Experimental_stims/body_parts/manuel-schinner-ZwjFuJ7ebpk-unsplash.jpg,Stimuli/Experimental_stims/body_parts/heike-mintel-i_Gns0ELnLw-unsplash.jpg,1,NaN,,NaN,unchosen,NaN,NaN,NaN,NaN,1100,0,9,3
7,29646,0,8,1,1,0,no_gain4,gain5,A,L,45,32,objects,body_parts,50,50,Stimuli/Experimental_stims/objects/leohoho-rngTKHXumy0-unsplash.jpg,Stimuli/Experimental_stims/body_parts/towfiqu-barbhuiya-3AsiVDsZnHg-unsplash.jpg,1,NaN,,NaN,chosen,NaN,NaN,NaN,NaN,1600,0,9,3
8,29646,0,9,1,1,0,no_gain5,gain1,C,K,26,29,body_parts,body_parts,50,50,Stimuli/Experimental_stims/body_parts/engin-akyurt-x_3gyC42btc-unsplash.jpg,Stimuli/Experimental_stims/body_parts/manuel-schinner-ZwjFuJ7ebpk-unsplash.jpg,1,NaN,,NaN,unchosen,NaN,NaN,NaN,NaN,2300,0,9,3
9,29646,0,10,1,1,0,no_gain4,gain1,A,K,45,44,objects,objects,50,50,Stimuli/Experimental_stims/objects/leohoho-rngTKHXumy0-unsplash.jpg,Stimuli/Experimental_stims/objects/kuiye-chen-NuOGFo4PudE-unsplash.jpg,1,NaN,,NaN,chosen,NaN,NaN,NaN,NaN,1500,0,9,3
10,29646,0,11,1,1,1,gain1,no_gain3,K,I,44,4,objects,outdoor_scenes,50,50,Stimuli/Experimental_stims/objects/kuiye-chen-NuOGFo4PudE-unsplash.jpg,Stimuli/Experimental_stims/outdoor_scenes/jarrett-kow-1ZOyYPOBn7I-unsplash.jpg,1,NaN,,NaN,chosen,NaN,NaN,NaN,NaN,1500,0,9,3
11,29646,0,12,1,1,0,no_gain1,gain1,G,K,43,44,objects,objects,50,50,Stimuli/Experimental_stims/objects/jonathan-greenaway-Y4hGgeiFn3s-unsplash.jpg,Stimuli/Experimental_stims/objects/kuiye-chen-NuOGFo4PudE-unsplash.jpg,1,NaN,,NaN,chosen,NaN,NaN,NaN,NaN,1200,0,9,3
12,29646,0,13,1,1,1,gain6,no_gain1,E,G,30,9,body_parts,outdoor_scenes,50,50,Stimuli/Experimental_stims/body_parts/mika-korhonen-Xodzxosar18-unsplash.jpg,Stimuli/Experimental_stims/outdoor_scenes/sergey-pesterev-y-b_FOmJXdg-unsplash.jpg,1,NaN,,NaN,unchosen,NaN,NaN,NaN,NaN,1300,0,9,3
13,29646,0,14,1,1,0,no_gain1,gain4,G,D,43,15,objects,faces,50,50,Stimuli/Experimental_stims/objects/jonathan-greenaway-Y4hGgeiFn3s-unsplash.jpg,Stimuli/Experimental_stims/faces/erik-lucatero-d2MSDujJl2g-unsplash.jpg,1,NaN,,NaN,chosen,NaN,NaN,NaN,NaN,1200,0,9,3
14,29646,0,15,1,1,1,gain6,no_gain4,E,A,30,5,body_parts,outdoor_scenes,50,50,Stimuli/Experimental_stims/body_parts/mika-korhonen-Xodzxosar18-unsplash.jpg,Stimuli/Experimental_stims/outdoor_scenes/jeff-king-bJHWJeiHfHc-unsplash.jpg,1,NaN,,NaN,unchosen,NaN,NaN,NaN,NaN,4100,1,9,3
15,29646,0,16,1,1,1,gain4,no_gain4,D,A,41,5,objects,outdoor_scenes,50,50,Stimuli/Experimental_stims/objects/insung-yoon-w2JtIQQXoRU-unsplash.jpg,Stimuli/Experimental_stims/outdoor_scenes/jeff-king-bJHWJeiHfHc-unsplash.jpg,1,NaN,,NaN,unchosen,NaN,NaN,NaN,NaN,1200,0,9,3
16,29646,0,17,1,1,1,gain5,no_gain6,L,B,32,19,body_parts,faces,50,50,Stimuli/Experimental_stims/body_parts/towfiqu-barbhuiya-3AsiVDsZnHg-unsplash.jpg,Stimuli/Experimental_stims/faces/joel-mott-LaK153ghdig-unsplash.jpg,1,NaN,,NaN,chosen,NaN,NaN,NaN,NaN,1200,0,9,3
17,29646,0,18,1,1,0,no_gain3,gain3,I,H,33,22,body_parts,faces,50,50,Stimuli/Experimental_stims/body_parts/tucker-good-36skLT5jZcc-unsplash.jpg,Stimuli/Experimental_stims/faces/ravi-patel-VMGAbeeJTKo-unsplash.jpg,1,NaN,,NaN,unchosen,NaN,NaN,NaN,NaN,1600,0,9,3
18,29646,0,19,1,1,0,no_gain4,gain3,A,H,45,1,objects,outdoor_scenes,50,50,Stimuli/Experimental_stims/objects/leohoho-rngTKHXumy0-unsplash.jpg,Stimuli/Experimental_stims/outdoor_scenes/ashim-d-silva-S2Q5mdOrrVc-unsplash.jpg,1,NaN,,NaN,chosen,NaN,NaN,NaN,NaN,1400,0,9,3
19,29646,0,20,1,1,0,no_gain2,gain2,F,J,27,36,body_parts,objects,50,50,Stimuli/Experimental_stims/body_parts/heike-mintel-i_Gns0ELnLw-unsplash.jpg,Stimuli/Experimental_stims/objects/alexander-andrews-JYGnB9gTCls-unsplash.jpg,1,NaN,,NaN,unchosen,NaN,NaN,NaN,NaN,4300,1,9,3
20,29646,0,21,1,1,1,gain2,no_gain4,J,A,21,45,faces,objects,50,50,Stimuli/Experimental_stims/faces/leilani-angel-K84vnnzxmTQ-unsplash.jpg,Stimuli/Experimental_stims/objects/leohoho-rngTKHXumy0-unsplash.jpg,1,NaN,,NaN,chosen,NaN,NaN,NaN,NaN,1500,0,9,3
21,29646,0,22,1,1,1,gain2,no_gain5,J,C,21,10,faces,outdoor_scenes,50,50,Stimuli/Experimental_stims/faces/leilani-angel-K84vnnzxmTQ-unsplash.jpg,Stimuli/Experimental_stims/outdoor_scenes/shannon-kunkle-dM8INmkyDas-unsplash.jpg,1,NaN,,NaN,chosen,NaN,NaN,NaN,NaN,1400,0,9,3
22,29646,0,23,1,1,1,gain4,no_gain2,D,F,41,27,objects,body_parts,50,50,Stimuli/Experimental_stims/objects/insung-yoon-w2JtIQQXoRU-unsplash.jpg,Stimuli/Experimental_stims/body_parts/heike-mintel-i_Gns0ELnLw-unsplash.jpg,1,NaN,,NaN,unchosen,NaN,NaN,NaN,NaN,1300,0,9,3
23,29646,0,24,1,1,1,gain2,no_gain6,J,B,36,6,objects,outdoor_scenes,50,50,Stimuli/Experimental_stims/objects/alexander-andrews-JYGnB9gTCls-unsplash.jpg,Stimuli/Experimental_stims/outdoor_scenes/meng-ji-8BH_M-53CyA-unsplash.jpg,1,NaN,,NaN,unchosen,NaN,NaN,NaN,NaN,1000,0,9,3
24,29646,0,25,1,1,0,no_gain1,gain5,G,L,43,32,objects,body_parts,50,50,Stimuli/Experimental_stims/objects/jonathan-greenaway-Y4hGgeiFn3s-unsplash.jpg,Stimuli/Experimental_stims/body_parts/towfiqu-barbhuiya-3AsiVDsZnHg-unsplash.jpg,1,NaN,,NaN,chosen,NaN,NaN,NaN,NaN,3100,1,9,3
25,29646,0,26,1,1,1,gain2,no_gain1,J,G,21,43,faces,objects,50,50,Stimuli/Experimental_stims/faces/leilani-angel-K84vnnzxmTQ-unsplash.jpg,Stimuli/Experimental_stims/objects/jonathan-greenaway-Y4hGgeiFn3s-unsplash.jpg,1,NaN,,NaN,chosen,NaN,NaN,NaN,NaN,2700,0,9,3
26,29646,0,27,1,1,1,gain2,no_gain2,J,F,21,18,faces,faces,50,50,Stimuli/Experimental_stims/faces/leilani-angel-K84vnnzxmTQ-unsplash.jpg,Stimuli/Experimental_stims/faces/jessica-radanavong-mrYkTuAesKE-unsplash.jpg,1,NaN,,NaN,chosen,NaN,NaN,NaN,NaN,1400,0,9,3
27,29646,0,28,1,1,1,gain4,no_gain3,D,I,41,33,objects,body_parts,50,50,Stimuli/Experimental_stims/objects/insung-yoon-w2JtIQQXoRU-unsplash.jpg,Stimuli/Experimental_stims/body_parts/tucker-good-36skLT5jZcc-unsplash.jpg,1,NaN,,NaN,unchosen,NaN,NaN,NaN,NaN,1100,0,9,3
28,29646,0,29,1,1,0,no_gain1,gain3,G,H,9,22,outdoor_scenes,faces,50,50,Stimuli/Experimental_stims/outdoor_scenes/sergey-pesterev-y-b_FOmJXdg-unsplash.jpg,Stimuli/Experimental_stims/faces/ravi-patel-VMGAbeeJTKo-unsplash.jpg,1,NaN,,NaN,unchosen,NaN,NaN,NaN,NaN,1900,0,9,3
29,29646,0,30,1,1,1,gain6,no_gain4,E,A,46,45,objects,objects,50,50,Stimuli/Experimental_stims/objects/mockup-graphics-PNsj6RiHAF4-unsplash.jpg,Stimuli/Experimental_stims/objects/leohoho-rngTKHXumy0-unsplash.jpg,1,NaN,,NaN,chosen,NaN,NaN,NaN,NaN,1200,0,9,3
30,29646,0,31,1,1,1,gain5,no_gain3,L,I,32,4,body_parts,outdoor_scenes,50,50,Stimuli/Experimental_stims/body_parts/towfiqu-barbhuiya-3AsiVDsZnHg-unsplash.jpg,Stimuli/Experimental_stims/outdoor_scenes/jarrett-kow-1ZOyYPOBn7I-unsplash.jpg,1,NaN,,NaN,chosen,NaN,NaN,NaN,NaN,2300,0,9,3
31,29646,0,32,1,1,0,no_gain3,gain5,I,L,33,14,body_parts,faces,50,50,Stimuli/Experimental_stims/body_parts/tucker-good-36skLT5jZcc-unsplash.jpg,Stimuli/Experimental_stims/faces/david-siglin-UuW4psOb388-unsplash.jpg,1,NaN,,NaN,unchosen,NaN,NaN,NaN,NaN,2000,0,9,3
32,29646,0,33,1,1,1,gain6,no_gain6,E,B,46,19,objects,faces,50,50,Stimuli/Experimental_stims/objects/mockup-graphics-PNsj6RiHAF4-unsplash.jpg,Stimuli/Experimental_stims/faces/joel-mott-LaK153ghdig-unsplash.jpg,1,NaN,,NaN,chosen,NaN,NaN,NaN,NaN,2000,0,9,3
33,29646,0,34,1,1,0,no_gain6,gain6,B,E,6,30,outdoor_scenes,body_parts,50,50,Stimuli/Experimental_stims/outdoor_scenes/meng-ji-8BH_M-53CyA-unsplash.jpg,Stimuli/Experimental_stims/body_parts/mika-korhonen-Xodzxosar18-unsplash.jpg,1,NaN,,NaN,unchosen,NaN,NaN,NaN,NaN,1300,0,9,3
34,29646,0,35,1,1,0,no_gain6,gain1,B,K,6,29,outdoor_scenes,body_parts,50,50,Stimuli/Experimental_stims/outdoor_scenes/meng-ji-8BH_M-53CyA-unsplash.jpg,Stimuli/Experimental_stims/body_parts/manuel-schinner-ZwjFuJ7ebpk-unsplash.jpg,1,NaN,,NaN,unchosen,NaN,NaN,NaN,NaN,3100,1,9,3
35,29646,0,36,1,1,0,no_gain3,gain2,I,J,4,21,outdoor_scenes,faces,50,50,Stimuli/Experimental_stims/outdoor_scenes/jarrett-kow-1ZOyYPOBn7I-unsplash.jpg,Stimuli/Experimental_stims/faces/leilani-angel-K84vnnzxmTQ-unsplash.jpg,1,NaN,,NaN,chosen,NaN,NaN,NaN,NaN,2600,0,9,3
36,29646,0,37,1,1,0,no_gain6,gain4,B,D,6,41,outdoor_scenes,objects,50,50,Stimuli/Experimental_stims/outdoor_scenes/meng-ji-8BH_M-53CyA-unsplash.jpg,Stimuli/Experimental_stims/objects/insung-yoon-w2JtIQQXoRU-unsplash.jpg,1,NaN,,NaN,unchosen,NaN,NaN,NaN,NaN,1200,0,9,3
37,29646,0,38,1,1,1,gain4,no_gain5,D,C,41,26,objects,body_parts,50,50,Stimuli/Experimental_stims/objects/insung-yoon-w2JtIQQXoRU-unsplash.jpg,Stimuli/Experimental_stims/body_parts/engin-akyurt-x_3gyC42btc-unsplash.jpg,1,NaN,,NaN,unchosen,NaN,NaN,NaN,NaN,1700,0,9,3
38,29646,0,39,1,1,1,gain2,no_gain5,J,C,36,26,objects,body_parts,50,50,Stimuli/Experimental_stims/objects/alexander-andrews-JYGnB9gTCls-unsplash.jpg,Stimuli/Experimental_stims/body_parts/engin-akyurt-x_3gyC42btc-unsplash.jpg,1,NaN,,NaN,unchosen,NaN,NaN,NaN,NaN,1600,0,9,3
39,29646,0,40,1,1,0,no_gain1,gain3,G,H,43,1,objects,outdoor_scenes,50,50,Stimuli/Experimental_stims/objects/jonathan-greenaway-Y4hGgeiFn3s-unsplash.jpg,Stimuli/Experimental_stims/outdoor_scenes/ashim-d-silva-S2Q5mdOrrVc-unsplash.jpg,1,NaN,,NaN,chosen,NaN,NaN,NaN,NaN,4400,1,9,3
40,29646,0,41,1,1,1,gain1,no_gain5,K,C,44,10,objects,outdoor_scenes,50,50,Stimuli/Experimental_stims/objects/kuiye-chen-NuOGFo4PudE-unsplash.jpg,Stimuli/Experimental_stims/outdoor_scenes/shannon-kunkle-dM8INmkyDas-unsplash.jpg,1,NaN,,NaN,chosen,NaN,NaN,NaN,NaN,1600,0,9,3
41,29646,0,42,1,1,0,no_gain4,gain3,A,H,5,22,outdoor_scenes,faces,50,50,Stimuli/Experimental_stims/outdoor_scenes/jeff-king-bJHWJeiHfHc-unsplash.jpg,Stimuli/Experimental_stims/faces/ravi-patel-VMGAbeeJTKo-unsplash.jpg,1,NaN,,NaN,unchosen,NaN,NaN,NaN,NaN,1700,0,9,3
42,29646,0,43,1,1,1,gain6,no_gain2,E,F,46,18,objects,faces,50,50,Stimuli/Experimental_stims/objects/mockup-graphics-PNsj6RiHAF4-unsplash.jpg,Stimuli/Experimental_stims/faces/jessica-radanavong-mrYkTuAesKE-unsplash.jpg,1,NaN,,NaN,chosen,NaN,NaN,NaN,NaN,1900,0,9,3
43,29646,0,44,1,1,1,gain4,no_gain4,D,A,15,45,faces,objects,50,50,Stimuli/Experimental_stims/faces/erik-lucatero-d2MSDujJl2g-unsplash.jpg,Stimuli/Experimental_stims/objects/leohoho-rngTKHXumy0-unsplash.jpg,1,NaN,,NaN,chosen,NaN,NaN,NaN,NaN,1900,0,9,3
44,29646,0,45,1,1,0,no_gain4,gain1,A,K,5,29,outdoor_scenes,body_parts,50,50,Stimuli/Experimental_stims/outdoor_scenes/jeff-king-bJHWJeiHfHc-unsplash.jpg,Stimuli/Experimental_stims/body_parts/manuel-schinner-ZwjFuJ7ebpk-unsplash.jpg,1,NaN,,NaN,unchosen,NaN,NaN,NaN,NaN,2000,0,9,3
45,29646,0,46,1,1,0,no_gain2,gain1,F,K,18,44,faces,objects,50,50,Stimuli/Experimental_stims/faces/jessica-radanavong-mrYkTuAesKE-unsplash.jpg,Stimuli/Experimental_stims/objects/kuiye-chen-NuOGFo4PudE-unsplash.jpg,1,NaN,,NaN,chosen,NaN,NaN,NaN,NaN,2200,0,9,3
46,29646,0,47,1,1,0,no_gain5,gain5,C,L,10,32,outdoor_scenes,body_parts,50,50,Stimuli/Experimental_stims/outdoor_scenes/shannon-kunkle-dM8INmkyDas-unsplash.jpg,Stimuli/Experimental_stims/body_parts/towfiqu-barbhuiya-3AsiVDsZnHg-unsplash.jpg,1,NaN,,NaN,chosen,NaN,NaN,NaN,NaN,3000,0,9,3
47,29646,0,48,1,1,0,no_gain2,gain3,F,H,18,1,faces,outdoor_scenes,50,50,Stimuli/Experimental_stims/faces/jessica-radanavong-mrYkTuAesKE-unsplash.jpg,Stimuli/Experimental_stims/outdoor_scenes/ashim-d-silva-S2Q5mdOrrVc-unsplash.jpg,1,NaN,,NaN,chosen,NaN,NaN,NaN,NaN,4200,1,9,3
48,29646,0,49,1,1,0,no_gain6,gain3,B,H,6,22,outdoor_scenes,faces,50,50,Stimuli/Experimental_stims/outdoor_scenes/meng-ji-8BH_M-53CyA-unsplash.jpg,Stimuli/Experimental_stims/faces/ravi-patel-VMGAbeeJTKo-unsplash.jpg,1,NaN,,NaN,unchosen,NaN,NaN,NaN,NaN,2100,0,9,3
49,29646,0,50,1,1,0,no_gain5,gain4,C,D,10,15,outdoor_scenes,faces,50,50,Stimuli/Experimental_stims/outdoor_scenes/shannon-kunkle-dM8INmkyDas-unsplash.jpg,Stimuli/Experimental_stims/faces/erik-lucatero-d2MSDujJl2g-unsplash.jpg,1,NaN,,NaN,chosen,NaN,NaN,NaN,NaN,1800,0,9,3
50,29646,0,51,1,1,1,gain3,no_gain5,H,C,1,10,outdoor_scenes,outdoor_scenes,50,50,Stimuli/Experimental_stims/outdoor_scenes/ashim-d-silva-S2Q5mdOrrVc-unsplash.jpg,Stimuli/Experimental_stims/outdoor_scenes/shannon-kunkle-dM8INmkyDas-unsplash.jpg,1,NaN,,NaN,chosen,NaN,NaN,NaN,NaN,2400,0,9,3
51,29646,0,52,1,1,0,no_gain4,gain2,A,J,5,36,outdoor_scenes,objects,50,50,Stimuli/Experimental_stims/outdoor_scenes/jeff-king-bJHWJeiHfHc-unsplash.jpg,Stimuli/Experimental_stims/objects/alexander-andrews-JYGnB9gTCls-unsplash.jpg,1,NaN,,NaN,unchosen,NaN,NaN,NaN,NaN,1100,0,9,3
52,29646,0,53,1,1,0,no_gain2,gain5,F,L,18,32,faces,body_parts,50,50,Stimuli/Experimental_stims/faces/jessica-radanavong-mrYkTuAesKE-unsplash.jpg,Stimuli/Experimental_stims/body_parts/towfiqu-barbhuiya-3AsiVDsZnHg-unsplash.jpg,1,NaN,,NaN,chosen,NaN,NaN,NaN,NaN,1100,0,9,3
53,29646,0,54,1,1,0,no_gain2,gain6,F,E,27,30,body_parts,body_parts,50,50,Stimuli/Experimental_stims/body_parts/heike-mintel-i_Gns0ELnLw-unsplash.jpg,Stimuli/Experimental_stims/body_parts/mika-korhonen-Xodzxosar18-unsplash.jpg,1,NaN,,NaN,unchosen,NaN,NaN,NaN,NaN,1100,0,9,3
54,29646,0,55,1,1,1,gain6,no_gain3,E,I,46,4,objects,outdoor_scenes,50,50,Stimuli/Experimental_stims/objects/mockup-graphics-PNsj6RiHAF4-unsplash.jpg,Stimuli/Experimental_stims/outdoor_scenes/jarrett-kow-1ZOyYPOBn7I-unsplash.jpg,1,NaN,,NaN,chosen,NaN,NaN,NaN,NaN,3900,1,9,3
55,29646,0,56,1,1,0,no_gain1,gain5,G,L,9,14,outdoor_scenes,faces,50,50,Stimuli/Experimental_stims/outdoor_scenes/sergey-pesterev-y-b_FOmJXdg-unsplash.jpg,Stimuli/Experimental_stims/faces/david-siglin-UuW4psOb388-unsplash.jpg,1,NaN,,NaN,unchosen,NaN,NaN,NaN,NaN,2100,0,9,3
56,29646,0,57,1,1,1,gain5,no_gain4,L,A,14,5,faces,outdoor_scenes,50,50,Stimuli/Experimental_stims/faces/david-siglin-UuW4psOb388-unsplash.jpg,Stimuli/Experimental_stims/outdoor_scenes/jeff-king-bJHWJeiHfHc-unsplash.jpg,1,NaN,,NaN,unchosen,NaN,NaN,NaN,NaN,1000,0,9,3
57,29646,0,58,1,1,0,no_gain1,gain4,G,D,9,41,outdoor_scenes,objects,50,50,Stimuli/Experimental_stims/outdoor_scenes/sergey-pesterev-y-b_FOmJXdg-unsplash.jpg,Stimuli/Experimental_stims/objects/insung-yoon-w2JtIQQXoRU-unsplash.jpg,1,NaN,,NaN,unchosen,NaN,NaN,NaN,NaN,1200,0,9,3
58,29646,0,59,1,1,1,gain3,no_gain6,H,B,1,19,outdoor_scenes,faces,50,50,Stimuli/Experimental_stims/outdoor_scenes/ashim-d-silva-S2Q5mdOrrVc-unsplash.jpg,Stimuli/Experimental_stims/faces/joel-mott-LaK153ghdig-unsplash.jpg,1,NaN,,NaN,chosen,NaN,NaN,NaN,NaN,1300,0,9,3
59,29646,0,60,1,1,1,gain4,no_gain6,D,B,15,19,faces,faces,50,50,Stimuli/Experimental_stims/faces/erik-lucatero-d2MSDujJl2g-unsplash.jpg,Stimuli/Experimental_stims/faces/joel-mott-LaK153ghdig-unsplash.jpg,1,NaN,,NaN,chosen,NaN,NaN,NaN,NaN,1300,0,9,3
60,29646,0,61,1,1,1,gain2,no_gain1,J,G,36,9,objects,outdoor_scenes,50,50,Stimuli/Experimental_stims/objects/alexander-andrews-JYGnB9gTCls-unsplash.jpg,Stimuli/Experimental_stims/outdoor_scenes/sergey-pesterev-y-b_FOmJXdg-unsplash.jpg,1,NaN,,NaN,unchosen,NaN,NaN,NaN,NaN,3300,1,9,3
61,29646,0,62,1,1,1,gain2,no_gain3,J,I,36,33,objects,body_parts,50,50,Stimuli/Experimental_stims/objects/alexander-andrews-JYGnB9gTCls-unsplash.jpg,Stimuli/Experimental_stims/body_parts/tucker-good-36skLT5jZcc-unsplash.jpg,1,NaN,,NaN,unchosen,NaN,NaN,NaN,NaN,1100,0,9,3
62,29646,0,63,1,1,0,no_gain5,gain6,C,E,10,46,outdoor_scenes,objects,50,50,Stimuli/Experimental_stims/outdoor_scenes/shannon-kunkle-dM8INmkyDas-unsplash.jpg,Stimuli/Experimental_stims/objects/mockup-graphics-PNsj6RiHAF4-unsplash.jpg,1,NaN,,NaN,chosen,NaN,NaN,NaN,NaN,1400,0,9,3
63,29646,0,64,1,1,0,no_gain2,gain4,F,D,18,15,faces,faces,50,50,Stimuli/Experimental_stims/faces/jessica-radanavong-mrYkTuAesKE-unsplash.jpg,Stimuli/Experimental_stims/faces/erik-lucatero-d2MSDujJl2g-unsplash.jpg,1,NaN,,NaN,chosen,NaN,NaN,NaN,NaN,1400,0,9,3
64,29646,0,65,1,1,0,no_gain3,gain3,I,H,4,1,outdoor_scenes,outdoor_scenes,50,50,Stimuli/Experimental_stims/outdoor_scenes/jarrett-kow-1ZOyYPOBn7I-unsplash.jpg,Stimuli/Experimental_stims/outdoor_scenes/ashim-d-silva-S2Q5mdOrrVc-unsplash.jpg,1,NaN,,NaN,chosen,NaN,NaN,NaN,NaN,2700,0,9,3
65,29646,0,66,1,1,0,no_gain6,gain5,B,L,6,14,outdoor_scenes,faces,50,50,Stimuli/Experimental_stims/outdoor_scenes/meng-ji-8BH_M-53CyA-unsplash.jpg,Stimuli/Experimental_stims/faces/david-siglin-UuW4psOb388-unsplash.jpg,1,NaN,,NaN,unchosen,NaN,NaN,NaN,NaN,1500,0,9,3
66,29646,0,67,1,1,1,gain3,no_gain5,H,C,22,26,faces,body_parts,50,50,Stimuli/Experimental_stims/faces/ravi-patel-VMGAbeeJTKo-unsplash.jpg,Stimuli/Experimental_stims/body_parts/engin-akyurt-x_3gyC42btc-unsplash.jpg,1,NaN,,NaN,unchosen,NaN,NaN,NaN,NaN,3700,1,9,3
67,29646,0,68,1,1,0,no_gain1,gain1,G,K,9,29,outdoor_scenes,body_parts,50,50,Stimuli/Experimental_stims/outdoor_scenes/sergey-pesterev-y-b_FOmJXdg-unsplash.jpg,Stimuli/Experimental_stims/body_parts/manuel-schinner-ZwjFuJ7ebpk-unsplash.jpg,1,NaN,,NaN,unchosen,NaN,NaN,NaN,NaN,2600,0,9,3
68,29646,0,69,1,1,1,gain4,no_gain3,D,I,15,4,faces,outdoor_scenes,50,50,Stimuli/Experimental_stims/faces/erik-lucatero-d2MSDujJl2g-unsplash.jpg,Stimuli/Experimental_stims/outdoor_scenes/jarrett-kow-1ZOyYPOBn7I-unsplash.jpg,1,NaN,,NaN,chosen,NaN,NaN,NaN,NaN,1600,0,9,3
69,29646,0,70,1,1,1,gain6,no_gain3,E,I,30,33,body_parts,body_parts,50,50,Stimuli/Experimental_stims/body_parts/mika-korhonen-Xodzxosar18-unsplash.jpg,Stimuli/Experimental_stims/body_parts/tucker-good-36skLT5jZcc-unsplash.jpg,1,NaN,,NaN,unchosen,NaN,NaN,NaN,NaN,1100,0,9,3
70,29646,0,71,1,1,0,no_gain6,gain2,B,J,19,21,faces,faces,50,50,Stimuli/Experimental_stims/faces/joel-mott-LaK153ghdig-unsplash.jpg,Stimuli/Experimental_stims/faces/leilani-angel-K84vnnzxmTQ-unsplash.jpg,1,NaN,,NaN,chosen,NaN,NaN,NaN,NaN,1600,0,9,3
71,29646,0,72,1,1,0,no_gain6,gain1,B,K,19,44,faces,objects,50,50,Stimuli/Experimental_stims/faces/joel-mott-LaK153ghdig-unsplash.jpg,Stimuli/Experimental_stims/objects/kuiye-chen-NuOGFo4PudE-unsplash.jpg,1,NaN,,NaN,chosen,NaN,NaN,NaN,NaN,4400,1,9,3
72,29646,0,73,1,1,1,gain6,no_gain1,E,G,46,43,objects,objects,50,50,Stimuli/Experimental_stims/objects/mockup-graphics-PNsj6RiHAF4-unsplash.jpg,Stimuli/Experimental_stims/objects/jonathan-greenaway-Y4hGgeiFn3s-unsplash.jpg,1,NaN,,NaN,chosen,NaN,NaN,NaN,NaN,1100,0,9,3
73,29646,0,74,1,1,0,no_gain5,gain6,C,E,26,30,body_parts,body_parts,50,50,Stimuli/Experimental_stims/body_parts/engin-akyurt-x_3gyC42btc-unsplash.jpg,Stimuli/Experimental_stims/body_parts/mika-korhonen-Xodzxosar18-unsplash.jpg,1,NaN,,NaN,unchosen,NaN,NaN,NaN,NaN,1700,0,9,3
74,29646,0,75,1,1,1,gain5,no_gain2,L,F,14,27,faces,body_parts,50,50,Stimuli/Experimental_stims/faces/david-siglin-UuW4psOb388-unsplash.jpg,Stimuli/Experimental_stims/body_parts/heike-mintel-i_Gns0ELnLw-unsplash.jpg,1,NaN,,NaN,unchosen,NaN,NaN,NaN,NaN,2500,0,9,3
75,29646,0,76,1,1,1,gain1,no_gain3,K,I,29,33,body_parts,body_parts,50,50,Stimuli/Experimental_stims/body_parts/manuel-schinner-ZwjFuJ7ebpk-unsplash.jpg,Stimuli/Experimental_stims/body_parts/tucker-good-36skLT5jZcc-unsplash.jpg,1,NaN,,NaN,unchosen,NaN,NaN,NaN,NaN,2100,0,9,3
76,29646,0,77,2,2,0,no_gain2,gain4,F,D,27,41,body_parts,objects,50,50,Stimuli/Experimental_stims/body_parts/heike-mintel-i_Gns0ELnLw-unsplash.jpg,Stimuli/Experimental_stims/objects/insung-yoon-w2JtIQQXoRU-unsplash.jpg,0,1,899,0,unchosen,27,41,body_parts,objects,3800,1,9,3
77,29646,0,78,2,2,0,no_gain6,gain5,B,L,19,32,faces,body_parts,50,50,Stimuli/Experimental_stims/faces/joel-mott-LaK153ghdig-unsplash.jpg,Stimuli/Experimental_stims/body_parts/towfiqu-barbhuiya-3AsiVDsZnHg-unsplash.jpg,0,1,508,0,chosen,19,32,faces,body_parts,1200,0,9,3
78,29646,0,79,2,2,0,no_gain5,gain5,C,L,10,32,outdoor_scenes,body_parts,50,50,Stimuli/Experimental_stims/outdoor_scenes/shannon-kunkle-dM8INmkyDas-unsplash.jpg,Stimuli/Experimental_stims/body_parts/towfiqu-barbhuiya-3AsiVDsZnHg-unsplash.jpg,1,NaN,,NaN,chosen,NaN,NaN,NaN,NaN,1200,0,9,3
79,29646,0,80,2,2,0,no_gain6,gain3,B,H,6,22,outdoor_scenes,faces,50,50,Stimuli/Experimental_stims/outdoor_scenes/meng-ji-8BH_M-53CyA-unsplash.jpg,Stimuli/Experimental_stims/faces/ravi-patel-VMGAbeeJTKo-unsplash.jpg,0,1,10,0,unchosen,6,22,outdoor_scenes,faces,2700,0,9,3
80,29646,0,81,2,2,0,no_gain2,gain6,F,E,18,46,faces,objects,50,50,Stimuli/Experimental_stims/faces/jessica-radanavong-mrYkTuAesKE-unsplash.jpg,Stimuli/Experimental_stims/objects/mockup-graphics-PNsj6RiHAF4-unsplash.jpg,0,1,59,0,chosen,18,46,faces,objects,2900,0,9,3
81,29646,0,82,2,2,1,gain6,no_gain4,E,A,30,5,body_parts,outdoor_scenes,50,50,Stimuli/Experimental_stims/body_parts/mika-korhonen-Xodzxosar18-unsplash.jpg,Stimuli/Experimental_stims/outdoor_scenes/jeff-king-bJHWJeiHfHc-unsplash.jpg,0,1,99,1,unchosen,30,5,body_parts,outdoor_scenes,1400,0,9,3
82,29646,0,83,2,2,1,gain2,no_gain1,J,G,21,43,faces,objects,50,50,Stimuli/Experimental_stims/faces/leilani-angel-K84vnnzxmTQ-unsplash.jpg,Stimuli/Experimental_stims/objects/jonathan-greenaway-Y4hGgeiFn3s-unsplash.jpg,0,1,204,1,chosen,21,43,faces,objects,1100,0,9,3
83,29646,0,84,2,2,0,no_gain5,gain3,C,H,10,1,outdoor_scenes,outdoor_scenes,50,50,Stimuli/Experimental_stims/outdoor_scenes/shannon-kunkle-dM8INmkyDas-unsplash.jpg,Stimuli/Experimental_stims/outdoor_scenes/ashim-d-silva-S2Q5mdOrrVc-unsplash.jpg,0,1,878,0,chosen,10,1,outdoor_scenes,outdoor_scenes,2400,0,9,3
84,29646,0,85,2,2,1,gain6,no_gain3,E,I,30,33,body_parts,body_parts,50,50,Stimuli/Experimental_stims/body_parts/mika-korhonen-Xodzxosar18-unsplash.jpg,Stimuli/Experimental_stims/body_parts/tucker-good-36skLT5jZcc-unsplash.jpg,0,1,309,1,unchosen,30,33,body_parts,body_parts,2400,0,9,3
85,29646,0,86,2,2,1,gain5,no_gain1,L,G,32,43,body_parts,objects,50,50,Stimuli/Experimental_stims/body_parts/towfiqu-barbhuiya-3AsiVDsZnHg-unsplash.jpg,Stimuli/Experimental_stims/objects/jonathan-greenaway-Y4hGgeiFn3s-unsplash.jpg,0,1,283,1,chosen,32,43,body_parts,objects,1400,0,9,3
86,29646,0,87,2,2,0,no_gain3,gain1,I,K,4,44,outdoor_scenes,objects,50,50,Stimuli/Experimental_stims/outdoor_scenes/jarrett-kow-1ZOyYPOBn7I-unsplash.jpg,Stimuli/Experimental_stims/objects/kuiye-chen-NuOGFo4PudE-unsplash.jpg,0,1,860,0,chosen,4,44,outdoor_scenes,objects,3000,1,9,3
87,29646,0,88,2,2,0,no_gain5,gain1,C,K,26,29,body_parts,body_parts,50,50,Stimuli/Experimental_stims/body_parts/engin-akyurt-x_3gyC42btc-unsplash.jpg,Stimuli/Experimental_stims/body_parts/manuel-schinner-ZwjFuJ7ebpk-unsplash.jpg,0,1,220,0,unchosen,26,29,body_parts,body_parts,1000,0,9,3
88,29646,0,89,2,2,0,no_gain5,gain4,C,D,26,41,body_parts,objects,50,50,Stimuli/Experimental_stims/body_parts/engin-akyurt-x_3gyC42btc-unsplash.jpg,Stimuli/Experimental_stims/objects/insung-yoon-w2JtIQQXoRU-unsplash.jpg,0,1,882,0,unchosen,26,41,body_parts,objects,1100,0,9,3
89,29646,0,90,2,2,0,no_gain3,gain2,I,J,33,36,body_parts,objects,50,50,Stimuli/Experimental_stims/body_parts/tucker-good-36skLT5jZcc-unsplash.jpg,Stimuli/Experimental_stims/objects/alexander-andrews-JYGnB9gTCls-unsplash.jpg,0,1,646,0,unchosen,33,36,body_parts,objects,2200,0,9,3
90,29646,0,91,2,2,1,gain1,no_gain6,K,B,44,19,objects,faces,50,50,Stimuli/Experimental_stims/objects/kuiye-chen-NuOGFo4PudE-unsplash.jpg,Stimuli/Experimental_stims/faces/joel-mott-LaK153ghdig-unsplash.jpg,0,1,964,1,chosen,44,19,objects,faces,1600,0,9,3
91,29646,0,92,2,2,1,gain2,no_gain6,J,B,36,6,objects,outdoor_scenes,50,50,Stimuli/Experimental_stims/objects/alexander-andrews-JYGnB9gTCls-unsplash.jpg,Stimuli/Experimental_stims/outdoor_scenes/meng-ji-8BH_M-53CyA-unsplash.jpg,0,1,949,1,unchosen,36,6,objects,outdoor_scenes,3200,1,9,3
92,29646,0,93,2,2,0,no_gain5,gain6,C,E,26,30,body_parts,body_parts,50,50,Stimuli/Experimental_stims/body_parts/engin-akyurt-x_3gyC42btc-unsplash.jpg,Stimuli/Experimental_stims/body_parts/mika-korhonen-Xodzxosar18-unsplash.jpg,0,1,193,0,unchosen,26,30,body_parts,body_parts,2100,0,9,3
93,29646,0,94,2,2,1,gain3,no_gain3,H,I,22,33,faces,body_parts,50,50,Stimuli/Experimental_stims/faces/ravi-patel-VMGAbeeJTKo-unsplash.jpg,Stimuli/Experimental_stims/body_parts/tucker-good-36skLT5jZcc-unsplash.jpg,0,1,1140,1,unchosen,22,33,faces,body_parts,1100,0,9,3
94,29646,0,95,2,2,0,no_gain2,gain3,F,H,18,1,faces,outdoor_scenes,50,50,Stimuli/Experimental_stims/faces/jessica-radanavong-mrYkTuAesKE-unsplash.jpg,Stimuli/Experimental_stims/outdoor_scenes/ashim-d-silva-S2Q5mdOrrVc-unsplash.jpg,0,1,115,0,chosen,18,1,faces,outdoor_scenes,2800,0,9,3
95,29646,0,96,2,2,1,gain1,no_gain4,K,A,29,5,body_parts,outdoor_scenes,50,50,Stimuli/Experimental_stims/body_parts/manuel-schinner-ZwjFuJ7ebpk-unsplash.jpg,Stimuli/Experimental_stims/outdoor_scenes/jeff-king-bJHWJeiHfHc-unsplash.jpg,0,1,1328,1,unchosen,29,5,body_parts,outdoor_scenes,1100,0,9,3
96,29646,0,97,2,2,0,no_gain3,gain4,I,D,4,15,outdoor_scenes,faces,50,50,Stimuli/Experimental_stims/outdoor_scenes/jarrett-kow-1ZOyYPOBn7I-unsplash.jpg,Stimuli/Experimental_stims/faces/erik-lucatero-d2MSDujJl2g-unsplash.jpg,0,1,355,0,chosen,4,15,outdoor_scenes,faces,4900,1,9,3
97,29646,0,98,2,2,1,gain3,no_gain3,H,I,1,4,outdoor_scenes,outdoor_scenes,50,50,Stimuli/Experimental_stims/outdoor_scenes/ashim-d-silva-S2Q5mdOrrVc-unsplash.jpg,Stimuli/Experimental_stims/outdoor_scenes/jarrett-kow-1ZOyYPOBn7I-unsplash.jpg,0,1,525,1,chosen,1,4,outdoor_scenes,outdoor_scenes,1200,0,9,3
98,29646,0,99,2,2,0,no_gain5,gain5,C,L,26,14,body_parts,faces,50,50,Stimuli/Experimental_stims/body_parts/engin-akyurt-x_3gyC42btc-unsplash.jpg,Stimuli/Experimental_stims/faces/david-siglin-UuW4psOb388-unsplash.jpg,0,0,323,1,unchosen,14,26,faces,body_parts,1200,0,9,3
99,29646,0,100,2,2,1,gain4,no_gain5,D,C,15,10,faces,outdoor_scenes,50,50,Stimuli/Experimental_stims/faces/erik-lucatero-d2MSDujJl2g-unsplash.jpg,Stimuli/Experimental_stims/outdoor_scenes/shannon-kunkle-dM8INmkyDas-unsplash.jpg,0,0,112,0,chosen,10,15,outdoor_scenes,faces,1900,0,9,3
100,29646,0,101,2,2,0,no_gain6,gain4,B,D,19,15,faces,faces,50,50,Stimuli/Experimental_stims/faces/joel-mott-LaK153ghdig-unsplash.jpg,Stimuli/Experimental_stims/faces/erik-lucatero-d2MSDujJl2g-unsplash.jpg,1,NaN,,NaN,chosen,NaN,NaN,NaN,NaN,1500,0,9,3
101,29646,0,102,2,2,0,no_gain5,gain2,C,J,26,36,body_parts,objects,50,50,Stimuli/Experimental_stims/body_parts/engin-akyurt-x_3gyC42btc-unsplash.jpg,Stimuli/Experimental_stims/objects/alexander-andrews-JYGnB9gTCls-unsplash.jpg,1,NaN,,NaN,unchosen,NaN,NaN,NaN,NaN,1600,0,9,3
102,29646,0,103,2,2,0,no_gain5,gain6,C,E,10,46,outdoor_scenes,objects,50,50,Stimuli/Experimental_stims/outdoor_scenes/shannon-kunkle-dM8INmkyDas-unsplash.jpg,Stimuli/Experimental_stims/objects/mockup-graphics-PNsj6RiHAF4-unsplash.jpg,1,NaN,,NaN,chosen,NaN,NaN,NaN,NaN,1500,0,9,3
103,29646,0,104,2,2,1,gain4,no_gain3,D,I,41,33,objects,body_parts,50,50,Stimuli/Experimental_stims/objects/insung-yoon-w2JtIQQXoRU-unsplash.jpg,Stimuli/Experimental_stims/body_parts/tucker-good-36skLT5jZcc-unsplash.jpg,1,NaN,,NaN,unchosen,NaN,NaN,NaN,NaN,2000,0,9,3
104,29646,0,105,2,2,1,gain2,no_gain4,J,A,21,45,faces,objects,50,50,Stimuli/Experimental_stims/faces/leilani-angel-K84vnnzxmTQ-unsplash.jpg,Stimuli/Experimental_stims/objects/leohoho-rngTKHXumy0-unsplash.jpg,1,NaN,,NaN,chosen,NaN,NaN,NaN,NaN,2000,0,9,3
105,29646,0,106,2,2,0,no_gain2,gain1,F,K,18,44,faces,objects,50,50,Stimuli/Experimental_stims/faces/jessica-radanavong-mrYkTuAesKE-unsplash.jpg,Stimuli/Experimental_stims/objects/kuiye-chen-NuOGFo4PudE-unsplash.jpg,1,NaN,,NaN,chosen,NaN,NaN,NaN,NaN,3400,1,9,3
106,29646,0,107,2,2,1,gain1,no_gain6,K,B,29,6,body_parts,outdoor_scenes,50,50,Stimuli/Experimental_stims/body_parts/manuel-schinner-ZwjFuJ7ebpk-unsplash.jpg,Stimuli/Experimental_stims/outdoor_scenes/meng-ji-8BH_M-53CyA-unsplash.jpg,1,NaN,,NaN,unchosen,NaN,NaN,NaN,NaN,1600,0,9,3
107,29646,0,108,2,2,0,no_gain1,gain3,G,H,9,22,outdoor_scenes,faces,50,50,Stimuli/Experimental_stims/outdoor_scenes/sergey-pesterev-y-b_FOmJXdg-unsplash.jpg,Stimuli/Experimental_stims/faces/ravi-patel-VMGAbeeJTKo-unsplash.jpg,1,NaN,,NaN,unchosen,NaN,NaN,NaN,NaN,2400,0,9,3
108,29646,0,109,2,2,0,no_gain5,gain2,C,J,10,21,outdoor_scenes,faces,50,50,Stimuli/Experimental_stims/outdoor_scenes/shannon-kunkle-dM8INmkyDas-unsplash.jpg,Stimuli/Experimental_stims/faces/leilani-angel-K84vnnzxmTQ-unsplash.jpg,1,NaN,,NaN,chosen,NaN,NaN,NaN,NaN,2900,0,9,3
109,29646,0,110,2,2,1,gain2,no_gain2,J,F,21,18,faces,faces,50,50,Stimuli/Experimental_stims/faces/leilani-angel-K84vnnzxmTQ-unsplash.jpg,Stimuli/Experimental_stims/faces/jessica-radanavong-mrYkTuAesKE-unsplash.jpg,1,NaN,,NaN,chosen,NaN,NaN,NaN,NaN,2100,0,9,3
110,29646,0,111,2,2,1,gain5,no_gain6,L,B,14,6,faces,outdoor_scenes,50,50,Stimuli/Experimental_stims/faces/david-siglin-UuW4psOb388-unsplash.jpg,Stimuli/Experimental_stims/outdoor_scenes/meng-ji-8BH_M-53CyA-unsplash.jpg,1,NaN,,NaN,unchosen,NaN,NaN,NaN,NaN,3600,1,9,3
111,29646,0,112,2,2,1,gain6,no_gain4,E,A,46,45,objects,objects,50,50,Stimuli/Experimental_stims/objects/mockup-graphics-PNsj6RiHAF4-unsplash.jpg,Stimuli/Experimental_stims/objects/leohoho-rngTKHXumy0-unsplash.jpg,1,NaN,,NaN,chosen,NaN,NaN,NaN,NaN,1900,0,9,3
112,29646,0,113,2,2,1,gain3,no_gain1,H,G,1,43,outdoor_scenes,objects,50,50,Stimuli/Experimental_stims/outdoor_scenes/ashim-d-silva-S2Q5mdOrrVc-unsplash.jpg,Stimuli/Experimental_stims/objects/jonathan-greenaway-Y4hGgeiFn3s-unsplash.jpg,1,NaN,,NaN,chosen,NaN,NaN,NaN,NaN,1000,0,9,3
113,29646,0,114,2,2,0,no_gain6,gain2,B,J,19,21,faces,faces,50,50,Stimuli/Experimental_stims/faces/joel-mott-LaK153ghdig-unsplash.jpg,Stimuli/Experimental_stims/faces/leilani-angel-K84vnnzxmTQ-unsplash.jpg,1,NaN,,NaN,chosen,NaN,NaN,NaN,NaN,1500,0,9,3
114,29646,0,115,2,2,1,gain1,no_gain3,K,I,29,33,body_parts,body_parts,50,50,Stimuli/Experimental_stims/body_parts/manuel-schinner-ZwjFuJ7ebpk-unsplash.jpg,Stimuli/Experimental_stims/body_parts/tucker-good-36skLT5jZcc-unsplash.jpg,1,NaN,,NaN,unchosen,NaN,NaN,NaN,NaN,1600,0,9,3
115,29646,0,116,2,2,0,no_gain1,gain1,G,K,9,29,outdoor_scenes,body_parts,50,50,Stimuli/Experimental_stims/outdoor_scenes/sergey-pesterev-y-b_FOmJXdg-unsplash.jpg,Stimuli/Experimental_stims/body_parts/manuel-schinner-ZwjFuJ7ebpk-unsplash.jpg,1,NaN,,NaN,unchosen,NaN,NaN,NaN,NaN,1100,0,9,3
116,29646,0,117,2,2,1,gain6,no_gain1,E,G,46,43,objects,objects,50,50,Stimuli/Experimental_stims/objects/mockup-graphics-PNsj6RiHAF4-unsplash.jpg,Stimuli/Experimental_stims/objects/jonathan-greenaway-Y4hGgeiFn3s-unsplash.jpg,1,NaN,,NaN,chosen,NaN,NaN,NaN,NaN,4400,1,9,3
117,29646,0,118,2,2,1,gain3,no_gain6,H,B,1,19,outdoor_scenes,faces,50,50,Stimuli/Experimental_stims/outdoor_scenes/ashim-d-silva-S2Q5mdOrrVc-unsplash.jpg,Stimuli/Experimental_stims/faces/joel-mott-LaK153ghdig-unsplash.jpg,1,NaN,,NaN,chosen,NaN,NaN,NaN,NaN,1100,0,9,3
118,29646,0,119,2,2,1,gain3,no_gain4,H,A,22,5,faces,outdoor_scenes,50,50,Stimuli/Experimental_stims/faces/ravi-patel-VMGAbeeJTKo-unsplash.jpg,Stimuli/Experimental_stims/outdoor_scenes/jeff-king-bJHWJeiHfHc-unsplash.jpg,1,NaN,,NaN,unchosen,NaN,NaN,NaN,NaN,1200,0,9,3
119,29646,0,120,2,2,0,no_gain4,gain1,A,K,45,44,objects,objects,50,50,Stimuli/Experimental_stims/objects/leohoho-rngTKHXumy0-unsplash.jpg,Stimuli/Experimental_stims/objects/kuiye-chen-NuOGFo4PudE-unsplash.jpg,1,NaN,,NaN,chosen,NaN,NaN,NaN,NaN,1000,0,9,3
120,29646,0,121,2,2,0,no_gain3,gain5,I,L,33,14,body_parts,faces,50,50,Stimuli/Experimental_stims/body_parts/tucker-good-36skLT5jZcc-unsplash.jpg,Stimuli/Experimental_stims/faces/david-siglin-UuW4psOb388-unsplash.jpg,1,NaN,,NaN,unchosen,NaN,NaN,NaN,NaN,1500,0,9,3
121,29646,0,122,2,2,0,no_gain1,gain4,G,D,9,41,outdoor_scenes,objects,50,50,Stimuli/Experimental_stims/outdoor_scenes/sergey-pesterev-y-b_FOmJXdg-unsplash.jpg,Stimuli/Experimental_stims/objects/insung-yoon-w2JtIQQXoRU-unsplash.jpg,1,NaN,,NaN,unchosen,NaN,NaN,NaN,NaN,2000,0,9,3
122,29646,0,123,2,2,0,no_gain4,gain3,A,H,45,1,objects,outdoor_scenes,50,50,Stimuli/Experimental_stims/objects/leohoho-rngTKHXumy0-unsplash.jpg,Stimuli/Experimental_stims/outdoor_scenes/ashim-d-silva-S2Q5mdOrrVc-unsplash.jpg,1,NaN,,NaN,chosen,NaN,NaN,NaN,NaN,3700,1,9,3
123,29646,0,124,2,2,0,no_gain1,gain2,G,J,9,36,outdoor_scenes,objects,50,50,Stimuli/Experimental_stims/outdoor_scenes/sergey-pesterev-y-b_FOmJXdg-unsplash.jpg,Stimuli/Experimental_stims/objects/alexander-andrews-JYGnB9gTCls-unsplash.jpg,1,NaN,,NaN,unchosen,NaN,NaN,NaN,NaN,2100,0,9,3
124,29646,0,125,2,2,1,gain5,no_gain1,L,G,14,9,faces,outdoor_scenes,50,50,Stimuli/Experimental_stims/faces/david-siglin-UuW4psOb388-unsplash.jpg,Stimuli/Experimental_stims/outdoor_scenes/sergey-pesterev-y-b_FOmJXdg-unsplash.jpg,1,NaN,,NaN,unchosen,NaN,NaN,NaN,NaN,1100,0,9,3
125,29646,0,126,2,2,1,gain5,no_gain3,L,I,32,4,body_parts,outdoor_scenes,50,50,Stimuli/Experimental_stims/body_parts/towfiqu-barbhuiya-3AsiVDsZnHg-unsplash.jpg,Stimuli/Experimental_stims/outdoor_scenes/jarrett-kow-1ZOyYPOBn7I-unsplash.jpg,1,NaN,,NaN,chosen,NaN,NaN,NaN,NaN,1500,0,9,3
126,29646,0,127,2,2,0,no_gain5,gain1,C,K,10,44,outdoor_scenes,objects,50,50,Stimuli/Experimental_stims/outdoor_scenes/shannon-kunkle-dM8INmkyDas-unsplash.jpg,Stimuli/Experimental_stims/objects/kuiye-chen-NuOGFo4PudE-unsplash.jpg,1,NaN,,NaN,chosen,NaN,NaN,NaN,NaN,1900,0,9,3
127,29646,0,128,2,2,0,no_gain2,gain6,F,E,27,30,body_parts,body_parts,50,50,Stimuli/Experimental_stims/body_parts/heike-mintel-i_Gns0ELnLw-unsplash.jpg,Stimuli/Experimental_stims/body_parts/mika-korhonen-Xodzxosar18-unsplash.jpg,1,NaN,,NaN,unchosen,NaN,NaN,NaN,NaN,1600,0,9,3
128,29646,0,129,2,2,1,gain5,no_gain4,L,A,14,5,faces,outdoor_scenes,50,50,Stimuli/Experimental_stims/faces/david-siglin-UuW4psOb388-unsplash.jpg,Stimuli/Experimental_stims/outdoor_scenes/jeff-king-bJHWJeiHfHc-unsplash.jpg,1,NaN,,NaN,unchosen,NaN,NaN,NaN,NaN,3100,1,9,3
129,29646,0,130,2,2,0,no_gain1,gain1,G,K,43,44,objects,objects,50,50,Stimuli/Experimental_stims/objects/jonathan-greenaway-Y4hGgeiFn3s-unsplash.jpg,Stimuli/Experimental_stims/objects/kuiye-chen-NuOGFo4PudE-unsplash.jpg,1,NaN,,NaN,chosen,NaN,NaN,NaN,NaN,2800,0,9,3
130,29646,0,131,2,2,1,gain5,no_gain4,L,A,32,45,body_parts,objects,50,50,Stimuli/Experimental_stims/body_parts/towfiqu-barbhuiya-3AsiVDsZnHg-unsplash.jpg,Stimuli/Experimental_stims/objects/leohoho-rngTKHXumy0-unsplash.jpg,1,NaN,,NaN,chosen,NaN,NaN,NaN,NaN,1800,0,9,3
131,29646,0,132,2,2,0,no_gain6,gain6,B,E,6,30,outdoor_scenes,body_parts,50,50,Stimuli/Experimental_stims/outdoor_scenes/meng-ji-8BH_M-53CyA-unsplash.jpg,Stimuli/Experimental_stims/body_parts/mika-korhonen-Xodzxosar18-unsplash.jpg,1,NaN,,NaN,unchosen,NaN,NaN,NaN,NaN,2100,0,9,3
132,29646,0,133,2,2,1,gain6,no_gain3,E,I,46,4,objects,outdoor_scenes,50,50,Stimuli/Experimental_stims/objects/mockup-graphics-PNsj6RiHAF4-unsplash.jpg,Stimuli/Experimental_stims/outdoor_scenes/jarrett-kow-1ZOyYPOBn7I-unsplash.jpg,1,NaN,,NaN,chosen,NaN,NaN,NaN,NaN,2100,0,9,3
133,29646,0,134,2,2,0,no_gain2,gain5,F,L,18,32,faces,body_parts,50,50,Stimuli/Experimental_stims/faces/jessica-radanavong-mrYkTuAesKE-unsplash.jpg,Stimuli/Experimental_stims/body_parts/towfiqu-barbhuiya-3AsiVDsZnHg-unsplash.jpg,1,NaN,,NaN,chosen,NaN,NaN,NaN,NaN,1600,0,9,3
134,29646,0,135,2,2,0,no_gain4,gain2,A,J,5,36,outdoor_scenes,objects,50,50,Stimuli/Experimental_stims/outdoor_scenes/jeff-king-bJHWJeiHfHc-unsplash.jpg,Stimuli/Experimental_stims/objects/alexander-andrews-JYGnB9gTCls-unsplash.jpg,1,NaN,,NaN,unchosen,NaN,NaN,NaN,NaN,2600,0,9,3
135,29646,0,136,2,2,1,gain4,no_gain4,D,A,15,45,faces,objects,50,50,Stimuli/Experimental_stims/faces/erik-lucatero-d2MSDujJl2g-unsplash.jpg,Stimuli/Experimental_stims/objects/leohoho-rngTKHXumy0-unsplash.jpg,1,NaN,,NaN,chosen,NaN,NaN,NaN,NaN,1100,0,9,3
136,29646,0,137,2,2,0,no_gain2,gain2,F,J,27,36,body_parts,objects,50,50,Stimuli/Experimental_stims/body_parts/heike-mintel-i_Gns0ELnLw-unsplash.jpg,Stimuli/Experimental_stims/objects/alexander-andrews-JYGnB9gTCls-unsplash.jpg,1,NaN,,NaN,unchosen,NaN,NaN,NaN,NaN,2700,0,9,3
137,29646,0,138,2,2,1,gain4,no_gain6,D,B,41,6,objects,outdoor_scenes,50,50,Stimuli/Experimental_stims/objects/insung-yoon-w2JtIQQXoRU-unsplash.jpg,Stimuli/Experimental_stims/outdoor_scenes/meng-ji-8BH_M-53CyA-unsplash.jpg,1,NaN,,NaN,unchosen,NaN,NaN,NaN,NaN,1500,0,9,3
138,29646,0,139,2,2,1,gain3,no_gain5,H,C,22,26,faces,body_parts,50,50,Stimuli/Experimental_stims/faces/ravi-patel-VMGAbeeJTKo-unsplash.jpg,Stimuli/Experimental_stims/body_parts/engin-akyurt-x_3gyC42btc-unsplash.jpg,1,NaN,,NaN,unchosen,NaN,NaN,NaN,NaN,1100,0,9,3
139,29646,0,140,2,2,1,gain4,no_gain1,D,G,15,43,faces,objects,50,50,Stimuli/Experimental_stims/faces/erik-lucatero-d2MSDujJl2g-unsplash.jpg,Stimuli/Experimental_stims/objects/jonathan-greenaway-Y4hGgeiFn3s-unsplash.jpg,1,NaN,,NaN,chosen,NaN,NaN,NaN,NaN,1200,0,9,3
140,29646,0,141,2,2,1,gain3,no_gain2,H,F,22,27,faces,body_parts,50,50,Stimuli/Experimental_stims/faces/ravi-patel-VMGAbeeJTKo-unsplash.jpg,Stimuli/Experimental_stims/body_parts/heike-mintel-i_Gns0ELnLw-unsplash.jpg,1,NaN,,NaN,unchosen,NaN,NaN,NaN,NaN,1200,0,9,3
141,29646,0,142,2,2,0,no_gain2,gain1,F,K,27,29,body_parts,body_parts,50,50,Stimuli/Experimental_stims/body_parts/heike-mintel-i_Gns0ELnLw-unsplash.jpg,Stimuli/Experimental_stims/body_parts/manuel-schinner-ZwjFuJ7ebpk-unsplash.jpg,1,NaN,,NaN,unchosen,NaN,NaN,NaN,NaN,4600,1,9,3
142,29646,0,143,2,2,1,gain6,no_gain6,E,B,46,19,objects,faces,50,50,Stimuli/Experimental_stims/objects/mockup-graphics-PNsj6RiHAF4-unsplash.jpg,Stimuli/Experimental_stims/faces/joel-mott-LaK153ghdig-unsplash.jpg,1,NaN,,NaN,chosen,NaN,NaN,NaN,NaN,2000,0,9,3
143,29646,0,144,2,2,1,gain4,no_gain4,D,A,41,5,objects,outdoor_scenes,50,50,Stimuli/Experimental_stims/objects/insung-yoon-w2JtIQQXoRU-unsplash.jpg,Stimuli/Experimental_stims/outdoor_scenes/jeff-king-bJHWJeiHfHc-unsplash.jpg,1,NaN,,NaN,unchosen,NaN,NaN,NaN,NaN,1700,0,9,3
144,29646,0,145,2,2,1,gain6,no_gain1,E,G,30,9,body_parts,outdoor_scenes,50,50,Stimuli/Experimental_stims/body_parts/mika-korhonen-Xodzxosar18-unsplash.jpg,Stimuli/Experimental_stims/outdoor_scenes/sergey-pesterev-y-b_FOmJXdg-unsplash.jpg,1,NaN,,NaN,unchosen,NaN,NaN,NaN,NaN,1300,0,9,3
145,29646,0,146,2,2,0,no_gain2,gain4,F,D,18,15,faces,faces,50,50,Stimuli/Experimental_stims/faces/jessica-radanavong-mrYkTuAesKE-unsplash.jpg,Stimuli/Experimental_stims/faces/erik-lucatero-d2MSDujJl2g-unsplash.jpg,1,NaN,,NaN,chosen,NaN,NaN,NaN,NaN,1300,0,9,3
146,29646,0,147,2,2,1,gain5,no_gain2,L,F,14,27,faces,body_parts,50,50,Stimuli/Experimental_stims/faces/david-siglin-UuW4psOb388-unsplash.jpg,Stimuli/Experimental_stims/body_parts/heike-mintel-i_Gns0ELnLw-unsplash.jpg,1,NaN,,NaN,unchosen,NaN,NaN,NaN,NaN,1600,0,9,3
147,29646,0,148,2,2,1,gain2,no_gain3,J,I,21,4,faces,outdoor_scenes,50,50,Stimuli/Experimental_stims/faces/leilani-angel-K84vnnzxmTQ-unsplash.jpg,Stimuli/Experimental_stims/outdoor_scenes/jarrett-kow-1ZOyYPOBn7I-unsplash.jpg,1,NaN,,NaN,chosen,NaN,NaN,NaN,NaN,2900,0,9,3
148,29646,0,149,3,3,0,no_gain1,gain2,G,J,9,36,outdoor_scenes,objects,50,50,Stimuli/Experimental_stims/outdoor_scenes/sergey-pesterev-y-b_FOmJXdg-unsplash.jpg,Stimuli/Experimental_stims/objects/alexander-andrews-JYGnB9gTCls-unsplash.jpg,1,NaN,,NaN,unchosen,NaN,NaN,NaN,NaN,2500,0,3,3
149,29646,0,150,3,3,0,no_gain2,gain5,F,L,18,32,faces,body_parts,50,50,Stimuli/Experimental_stims/faces/jessica-radanavong-mrYkTuAesKE-unsplash.jpg,Stimuli/Experimental_stims/body_parts/towfiqu-barbhuiya-3AsiVDsZnHg-unsplash.jpg,1,NaN,,NaN,chosen,NaN,NaN,NaN,NaN,1500,0,3,3
150,29646,0,151,3,3,0,no_gain5,gain1,C,K,26,29,body_parts,body_parts,50,50,Stimuli/Experimental_stims/body_parts/engin-akyurt-x_3gyC42btc-unsplash.jpg,Stimuli/Experimental_stims/body_parts/manuel-schinner-ZwjFuJ7ebpk-unsplash.jpg,1,NaN,,NaN,unchosen,NaN,NaN,NaN,NaN,1000,0,3,3
151,29646,0,152,3,3,1,gain3,no_gain3,H,I,22,33,faces,body_parts,50,50,Stimuli/Experimental_stims/faces/ravi-patel-VMGAbeeJTKo-unsplash.jpg,Stimuli/Experimental_stims/body_parts/tucker-good-36skLT5jZcc-unsplash.jpg,1,NaN,,NaN,unchosen,NaN,NaN,NaN,NaN,2000,0,3,3
152,29646,0,153,3,3,0,no_gain4,gain3,A,H,5,22,outdoor_scenes,faces,50,50,Stimuli/Experimental_stims/outdoor_scenes/jeff-king-bJHWJeiHfHc-unsplash.jpg,Stimuli/Experimental_stims/faces/ravi-patel-VMGAbeeJTKo-unsplash.jpg,1,NaN,,NaN,unchosen,NaN,NaN,NaN,NaN,1600,0,3,3
153,29646,0,154,3,3,0,no_gain6,gain5,B,L,19,32,faces,body_parts,50,50,Stimuli/Experimental_stims/faces/joel-mott-LaK153ghdig-unsplash.jpg,Stimuli/Experimental_stims/body_parts/towfiqu-barbhuiya-3AsiVDsZnHg-unsplash.jpg,1,NaN,,NaN,chosen,NaN,NaN,NaN,NaN,5000,1,3,3
154,29646,0,155,3,3,1,gain5,no_gain5,L,C,14,26,faces,body_parts,50,50,Stimuli/Experimental_stims/faces/david-siglin-UuW4psOb388-unsplash.jpg,Stimuli/Experimental_stims/body_parts/engin-akyurt-x_3gyC42btc-unsplash.jpg,1,NaN,,NaN,unchosen,NaN,NaN,NaN,NaN,1500,0,3,3
155,29646,0,156,3,3,0,no_gain4,gain4,A,D,45,15,objects,faces,50,50,Stimuli/Experimental_stims/objects/leohoho-rngTKHXumy0-unsplash.jpg,Stimuli/Experimental_stims/faces/erik-lucatero-d2MSDujJl2g-unsplash.jpg,1,NaN,,NaN,chosen,NaN,NaN,NaN,NaN,1800,0,3,3
156,29646,0,157,3,3,0,no_gain6,gain1,B,K,19,44,faces,objects,50,50,Stimuli/Experimental_stims/faces/joel-mott-LaK153ghdig-unsplash.jpg,Stimuli/Experimental_stims/objects/kuiye-chen-NuOGFo4PudE-unsplash.jpg,1,NaN,,NaN,chosen,NaN,NaN,NaN,NaN,1900,0,3,3
157,29646,0,158,3,3,1,gain6,no_gain5,E,C,30,26,body_parts,body_parts,50,50,Stimuli/Experimental_stims/body_parts/mika-korhonen-Xodzxosar18-unsplash.jpg,Stimuli/Experimental_stims/body_parts/engin-akyurt-x_3gyC42btc-unsplash.jpg,1,NaN,,NaN,unchosen,NaN,NaN,NaN,NaN,2000,0,3,3
158,29646,0,159,3,3,1,gain1,no_gain5,K,C,44,10,objects,outdoor_scenes,50,50,Stimuli/Experimental_stims/objects/kuiye-chen-NuOGFo4PudE-unsplash.jpg,Stimuli/Experimental_stims/outdoor_scenes/shannon-kunkle-dM8INmkyDas-unsplash.jpg,1,NaN,,NaN,chosen,NaN,NaN,NaN,NaN,1300,0,3,3
159,29646,0,160,3,3,0,no_gain5,gain4,C,D,10,15,outdoor_scenes,faces,50,50,Stimuli/Experimental_stims/outdoor_scenes/shannon-kunkle-dM8INmkyDas-unsplash.jpg,Stimuli/Experimental_stims/faces/erik-lucatero-d2MSDujJl2g-unsplash.jpg,1,NaN,,NaN,chosen,NaN,NaN,NaN,NaN,2700,0,3,3
160,29646,0,161,3,3,0,no_gain3,gain4,I,D,4,15,outdoor_scenes,faces,50,50,Stimuli/Experimental_stims/outdoor_scenes/jarrett-kow-1ZOyYPOBn7I-unsplash.jpg,Stimuli/Experimental_stims/faces/erik-lucatero-d2MSDujJl2g-unsplash.jpg,1,NaN,,NaN,chosen,NaN,NaN,NaN,NaN,1600,0,3,3
161,29646,0,162,3,3,1,gain4,no_gain3,D,I,41,33,objects,body_parts,50,50,Stimuli/Experimental_stims/objects/insung-yoon-w2JtIQQXoRU-unsplash.jpg,Stimuli/Experimental_stims/body_parts/tucker-good-36skLT5jZcc-unsplash.jpg,1,NaN,,NaN,unchosen,NaN,NaN,NaN,NaN,4000,1,3,3
162,29646,0,163,3,3,0,no_gain1,gain3,G,H,43,1,objects,outdoor_scenes,50,50,Stimuli/Experimental_stims/objects/jonathan-greenaway-Y4hGgeiFn3s-unsplash.jpg,Stimuli/Experimental_stims/outdoor_scenes/ashim-d-silva-S2Q5mdOrrVc-unsplash.jpg,1,NaN,,NaN,chosen,NaN,NaN,NaN,NaN,1900,0,3,3
163,29646,0,164,3,3,0,no_gain4,gain5,A,L,5,14,outdoor_scenes,faces,50,50,Stimuli/Experimental_stims/outdoor_scenes/jeff-king-bJHWJeiHfHc-unsplash.jpg,Stimuli/Experimental_stims/faces/david-siglin-UuW4psOb388-unsplash.jpg,1,NaN,,NaN,unchosen,NaN,NaN,NaN,NaN,1700,0,3,3
164,29646,0,165,3,3,0,no_gain6,gain4,B,D,19,15,faces,faces,50,50,Stimuli/Experimental_stims/faces/joel-mott-LaK153ghdig-unsplash.jpg,Stimuli/Experimental_stims/faces/erik-lucatero-d2MSDujJl2g-unsplash.jpg,1,NaN,,NaN,chosen,NaN,NaN,NaN,NaN,1800,0,3,3
165,29646,0,166,3,3,1,gain5,no_gain3,L,I,32,4,body_parts,outdoor_scenes,50,50,Stimuli/Experimental_stims/body_parts/towfiqu-barbhuiya-3AsiVDsZnHg-unsplash.jpg,Stimuli/Experimental_stims/outdoor_scenes/jarrett-kow-1ZOyYPOBn7I-unsplash.jpg,1,NaN,,NaN,chosen,NaN,NaN,NaN,NaN,1500,0,3,3
166,29646,0,167,3,3,1,gain4,no_gain2,D,F,15,18,faces,faces,50,50,Stimuli/Experimental_stims/faces/erik-lucatero-d2MSDujJl2g-unsplash.jpg,Stimuli/Experimental_stims/faces/jessica-radanavong-mrYkTuAesKE-unsplash.jpg,1,NaN,,NaN,chosen,NaN,NaN,NaN,NaN,2700,0,3,3
167,29646,0,168,3,3,0,no_gain6,gain6,B,E,6,30,outdoor_scenes,body_parts,50,50,Stimuli/Experimental_stims/outdoor_scenes/meng-ji-8BH_M-53CyA-unsplash.jpg,Stimuli/Experimental_stims/body_parts/mika-korhonen-Xodzxosar18-unsplash.jpg,1,NaN,,NaN,unchosen,NaN,NaN,NaN,NaN,3600,1,3,3
168,29646,0,169,3,3,0,no_gain2,gain6,F,E,18,46,faces,objects,50,50,Stimuli/Experimental_stims/faces/jessica-radanavong-mrYkTuAesKE-unsplash.jpg,Stimuli/Experimental_stims/objects/mockup-graphics-PNsj6RiHAF4-unsplash.jpg,1,NaN,,NaN,chosen,NaN,NaN,NaN,NaN,2100,0,3,3
169,29646,0,170,3,3,1,gain5,no_gain6,L,B,14,6,faces,outdoor_scenes,50,50,Stimuli/Experimental_stims/faces/david-siglin-UuW4psOb388-unsplash.jpg,Stimuli/Experimental_stims/outdoor_scenes/meng-ji-8BH_M-53CyA-unsplash.jpg,1,NaN,,NaN,unchosen,NaN,NaN,NaN,NaN,2300,0,3,3
170,29646,0,171,3,3,1,gain1,no_gain3,K,I,29,33,body_parts,body_parts,50,50,Stimuli/Experimental_stims/body_parts/manuel-schinner-ZwjFuJ7ebpk-unsplash.jpg,Stimuli/Experimental_stims/body_parts/tucker-good-36skLT5jZcc-unsplash.jpg,1,NaN,,NaN,unchosen,NaN,NaN,NaN,NaN,1400,0,3,3
171,29646,0,172,3,3,1,gain3,no_gain3,H,I,1,4,outdoor_scenes,outdoor_scenes,50,50,Stimuli/Experimental_stims/outdoor_scenes/ashim-d-silva-S2Q5mdOrrVc-unsplash.jpg,Stimuli/Experimental_stims/outdoor_scenes/jarrett-kow-1ZOyYPOBn7I-unsplash.jpg,1,NaN,,NaN,chosen,NaN,NaN,NaN,NaN,1200,0,3,3
172,29646,0,173,3,3,1,gain2,no_gain6,J,B,21,19,faces,faces,50,50,Stimuli/Experimental_stims/faces/leilani-angel-K84vnnzxmTQ-unsplash.jpg,Stimuli/Experimental_stims/faces/joel-mott-LaK153ghdig-unsplash.jpg,1,NaN,,NaN,chosen,NaN,NaN,NaN,NaN,1900,0,3,3
173,29646,0,174,3,3,0,no_gain2,gain4,F,D,27,41,body_parts,objects,50,50,Stimuli/Experimental_stims/body_parts/heike-mintel-i_Gns0ELnLw-unsplash.jpg,Stimuli/Experimental_stims/objects/insung-yoon-w2JtIQQXoRU-unsplash.jpg,1,NaN,,NaN,unchosen,NaN,NaN,NaN,NaN,1800,0,3,3
174,29646,0,175,3,3,1,gain6,no_gain6,E,B,46,19,objects,faces,50,50,Stimuli/Experimental_stims/objects/mockup-graphics-PNsj6RiHAF4-unsplash.jpg,Stimuli/Experimental_stims/faces/joel-mott-LaK153ghdig-unsplash.jpg,1,NaN,,NaN,chosen,NaN,NaN,NaN,NaN,4100,1,3,3
175,29646,0,176,3,3,0,no_gain5,gain6,C,E,10,46,outdoor_scenes,objects,50,50,Stimuli/Experimental_stims/outdoor_scenes/shannon-kunkle-dM8INmkyDas-unsplash.jpg,Stimuli/Experimental_stims/objects/mockup-graphics-PNsj6RiHAF4-unsplash.jpg,1,NaN,,NaN,chosen,NaN,NaN,NaN,NaN,1400,0,3,3
176,29646,0,177,3,3,0,no_gain2,gain6,F,E,27,30,body_parts,body_parts,50,50,Stimuli/Experimental_stims/body_parts/heike-mintel-i_Gns0ELnLw-unsplash.jpg,Stimuli/Experimental_stims/body_parts/mika-korhonen-Xodzxosar18-unsplash.jpg,1,NaN,,NaN,unchosen,NaN,NaN,NaN,NaN,2200,0,3,3
177,29646,0,178,3,3,1,gain1,no_gain2,K,F,29,27,body_parts,body_parts,50,50,Stimuli/Experimental_stims/body_parts/manuel-schinner-ZwjFuJ7ebpk-unsplash.jpg,Stimuli/Experimental_stims/body_parts/heike-mintel-i_Gns0ELnLw-unsplash.jpg,1,NaN,,NaN,unchosen,NaN,NaN,NaN,NaN,1400,0,3,3
178,29646,0,179,3,3,1,gain3,no_gain2,H,F,1,18,outdoor_scenes,faces,50,50,Stimuli/Experimental_stims/outdoor_scenes/ashim-d-silva-S2Q5mdOrrVc-unsplash.jpg,Stimuli/Experimental_stims/faces/jessica-radanavong-mrYkTuAesKE-unsplash.jpg,1,NaN,,NaN,chosen,NaN,NaN,NaN,NaN,1100,0,3,3
179,29646,0,180,3,3,1,gain4,no_gain1,D,G,15,43,faces,objects,50,50,Stimuli/Experimental_stims/faces/erik-lucatero-d2MSDujJl2g-unsplash.jpg,Stimuli/Experimental_stims/objects/jonathan-greenaway-Y4hGgeiFn3s-unsplash.jpg,1,NaN,,NaN,chosen,NaN,NaN,NaN,NaN,1400,0,3,3
180,29646,0,181,3,3,1,gain1,no_gain4,K,A,29,5,body_parts,outdoor_scenes,50,50,Stimuli/Experimental_stims/body_parts/manuel-schinner-ZwjFuJ7ebpk-unsplash.jpg,Stimuli/Experimental_stims/outdoor_scenes/jeff-king-bJHWJeiHfHc-unsplash.jpg,1,NaN,,NaN,unchosen,NaN,NaN,NaN,NaN,1700,0,3,3
181,29646,0,182,3,3,1,gain1,no_gain4,K,A,44,45,objects,objects,50,50,Stimuli/Experimental_stims/objects/kuiye-chen-NuOGFo4PudE-unsplash.jpg,Stimuli/Experimental_stims/objects/leohoho-rngTKHXumy0-unsplash.jpg,1,NaN,,NaN,chosen,NaN,NaN,NaN,NaN,3400,1,3,3
182,29646,0,183,3,3,1,gain3,no_gain5,H,C,1,10,outdoor_scenes,outdoor_scenes,50,50,Stimuli/Experimental_stims/outdoor_scenes/ashim-d-silva-S2Q5mdOrrVc-unsplash.jpg,Stimuli/Experimental_stims/outdoor_scenes/shannon-kunkle-dM8INmkyDas-unsplash.jpg,1,NaN,,NaN,chosen,NaN,NaN,NaN,NaN,1000,0,3,3
183,29646,0,184,3,3,1,gain1,no_gain6,K,B,29,6,body_parts,outdoor_scenes,50,50,Stimuli/Experimental_stims/body_parts/manuel-schinner-ZwjFuJ7ebpk-unsplash.jpg,Stimuli/Experimental_stims/outdoor_scenes/meng-ji-8BH_M-53CyA-unsplash.jpg,1,NaN,,NaN,unchosen,NaN,NaN,NaN,NaN,1200,0,3,3
184,29646,0,185,3,3,0,no_gain5,gain4,C,D,26,41,body_parts,objects,50,50,Stimuli/Experimental_stims/body_parts/engin-akyurt-x_3gyC42btc-unsplash.jpg,Stimuli/Experimental_stims/objects/insung-yoon-w2JtIQQXoRU-unsplash.jpg,1,NaN,,NaN,unchosen,NaN,NaN,NaN,NaN,1200,0,3,3
185,29646,0,186,3,3,0,no_gain1,gain2,G,J,43,21,objects,faces,50,50,Stimuli/Experimental_stims/objects/jonathan-greenaway-Y4hGgeiFn3s-unsplash.jpg,Stimuli/Experimental_stims/faces/leilani-angel-K84vnnzxmTQ-unsplash.jpg,1,NaN,,NaN,chosen,NaN,NaN,NaN,NaN,2800,0,3,3
186,29646,0,187,3,3,0,no_gain1,gain4,G,D,9,41,outdoor_scenes,objects,50,50,Stimuli/Experimental_stims/outdoor_scenes/sergey-pesterev-y-b_FOmJXdg-unsplash.jpg,Stimuli/Experimental_stims/objects/insung-yoon-w2JtIQQXoRU-unsplash.jpg,1,NaN,,NaN,unchosen,NaN,NaN,NaN,NaN,1200,0,3,3
187,29646,0,188,3,3,0,no_gain6,gain3,B,H,19,1,faces,outdoor_scenes,50,50,Stimuli/Experimental_stims/faces/joel-mott-LaK153ghdig-unsplash.jpg,Stimuli/Experimental_stims/outdoor_scenes/ashim-d-silva-S2Q5mdOrrVc-unsplash.jpg,1,NaN,,NaN,chosen,NaN,NaN,NaN,NaN,1200,0,3,3
188,29646,0,189,3,3,1,gain2,no_gain2,J,F,21,18,faces,faces,50,50,Stimuli/Experimental_stims/faces/leilani-angel-K84vnnzxmTQ-unsplash.jpg,Stimuli/Experimental_stims/faces/jessica-radanavong-mrYkTuAesKE-unsplash.jpg,1,NaN,,NaN,chosen,NaN,NaN,NaN,NaN,2100,0,3,3
189,29646,0,190,3,3,1,gain2,no_gain6,J,B,36,6,objects,outdoor_scenes,50,50,Stimuli/Experimental_stims/objects/alexander-andrews-JYGnB9gTCls-unsplash.jpg,Stimuli/Experimental_stims/outdoor_scenes/meng-ji-8BH_M-53CyA-unsplash.jpg,1,NaN,,NaN,unchosen,NaN,NaN,NaN,NaN,3800,1,3,3
190,29646,0,191,3,3,0,no_gain3,gain2,I,J,4,21,outdoor_scenes,faces,50,50,Stimuli/Experimental_stims/outdoor_scenes/jarrett-kow-1ZOyYPOBn7I-unsplash.jpg,Stimuli/Experimental_stims/faces/leilani-angel-K84vnnzxmTQ-unsplash.jpg,1,NaN,,NaN,chosen,NaN,NaN,NaN,NaN,2200,0,3,3
191,29646,0,192,3,3,1,gain4,no_gain4,D,A,41,5,objects,outdoor_scenes,50,50,Stimuli/Experimental_stims/objects/insung-yoon-w2JtIQQXoRU-unsplash.jpg,Stimuli/Experimental_stims/outdoor_scenes/jeff-king-bJHWJeiHfHc-unsplash.jpg,1,NaN,,NaN,unchosen,NaN,NaN,NaN,NaN,2500,0,3,3
192,29646,0,193,3,3,1,gain2,no_gain5,J,C,21,10,faces,outdoor_scenes,50,50,Stimuli/Experimental_stims/faces/leilani-angel-K84vnnzxmTQ-unsplash.jpg,Stimuli/Experimental_stims/outdoor_scenes/shannon-kunkle-dM8INmkyDas-unsplash.jpg,1,NaN,,NaN,chosen,NaN,NaN,NaN,NaN,1100,0,3,3
193,29646,0,194,3,3,1,gain3,no_gain1,H,G,22,9,faces,outdoor_scenes,50,50,Stimuli/Experimental_stims/faces/ravi-patel-VMGAbeeJTKo-unsplash.jpg,Stimuli/Experimental_stims/outdoor_scenes/sergey-pesterev-y-b_FOmJXdg-unsplash.jpg,1,NaN,,NaN,unchosen,NaN,NaN,NaN,NaN,1800,0,3,3
194,29646,0,195,3,3,1,gain3,no_gain6,H,B,22,6,faces,outdoor_scenes,50,50,Stimuli/Experimental_stims/faces/ravi-patel-VMGAbeeJTKo-unsplash.jpg,Stimuli/Experimental_stims/outdoor_scenes/meng-ji-8BH_M-53CyA-unsplash.jpg,1,NaN,,NaN,unchosen,NaN,NaN,NaN,NaN,3600,1,3,3
195,29646,0,196,3,3,1,gain4,no_gain6,D,B,41,6,objects,outdoor_scenes,50,50,Stimuli/Experimental_stims/objects/insung-yoon-w2JtIQQXoRU-unsplash.jpg,Stimuli/Experimental_stims/outdoor_scenes/meng-ji-8BH_M-53CyA-unsplash.jpg,1,NaN,,NaN,unchosen,NaN,NaN,NaN,NaN,2400,0,3,3
196,29646,0,197,3,3,1,gain1,no_gain1,K,G,44,43,objects,objects,50,50,Stimuli/Experimental_stims/objects/kuiye-chen-NuOGFo4PudE-unsplash.jpg,Stimuli/Experimental_stims/objects/jonathan-greenaway-Y4hGgeiFn3s-unsplash.jpg,1,NaN,,NaN,chosen,NaN,NaN,NaN,NaN,2400,0,3,3
197,29646,0,198,3,3,0,no_gain3,gain2,I,J,33,36,body_parts,objects,50,50,Stimuli/Experimental_stims/body_parts/tucker-good-36skLT5jZcc-unsplash.jpg,Stimuli/Experimental_stims/objects/alexander-andrews-JYGnB9gTCls-unsplash.jpg,1,NaN,,NaN,unchosen,NaN,NaN,NaN,NaN,2200,0,3,3
198,29646,0,199,3,3,1,gain1,no_gain2,K,F,44,18,objects,faces,50,50,Stimuli/Experimental_stims/objects/kuiye-chen-NuOGFo4PudE-unsplash.jpg,Stimuli/Experimental_stims/faces/jessica-radanavong-mrYkTuAesKE-unsplash.jpg,0,0,375,0,chosen,18,44,faces,objects,2800,0,3,3
199,29646,0,200,3,3,0,no_gain2,gain3,F,H,27,22,body_parts,faces,50,50,Stimuli/Experimental_stims/body_parts/heike-mintel-i_Gns0ELnLw-unsplash.jpg,Stimuli/Experimental_stims/faces/ravi-patel-VMGAbeeJTKo-unsplash.jpg,0,1,873,0,unchosen,27,22,body_parts,faces,1700,0,3,3
200,29646,0,201,3,3,0,no_gain1,gain6,G,E,9,30,outdoor_scenes,body_parts,50,50,Stimuli/Experimental_stims/outdoor_scenes/sergey-pesterev-y-b_FOmJXdg-unsplash.jpg,Stimuli/Experimental_stims/body_parts/mika-korhonen-Xodzxosar18-unsplash.jpg,0,1,374,0,unchosen,9,30,outdoor_scenes,body_parts,1100,0,3,3
201,29646,0,202,3,3,0,no_gain4,gain3,A,H,45,1,objects,outdoor_scenes,50,50,Stimuli/Experimental_stims/objects/leohoho-rngTKHXumy0-unsplash.jpg,Stimuli/Experimental_stims/outdoor_scenes/ashim-d-silva-S2Q5mdOrrVc-unsplash.jpg,0,1,229,0,chosen,45,1,objects,outdoor_scenes,1200,0,3,3
202,29646,0,203,3,3,0,no_gain3,gain5,I,L,33,14,body_parts,faces,50,50,Stimuli/Experimental_stims/body_parts/tucker-good-36skLT5jZcc-unsplash.jpg,Stimuli/Experimental_stims/faces/david-siglin-UuW4psOb388-unsplash.jpg,0,1,127,0,unchosen,33,14,body_parts,faces,2700,0,3,3
203,29646,0,204,3,3,0,no_gain1,gain1,G,K,9,29,outdoor_scenes,body_parts,50,50,Stimuli/Experimental_stims/outdoor_scenes/sergey-pesterev-y-b_FOmJXdg-unsplash.jpg,Stimuli/Experimental_stims/body_parts/manuel-schinner-ZwjFuJ7ebpk-unsplash.jpg,0,1,374,0,unchosen,9,29,outdoor_scenes,body_parts,1100,0,3,3
204,29646,0,205,3,3,1,gain5,no_gain5,L,C,32,10,body_parts,outdoor_scenes,50,50,Stimuli/Experimental_stims/body_parts/towfiqu-barbhuiya-3AsiVDsZnHg-unsplash.jpg,Stimuli/Experimental_stims/outdoor_scenes/shannon-kunkle-dM8INmkyDas-unsplash.jpg,0,1,975,1,chosen,32,10,body_parts,outdoor_scenes,1100,0,3,3
205,29646,0,206,3,3,0,no_gain4,gain6,A,E,45,46,objects,objects,50,50,Stimuli/Experimental_stims/objects/leohoho-rngTKHXumy0-unsplash.jpg,Stimuli/Experimental_stims/objects/mockup-graphics-PNsj6RiHAF4-unsplash.jpg,0,1,45,0,chosen,45,46,objects,objects,1500,0,3,3
206,29646,0,207,3,3,0,no_gain5,gain3,C,H,26,22,body_parts,faces,50,50,Stimuli/Experimental_stims/body_parts/engin-akyurt-x_3gyC42btc-unsplash.jpg,Stimuli/Experimental_stims/faces/ravi-patel-VMGAbeeJTKo-unsplash.jpg,0,1,196,0,unchosen,26,22,body_parts,faces,1600,0,3,3
207,29646,0,208,3,3,0,no_gain1,gain5,G,L,43,32,objects,body_parts,50,50,Stimuli/Experimental_stims/objects/jonathan-greenaway-Y4hGgeiFn3s-unsplash.jpg,Stimuli/Experimental_stims/body_parts/towfiqu-barbhuiya-3AsiVDsZnHg-unsplash.jpg,0,1,162,0,chosen,43,32,objects,body_parts,1500,0,3,3
208,29646,0,209,3,3,1,gain1,no_gain3,K,I,44,4,objects,outdoor_scenes,50,50,Stimuli/Experimental_stims/objects/kuiye-chen-NuOGFo4PudE-unsplash.jpg,Stimuli/Experimental_stims/outdoor_scenes/jarrett-kow-1ZOyYPOBn7I-unsplash.jpg,0,1,1044,1,chosen,44,4,objects,outdoor_scenes,2800,0,3,3
209,29646,0,210,3,3,1,gain6,no_gain3,E,I,46,4,objects,outdoor_scenes,50,50,Stimuli/Experimental_stims/objects/mockup-graphics-PNsj6RiHAF4-unsplash.jpg,Stimuli/Experimental_stims/outdoor_scenes/jarrett-kow-1ZOyYPOBn7I-unsplash.jpg,0,1,1364,1,chosen,46,4,objects,outdoor_scenes,3400,1,3,3
210,29646,0,211,3,3,1,gain2,no_gain4,J,A,36,5,objects,outdoor_scenes,50,50,Stimuli/Experimental_stims/objects/alexander-andrews-JYGnB9gTCls-unsplash.jpg,Stimuli/Experimental_stims/outdoor_scenes/jeff-king-bJHWJeiHfHc-unsplash.jpg,0,1,411,1,unchosen,36,5,objects,outdoor_scenes,1500,0,3,3
211,29646,0,212,3,3,1,gain2,no_gain2,J,F,36,27,objects,body_parts,50,50,Stimuli/Experimental_stims/objects/alexander-andrews-JYGnB9gTCls-unsplash.jpg,Stimuli/Experimental_stims/body_parts/heike-mintel-i_Gns0ELnLw-unsplash.jpg,0,1,530,1,unchosen,36,27,objects,body_parts,1500,0,3,3
212,29646,0,213,3,3,1,gain6,no_gain1,E,G,46,43,objects,objects,50,50,Stimuli/Experimental_stims/objects/mockup-graphics-PNsj6RiHAF4-unsplash.jpg,Stimuli/Experimental_stims/objects/jonathan-greenaway-Y4hGgeiFn3s-unsplash.jpg,0,1,656,1,chosen,46,43,objects,objects,1500,0,3,3
213,29646,0,214,3,3,0,no_gain5,gain2,C,J,26,36,body_parts,objects,50,50,Stimuli/Experimental_stims/body_parts/engin-akyurt-x_3gyC42btc-unsplash.jpg,Stimuli/Experimental_stims/objects/alexander-andrews-JYGnB9gTCls-unsplash.jpg,0,1,374,0,unchosen,26,36,body_parts,objects,1200,0,3,3
214,29646,0,215,3,3,0,no_gain4,gain5,A,L,45,32,objects,body_parts,50,50,Stimuli/Experimental_stims/objects/leohoho-rngTKHXumy0-unsplash.jpg,Stimuli/Experimental_stims/body_parts/towfiqu-barbhuiya-3AsiVDsZnHg-unsplash.jpg,0,1,539,0,chosen,45,32,objects,body_parts,1900,0,3,3
215,29646,0,216,3,3,1,gain6,no_gain4,E,A,30,5,body_parts,outdoor_scenes,50,50,Stimuli/Experimental_stims/body_parts/mika-korhonen-Xodzxosar18-unsplash.jpg,Stimuli/Experimental_stims/outdoor_scenes/jeff-king-bJHWJeiHfHc-unsplash.jpg,0,1,854,1,unchosen,30,5,body_parts,outdoor_scenes,3600,1,3,3
216,29646,0,217,3,3,0,no_gain2,gain5,F,L,27,14,body_parts,faces,50,50,Stimuli/Experimental_stims/body_parts/heike-mintel-i_Gns0ELnLw-unsplash.jpg,Stimuli/Experimental_stims/faces/david-siglin-UuW4psOb388-unsplash.jpg,1,NaN,,NaN,unchosen,NaN,NaN,NaN,NaN,2500,0,3,3
217,29646,0,218,3,3,0,no_gain4,gain2,A,J,45,21,objects,faces,50,50,Stimuli/Experimental_stims/objects/leohoho-rngTKHXumy0-unsplash.jpg,Stimuli/Experimental_stims/faces/leilani-angel-K84vnnzxmTQ-unsplash.jpg,0,1,170,0,chosen,45,21,objects,faces,1600,0,3,3
218,29646,0,219,3,3,1,gain6,no_gain3,E,I,30,33,body_parts,body_parts,50,50,Stimuli/Experimental_stims/body_parts/mika-korhonen-Xodzxosar18-unsplash.jpg,Stimuli/Experimental_stims/body_parts/tucker-good-36skLT5jZcc-unsplash.jpg,0,1,750,1,unchosen,30,33,body_parts,body_parts,1200,0,3,3
219,29646,0,220,3,3,0,no_gain1,gain5,G,L,9,14,outdoor_scenes,faces,50,50,Stimuli/Experimental_stims/outdoor_scenes/sergey-pesterev-y-b_FOmJXdg-unsplash.jpg,Stimuli/Experimental_stims/faces/david-siglin-UuW4psOb388-unsplash.jpg,0,1,590,0,unchosen,9,14,outdoor_scenes,faces,1300,0,3,3
220,29646,0,221,4,4,0,no_gain6,gain5,B,L,6,14,outdoor_scenes,faces,50,50,Stimuli/Experimental_stims/outdoor_scenes/meng-ji-8BH_M-53CyA-unsplash.jpg,Stimuli/Experimental_stims/faces/david-siglin-UuW4psOb388-unsplash.jpg,0,1,1110,0,unchosen,6,14,outdoor_scenes,faces,3300,1,1,3
221,29646,0,222,4,4,0,no_gain4,gain5,A,L,5,14,outdoor_scenes,faces,50,50,Stimuli/Experimental_stims/outdoor_scenes/jeff-king-bJHWJeiHfHc-unsplash.jpg,Stimuli/Experimental_stims/faces/david-siglin-UuW4psOb388-unsplash.jpg,0,1,445,0,unchosen,5,14,outdoor_scenes,faces,1400,0,1,3
222,29646,0,223,4,4,1,gain5,no_gain5,L,C,32,10,body_parts,outdoor_scenes,50,50,Stimuli/Experimental_stims/body_parts/towfiqu-barbhuiya-3AsiVDsZnHg-unsplash.jpg,Stimuli/Experimental_stims/outdoor_scenes/shannon-kunkle-dM8INmkyDas-unsplash.jpg,0,1,24,1,chosen,32,10,body_parts,outdoor_scenes,2400,0,1,3
223,29646,0,224,4,4,0,no_gain3,gain4,I,D,4,15,outdoor_scenes,faces,50,50,Stimuli/Experimental_stims/outdoor_scenes/jarrett-kow-1ZOyYPOBn7I-unsplash.jpg,Stimuli/Experimental_stims/faces/erik-lucatero-d2MSDujJl2g-unsplash.jpg,0,1,255,0,chosen,4,15,outdoor_scenes,faces,1200,0,1,3
224,29646,0,225,4,4,1,gain4,no_gain1,D,G,41,9,objects,outdoor_scenes,50,50,Stimuli/Experimental_stims/objects/insung-yoon-w2JtIQQXoRU-unsplash.jpg,Stimuli/Experimental_stims/outdoor_scenes/sergey-pesterev-y-b_FOmJXdg-unsplash.jpg,0,1,180,1,unchosen,41,9,objects,outdoor_scenes,1100,0,1,3
225,29646,0,226,4,4,0,no_gain1,gain1,G,K,9,29,outdoor_scenes,body_parts,50,50,Stimuli/Experimental_stims/outdoor_scenes/sergey-pesterev-y-b_FOmJXdg-unsplash.jpg,Stimuli/Experimental_stims/body_parts/manuel-schinner-ZwjFuJ7ebpk-unsplash.jpg,0,1,359,0,unchosen,9,29,outdoor_scenes,body_parts,1600,0,1,3
226,29646,0,227,4,4,1,gain6,no_gain3,E,I,30,33,body_parts,body_parts,50,50,Stimuli/Experimental_stims/body_parts/mika-korhonen-Xodzxosar18-unsplash.jpg,Stimuli/Experimental_stims/body_parts/tucker-good-36skLT5jZcc-unsplash.jpg,0,1,203,1,unchosen,30,33,body_parts,body_parts,3100,1,1,3
227,29646,0,228,4,4,0,no_gain2,gain4,F,D,18,15,faces,faces,50,50,Stimuli/Experimental_stims/faces/jessica-radanavong-mrYkTuAesKE-unsplash.jpg,Stimuli/Experimental_stims/faces/erik-lucatero-d2MSDujJl2g-unsplash.jpg,0,1,605,0,chosen,18,15,faces,faces,1000,0,1,3
228,29646,0,229,4,4,1,gain6,no_gain5,E,C,46,10,objects,outdoor_scenes,50,50,Stimuli/Experimental_stims/objects/mockup-graphics-PNsj6RiHAF4-unsplash.jpg,Stimuli/Experimental_stims/outdoor_scenes/shannon-kunkle-dM8INmkyDas-unsplash.jpg,0,1,367,1,chosen,46,10,objects,outdoor_scenes,3000,0,1,3
229,29646,0,230,4,4,0,no_gain4,gain5,A,L,45,32,objects,body_parts,50,50,Stimuli/Experimental_stims/objects/leohoho-rngTKHXumy0-unsplash.jpg,Stimuli/Experimental_stims/body_parts/towfiqu-barbhuiya-3AsiVDsZnHg-unsplash.jpg,0,1,1126,0,chosen,45,32,objects,body_parts,1700,0,1,3
230,29646,0,231,4,4,1,gain1,no_gain4,K,A,29,5,body_parts,outdoor_scenes,50,50,Stimuli/Experimental_stims/body_parts/manuel-schinner-ZwjFuJ7ebpk-unsplash.jpg,Stimuli/Experimental_stims/outdoor_scenes/jeff-king-bJHWJeiHfHc-unsplash.jpg,0,1,425,1,unchosen,29,5,body_parts,outdoor_scenes,2400,0,1,3
231,29646,0,232,4,4,0,no_gain6,gain2,B,J,19,21,faces,faces,50,50,Stimuli/Experimental_stims/faces/joel-mott-LaK153ghdig-unsplash.jpg,Stimuli/Experimental_stims/faces/leilani-angel-K84vnnzxmTQ-unsplash.jpg,0,1,527,0,chosen,19,21,faces,faces,4000,1,1,3
232,29646,0,233,4,4,0,no_gain6,gain1,B,K,6,29,outdoor_scenes,body_parts,50,50,Stimuli/Experimental_stims/outdoor_scenes/meng-ji-8BH_M-53CyA-unsplash.jpg,Stimuli/Experimental_stims/body_parts/manuel-schinner-ZwjFuJ7ebpk-unsplash.jpg,0,1,341,0,unchosen,6,29,outdoor_scenes,body_parts,1900,0,1,3
233,29646,0,234,4,4,1,gain3,no_gain4,H,A,1,45,outdoor_scenes,objects,50,50,Stimuli/Experimental_stims/outdoor_scenes/ashim-d-silva-S2Q5mdOrrVc-unsplash.jpg,Stimuli/Experimental_stims/objects/leohoho-rngTKHXumy0-unsplash.jpg,0,1,579,1,chosen,1,45,outdoor_scenes,objects,1100,0,1,3
234,29646,0,235,4,4,1,gain5,no_gain1,L,G,14,9,faces,outdoor_scenes,50,50,Stimuli/Experimental_stims/faces/david-siglin-UuW4psOb388-unsplash.jpg,Stimuli/Experimental_stims/outdoor_scenes/sergey-pesterev-y-b_FOmJXdg-unsplash.jpg,0,1,483,1,unchosen,14,9,faces,outdoor_scenes,1300,0,1,3
235,29646,0,236,4,4,0,no_gain4,gain4,A,D,45,15,objects,faces,50,50,Stimuli/Experimental_stims/objects/leohoho-rngTKHXumy0-unsplash.jpg,Stimuli/Experimental_stims/faces/erik-lucatero-d2MSDujJl2g-unsplash.jpg,0,1,62,0,chosen,45,15,objects,faces,1900,0,1,3
236,29646,0,237,4,4,1,gain4,no_gain4,D,A,41,5,objects,outdoor_scenes,50,50,Stimuli/Experimental_stims/objects/insung-yoon-w2JtIQQXoRU-unsplash.jpg,Stimuli/Experimental_stims/outdoor_scenes/jeff-king-bJHWJeiHfHc-unsplash.jpg,0,1,739,1,unchosen,41,5,objects,outdoor_scenes,1800,0,1,3
237,29646,0,238,4,4,1,gain4,no_gain5,D,C,41,26,objects,body_parts,50,50,Stimuli/Experimental_stims/objects/insung-yoon-w2JtIQQXoRU-unsplash.jpg,Stimuli/Experimental_stims/body_parts/engin-akyurt-x_3gyC42btc-unsplash.jpg,0,1,295,1,unchosen,41,26,objects,body_parts,4300,1,1,3
238,29646,0,239,4,4,1,gain5,no_gain5,L,C,14,26,faces,body_parts,50,50,Stimuli/Experimental_stims/faces/david-siglin-UuW4psOb388-unsplash.jpg,Stimuli/Experimental_stims/body_parts/engin-akyurt-x_3gyC42btc-unsplash.jpg,0,1,341,1,unchosen,14,26,faces,body_parts,2300,0,1,3
239,29646,0,240,4,4,1,gain3,no_gain2,H,F,1,18,outdoor_scenes,faces,50,50,Stimuli/Experimental_stims/outdoor_scenes/ashim-d-silva-S2Q5mdOrrVc-unsplash.jpg,Stimuli/Experimental_stims/faces/jessica-radanavong-mrYkTuAesKE-unsplash.jpg,0,1,320,1,chosen,1,18,outdoor_scenes,faces,1200,0,1,3
240,29646,0,241,4,4,0,no_gain4,gain2,A,J,45,21,objects,faces,50,50,Stimuli/Experimental_stims/objects/leohoho-rngTKHXumy0-unsplash.jpg,Stimuli/Experimental_stims/faces/leilani-angel-K84vnnzxmTQ-unsplash.jpg,0,1,483,0,chosen,45,21,objects,faces,1300,0,1,3
241,29646,0,242,4,4,0,no_gain3,gain1,I,K,33,29,body_parts,body_parts,50,50,Stimuli/Experimental_stims/body_parts/tucker-good-36skLT5jZcc-unsplash.jpg,Stimuli/Experimental_stims/body_parts/manuel-schinner-ZwjFuJ7ebpk-unsplash.jpg,0,1,312,0,unchosen,33,29,body_parts,body_parts,1900,0,1,3
242,29646,0,243,4,4,1,gain3,no_gain6,H,B,22,6,faces,outdoor_scenes,50,50,Stimuli/Experimental_stims/faces/ravi-patel-VMGAbeeJTKo-unsplash.jpg,Stimuli/Experimental_stims/outdoor_scenes/meng-ji-8BH_M-53CyA-unsplash.jpg,0,1,336,1,unchosen,22,6,faces,outdoor_scenes,1300,0,1,3
243,29646,0,244,4,4,1,gain4,no_gain1,D,G,15,43,faces,objects,50,50,Stimuli/Experimental_stims/faces/erik-lucatero-d2MSDujJl2g-unsplash.jpg,Stimuli/Experimental_stims/objects/jonathan-greenaway-Y4hGgeiFn3s-unsplash.jpg,1,NaN,,NaN,chosen,NaN,NaN,NaN,NaN,4200,1,1,3
244,29646,0,245,4,4,0,no_gain2,gain5,F,L,27,14,body_parts,faces,50,50,Stimuli/Experimental_stims/body_parts/heike-mintel-i_Gns0ELnLw-unsplash.jpg,Stimuli/Experimental_stims/faces/david-siglin-UuW4psOb388-unsplash.jpg,1,NaN,,NaN,unchosen,NaN,NaN,NaN,NaN,2400,0,1,3
245,29646,0,246,4,4,1,gain2,no_gain2,J,F,21,18,faces,faces,50,50,Stimuli/Experimental_stims/faces/leilani-angel-K84vnnzxmTQ-unsplash.jpg,Stimuli/Experimental_stims/faces/jessica-radanavong-mrYkTuAesKE-unsplash.jpg,0,1,141,1,chosen,21,18,faces,faces,1700,0,1,3
246,29646,0,247,4,4,0,no_gain1,gain5,G,L,43,32,objects,body_parts,50,50,Stimuli/Experimental_stims/objects/jonathan-greenaway-Y4hGgeiFn3s-unsplash.jpg,Stimuli/Experimental_stims/body_parts/towfiqu-barbhuiya-3AsiVDsZnHg-unsplash.jpg,0,1,265,0,chosen,43,32,objects,body_parts,1600,0,1,3
247,29646,0,248,4,4,1,gain3,no_gain5,H,C,22,26,faces,body_parts,50,50,Stimuli/Experimental_stims/faces/ravi-patel-VMGAbeeJTKo-unsplash.jpg,Stimuli/Experimental_stims/body_parts/engin-akyurt-x_3gyC42btc-unsplash.jpg,0,1,953,1,unchosen,22,26,faces,body_parts,1100,0,1,3
248,29646,0,249,4,4,0,no_gain2,gain1,F,K,27,29,body_parts,body_parts,50,50,Stimuli/Experimental_stims/body_parts/heike-mintel-i_Gns0ELnLw-unsplash.jpg,Stimuli/Experimental_stims/body_parts/manuel-schinner-ZwjFuJ7ebpk-unsplash.jpg,0,1,43,0,unchosen,27,29,body_parts,body_parts,1200,0,1,3
249,29646,0,250,4,4,1,gain6,no_gain3,E,I,46,4,objects,outdoor_scenes,50,50,Stimuli/Experimental_stims/objects/mockup-graphics-PNsj6RiHAF4-unsplash.jpg,Stimuli/Experimental_stims/outdoor_scenes/jarrett-kow-1ZOyYPOBn7I-unsplash.jpg,0,1,90,1,chosen,46,4,objects,outdoor_scenes,3100,1,1,3
250,29646,0,251,4,4,1,gain3,no_gain6,H,B,1,19,outdoor_scenes,faces,50,50,Stimuli/Experimental_stims/outdoor_scenes/ashim-d-silva-S2Q5mdOrrVc-unsplash.jpg,Stimuli/Experimental_stims/faces/joel-mott-LaK153ghdig-unsplash.jpg,0,1,1171,1,chosen,1,19,outdoor_scenes,faces,2600,0,1,3
251,29646,0,252,4,4,0,no_gain1,gain6,G,E,9,30,outdoor_scenes,body_parts,50,50,Stimuli/Experimental_stims/outdoor_scenes/sergey-pesterev-y-b_FOmJXdg-unsplash.jpg,Stimuli/Experimental_stims/body_parts/mika-korhonen-Xodzxosar18-unsplash.jpg,0,1,22,0,unchosen,9,30,outdoor_scenes,body_parts,2400,0,1,3
252,29646,0,253,4,4,1,gain2,no_gain3,J,I,36,33,objects,body_parts,50,50,Stimuli/Experimental_stims/objects/alexander-andrews-JYGnB9gTCls-unsplash.jpg,Stimuli/Experimental_stims/body_parts/tucker-good-36skLT5jZcc-unsplash.jpg,0,1,476,1,unchosen,36,33,objects,body_parts,1000,0,1,3
253,29646,0,254,4,4,0,no_gain6,gain4,B,D,19,15,faces,faces,50,50,Stimuli/Experimental_stims/faces/joel-mott-LaK153ghdig-unsplash.jpg,Stimuli/Experimental_stims/faces/erik-lucatero-d2MSDujJl2g-unsplash.jpg,1,NaN,,NaN,chosen,NaN,NaN,NaN,NaN,3000,0,1,3
254,29646,0,255,4,4,0,no_gain4,gain1,A,K,45,44,objects,objects,50,50,Stimuli/Experimental_stims/objects/leohoho-rngTKHXumy0-unsplash.jpg,Stimuli/Experimental_stims/objects/kuiye-chen-NuOGFo4PudE-unsplash.jpg,0,1,822,0,chosen,45,44,objects,objects,2400,0,1,3
255,29646,0,256,4,4,0,no_gain2,gain3,F,H,27,22,body_parts,faces,50,50,Stimuli/Experimental_stims/body_parts/heike-mintel-i_Gns0ELnLw-unsplash.jpg,Stimuli/Experimental_stims/faces/ravi-patel-VMGAbeeJTKo-unsplash.jpg,0,1,633,0,unchosen,27,22,body_parts,faces,2300,0,1,3
256,29646,0,257,4,4,1,gain3,no_gain3,H,I,1,4,outdoor_scenes,outdoor_scenes,50,50,Stimuli/Experimental_stims/outdoor_scenes/ashim-d-silva-S2Q5mdOrrVc-unsplash.jpg,Stimuli/Experimental_stims/outdoor_scenes/jarrett-kow-1ZOyYPOBn7I-unsplash.jpg,0,1,942,1,chosen,1,4,outdoor_scenes,outdoor_scenes,1900,0,1,3
257,29646,0,258,4,4,1,gain4,no_gain2,D,F,41,27,objects,body_parts,50,50,Stimuli/Experimental_stims/objects/insung-yoon-w2JtIQQXoRU-unsplash.jpg,Stimuli/Experimental_stims/body_parts/heike-mintel-i_Gns0ELnLw-unsplash.jpg,0,1,627,1,unchosen,41,27,objects,body_parts,3200,1,1,3
258,29646,0,259,4,4,0,no_gain4,gain6,A,E,5,30,outdoor_scenes,body_parts,50,50,Stimuli/Experimental_stims/outdoor_scenes/jeff-king-bJHWJeiHfHc-unsplash.jpg,Stimuli/Experimental_stims/body_parts/mika-korhonen-Xodzxosar18-unsplash.jpg,0,1,724,0,unchosen,5,30,outdoor_scenes,body_parts,1000,0,1,3
259,29646,0,260,4,4,1,gain5,no_gain3,L,I,32,4,body_parts,outdoor_scenes,50,50,Stimuli/Experimental_stims/body_parts/towfiqu-barbhuiya-3AsiVDsZnHg-unsplash.jpg,Stimuli/Experimental_stims/outdoor_scenes/jarrett-kow-1ZOyYPOBn7I-unsplash.jpg,0,1,129,1,chosen,32,4,body_parts,outdoor_scenes,1200,0,1,3
260,29646,0,261,4,4,0,no_gain5,gain4,C,D,10,15,outdoor_scenes,faces,50,50,Stimuli/Experimental_stims/outdoor_scenes/shannon-kunkle-dM8INmkyDas-unsplash.jpg,Stimuli/Experimental_stims/faces/erik-lucatero-d2MSDujJl2g-unsplash.jpg,0,1,739,0,chosen,10,15,outdoor_scenes,faces,2700,0,1,3
261,29646,0,262,4,4,0,no_gain1,gain1,G,K,43,44,objects,objects,50,50,Stimuli/Experimental_stims/objects/jonathan-greenaway-Y4hGgeiFn3s-unsplash.jpg,Stimuli/Experimental_stims/objects/kuiye-chen-NuOGFo4PudE-unsplash.jpg,0,1,349,0,chosen,43,44,objects,objects,1300,0,1,3
262,29646,0,263,4,4,0,no_gain1,gain2,G,J,9,36,outdoor_scenes,objects,50,50,Stimuli/Experimental_stims/outdoor_scenes/sergey-pesterev-y-b_FOmJXdg-unsplash.jpg,Stimuli/Experimental_stims/objects/alexander-andrews-JYGnB9gTCls-unsplash.jpg,0,1,266,0,unchosen,9,36,outdoor_scenes,objects,1500,0,1,3
263,29646,0,264,4,4,1,gain3,no_gain5,H,C,1,10,outdoor_scenes,outdoor_scenes,50,50,Stimuli/Experimental_stims/outdoor_scenes/ashim-d-silva-S2Q5mdOrrVc-unsplash.jpg,Stimuli/Experimental_stims/outdoor_scenes/shannon-kunkle-dM8INmkyDas-unsplash.jpg,0,1,284,1,chosen,1,10,outdoor_scenes,outdoor_scenes,3700,1,1,3
264,29646,0,265,4,4,0,no_gain2,gain5,F,L,18,32,faces,body_parts,50,50,Stimuli/Experimental_stims/faces/jessica-radanavong-mrYkTuAesKE-unsplash.jpg,Stimuli/Experimental_stims/body_parts/towfiqu-barbhuiya-3AsiVDsZnHg-unsplash.jpg,0,1,565,0,chosen,18,32,faces,body_parts,1000,0,1,3
265,29646,0,266,4,4,1,gain4,no_gain6,D,B,41,6,objects,outdoor_scenes,50,50,Stimuli/Experimental_stims/objects/insung-yoon-w2JtIQQXoRU-unsplash.jpg,Stimuli/Experimental_stims/outdoor_scenes/meng-ji-8BH_M-53CyA-unsplash.jpg,0,1,214,1,unchosen,41,6,objects,outdoor_scenes,1700,0,1,3
266,29646,0,267,4,4,1,gain4,no_gain3,D,I,41,33,objects,body_parts,50,50,Stimuli/Experimental_stims/objects/insung-yoon-w2JtIQQXoRU-unsplash.jpg,Stimuli/Experimental_stims/body_parts/tucker-good-36skLT5jZcc-unsplash.jpg,0,1,102,1,unchosen,41,33,objects,body_parts,1100,0,1,3
267,29646,0,268,4,4,0,no_gain4,gain3,A,H,5,22,outdoor_scenes,faces,50,50,Stimuli/Experimental_stims/outdoor_scenes/jeff-king-bJHWJeiHfHc-unsplash.jpg,Stimuli/Experimental_stims/faces/ravi-patel-VMGAbeeJTKo-unsplash.jpg,0,1,779,0,unchosen,5,22,outdoor_scenes,faces,1200,0,1,3
268,29646,0,269,4,4,1,gain5,no_gain6,L,B,32,19,body_parts,faces,50,50,Stimuli/Experimental_stims/body_parts/towfiqu-barbhuiya-3AsiVDsZnHg-unsplash.jpg,Stimuli/Experimental_stims/faces/joel-mott-LaK153ghdig-unsplash.jpg,0,1,353,1,chosen,32,19,body_parts,faces,1300,0,1,3
269,29646,0,270,4,4,1,gain6,no_gain1,E,G,46,43,objects,objects,50,50,Stimuli/Experimental_stims/objects/mockup-graphics-PNsj6RiHAF4-unsplash.jpg,Stimuli/Experimental_stims/objects/jonathan-greenaway-Y4hGgeiFn3s-unsplash.jpg,0,1,725,1,chosen,46,43,objects,objects,1700,0,1,3
270,29646,0,271,4,4,1,gain2,no_gain2,J,F,36,27,objects,body_parts,50,50,Stimuli/Experimental_stims/objects/alexander-andrews-JYGnB9gTCls-unsplash.jpg,Stimuli/Experimental_stims/body_parts/heike-mintel-i_Gns0ELnLw-unsplash.jpg,0,1,853,1,unchosen,36,27,objects,body_parts,3400,1,1,3
271,29646,0,272,4,4,0,no_gain5,gain6,C,E,26,30,body_parts,body_parts,50,50,Stimuli/Experimental_stims/body_parts/engin-akyurt-x_3gyC42btc-unsplash.jpg,Stimuli/Experimental_stims/body_parts/mika-korhonen-Xodzxosar18-unsplash.jpg,0,1,137,0,unchosen,26,30,body_parts,body_parts,2500,0,1,3
272,29646,0,273,4,4,1,gain2,no_gain1,J,G,21,43,faces,objects,50,50,Stimuli/Experimental_stims/faces/leilani-angel-K84vnnzxmTQ-unsplash.jpg,Stimuli/Experimental_stims/objects/jonathan-greenaway-Y4hGgeiFn3s-unsplash.jpg,0,1,68,1,chosen,21,43,faces,objects,2600,0,1,3
273,29646,0,274,4,4,1,gain2,no_gain6,J,B,36,6,objects,outdoor_scenes,50,50,Stimuli/Experimental_stims/objects/alexander-andrews-JYGnB9gTCls-unsplash.jpg,Stimuli/Experimental_stims/outdoor_scenes/meng-ji-8BH_M-53CyA-unsplash.jpg,0,1,0,1,unchosen,36,6,objects,outdoor_scenes,2000,0,1,3
274,29646,0,275,4,4,0,no_gain1,gain3,G,H,43,1,objects,outdoor_scenes,50,50,Stimuli/Experimental_stims/objects/jonathan-greenaway-Y4hGgeiFn3s-unsplash.jpg,Stimuli/Experimental_stims/outdoor_scenes/ashim-d-silva-S2Q5mdOrrVc-unsplash.jpg,0,1,105,0,chosen,43,1,objects,outdoor_scenes,1900,0,1,3
275,29646,0,276,4,4,0,no_gain2,gain6,F,E,27,30,body_parts,body_parts,50,50,Stimuli/Experimental_stims/body_parts/heike-mintel-i_Gns0ELnLw-unsplash.jpg,Stimuli/Experimental_stims/body_parts/mika-korhonen-Xodzxosar18-unsplash.jpg,0,1,397,0,unchosen,27,30,body_parts,body_parts,1500,0,1,3
276,29646,0,277,4,4,1,gain2,no_gain5,J,C,36,26,objects,body_parts,50,50,Stimuli/Experimental_stims/objects/alexander-andrews-JYGnB9gTCls-unsplash.jpg,Stimuli/Experimental_stims/body_parts/engin-akyurt-x_3gyC42btc-unsplash.jpg,0,1,149,1,unchosen,36,26,objects,body_parts,2500,0,1,3
277,29646,0,278,4,4,0,no_gain6,gain6,B,E,19,46,faces,objects,50,50,Stimuli/Experimental_stims/faces/joel-mott-LaK153ghdig-unsplash.jpg,Stimuli/Experimental_stims/objects/mockup-graphics-PNsj6RiHAF4-unsplash.jpg,0,1,221,0,chosen,19,46,faces,objects,1400,0,1,3
278,29646,0,279,4,4,0,no_gain3,gain2,I,J,4,21,outdoor_scenes,faces,50,50,Stimuli/Experimental_stims/outdoor_scenes/jarrett-kow-1ZOyYPOBn7I-unsplash.jpg,Stimuli/Experimental_stims/faces/leilani-angel-K84vnnzxmTQ-unsplash.jpg,0,1,378,0,chosen,4,21,outdoor_scenes,faces,1300,0,1,3
279,29646,0,280,4,4,1,gain6,no_gain6,E,B,30,6,body_parts,outdoor_scenes,50,50,Stimuli/Experimental_stims/body_parts/mika-korhonen-Xodzxosar18-unsplash.jpg,Stimuli/Experimental_stims/outdoor_scenes/meng-ji-8BH_M-53CyA-unsplash.jpg,1,NaN,,NaN,unchosen,NaN,NaN,NaN,NaN,1100,0,1,3
280,29646,0,281,4,4,1,gain6,no_gain2,E,F,46,18,objects,faces,50,50,Stimuli/Experimental_stims/objects/mockup-graphics-PNsj6RiHAF4-unsplash.jpg,Stimuli/Experimental_stims/faces/jessica-radanavong-mrYkTuAesKE-unsplash.jpg,1,NaN,,NaN,chosen,NaN,NaN,NaN,NaN,1100,0,1,3
281,29646,0,282,4,4,1,gain2,no_gain5,J,C,21,10,faces,outdoor_scenes,50,50,Stimuli/Experimental_stims/faces/leilani-angel-K84vnnzxmTQ-unsplash.jpg,Stimuli/Experimental_stims/outdoor_scenes/shannon-kunkle-dM8INmkyDas-unsplash.jpg,1,NaN,,NaN,chosen,NaN,NaN,NaN,NaN,3900,1,1,3
282,29646,0,283,4,4,1,gain2,no_gain4,J,A,36,5,objects,outdoor_scenes,50,50,Stimuli/Experimental_stims/objects/alexander-andrews-JYGnB9gTCls-unsplash.jpg,Stimuli/Experimental_stims/outdoor_scenes/jeff-king-bJHWJeiHfHc-unsplash.jpg,1,NaN,,NaN,unchosen,NaN,NaN,NaN,NaN,1200,0,1,3
283,29646,0,284,4,4,0,no_gain4,gain6,A,E,45,46,objects,objects,50,50,Stimuli/Experimental_stims/objects/leohoho-rngTKHXumy0-unsplash.jpg,Stimuli/Experimental_stims/objects/mockup-graphics-PNsj6RiHAF4-unsplash.jpg,1,NaN,,NaN,chosen,NaN,NaN,NaN,NaN,1800,0,1,3
284,29646,0,285,4,4,0,no_gain1,gain3,G,H,9,22,outdoor_scenes,faces,50,50,Stimuli/Experimental_stims/outdoor_scenes/sergey-pesterev-y-b_FOmJXdg-unsplash.jpg,Stimuli/Experimental_stims/faces/ravi-patel-VMGAbeeJTKo-unsplash.jpg,1,NaN,,NaN,unchosen,NaN,NaN,NaN,NaN,1900,0,1,3
285,29646,0,286,4,4,1,gain1,no_gain3,K,I,44,4,objects,outdoor_scenes,50,50,Stimuli/Experimental_stims/objects/kuiye-chen-NuOGFo4PudE-unsplash.jpg,Stimuli/Experimental_stims/outdoor_scenes/jarrett-kow-1ZOyYPOBn7I-unsplash.jpg,1,NaN,,NaN,chosen,NaN,NaN,NaN,NaN,1100,0,1,3
286,29646,0,287,4,4,0,no_gain3,gain3,I,H,33,22,body_parts,faces,50,50,Stimuli/Experimental_stims/body_parts/tucker-good-36skLT5jZcc-unsplash.jpg,Stimuli/Experimental_stims/faces/ravi-patel-VMGAbeeJTKo-unsplash.jpg,1,NaN,,NaN,unchosen,NaN,NaN,NaN,NaN,3000,0,1,3
287,29646,0,288,4,4,0,no_gain5,gain1,C,K,26,29,body_parts,body_parts,50,50,Stimuli/Experimental_stims/body_parts/engin-akyurt-x_3gyC42btc-unsplash.jpg,Stimuli/Experimental_stims/body_parts/manuel-schinner-ZwjFuJ7ebpk-unsplash.jpg,1,NaN,,NaN,unchosen,NaN,NaN,NaN,NaN,2800,0,1,3
288,29646,0,289,4,4,0,no_gain3,gain5,I,L,33,14,body_parts,faces,50,50,Stimuli/Experimental_stims/body_parts/tucker-good-36skLT5jZcc-unsplash.jpg,Stimuli/Experimental_stims/faces/david-siglin-UuW4psOb388-unsplash.jpg,1,NaN,,NaN,unchosen,NaN,NaN,NaN,NaN,1600,0,1,3
289,29646,0,290,4,4,0,no_gain6,gain1,B,K,19,44,faces,objects,50,50,Stimuli/Experimental_stims/faces/joel-mott-LaK153ghdig-unsplash.jpg,Stimuli/Experimental_stims/objects/kuiye-chen-NuOGFo4PudE-unsplash.jpg,1,NaN,,NaN,chosen,NaN,NaN,NaN,NaN,1800,0,1,3
290,29646,0,291,4,4,0,no_gain2,gain1,F,K,18,44,faces,objects,50,50,Stimuli/Experimental_stims/faces/jessica-radanavong-mrYkTuAesKE-unsplash.jpg,Stimuli/Experimental_stims/objects/kuiye-chen-NuOGFo4PudE-unsplash.jpg,1,NaN,,NaN,chosen,NaN,NaN,NaN,NaN,1900,0,1,3
291,29646,0,292,4,4,1,gain1,no_gain5,K,C,44,10,objects,outdoor_scenes,50,50,Stimuli/Experimental_stims/objects/kuiye-chen-NuOGFo4PudE-unsplash.jpg,Stimuli/Experimental_stims/outdoor_scenes/shannon-kunkle-dM8INmkyDas-unsplash.jpg,1,NaN,,NaN,chosen,NaN,NaN,NaN,NaN,1700,0,1,3