,PID,practice,trial,block,run,gain_left,left_item_id,right_item_id,left_pair_id,right_pair_id,left_stimulus,right_stimulus,left_category,left_rating,right_rating,right_category,left_path,right_path,no_response,left_chosen,rt,higher_outcome_chosen,choice_type,chosen_stimulus,unchosen_stimulus,chosen_category,unchosen_category,iti,long_iti,simulation,version
0,76661,1,1,0,0,0,,,,,,,,,,,Stimuli/Practice_stims/Final_decisions/debby-hudson-FmCSSSGge-0-unsplash.jpg,Stimuli/Practice_stims/Final_decisions/yassine-khalfalli-adsQ9d_Cx0c-unsplash.jpg,0,1,766,0,,,,,,3000,0,7,2
1,76661,1,2,0,0,0,,,,,,,,,,,Stimuli/Practice_stims/Final_decisions/florian-wehde-iVW7mZPwd4g-unsplash.jpg,Stimuli/Practice_stims/Final_decisions/patrick-perkins-3wylDrjxH-E-unsplash.jpg,0,1,1156,0,,,,,,1500,0,7,2
2,76661,1,3,0,0,0,,,,,,,,,,,Stimuli/Practice_stims/Final_decisions/debby-hudson-FmCSSSGge-0-unsplash.jpg,Stimuli/Practice_stims/Final_decisions/florian-wehde-iVW7mZPwd4g-unsplash.jpg,0,1,1042,0,,,,,,2000,0,7,2
3,76661,1,4,0,0,0,,,,,,,,,,,Stimuli/Practice_stims/Final_decisions/yassine-khalfalli-adsQ9d_Cx0c-unsplash.jpg,Stimuli/Practice_stims/Final_decisions/debby-hudson-FmCSSSGge-0-unsplash.jpg,0,0,744,1,,,,,,1000,0,7,2
4,76661,0,5,1,1,1,gain2,no_gain3,K,B,36,2,objects,77,77,outdoor_scenes,Stimuli/Experimental_stims/objects/alexander-andrews-JYGnB9gTCls-unsplash.jpg,Stimuli/Experimental_stims/outdoor_scenes/bruno-van-der-kraan-qez8mNJ3ilU-unsplash.jpg,0,1,1348,1,unchosen,36,2,objects,outdoor_scenes,4100,1,7,2
5,76661,0,6,1,1,1,gain3,no_gain5,D,H,13,3,faces,71,82,outdoor_scenes,Stimuli/Experimental_stims/faces/daniel-rigdon-dXmXKPP2L4E-unsplash.jpg,Stimuli/Experimental_stims/outdoor_scenes/henry-be-NLF6hTe4PAg-unsplash.jpg,0,1,1140,1,chosen,13,3,faces,outdoor_scenes,1200,0,7,2
6,76661,0,7,1,1,1,gain1,no_gain3,J,B,45,16,objects,75,76,faces,Stimuli/Experimental_stims/objects/leohoho-rngTKHXumy0-unsplash.jpg,Stimuli/Experimental_stims/faces/freddy-kearney-o-ioeoATbIM-unsplash.jpg,0,0,1044,0,chosen,16,45,faces,objects,2600,0,7,2
7,76661,0,8,1,1,1,gain2,no_gain4,K,I,33,29,body_parts,77,70,body_parts,Stimuli/Experimental_stims/body_parts/tucker-good-36skLT5jZcc-unsplash.jpg,Stimuli/Experimental_stims/body_parts/manuel-schinner-ZwjFuJ7ebpk-unsplash.jpg,0,1,969,1,chosen,33,29,body_parts,body_parts,2000,0,7,2
8,76661,0,9,1,1,0,no_gain5,gain1,H,J,14,21,faces,74,78,faces,Stimuli/Experimental_stims/faces/david-siglin-UuW4psOb388-unsplash.jpg,Stimuli/Experimental_stims/faces/leilani-angel-K84vnnzxmTQ-unsplash.jpg,0,0,991,1,unchosen,21,14,faces,faces,1200,0,7,2
9,76661,0,10,1,1,0,no_gain4,gain3,I,D,29,13,body_parts,70,71,faces,Stimuli/Experimental_stims/body_parts/manuel-schinner-ZwjFuJ7ebpk-unsplash.jpg,Stimuli/Experimental_stims/faces/daniel-rigdon-dXmXKPP2L4E-unsplash.jpg,0,0,1253,1,chosen,13,29,faces,body_parts,3200,1,7,2
10,76661,0,11,1,1,0,no_gain1,gain3,F,D,23,13,faces,79,71,faces,Stimuli/Experimental_stims/faces/rikonavt-HQjfrvdTfak-unsplash.jpg,Stimuli/Experimental_stims/faces/daniel-rigdon-dXmXKPP2L4E-unsplash.jpg,0,1,1138,0,chosen,23,13,faces,faces,1200,0,7,2
11,76661,0,12,1,1,0,no_gain2,gain1,E,J,41,45,objects,76,75,objects,Stimuli/Experimental_stims/objects/insung-yoon-w2JtIQQXoRU-unsplash.jpg,Stimuli/Experimental_stims/objects/leohoho-rngTKHXumy0-unsplash.jpg,0,0,889,1,chosen,45,41,objects,objects,1800,0,7,2
12,76661,0,13,1,1,1,gain2,no_gain1,K,F,36,34,objects,77,30,body_parts,Stimuli/Experimental_stims/objects/alexander-andrews-JYGnB9gTCls-unsplash.jpg,Stimuli/Experimental_stims/body_parts/wagner-santos-mBWMvIuVnso-unsplash.jpg,0,1,830,1,unchosen,36,34,objects,body_parts,1600,0,7,2
13,76661,0,14,1,1,0,no_gain6,gain6,A,C,46,11,objects,50,73,outdoor_scenes,Stimuli/Experimental_stims/objects/mockup-graphics-PNsj6RiHAF4-unsplash.jpg,Stimuli/Experimental_stims/outdoor_scenes/stephen-leonardi-gyIRjKPXupE-unsplash.jpg,0,0,1037,1,unchosen,11,46,outdoor_scenes,objects,1300,0,7,2
14,76661,0,15,1,1,0,no_gain1,gain5,F,L,34,35,body_parts,30,87,body_parts,Stimuli/Experimental_stims/body_parts/wagner-santos-mBWMvIuVnso-unsplash.jpg,Stimuli/Experimental_stims/body_parts/wc-so-KH4AAPjb-tI-unsplash.jpg,0,0,1328,1,unchosen,35,34,body_parts,body_parts,1900,0,7,2
15,76661,0,16,1,1,0,no_gain3,gain2,B,K,16,33,faces,76,77,body_parts,Stimuli/Experimental_stims/faces/freddy-kearney-o-ioeoATbIM-unsplash.jpg,Stimuli/Experimental_stims/body_parts/tucker-good-36skLT5jZcc-unsplash.jpg,0,1,1292,0,chosen,16,33,faces,body_parts,4100,1,7,2
16,76661,0,17,1,1,1,gain4,no_gain2,G,E,44,32,objects,73,82,body_parts,Stimuli/Experimental_stims/objects/kuiye-chen-NuOGFo4PudE-unsplash.jpg,Stimuli/Experimental_stims/body_parts/towfiqu-barbhuiya-3AsiVDsZnHg-unsplash.jpg,0,1,1132,1,unchosen,44,32,objects,body_parts,1100,0,7,2
17,76661,0,18,1,1,1,gain6,no_gain2,C,E,26,41,body_parts,77,76,objects,Stimuli/Experimental_stims/body_parts/engin-akyurt-x_3gyC42btc-unsplash.jpg,Stimuli/Experimental_stims/objects/insung-yoon-w2JtIQQXoRU-unsplash.jpg,0,1,1355,1,chosen,26,41,body_parts,objects,1200,0,7,2
18,76661,0,19,1,1,1,gain5,no_gain4,L,I,35,4,body_parts,87,73,outdoor_scenes,Stimuli/Experimental_stims/body_parts/wc-so-KH4AAPjb-tI-unsplash.jpg,Stimuli/Experimental_stims/outdoor_scenes/jarrett-kow-1ZOyYPOBn7I-unsplash.jpg,0,0,1429,0,unchosen,4,35,outdoor_scenes,body_parts,1400,0,7,2
19,76661,0,20,1,1,0,no_gain4,gain1,I,J,29,45,body_parts,70,75,objects,Stimuli/Experimental_stims/body_parts/manuel-schinner-ZwjFuJ7ebpk-unsplash.jpg,Stimuli/Experimental_stims/objects/leohoho-rngTKHXumy0-unsplash.jpg,0,0,1233,1,chosen,45,29,objects,body_parts,1300,0,7,2
20,76661,0,21,1,1,1,gain6,no_gain6,C,A,26,0,body_parts,77,81,outdoor_scenes,Stimuli/Experimental_stims/body_parts/engin-akyurt-x_3gyC42btc-unsplash.jpg,Stimuli/Experimental_stims/outdoor_scenes/aleksandra-boguslawska-MS7KD9Ti7FQ-unsplash.jpg,1,NaN,,NaN,chosen,NaN,NaN,NaN,NaN,4600,1,7,2
21,76661,0,22,1,1,0,no_gain1,gain3,F,D,34,39,body_parts,30,74,objects,Stimuli/Experimental_stims/body_parts/wagner-santos-mBWMvIuVnso-unsplash.jpg,Stimuli/Experimental_stims/objects/charlesdeluvio-1-nx1QR5dTE-unsplash.jpg,0,0,1500,1,unchosen,39,34,objects,body_parts,1000,0,7,2
22,76661,0,23,1,1,1,gain4,no_gain4,G,I,8,29,outdoor_scenes,79,70,body_parts,Stimuli/Experimental_stims/outdoor_scenes/samsommer-vddccTqwal8-unsplash.jpg,Stimuli/Experimental_stims/body_parts/manuel-schinner-ZwjFuJ7ebpk-unsplash.jpg,1,NaN,,NaN,chosen,NaN,NaN,NaN,NaN,1100,0,7,2
23,76661,0,24,1,1,0,no_gain1,gain4,F,G,34,44,body_parts,30,73,objects,Stimuli/Experimental_stims/body_parts/wagner-santos-mBWMvIuVnso-unsplash.jpg,Stimuli/Experimental_stims/objects/kuiye-chen-NuOGFo4PudE-unsplash.jpg,0,0,999,1,unchosen,44,34,objects,body_parts,1700,0,7,2
24,76661,0,25,1,1,0,no_gain3,gain5,B,L,2,35,outdoor_scenes,77,87,body_parts,Stimuli/Experimental_stims/outdoor_scenes/bruno-van-der-kraan-qez8mNJ3ilU-unsplash.jpg,Stimuli/Experimental_stims/body_parts/wc-so-KH4AAPjb-tI-unsplash.jpg,0,0,1220,1,unchosen,35,2,body_parts,outdoor_scenes,2800,0,7,2
25,76661,0,26,1,1,1,gain4,no_gain3,G,B,8,16,outdoor_scenes,79,76,faces,Stimuli/Experimental_stims/outdoor_scenes/samsommer-vddccTqwal8-unsplash.jpg,Stimuli/Experimental_stims/faces/freddy-kearney-o-ioeoATbIM-unsplash.jpg,0,0,1010,0,chosen,16,8,faces,outdoor_scenes,3200,1,7,2
26,76661,0,27,1,1,1,gain5,no_gain6,L,A,18,0,faces,78,81,outdoor_scenes,Stimuli/Experimental_stims/faces/jessica-radanavong-mrYkTuAesKE-unsplash.jpg,Stimuli/Experimental_stims/outdoor_scenes/aleksandra-boguslawska-MS7KD9Ti7FQ-unsplash.jpg,0,1,1035,1,chosen,18,0,faces,outdoor_scenes,2000,0,7,2
27,76661,0,28,1,1,0,no_gain3,gain3,B,D,2,39,outdoor_scenes,77,74,objects,Stimuli/Experimental_stims/outdoor_scenes/bruno-van-der-kraan-qez8mNJ3ilU-unsplash.jpg,Stimuli/Experimental_stims/objects/charlesdeluvio-1-nx1QR5dTE-unsplash.jpg,0,0,895,1,unchosen,39,2,objects,outdoor_scenes,1600,0,7,2
28,76661,0,29,1,1,1,gain6,no_gain3,C,B,26,16,body_parts,77,76,faces,Stimuli/Experimental_stims/body_parts/engin-akyurt-x_3gyC42btc-unsplash.jpg,Stimuli/Experimental_stims/faces/freddy-kearney-o-ioeoATbIM-unsplash.jpg,0,1,1402,1,chosen,26,16,body_parts,faces,1300,0,7,2
29,76661,0,30,1,1,1,gain5,no_gain5,L,H,35,14,body_parts,87,74,faces,Stimuli/Experimental_stims/body_parts/wc-so-KH4AAPjb-tI-unsplash.jpg,Stimuli/Experimental_stims/faces/david-siglin-UuW4psOb388-unsplash.jpg,1,NaN,,NaN,unchosen,NaN,NaN,NaN,NaN,1200,0,7,2
30,76661,0,31,1,1,0,no_gain6,gain3,A,D,46,39,objects,50,74,objects,Stimuli/Experimental_stims/objects/mockup-graphics-PNsj6RiHAF4-unsplash.jpg,Stimuli/Experimental_stims/objects/charlesdeluvio-1-nx1QR5dTE-unsplash.jpg,0,0,1118,1,unchosen,39,46,objects,objects,3500,1,7,2
31,76661,0,32,1,1,0,no_gain1,gain1,F,J,23,45,faces,79,75,objects,Stimuli/Experimental_stims/faces/rikonavt-HQjfrvdTfak-unsplash.jpg,Stimuli/Experimental_stims/objects/leohoho-rngTKHXumy0-unsplash.jpg,0,0,1236,1,chosen,45,23,objects,faces,1800,0,7,2
32,76661,0,33,1,1,0,no_gain5,gain6,H,C,14,11,faces,74,73,outdoor_scenes,Stimuli/Experimental_stims/faces/david-siglin-UuW4psOb388-unsplash.jpg,Stimuli/Experimental_stims/outdoor_scenes/stephen-leonardi-gyIRjKPXupE-unsplash.jpg,0,1,1379,0,unchosen,14,11,faces,outdoor_scenes,1600,0,7,2
33,76661,0,34,1,1,0,no_gain1,gain5,F,L,23,18,faces,79,78,faces,Stimuli/Experimental_stims/faces/rikonavt-HQjfrvdTfak-unsplash.jpg,Stimuli/Experimental_stims/faces/jessica-radanavong-mrYkTuAesKE-unsplash.jpg,0,0,1098,1,chosen,18,23,faces,faces,2000,0,7,2
34,76661,0,35,1,1,0,no_gain5,gain5,H,L,3,18,outdoor_scenes,82,78,faces,Stimuli/Experimental_stims/outdoor_scenes/henry-be-NLF6hTe4PAg-unsplash.jpg,Stimuli/Experimental_stims/faces/jessica-radanavong-mrYkTuAesKE-unsplash.jpg,0,0,934,1,chosen,18,3,faces,outdoor_scenes,1100,0,7,2
35,76661,0,36,1,1,1,gain1,no_gain2,J,E,21,32,faces,78,82,body_parts,Stimuli/Experimental_stims/faces/leilani-angel-K84vnnzxmTQ-unsplash.jpg,Stimuli/Experimental_stims/body_parts/towfiqu-barbhuiya-3AsiVDsZnHg-unsplash.jpg,1,NaN,,NaN,unchosen,NaN,NaN,NaN,NaN,2800,0,7,2
36,76661,0,37,1,1,0,no_gain2,gain5,E,L,41,18,objects,76,78,faces,Stimuli/Experimental_stims/objects/insung-yoon-w2JtIQQXoRU-unsplash.jpg,Stimuli/Experimental_stims/faces/jessica-radanavong-mrYkTuAesKE-unsplash.jpg,0,1,1186,0,chosen,41,18,objects,faces,3100,1,7,2
37,76661,0,38,1,1,0,no_gain4,gain2,I,K,4,36,outdoor_scenes,73,77,objects,Stimuli/Experimental_stims/outdoor_scenes/jarrett-kow-1ZOyYPOBn7I-unsplash.jpg,Stimuli/Experimental_stims/objects/alexander-andrews-JYGnB9gTCls-unsplash.jpg,0,0,883,1,unchosen,36,4,objects,outdoor_scenes,1100,0,7,2
38,76661,0,39,1,1,0,no_gain4,gain1,I,J,4,21,outdoor_scenes,73,78,faces,Stimuli/Experimental_stims/outdoor_scenes/jarrett-kow-1ZOyYPOBn7I-unsplash.jpg,Stimuli/Experimental_stims/faces/leilani-angel-K84vnnzxmTQ-unsplash.jpg,0,0,1194,1,unchosen,21,4,faces,outdoor_scenes,1100,0,7,2
39,76661,0,40,1,1,1,gain2,no_gain1,K,F,33,23,body_parts,77,79,faces,Stimuli/Experimental_stims/body_parts/tucker-good-36skLT5jZcc-unsplash.jpg,Stimuli/Experimental_stims/faces/rikonavt-HQjfrvdTfak-unsplash.jpg,0,1,1377,1,chosen,33,23,body_parts,faces,1100,0,7,2
40,76661,0,41,1,1,1,gain2,no_gain5,K,H,36,14,objects,77,74,faces,Stimuli/Experimental_stims/objects/alexander-andrews-JYGnB9gTCls-unsplash.jpg,Stimuli/Experimental_stims/faces/david-siglin-UuW4psOb388-unsplash.jpg,0,1,936,1,unchosen,36,14,objects,faces,2300,0,7,2
41,76661,0,42,1,1,1,gain6,no_gain3,C,B,11,2,outdoor_scenes,73,77,outdoor_scenes,Stimuli/Experimental_stims/outdoor_scenes/stephen-leonardi-gyIRjKPXupE-unsplash.jpg,Stimuli/Experimental_stims/outdoor_scenes/bruno-van-der-kraan-qez8mNJ3ilU-unsplash.jpg,0,0,1428,0,unchosen,2,11,outdoor_scenes,outdoor_scenes,3700,1,7,2
42,76661,0,43,1,1,0,no_gain6,gain5,A,L,46,35,objects,50,87,body_parts,Stimuli/Experimental_stims/objects/mockup-graphics-PNsj6RiHAF4-unsplash.jpg,Stimuli/Experimental_stims/body_parts/wc-so-KH4AAPjb-tI-unsplash.jpg,0,0,1301,1,unchosen,35,46,body_parts,objects,2400,0,7,2
43,76661,0,44,1,1,0,no_gain5,gain6,H,C,3,26,outdoor_scenes,82,77,body_parts,Stimuli/Experimental_stims/outdoor_scenes/henry-be-NLF6hTe4PAg-unsplash.jpg,Stimuli/Experimental_stims/body_parts/engin-akyurt-x_3gyC42btc-unsplash.jpg,0,0,1130,1,chosen,26,3,body_parts,outdoor_scenes,1400,0,7,2
44,76661,0,45,1,1,0,no_gain2,gain6,E,C,32,11,body_parts,82,73,outdoor_scenes,Stimuli/Experimental_stims/body_parts/towfiqu-barbhuiya-3AsiVDsZnHg-unsplash.jpg,Stimuli/Experimental_stims/outdoor_scenes/stephen-leonardi-gyIRjKPXupE-unsplash.jpg,0,1,1048,0,unchosen,32,11,body_parts,outdoor_scenes,2500,0,7,2
45,76661,0,46,1,1,1,gain6,no_gain1,C,F,26,23,body_parts,77,79,faces,Stimuli/Experimental_stims/body_parts/engin-akyurt-x_3gyC42btc-unsplash.jpg,Stimuli/Experimental_stims/faces/rikonavt-HQjfrvdTfak-unsplash.jpg,0,1,961,1,chosen,26,23,body_parts,faces,2600,0,7,2
46,76661,0,47,1,1,1,gain2,no_gain2,K,E,33,41,body_parts,77,76,objects,Stimuli/Experimental_stims/body_parts/tucker-good-36skLT5jZcc-unsplash.jpg,Stimuli/Experimental_stims/objects/insung-yoon-w2JtIQQXoRU-unsplash.jpg,0,0,786,0,chosen,41,33,objects,body_parts,1100,0,7,2
47,76661,0,48,1,1,0,no_gain6,gain1,A,J,46,21,objects,50,78,faces,Stimuli/Experimental_stims/objects/mockup-graphics-PNsj6RiHAF4-unsplash.jpg,Stimuli/Experimental_stims/faces/leilani-angel-K84vnnzxmTQ-unsplash.jpg,0,1,1245,0,unchosen,46,21,objects,faces,4800,1,7,2
48,76661,0,49,1,1,1,gain4,no_gain3,G,B,44,2,objects,73,77,outdoor_scenes,Stimuli/Experimental_stims/objects/kuiye-chen-NuOGFo4PudE-unsplash.jpg,Stimuli/Experimental_stims/outdoor_scenes/bruno-van-der-kraan-qez8mNJ3ilU-unsplash.jpg,0,1,1033,1,unchosen,44,2,objects,outdoor_scenes,1600,0,7,2
49,76661,0,50,1,1,1,gain6,no_gain4,C,I,26,29,body_parts,77,70,body_parts,Stimuli/Experimental_stims/body_parts/engin-akyurt-x_3gyC42btc-unsplash.jpg,Stimuli/Experimental_stims/body_parts/manuel-schinner-ZwjFuJ7ebpk-unsplash.jpg,0,1,1097,1,chosen,26,29,body_parts,body_parts,2800,0,7,2
50,76661,0,51,1,1,1,gain1,no_gain3,J,B,21,2,faces,78,77,outdoor_scenes,Stimuli/Experimental_stims/faces/leilani-angel-K84vnnzxmTQ-unsplash.jpg,Stimuli/Experimental_stims/outdoor_scenes/bruno-van-der-kraan-qez8mNJ3ilU-unsplash.jpg,0,1,1120,1,unchosen,21,2,faces,outdoor_scenes,2300,0,7,2
51,76661,0,52,1,1,1,gain3,no_gain5,D,H,39,14,objects,74,74,faces,Stimuli/Experimental_stims/objects/charlesdeluvio-1-nx1QR5dTE-unsplash.jpg,Stimuli/Experimental_stims/faces/david-siglin-UuW4psOb388-unsplash.jpg,0,1,1024,1,unchosen,39,14,objects,faces,2400,0,7,2
52,76661,0,53,1,1,1,gain4,no_gain4,G,I,44,4,objects,73,73,outdoor_scenes,Stimuli/Experimental_stims/objects/kuiye-chen-NuOGFo4PudE-unsplash.jpg,Stimuli/Experimental_stims/outdoor_scenes/jarrett-kow-1ZOyYPOBn7I-unsplash.jpg,0,1,856,1,unchosen,44,4,objects,outdoor_scenes,1800,0,7,2
53,76661,0,54,1,1,0,no_gain6,gain1,A,J,0,45,outdoor_scenes,81,75,objects,Stimuli/Experimental_stims/outdoor_scenes/aleksandra-boguslawska-MS7KD9Ti7FQ-unsplash.jpg,Stimuli/Experimental_stims/objects/leohoho-rngTKHXumy0-unsplash.jpg,0,0,1118,1,chosen,45,0,objects,outdoor_scenes,1500,0,7,2
54,76661,0,55,1,1,1,gain6,no_gain4,C,I,11,4,outdoor_scenes,73,73,outdoor_scenes,Stimuli/Experimental_stims/outdoor_scenes/stephen-leonardi-gyIRjKPXupE-unsplash.jpg,Stimuli/Experimental_stims/outdoor_scenes/jarrett-kow-1ZOyYPOBn7I-unsplash.jpg,0,1,1265,1,unchosen,11,4,outdoor_scenes,outdoor_scenes,1900,0,7,2
55,76661,0,56,1,1,1,gain3,no_gain2,D,E,39,32,objects,74,82,body_parts,Stimuli/Experimental_stims/objects/charlesdeluvio-1-nx1QR5dTE-unsplash.jpg,Stimuli/Experimental_stims/body_parts/towfiqu-barbhuiya-3AsiVDsZnHg-unsplash.jpg,0,1,922,1,unchosen,39,32,objects,body_parts,1100,0,7,2
56,76661,0,57,1,1,0,no_gain2,gain2,E,K,32,36,body_parts,82,77,objects,Stimuli/Experimental_stims/body_parts/towfiqu-barbhuiya-3AsiVDsZnHg-unsplash.jpg,Stimuli/Experimental_stims/objects/alexander-andrews-JYGnB9gTCls-unsplash.jpg,0,0,894,1,unchosen,36,32,objects,body_parts,1700,0,7,2
57,76661,0,58,1,1,1,gain5,no_gain3,L,B,18,16,faces,78,76,faces,Stimuli/Experimental_stims/faces/jessica-radanavong-mrYkTuAesKE-unsplash.jpg,Stimuli/Experimental_stims/faces/freddy-kearney-o-ioeoATbIM-unsplash.jpg,0,1,816,1,chosen,18,16,faces,faces,1600,0,7,2
58,76661,0,59,1,1,1,gain6,no_gain1,C,F,11,34,outdoor_scenes,73,30,body_parts,Stimuli/Experimental_stims/outdoor_scenes/stephen-leonardi-gyIRjKPXupE-unsplash.jpg,Stimuli/Experimental_stims/body_parts/wagner-santos-mBWMvIuVnso-unsplash.jpg,0,0,863,0,unchosen,34,11,body_parts,outdoor_scenes,1700,0,7,2
59,76661,0,60,1,1,0,no_gain5,gain4,H,G,3,8,outdoor_scenes,82,79,outdoor_scenes,Stimuli/Experimental_stims/outdoor_scenes/henry-be-NLF6hTe4PAg-unsplash.jpg,Stimuli/Experimental_stims/outdoor_scenes/samsommer-vddccTqwal8-unsplash.jpg,0,0,921,1,chosen,8,3,outdoor_scenes,outdoor_scenes,3000,0,7,2
60,76661,0,61,1,1,1,gain3,no_gain6,D,A,13,0,faces,71,81,outdoor_scenes,Stimuli/Experimental_stims/faces/daniel-rigdon-dXmXKPP2L4E-unsplash.jpg,Stimuli/Experimental_stims/outdoor_scenes/aleksandra-boguslawska-MS7KD9Ti7FQ-unsplash.jpg,0,1,1060,1,chosen,13,0,faces,outdoor_scenes,2100,0,7,2
61,76661,0,62,1,1,1,gain5,no_gain2,L,E,35,32,body_parts,87,82,body_parts,Stimuli/Experimental_stims/body_parts/wc-so-KH4AAPjb-tI-unsplash.jpg,Stimuli/Experimental_stims/body_parts/towfiqu-barbhuiya-3AsiVDsZnHg-unsplash.jpg,0,1,1043,1,unchosen,35,32,body_parts,body_parts,3200,1,7,2
62,76661,0,63,1,1,1,gain1,no_gain5,J,H,45,3,objects,75,82,outdoor_scenes,Stimuli/Experimental_stims/objects/leohoho-rngTKHXumy0-unsplash.jpg,Stimuli/Experimental_stims/outdoor_scenes/henry-be-NLF6hTe4PAg-unsplash.jpg,0,1,1264,1,chosen,45,3,objects,outdoor_scenes,1600,0,7,2
63,76661,0,64,1,1,0,no_gain2,gain4,E,G,41,8,objects,76,79,outdoor_scenes,Stimuli/Experimental_stims/objects/insung-yoon-w2JtIQQXoRU-unsplash.jpg,Stimuli/Experimental_stims/outdoor_scenes/samsommer-vddccTqwal8-unsplash.jpg,0,1,879,0,chosen,41,8,objects,outdoor_scenes,1300,0,7,2
64,76661,0,65,1,1,0,no_gain1,gain1,F,J,34,21,body_parts,30,78,faces,Stimuli/Experimental_stims/body_parts/wagner-santos-mBWMvIuVnso-unsplash.jpg,Stimuli/Experimental_stims/faces/leilani-angel-K84vnnzxmTQ-unsplash.jpg,0,0,923,1,unchosen,21,34,faces,body_parts,1800,0,7,2
65,76661,0,66,1,1,0,no_gain1,gain4,F,G,23,8,faces,79,79,outdoor_scenes,Stimuli/Experimental_stims/faces/rikonavt-HQjfrvdTfak-unsplash.jpg,Stimuli/Experimental_stims/outdoor_scenes/samsommer-vddccTqwal8-unsplash.jpg,0,1,860,0,chosen,23,8,faces,outdoor_scenes,1400,0,7,2
66,76661,0,67,1,1,0,no_gain3,gain3,B,D,16,13,faces,76,71,faces,Stimuli/Experimental_stims/faces/freddy-kearney-o-ioeoATbIM-unsplash.jpg,Stimuli/Experimental_stims/faces/daniel-rigdon-dXmXKPP2L4E-unsplash.jpg,0,1,1001,0,chosen,16,13,faces,faces,1500,0,7,2
67,76661,0,68,1,1,0,no_gain6,gain2,A,K,0,33,outdoor_scenes,81,77,body_parts,Stimuli/Experimental_stims/outdoor_scenes/aleksandra-boguslawska-MS7KD9Ti7FQ-unsplash.jpg,Stimuli/Experimental_stims/body_parts/tucker-good-36skLT5jZcc-unsplash.jpg,0,0,801,1,chosen,33,0,body_parts,outdoor_scenes,1100,0,7,2
68,76661,0,69,1,1,0,no_gain6,gain4,A,G,46,44,objects,50,73,objects,Stimuli/Experimental_stims/objects/mockup-graphics-PNsj6RiHAF4-unsplash.jpg,Stimuli/Experimental_stims/objects/kuiye-chen-NuOGFo4PudE-unsplash.jpg,0,1,1416,0,unchosen,46,44,objects,objects,4300,1,7,2
69,76661,0,70,1,1,0,no_gain2,gain3,E,D,41,13,objects,76,71,faces,Stimuli/Experimental_stims/objects/insung-yoon-w2JtIQQXoRU-unsplash.jpg,Stimuli/Experimental_stims/faces/daniel-rigdon-dXmXKPP2L4E-unsplash.jpg,0,1,881,0,chosen,41,13,objects,faces,1100,0,7,2
70,76661,0,71,1,1,1,gain2,no_gain5,K,H,33,3,body_parts,77,82,outdoor_scenes,Stimuli/Experimental_stims/body_parts/tucker-good-36skLT5jZcc-unsplash.jpg,Stimuli/Experimental_stims/outdoor_scenes/henry-be-NLF6hTe4PAg-unsplash.jpg,0,1,908,1,chosen,33,3,body_parts,outdoor_scenes,1300,0,7,2
71,76661,0,72,1,1,1,gain2,no_gain6,K,A,36,46,objects,77,50,objects,Stimuli/Experimental_stims/objects/alexander-andrews-JYGnB9gTCls-unsplash.jpg,Stimuli/Experimental_stims/objects/mockup-graphics-PNsj6RiHAF4-unsplash.jpg,0,1,1147,1,unchosen,36,46,objects,objects,2000,0,7,2
72,76661,0,73,1,1,0,no_gain4,gain3,I,D,4,39,outdoor_scenes,73,74,objects,Stimuli/Experimental_stims/outdoor_scenes/jarrett-kow-1ZOyYPOBn7I-unsplash.jpg,Stimuli/Experimental_stims/objects/charlesdeluvio-1-nx1QR5dTE-unsplash.jpg,0,0,1046,1,unchosen,39,4,objects,outdoor_scenes,1900,0,7,2
73,76661,0,74,1,1,0,no_gain4,gain5,I,L,29,18,body_parts,70,78,faces,Stimuli/Experimental_stims/body_parts/manuel-schinner-ZwjFuJ7ebpk-unsplash.jpg,Stimuli/Experimental_stims/faces/jessica-radanavong-mrYkTuAesKE-unsplash.jpg,0,1,1424,0,chosen,29,18,body_parts,faces,2200,0,7,2
74,76661,0,75,1,1,1,gain4,no_gain6,G,A,8,0,outdoor_scenes,79,81,outdoor_scenes,Stimuli/Experimental_stims/outdoor_scenes/samsommer-vddccTqwal8-unsplash.jpg,Stimuli/Experimental_stims/outdoor_scenes/aleksandra-boguslawska-MS7KD9Ti7FQ-unsplash.jpg,0,1,863,1,chosen,8,0,outdoor_scenes,outdoor_scenes,1000,0,7,2
75,76661,0,76,1,1,1,gain4,no_gain5,G,H,44,14,objects,73,74,faces,Stimuli/Experimental_stims/objects/kuiye-chen-NuOGFo4PudE-unsplash.jpg,Stimuli/Experimental_stims/faces/david-siglin-UuW4psOb388-unsplash.jpg,0,1,824,1,unchosen,44,14,objects,faces,1100,0,7,2
76,76661,0,77,2,2,1,gain6,no_gain3,C,B,11,2,outdoor_scenes,73,77,outdoor_scenes,Stimuli/Experimental_stims/outdoor_scenes/stephen-leonardi-gyIRjKPXupE-unsplash.jpg,Stimuli/Experimental_stims/outdoor_scenes/bruno-van-der-kraan-qez8mNJ3ilU-unsplash.jpg,0,0,1361,0,unchosen,2,11,outdoor_scenes,outdoor_scenes,3800,1,10,2
77,76661,0,78,2,2,1,gain6,no_gain4,C,I,26,29,body_parts,77,70,body_parts,Stimuli/Experimental_stims/body_parts/engin-akyurt-x_3gyC42btc-unsplash.jpg,Stimuli/Experimental_stims/body_parts/manuel-schinner-ZwjFuJ7ebpk-unsplash.jpg,0,1,926,1,chosen,26,29,body_parts,body_parts,2000,0,10,2
78,76661,0,79,2,2,1,gain3,no_gain1,D,F,13,23,faces,71,79,faces,Stimuli/Experimental_stims/faces/daniel-rigdon-dXmXKPP2L4E-unsplash.jpg,Stimuli/Experimental_stims/faces/rikonavt-HQjfrvdTfak-unsplash.jpg,0,1,960,1,chosen,13,23,faces,faces,3000,0,10,2
79,76661,0,80,2,2,1,gain4,no_gain3,G,B,44,2,objects,73,77,outdoor_scenes,Stimuli/Experimental_stims/objects/kuiye-chen-NuOGFo4PudE-unsplash.jpg,Stimuli/Experimental_stims/outdoor_scenes/bruno-van-der-kraan-qez8mNJ3ilU-unsplash.jpg,0,1,895,1,unchosen,44,2,objects,outdoor_scenes,1400,0,10,2
80,76661,0,81,2,2,1,gain6,no_gain6,C,A,26,0,body_parts,77,81,outdoor_scenes,Stimuli/Experimental_stims/body_parts/engin-akyurt-x_3gyC42btc-unsplash.jpg,Stimuli/Experimental_stims/outdoor_scenes/aleksandra-boguslawska-MS7KD9Ti7FQ-unsplash.jpg,0,1,926,1,chosen,26,0,body_parts,outdoor_scenes,2900,0,10,2
81,76661,0,82,2,2,1,gain2,no_gain1,K,F,33,23,body_parts,77,79,faces,Stimuli/Experimental_stims/body_parts/tucker-good-36skLT5jZcc-unsplash.jpg,Stimuli/Experimental_stims/faces/rikonavt-HQjfrvdTfak-unsplash.jpg,0,1,957,1,chosen,33,23,body_parts,faces,2000,0,10,2
82,76661,0,83,2,2,0,no_gain1,gain3,F,D,34,39,body_parts,30,74,objects,Stimuli/Experimental_stims/body_parts/wagner-santos-mBWMvIuVnso-unsplash.jpg,Stimuli/Experimental_stims/objects/charlesdeluvio-1-nx1QR5dTE-unsplash.jpg,0,0,871,1,unchosen,39,34,objects,body_parts,2700,0,10,2
83,76661,0,84,2,2,0,no_gain6,gain2,A,K,0,33,outdoor_scenes,81,77,body_parts,Stimuli/Experimental_stims/outdoor_scenes/aleksandra-boguslawska-MS7KD9Ti7FQ-unsplash.jpg,Stimuli/Experimental_stims/body_parts/tucker-good-36skLT5jZcc-unsplash.jpg,0,0,890,1,chosen,33,0,body_parts,outdoor_scenes,3600,1,10,2
84,76661,0,85,2,2,0,no_gain3,gain2,B,K,2,36,outdoor_scenes,77,77,objects,Stimuli/Experimental_stims/outdoor_scenes/bruno-van-der-kraan-qez8mNJ3ilU-unsplash.jpg,Stimuli/Experimental_stims/objects/alexander-andrews-JYGnB9gTCls-unsplash.jpg,0,0,940,1,unchosen,36,2,objects,outdoor_scenes,1300,0,10,2
85,76661,0,86,2,2,1,gain6,no_gain1,C,F,11,34,outdoor_scenes,73,30,body_parts,Stimuli/Experimental_stims/outdoor_scenes/stephen-leonardi-gyIRjKPXupE-unsplash.jpg,Stimuli/Experimental_stims/body_parts/wagner-santos-mBWMvIuVnso-unsplash.jpg,0,0,884,0,unchosen,34,11,body_parts,outdoor_scenes,3000,0,10,2
86,76661,0,87,2,2,0,no_gain5,gain4,H,G,14,44,faces,74,73,objects,Stimuli/Experimental_stims/faces/david-siglin-UuW4psOb388-unsplash.jpg,Stimuli/Experimental_stims/objects/kuiye-chen-NuOGFo4PudE-unsplash.jpg,0,0,966,1,unchosen,44,14,objects,faces,2600,0,10,2
87,76661,0,88,2,2,0,no_gain2,gain3,E,D,41,13,objects,76,71,faces,Stimuli/Experimental_stims/objects/insung-yoon-w2JtIQQXoRU-unsplash.jpg,Stimuli/Experimental_stims/faces/daniel-rigdon-dXmXKPP2L4E-unsplash.jpg,0,1,834,0,chosen,41,13,objects,faces,1100,0,10,2
88,76661,0,89,2,2,0,no_gain1,gain1,F,J,23,45,faces,79,75,objects,Stimuli/Experimental_stims/faces/rikonavt-HQjfrvdTfak-unsplash.jpg,Stimuli/Experimental_stims/objects/leohoho-rngTKHXumy0-unsplash.jpg,0,0,1067,1,chosen,45,23,objects,faces,1400,0,10,2
89,76661,0,90,2,2,0,no_gain5,gain2,H,K,14,36,faces,74,77,objects,Stimuli/Experimental_stims/faces/david-siglin-UuW4psOb388-unsplash.jpg,Stimuli/Experimental_stims/objects/alexander-andrews-JYGnB9gTCls-unsplash.jpg,0,0,966,1,unchosen,36,14,objects,faces,1100,0,10,2
90,76661,0,91,2,2,1,gain3,no_gain3,D,B,39,2,objects,74,77,outdoor_scenes,Stimuli/Experimental_stims/objects/charlesdeluvio-1-nx1QR5dTE-unsplash.jpg,Stimuli/Experimental_stims/outdoor_scenes/bruno-van-der-kraan-qez8mNJ3ilU-unsplash.jpg,0,1,1032,1,unchosen,39,2,objects,outdoor_scenes,2900,0,10,2
91,76661,0,92,2,2,1,gain5,no_gain4,L,I,18,29,faces,78,70,body_parts,Stimuli/Experimental_stims/faces/jessica-radanavong-mrYkTuAesKE-unsplash.jpg,Stimuli/Experimental_stims/body_parts/manuel-schinner-ZwjFuJ7ebpk-unsplash.jpg,0,0,1288,0,chosen,29,18,body_parts,faces,1600,0,10,2
92,76661,0,93,2,2,1,gain2,no_gain6,K,A,36,46,objects,77,50,objects,Stimuli/Experimental_stims/objects/alexander-andrews-JYGnB9gTCls-unsplash.jpg,Stimuli/Experimental_stims/objects/mockup-graphics-PNsj6RiHAF4-unsplash.jpg,0,1,1038,1,unchosen,36,46,objects,objects,1500,0,10,2
93,76661,0,94,2,2,0,no_gain5,gain6,H,C,14,11,faces,74,73,outdoor_scenes,Stimuli/Experimental_stims/faces/david-siglin-UuW4psOb388-unsplash.jpg,Stimuli/Experimental_stims/outdoor_scenes/stephen-leonardi-gyIRjKPXupE-unsplash.jpg,0,0,925,1,unchosen,11,14,outdoor_scenes,faces,3800,1,10,2
94,76661,0,95,2,2,0,no_gain6,gain4,A,G,0,8,outdoor_scenes,81,79,outdoor_scenes,Stimuli/Experimental_stims/outdoor_scenes/aleksandra-boguslawska-MS7KD9Ti7FQ-unsplash.jpg,Stimuli/Experimental_stims/outdoor_scenes/samsommer-vddccTqwal8-unsplash.jpg,0,0,1307,1,chosen,8,0,outdoor_scenes,outdoor_scenes,1500,0,10,2
95,76661,0,96,2,2,1,gain5,no_gain2,L,E,35,32,body_parts,87,82,body_parts,Stimuli/Experimental_stims/body_parts/wc-so-KH4AAPjb-tI-unsplash.jpg,Stimuli/Experimental_stims/body_parts/towfiqu-barbhuiya-3AsiVDsZnHg-unsplash.jpg,0,1,917,1,unchosen,35,32,body_parts,body_parts,1000,0,10,2
96,76661,0,97,2,2,1,gain4,no_gain4,G,I,44,4,objects,73,73,outdoor_scenes,Stimuli/Experimental_stims/objects/kuiye-chen-NuOGFo4PudE-unsplash.jpg,Stimuli/Experimental_stims/outdoor_scenes/jarrett-kow-1ZOyYPOBn7I-unsplash.jpg,0,1,954,1,unchosen,44,4,objects,outdoor_scenes,1600,0,10,2
97,76661,0,98,2,2,0,no_gain5,gain3,H,D,3,13,outdoor_scenes,82,71,faces,Stimuli/Experimental_stims/outdoor_scenes/henry-be-NLF6hTe4PAg-unsplash.jpg,Stimuli/Experimental_stims/faces/daniel-rigdon-dXmXKPP2L4E-unsplash.jpg,0,0,1044,1,chosen,13,3,faces,outdoor_scenes,1300,0,10,2
98,76661,0,99,2,2,1,gain2,no_gain4,K,I,33,29,body_parts,77,70,body_parts,Stimuli/Experimental_stims/body_parts/tucker-good-36skLT5jZcc-unsplash.jpg,Stimuli/Experimental_stims/body_parts/manuel-schinner-ZwjFuJ7ebpk-unsplash.jpg,0,1,883,1,chosen,33,29,body_parts,body_parts,3500,1,10,2
99,76661,0,100,2,2,0,no_gain2,gain4,E,G,41,8,objects,76,79,outdoor_scenes,Stimuli/Experimental_stims/objects/insung-yoon-w2JtIQQXoRU-unsplash.jpg,Stimuli/Experimental_stims/outdoor_scenes/samsommer-vddccTqwal8-unsplash.jpg,0,1,804,0,chosen,41,8,objects,outdoor_scenes,2500,0,10,2
100,76661,0,101,2,2,1,gain5,no_gain6,L,A,35,46,body_parts,87,50,objects,Stimuli/Experimental_stims/body_parts/wc-so-KH4AAPjb-tI-unsplash.jpg,Stimuli/Experimental_stims/objects/mockup-graphics-PNsj6RiHAF4-unsplash.jpg,0,0,908,0,unchosen,46,35,objects,body_parts,1100,0,10,2
101,76661,0,102,2,2,1,gain3,no_gain3,D,B,13,16,faces,71,76,faces,Stimuli/Experimental_stims/faces/daniel-rigdon-dXmXKPP2L4E-unsplash.jpg,Stimuli/Experimental_stims/faces/freddy-kearney-o-ioeoATbIM-unsplash.jpg,0,0,1116,0,chosen,16,13,faces,faces,1000,0,10,2
102,76661,0,103,2,2,0,no_gain2,gain1,E,J,32,21,body_parts,82,78,faces,Stimuli/Experimental_stims/body_parts/towfiqu-barbhuiya-3AsiVDsZnHg-unsplash.jpg,Stimuli/Experimental_stims/faces/leilani-angel-K84vnnzxmTQ-unsplash.jpg,0,0,1098,1,unchosen,21,32,faces,body_parts,2100,0,10,2
103,76661,0,104,2,2,1,gain4,no_gain4,G,I,8,29,outdoor_scenes,79,70,body_parts,Stimuli/Experimental_stims/outdoor_scenes/samsommer-vddccTqwal8-unsplash.jpg,Stimuli/Experimental_stims/body_parts/manuel-schinner-ZwjFuJ7ebpk-unsplash.jpg,0,0,1223,0,chosen,29,8,body_parts,outdoor_scenes,1300,0,10,2
104,76661,0,105,2,2,0,no_gain2,gain4,E,G,32,44,body_parts,82,73,objects,Stimuli/Experimental_stims/body_parts/towfiqu-barbhuiya-3AsiVDsZnHg-unsplash.jpg,Stimuli/Experimental_stims/objects/kuiye-chen-NuOGFo4PudE-unsplash.jpg,0,0,896,1,unchosen,44,32,objects,body_parts,2000,0,10,2
105,76661,0,106,2,2,1,gain5,no_gain1,L,F,18,23,faces,78,79,faces,Stimuli/Experimental_stims/faces/jessica-radanavong-mrYkTuAesKE-unsplash.jpg,Stimuli/Experimental_stims/faces/rikonavt-HQjfrvdTfak-unsplash.jpg,1,NaN,,NaN,chosen,NaN,NaN,NaN,NaN,3100,1,10,2
106,76661,0,107,2,2,0,no_gain6,gain3,A,D,46,39,objects,50,74,objects,Stimuli/Experimental_stims/objects/mockup-graphics-PNsj6RiHAF4-unsplash.jpg,Stimuli/Experimental_stims/objects/charlesdeluvio-1-nx1QR5dTE-unsplash.jpg,0,0,850,1,unchosen,39,46,objects,objects,1400,0,10,2
107,76661,0,108,2,2,1,gain6,no_gain1,C,F,26,23,body_parts,77,79,faces,Stimuli/Experimental_stims/body_parts/engin-akyurt-x_3gyC42btc-unsplash.jpg,Stimuli/Experimental_stims/faces/rikonavt-HQjfrvdTfak-unsplash.jpg,0,1,1004,1,chosen,26,23,body_parts,faces,1300,0,10,2
108,76661,0,109,2,2,0,no_gain2,gain5,E,L,41,18,objects,76,78,faces,Stimuli/Experimental_stims/objects/insung-yoon-w2JtIQQXoRU-unsplash.jpg,Stimuli/Experimental_stims/faces/jessica-radanavong-mrYkTuAesKE-unsplash.jpg,0,1,958,0,chosen,41,18,objects,faces,1300,0,10,2
109,76661,0,110,2,2,0,no_gain5,gain5,H,L,14,35,faces,74,87,body_parts,Stimuli/Experimental_stims/faces/david-siglin-UuW4psOb388-unsplash.jpg,Stimuli/Experimental_stims/body_parts/wc-so-KH4AAPjb-tI-unsplash.jpg,0,0,946,1,unchosen,35,14,body_parts,faces,1200,0,10,2
110,76661,0,111,2,2,0,no_gain5,gain1,H,J,14,21,faces,74,78,faces,Stimuli/Experimental_stims/faces/david-siglin-UuW4psOb388-unsplash.jpg,Stimuli/Experimental_stims/faces/leilani-angel-K84vnnzxmTQ-unsplash.jpg,0,0,804,1,unchosen,21,14,faces,faces,1300,0,10,2
111,76661,0,112,2,2,0,no_gain6,gain5,A,L,0,18,outdoor_scenes,81,78,faces,Stimuli/Experimental_stims/outdoor_scenes/aleksandra-boguslawska-MS7KD9Ti7FQ-unsplash.jpg,Stimuli/Experimental_stims/faces/jessica-radanavong-mrYkTuAesKE-unsplash.jpg,0,0,1097,1,chosen,18,0,faces,outdoor_scenes,1100,0,10,2
112,76661,0,113,2,2,1,gain2,no_gain2,K,E,33,41,body_parts,77,76,objects,Stimuli/Experimental_stims/body_parts/tucker-good-36skLT5jZcc-unsplash.jpg,Stimuli/Experimental_stims/objects/insung-yoon-w2JtIQQXoRU-unsplash.jpg,0,0,914,0,chosen,41,33,objects,body_parts,1900,0,10,2
113,76661,0,114,2,2,1,gain1,no_gain6,J,A,21,46,faces,78,50,objects,Stimuli/Experimental_stims/faces/leilani-angel-K84vnnzxmTQ-unsplash.jpg,Stimuli/Experimental_stims/objects/mockup-graphics-PNsj6RiHAF4-unsplash.jpg,0,0,1230,0,unchosen,46,21,objects,faces,2100,0,10,2
114,76661,0,115,2,2,0,no_gain3,gain5,B,L,2,35,outdoor_scenes,77,87,body_parts,Stimuli/Experimental_stims/outdoor_scenes/bruno-van-der-kraan-qez8mNJ3ilU-unsplash.jpg,Stimuli/Experimental_stims/body_parts/wc-so-KH4AAPjb-tI-unsplash.jpg,0,0,1223,1,unchosen,35,2,body_parts,outdoor_scenes,1400,0,10,2
115,76661,0,116,2,2,1,gain3,no_gain6,D,A,13,0,faces,71,81,outdoor_scenes,Stimuli/Experimental_stims/faces/daniel-rigdon-dXmXKPP2L4E-unsplash.jpg,Stimuli/Experimental_stims/outdoor_scenes/aleksandra-boguslawska-MS7KD9Ti7FQ-unsplash.jpg,0,1,1380,1,chosen,13,0,faces,outdoor_scenes,1100,0,10,2
116,76661,0,117,2,2,0,no_gain5,gain5,H,L,3,18,outdoor_scenes,82,78,faces,Stimuli/Experimental_stims/outdoor_scenes/henry-be-NLF6hTe4PAg-unsplash.jpg,Stimuli/Experimental_stims/faces/jessica-radanavong-mrYkTuAesKE-unsplash.jpg,0,0,935,1,chosen,18,3,faces,outdoor_scenes,1600,0,10,2
117,76661,0,118,2,2,1,gain3,no_gain4,D,I,39,4,objects,74,73,outdoor_scenes,Stimuli/Experimental_stims/objects/charlesdeluvio-1-nx1QR5dTE-unsplash.jpg,Stimuli/Experimental_stims/outdoor_scenes/jarrett-kow-1ZOyYPOBn7I-unsplash.jpg,0,1,655,1,unchosen,39,4,objects,outdoor_scenes,1300,0,10,2
118,76661,0,119,2,2,1,gain4,no_gain1,G,F,8,23,outdoor_scenes,79,79,faces,Stimuli/Experimental_stims/outdoor_scenes/samsommer-vddccTqwal8-unsplash.jpg,Stimuli/Experimental_stims/faces/rikonavt-HQjfrvdTfak-unsplash.jpg,0,0,816,0,chosen,23,8,faces,outdoor_scenes,2500,0,10,2
119,76661,0,120,2,2,0,no_gain4,gain2,I,K,4,36,outdoor_scenes,73,77,objects,Stimuli/Experimental_stims/outdoor_scenes/jarrett-kow-1ZOyYPOBn7I-unsplash.jpg,Stimuli/Experimental_stims/objects/alexander-andrews-JYGnB9gTCls-unsplash.jpg,0,0,877,1,unchosen,36,4,objects,outdoor_scenes,4300,1,10,2
120,76661,0,121,2,2,0,no_gain3,gain4,B,G,16,8,faces,76,79,outdoor_scenes,Stimuli/Experimental_stims/faces/freddy-kearney-o-ioeoATbIM-unsplash.jpg,Stimuli/Experimental_stims/outdoor_scenes/samsommer-vddccTqwal8-unsplash.jpg,0,0,807,1,chosen,8,16,outdoor_scenes,faces,2400,0,10,2
121,76661,0,122,2,2,1,gain1,no_gain4,J,I,21,4,faces,78,73,outdoor_scenes,Stimuli/Experimental_stims/faces/leilani-angel-K84vnnzxmTQ-unsplash.jpg,Stimuli/Experimental_stims/outdoor_scenes/jarrett-kow-1ZOyYPOBn7I-unsplash.jpg,0,1,867,1,unchosen,21,4,faces,outdoor_scenes,1800,0,10,2
122,76661,0,123,2,2,1,gain6,no_gain3,C,B,26,16,body_parts,77,76,faces,Stimuli/Experimental_stims/body_parts/engin-akyurt-x_3gyC42btc-unsplash.jpg,Stimuli/Experimental_stims/faces/freddy-kearney-o-ioeoATbIM-unsplash.jpg,0,1,1000,1,chosen,26,16,body_parts,faces,1000,0,10,2
123,76661,0,124,2,2,1,gain5,no_gain1,L,F,35,34,body_parts,87,30,body_parts,Stimuli/Experimental_stims/body_parts/wc-so-KH4AAPjb-tI-unsplash.jpg,Stimuli/Experimental_stims/body_parts/wagner-santos-mBWMvIuVnso-unsplash.jpg,0,1,978,1,unchosen,35,34,body_parts,body_parts,2000,0,10,2
124,76661,0,125,2,2,1,gain3,no_gain2,D,E,39,32,objects,74,82,body_parts,Stimuli/Experimental_stims/objects/charlesdeluvio-1-nx1QR5dTE-unsplash.jpg,Stimuli/Experimental_stims/body_parts/towfiqu-barbhuiya-3AsiVDsZnHg-unsplash.jpg,0,1,890,1,unchosen,39,32,objects,body_parts,2700,0,10,2
125,76661,0,126,2,2,0,no_gain2,gain2,E,K,32,36,body_parts,82,77,objects,Stimuli/Experimental_stims/body_parts/towfiqu-barbhuiya-3AsiVDsZnHg-unsplash.jpg,Stimuli/Experimental_stims/objects/alexander-andrews-JYGnB9gTCls-unsplash.jpg,0,0,840,1,unchosen,36,32,objects,body_parts,2500,0,10,2
126,76661,0,127,2,2,0,no_gain4,gain1,I,J,29,45,body_parts,70,75,objects,Stimuli/Experimental_stims/body_parts/manuel-schinner-ZwjFuJ7ebpk-unsplash.jpg,Stimuli/Experimental_stims/objects/leohoho-rngTKHXumy0-unsplash.jpg,0,0,809,1,chosen,45,29,objects,body_parts,1800,0,10,2
127,76661,0,128,2,2,1,gain4,no_gain6,G,A,44,46,objects,73,50,objects,Stimuli/Experimental_stims/objects/kuiye-chen-NuOGFo4PudE-unsplash.jpg,Stimuli/Experimental_stims/objects/mockup-graphics-PNsj6RiHAF4-unsplash.jpg,0,1,884,1,unchosen,44,46,objects,objects,1200,0,10,2
128,76661,0,129,2,2,0,no_gain1,gain2,F,K,34,36,body_parts,30,77,objects,Stimuli/Experimental_stims/body_parts/wagner-santos-mBWMvIuVnso-unsplash.jpg,Stimuli/Experimental_stims/objects/alexander-andrews-JYGnB9gTCls-unsplash.jpg,0,0,994,1,unchosen,36,34,objects,body_parts,3800,1,10,2
129,76661,0,130,2,2,1,gain1,no_gain6,J,A,45,0,objects,75,81,outdoor_scenes,Stimuli/Experimental_stims/objects/leohoho-rngTKHXumy0-unsplash.jpg,Stimuli/Experimental_stims/outdoor_scenes/aleksandra-boguslawska-MS7KD9Ti7FQ-unsplash.jpg,0,0,998,0,chosen,0,45,outdoor_scenes,objects,1300,0,10,2
130,76661,0,131,2,2,1,gain6,no_gain4,C,I,11,4,outdoor_scenes,73,73,outdoor_scenes,Stimuli/Experimental_stims/outdoor_scenes/stephen-leonardi-gyIRjKPXupE-unsplash.jpg,Stimuli/Experimental_stims/outdoor_scenes/jarrett-kow-1ZOyYPOBn7I-unsplash.jpg,0,0,1098,0,unchosen,4,11,outdoor_scenes,outdoor_scenes,2900,0,10,2
131,76661,0,132,2,2,0,no_gain5,gain2,H,K,3,33,outdoor_scenes,82,77,body_parts,Stimuli/Experimental_stims/outdoor_scenes/henry-be-NLF6hTe4PAg-unsplash.jpg,Stimuli/Experimental_stims/body_parts/tucker-good-36skLT5jZcc-unsplash.jpg,0,0,871,1,chosen,33,3,body_parts,outdoor_scenes,1200,0,10,2
132,76661,0,133,2,2,0,no_gain5,gain6,H,C,3,26,outdoor_scenes,82,77,body_parts,Stimuli/Experimental_stims/outdoor_scenes/henry-be-NLF6hTe4PAg-unsplash.jpg,Stimuli/Experimental_stims/body_parts/engin-akyurt-x_3gyC42btc-unsplash.jpg,0,0,791,1,chosen,26,3,body_parts,outdoor_scenes,1300,0,10,2
133,76661,0,134,2,2,0,no_gain2,gain6,E,C,32,11,body_parts,82,73,outdoor_scenes,Stimuli/Experimental_stims/body_parts/towfiqu-barbhuiya-3AsiVDsZnHg-unsplash.jpg,Stimuli/Experimental_stims/outdoor_scenes/stephen-leonardi-gyIRjKPXupE-unsplash.jpg,0,0,1366,1,unchosen,11,32,outdoor_scenes,body_parts,2500,0,10,2
134,76661,0,135,2,2,1,gain5,no_gain3,L,B,18,16,faces,78,76,faces,Stimuli/Experimental_stims/faces/jessica-radanavong-mrYkTuAesKE-unsplash.jpg,Stimuli/Experimental_stims/faces/freddy-kearney-o-ioeoATbIM-unsplash.jpg,0,1,1089,1,chosen,18,16,faces,faces,3000,0,10,2
135,76661,0,136,2,2,1,gain4,no_gain5,G,H,8,3,outdoor_scenes,79,82,outdoor_scenes,Stimuli/Experimental_stims/outdoor_scenes/samsommer-vddccTqwal8-unsplash.jpg,Stimuli/Experimental_stims/outdoor_scenes/henry-be-NLF6hTe4PAg-unsplash.jpg,0,0,851,0,chosen,3,8,outdoor_scenes,outdoor_scenes,4200,1,10,2
136,76661,0,137,2,2,0,no_gain6,gain6,A,C,46,11,objects,50,73,outdoor_scenes,Stimuli/Experimental_stims/objects/mockup-graphics-PNsj6RiHAF4-unsplash.jpg,Stimuli/Experimental_stims/outdoor_scenes/stephen-leonardi-gyIRjKPXupE-unsplash.jpg,0,1,1104,0,unchosen,46,11,objects,outdoor_scenes,1700,0,10,2
137,76661,0,138,2,2,0,no_gain3,gain1,B,J,16,45,faces,76,75,objects,Stimuli/Experimental_stims/faces/freddy-kearney-o-ioeoATbIM-unsplash.jpg,Stimuli/Experimental_stims/objects/leohoho-rngTKHXumy0-unsplash.jpg,0,1,1398,0,chosen,16,45,faces,objects,1300,0,10,2
138,76661,0,139,2,2,0,no_gain2,gain1,E,J,41,45,objects,76,75,objects,Stimuli/Experimental_stims/objects/insung-yoon-w2JtIQQXoRU-unsplash.jpg,Stimuli/Experimental_stims/objects/leohoho-rngTKHXumy0-unsplash.jpg,0,1,1134,0,chosen,41,45,objects,objects,1100,0,10,2
139,76661,0,140,2,2,0,no_gain2,gain6,E,C,41,26,objects,76,77,body_parts,Stimuli/Experimental_stims/objects/insung-yoon-w2JtIQQXoRU-unsplash.jpg,Stimuli/Experimental_stims/body_parts/engin-akyurt-x_3gyC42btc-unsplash.jpg,0,1,885,0,chosen,41,26,objects,body_parts,1300,0,10,2
140,76661,0,141,2,2,1,gain5,no_gain4,L,I,35,4,body_parts,87,73,outdoor_scenes,Stimuli/Experimental_stims/body_parts/wc-so-KH4AAPjb-tI-unsplash.jpg,Stimuli/Experimental_stims/outdoor_scenes/jarrett-kow-1ZOyYPOBn7I-unsplash.jpg,0,1,908,1,unchosen,35,4,body_parts,outdoor_scenes,1500,0,10,2
141,76661,0,142,2,2,0,no_gain5,gain1,H,J,3,45,outdoor_scenes,82,75,objects,Stimuli/Experimental_stims/outdoor_scenes/henry-be-NLF6hTe4PAg-unsplash.jpg,Stimuli/Experimental_stims/objects/leohoho-rngTKHXumy0-unsplash.jpg,0,0,868,1,chosen,45,3,objects,outdoor_scenes,1800,0,10,2
142,76661,0,143,2,2,0,no_gain1,gain4,F,G,34,44,body_parts,30,73,objects,Stimuli/Experimental_stims/body_parts/wagner-santos-mBWMvIuVnso-unsplash.jpg,Stimuli/Experimental_stims/objects/kuiye-chen-NuOGFo4PudE-unsplash.jpg,0,0,1241,1,unchosen,44,34,objects,body_parts,1400,0,10,2
143,76661,0,144,2,2,1,gain3,no_gain5,D,H,39,14,objects,74,74,faces,Stimuli/Experimental_stims/objects/charlesdeluvio-1-nx1QR5dTE-unsplash.jpg,Stimuli/Experimental_stims/faces/david-siglin-UuW4psOb388-unsplash.jpg,0,1,1028,1,unchosen,39,14,objects,faces,1400,0,10,2
144,76661,0,145,2,2,0,no_gain4,gain3,I,D,29,13,body_parts,70,71,faces,Stimuli/Experimental_stims/body_parts/manuel-schinner-ZwjFuJ7ebpk-unsplash.jpg,Stimuli/Experimental_stims/faces/daniel-rigdon-dXmXKPP2L4E-unsplash.jpg,1,NaN,,NaN,chosen,NaN,NaN,NaN,NaN,1600,0,10,2
145,76661,0,146,2,2,1,gain1,no_gain3,J,B,21,2,faces,78,77,outdoor_scenes,Stimuli/Experimental_stims/faces/leilani-angel-K84vnnzxmTQ-unsplash.jpg,Stimuli/Experimental_stims/outdoor_scenes/bruno-van-der-kraan-qez8mNJ3ilU-unsplash.jpg,0,1,1008,1,unchosen,21,2,faces,outdoor_scenes,2000,0,10,2
146,76661,0,147,2,2,0,no_gain1,gain1,F,J,34,21,body_parts,30,78,faces,Stimuli/Experimental_stims/body_parts/wagner-santos-mBWMvIuVnso-unsplash.jpg,Stimuli/Experimental_stims/faces/leilani-angel-K84vnnzxmTQ-unsplash.jpg,0,0,810,1,unchosen,21,34,faces,body_parts,2500,0,10,2
147,76661,0,148,2,2,1,gain2,no_gain3,K,B,33,16,body_parts,77,76,faces,Stimuli/Experimental_stims/body_parts/tucker-good-36skLT5jZcc-unsplash.jpg,Stimuli/Experimental_stims/faces/freddy-kearney-o-ioeoATbIM-unsplash.jpg,0,1,874,1,chosen,33,16,body_parts,faces,3300,1,10,2
148,76661,0,149,3,3,0,no_gain1,gain2,F,K,34,36,body_parts,30,77,objects,Stimuli/Experimental_stims/body_parts/wagner-santos-mBWMvIuVnso-unsplash.jpg,Stimuli/Experimental_stims/objects/alexander-andrews-JYGnB9gTCls-unsplash.jpg,0,0,1297,1,unchosen,36,34,objects,body_parts,2200,0,10,2
149,76661,0,150,3,3,1,gain2,no_gain4,K,I,36,4,objects,77,73,outdoor_scenes,Stimuli/Experimental_stims/objects/alexander-andrews-JYGnB9gTCls-unsplash.jpg,Stimuli/Experimental_stims/outdoor_scenes/jarrett-kow-1ZOyYPOBn7I-unsplash.jpg,0,1,1064,1,unchosen,36,4,objects,outdoor_scenes,1200,0,10,2
150,76661,0,151,3,3,0,no_gain5,gain1,H,J,14,21,faces,74,78,faces,Stimuli/Experimental_stims/faces/david-siglin-UuW4psOb388-unsplash.jpg,Stimuli/Experimental_stims/faces/leilani-angel-K84vnnzxmTQ-unsplash.jpg,0,0,839,1,unchosen,21,14,faces,faces,1700,0,10,2
151,76661,0,152,3,3,0,no_gain6,gain4,A,G,0,8,outdoor_scenes,81,79,outdoor_scenes,Stimuli/Experimental_stims/outdoor_scenes/aleksandra-boguslawska-MS7KD9Ti7FQ-unsplash.jpg,Stimuli/Experimental_stims/outdoor_scenes/samsommer-vddccTqwal8-unsplash.jpg,0,1,1052,0,chosen,0,8,outdoor_scenes,outdoor_scenes,1100,0,10,2
152,76661,0,153,3,3,0,no_gain1,gain3,F,D,23,13,faces,79,71,faces,Stimuli/Experimental_stims/faces/rikonavt-HQjfrvdTfak-unsplash.jpg,Stimuli/Experimental_stims/faces/daniel-rigdon-dXmXKPP2L4E-unsplash.jpg,0,1,989,0,chosen,23,13,faces,faces,1000,0,10,2
153,76661,0,154,3,3,1,gain4,no_gain3,G,B,44,2,objects,73,77,outdoor_scenes,Stimuli/Experimental_stims/objects/kuiye-chen-NuOGFo4PudE-unsplash.jpg,Stimuli/Experimental_stims/outdoor_scenes/bruno-van-der-kraan-qez8mNJ3ilU-unsplash.jpg,0,1,1485,1,unchosen,44,2,objects,outdoor_scenes,1900,0,10,2
154,76661,0,155,3,3,1,gain3,no_gain3,D,B,39,2,objects,74,77,outdoor_scenes,Stimuli/Experimental_stims/objects/charlesdeluvio-1-nx1QR5dTE-unsplash.jpg,Stimuli/Experimental_stims/outdoor_scenes/bruno-van-der-kraan-qez8mNJ3ilU-unsplash.jpg,0,1,893,1,unchosen,39,2,objects,outdoor_scenes,4700,1,10,2
155,76661,0,156,3,3,1,gain5,no_gain5,L,H,18,3,faces,78,82,outdoor_scenes,Stimuli/Experimental_stims/faces/jessica-radanavong-mrYkTuAesKE-unsplash.jpg,Stimuli/Experimental_stims/outdoor_scenes/henry-be-NLF6hTe4PAg-unsplash.jpg,1,NaN,,NaN,chosen,NaN,NaN,NaN,NaN,2400,0,10,2
156,76661,0,157,3,3,1,gain6,no_gain3,C,B,11,2,outdoor_scenes,73,77,outdoor_scenes,Stimuli/Experimental_stims/outdoor_scenes/stephen-leonardi-gyIRjKPXupE-unsplash.jpg,Stimuli/Experimental_stims/outdoor_scenes/bruno-van-der-kraan-qez8mNJ3ilU-unsplash.jpg,0,0,884,0,unchosen,2,11,outdoor_scenes,outdoor_scenes,1900,0,10,2
157,76661,0,158,3,3,1,gain1,no_gain4,J,I,45,29,objects,75,70,body_parts,Stimuli/Experimental_stims/objects/leohoho-rngTKHXumy0-unsplash.jpg,Stimuli/Experimental_stims/body_parts/manuel-schinner-ZwjFuJ7ebpk-unsplash.jpg,0,1,797,1,chosen,45,29,objects,body_parts,1000,0,10,2
158,76661,0,159,3,3,0,no_gain2,gain6,E,C,41,26,objects,76,77,body_parts,Stimuli/Experimental_stims/objects/insung-yoon-w2JtIQQXoRU-unsplash.jpg,Stimuli/Experimental_stims/body_parts/engin-akyurt-x_3gyC42btc-unsplash.jpg,0,1,907,0,chosen,41,26,objects,body_parts,1800,0,10,2
159,76661,0,160,3,3,1,gain4,no_gain4,G,I,44,4,objects,73,73,outdoor_scenes,Stimuli/Experimental_stims/objects/kuiye-chen-NuOGFo4PudE-unsplash.jpg,Stimuli/Experimental_stims/outdoor_scenes/jarrett-kow-1ZOyYPOBn7I-unsplash.jpg,0,1,939,1,unchosen,44,4,objects,outdoor_scenes,1800,0,10,2
160,76661,0,161,3,3,0,no_gain4,gain3,I,D,4,39,outdoor_scenes,73,74,objects,Stimuli/Experimental_stims/outdoor_scenes/jarrett-kow-1ZOyYPOBn7I-unsplash.jpg,Stimuli/Experimental_stims/objects/charlesdeluvio-1-nx1QR5dTE-unsplash.jpg,0,0,887,1,unchosen,39,4,objects,outdoor_scenes,4700,1,10,2
161,76661,0,162,3,3,0,no_gain1,gain4,F,G,34,44,body_parts,30,73,objects,Stimuli/Experimental_stims/body_parts/wagner-santos-mBWMvIuVnso-unsplash.jpg,Stimuli/Experimental_stims/objects/kuiye-chen-NuOGFo4PudE-unsplash.jpg,0,0,1044,1,unchosen,44,34,objects,body_parts,1300,0,10,2
162,76661,0,163,3,3,1,gain2,no_gain5,K,H,33,3,body_parts,77,82,outdoor_scenes,Stimuli/Experimental_stims/body_parts/tucker-good-36skLT5jZcc-unsplash.jpg,Stimuli/Experimental_stims/outdoor_scenes/henry-be-NLF6hTe4PAg-unsplash.jpg,0,1,1231,1,chosen,33,3,body_parts,outdoor_scenes,1200,0,10,2
163,76661,0,164,3,3,0,no_gain3,gain4,B,G,16,8,faces,76,79,outdoor_scenes,Stimuli/Experimental_stims/faces/freddy-kearney-o-ioeoATbIM-unsplash.jpg,Stimuli/Experimental_stims/outdoor_scenes/samsommer-vddccTqwal8-unsplash.jpg,0,1,842,0,chosen,16,8,faces,outdoor_scenes,1600,0,10,2
164,76661,0,165,3,3,0,no_gain2,gain5,E,L,32,35,body_parts,82,87,body_parts,Stimuli/Experimental_stims/body_parts/towfiqu-barbhuiya-3AsiVDsZnHg-unsplash.jpg,Stimuli/Experimental_stims/body_parts/wc-so-KH4AAPjb-tI-unsplash.jpg,0,0,962,1,unchosen,35,32,body_parts,body_parts,1200,0,10,2
165,76661,0,166,3,3,1,gain6,no_gain5,C,H,11,14,outdoor_scenes,73,74,faces,Stimuli/Experimental_stims/outdoor_scenes/stephen-leonardi-gyIRjKPXupE-unsplash.jpg,Stimuli/Experimental_stims/faces/david-siglin-UuW4psOb388-unsplash.jpg,0,1,1244,1,unchosen,11,14,outdoor_scenes,faces,1100,0,10,2
166,76661,0,167,3,3,0,no_gain6,gain3,A,D,0,13,outdoor_scenes,81,71,faces,Stimuli/Experimental_stims/outdoor_scenes/aleksandra-boguslawska-MS7KD9Ti7FQ-unsplash.jpg,Stimuli/Experimental_stims/faces/daniel-rigdon-dXmXKPP2L4E-unsplash.jpg,0,0,1239,1,chosen,13,0,faces,outdoor_scenes,3100,1,10,2
167,76661,0,168,3,3,0,no_gain5,gain3,H,D,14,39,faces,74,74,objects,Stimuli/Experimental_stims/faces/david-siglin-UuW4psOb388-unsplash.jpg,Stimuli/Experimental_stims/objects/charlesdeluvio-1-nx1QR5dTE-unsplash.jpg,0,0,936,1,unchosen,39,14,objects,faces,1500,0,10,2
168,76661,0,169,3,3,0,no_gain4,gain3,I,D,29,13,body_parts,70,71,faces,Stimuli/Experimental_stims/body_parts/manuel-schinner-ZwjFuJ7ebpk-unsplash.jpg,Stimuli/Experimental_stims/faces/daniel-rigdon-dXmXKPP2L4E-unsplash.jpg,0,1,913,0,chosen,29,13,body_parts,faces,1000,0,10,2
169,76661,0,170,3,3,0,no_gain5,gain2,H,K,14,36,faces,74,77,objects,Stimuli/Experimental_stims/faces/david-siglin-UuW4psOb388-unsplash.jpg,Stimuli/Experimental_stims/objects/alexander-andrews-JYGnB9gTCls-unsplash.jpg,0,0,1210,1,unchosen,36,14,objects,faces,1500,0,10,2
170,76661,0,171,3,3,0,no_gain3,gain2,B,K,16,33,faces,76,77,body_parts,Stimuli/Experimental_stims/faces/freddy-kearney-o-ioeoATbIM-unsplash.jpg,Stimuli/Experimental_stims/body_parts/tucker-good-36skLT5jZcc-unsplash.jpg,0,0,914,1,chosen,33,16,body_parts,faces,1400,0,10,2
171,76661,0,172,3,3,1,gain1,no_gain2,J,E,45,41,objects,75,76,objects,Stimuli/Experimental_stims/objects/leohoho-rngTKHXumy0-unsplash.jpg,Stimuli/Experimental_stims/objects/insung-yoon-w2JtIQQXoRU-unsplash.jpg,0,0,996,0,chosen,41,45,objects,objects,3500,1,10,2
172,76661,0,173,3,3,0,no_gain4,gain2,I,K,29,33,body_parts,70,77,body_parts,Stimuli/Experimental_stims/body_parts/manuel-schinner-ZwjFuJ7ebpk-unsplash.jpg,Stimuli/Experimental_stims/body_parts/tucker-good-36skLT5jZcc-unsplash.jpg,0,0,855,1,chosen,33,29,body_parts,body_parts,1600,0,10,2
173,76661,0,174,3,3,0,no_gain4,gain5,I,L,4,35,outdoor_scenes,73,87,body_parts,Stimuli/Experimental_stims/outdoor_scenes/jarrett-kow-1ZOyYPOBn7I-unsplash.jpg,Stimuli/Experimental_stims/body_parts/wc-so-KH4AAPjb-tI-unsplash.jpg,0,0,1120,1,unchosen,35,4,body_parts,outdoor_scenes,2200,0,10,2
174,76661,0,175,3,3,0,no_gain3,gain2,B,K,2,36,outdoor_scenes,77,77,objects,Stimuli/Experimental_stims/outdoor_scenes/bruno-van-der-kraan-qez8mNJ3ilU-unsplash.jpg,Stimuli/Experimental_stims/objects/alexander-andrews-JYGnB9gTCls-unsplash.jpg,0,0,826,1,unchosen,36,2,objects,outdoor_scenes,1200,0,10,2
175,76661,0,176,3,3,1,gain2,no_gain2,K,E,36,32,objects,77,82,body_parts,Stimuli/Experimental_stims/objects/alexander-andrews-JYGnB9gTCls-unsplash.jpg,Stimuli/Experimental_stims/body_parts/towfiqu-barbhuiya-3AsiVDsZnHg-unsplash.jpg,0,1,1387,1,unchosen,36,32,objects,body_parts,1900,0,10,2
176,76661,0,177,3,3,0,no_gain6,gain5,A,L,0,18,outdoor_scenes,81,78,faces,Stimuli/Experimental_stims/outdoor_scenes/aleksandra-boguslawska-MS7KD9Ti7FQ-unsplash.jpg,Stimuli/Experimental_stims/faces/jessica-radanavong-mrYkTuAesKE-unsplash.jpg,0,0,1068,1,chosen,18,0,faces,outdoor_scenes,2000,0,10,2
177,76661,0,178,3,3,1,gain6,no_gain1,C,F,26,23,body_parts,77,79,faces,Stimuli/Experimental_stims/body_parts/engin-akyurt-x_3gyC42btc-unsplash.jpg,Stimuli/Experimental_stims/faces/rikonavt-HQjfrvdTfak-unsplash.jpg,0,1,924,1,chosen,26,23,body_parts,faces,1800,0,10,2
178,76661,0,179,3,3,0,no_gain1,gain2,F,K,23,33,faces,79,77,body_parts,Stimuli/Experimental_stims/faces/rikonavt-HQjfrvdTfak-unsplash.jpg,Stimuli/Experimental_stims/body_parts/tucker-good-36skLT5jZcc-unsplash.jpg,0,1,1014,0,chosen,23,33,faces,body_parts,2200,0,10,2
179,76661,0,180,3,3,0,no_gain2,gain3,E,D,32,39,body_parts,82,74,objects,Stimuli/Experimental_stims/body_parts/towfiqu-barbhuiya-3AsiVDsZnHg-unsplash.jpg,Stimuli/Experimental_stims/objects/charlesdeluvio-1-nx1QR5dTE-unsplash.jpg,0,0,864,1,unchosen,39,32,objects,body_parts,2300,0,10,2
180,76661,0,181,3,3,1,gain6,no_gain3,C,B,26,16,body_parts,77,76,faces,Stimuli/Experimental_stims/body_parts/engin-akyurt-x_3gyC42btc-unsplash.jpg,Stimuli/Experimental_stims/faces/freddy-kearney-o-ioeoATbIM-unsplash.jpg,0,1,1207,1,chosen,26,16,body_parts,faces,4300,1,10,2
181,76661,0,182,3,3,1,gain5,no_gain3,L,B,18,16,faces,78,76,faces,Stimuli/Experimental_stims/faces/jessica-radanavong-mrYkTuAesKE-unsplash.jpg,Stimuli/Experimental_stims/faces/freddy-kearney-o-ioeoATbIM-unsplash.jpg,0,0,1137,0,chosen,16,18,faces,faces,1600,0,10,2
182,76661,0,183,3,3,0,no_gain2,gain4,E,G,32,44,body_parts,82,73,objects,Stimuli/Experimental_stims/body_parts/towfiqu-barbhuiya-3AsiVDsZnHg-unsplash.jpg,Stimuli/Experimental_stims/objects/kuiye-chen-NuOGFo4PudE-unsplash.jpg,0,0,1035,1,unchosen,44,32,objects,body_parts,1600,0,10,2
183,76661,0,184,3,3,1,gain3,no_gain1,D,F,39,34,objects,74,30,body_parts,Stimuli/Experimental_stims/objects/charlesdeluvio-1-nx1QR5dTE-unsplash.jpg,Stimuli/Experimental_stims/body_parts/wagner-santos-mBWMvIuVnso-unsplash.jpg,0,1,769,1,unchosen,39,34,objects,body_parts,1100,0,10,2
184,76661,0,185,3,3,1,gain6,no_gain6,C,A,26,0,body_parts,77,81,outdoor_scenes,Stimuli/Experimental_stims/body_parts/engin-akyurt-x_3gyC42btc-unsplash.jpg,Stimuli/Experimental_stims/outdoor_scenes/aleksandra-boguslawska-MS7KD9Ti7FQ-unsplash.jpg,0,0,826,0,chosen,0,26,outdoor_scenes,body_parts,1000,0,10,2
185,76661,0,186,3,3,0,no_gain1,gain5,F,L,23,18,faces,79,78,faces,Stimuli/Experimental_stims/faces/rikonavt-HQjfrvdTfak-unsplash.jpg,Stimuli/Experimental_stims/faces/jessica-radanavong-mrYkTuAesKE-unsplash.jpg,0,1,907,0,chosen,23,18,faces,faces,1000,0,10,2
186,76661,0,187,3,3,0,no_gain1,gain5,F,L,34,35,body_parts,30,87,body_parts,Stimuli/Experimental_stims/body_parts/wagner-santos-mBWMvIuVnso-unsplash.jpg,Stimuli/Experimental_stims/body_parts/wc-so-KH4AAPjb-tI-unsplash.jpg,0,0,838,1,unchosen,35,34,body_parts,body_parts,3000,1,10,2
187,76661,0,188,3,3,1,gain4,no_gain1,G,F,8,23,outdoor_scenes,79,79,faces,Stimuli/Experimental_stims/outdoor_scenes/samsommer-vddccTqwal8-unsplash.jpg,Stimuli/Experimental_stims/faces/rikonavt-HQjfrvdTfak-unsplash.jpg,0,1,920,1,chosen,8,23,outdoor_scenes,faces,1000,0,10,2
188,76661,0,189,3,3,1,gain3,no_gain3,D,B,13,16,faces,71,76,faces,Stimuli/Experimental_stims/faces/daniel-rigdon-dXmXKPP2L4E-unsplash.jpg,Stimuli/Experimental_stims/faces/freddy-kearney-o-ioeoATbIM-unsplash.jpg,0,1,1026,1,chosen,13,16,faces,faces,1600,0,10,2
189,76661,0,190,3,3,0,no_gain2,gain5,E,L,41,18,objects,76,78,faces,Stimuli/Experimental_stims/objects/insung-yoon-w2JtIQQXoRU-unsplash.jpg,Stimuli/Experimental_stims/faces/jessica-radanavong-mrYkTuAesKE-unsplash.jpg,0,1,877,0,chosen,41,18,objects,faces,1500,0,10,2
190,76661,0,191,3,3,0,no_gain1,gain6,F,C,34,11,body_parts,30,73,outdoor_scenes,Stimuli/Experimental_stims/body_parts/wagner-santos-mBWMvIuVnso-unsplash.jpg,Stimuli/Experimental_stims/outdoor_scenes/stephen-leonardi-gyIRjKPXupE-unsplash.jpg,0,1,818,0,unchosen,34,11,body_parts,outdoor_scenes,1700,0,10,2
191,76661,0,192,3,3,1,gain5,no_gain6,L,A,35,46,body_parts,87,50,objects,Stimuli/Experimental_stims/body_parts/wc-so-KH4AAPjb-tI-unsplash.jpg,Stimuli/Experimental_stims/objects/mockup-graphics-PNsj6RiHAF4-unsplash.jpg,1,NaN,,NaN,unchosen,NaN,NaN,NaN,NaN,1300,0,10,2
192,76661,0,193,3,3,0,no_gain5,gain4,H,G,14,44,faces,74,73,objects,Stimuli/Experimental_stims/faces/david-siglin-UuW4psOb388-unsplash.jpg,Stimuli/Experimental_stims/objects/kuiye-chen-NuOGFo4PudE-unsplash.jpg,0,0,784,1,unchosen,44,14,objects,faces,1300,0,10,2
193,76661,0,194,3,3,1,gain1,no_gain5,J,H,45,3,objects,75,82,outdoor_scenes,Stimuli/Experimental_stims/objects/leohoho-rngTKHXumy0-unsplash.jpg,Stimuli/Experimental_stims/outdoor_scenes/henry-be-NLF6hTe4PAg-unsplash.jpg,0,1,804,1,chosen,45,3,objects,outdoor_scenes,3600,1,10,2
194,76661,0,195,3,3,1,gain6,no_gain4,C,I,11,4,outdoor_scenes,73,73,outdoor_scenes,Stimuli/Experimental_stims/outdoor_scenes/stephen-leonardi-gyIRjKPXupE-unsplash.jpg,Stimuli/Experimental_stims/outdoor_scenes/jarrett-kow-1ZOyYPOBn7I-unsplash.jpg,1,NaN,,NaN,unchosen,NaN,NaN,NaN,NaN,2100,0,10,2
195,76661,0,196,3,3,1,gain1,no_gain1,J,F,45,23,objects,75,79,faces,Stimuli/Experimental_stims/objects/leohoho-rngTKHXumy0-unsplash.jpg,Stimuli/Experimental_stims/faces/rikonavt-HQjfrvdTfak-unsplash.jpg,1,NaN,,NaN,chosen,NaN,NaN,NaN,NaN,1600,0,10,2
196,76661,0,197,3,3,1,gain4,no_gain6,G,A,44,46,objects,73,50,objects,Stimuli/Experimental_stims/objects/kuiye-chen-NuOGFo4PudE-unsplash.jpg,Stimuli/Experimental_stims/objects/mockup-graphics-PNsj6RiHAF4-unsplash.jpg,0,0,881,0,unchosen,46,44,objects,objects,1800,0,10,2
197,76661,0,198,3,3,1,gain3,no_gain6,D,A,39,46,objects,74,50,objects,Stimuli/Experimental_stims/objects/charlesdeluvio-1-nx1QR5dTE-unsplash.jpg,Stimuli/Experimental_stims/objects/mockup-graphics-PNsj6RiHAF4-unsplash.jpg,0,1,867,1,unchosen,39,46,objects,objects,1600,0,10,2
198,76661,0,199,3,3,1,gain1,no_gain3,J,B,45,16,objects,75,76,faces,Stimuli/Experimental_stims/objects/leohoho-rngTKHXumy0-unsplash.jpg,Stimuli/Experimental_stims/faces/freddy-kearney-o-ioeoATbIM-unsplash.jpg,0,0,705,0,chosen,16,45,faces,objects,3100,1,10,2
199,76661,0,200,3,3,0,no_gain5,gain4,H,G,3,8,outdoor_scenes,82,79,outdoor_scenes,Stimuli/Experimental_stims/outdoor_scenes/henry-be-NLF6hTe4PAg-unsplash.jpg,Stimuli/Experimental_stims/outdoor_scenes/samsommer-vddccTqwal8-unsplash.jpg,1,NaN,,NaN,chosen,NaN,NaN,NaN,NaN,2500,0,10,2
200,76661,0,201,3,3,0,no_gain1,gain1,F,J,34,21,body_parts,30,78,faces,Stimuli/Experimental_stims/body_parts/wagner-santos-mBWMvIuVnso-unsplash.jpg,Stimuli/Experimental_stims/faces/leilani-angel-K84vnnzxmTQ-unsplash.jpg,0,0,1490,1,unchosen,21,34,faces,body_parts,2000,0,10,2
201,76661,0,202,3,3,0,no_gain4,gain4,I,G,29,8,body_parts,70,79,outdoor_scenes,Stimuli/Experimental_stims/body_parts/manuel-schinner-ZwjFuJ7ebpk-unsplash.jpg,Stimuli/Experimental_stims/outdoor_scenes/samsommer-vddccTqwal8-unsplash.jpg,0,1,888,0,chosen,29,8,body_parts,outdoor_scenes,2100,0,10,2
202,76661,0,203,3,3,1,gain3,no_gain5,D,H,13,3,faces,71,82,outdoor_scenes,Stimuli/Experimental_stims/faces/daniel-rigdon-dXmXKPP2L4E-unsplash.jpg,Stimuli/Experimental_stims/outdoor_scenes/henry-be-NLF6hTe4PAg-unsplash.jpg,0,0,785,0,chosen,3,13,outdoor_scenes,faces,1200,0,10,2
203,76661,0,204,3,3,1,gain1,no_gain6,J,A,21,46,faces,78,50,objects,Stimuli/Experimental_stims/faces/leilani-angel-K84vnnzxmTQ-unsplash.jpg,Stimuli/Experimental_stims/objects/mockup-graphics-PNsj6RiHAF4-unsplash.jpg,0,0,947,0,unchosen,46,21,objects,faces,3300,1,10,2
204,76661,0,205,3,3,1,gain3,no_gain2,D,E,13,41,faces,71,76,objects,Stimuli/Experimental_stims/faces/daniel-rigdon-dXmXKPP2L4E-unsplash.jpg,Stimuli/Experimental_stims/objects/insung-yoon-w2JtIQQXoRU-unsplash.jpg,0,1,1172,1,chosen,13,41,faces,objects,2100,0,10,2
205,76661,0,206,3,3,0,no_gain4,gain5,I,L,29,18,body_parts,70,78,faces,Stimuli/Experimental_stims/body_parts/manuel-schinner-ZwjFuJ7ebpk-unsplash.jpg,Stimuli/Experimental_stims/faces/jessica-radanavong-mrYkTuAesKE-unsplash.jpg,0,0,922,1,chosen,18,29,faces,body_parts,2100,0,10,2
206,76661,0,207,3,3,1,gain2,no_gain6,K,A,33,0,body_parts,77,81,outdoor_scenes,Stimuli/Experimental_stims/body_parts/tucker-good-36skLT5jZcc-unsplash.jpg,Stimuli/Experimental_stims/outdoor_scenes/aleksandra-boguslawska-MS7KD9Ti7FQ-unsplash.jpg,1,NaN,,NaN,chosen,NaN,NaN,NaN,NaN,2600,0,10,2
207,76661,0,208,3,3,1,gain1,no_gain2,J,E,21,32,faces,78,82,body_parts,Stimuli/Experimental_stims/faces/leilani-angel-K84vnnzxmTQ-unsplash.jpg,Stimuli/Experimental_stims/body_parts/towfiqu-barbhuiya-3AsiVDsZnHg-unsplash.jpg,0,0,1069,0,unchosen,32,21,body_parts,faces,2800,0,10,2
208,76661,0,209,3,3,1,gain1,no_gain4,J,I,21,4,faces,78,73,outdoor_scenes,Stimuli/Experimental_stims/faces/leilani-angel-K84vnnzxmTQ-unsplash.jpg,Stimuli/Experimental_stims/outdoor_scenes/jarrett-kow-1ZOyYPOBn7I-unsplash.jpg,0,0,937,0,unchosen,4,21,outdoor_scenes,faces,2100,0,10,2
209,76661,0,210,3,3,0,no_gain6,gain1,A,J,0,45,outdoor_scenes,81,75,objects,Stimuli/Experimental_stims/outdoor_scenes/aleksandra-boguslawska-MS7KD9Ti7FQ-unsplash.jpg,Stimuli/Experimental_stims/objects/leohoho-rngTKHXumy0-unsplash.jpg,0,0,700,1,chosen,45,0,objects,outdoor_scenes,1300,0,10,2
210,76661,0,211,3,3,0,no_gain5,gain6,H,C,3,26,outdoor_scenes,82,77,body_parts,Stimuli/Experimental_stims/outdoor_scenes/henry-be-NLF6hTe4PAg-unsplash.jpg,Stimuli/Experimental_stims/body_parts/engin-akyurt-x_3gyC42btc-unsplash.jpg,0,1,1204,0,chosen,3,26,outdoor_scenes,body_parts,3900,1,10,2
211,76661,0,212,3,3,0,no_gain2,gain6,E,C,32,11,body_parts,82,73,outdoor_scenes,Stimuli/Experimental_stims/body_parts/towfiqu-barbhuiya-3AsiVDsZnHg-unsplash.jpg,Stimuli/Experimental_stims/outdoor_scenes/stephen-leonardi-gyIRjKPXupE-unsplash.jpg,0,0,369,1,unchosen,11,32,outdoor_scenes,body_parts,1600,0,10,2
212,76661,0,213,3,3,1,gain4,no_gain2,G,E,8,41,outdoor_scenes,79,76,objects,Stimuli/Experimental_stims/outdoor_scenes/samsommer-vddccTqwal8-unsplash.jpg,Stimuli/Experimental_stims/objects/insung-yoon-w2JtIQQXoRU-unsplash.jpg,0,0,841,0,chosen,41,8,objects,outdoor_scenes,1300,0,10,2
213,76661,0,214,3,3,0,no_gain3,gain5,B,L,2,35,outdoor_scenes,77,87,body_parts,Stimuli/Experimental_stims/outdoor_scenes/bruno-van-der-kraan-qez8mNJ3ilU-unsplash.jpg,Stimuli/Experimental_stims/body_parts/wc-so-KH4AAPjb-tI-unsplash.jpg,0,0,854,1,unchosen,35,2,body_parts,outdoor_scenes,1700,0,10,2
214,76661,0,215,3,3,1,gain2,no_gain6,K,A,36,46,objects,77,50,objects,Stimuli/Experimental_stims/objects/alexander-andrews-JYGnB9gTCls-unsplash.jpg,Stimuli/Experimental_stims/objects/mockup-graphics-PNsj6RiHAF4-unsplash.jpg,0,0,1244,0,unchosen,46,36,objects,objects,1600,0,10,2
215,76661,0,216,3,3,0,no_gain4,gain6,I,C,29,26,body_parts,70,77,body_parts,Stimuli/Experimental_stims/body_parts/manuel-schinner-ZwjFuJ7ebpk-unsplash.jpg,Stimuli/Experimental_stims/body_parts/engin-akyurt-x_3gyC42btc-unsplash.jpg,0,0,948,1,chosen,26,29,body_parts,body_parts,3600,1,10,2
216,76661,0,217,3,3,1,gain5,no_gain5,L,H,35,14,body_parts,87,74,faces,Stimuli/Experimental_stims/body_parts/wc-so-KH4AAPjb-tI-unsplash.jpg,Stimuli/Experimental_stims/faces/david-siglin-UuW4psOb388-unsplash.jpg,0,0,949,0,unchosen,14,35,faces,body_parts,2700,0,10,2
217,76661,0,218,3,3,1,gain2,no_gain2,K,E,33,41,body_parts,77,76,objects,Stimuli/Experimental_stims/body_parts/tucker-good-36skLT5jZcc-unsplash.jpg,Stimuli/Experimental_stims/objects/insung-yoon-w2JtIQQXoRU-unsplash.jpg,0,1,839,1,chosen,33,41,body_parts,objects,2800,0,10,2
218,76661,0,219,3,3,0,no_gain6,gain6,A,C,46,11,objects,50,73,outdoor_scenes,Stimuli/Experimental_stims/objects/mockup-graphics-PNsj6RiHAF4-unsplash.jpg,Stimuli/Experimental_stims/outdoor_scenes/stephen-leonardi-gyIRjKPXupE-unsplash.jpg,0,1,815,0,unchosen,46,11,objects,outdoor_scenes,2800,0,10,2
219,76661,0,220,3,3,1,gain1,no_gain3,J,B,21,2,faces,78,77,outdoor_scenes,Stimuli/Experimental_stims/faces/leilani-angel-K84vnnzxmTQ-unsplash.jpg,Stimuli/Experimental_stims/outdoor_scenes/bruno-van-der-kraan-qez8mNJ3ilU-unsplash.jpg,0,0,1438,0,unchosen,2,21,outdoor_scenes,faces,1100,0,10,2
220,76661,0,221,4,4,0,no_gain6,gain2,A,K,0,33,outdoor_scenes,81,77,body_parts,Stimuli/Experimental_stims/outdoor_scenes/aleksandra-boguslawska-MS7KD9Ti7FQ-unsplash.jpg,Stimuli/Experimental_stims/body_parts/tucker-good-36skLT5jZcc-unsplash.jpg,0,1,1051,0,chosen,0,33,outdoor_scenes,body_parts,4200,1,9,2
221,76661,0,222,4,4,1,gain4,no_gain2,G,E,44,32,objects,73,82,body_parts,Stimuli/Experimental_stims/objects/kuiye-chen-NuOGFo4PudE-unsplash.jpg,Stimuli/Experimental_stims/body_parts/towfiqu-barbhuiya-3AsiVDsZnHg-unsplash.jpg,0,1,896,1,unchosen,44,32,objects,body_parts,2400,0,9,2
222,76661,0,223,4,4,1,gain2,no_gain1,K,F,33,23,body_parts,77,79,faces,Stimuli/Experimental_stims/body_parts/tucker-good-36skLT5jZcc-unsplash.jpg,Stimuli/Experimental_stims/faces/rikonavt-HQjfrvdTfak-unsplash.jpg,0,1,857,1,chosen,33,23,body_parts,faces,1200,0,9,2
223,76661,0,224,4,4,0,no_gain4,gain4,I,G,29,8,body_parts,70,79,outdoor_scenes,Stimuli/Experimental_stims/body_parts/manuel-schinner-ZwjFuJ7ebpk-unsplash.jpg,Stimuli/Experimental_stims/outdoor_scenes/samsommer-vddccTqwal8-unsplash.jpg,0,1,848,0,chosen,29,8,body_parts,outdoor_scenes,1400,0,9,2
224,76661,0,225,4,4,0,no_gain4,gain6,I,C,4,11,outdoor_scenes,73,73,outdoor_scenes,Stimuli/Experimental_stims/outdoor_scenes/jarrett-kow-1ZOyYPOBn7I-unsplash.jpg,Stimuli/Experimental_stims/outdoor_scenes/stephen-leonardi-gyIRjKPXupE-unsplash.jpg,0,1,1431,0,unchosen,4,11,outdoor_scenes,outdoor_scenes,1800,0,9,2
225,76661,0,226,4,4,0,no_gain4,gain5,I,L,4,35,outdoor_scenes,73,87,body_parts,Stimuli/Experimental_stims/outdoor_scenes/jarrett-kow-1ZOyYPOBn7I-unsplash.jpg,Stimuli/Experimental_stims/body_parts/wc-so-KH4AAPjb-tI-unsplash.jpg,1,NaN,,NaN,unchosen,NaN,NaN,NaN,NaN,2200,0,9,2
226,76661,0,227,4,4,1,gain4,no_gain1,G,F,8,23,outdoor_scenes,79,79,faces,Stimuli/Experimental_stims/outdoor_scenes/samsommer-vddccTqwal8-unsplash.jpg,Stimuli/Experimental_stims/faces/rikonavt-HQjfrvdTfak-unsplash.jpg,0,0,850,0,chosen,23,8,faces,outdoor_scenes,4000,1,9,2
227,76661,0,228,4,4,1,gain3,no_gain2,D,E,13,41,faces,71,76,objects,Stimuli/Experimental_stims/faces/daniel-rigdon-dXmXKPP2L4E-unsplash.jpg,Stimuli/Experimental_stims/objects/insung-yoon-w2JtIQQXoRU-unsplash.jpg,0,1,1027,1,chosen,13,41,faces,objects,1900,0,9,2
228,76661,0,229,4,4,0,no_gain5,gain4,H,G,3,8,outdoor_scenes,82,79,outdoor_scenes,Stimuli/Experimental_stims/outdoor_scenes/henry-be-NLF6hTe4PAg-unsplash.jpg,Stimuli/Experimental_stims/outdoor_scenes/samsommer-vddccTqwal8-unsplash.jpg,0,0,1095,1,chosen,8,3,outdoor_scenes,outdoor_scenes,1800,0,9,2
229,76661,0,230,4,4,0,no_gain4,gain3,I,D,4,39,outdoor_scenes,73,74,objects,Stimuli/Experimental_stims/outdoor_scenes/jarrett-kow-1ZOyYPOBn7I-unsplash.jpg,Stimuli/Experimental_stims/objects/charlesdeluvio-1-nx1QR5dTE-unsplash.jpg,0,0,805,1,unchosen,39,4,objects,outdoor_scenes,1200,0,9,2
230,76661,0,231,4,4,0,no_gain3,gain5,B,L,2,35,outdoor_scenes,77,87,body_parts,Stimuli/Experimental_stims/outdoor_scenes/bruno-van-der-kraan-qez8mNJ3ilU-unsplash.jpg,Stimuli/Experimental_stims/body_parts/wc-so-KH4AAPjb-tI-unsplash.jpg,0,0,1164,1,unchosen,35,2,body_parts,outdoor_scenes,1700,0,9,2
231,76661,0,232,4,4,0,no_gain2,gain5,E,L,32,35,body_parts,82,87,body_parts,Stimuli/Experimental_stims/body_parts/towfiqu-barbhuiya-3AsiVDsZnHg-unsplash.jpg,Stimuli/Experimental_stims/body_parts/wc-so-KH4AAPjb-tI-unsplash.jpg,0,0,860,1,unchosen,35,32,body_parts,body_parts,3500,1,9,2
232,76661,0,233,4,4,1,gain3,no_gain3,D,B,13,16,faces,71,76,faces,Stimuli/Experimental_stims/faces/daniel-rigdon-dXmXKPP2L4E-unsplash.jpg,Stimuli/Experimental_stims/faces/freddy-kearney-o-ioeoATbIM-unsplash.jpg,0,0,1031,0,chosen,16,13,faces,faces,1700,0,9,2
233,76661,0,234,4,4,1,gain2,no_gain2,K,E,36,32,objects,77,82,body_parts,Stimuli/Experimental_stims/objects/alexander-andrews-JYGnB9gTCls-unsplash.jpg,Stimuli/Experimental_stims/body_parts/towfiqu-barbhuiya-3AsiVDsZnHg-unsplash.jpg,0,1,1485,1,unchosen,36,32,objects,body_parts,2000,0,9,2
234,76661,0,235,4,4,0,no_gain6,gain5,A,L,46,35,objects,50,87,body_parts,Stimuli/Experimental_stims/objects/mockup-graphics-PNsj6RiHAF4-unsplash.jpg,Stimuli/Experimental_stims/body_parts/wc-so-KH4AAPjb-tI-unsplash.jpg,0,1,1461,0,unchosen,46,35,objects,body_parts,1300,0,9,2
235,76661,0,236,4,4,1,gain6,no_gain1,C,F,26,23,body_parts,77,79,faces,Stimuli/Experimental_stims/body_parts/engin-akyurt-x_3gyC42btc-unsplash.jpg,Stimuli/Experimental_stims/faces/rikonavt-HQjfrvdTfak-unsplash.jpg,0,1,1436,1,chosen,26,23,body_parts,faces,1400,0,9,2
236,76661,0,237,4,4,1,gain1,no_gain4,J,I,21,4,faces,78,73,outdoor_scenes,Stimuli/Experimental_stims/faces/leilani-angel-K84vnnzxmTQ-unsplash.jpg,Stimuli/Experimental_stims/outdoor_scenes/jarrett-kow-1ZOyYPOBn7I-unsplash.jpg,0,1,1181,1,unchosen,21,4,faces,outdoor_scenes,3600,1,9,2
237,76661,0,238,4,4,0,no_gain3,gain4,B,G,16,8,faces,76,79,outdoor_scenes,Stimuli/Experimental_stims/faces/freddy-kearney-o-ioeoATbIM-unsplash.jpg,Stimuli/Experimental_stims/outdoor_scenes/samsommer-vddccTqwal8-unsplash.jpg,0,1,1221,0,chosen,16,8,faces,outdoor_scenes,2700,0,9,2
238,76661,0,239,4,4,0,no_gain5,gain1,H,J,14,21,faces,74,78,faces,Stimuli/Experimental_stims/faces/david-siglin-UuW4psOb388-unsplash.jpg,Stimuli/Experimental_stims/faces/leilani-angel-K84vnnzxmTQ-unsplash.jpg,0,0,1095,1,unchosen,21,14,faces,faces,1900,0,9,2
239,76661,0,240,4,4,0,no_gain1,gain3,F,D,34,39,body_parts,30,74,objects,Stimuli/Experimental_stims/body_parts/wagner-santos-mBWMvIuVnso-unsplash.jpg,Stimuli/Experimental_stims/objects/charlesdeluvio-1-nx1QR5dTE-unsplash.jpg,0,0,1152,1,unchosen,39,34,objects,body_parts,1200,0,9,2
240,76661,0,241,4,4,0,no_gain2,gain1,E,J,32,21,body_parts,82,78,faces,Stimuli/Experimental_stims/body_parts/towfiqu-barbhuiya-3AsiVDsZnHg-unsplash.jpg,Stimuli/Experimental_stims/faces/leilani-angel-K84vnnzxmTQ-unsplash.jpg,0,1,1083,0,unchosen,32,21,body_parts,faces,1000,0,9,2
241,76661,0,242,4,4,1,gain3,no_gain4,D,I,13,29,faces,71,70,body_parts,Stimuli/Experimental_stims/faces/daniel-rigdon-dXmXKPP2L4E-unsplash.jpg,Stimuli/Experimental_stims/body_parts/manuel-schinner-ZwjFuJ7ebpk-unsplash.jpg,0,0,1275,0,chosen,29,13,body_parts,faces,3700,1,9,2
242,76661,0,243,4,4,0,no_gain4,gain1,I,J,29,45,body_parts,70,75,objects,Stimuli/Experimental_stims/body_parts/manuel-schinner-ZwjFuJ7ebpk-unsplash.jpg,Stimuli/Experimental_stims/objects/leohoho-rngTKHXumy0-unsplash.jpg,0,1,1063,0,chosen,29,45,body_parts,objects,1200,0,9,2
243,76661,0,244,4,4,1,gain2,no_gain3,K,B,36,2,objects,77,77,outdoor_scenes,Stimuli/Experimental_stims/objects/alexander-andrews-JYGnB9gTCls-unsplash.jpg,Stimuli/Experimental_stims/outdoor_scenes/bruno-van-der-kraan-qez8mNJ3ilU-unsplash.jpg,1,NaN,,NaN,unchosen,NaN,NaN,NaN,NaN,2600,0,9,2
244,76661,0,245,4,4,1,gain4,no_gain4,G,I,44,4,objects,73,73,outdoor_scenes,Stimuli/Experimental_stims/objects/kuiye-chen-NuOGFo4PudE-unsplash.jpg,Stimuli/Experimental_stims/outdoor_scenes/jarrett-kow-1ZOyYPOBn7I-unsplash.jpg,0,1,1352,1,unchosen,44,4,objects,outdoor_scenes,2400,0,9,2
245,76661,0,246,4,4,1,gain2,no_gain6,K,A,36,46,objects,77,50,objects,Stimuli/Experimental_stims/objects/alexander-andrews-JYGnB9gTCls-unsplash.jpg,Stimuli/Experimental_stims/objects/mockup-graphics-PNsj6RiHAF4-unsplash.jpg,0,1,1203,1,unchosen,36,46,objects,objects,1200,0,9,2
246,76661,0,247,4,4,0,no_gain6,gain6,A,C,0,26,outdoor_scenes,81,77,body_parts,Stimuli/Experimental_stims/outdoor_scenes/aleksandra-boguslawska-MS7KD9Ti7FQ-unsplash.jpg,Stimuli/Experimental_stims/body_parts/engin-akyurt-x_3gyC42btc-unsplash.jpg,0,1,1086,0,chosen,0,26,outdoor_scenes,body_parts,2500,0,9,2
247,76661,0,248,4,4,1,gain2,no_gain5,K,H,36,14,objects,77,74,faces,Stimuli/Experimental_stims/objects/alexander-andrews-JYGnB9gTCls-unsplash.jpg,Stimuli/Experimental_stims/faces/david-siglin-UuW4psOb388-unsplash.jpg,0,1,1043,1,unchosen,36,14,objects,faces,2200,0,9,2
248,76661,0,249,4,4,0,no_gain1,gain3,F,D,23,13,faces,79,71,faces,Stimuli/Experimental_stims/faces/rikonavt-HQjfrvdTfak-unsplash.jpg,Stimuli/Experimental_stims/faces/daniel-rigdon-dXmXKPP2L4E-unsplash.jpg,0,1,1269,0,chosen,23,13,faces,faces,1100,0,9,2
249,76661,0,250,4,4,0,no_gain6,gain1,A,J,0,45,outdoor_scenes,81,75,objects,Stimuli/Experimental_stims/outdoor_scenes/aleksandra-boguslawska-MS7KD9Ti7FQ-unsplash.jpg,Stimuli/Experimental_stims/objects/leohoho-rngTKHXumy0-unsplash.jpg,0,0,1259,1,chosen,45,0,objects,outdoor_scenes,1700,0,9,2
250,76661,0,251,4,4,0,no_gain1,gain2,F,K,34,36,body_parts,30,77,objects,Stimuli/Experimental_stims/body_parts/wagner-santos-mBWMvIuVnso-unsplash.jpg,Stimuli/Experimental_stims/objects/alexander-andrews-JYGnB9gTCls-unsplash.jpg,0,0,759,1,unchosen,36,34,objects,body_parts,1100,0,9,2
251,76661,0,252,4,4,1,gain6,no_gain3,C,B,26,16,body_parts,77,76,faces,Stimuli/Experimental_stims/body_parts/engin-akyurt-x_3gyC42btc-unsplash.jpg,Stimuli/Experimental_stims/faces/freddy-kearney-o-ioeoATbIM-unsplash.jpg,1,NaN,,NaN,chosen,NaN,NaN,NaN,NaN,1900,0,9,2
252,76661,0,253,4,4,1,gain4,no_gain1,G,F,44,34,objects,73,30,body_parts,Stimuli/Experimental_stims/objects/kuiye-chen-NuOGFo4PudE-unsplash.jpg,Stimuli/Experimental_stims/body_parts/wagner-santos-mBWMvIuVnso-unsplash.jpg,0,1,1206,1,unchosen,44,34,objects,body_parts,1100,0,9,2
253,76661,0,254,4,4,1,gain4,no_gain5,G,H,44,14,objects,73,74,faces,Stimuli/Experimental_stims/objects/kuiye-chen-NuOGFo4PudE-unsplash.jpg,Stimuli/Experimental_stims/faces/david-siglin-UuW4psOb388-unsplash.jpg,0,1,1049,1,unchosen,44,14,objects,faces,1000,0,9,2
254,76661,0,255,4,4,1,gain6,no_gain6,C,A,11,46,outdoor_scenes,73,50,objects,Stimuli/Experimental_stims/outdoor_scenes/stephen-leonardi-gyIRjKPXupE-unsplash.jpg,Stimuli/Experimental_stims/objects/mockup-graphics-PNsj6RiHAF4-unsplash.jpg,1,NaN,,NaN,unchosen,NaN,NaN,NaN,NaN,1600,0,9,2
255,76661,0,256,4,4,0,no_gain4,gain5,I,L,29,18,body_parts,70,78,faces,Stimuli/Experimental_stims/body_parts/manuel-schinner-ZwjFuJ7ebpk-unsplash.jpg,Stimuli/Experimental_stims/faces/jessica-radanavong-mrYkTuAesKE-unsplash.jpg,0,1,1133,0,chosen,29,18,body_parts,faces,2700,0,9,2
256,76661,0,257,4,4,1,gain4,no_gain6,G,A,44,46,objects,73,50,objects,Stimuli/Experimental_stims/objects/kuiye-chen-NuOGFo4PudE-unsplash.jpg,Stimuli/Experimental_stims/objects/mockup-graphics-PNsj6RiHAF4-unsplash.jpg,0,1,920,1,unchosen,44,46,objects,objects,3500,1,9,2
257,76661,0,258,4,4,0,no_gain2,gain6,E,C,32,11,body_parts,82,73,outdoor_scenes,Stimuli/Experimental_stims/body_parts/towfiqu-barbhuiya-3AsiVDsZnHg-unsplash.jpg,Stimuli/Experimental_stims/outdoor_scenes/stephen-leonardi-gyIRjKPXupE-unsplash.jpg,0,1,775,0,unchosen,32,11,body_parts,outdoor_scenes,1000,0,9,2
258,76661,0,259,4,4,0,no_gain2,gain3,E,D,32,39,body_parts,82,74,objects,Stimuli/Experimental_stims/body_parts/towfiqu-barbhuiya-3AsiVDsZnHg-unsplash.jpg,Stimuli/Experimental_stims/objects/charlesdeluvio-1-nx1QR5dTE-unsplash.jpg,0,0,1118,1,unchosen,39,32,objects,body_parts,1700,0,9,2
259,76661,0,260,4,4,1,gain2,no_gain5,K,H,33,3,body_parts,77,82,outdoor_scenes,Stimuli/Experimental_stims/body_parts/tucker-good-36skLT5jZcc-unsplash.jpg,Stimuli/Experimental_stims/outdoor_scenes/henry-be-NLF6hTe4PAg-unsplash.jpg,0,1,996,1,chosen,33,3,body_parts,outdoor_scenes,1500,0,9,2
260,76661,0,261,4,4,1,gain3,no_gain5,D,H,13,3,faces,71,82,outdoor_scenes,Stimuli/Experimental_stims/faces/daniel-rigdon-dXmXKPP2L4E-unsplash.jpg,Stimuli/Experimental_stims/outdoor_scenes/henry-be-NLF6hTe4PAg-unsplash.jpg,0,1,1110,1,chosen,13,3,faces,outdoor_scenes,1400,0,9,2
261,76661,0,262,4,4,1,gain5,no_gain3,L,B,18,16,faces,78,76,faces,Stimuli/Experimental_stims/faces/jessica-radanavong-mrYkTuAesKE-unsplash.jpg,Stimuli/Experimental_stims/faces/freddy-kearney-o-ioeoATbIM-unsplash.jpg,0,1,1249,1,chosen,18,16,faces,faces,1300,0,9,2
262,76661,0,263,4,4,1,gain5,no_gain5,L,H,35,14,body_parts,87,74,faces,Stimuli/Experimental_stims/body_parts/wc-so-KH4AAPjb-tI-unsplash.jpg,Stimuli/Experimental_stims/faces/david-siglin-UuW4psOb388-unsplash.jpg,0,0,1402,0,unchosen,14,35,faces,body_parts,4500,1,9,2
263,76661,0,264,4,4,0,no_gain5,gain6,H,C,14,11,faces,74,73,outdoor_scenes,Stimuli/Experimental_stims/faces/david-siglin-UuW4psOb388-unsplash.jpg,Stimuli/Experimental_stims/outdoor_scenes/stephen-leonardi-gyIRjKPXupE-unsplash.jpg,0,1,801,0,unchosen,14,11,faces,outdoor_scenes,1900,0,9,2
264,76661,0,265,4,4,0,no_gain6,gain1,A,J,46,21,objects,50,78,faces,Stimuli/Experimental_stims/objects/mockup-graphics-PNsj6RiHAF4-unsplash.jpg,Stimuli/Experimental_stims/faces/leilani-angel-K84vnnzxmTQ-unsplash.jpg,0,1,1194,0,unchosen,46,21,objects,faces,1900,0,9,2
265,76661,0,266,4,4,1,gain5,no_gain5,L,H,18,3,faces,78,82,outdoor_scenes,Stimuli/Experimental_stims/faces/jessica-radanavong-mrYkTuAesKE-unsplash.jpg,Stimuli/Experimental_stims/outdoor_scenes/henry-be-NLF6hTe4PAg-unsplash.jpg,0,1,1078,1,chosen,18,3,faces,outdoor_scenes,1600,0,9,2
266,76661,0,267,4,4,0,no_gain2,gain4,E,G,41,8,objects,76,79,outdoor_scenes,Stimuli/Experimental_stims/objects/insung-yoon-w2JtIQQXoRU-unsplash.jpg,Stimuli/Experimental_stims/outdoor_scenes/samsommer-vddccTqwal8-unsplash.jpg,0,1,1041,0,chosen,41,8,objects,outdoor_scenes,2300,0,9,2
267,76661,0,268,4,4,1,gain6,no_gain2,C,E,26,41,body_parts,77,76,objects,Stimuli/Experimental_stims/body_parts/engin-akyurt-x_3gyC42btc-unsplash.jpg,Stimuli/Experimental_stims/objects/insung-yoon-w2JtIQQXoRU-unsplash.jpg,0,0,850,0,chosen,41,26,objects,body_parts,3700,1,9,2
268,76661,0,269,4,4,0,no_gain3,gain3,B,D,2,39,outdoor_scenes,77,74,objects,Stimuli/Experimental_stims/outdoor_scenes/bruno-van-der-kraan-qez8mNJ3ilU-unsplash.jpg,Stimuli/Experimental_stims/objects/charlesdeluvio-1-nx1QR5dTE-unsplash.jpg,0,0,831,1,unchosen,39,2,objects,outdoor_scenes,1200,0,9,2
269,76661,0,270,4,4,1,gain4,no_gain3,G,B,44,2,objects,73,77,outdoor_scenes,Stimuli/Experimental_stims/objects/kuiye-chen-NuOGFo4PudE-unsplash.jpg,Stimuli/Experimental_stims/outdoor_scenes/bruno-van-der-kraan-qez8mNJ3ilU-unsplash.jpg,0,1,1142,1,unchosen,44,2,objects,outdoor_scenes,1900,0,9,2
270,76661,0,271,4,4,0,no_gain3,gain1,B,J,2,21,outdoor_scenes,77,78,faces,Stimuli/Experimental_stims/outdoor_scenes/bruno-van-der-kraan-qez8mNJ3ilU-unsplash.jpg,Stimuli/Experimental_stims/faces/leilani-angel-K84vnnzxmTQ-unsplash.jpg,0,1,1013,0,unchosen,2,21,outdoor_scenes,faces,2000,0,9,2
271,76661,0,272,4,4,1,gain1,no_gain3,J,B,45,16,objects,75,76,faces,Stimuli/Experimental_stims/objects/leohoho-rngTKHXumy0-unsplash.jpg,Stimuli/Experimental_stims/faces/freddy-kearney-o-ioeoATbIM-unsplash.jpg,0,1,1030,1,chosen,45,16,objects,faces,2700,0,9,2
272,76661,0,273,4,4,1,gain6,no_gain5,C,H,26,3,body_parts,77,82,outdoor_scenes,Stimuli/Experimental_stims/body_parts/engin-akyurt-x_3gyC42btc-unsplash.jpg,Stimuli/Experimental_stims/outdoor_scenes/henry-be-NLF6hTe4PAg-unsplash.jpg,0,1,1130,1,chosen,26,3,body_parts,outdoor_scenes,1100,0,9,2
273,76661,0,274,4,4,0,no_gain2,gain1,E,J,41,45,objects,76,75,objects,Stimuli/Experimental_stims/objects/insung-yoon-w2JtIQQXoRU-unsplash.jpg,Stimuli/Experimental_stims/objects/leohoho-rngTKHXumy0-unsplash.jpg,0,1,1098,0,chosen,41,45,objects,objects,4200,1,9,2
274,76661,0,275,4,4,1,gain3,no_gain6,D,A,39,46,objects,74,50,objects,Stimuli/Experimental_stims/objects/charlesdeluvio-1-nx1QR5dTE-unsplash.jpg,Stimuli/Experimental_stims/objects/mockup-graphics-PNsj6RiHAF4-unsplash.jpg,0,1,958,1,unchosen,39,46,objects,objects,1300,0,9,2
275,76661,0,276,4,4,1,gain1,no_gain5,J,H,45,3,objects,75,82,outdoor_scenes,Stimuli/Experimental_stims/objects/leohoho-rngTKHXumy0-unsplash.jpg,Stimuli/Experimental_stims/outdoor_scenes/henry-be-NLF6hTe4PAg-unsplash.jpg,0,1,1051,1,chosen,45,3,objects,outdoor_scenes,2000,0,9,2
276,76661,0,277,4,4,0,no_gain3,gain2,B,K,16,33,faces,76,77,body_parts,Stimuli/Experimental_stims/faces/freddy-kearney-o-ioeoATbIM-unsplash.jpg,Stimuli/Experimental_stims/body_parts/tucker-good-36skLT5jZcc-unsplash.jpg,0,0,1082,1,chosen,33,16,body_parts,faces,1100,0,9,2
277,76661,0,278,4,4,1,gain5,no_gain1,L,F,35,34,body_parts,87,30,body_parts,Stimuli/Experimental_stims/body_parts/wc-so-KH4AAPjb-tI-unsplash.jpg,Stimuli/Experimental_stims/body_parts/wagner-santos-mBWMvIuVnso-unsplash.jpg,0,1,1026,1,unchosen,35,34,body_parts,body_parts,2300,0,9,2
278,76661,0,279,4,4,1,gain2,no_gain2,K,E,33,41,body_parts,77,76,objects,Stimuli/Experimental_stims/body_parts/tucker-good-36skLT5jZcc-unsplash.jpg,Stimuli/Experimental_stims/objects/insung-yoon-w2JtIQQXoRU-unsplash.jpg,0,0,941,0,chosen,41,33,objects,body_parts,2900,0,9,2
279,76661,0,280,4,4,0,no_gain2,gain5,E,L,41,18,objects,76,78,faces,Stimuli/Experimental_stims/objects/insung-yoon-w2JtIQQXoRU-unsplash.jpg,Stimuli/Experimental_stims/faces/jessica-radanavong-mrYkTuAesKE-unsplash.jpg,0,1,745,0,chosen,41,18,objects,faces,1200,0,9,2
280,76661,0,281,4,4,1,gain5,no_gain6,L,A,18,0,faces,78,81,outdoor_scenes,Stimuli/Experimental_stims/faces/jessica-radanavong-mrYkTuAesKE-unsplash.jpg,Stimuli/Experimental_stims/outdoor_scenes/aleksandra-boguslawska-MS7KD9Ti7FQ-unsplash.jpg,1,NaN,,NaN,chosen,NaN,NaN,NaN,NaN,1500,0,9,2
281,76661,0,282,4,4,1,gain6,no_gain3,C,B,11,2,outdoor_scenes,73,77,outdoor_scenes,Stimuli/Experimental_stims/outdoor_scenes/stephen-leonardi-gyIRjKPXupE-unsplash.jpg,Stimuli/Experimental_stims/outdoor_scenes/bruno-van-der-kraan-qez8mNJ3ilU-unsplash.jpg,0,1,1049,1,unchosen,11,2,outdoor_scenes,outdoor_scenes,1100,0,9,2
282,76661,0,283,4,4,0,no_gain6,gain4,A,G,0,8,outdoor_scenes,81,79,outdoor_scenes,Stimuli/Experimental_stims/outdoor_scenes/aleksandra-boguslawska-MS7KD9Ti7FQ-unsplash.jpg,Stimuli/Experimental_stims/outdoor_scenes/samsommer-vddccTqwal8-unsplash.jpg,0,1,601,0,chosen,0,8,outdoor_scenes,outdoor_scenes,1200,0,9,2
283,76661,0,284,4,4,0,no_gain4,gain2,I,K,29,33,body_parts,70,77,body_parts,Stimuli/Experimental_stims/body_parts/manuel-schinner-ZwjFuJ7ebpk-unsplash.jpg,Stimuli/Experimental_stims/body_parts/tucker-good-36skLT5jZcc-unsplash.jpg,0,0,783,1,chosen,33,29,body_parts,body_parts,1400,0,9,2
284,76661,0,285,4,4,1,gain2,no_gain4,K,I,36,4,objects,77,73,outdoor_scenes,Stimuli/Experimental_stims/objects/alexander-andrews-JYGnB9gTCls-unsplash.jpg,Stimuli/Experimental_stims/outdoor_scenes/jarrett-kow-1ZOyYPOBn7I-unsplash.jpg,0,1,824,1,unchosen,36,4,objects,outdoor_scenes,1100,0,9,2
285,76661,0,286,4,4,1,gain3,no_gain6,D,A,13,0,faces,71,81,outdoor_scenes,Stimuli/Experimental_stims/faces/daniel-rigdon-dXmXKPP2L4E-unsplash.jpg,Stimuli/Experimental_stims/outdoor_scenes/aleksandra-boguslawska-MS7KD9Ti7FQ-unsplash.jpg,0,0,954,0,chosen,0,13,outdoor_scenes,faces,2100,0,9,2
286,76661,0,287,4,4,0,no_gain1,gain1,F,J,34,21,body_parts,30,78,faces,Stimuli/Experimental_stims/body_parts/wagner-santos-mBWMvIuVnso-unsplash.jpg,Stimuli/Experimental_stims/faces/leilani-angel-K84vnnzxmTQ-unsplash.jpg,0,1,649,0,unchosen,34,21,body_parts,faces,3300,1,9,2
287,76661,0,288,4,4,0,no_gain1,gain6,F,C,34,11,body_parts,30,73,outdoor_scenes,Stimuli/Experimental_stims/body_parts/wagner-santos-mBWMvIuVnso-unsplash.jpg,Stimuli/Experimental_stims/outdoor_scenes/stephen-leonardi-gyIRjKPXupE-unsplash.jpg,0,1,814,0,unchosen,34,11,body_parts,outdoor_scenes,1900,0,9,2
288,76661,0,289,4,4,0,no_gain1,gain5,F,L,23,18,faces,79,78,faces,Stimuli/Experimental_stims/faces/rikonavt-HQjfrvdTfak-unsplash.jpg,Stimuli/Experimental_stims/faces/jessica-radanavong-mrYkTuAesKE-unsplash.jpg,0,1,748,0,chosen,23,18,faces,faces,2000,0,9,2
289,76661,0,290,4,4,0,no_gain4,gain6,I,C,29,26,body_parts,70,77,body_parts,Stimuli/Experimental_stims/body_parts/manuel-schinner-ZwjFuJ7ebpk-unsplash.jpg,Stimuli/Experimental_stims/body_parts/engin-akyurt-x_3gyC42btc-unsplash.jpg,0,1,897,0,chosen,29,26,body_parts,body_parts,1100,0,9,2
290,76661,0,291,4,4,1,gain3,no_gain5,D,H,39,14,objects,74,74,faces,Stimuli/Experimental_stims/objects/charlesdeluvio-1-nx1QR5dTE-unsplash.jpg,Stimuli/Experimental_stims/faces/david-siglin-UuW4psOb388-unsplash.jpg,0,1,1106,1,unchosen,39,14,objects,faces,1800,0,9,2
291,76661,0,292,4,4,0,no_gain1,gain1,F,J,23,45,faces,79,75,objects,Stimuli/Experimental_stims/faces/rikonavt-HQjfrvdTfak-unsplash.jpg,Stimuli/Experimental_stims/objects/leohoho-rngTKHXumy0-unsplash.jpg,0,1,1110,0,chosen,23,45,faces,objects,3200,1,9,2