,PID,practice,trial,block,run,gain_left,left_item_id,right_item_id,left_pair_id,right_pair_id,left_stimulus,right_stimulus,left_category,right_category,left_rating,right_rating,left_path,right_path,no_response,left_chosen,rt,higher_outcome_chosen,choice_type,chosen_stimulus,unchosen_stimulus,chosen_category,unchosen_category,iti,long_iti,simulation,version
0,30126,1,1,0,0,0,,,,,,,,,,,Stimuli/Practice_stims/Final_decisions/debby-hudson-FmCSSSGge-0-unsplash.jpg,Stimuli/Practice_stims/Final_decisions/yassine-khalfalli-adsQ9d_Cx0c-unsplash.jpg,0,1,765,0,,,,,,3000,0,9,3
1,30126,1,2,0,0,0,,,,,,,,,,,Stimuli/Practice_stims/Final_decisions/florian-wehde-iVW7mZPwd4g-unsplash.jpg,Stimuli/Practice_stims/Final_decisions/patrick-perkins-3wylDrjxH-E-unsplash.jpg,0,0,1068,1,,,,,,1500,0,9,3
2,30126,1,3,0,0,0,,,,,,,,,,,Stimuli/Practice_stims/Final_decisions/debby-hudson-FmCSSSGge-0-unsplash.jpg,Stimuli/Practice_stims/Final_decisions/florian-wehde-iVW7mZPwd4g-unsplash.jpg,0,1,951,0,,,,,,2000,0,9,3
3,30126,1,4,0,0,0,,,,,,,,,,,Stimuli/Practice_stims/Final_decisions/yassine-khalfalli-adsQ9d_Cx0c-unsplash.jpg,Stimuli/Practice_stims/Final_decisions/debby-hudson-FmCSSSGge-0-unsplash.jpg,0,0,1330,1,,,,,,1000,0,9,3
4,30126,0,5,1,1,1,gain5,no_gain5,F,J,17,20,faces,faces,32,44,Stimuli/Experimental_stims/faces/good-faces-xmSWVeGEnJw-unsplash.jpg,Stimuli/Experimental_stims/faces/justin-chen-J7Cf1Gch49E-unsplash.jpg,0,0,1389,0,unchosen,20,17,faces,faces,4700,1,9,3
5,30126,0,6,1,1,1,gain3,no_gain2,B,L,11,18,outdoor_scenes,faces,78,43,Stimuli/Experimental_stims/outdoor_scenes/stephen-leonardi-gyIRjKPXupE-unsplash.jpg,Stimuli/Experimental_stims/faces/jessica-radanavong-mrYkTuAesKE-unsplash.jpg,0,1,1313,1,unchosen,11,18,outdoor_scenes,faces,2300,0,9,3
6,30126,0,7,1,1,1,gain1,no_gain2,G,L,3,18,outdoor_scenes,faces,59,43,Stimuli/Experimental_stims/outdoor_scenes/henry-be-NLF6hTe4PAg-unsplash.jpg,Stimuli/Experimental_stims/faces/jessica-radanavong-mrYkTuAesKE-unsplash.jpg,0,1,1363,1,unchosen,3,18,outdoor_scenes,faces,1100,0,9,3
7,30126,0,8,1,1,0,no_gain4,gain5,A,F,39,24,objects,body_parts,67,42,Stimuli/Experimental_stims/objects/charlesdeluvio-1-nx1QR5dTE-unsplash.jpg,Stimuli/Experimental_stims/body_parts/clay-banks-LjqARJaJotc-unsplash.jpg,1,NaN,,NaN,chosen,NaN,NaN,NaN,NaN,1600,0,9,3
8,30126,0,9,1,1,0,no_gain5,gain1,J,G,20,3,faces,outdoor_scenes,44,59,Stimuli/Experimental_stims/faces/justin-chen-J7Cf1Gch49E-unsplash.jpg,Stimuli/Experimental_stims/outdoor_scenes/henry-be-NLF6hTe4PAg-unsplash.jpg,0,1,1157,0,unchosen,20,3,faces,outdoor_scenes,2300,0,9,3
9,30126,0,10,1,1,0,no_gain4,gain1,A,G,39,36,objects,objects,67,14,Stimuli/Experimental_stims/objects/charlesdeluvio-1-nx1QR5dTE-unsplash.jpg,Stimuli/Experimental_stims/objects/alexander-andrews-JYGnB9gTCls-unsplash.jpg,1,NaN,,NaN,chosen,NaN,NaN,NaN,NaN,1500,0,9,3
10,30126,0,11,1,1,1,gain1,no_gain3,G,I,36,35,objects,body_parts,14,42,Stimuli/Experimental_stims/objects/alexander-andrews-JYGnB9gTCls-unsplash.jpg,Stimuli/Experimental_stims/body_parts/wc-so-KH4AAPjb-tI-unsplash.jpg,1,NaN,,NaN,chosen,NaN,NaN,NaN,NaN,1500,0,9,3
11,30126,0,12,1,1,0,no_gain1,gain1,H,G,9,36,outdoor_scenes,objects,59,14,Stimuli/Experimental_stims/outdoor_scenes/sergey-pesterev-y-b_FOmJXdg-unsplash.jpg,Stimuli/Experimental_stims/objects/alexander-andrews-JYGnB9gTCls-unsplash.jpg,0,1,620,0,chosen,9,36,outdoor_scenes,objects,1200,0,9,3
12,30126,0,13,1,1,1,gain6,no_gain1,C,H,34,14,body_parts,faces,15,19,Stimuli/Experimental_stims/body_parts/wagner-santos-mBWMvIuVnso-unsplash.jpg,Stimuli/Experimental_stims/faces/david-siglin-UuW4psOb388-unsplash.jpg,0,0,1467,0,unchosen,14,34,faces,body_parts,1300,0,9,3
13,30126,0,14,1,1,0,no_gain1,gain4,H,D,9,47,outdoor_scenes,objects,59,56,Stimuli/Experimental_stims/outdoor_scenes/sergey-pesterev-y-b_FOmJXdg-unsplash.jpg,Stimuli/Experimental_stims/objects/ronaldo-arthur-vidal-Cdz_lvnl37k-unsplash.jpg,0,1,1441,0,chosen,9,47,outdoor_scenes,objects,1200,0,9,3
14,30126,0,15,1,1,1,gain6,no_gain4,C,A,34,2,body_parts,outdoor_scenes,15,72,Stimuli/Experimental_stims/body_parts/wagner-santos-mBWMvIuVnso-unsplash.jpg,Stimuli/Experimental_stims/outdoor_scenes/bruno-van-der-kraan-qez8mNJ3ilU-unsplash.jpg,0,0,1319,0,unchosen,2,34,outdoor_scenes,body_parts,4100,1,9,3
15,30126,0,16,1,1,1,gain4,no_gain4,D,A,22,2,faces,outdoor_scenes,46,72,Stimuli/Experimental_stims/faces/ravi-patel-VMGAbeeJTKo-unsplash.jpg,Stimuli/Experimental_stims/outdoor_scenes/bruno-van-der-kraan-qez8mNJ3ilU-unsplash.jpg,0,0,1375,0,unchosen,2,22,outdoor_scenes,faces,1200,0,9,3
16,30126,0,17,1,1,1,gain5,no_gain6,F,E,24,46,body_parts,objects,42,46,Stimuli/Experimental_stims/body_parts/clay-banks-LjqARJaJotc-unsplash.jpg,Stimuli/Experimental_stims/objects/mockup-graphics-PNsj6RiHAF4-unsplash.jpg,0,1,1307,1,chosen,24,46,body_parts,objects,1200,0,9,3
17,30126,0,18,1,1,0,no_gain3,gain3,I,B,10,11,outdoor_scenes,outdoor_scenes,68,78,Stimuli/Experimental_stims/outdoor_scenes/shannon-kunkle-dM8INmkyDas-unsplash.jpg,Stimuli/Experimental_stims/outdoor_scenes/stephen-leonardi-gyIRjKPXupE-unsplash.jpg,1,NaN,,NaN,unchosen,NaN,NaN,NaN,NaN,1600,0,9,3
18,30126,0,19,1,1,0,no_gain4,gain3,A,B,39,12,objects,faces,67,61,Stimuli/Experimental_stims/objects/charlesdeluvio-1-nx1QR5dTE-unsplash.jpg,Stimuli/Experimental_stims/faces/aiony-haust-jmATI5Q_YgY-unsplash.jpg,0,1,1125,0,chosen,39,12,objects,faces,1400,0,9,3
19,30126,0,20,1,1,0,no_gain2,gain2,L,K,18,42,faces,objects,43,21,Stimuli/Experimental_stims/faces/jessica-radanavong-mrYkTuAesKE-unsplash.jpg,Stimuli/Experimental_stims/objects/jess-bailey-nOeVi8DsN8U-unsplash.jpg,0,0,1126,1,unchosen,42,18,objects,faces,4300,1,9,3
20,30126,0,21,1,1,1,gain2,no_gain4,K,A,26,39,body_parts,objects,41,67,Stimuli/Experimental_stims/body_parts/engin-akyurt-x_3gyC42btc-unsplash.jpg,Stimuli/Experimental_stims/objects/charlesdeluvio-1-nx1QR5dTE-unsplash.jpg,0,1,1043,1,chosen,26,39,body_parts,objects,1500,0,9,3
21,30126,0,22,1,1,1,gain2,no_gain5,K,J,26,43,body_parts,objects,41,82,Stimuli/Experimental_stims/body_parts/engin-akyurt-x_3gyC42btc-unsplash.jpg,Stimuli/Experimental_stims/objects/jonathan-greenaway-Y4hGgeiFn3s-unsplash.jpg,0,0,939,0,chosen,43,26,objects,body_parts,1400,0,9,3
22,30126,0,23,1,1,1,gain4,no_gain2,D,L,22,18,faces,faces,46,43,Stimuli/Experimental_stims/faces/ravi-patel-VMGAbeeJTKo-unsplash.jpg,Stimuli/Experimental_stims/faces/jessica-radanavong-mrYkTuAesKE-unsplash.jpg,0,1,1149,1,unchosen,22,18,faces,faces,1300,0,9,3
23,30126,0,24,1,1,1,gain2,no_gain6,K,E,42,32,objects,body_parts,21,34,Stimuli/Experimental_stims/objects/jess-bailey-nOeVi8DsN8U-unsplash.jpg,Stimuli/Experimental_stims/body_parts/towfiqu-barbhuiya-3AsiVDsZnHg-unsplash.jpg,0,1,1159,1,unchosen,42,32,objects,body_parts,1000,0,9,3
24,30126,0,25,1,1,0,no_gain1,gain5,H,F,9,24,outdoor_scenes,body_parts,59,42,Stimuli/Experimental_stims/outdoor_scenes/sergey-pesterev-y-b_FOmJXdg-unsplash.jpg,Stimuli/Experimental_stims/body_parts/clay-banks-LjqARJaJotc-unsplash.jpg,1,NaN,,NaN,chosen,NaN,NaN,NaN,NaN,3100,1,9,3
25,30126,0,26,1,1,1,gain2,no_gain1,K,H,26,9,body_parts,outdoor_scenes,41,59,Stimuli/Experimental_stims/body_parts/engin-akyurt-x_3gyC42btc-unsplash.jpg,Stimuli/Experimental_stims/outdoor_scenes/sergey-pesterev-y-b_FOmJXdg-unsplash.jpg,0,1,1020,1,chosen,26,9,body_parts,outdoor_scenes,2700,0,9,3
26,30126,0,27,1,1,1,gain2,no_gain2,K,L,26,27,body_parts,body_parts,41,75,Stimuli/Experimental_stims/body_parts/engin-akyurt-x_3gyC42btc-unsplash.jpg,Stimuli/Experimental_stims/body_parts/heike-mintel-i_Gns0ELnLw-unsplash.jpg,1,NaN,,NaN,chosen,NaN,NaN,NaN,NaN,1400,0,9,3
27,30126,0,28,1,1,1,gain4,no_gain3,D,I,22,10,faces,outdoor_scenes,46,68,Stimuli/Experimental_stims/faces/ravi-patel-VMGAbeeJTKo-unsplash.jpg,Stimuli/Experimental_stims/outdoor_scenes/shannon-kunkle-dM8INmkyDas-unsplash.jpg,0,1,1248,1,unchosen,22,10,faces,outdoor_scenes,1100,0,9,3
28,30126,0,29,1,1,0,no_gain1,gain3,H,B,14,11,faces,outdoor_scenes,19,78,Stimuli/Experimental_stims/faces/david-siglin-UuW4psOb388-unsplash.jpg,Stimuli/Experimental_stims/outdoor_scenes/stephen-leonardi-gyIRjKPXupE-unsplash.jpg,1,NaN,,NaN,unchosen,NaN,NaN,NaN,NaN,1900,0,9,3
29,30126,0,30,1,1,1,gain6,no_gain4,C,A,0,39,outdoor_scenes,objects,69,67,Stimuli/Experimental_stims/outdoor_scenes/aleksandra-boguslawska-MS7KD9Ti7FQ-unsplash.jpg,Stimuli/Experimental_stims/objects/charlesdeluvio-1-nx1QR5dTE-unsplash.jpg,0,1,1314,1,chosen,0,39,outdoor_scenes,objects,1200,0,9,3
30,30126,0,31,1,1,1,gain5,no_gain3,F,I,24,35,body_parts,body_parts,42,42,Stimuli/Experimental_stims/body_parts/clay-banks-LjqARJaJotc-unsplash.jpg,Stimuli/Experimental_stims/body_parts/wc-so-KH4AAPjb-tI-unsplash.jpg,0,0,1040,0,chosen,35,24,body_parts,body_parts,2300,0,9,3
31,30126,0,32,1,1,0,no_gain3,gain5,I,F,10,17,outdoor_scenes,faces,68,32,Stimuli/Experimental_stims/outdoor_scenes/shannon-kunkle-dM8INmkyDas-unsplash.jpg,Stimuli/Experimental_stims/faces/good-faces-xmSWVeGEnJw-unsplash.jpg,0,0,1512,1,unchosen,17,10,faces,outdoor_scenes,2000,0,9,3
32,30126,0,33,1,1,1,gain6,no_gain6,C,E,0,46,outdoor_scenes,objects,69,46,Stimuli/Experimental_stims/outdoor_scenes/aleksandra-boguslawska-MS7KD9Ti7FQ-unsplash.jpg,Stimuli/Experimental_stims/objects/mockup-graphics-PNsj6RiHAF4-unsplash.jpg,0,1,1398,1,chosen,0,46,outdoor_scenes,objects,2000,0,9,3
33,30126,0,34,1,1,0,no_gain6,gain6,E,C,32,34,body_parts,body_parts,34,15,Stimuli/Experimental_stims/body_parts/towfiqu-barbhuiya-3AsiVDsZnHg-unsplash.jpg,Stimuli/Experimental_stims/body_parts/wagner-santos-mBWMvIuVnso-unsplash.jpg,0,0,970,1,unchosen,34,32,body_parts,body_parts,1300,0,9,3
34,30126,0,35,1,1,0,no_gain6,gain1,E,G,32,3,body_parts,outdoor_scenes,34,59,Stimuli/Experimental_stims/body_parts/towfiqu-barbhuiya-3AsiVDsZnHg-unsplash.jpg,Stimuli/Experimental_stims/outdoor_scenes/henry-be-NLF6hTe4PAg-unsplash.jpg,0,1,1494,0,unchosen,32,3,body_parts,outdoor_scenes,3100,1,9,3
35,30126,0,36,1,1,0,no_gain3,gain2,I,K,35,26,body_parts,body_parts,42,41,Stimuli/Experimental_stims/body_parts/wc-so-KH4AAPjb-tI-unsplash.jpg,Stimuli/Experimental_stims/body_parts/engin-akyurt-x_3gyC42btc-unsplash.jpg,1,NaN,,NaN,chosen,NaN,NaN,NaN,NaN,2600,0,9,3
36,30126,0,37,1,1,0,no_gain6,gain4,E,D,32,22,body_parts,faces,34,46,Stimuli/Experimental_stims/body_parts/towfiqu-barbhuiya-3AsiVDsZnHg-unsplash.jpg,Stimuli/Experimental_stims/faces/ravi-patel-VMGAbeeJTKo-unsplash.jpg,0,1,895,0,unchosen,32,22,body_parts,faces,1200,0,9,3
37,30126,0,38,1,1,1,gain4,no_gain5,D,J,22,20,faces,faces,46,44,Stimuli/Experimental_stims/faces/ravi-patel-VMGAbeeJTKo-unsplash.jpg,Stimuli/Experimental_stims/faces/justin-chen-J7Cf1Gch49E-unsplash.jpg,0,1,1300,1,unchosen,22,20,faces,faces,1700,0,9,3
38,30126,0,39,1,1,1,gain2,no_gain5,K,J,42,20,objects,faces,21,44,Stimuli/Experimental_stims/objects/jess-bailey-nOeVi8DsN8U-unsplash.jpg,Stimuli/Experimental_stims/faces/justin-chen-J7Cf1Gch49E-unsplash.jpg,0,0,1142,0,unchosen,20,42,faces,objects,1600,0,9,3
39,30126,0,40,1,1,0,no_gain1,gain3,H,B,9,12,outdoor_scenes,faces,59,61,Stimuli/Experimental_stims/outdoor_scenes/sergey-pesterev-y-b_FOmJXdg-unsplash.jpg,Stimuli/Experimental_stims/faces/aiony-haust-jmATI5Q_YgY-unsplash.jpg,0,1,1246,0,chosen,9,12,outdoor_scenes,faces,4400,1,9,3
40,30126,0,41,1,1,1,gain1,no_gain5,G,J,36,43,objects,objects,14,82,Stimuli/Experimental_stims/objects/alexander-andrews-JYGnB9gTCls-unsplash.jpg,Stimuli/Experimental_stims/objects/jonathan-greenaway-Y4hGgeiFn3s-unsplash.jpg,0,1,1296,1,chosen,36,43,objects,objects,1600,0,9,3
41,30126,0,42,1,1,0,no_gain4,gain3,A,B,2,11,outdoor_scenes,outdoor_scenes,72,78,Stimuli/Experimental_stims/outdoor_scenes/bruno-van-der-kraan-qez8mNJ3ilU-unsplash.jpg,Stimuli/Experimental_stims/outdoor_scenes/stephen-leonardi-gyIRjKPXupE-unsplash.jpg,0,1,1227,0,unchosen,2,11,outdoor_scenes,outdoor_scenes,1700,0,9,3
42,30126,0,43,1,1,1,gain6,no_gain2,C,L,0,27,outdoor_scenes,body_parts,69,75,Stimuli/Experimental_stims/outdoor_scenes/aleksandra-boguslawska-MS7KD9Ti7FQ-unsplash.jpg,Stimuli/Experimental_stims/body_parts/heike-mintel-i_Gns0ELnLw-unsplash.jpg,0,0,1090,0,chosen,27,0,body_parts,outdoor_scenes,1900,0,9,3
43,30126,0,44,1,1,1,gain4,no_gain4,D,A,47,39,objects,objects,56,67,Stimuli/Experimental_stims/objects/ronaldo-arthur-vidal-Cdz_lvnl37k-unsplash.jpg,Stimuli/Experimental_stims/objects/charlesdeluvio-1-nx1QR5dTE-unsplash.jpg,0,1,1183,1,chosen,47,39,objects,objects,1900,0,9,3
44,30126,0,45,1,1,0,no_gain4,gain1,A,G,2,3,outdoor_scenes,outdoor_scenes,72,59,Stimuli/Experimental_stims/outdoor_scenes/bruno-van-der-kraan-qez8mNJ3ilU-unsplash.jpg,Stimuli/Experimental_stims/outdoor_scenes/henry-be-NLF6hTe4PAg-unsplash.jpg,0,0,1049,1,unchosen,3,2,outdoor_scenes,outdoor_scenes,2000,0,9,3
45,30126,0,46,1,1,0,no_gain2,gain1,L,G,27,36,body_parts,objects,75,14,Stimuli/Experimental_stims/body_parts/heike-mintel-i_Gns0ELnLw-unsplash.jpg,Stimuli/Experimental_stims/objects/alexander-andrews-JYGnB9gTCls-unsplash.jpg,0,1,1167,0,chosen,27,36,body_parts,objects,2200,0,9,3
46,30126,0,47,1,1,0,no_gain5,gain5,J,F,43,24,objects,body_parts,82,42,Stimuli/Experimental_stims/objects/jonathan-greenaway-Y4hGgeiFn3s-unsplash.jpg,Stimuli/Experimental_stims/body_parts/clay-banks-LjqARJaJotc-unsplash.jpg,0,0,1104,1,chosen,24,43,body_parts,objects,3000,0,9,3
47,30126,0,48,1,1,0,no_gain2,gain3,L,B,27,12,body_parts,faces,75,61,Stimuli/Experimental_stims/body_parts/heike-mintel-i_Gns0ELnLw-unsplash.jpg,Stimuli/Experimental_stims/faces/aiony-haust-jmATI5Q_YgY-unsplash.jpg,0,1,979,0,chosen,27,12,body_parts,faces,4200,1,9,3
48,30126,0,49,1,1,0,no_gain6,gain3,E,B,32,11,body_parts,outdoor_scenes,34,78,Stimuli/Experimental_stims/body_parts/towfiqu-barbhuiya-3AsiVDsZnHg-unsplash.jpg,Stimuli/Experimental_stims/outdoor_scenes/stephen-leonardi-gyIRjKPXupE-unsplash.jpg,0,0,1257,1,unchosen,11,32,outdoor_scenes,body_parts,2100,0,9,3
49,30126,0,50,1,1,0,no_gain5,gain4,J,D,43,47,objects,objects,82,56,Stimuli/Experimental_stims/objects/jonathan-greenaway-Y4hGgeiFn3s-unsplash.jpg,Stimuli/Experimental_stims/objects/ronaldo-arthur-vidal-Cdz_lvnl37k-unsplash.jpg,0,1,1117,0,chosen,43,47,objects,objects,1800,0,9,3
50,30126,0,51,1,1,1,gain3,no_gain5,B,J,12,43,faces,objects,61,82,Stimuli/Experimental_stims/faces/aiony-haust-jmATI5Q_YgY-unsplash.jpg,Stimuli/Experimental_stims/objects/jonathan-greenaway-Y4hGgeiFn3s-unsplash.jpg,1,NaN,,NaN,chosen,NaN,NaN,NaN,NaN,2400,0,9,3
51,30126,0,52,1,1,0,no_gain4,gain2,A,K,2,42,outdoor_scenes,objects,72,21,Stimuli/Experimental_stims/outdoor_scenes/bruno-van-der-kraan-qez8mNJ3ilU-unsplash.jpg,Stimuli/Experimental_stims/objects/jess-bailey-nOeVi8DsN8U-unsplash.jpg,1,NaN,,NaN,unchosen,NaN,NaN,NaN,NaN,1100,0,9,3
52,30126,0,53,1,1,0,no_gain2,gain5,L,F,27,24,body_parts,body_parts,75,42,Stimuli/Experimental_stims/body_parts/heike-mintel-i_Gns0ELnLw-unsplash.jpg,Stimuli/Experimental_stims/body_parts/clay-banks-LjqARJaJotc-unsplash.jpg,1,NaN,,NaN,chosen,NaN,NaN,NaN,NaN,1100,0,9,3
53,30126,0,54,1,1,0,no_gain2,gain6,L,C,18,34,faces,body_parts,43,15,Stimuli/Experimental_stims/faces/jessica-radanavong-mrYkTuAesKE-unsplash.jpg,Stimuli/Experimental_stims/body_parts/wagner-santos-mBWMvIuVnso-unsplash.jpg,1,NaN,,NaN,unchosen,NaN,NaN,NaN,NaN,1100,0,9,3
54,30126,0,55,1,1,1,gain6,no_gain3,C,I,0,35,outdoor_scenes,body_parts,69,42,Stimuli/Experimental_stims/outdoor_scenes/aleksandra-boguslawska-MS7KD9Ti7FQ-unsplash.jpg,Stimuli/Experimental_stims/body_parts/wc-so-KH4AAPjb-tI-unsplash.jpg,0,0,1024,0,chosen,35,0,body_parts,outdoor_scenes,3900,1,9,3
55,30126,0,56,1,1,0,no_gain1,gain5,H,F,14,17,faces,faces,19,32,Stimuli/Experimental_stims/faces/david-siglin-UuW4psOb388-unsplash.jpg,Stimuli/Experimental_stims/faces/good-faces-xmSWVeGEnJw-unsplash.jpg,0,1,1013,0,unchosen,14,17,faces,faces,2100,0,9,3
56,30126,0,57,1,1,1,gain5,no_gain4,F,A,17,2,faces,outdoor_scenes,32,72,Stimuli/Experimental_stims/faces/good-faces-xmSWVeGEnJw-unsplash.jpg,Stimuli/Experimental_stims/outdoor_scenes/bruno-van-der-kraan-qez8mNJ3ilU-unsplash.jpg,1,NaN,,NaN,unchosen,NaN,NaN,NaN,NaN,1000,0,9,3
57,30126,0,58,1,1,0,no_gain1,gain4,H,D,14,22,faces,faces,19,46,Stimuli/Experimental_stims/faces/david-siglin-UuW4psOb388-unsplash.jpg,Stimuli/Experimental_stims/faces/ravi-patel-VMGAbeeJTKo-unsplash.jpg,1,NaN,,NaN,unchosen,NaN,NaN,NaN,NaN,1200,0,9,3
58,30126,0,59,1,1,1,gain3,no_gain6,B,E,12,46,faces,objects,61,46,Stimuli/Experimental_stims/faces/aiony-haust-jmATI5Q_YgY-unsplash.jpg,Stimuli/Experimental_stims/objects/mockup-graphics-PNsj6RiHAF4-unsplash.jpg,1,NaN,,NaN,chosen,NaN,NaN,NaN,NaN,1300,0,9,3
59,30126,0,60,1,1,1,gain4,no_gain6,D,E,47,46,objects,objects,56,46,Stimuli/Experimental_stims/objects/ronaldo-arthur-vidal-Cdz_lvnl37k-unsplash.jpg,Stimuli/Experimental_stims/objects/mockup-graphics-PNsj6RiHAF4-unsplash.jpg,1,NaN,,NaN,chosen,NaN,NaN,NaN,NaN,1300,0,9,3
60,30126,0,61,1,1,1,gain2,no_gain1,K,H,42,14,objects,faces,21,19,Stimuli/Experimental_stims/objects/jess-bailey-nOeVi8DsN8U-unsplash.jpg,Stimuli/Experimental_stims/faces/david-siglin-UuW4psOb388-unsplash.jpg,0,1,1204,1,unchosen,42,14,objects,faces,3300,1,9,3
61,30126,0,62,1,1,1,gain2,no_gain3,K,I,42,10,objects,outdoor_scenes,21,68,Stimuli/Experimental_stims/objects/jess-bailey-nOeVi8DsN8U-unsplash.jpg,Stimuli/Experimental_stims/outdoor_scenes/shannon-kunkle-dM8INmkyDas-unsplash.jpg,1,NaN,,NaN,unchosen,NaN,NaN,NaN,NaN,1100,0,9,3
62,30126,0,63,1,1,0,no_gain5,gain6,J,C,43,0,objects,outdoor_scenes,82,69,Stimuli/Experimental_stims/objects/jonathan-greenaway-Y4hGgeiFn3s-unsplash.jpg,Stimuli/Experimental_stims/outdoor_scenes/aleksandra-boguslawska-MS7KD9Ti7FQ-unsplash.jpg,1,NaN,,NaN,chosen,NaN,NaN,NaN,NaN,1400,0,9,3
63,30126,0,64,1,1,0,no_gain2,gain4,L,D,27,47,body_parts,objects,75,56,Stimuli/Experimental_stims/body_parts/heike-mintel-i_Gns0ELnLw-unsplash.jpg,Stimuli/Experimental_stims/objects/ronaldo-arthur-vidal-Cdz_lvnl37k-unsplash.jpg,0,1,1226,0,chosen,27,47,body_parts,objects,1400,0,9,3
64,30126,0,65,1,1,0,no_gain3,gain3,I,B,35,12,body_parts,faces,42,61,Stimuli/Experimental_stims/body_parts/wc-so-KH4AAPjb-tI-unsplash.jpg,Stimuli/Experimental_stims/faces/aiony-haust-jmATI5Q_YgY-unsplash.jpg,1,NaN,,NaN,chosen,NaN,NaN,NaN,NaN,2700,0,9,3
65,30126,0,66,1,1,0,no_gain6,gain5,E,F,32,17,body_parts,faces,34,32,Stimuli/Experimental_stims/body_parts/towfiqu-barbhuiya-3AsiVDsZnHg-unsplash.jpg,Stimuli/Experimental_stims/faces/good-faces-xmSWVeGEnJw-unsplash.jpg,0,1,1114,0,unchosen,32,17,body_parts,faces,1500,0,9,3
66,30126,0,67,1,1,1,gain3,no_gain5,B,J,11,20,outdoor_scenes,faces,78,44,Stimuli/Experimental_stims/outdoor_scenes/stephen-leonardi-gyIRjKPXupE-unsplash.jpg,Stimuli/Experimental_stims/faces/justin-chen-J7Cf1Gch49E-unsplash.jpg,0,0,859,0,unchosen,20,11,faces,outdoor_scenes,3700,1,9,3
67,30126,0,68,1,1,0,no_gain1,gain1,H,G,14,3,faces,outdoor_scenes,19,59,Stimuli/Experimental_stims/faces/david-siglin-UuW4psOb388-unsplash.jpg,Stimuli/Experimental_stims/outdoor_scenes/henry-be-NLF6hTe4PAg-unsplash.jpg,0,1,1152,0,unchosen,14,3,faces,outdoor_scenes,2600,0,9,3
68,30126,0,69,1,1,1,gain4,no_gain3,D,I,47,35,objects,body_parts,56,42,Stimuli/Experimental_stims/objects/ronaldo-arthur-vidal-Cdz_lvnl37k-unsplash.jpg,Stimuli/Experimental_stims/body_parts/wc-so-KH4AAPjb-tI-unsplash.jpg,0,0,1377,0,chosen,35,47,body_parts,objects,1600,0,9,3
69,30126,0,70,1,1,1,gain6,no_gain3,C,I,34,10,body_parts,outdoor_scenes,15,68,Stimuli/Experimental_stims/body_parts/wagner-santos-mBWMvIuVnso-unsplash.jpg,Stimuli/Experimental_stims/outdoor_scenes/shannon-kunkle-dM8INmkyDas-unsplash.jpg,0,1,1233,1,unchosen,34,10,body_parts,outdoor_scenes,1100,0,9,3
70,30126,0,71,1,1,0,no_gain6,gain2,E,K,46,26,objects,body_parts,46,41,Stimuli/Experimental_stims/objects/mockup-graphics-PNsj6RiHAF4-unsplash.jpg,Stimuli/Experimental_stims/body_parts/engin-akyurt-x_3gyC42btc-unsplash.jpg,1,NaN,,NaN,chosen,NaN,NaN,NaN,NaN,1600,0,9,3
71,30126,0,72,1,1,0,no_gain6,gain1,E,G,46,36,objects,objects,46,14,Stimuli/Experimental_stims/objects/mockup-graphics-PNsj6RiHAF4-unsplash.jpg,Stimuli/Experimental_stims/objects/alexander-andrews-JYGnB9gTCls-unsplash.jpg,0,1,976,0,chosen,46,36,objects,objects,4400,1,9,3
72,30126,0,73,1,1,1,gain6,no_gain1,C,H,0,9,outdoor_scenes,outdoor_scenes,69,59,Stimuli/Experimental_stims/outdoor_scenes/aleksandra-boguslawska-MS7KD9Ti7FQ-unsplash.jpg,Stimuli/Experimental_stims/outdoor_scenes/sergey-pesterev-y-b_FOmJXdg-unsplash.jpg,0,0,958,0,chosen,9,0,outdoor_scenes,outdoor_scenes,1100,0,9,3
73,30126,0,74,1,1,0,no_gain5,gain6,J,C,20,34,faces,body_parts,44,15,Stimuli/Experimental_stims/faces/justin-chen-J7Cf1Gch49E-unsplash.jpg,Stimuli/Experimental_stims/body_parts/wagner-santos-mBWMvIuVnso-unsplash.jpg,1,NaN,,NaN,unchosen,NaN,NaN,NaN,NaN,1700,0,9,3
74,30126,0,75,1,1,1,gain5,no_gain2,F,L,17,18,faces,faces,32,43,Stimuli/Experimental_stims/faces/good-faces-xmSWVeGEnJw-unsplash.jpg,Stimuli/Experimental_stims/faces/jessica-radanavong-mrYkTuAesKE-unsplash.jpg,0,0,1329,0,unchosen,18,17,faces,faces,2500,0,9,3
75,30126,0,76,1,1,1,gain1,no_gain3,G,I,3,10,outdoor_scenes,outdoor_scenes,59,68,Stimuli/Experimental_stims/outdoor_scenes/henry-be-NLF6hTe4PAg-unsplash.jpg,Stimuli/Experimental_stims/outdoor_scenes/shannon-kunkle-dM8INmkyDas-unsplash.jpg,0,1,1426,1,unchosen,3,10,outdoor_scenes,outdoor_scenes,2100,0,9,3
76,30126,0,77,2,2,0,no_gain2,gain4,L,D,18,22,faces,faces,43,46,Stimuli/Experimental_stims/faces/jessica-radanavong-mrYkTuAesKE-unsplash.jpg,Stimuli/Experimental_stims/faces/ravi-patel-VMGAbeeJTKo-unsplash.jpg,0,0,1094,1,unchosen,22,18,faces,faces,3800,1,9,3
77,30126,0,78,2,2,0,no_gain6,gain5,E,F,46,24,objects,body_parts,46,42,Stimuli/Experimental_stims/objects/mockup-graphics-PNsj6RiHAF4-unsplash.jpg,Stimuli/Experimental_stims/body_parts/clay-banks-LjqARJaJotc-unsplash.jpg,0,1,1374,0,chosen,46,24,objects,body_parts,1200,0,9,3
78,30126,0,79,2,2,0,no_gain5,gain5,J,F,43,24,objects,body_parts,82,42,Stimuli/Experimental_stims/objects/jonathan-greenaway-Y4hGgeiFn3s-unsplash.jpg,Stimuli/Experimental_stims/body_parts/clay-banks-LjqARJaJotc-unsplash.jpg,1,NaN,,NaN,chosen,NaN,NaN,NaN,NaN,1200,0,9,3
79,30126,0,80,2,2,0,no_gain6,gain3,E,B,32,11,body_parts,outdoor_scenes,34,78,Stimuli/Experimental_stims/body_parts/towfiqu-barbhuiya-3AsiVDsZnHg-unsplash.jpg,Stimuli/Experimental_stims/outdoor_scenes/stephen-leonardi-gyIRjKPXupE-unsplash.jpg,0,0,1000,1,unchosen,11,32,outdoor_scenes,body_parts,2700,0,9,3
80,30126,0,81,2,2,0,no_gain2,gain6,L,C,27,0,body_parts,outdoor_scenes,75,69,Stimuli/Experimental_stims/body_parts/heike-mintel-i_Gns0ELnLw-unsplash.jpg,Stimuli/Experimental_stims/outdoor_scenes/aleksandra-boguslawska-MS7KD9Ti7FQ-unsplash.jpg,0,1,843,0,chosen,27,0,body_parts,outdoor_scenes,2900,0,9,3
81,30126,0,82,2,2,1,gain6,no_gain4,C,A,34,2,body_parts,outdoor_scenes,15,72,Stimuli/Experimental_stims/body_parts/wagner-santos-mBWMvIuVnso-unsplash.jpg,Stimuli/Experimental_stims/outdoor_scenes/bruno-van-der-kraan-qez8mNJ3ilU-unsplash.jpg,0,0,1478,0,unchosen,2,34,outdoor_scenes,body_parts,1400,0,9,3
82,30126,0,83,2,2,1,gain2,no_gain1,K,H,26,9,body_parts,outdoor_scenes,41,59,Stimuli/Experimental_stims/body_parts/engin-akyurt-x_3gyC42btc-unsplash.jpg,Stimuli/Experimental_stims/outdoor_scenes/sergey-pesterev-y-b_FOmJXdg-unsplash.jpg,0,1,896,1,chosen,26,9,body_parts,outdoor_scenes,1100,0,9,3
83,30126,0,84,2,2,0,no_gain5,gain3,J,B,43,12,objects,faces,82,61,Stimuli/Experimental_stims/objects/jonathan-greenaway-Y4hGgeiFn3s-unsplash.jpg,Stimuli/Experimental_stims/faces/aiony-haust-jmATI5Q_YgY-unsplash.jpg,0,0,1273,1,chosen,12,43,faces,objects,2400,0,9,3
84,30126,0,85,2,2,1,gain6,no_gain3,C,I,34,10,body_parts,outdoor_scenes,15,68,Stimuli/Experimental_stims/body_parts/wagner-santos-mBWMvIuVnso-unsplash.jpg,Stimuli/Experimental_stims/outdoor_scenes/shannon-kunkle-dM8INmkyDas-unsplash.jpg,0,1,1000,1,unchosen,34,10,body_parts,outdoor_scenes,2400,0,9,3
85,30126,0,86,2,2,1,gain5,no_gain1,F,H,24,9,body_parts,outdoor_scenes,42,59,Stimuli/Experimental_stims/body_parts/clay-banks-LjqARJaJotc-unsplash.jpg,Stimuli/Experimental_stims/outdoor_scenes/sergey-pesterev-y-b_FOmJXdg-unsplash.jpg,0,0,844,0,chosen,9,24,outdoor_scenes,body_parts,1400,0,9,3
86,30126,0,87,2,2,0,no_gain3,gain1,I,G,35,36,body_parts,objects,42,14,Stimuli/Experimental_stims/body_parts/wc-so-KH4AAPjb-tI-unsplash.jpg,Stimuli/Experimental_stims/objects/alexander-andrews-JYGnB9gTCls-unsplash.jpg,0,1,867,0,chosen,35,36,body_parts,objects,3000,1,9,3
87,30126,0,88,2,2,0,no_gain5,gain1,J,G,20,3,faces,outdoor_scenes,44,59,Stimuli/Experimental_stims/faces/justin-chen-J7Cf1Gch49E-unsplash.jpg,Stimuli/Experimental_stims/outdoor_scenes/henry-be-NLF6hTe4PAg-unsplash.jpg,1,NaN,,NaN,unchosen,NaN,NaN,NaN,NaN,1000,0,9,3
88,30126,0,89,2,2,0,no_gain5,gain4,J,D,20,22,faces,faces,44,46,Stimuli/Experimental_stims/faces/justin-chen-J7Cf1Gch49E-unsplash.jpg,Stimuli/Experimental_stims/faces/ravi-patel-VMGAbeeJTKo-unsplash.jpg,0,1,1336,0,unchosen,20,22,faces,faces,1100,0,9,3
89,30126,0,90,2,2,0,no_gain3,gain2,I,K,10,42,outdoor_scenes,objects,68,21,Stimuli/Experimental_stims/outdoor_scenes/shannon-kunkle-dM8INmkyDas-unsplash.jpg,Stimuli/Experimental_stims/objects/jess-bailey-nOeVi8DsN8U-unsplash.jpg,0,0,1157,1,unchosen,42,10,objects,outdoor_scenes,2200,0,9,3
90,30126,0,91,2,2,1,gain1,no_gain6,G,E,36,46,objects,objects,14,46,Stimuli/Experimental_stims/objects/alexander-andrews-JYGnB9gTCls-unsplash.jpg,Stimuli/Experimental_stims/objects/mockup-graphics-PNsj6RiHAF4-unsplash.jpg,0,1,1177,1,chosen,36,46,objects,objects,1600,0,9,3
91,30126,0,92,2,2,1,gain2,no_gain6,K,E,42,32,objects,body_parts,21,34,Stimuli/Experimental_stims/objects/jess-bailey-nOeVi8DsN8U-unsplash.jpg,Stimuli/Experimental_stims/body_parts/towfiqu-barbhuiya-3AsiVDsZnHg-unsplash.jpg,0,0,995,0,unchosen,32,42,body_parts,objects,3200,1,9,3
92,30126,0,93,2,2,0,no_gain5,gain6,J,C,20,34,faces,body_parts,44,15,Stimuli/Experimental_stims/faces/justin-chen-J7Cf1Gch49E-unsplash.jpg,Stimuli/Experimental_stims/body_parts/wagner-santos-mBWMvIuVnso-unsplash.jpg,1,NaN,,NaN,unchosen,NaN,NaN,NaN,NaN,2100,0,9,3
93,30126,0,94,2,2,1,gain3,no_gain3,B,I,11,10,outdoor_scenes,outdoor_scenes,78,68,Stimuli/Experimental_stims/outdoor_scenes/stephen-leonardi-gyIRjKPXupE-unsplash.jpg,Stimuli/Experimental_stims/outdoor_scenes/shannon-kunkle-dM8INmkyDas-unsplash.jpg,0,0,1326,0,unchosen,10,11,outdoor_scenes,outdoor_scenes,1100,0,9,3
94,30126,0,95,2,2,0,no_gain2,gain3,L,B,27,12,body_parts,faces,75,61,Stimuli/Experimental_stims/body_parts/heike-mintel-i_Gns0ELnLw-unsplash.jpg,Stimuli/Experimental_stims/faces/aiony-haust-jmATI5Q_YgY-unsplash.jpg,0,1,855,0,chosen,27,12,body_parts,faces,2800,0,9,3
95,30126,0,96,2,2,1,gain1,no_gain4,G,A,3,2,outdoor_scenes,outdoor_scenes,59,72,Stimuli/Experimental_stims/outdoor_scenes/henry-be-NLF6hTe4PAg-unsplash.jpg,Stimuli/Experimental_stims/outdoor_scenes/bruno-van-der-kraan-qez8mNJ3ilU-unsplash.jpg,0,0,1461,0,unchosen,2,3,outdoor_scenes,outdoor_scenes,1100,0,9,3
96,30126,0,97,2,2,0,no_gain3,gain4,I,D,35,47,body_parts,objects,42,56,Stimuli/Experimental_stims/body_parts/wc-so-KH4AAPjb-tI-unsplash.jpg,Stimuli/Experimental_stims/objects/ronaldo-arthur-vidal-Cdz_lvnl37k-unsplash.jpg,0,0,867,1,chosen,47,35,objects,body_parts,4900,1,9,3
97,30126,0,98,2,2,1,gain3,no_gain3,B,I,12,35,faces,body_parts,61,42,Stimuli/Experimental_stims/faces/aiony-haust-jmATI5Q_YgY-unsplash.jpg,Stimuli/Experimental_stims/body_parts/wc-so-KH4AAPjb-tI-unsplash.jpg,1,NaN,,NaN,chosen,NaN,NaN,NaN,NaN,1200,0,9,3
98,30126,0,99,2,2,0,no_gain5,gain5,J,F,20,17,faces,faces,44,32,Stimuli/Experimental_stims/faces/justin-chen-J7Cf1Gch49E-unsplash.jpg,Stimuli/Experimental_stims/faces/good-faces-xmSWVeGEnJw-unsplash.jpg,1,NaN,,NaN,unchosen,NaN,NaN,NaN,NaN,1200,0,9,3
99,30126,0,100,2,2,1,gain4,no_gain5,D,J,47,43,objects,objects,56,82,Stimuli/Experimental_stims/objects/ronaldo-arthur-vidal-Cdz_lvnl37k-unsplash.jpg,Stimuli/Experimental_stims/objects/jonathan-greenaway-Y4hGgeiFn3s-unsplash.jpg,0,0,602,0,chosen,43,47,objects,objects,1900,0,9,3
100,30126,0,101,2,2,0,no_gain6,gain4,E,D,46,47,objects,objects,46,56,Stimuli/Experimental_stims/objects/mockup-graphics-PNsj6RiHAF4-unsplash.jpg,Stimuli/Experimental_stims/objects/ronaldo-arthur-vidal-Cdz_lvnl37k-unsplash.jpg,0,0,1249,1,chosen,47,46,objects,objects,1500,0,9,3
101,30126,0,102,2,2,0,no_gain5,gain2,J,K,20,42,faces,objects,44,21,Stimuli/Experimental_stims/faces/justin-chen-J7Cf1Gch49E-unsplash.jpg,Stimuli/Experimental_stims/objects/jess-bailey-nOeVi8DsN8U-unsplash.jpg,1,NaN,,NaN,unchosen,NaN,NaN,NaN,NaN,1600,0,9,3
102,30126,0,103,2,2,0,no_gain5,gain6,J,C,43,0,objects,outdoor_scenes,82,69,Stimuli/Experimental_stims/objects/jonathan-greenaway-Y4hGgeiFn3s-unsplash.jpg,Stimuli/Experimental_stims/outdoor_scenes/aleksandra-boguslawska-MS7KD9Ti7FQ-unsplash.jpg,0,1,689,0,chosen,43,0,objects,outdoor_scenes,1500,0,9,3
103,30126,0,104,2,2,1,gain4,no_gain3,D,I,22,10,faces,outdoor_scenes,46,68,Stimuli/Experimental_stims/faces/ravi-patel-VMGAbeeJTKo-unsplash.jpg,Stimuli/Experimental_stims/outdoor_scenes/shannon-kunkle-dM8INmkyDas-unsplash.jpg,0,0,1165,0,unchosen,10,22,outdoor_scenes,faces,2000,0,9,3
104,30126,0,105,2,2,1,gain2,no_gain4,K,A,26,39,body_parts,objects,41,67,Stimuli/Experimental_stims/body_parts/engin-akyurt-x_3gyC42btc-unsplash.jpg,Stimuli/Experimental_stims/objects/charlesdeluvio-1-nx1QR5dTE-unsplash.jpg,0,1,976,1,chosen,26,39,body_parts,objects,2000,0,9,3
105,30126,0,106,2,2,0,no_gain2,gain1,L,G,27,36,body_parts,objects,75,14,Stimuli/Experimental_stims/body_parts/heike-mintel-i_Gns0ELnLw-unsplash.jpg,Stimuli/Experimental_stims/objects/alexander-andrews-JYGnB9gTCls-unsplash.jpg,1,NaN,,NaN,chosen,NaN,NaN,NaN,NaN,3400,1,9,3
106,30126,0,107,2,2,1,gain1,no_gain6,G,E,3,32,outdoor_scenes,body_parts,59,34,Stimuli/Experimental_stims/outdoor_scenes/henry-be-NLF6hTe4PAg-unsplash.jpg,Stimuli/Experimental_stims/body_parts/towfiqu-barbhuiya-3AsiVDsZnHg-unsplash.jpg,1,NaN,,NaN,unchosen,NaN,NaN,NaN,NaN,1600,0,9,3
107,30126,0,108,2,2,0,no_gain1,gain3,H,B,14,11,faces,outdoor_scenes,19,78,Stimuli/Experimental_stims/faces/david-siglin-UuW4psOb388-unsplash.jpg,Stimuli/Experimental_stims/outdoor_scenes/stephen-leonardi-gyIRjKPXupE-unsplash.jpg,0,0,1255,1,unchosen,11,14,outdoor_scenes,faces,2400,0,9,3
108,30126,0,109,2,2,0,no_gain5,gain2,J,K,43,26,objects,body_parts,82,41,Stimuli/Experimental_stims/objects/jonathan-greenaway-Y4hGgeiFn3s-unsplash.jpg,Stimuli/Experimental_stims/body_parts/engin-akyurt-x_3gyC42btc-unsplash.jpg,1,NaN,,NaN,chosen,NaN,NaN,NaN,NaN,2900,0,9,3
109,30126,0,110,2,2,1,gain2,no_gain2,K,L,26,27,body_parts,body_parts,41,75,Stimuli/Experimental_stims/body_parts/engin-akyurt-x_3gyC42btc-unsplash.jpg,Stimuli/Experimental_stims/body_parts/heike-mintel-i_Gns0ELnLw-unsplash.jpg,0,1,956,1,chosen,26,27,body_parts,body_parts,2100,0,9,3
110,30126,0,111,2,2,1,gain5,no_gain6,F,E,17,32,faces,body_parts,32,34,Stimuli/Experimental_stims/faces/good-faces-xmSWVeGEnJw-unsplash.jpg,Stimuli/Experimental_stims/body_parts/towfiqu-barbhuiya-3AsiVDsZnHg-unsplash.jpg,0,0,1429,0,unchosen,32,17,body_parts,faces,3600,1,9,3
111,30126,0,112,2,2,1,gain6,no_gain4,C,A,0,39,outdoor_scenes,objects,69,67,Stimuli/Experimental_stims/outdoor_scenes/aleksandra-boguslawska-MS7KD9Ti7FQ-unsplash.jpg,Stimuli/Experimental_stims/objects/charlesdeluvio-1-nx1QR5dTE-unsplash.jpg,0,1,760,1,chosen,0,39,outdoor_scenes,objects,1900,0,9,3
112,30126,0,113,2,2,1,gain3,no_gain1,B,H,12,9,faces,outdoor_scenes,61,59,Stimuli/Experimental_stims/faces/aiony-haust-jmATI5Q_YgY-unsplash.jpg,Stimuli/Experimental_stims/outdoor_scenes/sergey-pesterev-y-b_FOmJXdg-unsplash.jpg,0,0,1199,0,chosen,9,12,outdoor_scenes,faces,1000,0,9,3
113,30126,0,114,2,2,0,no_gain6,gain2,E,K,46,26,objects,body_parts,46,41,Stimuli/Experimental_stims/objects/mockup-graphics-PNsj6RiHAF4-unsplash.jpg,Stimuli/Experimental_stims/body_parts/engin-akyurt-x_3gyC42btc-unsplash.jpg,1,NaN,,NaN,chosen,NaN,NaN,NaN,NaN,1500,0,9,3
114,30126,0,115,2,2,1,gain1,no_gain3,G,I,3,10,outdoor_scenes,outdoor_scenes,59,68,Stimuli/Experimental_stims/outdoor_scenes/henry-be-NLF6hTe4PAg-unsplash.jpg,Stimuli/Experimental_stims/outdoor_scenes/shannon-kunkle-dM8INmkyDas-unsplash.jpg,0,0,1265,0,unchosen,10,3,outdoor_scenes,outdoor_scenes,1600,0,9,3
115,30126,0,116,2,2,0,no_gain1,gain1,H,G,14,3,faces,outdoor_scenes,19,59,Stimuli/Experimental_stims/faces/david-siglin-UuW4psOb388-unsplash.jpg,Stimuli/Experimental_stims/outdoor_scenes/henry-be-NLF6hTe4PAg-unsplash.jpg,1,NaN,,NaN,unchosen,NaN,NaN,NaN,NaN,1100,0,9,3
116,30126,0,117,2,2,1,gain6,no_gain1,C,H,0,9,outdoor_scenes,outdoor_scenes,69,59,Stimuli/Experimental_stims/outdoor_scenes/aleksandra-boguslawska-MS7KD9Ti7FQ-unsplash.jpg,Stimuli/Experimental_stims/outdoor_scenes/sergey-pesterev-y-b_FOmJXdg-unsplash.jpg,0,1,369,1,chosen,0,9,outdoor_scenes,outdoor_scenes,4400,1,9,3
117,30126,0,118,2,2,1,gain3,no_gain6,B,E,12,46,faces,objects,61,46,Stimuli/Experimental_stims/faces/aiony-haust-jmATI5Q_YgY-unsplash.jpg,Stimuli/Experimental_stims/objects/mockup-graphics-PNsj6RiHAF4-unsplash.jpg,1,NaN,,NaN,chosen,NaN,NaN,NaN,NaN,1100,0,9,3
118,30126,0,119,2,2,1,gain3,no_gain4,B,A,11,2,outdoor_scenes,outdoor_scenes,78,72,Stimuli/Experimental_stims/outdoor_scenes/stephen-leonardi-gyIRjKPXupE-unsplash.jpg,Stimuli/Experimental_stims/outdoor_scenes/bruno-van-der-kraan-qez8mNJ3ilU-unsplash.jpg,0,0,1129,0,unchosen,2,11,outdoor_scenes,outdoor_scenes,1200,0,9,3
119,30126,0,120,2,2,0,no_gain4,gain1,A,G,39,36,objects,objects,67,14,Stimuli/Experimental_stims/objects/charlesdeluvio-1-nx1QR5dTE-unsplash.jpg,Stimuli/Experimental_stims/objects/alexander-andrews-JYGnB9gTCls-unsplash.jpg,1,NaN,,NaN,chosen,NaN,NaN,NaN,NaN,1000,0,9,3
120,30126,0,121,2,2,0,no_gain3,gain5,I,F,10,17,outdoor_scenes,faces,68,32,Stimuli/Experimental_stims/outdoor_scenes/shannon-kunkle-dM8INmkyDas-unsplash.jpg,Stimuli/Experimental_stims/faces/good-faces-xmSWVeGEnJw-unsplash.jpg,0,1,1082,0,unchosen,10,17,outdoor_scenes,faces,1500,0,9,3
121,30126,0,122,2,2,0,no_gain1,gain4,H,D,14,22,faces,faces,19,46,Stimuli/Experimental_stims/faces/david-siglin-UuW4psOb388-unsplash.jpg,Stimuli/Experimental_stims/faces/ravi-patel-VMGAbeeJTKo-unsplash.jpg,0,0,933,1,unchosen,22,14,faces,faces,2000,0,9,3
122,30126,0,123,2,2,0,no_gain4,gain3,A,B,39,12,objects,faces,67,61,Stimuli/Experimental_stims/objects/charlesdeluvio-1-nx1QR5dTE-unsplash.jpg,Stimuli/Experimental_stims/faces/aiony-haust-jmATI5Q_YgY-unsplash.jpg,0,1,1057,0,chosen,39,12,objects,faces,3700,1,9,3
123,30126,0,124,2,2,0,no_gain1,gain2,H,K,14,42,faces,objects,19,21,Stimuli/Experimental_stims/faces/david-siglin-UuW4psOb388-unsplash.jpg,Stimuli/Experimental_stims/objects/jess-bailey-nOeVi8DsN8U-unsplash.jpg,1,NaN,,NaN,unchosen,NaN,NaN,NaN,NaN,2100,0,9,3
124,30126,0,125,2,2,1,gain5,no_gain1,F,H,17,14,faces,faces,32,19,Stimuli/Experimental_stims/faces/good-faces-xmSWVeGEnJw-unsplash.jpg,Stimuli/Experimental_stims/faces/david-siglin-UuW4psOb388-unsplash.jpg,0,0,1236,0,unchosen,14,17,faces,faces,1100,0,9,3
125,30126,0,126,2,2,1,gain5,no_gain3,F,I,24,35,body_parts,body_parts,42,42,Stimuli/Experimental_stims/body_parts/clay-banks-LjqARJaJotc-unsplash.jpg,Stimuli/Experimental_stims/body_parts/wc-so-KH4AAPjb-tI-unsplash.jpg,0,1,1499,1,chosen,24,35,body_parts,body_parts,1500,0,9,3
126,30126,0,127,2,2,0,no_gain5,gain1,J,G,43,36,objects,objects,82,14,Stimuli/Experimental_stims/objects/jonathan-greenaway-Y4hGgeiFn3s-unsplash.jpg,Stimuli/Experimental_stims/objects/alexander-andrews-JYGnB9gTCls-unsplash.jpg,0,0,1034,1,chosen,36,43,objects,objects,1900,0,9,3
127,30126,0,128,2,2,0,no_gain2,gain6,L,C,18,34,faces,body_parts,43,15,Stimuli/Experimental_stims/faces/jessica-radanavong-mrYkTuAesKE-unsplash.jpg,Stimuli/Experimental_stims/body_parts/wagner-santos-mBWMvIuVnso-unsplash.jpg,0,1,1002,0,unchosen,18,34,faces,body_parts,1600,0,9,3
128,30126,0,129,2,2,1,gain5,no_gain4,F,A,17,2,faces,outdoor_scenes,32,72,Stimuli/Experimental_stims/faces/good-faces-xmSWVeGEnJw-unsplash.jpg,Stimuli/Experimental_stims/outdoor_scenes/bruno-van-der-kraan-qez8mNJ3ilU-unsplash.jpg,0,0,867,0,unchosen,2,17,outdoor_scenes,faces,3100,1,9,3
129,30126,0,130,2,2,0,no_gain1,gain1,H,G,9,36,outdoor_scenes,objects,59,14,Stimuli/Experimental_stims/outdoor_scenes/sergey-pesterev-y-b_FOmJXdg-unsplash.jpg,Stimuli/Experimental_stims/objects/alexander-andrews-JYGnB9gTCls-unsplash.jpg,0,0,1152,1,chosen,36,9,objects,outdoor_scenes,2800,0,9,3
130,30126,0,131,2,2,1,gain5,no_gain4,F,A,24,39,body_parts,objects,42,67,Stimuli/Experimental_stims/body_parts/clay-banks-LjqARJaJotc-unsplash.jpg,Stimuli/Experimental_stims/objects/charlesdeluvio-1-nx1QR5dTE-unsplash.jpg,0,0,1161,0,chosen,39,24,objects,body_parts,1800,0,9,3
131,30126,0,132,2,2,0,no_gain6,gain6,E,C,32,34,body_parts,body_parts,34,15,Stimuli/Experimental_stims/body_parts/towfiqu-barbhuiya-3AsiVDsZnHg-unsplash.jpg,Stimuli/Experimental_stims/body_parts/wagner-santos-mBWMvIuVnso-unsplash.jpg,0,1,1001,0,unchosen,32,34,body_parts,body_parts,2100,0,9,3
132,30126,0,133,2,2,1,gain6,no_gain3,C,I,0,35,outdoor_scenes,body_parts,69,42,Stimuli/Experimental_stims/outdoor_scenes/aleksandra-boguslawska-MS7KD9Ti7FQ-unsplash.jpg,Stimuli/Experimental_stims/body_parts/wc-so-KH4AAPjb-tI-unsplash.jpg,0,0,969,0,chosen,35,0,body_parts,outdoor_scenes,2100,0,9,3
133,30126,0,134,2,2,0,no_gain2,gain5,L,F,27,24,body_parts,body_parts,75,42,Stimuli/Experimental_stims/body_parts/heike-mintel-i_Gns0ELnLw-unsplash.jpg,Stimuli/Experimental_stims/body_parts/clay-banks-LjqARJaJotc-unsplash.jpg,0,1,933,0,chosen,27,24,body_parts,body_parts,1600,0,9,3
134,30126,0,135,2,2,0,no_gain4,gain2,A,K,2,42,outdoor_scenes,objects,72,21,Stimuli/Experimental_stims/outdoor_scenes/bruno-van-der-kraan-qez8mNJ3ilU-unsplash.jpg,Stimuli/Experimental_stims/objects/jess-bailey-nOeVi8DsN8U-unsplash.jpg,0,0,887,1,unchosen,42,2,objects,outdoor_scenes,2600,0,9,3
135,30126,0,136,2,2,1,gain4,no_gain4,D,A,47,39,objects,objects,56,67,Stimuli/Experimental_stims/objects/ronaldo-arthur-vidal-Cdz_lvnl37k-unsplash.jpg,Stimuli/Experimental_stims/objects/charlesdeluvio-1-nx1QR5dTE-unsplash.jpg,0,1,1085,1,chosen,47,39,objects,objects,1100,0,9,3
136,30126,0,137,2,2,0,no_gain2,gain2,L,K,18,42,faces,objects,43,21,Stimuli/Experimental_stims/faces/jessica-radanavong-mrYkTuAesKE-unsplash.jpg,Stimuli/Experimental_stims/objects/jess-bailey-nOeVi8DsN8U-unsplash.jpg,0,0,901,1,unchosen,42,18,objects,faces,2700,0,9,3
137,30126,0,138,2,2,1,gain4,no_gain6,D,E,22,32,faces,body_parts,46,34,Stimuli/Experimental_stims/faces/ravi-patel-VMGAbeeJTKo-unsplash.jpg,Stimuli/Experimental_stims/body_parts/towfiqu-barbhuiya-3AsiVDsZnHg-unsplash.jpg,0,1,1211,1,unchosen,22,32,faces,body_parts,1500,0,9,3
138,30126,0,139,2,2,1,gain3,no_gain5,B,J,11,20,outdoor_scenes,faces,78,44,Stimuli/Experimental_stims/outdoor_scenes/stephen-leonardi-gyIRjKPXupE-unsplash.jpg,Stimuli/Experimental_stims/faces/justin-chen-J7Cf1Gch49E-unsplash.jpg,0,0,1189,0,unchosen,20,11,faces,outdoor_scenes,1100,0,9,3
139,30126,0,140,2,2,1,gain4,no_gain1,D,H,47,9,objects,outdoor_scenes,56,59,Stimuli/Experimental_stims/objects/ronaldo-arthur-vidal-Cdz_lvnl37k-unsplash.jpg,Stimuli/Experimental_stims/outdoor_scenes/sergey-pesterev-y-b_FOmJXdg-unsplash.jpg,0,1,952,1,chosen,47,9,objects,outdoor_scenes,1200,0,9,3
140,30126,0,141,2,2,1,gain3,no_gain2,B,L,11,18,outdoor_scenes,faces,78,43,Stimuli/Experimental_stims/outdoor_scenes/stephen-leonardi-gyIRjKPXupE-unsplash.jpg,Stimuli/Experimental_stims/faces/jessica-radanavong-mrYkTuAesKE-unsplash.jpg,0,0,838,0,unchosen,18,11,faces,outdoor_scenes,1200,0,9,3
141,30126,0,142,2,2,0,no_gain2,gain1,L,G,18,3,faces,outdoor_scenes,43,59,Stimuli/Experimental_stims/faces/jessica-radanavong-mrYkTuAesKE-unsplash.jpg,Stimuli/Experimental_stims/outdoor_scenes/henry-be-NLF6hTe4PAg-unsplash.jpg,0,1,872,0,unchosen,18,3,faces,outdoor_scenes,4600,1,9,3
142,30126,0,143,2,2,1,gain6,no_gain6,C,E,0,46,outdoor_scenes,objects,69,46,Stimuli/Experimental_stims/outdoor_scenes/aleksandra-boguslawska-MS7KD9Ti7FQ-unsplash.jpg,Stimuli/Experimental_stims/objects/mockup-graphics-PNsj6RiHAF4-unsplash.jpg,0,1,1271,1,chosen,0,46,outdoor_scenes,objects,2000,0,9,3
143,30126,0,144,2,2,1,gain4,no_gain4,D,A,22,2,faces,outdoor_scenes,46,72,Stimuli/Experimental_stims/faces/ravi-patel-VMGAbeeJTKo-unsplash.jpg,Stimuli/Experimental_stims/outdoor_scenes/bruno-van-der-kraan-qez8mNJ3ilU-unsplash.jpg,0,1,1095,1,unchosen,22,2,faces,outdoor_scenes,1700,0,9,3
144,30126,0,145,2,2,1,gain6,no_gain1,C,H,34,14,body_parts,faces,15,19,Stimuli/Experimental_stims/body_parts/wagner-santos-mBWMvIuVnso-unsplash.jpg,Stimuli/Experimental_stims/faces/david-siglin-UuW4psOb388-unsplash.jpg,0,0,1264,0,unchosen,14,34,faces,body_parts,1300,0,9,3
145,30126,0,146,2,2,0,no_gain2,gain4,L,D,27,47,body_parts,objects,75,56,Stimuli/Experimental_stims/body_parts/heike-mintel-i_Gns0ELnLw-unsplash.jpg,Stimuli/Experimental_stims/objects/ronaldo-arthur-vidal-Cdz_lvnl37k-unsplash.jpg,0,1,1009,0,chosen,27,47,body_parts,objects,1300,0,9,3
146,30126,0,147,2,2,1,gain5,no_gain2,F,L,17,18,faces,faces,32,43,Stimuli/Experimental_stims/faces/good-faces-xmSWVeGEnJw-unsplash.jpg,Stimuli/Experimental_stims/faces/jessica-radanavong-mrYkTuAesKE-unsplash.jpg,0,0,1122,0,unchosen,18,17,faces,faces,1600,0,9,3
147,30126,0,148,2,2,1,gain2,no_gain3,K,I,26,35,body_parts,body_parts,41,42,Stimuli/Experimental_stims/body_parts/engin-akyurt-x_3gyC42btc-unsplash.jpg,Stimuli/Experimental_stims/body_parts/wc-so-KH4AAPjb-tI-unsplash.jpg,0,1,693,1,chosen,26,35,body_parts,body_parts,2900,0,9,3
148,30126,0,149,3,3,0,no_gain1,gain2,H,K,14,42,faces,objects,19,21,Stimuli/Experimental_stims/faces/david-siglin-UuW4psOb388-unsplash.jpg,Stimuli/Experimental_stims/objects/jess-bailey-nOeVi8DsN8U-unsplash.jpg,0,1,892,0,unchosen,14,42,faces,objects,2500,0,3,3
149,30126,0,150,3,3,0,no_gain2,gain5,L,F,27,24,body_parts,body_parts,75,42,Stimuli/Experimental_stims/body_parts/heike-mintel-i_Gns0ELnLw-unsplash.jpg,Stimuli/Experimental_stims/body_parts/clay-banks-LjqARJaJotc-unsplash.jpg,0,0,794,1,chosen,24,27,body_parts,body_parts,1500,0,3,3
150,30126,0,151,3,3,0,no_gain5,gain1,J,G,20,3,faces,outdoor_scenes,44,59,Stimuli/Experimental_stims/faces/justin-chen-J7Cf1Gch49E-unsplash.jpg,Stimuli/Experimental_stims/outdoor_scenes/henry-be-NLF6hTe4PAg-unsplash.jpg,0,1,876,0,unchosen,20,3,faces,outdoor_scenes,1000,0,3,3
151,30126,0,152,3,3,1,gain3,no_gain3,B,I,11,10,outdoor_scenes,outdoor_scenes,78,68,Stimuli/Experimental_stims/outdoor_scenes/stephen-leonardi-gyIRjKPXupE-unsplash.jpg,Stimuli/Experimental_stims/outdoor_scenes/shannon-kunkle-dM8INmkyDas-unsplash.jpg,0,1,1191,1,unchosen,11,10,outdoor_scenes,outdoor_scenes,2000,0,3,3
152,30126,0,153,3,3,0,no_gain4,gain3,A,B,2,11,outdoor_scenes,outdoor_scenes,72,78,Stimuli/Experimental_stims/outdoor_scenes/bruno-van-der-kraan-qez8mNJ3ilU-unsplash.jpg,Stimuli/Experimental_stims/outdoor_scenes/stephen-leonardi-gyIRjKPXupE-unsplash.jpg,0,1,978,0,unchosen,2,11,outdoor_scenes,outdoor_scenes,1600,0,3,3
153,30126,0,154,3,3,0,no_gain6,gain5,E,F,46,24,objects,body_parts,46,42,Stimuli/Experimental_stims/objects/mockup-graphics-PNsj6RiHAF4-unsplash.jpg,Stimuli/Experimental_stims/body_parts/clay-banks-LjqARJaJotc-unsplash.jpg,0,0,1083,1,chosen,24,46,body_parts,objects,5000,1,3,3
154,30126,0,155,3,3,1,gain5,no_gain5,F,J,17,20,faces,faces,32,44,Stimuli/Experimental_stims/faces/good-faces-xmSWVeGEnJw-unsplash.jpg,Stimuli/Experimental_stims/faces/justin-chen-J7Cf1Gch49E-unsplash.jpg,0,0,1182,0,unchosen,20,17,faces,faces,1500,0,3,3
155,30126,0,156,3,3,0,no_gain4,gain4,A,D,39,47,objects,objects,67,56,Stimuli/Experimental_stims/objects/charlesdeluvio-1-nx1QR5dTE-unsplash.jpg,Stimuli/Experimental_stims/objects/ronaldo-arthur-vidal-Cdz_lvnl37k-unsplash.jpg,0,0,1082,1,chosen,47,39,objects,objects,1800,0,3,3
156,30126,0,157,3,3,0,no_gain6,gain1,E,G,46,36,objects,objects,46,14,Stimuli/Experimental_stims/objects/mockup-graphics-PNsj6RiHAF4-unsplash.jpg,Stimuli/Experimental_stims/objects/alexander-andrews-JYGnB9gTCls-unsplash.jpg,0,0,1207,1,chosen,36,46,objects,objects,1900,0,3,3
157,30126,0,158,3,3,1,gain6,no_gain5,C,J,34,20,body_parts,faces,15,44,Stimuli/Experimental_stims/body_parts/wagner-santos-mBWMvIuVnso-unsplash.jpg,Stimuli/Experimental_stims/faces/justin-chen-J7Cf1Gch49E-unsplash.jpg,0,1,1126,1,unchosen,34,20,body_parts,faces,2000,0,3,3
158,30126,0,159,3,3,1,gain1,no_gain5,G,J,36,43,objects,objects,14,82,Stimuli/Experimental_stims/objects/alexander-andrews-JYGnB9gTCls-unsplash.jpg,Stimuli/Experimental_stims/objects/jonathan-greenaway-Y4hGgeiFn3s-unsplash.jpg,0,1,1007,1,chosen,36,43,objects,objects,1300,0,3,3
159,30126,0,160,3,3,0,no_gain5,gain4,J,D,43,47,objects,objects,82,56,Stimuli/Experimental_stims/objects/jonathan-greenaway-Y4hGgeiFn3s-unsplash.jpg,Stimuli/Experimental_stims/objects/ronaldo-arthur-vidal-Cdz_lvnl37k-unsplash.jpg,0,1,1013,0,chosen,43,47,objects,objects,2700,0,3,3
160,30126,0,161,3,3,0,no_gain3,gain4,I,D,35,47,body_parts,objects,42,56,Stimuli/Experimental_stims/body_parts/wc-so-KH4AAPjb-tI-unsplash.jpg,Stimuli/Experimental_stims/objects/ronaldo-arthur-vidal-Cdz_lvnl37k-unsplash.jpg,1,NaN,,NaN,chosen,NaN,NaN,NaN,NaN,1600,0,3,3
161,30126,0,162,3,3,1,gain4,no_gain3,D,I,22,10,faces,outdoor_scenes,46,68,Stimuli/Experimental_stims/faces/ravi-patel-VMGAbeeJTKo-unsplash.jpg,Stimuli/Experimental_stims/outdoor_scenes/shannon-kunkle-dM8INmkyDas-unsplash.jpg,0,1,89,1,unchosen,22,10,faces,outdoor_scenes,4000,1,3,3
162,30126,0,163,3,3,0,no_gain1,gain3,H,B,9,12,outdoor_scenes,faces,59,61,Stimuli/Experimental_stims/outdoor_scenes/sergey-pesterev-y-b_FOmJXdg-unsplash.jpg,Stimuli/Experimental_stims/faces/aiony-haust-jmATI5Q_YgY-unsplash.jpg,0,0,1225,1,chosen,12,9,faces,outdoor_scenes,1900,0,3,3
163,30126,0,164,3,3,0,no_gain4,gain5,A,F,2,17,outdoor_scenes,faces,72,32,Stimuli/Experimental_stims/outdoor_scenes/bruno-van-der-kraan-qez8mNJ3ilU-unsplash.jpg,Stimuli/Experimental_stims/faces/good-faces-xmSWVeGEnJw-unsplash.jpg,1,NaN,,NaN,unchosen,NaN,NaN,NaN,NaN,1700,0,3,3
164,30126,0,165,3,3,0,no_gain6,gain4,E,D,46,47,objects,objects,46,56,Stimuli/Experimental_stims/objects/mockup-graphics-PNsj6RiHAF4-unsplash.jpg,Stimuli/Experimental_stims/objects/ronaldo-arthur-vidal-Cdz_lvnl37k-unsplash.jpg,0,1,608,0,chosen,46,47,objects,objects,1800,0,3,3
165,30126,0,166,3,3,1,gain5,no_gain3,F,I,24,35,body_parts,body_parts,42,42,Stimuli/Experimental_stims/body_parts/clay-banks-LjqARJaJotc-unsplash.jpg,Stimuli/Experimental_stims/body_parts/wc-so-KH4AAPjb-tI-unsplash.jpg,0,0,961,0,chosen,35,24,body_parts,body_parts,1500,0,3,3
166,30126,0,167,3,3,1,gain4,no_gain2,D,L,47,27,objects,body_parts,56,75,Stimuli/Experimental_stims/objects/ronaldo-arthur-vidal-Cdz_lvnl37k-unsplash.jpg,Stimuli/Experimental_stims/body_parts/heike-mintel-i_Gns0ELnLw-unsplash.jpg,0,1,934,1,chosen,47,27,objects,body_parts,2700,0,3,3
167,30126,0,168,3,3,0,no_gain6,gain6,E,C,32,34,body_parts,body_parts,34,15,Stimuli/Experimental_stims/body_parts/towfiqu-barbhuiya-3AsiVDsZnHg-unsplash.jpg,Stimuli/Experimental_stims/body_parts/wagner-santos-mBWMvIuVnso-unsplash.jpg,0,0,913,1,unchosen,34,32,body_parts,body_parts,3600,1,3,3
168,30126,0,169,3,3,0,no_gain2,gain6,L,C,27,0,body_parts,outdoor_scenes,75,69,Stimuli/Experimental_stims/body_parts/heike-mintel-i_Gns0ELnLw-unsplash.jpg,Stimuli/Experimental_stims/outdoor_scenes/aleksandra-boguslawska-MS7KD9Ti7FQ-unsplash.jpg,0,0,921,1,chosen,0,27,outdoor_scenes,body_parts,2100,0,3,3
169,30126,0,170,3,3,1,gain5,no_gain6,F,E,17,32,faces,body_parts,32,34,Stimuli/Experimental_stims/faces/good-faces-xmSWVeGEnJw-unsplash.jpg,Stimuli/Experimental_stims/body_parts/towfiqu-barbhuiya-3AsiVDsZnHg-unsplash.jpg,0,1,860,1,unchosen,17,32,faces,body_parts,2300,0,3,3
170,30126,0,171,3,3,1,gain1,no_gain3,G,I,3,10,outdoor_scenes,outdoor_scenes,59,68,Stimuli/Experimental_stims/outdoor_scenes/henry-be-NLF6hTe4PAg-unsplash.jpg,Stimuli/Experimental_stims/outdoor_scenes/shannon-kunkle-dM8INmkyDas-unsplash.jpg,0,1,909,1,unchosen,3,10,outdoor_scenes,outdoor_scenes,1400,0,3,3
171,30126,0,172,3,3,1,gain3,no_gain3,B,I,12,35,faces,body_parts,61,42,Stimuli/Experimental_stims/faces/aiony-haust-jmATI5Q_YgY-unsplash.jpg,Stimuli/Experimental_stims/body_parts/wc-so-KH4AAPjb-tI-unsplash.jpg,0,0,1130,0,chosen,35,12,body_parts,faces,1200,0,3,3
172,30126,0,173,3,3,1,gain2,no_gain6,K,E,26,46,body_parts,objects,41,46,Stimuli/Experimental_stims/body_parts/engin-akyurt-x_3gyC42btc-unsplash.jpg,Stimuli/Experimental_stims/objects/mockup-graphics-PNsj6RiHAF4-unsplash.jpg,0,0,843,0,chosen,46,26,objects,body_parts,1900,0,3,3
173,30126,0,174,3,3,0,no_gain2,gain4,L,D,18,22,faces,faces,43,46,Stimuli/Experimental_stims/faces/jessica-radanavong-mrYkTuAesKE-unsplash.jpg,Stimuli/Experimental_stims/faces/ravi-patel-VMGAbeeJTKo-unsplash.jpg,0,0,935,1,unchosen,22,18,faces,faces,1800,0,3,3
174,30126,0,175,3,3,1,gain6,no_gain6,C,E,0,46,outdoor_scenes,objects,69,46,Stimuli/Experimental_stims/outdoor_scenes/aleksandra-boguslawska-MS7KD9Ti7FQ-unsplash.jpg,Stimuli/Experimental_stims/objects/mockup-graphics-PNsj6RiHAF4-unsplash.jpg,0,1,767,1,chosen,0,46,outdoor_scenes,objects,4100,1,3,3
175,30126,0,176,3,3,0,no_gain5,gain6,J,C,43,0,objects,outdoor_scenes,82,69,Stimuli/Experimental_stims/objects/jonathan-greenaway-Y4hGgeiFn3s-unsplash.jpg,Stimuli/Experimental_stims/outdoor_scenes/aleksandra-boguslawska-MS7KD9Ti7FQ-unsplash.jpg,0,1,1163,0,chosen,43,0,objects,outdoor_scenes,1400,0,3,3
176,30126,0,177,3,3,0,no_gain2,gain6,L,C,18,34,faces,body_parts,43,15,Stimuli/Experimental_stims/faces/jessica-radanavong-mrYkTuAesKE-unsplash.jpg,Stimuli/Experimental_stims/body_parts/wagner-santos-mBWMvIuVnso-unsplash.jpg,0,1,971,0,unchosen,18,34,faces,body_parts,2200,0,3,3
177,30126,0,178,3,3,1,gain1,no_gain2,G,L,3,18,outdoor_scenes,faces,59,43,Stimuli/Experimental_stims/outdoor_scenes/henry-be-NLF6hTe4PAg-unsplash.jpg,Stimuli/Experimental_stims/faces/jessica-radanavong-mrYkTuAesKE-unsplash.jpg,0,1,912,1,unchosen,3,18,outdoor_scenes,faces,1400,0,3,3
178,30126,0,179,3,3,1,gain3,no_gain2,B,L,12,27,faces,body_parts,61,75,Stimuli/Experimental_stims/faces/aiony-haust-jmATI5Q_YgY-unsplash.jpg,Stimuli/Experimental_stims/body_parts/heike-mintel-i_Gns0ELnLw-unsplash.jpg,0,1,1019,1,chosen,12,27,faces,body_parts,1100,0,3,3
179,30126,0,180,3,3,1,gain4,no_gain1,D,H,47,9,objects,outdoor_scenes,56,59,Stimuli/Experimental_stims/objects/ronaldo-arthur-vidal-Cdz_lvnl37k-unsplash.jpg,Stimuli/Experimental_stims/outdoor_scenes/sergey-pesterev-y-b_FOmJXdg-unsplash.jpg,0,1,1189,1,chosen,47,9,objects,outdoor_scenes,1400,0,3,3
180,30126,0,181,3,3,1,gain1,no_gain4,G,A,3,2,outdoor_scenes,outdoor_scenes,59,72,Stimuli/Experimental_stims/outdoor_scenes/henry-be-NLF6hTe4PAg-unsplash.jpg,Stimuli/Experimental_stims/outdoor_scenes/bruno-van-der-kraan-qez8mNJ3ilU-unsplash.jpg,0,0,827,0,unchosen,2,3,outdoor_scenes,outdoor_scenes,1700,0,3,3
181,30126,0,182,3,3,1,gain1,no_gain4,G,A,36,39,objects,objects,14,67,Stimuli/Experimental_stims/objects/alexander-andrews-JYGnB9gTCls-unsplash.jpg,Stimuli/Experimental_stims/objects/charlesdeluvio-1-nx1QR5dTE-unsplash.jpg,0,0,780,0,chosen,39,36,objects,objects,3400,1,3,3
182,30126,0,183,3,3,1,gain3,no_gain5,B,J,12,43,faces,objects,61,82,Stimuli/Experimental_stims/faces/aiony-haust-jmATI5Q_YgY-unsplash.jpg,Stimuli/Experimental_stims/objects/jonathan-greenaway-Y4hGgeiFn3s-unsplash.jpg,0,1,801,1,chosen,12,43,faces,objects,1000,0,3,3
183,30126,0,184,3,3,1,gain1,no_gain6,G,E,3,32,outdoor_scenes,body_parts,59,34,Stimuli/Experimental_stims/outdoor_scenes/henry-be-NLF6hTe4PAg-unsplash.jpg,Stimuli/Experimental_stims/body_parts/towfiqu-barbhuiya-3AsiVDsZnHg-unsplash.jpg,0,0,1054,0,unchosen,32,3,body_parts,outdoor_scenes,1200,0,3,3
184,30126,0,185,3,3,0,no_gain5,gain4,J,D,20,22,faces,faces,44,46,Stimuli/Experimental_stims/faces/justin-chen-J7Cf1Gch49E-unsplash.jpg,Stimuli/Experimental_stims/faces/ravi-patel-VMGAbeeJTKo-unsplash.jpg,0,1,885,0,unchosen,20,22,faces,faces,1200,0,3,3
185,30126,0,186,3,3,0,no_gain1,gain2,H,K,9,26,outdoor_scenes,body_parts,59,41,Stimuli/Experimental_stims/outdoor_scenes/sergey-pesterev-y-b_FOmJXdg-unsplash.jpg,Stimuli/Experimental_stims/body_parts/engin-akyurt-x_3gyC42btc-unsplash.jpg,0,0,1214,1,chosen,26,9,body_parts,outdoor_scenes,2800,0,3,3
186,30126,0,187,3,3,0,no_gain1,gain4,H,D,14,22,faces,faces,19,46,Stimuli/Experimental_stims/faces/david-siglin-UuW4psOb388-unsplash.jpg,Stimuli/Experimental_stims/faces/ravi-patel-VMGAbeeJTKo-unsplash.jpg,0,1,719,0,unchosen,14,22,faces,faces,1200,0,3,3
187,30126,0,188,3,3,0,no_gain6,gain3,E,B,46,12,objects,faces,46,61,Stimuli/Experimental_stims/objects/mockup-graphics-PNsj6RiHAF4-unsplash.jpg,Stimuli/Experimental_stims/faces/aiony-haust-jmATI5Q_YgY-unsplash.jpg,0,0,823,1,chosen,12,46,faces,objects,1200,0,3,3
188,30126,0,189,3,3,1,gain2,no_gain2,K,L,26,27,body_parts,body_parts,41,75,Stimuli/Experimental_stims/body_parts/engin-akyurt-x_3gyC42btc-unsplash.jpg,Stimuli/Experimental_stims/body_parts/heike-mintel-i_Gns0ELnLw-unsplash.jpg,0,0,820,0,chosen,27,26,body_parts,body_parts,2100,0,3,3
189,30126,0,190,3,3,1,gain2,no_gain6,K,E,42,32,objects,body_parts,21,34,Stimuli/Experimental_stims/objects/jess-bailey-nOeVi8DsN8U-unsplash.jpg,Stimuli/Experimental_stims/body_parts/towfiqu-barbhuiya-3AsiVDsZnHg-unsplash.jpg,0,0,1065,0,unchosen,32,42,body_parts,objects,3800,1,3,3
190,30126,0,191,3,3,0,no_gain3,gain2,I,K,35,26,body_parts,body_parts,42,41,Stimuli/Experimental_stims/body_parts/wc-so-KH4AAPjb-tI-unsplash.jpg,Stimuli/Experimental_stims/body_parts/engin-akyurt-x_3gyC42btc-unsplash.jpg,0,1,546,0,chosen,35,26,body_parts,body_parts,2200,0,3,3
191,30126,0,192,3,3,1,gain4,no_gain4,D,A,22,2,faces,outdoor_scenes,46,72,Stimuli/Experimental_stims/faces/ravi-patel-VMGAbeeJTKo-unsplash.jpg,Stimuli/Experimental_stims/outdoor_scenes/bruno-van-der-kraan-qez8mNJ3ilU-unsplash.jpg,0,1,1116,1,unchosen,22,2,faces,outdoor_scenes,2500,0,3,3
192,30126,0,193,3,3,1,gain2,no_gain5,K,J,26,43,body_parts,objects,41,82,Stimuli/Experimental_stims/body_parts/engin-akyurt-x_3gyC42btc-unsplash.jpg,Stimuli/Experimental_stims/objects/jonathan-greenaway-Y4hGgeiFn3s-unsplash.jpg,0,0,864,0,chosen,43,26,objects,body_parts,1100,0,3,3
193,30126,0,194,3,3,1,gain3,no_gain1,B,H,11,14,outdoor_scenes,faces,78,19,Stimuli/Experimental_stims/outdoor_scenes/stephen-leonardi-gyIRjKPXupE-unsplash.jpg,Stimuli/Experimental_stims/faces/david-siglin-UuW4psOb388-unsplash.jpg,0,1,1204,1,unchosen,11,14,outdoor_scenes,faces,1800,0,3,3
194,30126,0,195,3,3,1,gain3,no_gain6,B,E,11,32,outdoor_scenes,body_parts,78,34,Stimuli/Experimental_stims/outdoor_scenes/stephen-leonardi-gyIRjKPXupE-unsplash.jpg,Stimuli/Experimental_stims/body_parts/towfiqu-barbhuiya-3AsiVDsZnHg-unsplash.jpg,0,1,911,1,unchosen,11,32,outdoor_scenes,body_parts,3600,1,3,3
195,30126,0,196,3,3,1,gain4,no_gain6,D,E,22,32,faces,body_parts,46,34,Stimuli/Experimental_stims/faces/ravi-patel-VMGAbeeJTKo-unsplash.jpg,Stimuli/Experimental_stims/body_parts/towfiqu-barbhuiya-3AsiVDsZnHg-unsplash.jpg,0,0,929,0,unchosen,32,22,body_parts,faces,2400,0,3,3
196,30126,0,197,3,3,1,gain1,no_gain1,G,H,36,9,objects,outdoor_scenes,14,59,Stimuli/Experimental_stims/objects/alexander-andrews-JYGnB9gTCls-unsplash.jpg,Stimuli/Experimental_stims/outdoor_scenes/sergey-pesterev-y-b_FOmJXdg-unsplash.jpg,1,NaN,,NaN,chosen,NaN,NaN,NaN,NaN,2400,0,3,3
197,30126,0,198,3,3,0,no_gain3,gain2,I,K,10,42,outdoor_scenes,objects,68,21,Stimuli/Experimental_stims/outdoor_scenes/shannon-kunkle-dM8INmkyDas-unsplash.jpg,Stimuli/Experimental_stims/objects/jess-bailey-nOeVi8DsN8U-unsplash.jpg,0,0,1268,1,unchosen,42,10,objects,outdoor_scenes,2200,0,3,3
198,30126,0,199,3,3,1,gain1,no_gain2,G,L,36,27,objects,body_parts,14,75,Stimuli/Experimental_stims/objects/alexander-andrews-JYGnB9gTCls-unsplash.jpg,Stimuli/Experimental_stims/body_parts/heike-mintel-i_Gns0ELnLw-unsplash.jpg,0,1,1210,1,chosen,36,27,objects,body_parts,2800,0,3,3
199,30126,0,200,3,3,0,no_gain2,gain3,L,B,18,11,faces,outdoor_scenes,43,78,Stimuli/Experimental_stims/faces/jessica-radanavong-mrYkTuAesKE-unsplash.jpg,Stimuli/Experimental_stims/outdoor_scenes/stephen-leonardi-gyIRjKPXupE-unsplash.jpg,1,NaN,,NaN,unchosen,NaN,NaN,NaN,NaN,1700,0,3,3
200,30126,0,201,3,3,0,no_gain1,gain6,H,C,14,34,faces,body_parts,19,15,Stimuli/Experimental_stims/faces/david-siglin-UuW4psOb388-unsplash.jpg,Stimuli/Experimental_stims/body_parts/wagner-santos-mBWMvIuVnso-unsplash.jpg,0,1,781,0,unchosen,14,34,faces,body_parts,1100,0,3,3
201,30126,0,202,3,3,0,no_gain4,gain3,A,B,39,12,objects,faces,67,61,Stimuli/Experimental_stims/objects/charlesdeluvio-1-nx1QR5dTE-unsplash.jpg,Stimuli/Experimental_stims/faces/aiony-haust-jmATI5Q_YgY-unsplash.jpg,0,1,972,0,chosen,39,12,objects,faces,1200,0,3,3
202,30126,0,203,3,3,0,no_gain3,gain5,I,F,10,17,outdoor_scenes,faces,68,32,Stimuli/Experimental_stims/outdoor_scenes/shannon-kunkle-dM8INmkyDas-unsplash.jpg,Stimuli/Experimental_stims/faces/good-faces-xmSWVeGEnJw-unsplash.jpg,0,0,859,1,unchosen,17,10,faces,outdoor_scenes,2700,0,3,3
203,30126,0,204,3,3,0,no_gain1,gain1,H,G,14,3,faces,outdoor_scenes,19,59,Stimuli/Experimental_stims/faces/david-siglin-UuW4psOb388-unsplash.jpg,Stimuli/Experimental_stims/outdoor_scenes/henry-be-NLF6hTe4PAg-unsplash.jpg,0,0,1053,1,unchosen,3,14,outdoor_scenes,faces,1100,0,3,3
204,30126,0,205,3,3,1,gain5,no_gain5,F,J,24,43,body_parts,objects,42,82,Stimuli/Experimental_stims/body_parts/clay-banks-LjqARJaJotc-unsplash.jpg,Stimuli/Experimental_stims/objects/jonathan-greenaway-Y4hGgeiFn3s-unsplash.jpg,0,1,937,1,chosen,24,43,body_parts,objects,1100,0,3,3
205,30126,0,206,3,3,0,no_gain4,gain6,A,C,39,0,objects,outdoor_scenes,67,69,Stimuli/Experimental_stims/objects/charlesdeluvio-1-nx1QR5dTE-unsplash.jpg,Stimuli/Experimental_stims/outdoor_scenes/aleksandra-boguslawska-MS7KD9Ti7FQ-unsplash.jpg,0,1,1077,0,chosen,39,0,objects,outdoor_scenes,1500,0,3,3
206,30126,0,207,3,3,0,no_gain5,gain3,J,B,20,11,faces,outdoor_scenes,44,78,Stimuli/Experimental_stims/faces/justin-chen-J7Cf1Gch49E-unsplash.jpg,Stimuli/Experimental_stims/outdoor_scenes/stephen-leonardi-gyIRjKPXupE-unsplash.jpg,1,NaN,,NaN,unchosen,NaN,NaN,NaN,NaN,1600,0,3,3
207,30126,0,208,3,3,0,no_gain1,gain5,H,F,9,24,outdoor_scenes,body_parts,59,42,Stimuli/Experimental_stims/outdoor_scenes/sergey-pesterev-y-b_FOmJXdg-unsplash.jpg,Stimuli/Experimental_stims/body_parts/clay-banks-LjqARJaJotc-unsplash.jpg,0,0,876,1,chosen,24,9,body_parts,outdoor_scenes,1500,0,3,3
208,30126,0,209,3,3,1,gain1,no_gain3,G,I,36,35,objects,body_parts,14,42,Stimuli/Experimental_stims/objects/alexander-andrews-JYGnB9gTCls-unsplash.jpg,Stimuli/Experimental_stims/body_parts/wc-so-KH4AAPjb-tI-unsplash.jpg,0,1,951,1,chosen,36,35,objects,body_parts,2800,0,3,3
209,30126,0,210,3,3,1,gain6,no_gain3,C,I,0,35,outdoor_scenes,body_parts,69,42,Stimuli/Experimental_stims/outdoor_scenes/aleksandra-boguslawska-MS7KD9Ti7FQ-unsplash.jpg,Stimuli/Experimental_stims/body_parts/wc-so-KH4AAPjb-tI-unsplash.jpg,0,0,1026,0,chosen,35,0,body_parts,outdoor_scenes,3400,1,3,3
210,30126,0,211,3,3,1,gain2,no_gain4,K,A,42,2,objects,outdoor_scenes,21,72,Stimuli/Experimental_stims/objects/jess-bailey-nOeVi8DsN8U-unsplash.jpg,Stimuli/Experimental_stims/outdoor_scenes/bruno-van-der-kraan-qez8mNJ3ilU-unsplash.jpg,0,1,774,1,unchosen,42,2,objects,outdoor_scenes,1500,0,3,3
211,30126,0,212,3,3,1,gain2,no_gain2,K,L,42,18,objects,faces,21,43,Stimuli/Experimental_stims/objects/jess-bailey-nOeVi8DsN8U-unsplash.jpg,Stimuli/Experimental_stims/faces/jessica-radanavong-mrYkTuAesKE-unsplash.jpg,0,0,867,0,unchosen,18,42,faces,objects,1500,0,3,3
212,30126,0,213,3,3,1,gain6,no_gain1,C,H,0,9,outdoor_scenes,outdoor_scenes,69,59,Stimuli/Experimental_stims/outdoor_scenes/aleksandra-boguslawska-MS7KD9Ti7FQ-unsplash.jpg,Stimuli/Experimental_stims/outdoor_scenes/sergey-pesterev-y-b_FOmJXdg-unsplash.jpg,0,1,682,1,chosen,0,9,outdoor_scenes,outdoor_scenes,1500,0,3,3
213,30126,0,214,3,3,0,no_gain5,gain2,J,K,20,42,faces,objects,44,21,Stimuli/Experimental_stims/faces/justin-chen-J7Cf1Gch49E-unsplash.jpg,Stimuli/Experimental_stims/objects/jess-bailey-nOeVi8DsN8U-unsplash.jpg,0,0,863,1,unchosen,42,20,objects,faces,1200,0,3,3
214,30126,0,215,3,3,0,no_gain4,gain5,A,F,39,24,objects,body_parts,67,42,Stimuli/Experimental_stims/objects/charlesdeluvio-1-nx1QR5dTE-unsplash.jpg,Stimuli/Experimental_stims/body_parts/clay-banks-LjqARJaJotc-unsplash.jpg,0,1,1068,0,chosen,39,24,objects,body_parts,1900,0,3,3
215,30126,0,216,3,3,1,gain6,no_gain4,C,A,34,2,body_parts,outdoor_scenes,15,72,Stimuli/Experimental_stims/body_parts/wagner-santos-mBWMvIuVnso-unsplash.jpg,Stimuli/Experimental_stims/outdoor_scenes/bruno-van-der-kraan-qez8mNJ3ilU-unsplash.jpg,0,1,1469,1,unchosen,34,2,body_parts,outdoor_scenes,3600,1,3,3
216,30126,0,217,3,3,0,no_gain2,gain5,L,F,18,17,faces,faces,43,32,Stimuli/Experimental_stims/faces/jessica-radanavong-mrYkTuAesKE-unsplash.jpg,Stimuli/Experimental_stims/faces/good-faces-xmSWVeGEnJw-unsplash.jpg,1,NaN,,NaN,unchosen,NaN,NaN,NaN,NaN,2500,0,3,3
217,30126,0,218,3,3,0,no_gain4,gain2,A,K,39,26,objects,body_parts,67,41,Stimuli/Experimental_stims/objects/charlesdeluvio-1-nx1QR5dTE-unsplash.jpg,Stimuli/Experimental_stims/body_parts/engin-akyurt-x_3gyC42btc-unsplash.jpg,0,1,910,0,chosen,39,26,objects,body_parts,1600,0,3,3
218,30126,0,219,3,3,1,gain6,no_gain3,C,I,34,10,body_parts,outdoor_scenes,15,68,Stimuli/Experimental_stims/body_parts/wagner-santos-mBWMvIuVnso-unsplash.jpg,Stimuli/Experimental_stims/outdoor_scenes/shannon-kunkle-dM8INmkyDas-unsplash.jpg,1,NaN,,NaN,unchosen,NaN,NaN,NaN,NaN,1200,0,3,3
219,30126,0,220,3,3,0,no_gain1,gain5,H,F,14,17,faces,faces,19,32,Stimuli/Experimental_stims/faces/david-siglin-UuW4psOb388-unsplash.jpg,Stimuli/Experimental_stims/faces/good-faces-xmSWVeGEnJw-unsplash.jpg,0,0,868,1,unchosen,17,14,faces,faces,1300,0,3,3
220,30126,0,221,4,4,0,no_gain6,gain5,E,F,32,17,body_parts,faces,34,32,Stimuli/Experimental_stims/body_parts/towfiqu-barbhuiya-3AsiVDsZnHg-unsplash.jpg,Stimuli/Experimental_stims/faces/good-faces-xmSWVeGEnJw-unsplash.jpg,0,0,1167,1,unchosen,17,32,faces,body_parts,3300,1,1,3
221,30126,0,222,4,4,0,no_gain4,gain5,A,F,2,17,outdoor_scenes,faces,72,32,Stimuli/Experimental_stims/outdoor_scenes/bruno-van-der-kraan-qez8mNJ3ilU-unsplash.jpg,Stimuli/Experimental_stims/faces/good-faces-xmSWVeGEnJw-unsplash.jpg,0,1,802,0,unchosen,2,17,outdoor_scenes,faces,1400,0,1,3
222,30126,0,223,4,4,1,gain5,no_gain5,F,J,24,43,body_parts,objects,42,82,Stimuli/Experimental_stims/body_parts/clay-banks-LjqARJaJotc-unsplash.jpg,Stimuli/Experimental_stims/objects/jonathan-greenaway-Y4hGgeiFn3s-unsplash.jpg,0,0,750,0,chosen,43,24,objects,body_parts,2400,0,1,3
223,30126,0,224,4,4,0,no_gain3,gain4,I,D,35,47,body_parts,objects,42,56,Stimuli/Experimental_stims/body_parts/wc-so-KH4AAPjb-tI-unsplash.jpg,Stimuli/Experimental_stims/objects/ronaldo-arthur-vidal-Cdz_lvnl37k-unsplash.jpg,0,0,787,1,chosen,47,35,objects,body_parts,1200,0,1,3
224,30126,0,225,4,4,1,gain4,no_gain1,D,H,22,14,faces,faces,46,19,Stimuli/Experimental_stims/faces/ravi-patel-VMGAbeeJTKo-unsplash.jpg,Stimuli/Experimental_stims/faces/david-siglin-UuW4psOb388-unsplash.jpg,0,0,1102,0,unchosen,14,22,faces,faces,1100,0,1,3
225,30126,0,226,4,4,0,no_gain1,gain1,H,G,14,3,faces,outdoor_scenes,19,59,Stimuli/Experimental_stims/faces/david-siglin-UuW4psOb388-unsplash.jpg,Stimuli/Experimental_stims/outdoor_scenes/henry-be-NLF6hTe4PAg-unsplash.jpg,0,1,764,0,unchosen,14,3,faces,outdoor_scenes,1600,0,1,3
226,30126,0,227,4,4,1,gain6,no_gain3,C,I,34,10,body_parts,outdoor_scenes,15,68,Stimuli/Experimental_stims/body_parts/wagner-santos-mBWMvIuVnso-unsplash.jpg,Stimuli/Experimental_stims/outdoor_scenes/shannon-kunkle-dM8INmkyDas-unsplash.jpg,0,1,796,1,unchosen,34,10,body_parts,outdoor_scenes,3100,1,1,3
227,30126,0,228,4,4,0,no_gain2,gain4,L,D,27,47,body_parts,objects,75,56,Stimuli/Experimental_stims/body_parts/heike-mintel-i_Gns0ELnLw-unsplash.jpg,Stimuli/Experimental_stims/objects/ronaldo-arthur-vidal-Cdz_lvnl37k-unsplash.jpg,0,0,736,1,chosen,47,27,objects,body_parts,1000,0,1,3
228,30126,0,229,4,4,1,gain6,no_gain5,C,J,0,43,outdoor_scenes,objects,69,82,Stimuli/Experimental_stims/outdoor_scenes/aleksandra-boguslawska-MS7KD9Ti7FQ-unsplash.jpg,Stimuli/Experimental_stims/objects/jonathan-greenaway-Y4hGgeiFn3s-unsplash.jpg,0,1,907,1,chosen,0,43,outdoor_scenes,objects,3000,0,1,3
229,30126,0,230,4,4,0,no_gain4,gain5,A,F,39,24,objects,body_parts,67,42,Stimuli/Experimental_stims/objects/charlesdeluvio-1-nx1QR5dTE-unsplash.jpg,Stimuli/Experimental_stims/body_parts/clay-banks-LjqARJaJotc-unsplash.jpg,0,0,996,1,chosen,24,39,body_parts,objects,1700,0,1,3
230,30126,0,231,4,4,1,gain1,no_gain4,G,A,3,2,outdoor_scenes,outdoor_scenes,59,72,Stimuli/Experimental_stims/outdoor_scenes/henry-be-NLF6hTe4PAg-unsplash.jpg,Stimuli/Experimental_stims/outdoor_scenes/bruno-van-der-kraan-qez8mNJ3ilU-unsplash.jpg,0,1,908,1,unchosen,3,2,outdoor_scenes,outdoor_scenes,2400,0,1,3
231,30126,0,232,4,4,0,no_gain6,gain2,E,K,46,26,objects,body_parts,46,41,Stimuli/Experimental_stims/objects/mockup-graphics-PNsj6RiHAF4-unsplash.jpg,Stimuli/Experimental_stims/body_parts/engin-akyurt-x_3gyC42btc-unsplash.jpg,0,0,1021,1,chosen,26,46,body_parts,objects,4000,1,1,3
232,30126,0,233,4,4,0,no_gain6,gain1,E,G,32,3,body_parts,outdoor_scenes,34,59,Stimuli/Experimental_stims/body_parts/towfiqu-barbhuiya-3AsiVDsZnHg-unsplash.jpg,Stimuli/Experimental_stims/outdoor_scenes/henry-be-NLF6hTe4PAg-unsplash.jpg,0,1,942,0,unchosen,32,3,body_parts,outdoor_scenes,1900,0,1,3
233,30126,0,234,4,4,1,gain3,no_gain4,B,A,12,39,faces,objects,61,67,Stimuli/Experimental_stims/faces/aiony-haust-jmATI5Q_YgY-unsplash.jpg,Stimuli/Experimental_stims/objects/charlesdeluvio-1-nx1QR5dTE-unsplash.jpg,0,0,930,0,chosen,39,12,objects,faces,1100,0,1,3
234,30126,0,235,4,4,1,gain5,no_gain1,F,H,17,14,faces,faces,32,19,Stimuli/Experimental_stims/faces/good-faces-xmSWVeGEnJw-unsplash.jpg,Stimuli/Experimental_stims/faces/david-siglin-UuW4psOb388-unsplash.jpg,0,1,839,1,unchosen,17,14,faces,faces,1300,0,1,3
235,30126,0,236,4,4,0,no_gain4,gain4,A,D,39,47,objects,objects,67,56,Stimuli/Experimental_stims/objects/charlesdeluvio-1-nx1QR5dTE-unsplash.jpg,Stimuli/Experimental_stims/objects/ronaldo-arthur-vidal-Cdz_lvnl37k-unsplash.jpg,0,1,1112,0,chosen,39,47,objects,objects,1900,0,1,3
236,30126,0,237,4,4,1,gain4,no_gain4,D,A,22,2,faces,outdoor_scenes,46,72,Stimuli/Experimental_stims/faces/ravi-patel-VMGAbeeJTKo-unsplash.jpg,Stimuli/Experimental_stims/outdoor_scenes/bruno-van-der-kraan-qez8mNJ3ilU-unsplash.jpg,0,1,875,1,unchosen,22,2,faces,outdoor_scenes,1800,0,1,3
237,30126,0,238,4,4,1,gain4,no_gain5,D,J,22,20,faces,faces,46,44,Stimuli/Experimental_stims/faces/ravi-patel-VMGAbeeJTKo-unsplash.jpg,Stimuli/Experimental_stims/faces/justin-chen-J7Cf1Gch49E-unsplash.jpg,0,0,1068,0,unchosen,20,22,faces,faces,4300,1,1,3
238,30126,0,239,4,4,1,gain5,no_gain5,F,J,17,20,faces,faces,32,44,Stimuli/Experimental_stims/faces/good-faces-xmSWVeGEnJw-unsplash.jpg,Stimuli/Experimental_stims/faces/justin-chen-J7Cf1Gch49E-unsplash.jpg,0,0,867,0,unchosen,20,17,faces,faces,2300,0,1,3
239,30126,0,240,4,4,1,gain3,no_gain2,B,L,12,27,faces,body_parts,61,75,Stimuli/Experimental_stims/faces/aiony-haust-jmATI5Q_YgY-unsplash.jpg,Stimuli/Experimental_stims/body_parts/heike-mintel-i_Gns0ELnLw-unsplash.jpg,0,0,779,0,chosen,27,12,body_parts,faces,1200,0,1,3
240,30126,0,241,4,4,0,no_gain4,gain2,A,K,39,26,objects,body_parts,67,41,Stimuli/Experimental_stims/objects/charlesdeluvio-1-nx1QR5dTE-unsplash.jpg,Stimuli/Experimental_stims/body_parts/engin-akyurt-x_3gyC42btc-unsplash.jpg,0,1,1025,0,chosen,39,26,objects,body_parts,1300,0,1,3
241,30126,0,242,4,4,0,no_gain3,gain1,I,G,10,3,outdoor_scenes,outdoor_scenes,68,59,Stimuli/Experimental_stims/outdoor_scenes/shannon-kunkle-dM8INmkyDas-unsplash.jpg,Stimuli/Experimental_stims/outdoor_scenes/henry-be-NLF6hTe4PAg-unsplash.jpg,1,NaN,,NaN,unchosen,NaN,NaN,NaN,NaN,1900,0,1,3
242,30126,0,243,4,4,1,gain3,no_gain6,B,E,11,32,outdoor_scenes,body_parts,78,34,Stimuli/Experimental_stims/outdoor_scenes/stephen-leonardi-gyIRjKPXupE-unsplash.jpg,Stimuli/Experimental_stims/body_parts/towfiqu-barbhuiya-3AsiVDsZnHg-unsplash.jpg,1,NaN,,NaN,unchosen,NaN,NaN,NaN,NaN,1300,0,1,3
243,30126,0,244,4,4,1,gain4,no_gain1,D,H,47,9,objects,outdoor_scenes,56,59,Stimuli/Experimental_stims/objects/ronaldo-arthur-vidal-Cdz_lvnl37k-unsplash.jpg,Stimuli/Experimental_stims/outdoor_scenes/sergey-pesterev-y-b_FOmJXdg-unsplash.jpg,0,1,847,1,chosen,47,9,objects,outdoor_scenes,4200,1,1,3
244,30126,0,245,4,4,0,no_gain2,gain5,L,F,18,17,faces,faces,43,32,Stimuli/Experimental_stims/faces/jessica-radanavong-mrYkTuAesKE-unsplash.jpg,Stimuli/Experimental_stims/faces/good-faces-xmSWVeGEnJw-unsplash.jpg,0,0,822,1,unchosen,17,18,faces,faces,2400,0,1,3
245,30126,0,246,4,4,1,gain2,no_gain2,K,L,26,27,body_parts,body_parts,41,75,Stimuli/Experimental_stims/body_parts/engin-akyurt-x_3gyC42btc-unsplash.jpg,Stimuli/Experimental_stims/body_parts/heike-mintel-i_Gns0ELnLw-unsplash.jpg,0,0,830,0,chosen,27,26,body_parts,body_parts,1700,0,1,3
246,30126,0,247,4,4,0,no_gain1,gain5,H,F,9,24,outdoor_scenes,body_parts,59,42,Stimuli/Experimental_stims/outdoor_scenes/sergey-pesterev-y-b_FOmJXdg-unsplash.jpg,Stimuli/Experimental_stims/body_parts/clay-banks-LjqARJaJotc-unsplash.jpg,0,1,915,0,chosen,9,24,outdoor_scenes,body_parts,1600,0,1,3
247,30126,0,248,4,4,1,gain3,no_gain5,B,J,11,20,outdoor_scenes,faces,78,44,Stimuli/Experimental_stims/outdoor_scenes/stephen-leonardi-gyIRjKPXupE-unsplash.jpg,Stimuli/Experimental_stims/faces/justin-chen-J7Cf1Gch49E-unsplash.jpg,0,0,840,0,unchosen,20,11,faces,outdoor_scenes,1100,0,1,3
248,30126,0,249,4,4,0,no_gain2,gain1,L,G,18,3,faces,outdoor_scenes,43,59,Stimuli/Experimental_stims/faces/jessica-radanavong-mrYkTuAesKE-unsplash.jpg,Stimuli/Experimental_stims/outdoor_scenes/henry-be-NLF6hTe4PAg-unsplash.jpg,0,1,836,0,unchosen,18,3,faces,outdoor_scenes,1200,0,1,3
249,30126,0,250,4,4,1,gain6,no_gain3,C,I,0,35,outdoor_scenes,body_parts,69,42,Stimuli/Experimental_stims/outdoor_scenes/aleksandra-boguslawska-MS7KD9Ti7FQ-unsplash.jpg,Stimuli/Experimental_stims/body_parts/wc-so-KH4AAPjb-tI-unsplash.jpg,0,0,898,0,chosen,35,0,body_parts,outdoor_scenes,3100,1,1,3
250,30126,0,251,4,4,1,gain3,no_gain6,B,E,12,46,faces,objects,61,46,Stimuli/Experimental_stims/faces/aiony-haust-jmATI5Q_YgY-unsplash.jpg,Stimuli/Experimental_stims/objects/mockup-graphics-PNsj6RiHAF4-unsplash.jpg,0,1,897,1,chosen,12,46,faces,objects,2600,0,1,3
251,30126,0,252,4,4,0,no_gain1,gain6,H,C,14,34,faces,body_parts,19,15,Stimuli/Experimental_stims/faces/david-siglin-UuW4psOb388-unsplash.jpg,Stimuli/Experimental_stims/body_parts/wagner-santos-mBWMvIuVnso-unsplash.jpg,0,0,1077,1,unchosen,34,14,body_parts,faces,2400,0,1,3
252,30126,0,253,4,4,1,gain2,no_gain3,K,I,42,10,objects,outdoor_scenes,21,68,Stimuli/Experimental_stims/objects/jess-bailey-nOeVi8DsN8U-unsplash.jpg,Stimuli/Experimental_stims/outdoor_scenes/shannon-kunkle-dM8INmkyDas-unsplash.jpg,0,1,1317,1,unchosen,42,10,objects,outdoor_scenes,1000,0,1,3
253,30126,0,254,4,4,0,no_gain6,gain4,E,D,46,47,objects,objects,46,56,Stimuli/Experimental_stims/objects/mockup-graphics-PNsj6RiHAF4-unsplash.jpg,Stimuli/Experimental_stims/objects/ronaldo-arthur-vidal-Cdz_lvnl37k-unsplash.jpg,0,0,1294,1,chosen,47,46,objects,objects,3000,0,1,3
254,30126,0,255,4,4,0,no_gain4,gain1,A,G,39,36,objects,objects,67,14,Stimuli/Experimental_stims/objects/charlesdeluvio-1-nx1QR5dTE-unsplash.jpg,Stimuli/Experimental_stims/objects/alexander-andrews-JYGnB9gTCls-unsplash.jpg,0,1,1488,0,chosen,39,36,objects,objects,2400,0,1,3
255,30126,0,256,4,4,0,no_gain2,gain3,L,B,18,11,faces,outdoor_scenes,43,78,Stimuli/Experimental_stims/faces/jessica-radanavong-mrYkTuAesKE-unsplash.jpg,Stimuli/Experimental_stims/outdoor_scenes/stephen-leonardi-gyIRjKPXupE-unsplash.jpg,0,0,3,1,unchosen,11,18,outdoor_scenes,faces,2300,0,1,3
256,30126,0,257,4,4,1,gain3,no_gain3,B,I,12,35,faces,body_parts,61,42,Stimuli/Experimental_stims/faces/aiony-haust-jmATI5Q_YgY-unsplash.jpg,Stimuli/Experimental_stims/body_parts/wc-so-KH4AAPjb-tI-unsplash.jpg,0,0,995,0,chosen,35,12,body_parts,faces,1900,0,1,3
257,30126,0,258,4,4,1,gain4,no_gain2,D,L,22,18,faces,faces,46,43,Stimuli/Experimental_stims/faces/ravi-patel-VMGAbeeJTKo-unsplash.jpg,Stimuli/Experimental_stims/faces/jessica-radanavong-mrYkTuAesKE-unsplash.jpg,0,1,859,1,unchosen,22,18,faces,faces,3200,1,1,3
258,30126,0,259,4,4,0,no_gain4,gain6,A,C,2,34,outdoor_scenes,body_parts,72,15,Stimuli/Experimental_stims/outdoor_scenes/bruno-van-der-kraan-qez8mNJ3ilU-unsplash.jpg,Stimuli/Experimental_stims/body_parts/wagner-santos-mBWMvIuVnso-unsplash.jpg,0,1,917,0,unchosen,2,34,outdoor_scenes,body_parts,1000,0,1,3
259,30126,0,260,4,4,1,gain5,no_gain3,F,I,24,35,body_parts,body_parts,42,42,Stimuli/Experimental_stims/body_parts/clay-banks-LjqARJaJotc-unsplash.jpg,Stimuli/Experimental_stims/body_parts/wc-so-KH4AAPjb-tI-unsplash.jpg,1,NaN,,NaN,chosen,NaN,NaN,NaN,NaN,1200,0,1,3
260,30126,0,261,4,4,0,no_gain5,gain4,J,D,43,47,objects,objects,82,56,Stimuli/Experimental_stims/objects/jonathan-greenaway-Y4hGgeiFn3s-unsplash.jpg,Stimuli/Experimental_stims/objects/ronaldo-arthur-vidal-Cdz_lvnl37k-unsplash.jpg,0,1,1282,0,chosen,43,47,objects,objects,2700,0,1,3
261,30126,0,262,4,4,0,no_gain1,gain1,H,G,9,36,outdoor_scenes,objects,59,14,Stimuli/Experimental_stims/outdoor_scenes/sergey-pesterev-y-b_FOmJXdg-unsplash.jpg,Stimuli/Experimental_stims/objects/alexander-andrews-JYGnB9gTCls-unsplash.jpg,0,0,838,1,chosen,36,9,objects,outdoor_scenes,1300,0,1,3
262,30126,0,263,4,4,0,no_gain1,gain2,H,K,14,42,faces,objects,19,21,Stimuli/Experimental_stims/faces/david-siglin-UuW4psOb388-unsplash.jpg,Stimuli/Experimental_stims/objects/jess-bailey-nOeVi8DsN8U-unsplash.jpg,0,0,1252,1,unchosen,42,14,objects,faces,1500,0,1,3
263,30126,0,264,4,4,1,gain3,no_gain5,B,J,12,43,faces,objects,61,82,Stimuli/Experimental_stims/faces/aiony-haust-jmATI5Q_YgY-unsplash.jpg,Stimuli/Experimental_stims/objects/jonathan-greenaway-Y4hGgeiFn3s-unsplash.jpg,0,0,1177,0,chosen,43,12,objects,faces,3700,1,1,3
264,30126,0,265,4,4,0,no_gain2,gain5,L,F,27,24,body_parts,body_parts,75,42,Stimuli/Experimental_stims/body_parts/heike-mintel-i_Gns0ELnLw-unsplash.jpg,Stimuli/Experimental_stims/body_parts/clay-banks-LjqARJaJotc-unsplash.jpg,0,1,766,0,chosen,27,24,body_parts,body_parts,1000,0,1,3
265,30126,0,266,4,4,1,gain4,no_gain6,D,E,22,32,faces,body_parts,46,34,Stimuli/Experimental_stims/faces/ravi-patel-VMGAbeeJTKo-unsplash.jpg,Stimuli/Experimental_stims/body_parts/towfiqu-barbhuiya-3AsiVDsZnHg-unsplash.jpg,0,0,1091,0,unchosen,32,22,body_parts,faces,1700,0,1,3
266,30126,0,267,4,4,1,gain4,no_gain3,D,I,22,10,faces,outdoor_scenes,46,68,Stimuli/Experimental_stims/faces/ravi-patel-VMGAbeeJTKo-unsplash.jpg,Stimuli/Experimental_stims/outdoor_scenes/shannon-kunkle-dM8INmkyDas-unsplash.jpg,0,1,1084,1,unchosen,22,10,faces,outdoor_scenes,1100,0,1,3
267,30126,0,268,4,4,0,no_gain4,gain3,A,B,2,11,outdoor_scenes,outdoor_scenes,72,78,Stimuli/Experimental_stims/outdoor_scenes/bruno-van-der-kraan-qez8mNJ3ilU-unsplash.jpg,Stimuli/Experimental_stims/outdoor_scenes/stephen-leonardi-gyIRjKPXupE-unsplash.jpg,0,0,912,1,unchosen,11,2,outdoor_scenes,outdoor_scenes,1200,0,1,3
268,30126,0,269,4,4,1,gain5,no_gain6,F,E,24,46,body_parts,objects,42,46,Stimuli/Experimental_stims/body_parts/clay-banks-LjqARJaJotc-unsplash.jpg,Stimuli/Experimental_stims/objects/mockup-graphics-PNsj6RiHAF4-unsplash.jpg,0,1,867,1,chosen,24,46,body_parts,objects,1300,0,1,3
269,30126,0,270,4,4,1,gain6,no_gain1,C,H,0,9,outdoor_scenes,outdoor_scenes,69,59,Stimuli/Experimental_stims/outdoor_scenes/aleksandra-boguslawska-MS7KD9Ti7FQ-unsplash.jpg,Stimuli/Experimental_stims/outdoor_scenes/sergey-pesterev-y-b_FOmJXdg-unsplash.jpg,0,1,731,1,chosen,0,9,outdoor_scenes,outdoor_scenes,1700,0,1,3
270,30126,0,271,4,4,1,gain2,no_gain2,K,L,42,18,objects,faces,21,43,Stimuli/Experimental_stims/objects/jess-bailey-nOeVi8DsN8U-unsplash.jpg,Stimuli/Experimental_stims/faces/jessica-radanavong-mrYkTuAesKE-unsplash.jpg,0,1,875,1,unchosen,42,18,objects,faces,3400,1,1,3
271,30126,0,272,4,4,0,no_gain5,gain6,J,C,20,34,faces,body_parts,44,15,Stimuli/Experimental_stims/faces/justin-chen-J7Cf1Gch49E-unsplash.jpg,Stimuli/Experimental_stims/body_parts/wagner-santos-mBWMvIuVnso-unsplash.jpg,0,0,1082,1,unchosen,34,20,body_parts,faces,2500,0,1,3
272,30126,0,273,4,4,1,gain2,no_gain1,K,H,26,9,body_parts,outdoor_scenes,41,59,Stimuli/Experimental_stims/body_parts/engin-akyurt-x_3gyC42btc-unsplash.jpg,Stimuli/Experimental_stims/outdoor_scenes/sergey-pesterev-y-b_FOmJXdg-unsplash.jpg,0,0,1145,0,chosen,9,26,outdoor_scenes,body_parts,2600,0,1,3
273,30126,0,274,4,4,1,gain2,no_gain6,K,E,42,32,objects,body_parts,21,34,Stimuli/Experimental_stims/objects/jess-bailey-nOeVi8DsN8U-unsplash.jpg,Stimuli/Experimental_stims/body_parts/towfiqu-barbhuiya-3AsiVDsZnHg-unsplash.jpg,0,1,1181,1,unchosen,42,32,objects,body_parts,2000,0,1,3
274,30126,0,275,4,4,0,no_gain1,gain3,H,B,9,12,outdoor_scenes,faces,59,61,Stimuli/Experimental_stims/outdoor_scenes/sergey-pesterev-y-b_FOmJXdg-unsplash.jpg,Stimuli/Experimental_stims/faces/aiony-haust-jmATI5Q_YgY-unsplash.jpg,1,NaN,,NaN,chosen,NaN,NaN,NaN,NaN,1900,0,1,3
275,30126,0,276,4,4,0,no_gain2,gain6,L,C,18,34,faces,body_parts,43,15,Stimuli/Experimental_stims/faces/jessica-radanavong-mrYkTuAesKE-unsplash.jpg,Stimuli/Experimental_stims/body_parts/wagner-santos-mBWMvIuVnso-unsplash.jpg,0,1,1173,0,unchosen,18,34,faces,body_parts,1500,0,1,3
276,30126,0,277,4,4,1,gain2,no_gain5,K,J,42,20,objects,faces,21,44,Stimuli/Experimental_stims/objects/jess-bailey-nOeVi8DsN8U-unsplash.jpg,Stimuli/Experimental_stims/faces/justin-chen-J7Cf1Gch49E-unsplash.jpg,0,1,1008,1,unchosen,42,20,objects,faces,2500,0,1,3
277,30126,0,278,4,4,0,no_gain6,gain6,E,C,46,0,objects,outdoor_scenes,46,69,Stimuli/Experimental_stims/objects/mockup-graphics-PNsj6RiHAF4-unsplash.jpg,Stimuli/Experimental_stims/outdoor_scenes/aleksandra-boguslawska-MS7KD9Ti7FQ-unsplash.jpg,0,1,850,0,chosen,46,0,objects,outdoor_scenes,1400,0,1,3
278,30126,0,279,4,4,0,no_gain3,gain2,I,K,35,26,body_parts,body_parts,42,41,Stimuli/Experimental_stims/body_parts/wc-so-KH4AAPjb-tI-unsplash.jpg,Stimuli/Experimental_stims/body_parts/engin-akyurt-x_3gyC42btc-unsplash.jpg,0,0,1241,1,chosen,26,35,body_parts,body_parts,1300,0,1,3
279,30126,0,280,4,4,1,gain6,no_gain6,C,E,34,32,body_parts,body_parts,15,34,Stimuli/Experimental_stims/body_parts/wagner-santos-mBWMvIuVnso-unsplash.jpg,Stimuli/Experimental_stims/body_parts/towfiqu-barbhuiya-3AsiVDsZnHg-unsplash.jpg,0,1,860,1,unchosen,34,32,body_parts,body_parts,1100,0,1,3
280,30126,0,281,4,4,1,gain6,no_gain2,C,L,0,27,outdoor_scenes,body_parts,69,75,Stimuli/Experimental_stims/outdoor_scenes/aleksandra-boguslawska-MS7KD9Ti7FQ-unsplash.jpg,Stimuli/Experimental_stims/body_parts/heike-mintel-i_Gns0ELnLw-unsplash.jpg,0,0,1040,0,chosen,27,0,body_parts,outdoor_scenes,1100,0,1,3
281,30126,0,282,4,4,1,gain2,no_gain5,K,J,26,43,body_parts,objects,41,82,Stimuli/Experimental_stims/body_parts/engin-akyurt-x_3gyC42btc-unsplash.jpg,Stimuli/Experimental_stims/objects/jonathan-greenaway-Y4hGgeiFn3s-unsplash.jpg,0,1,1113,1,chosen,26,43,body_parts,objects,3900,1,1,3
282,30126,0,283,4,4,1,gain2,no_gain4,K,A,42,2,objects,outdoor_scenes,21,72,Stimuli/Experimental_stims/objects/jess-bailey-nOeVi8DsN8U-unsplash.jpg,Stimuli/Experimental_stims/outdoor_scenes/bruno-van-der-kraan-qez8mNJ3ilU-unsplash.jpg,0,0,895,0,unchosen,2,42,outdoor_scenes,objects,1200,0,1,3
283,30126,0,284,4,4,0,no_gain4,gain6,A,C,39,0,objects,outdoor_scenes,67,69,Stimuli/Experimental_stims/objects/charlesdeluvio-1-nx1QR5dTE-unsplash.jpg,Stimuli/Experimental_stims/outdoor_scenes/aleksandra-boguslawska-MS7KD9Ti7FQ-unsplash.jpg,0,1,491,0,chosen,39,0,objects,outdoor_scenes,1800,0,1,3
284,30126,0,285,4,4,0,no_gain1,gain3,H,B,14,11,faces,outdoor_scenes,19,78,Stimuli/Experimental_stims/faces/david-siglin-UuW4psOb388-unsplash.jpg,Stimuli/Experimental_stims/outdoor_scenes/stephen-leonardi-gyIRjKPXupE-unsplash.jpg,1,NaN,,NaN,unchosen,NaN,NaN,NaN,NaN,1900,0,1,3
285,30126,0,286,4,4,1,gain1,no_gain3,G,I,36,35,objects,body_parts,14,42,Stimuli/Experimental_stims/objects/alexander-andrews-JYGnB9gTCls-unsplash.jpg,Stimuli/Experimental_stims/body_parts/wc-so-KH4AAPjb-tI-unsplash.jpg,0,1,815,1,chosen,36,35,objects,body_parts,1100,0,1,3
286,30126,0,287,4,4,0,no_gain3,gain3,I,B,10,11,outdoor_scenes,outdoor_scenes,68,78,Stimuli/Experimental_stims/outdoor_scenes/shannon-kunkle-dM8INmkyDas-unsplash.jpg,Stimuli/Experimental_stims/outdoor_scenes/stephen-leonardi-gyIRjKPXupE-unsplash.jpg,1,NaN,,NaN,unchosen,NaN,NaN,NaN,NaN,3000,0,1,3
287,30126,0,288,4,4,0,no_gain5,gain1,J,G,20,3,faces,outdoor_scenes,44,59,Stimuli/Experimental_stims/faces/justin-chen-J7Cf1Gch49E-unsplash.jpg,Stimuli/Experimental_stims/outdoor_scenes/henry-be-NLF6hTe4PAg-unsplash.jpg,1,NaN,,NaN,unchosen,NaN,NaN,NaN,NaN,2800,0,1,3
288,30126,0,289,4,4,0,no_gain3,gain5,I,F,10,17,outdoor_scenes,faces,68,32,Stimuli/Experimental_stims/outdoor_scenes/shannon-kunkle-dM8INmkyDas-unsplash.jpg,Stimuli/Experimental_stims/faces/good-faces-xmSWVeGEnJw-unsplash.jpg,0,1,1113,0,unchosen,10,17,outdoor_scenes,faces,1600,0,1,3
289,30126,0,290,4,4,0,no_gain6,gain1,E,G,46,36,objects,objects,46,14,Stimuli/Experimental_stims/objects/mockup-graphics-PNsj6RiHAF4-unsplash.jpg,Stimuli/Experimental_stims/objects/alexander-andrews-JYGnB9gTCls-unsplash.jpg,0,1,1101,0,chosen,46,36,objects,objects,1800,0,1,3
290,30126,0,291,4,4,0,no_gain2,gain1,L,G,27,36,body_parts,objects,75,14,Stimuli/Experimental_stims/body_parts/heike-mintel-i_Gns0ELnLw-unsplash.jpg,Stimuli/Experimental_stims/objects/alexander-andrews-JYGnB9gTCls-unsplash.jpg,0,0,1238,1,chosen,36,27,objects,body_parts,1900,0,1,3
291,30126,0,292,4,4,1,gain1,no_gain5,G,J,36,43,objects,objects,14,82,Stimuli/Experimental_stims/objects/alexander-andrews-JYGnB9gTCls-unsplash.jpg,Stimuli/Experimental_stims/objects/jonathan-greenaway-Y4hGgeiFn3s-unsplash.jpg,0,0,1041,0,chosen,43,36,objects,objects,1700,0,1,3