,PID,practice,trial,block,run,gain_left,left_item_id,right_item_id,left_pair_id,right_pair_id,left_stimulus,right_stimulus,left_category,right_category,left_rating,right_rating,left_path,right_path,no_response,left_chosen,rt,higher_outcome_chosen,choice_type,chosen_stimulus,unchosen_stimulus,chosen_category,unchosen_category,iti,long_iti,simulation,version
0,38479,1,1,0,0,0,,,,,,,,,,,Stimuli/Practice_stims/Final_decisions/debby-hudson-FmCSSSGge-0-unsplash.jpg,Stimuli/Practice_stims/Final_decisions/yassine-khalfalli-adsQ9d_Cx0c-unsplash.jpg,0,1,1501,0,,,,,,3000,0,5,4
1,38479,1,2,0,0,0,,,,,,,,,,,Stimuli/Practice_stims/Final_decisions/florian-wehde-iVW7mZPwd4g-unsplash.jpg,Stimuli/Practice_stims/Final_decisions/patrick-perkins-3wylDrjxH-E-unsplash.jpg,0,1,1381,0,,,,,,1500,0,5,4
2,38479,1,3,0,0,0,,,,,,,,,,,Stimuli/Practice_stims/Final_decisions/debby-hudson-FmCSSSGge-0-unsplash.jpg,Stimuli/Practice_stims/Final_decisions/florian-wehde-iVW7mZPwd4g-unsplash.jpg,0,0,1051,1,,,,,,2000,0,5,4
3,38479,1,4,0,0,0,,,,,,,,,,,Stimuli/Practice_stims/Final_decisions/yassine-khalfalli-adsQ9d_Cx0c-unsplash.jpg,Stimuli/Practice_stims/Final_decisions/debby-hudson-FmCSSSGge-0-unsplash.jpg,0,0,758,1,,,,,,1000,0,5,4
4,38479,0,5,1,1,0,no_gain2,gain4,A,J,4,16,outdoor_scenes,faces,85,78,Stimuli/Experimental_stims/outdoor_scenes/jarrett-kow-1ZOyYPOBn7I-unsplash.jpg,Stimuli/Experimental_stims/faces/freddy-kearney-o-ioeoATbIM-unsplash.jpg,1,NaN,,NaN,chosen,NaN,NaN,NaN,NaN,5000,1,5,4
5,38479,0,6,1,1,0,no_gain1,gain4,K,J,41,42,objects,objects,19,0,Stimuli/Experimental_stims/objects/insung-yoon-w2JtIQQXoRU-unsplash.jpg,Stimuli/Experimental_stims/objects/jess-bailey-nOeVi8DsN8U-unsplash.jpg,0,1,847,0,unchosen,41,42,objects,objects,1700,0,5,4
6,38479,0,7,1,1,1,gain2,no_gain4,G,H,5,12,outdoor_scenes,faces,67,93,Stimuli/Experimental_stims/outdoor_scenes/jeff-king-bJHWJeiHfHc-unsplash.jpg,Stimuli/Experimental_stims/faces/aiony-haust-jmATI5Q_YgY-unsplash.jpg,0,0,691,0,chosen,12,5,faces,outdoor_scenes,1600,0,5,4
7,38479,0,8,1,1,1,gain1,no_gain2,E,A,45,44,objects,objects,69,0,Stimuli/Experimental_stims/objects/leohoho-rngTKHXumy0-unsplash.jpg,Stimuli/Experimental_stims/objects/kuiye-chen-NuOGFo4PudE-unsplash.jpg,0,1,1304,1,unchosen,45,44,objects,objects,1800,0,5,4
8,38479,0,9,1,1,0,no_gain6,gain6,D,F,36,34,objects,body_parts,0,0,Stimuli/Experimental_stims/objects/alexander-andrews-JYGnB9gTCls-unsplash.jpg,Stimuli/Experimental_stims/body_parts/wagner-santos-mBWMvIuVnso-unsplash.jpg,0,1,1215,0,unchosen,36,34,objects,body_parts,1300,0,5,4
9,38479,0,10,1,1,1,gain6,no_gain1,F,K,34,41,body_parts,objects,0,19,Stimuli/Experimental_stims/body_parts/wagner-santos-mBWMvIuVnso-unsplash.jpg,Stimuli/Experimental_stims/objects/insung-yoon-w2JtIQQXoRU-unsplash.jpg,0,0,1347,0,unchosen,41,34,objects,body_parts,1200,0,5,4
10,38479,0,11,1,1,0,no_gain4,gain5,H,B,12,3,faces,outdoor_scenes,93,92,Stimuli/Experimental_stims/faces/aiony-haust-jmATI5Q_YgY-unsplash.jpg,Stimuli/Experimental_stims/outdoor_scenes/henry-be-NLF6hTe4PAg-unsplash.jpg,0,1,880,0,chosen,12,3,faces,outdoor_scenes,3800,1,5,4
11,38479,0,12,1,1,0,no_gain3,gain2,I,G,10,5,outdoor_scenes,outdoor_scenes,17,67,Stimuli/Experimental_stims/outdoor_scenes/shannon-kunkle-dM8INmkyDas-unsplash.jpg,Stimuli/Experimental_stims/outdoor_scenes/jeff-king-bJHWJeiHfHc-unsplash.jpg,0,0,1123,1,chosen,5,10,outdoor_scenes,outdoor_scenes,1100,0,5,4
12,38479,0,13,1,1,1,gain5,no_gain4,B,H,20,8,faces,outdoor_scenes,0,72,Stimuli/Experimental_stims/faces/justin-chen-J7Cf1Gch49E-unsplash.jpg,Stimuli/Experimental_stims/outdoor_scenes/samsommer-vddccTqwal8-unsplash.jpg,0,0,917,0,unchosen,8,20,outdoor_scenes,faces,2500,0,5,4
13,38479,0,14,1,1,0,no_gain3,gain3,I,L,10,32,outdoor_scenes,body_parts,17,0,Stimuli/Experimental_stims/outdoor_scenes/shannon-kunkle-dM8INmkyDas-unsplash.jpg,Stimuli/Experimental_stims/body_parts/towfiqu-barbhuiya-3AsiVDsZnHg-unsplash.jpg,0,1,873,0,chosen,10,32,outdoor_scenes,body_parts,1500,0,5,4
14,38479,0,15,1,1,0,no_gain6,gain1,D,E,36,45,objects,objects,0,69,Stimuli/Experimental_stims/objects/alexander-andrews-JYGnB9gTCls-unsplash.jpg,Stimuli/Experimental_stims/objects/leohoho-rngTKHXumy0-unsplash.jpg,0,0,927,1,unchosen,45,36,objects,objects,1400,0,5,4
15,38479,0,16,1,1,0,no_gain2,gain3,A,L,4,32,outdoor_scenes,body_parts,85,0,Stimuli/Experimental_stims/outdoor_scenes/jarrett-kow-1ZOyYPOBn7I-unsplash.jpg,Stimuli/Experimental_stims/body_parts/towfiqu-barbhuiya-3AsiVDsZnHg-unsplash.jpg,0,0,1235,1,chosen,32,4,body_parts,outdoor_scenes,3300,1,5,4
16,38479,0,17,1,1,0,no_gain3,gain3,I,L,31,18,body_parts,faces,0,24,Stimuli/Experimental_stims/body_parts/sincerely-media-VN6DbKajo5s-unsplash.jpg,Stimuli/Experimental_stims/faces/jessica-radanavong-mrYkTuAesKE-unsplash.jpg,1,NaN,,NaN,unchosen,NaN,NaN,NaN,NaN,1800,0,5,4
17,38479,0,18,1,1,0,no_gain1,gain3,K,L,41,18,objects,faces,19,24,Stimuli/Experimental_stims/objects/insung-yoon-w2JtIQQXoRU-unsplash.jpg,Stimuli/Experimental_stims/faces/jessica-radanavong-mrYkTuAesKE-unsplash.jpg,0,0,773,1,unchosen,18,41,faces,objects,1900,0,5,4
18,38479,0,19,1,1,0,no_gain6,gain4,D,J,36,42,objects,objects,0,0,Stimuli/Experimental_stims/objects/alexander-andrews-JYGnB9gTCls-unsplash.jpg,Stimuli/Experimental_stims/objects/jess-bailey-nOeVi8DsN8U-unsplash.jpg,0,0,883,1,unchosen,42,36,objects,objects,1100,0,5,4
19,38479,0,20,1,1,0,no_gain2,gain1,A,E,4,29,outdoor_scenes,body_parts,85,0,Stimuli/Experimental_stims/outdoor_scenes/jarrett-kow-1ZOyYPOBn7I-unsplash.jpg,Stimuli/Experimental_stims/body_parts/manuel-schinner-ZwjFuJ7ebpk-unsplash.jpg,0,1,852,0,chosen,4,29,outdoor_scenes,body_parts,1200,0,5,4
20,38479,0,21,1,1,1,gain4,no_gain4,J,H,42,8,objects,outdoor_scenes,0,72,Stimuli/Experimental_stims/objects/jess-bailey-nOeVi8DsN8U-unsplash.jpg,Stimuli/Experimental_stims/outdoor_scenes/samsommer-vddccTqwal8-unsplash.jpg,0,1,847,1,unchosen,42,8,objects,outdoor_scenes,1400,0,5,4
21,38479,0,22,1,1,0,no_gain4,gain3,H,L,12,32,faces,body_parts,93,0,Stimuli/Experimental_stims/faces/aiony-haust-jmATI5Q_YgY-unsplash.jpg,Stimuli/Experimental_stims/body_parts/towfiqu-barbhuiya-3AsiVDsZnHg-unsplash.jpg,0,1,908,0,chosen,12,32,faces,body_parts,1100,0,5,4
22,38479,0,23,1,1,0,no_gain3,gain5,I,B,31,20,body_parts,faces,0,0,Stimuli/Experimental_stims/body_parts/sincerely-media-VN6DbKajo5s-unsplash.jpg,Stimuli/Experimental_stims/faces/justin-chen-J7Cf1Gch49E-unsplash.jpg,0,0,663,1,unchosen,20,31,faces,body_parts,1500,0,5,4
23,38479,0,24,1,1,1,gain1,no_gain3,E,I,29,10,body_parts,outdoor_scenes,0,17,Stimuli/Experimental_stims/body_parts/manuel-schinner-ZwjFuJ7ebpk-unsplash.jpg,Stimuli/Experimental_stims/outdoor_scenes/shannon-kunkle-dM8INmkyDas-unsplash.jpg,0,0,880,0,chosen,10,29,outdoor_scenes,body_parts,1600,0,5,4
24,38479,0,25,1,1,1,gain2,no_gain1,G,K,40,41,objects,objects,0,19,Stimuli/Experimental_stims/objects/fabian-blank-pElSkGRA2NU-unsplash.jpg,Stimuli/Experimental_stims/objects/insung-yoon-w2JtIQQXoRU-unsplash.jpg,0,0,1066,0,unchosen,41,40,objects,objects,3000,1,5,4
25,38479,0,26,1,1,1,gain6,no_gain4,F,H,22,12,faces,faces,68,93,Stimuli/Experimental_stims/faces/ravi-patel-VMGAbeeJTKo-unsplash.jpg,Stimuli/Experimental_stims/faces/aiony-haust-jmATI5Q_YgY-unsplash.jpg,0,0,870,0,chosen,12,22,faces,faces,1600,0,5,4
26,38479,0,27,1,1,0,no_gain1,gain1,K,E,41,45,objects,objects,19,69,Stimuli/Experimental_stims/objects/insung-yoon-w2JtIQQXoRU-unsplash.jpg,Stimuli/Experimental_stims/objects/leohoho-rngTKHXumy0-unsplash.jpg,0,0,761,1,unchosen,45,41,objects,objects,2900,0,5,4
27,38479,0,28,1,1,0,no_gain1,gain3,K,L,33,32,body_parts,body_parts,0,0,Stimuli/Experimental_stims/body_parts/tucker-good-36skLT5jZcc-unsplash.jpg,Stimuli/Experimental_stims/body_parts/towfiqu-barbhuiya-3AsiVDsZnHg-unsplash.jpg,0,0,934,1,chosen,32,33,body_parts,body_parts,2700,0,5,4
28,38479,0,29,1,1,1,gain5,no_gain3,B,I,3,10,outdoor_scenes,outdoor_scenes,92,17,Stimuli/Experimental_stims/outdoor_scenes/henry-be-NLF6hTe4PAg-unsplash.jpg,Stimuli/Experimental_stims/outdoor_scenes/shannon-kunkle-dM8INmkyDas-unsplash.jpg,0,1,1230,1,chosen,3,10,outdoor_scenes,outdoor_scenes,1800,0,5,4
29,38479,0,30,1,1,1,gain5,no_gain5,B,C,20,26,faces,body_parts,0,0,Stimuli/Experimental_stims/faces/justin-chen-J7Cf1Gch49E-unsplash.jpg,Stimuli/Experimental_stims/body_parts/engin-akyurt-x_3gyC42btc-unsplash.jpg,0,0,1120,0,unchosen,26,20,body_parts,faces,2300,0,5,4
30,38479,0,31,1,1,0,no_gain1,gain4,K,J,33,16,body_parts,faces,0,78,Stimuli/Experimental_stims/body_parts/tucker-good-36skLT5jZcc-unsplash.jpg,Stimuli/Experimental_stims/faces/freddy-kearney-o-ioeoATbIM-unsplash.jpg,0,0,973,1,chosen,16,33,faces,body_parts,2000,0,5,4
31,38479,0,32,1,1,1,gain6,no_gain2,F,A,22,4,faces,outdoor_scenes,68,85,Stimuli/Experimental_stims/faces/ravi-patel-VMGAbeeJTKo-unsplash.jpg,Stimuli/Experimental_stims/outdoor_scenes/jarrett-kow-1ZOyYPOBn7I-unsplash.jpg,0,0,969,0,chosen,4,22,outdoor_scenes,faces,2600,0,5,4
32,38479,0,33,1,1,1,gain4,no_gain3,J,I,42,31,objects,body_parts,0,0,Stimuli/Experimental_stims/objects/jess-bailey-nOeVi8DsN8U-unsplash.jpg,Stimuli/Experimental_stims/body_parts/sincerely-media-VN6DbKajo5s-unsplash.jpg,0,1,962,1,unchosen,42,31,objects,body_parts,3500,1,5,4
33,38479,0,34,1,1,1,gain4,no_gain5,J,C,42,26,objects,body_parts,0,0,Stimuli/Experimental_stims/objects/jess-bailey-nOeVi8DsN8U-unsplash.jpg,Stimuli/Experimental_stims/body_parts/engin-akyurt-x_3gyC42btc-unsplash.jpg,0,1,1365,1,unchosen,42,26,objects,body_parts,1000,0,5,4
34,38479,0,35,1,1,0,no_gain5,gain6,C,F,2,22,outdoor_scenes,faces,86,68,Stimuli/Experimental_stims/outdoor_scenes/bruno-van-der-kraan-qez8mNJ3ilU-unsplash.jpg,Stimuli/Experimental_stims/faces/ravi-patel-VMGAbeeJTKo-unsplash.jpg,0,0,1020,1,chosen,22,2,faces,outdoor_scenes,1600,0,5,4
35,38479,0,36,1,1,1,gain1,no_gain5,E,C,29,2,body_parts,outdoor_scenes,0,86,Stimuli/Experimental_stims/body_parts/manuel-schinner-ZwjFuJ7ebpk-unsplash.jpg,Stimuli/Experimental_stims/outdoor_scenes/bruno-van-der-kraan-qez8mNJ3ilU-unsplash.jpg,0,1,1172,1,chosen,29,2,body_parts,outdoor_scenes,1200,0,5,4
36,38479,0,37,1,1,0,no_gain6,gain2,D,G,14,5,faces,outdoor_scenes,72,67,Stimuli/Experimental_stims/faces/david-siglin-UuW4psOb388-unsplash.jpg,Stimuli/Experimental_stims/outdoor_scenes/jeff-king-bJHWJeiHfHc-unsplash.jpg,0,0,1133,1,chosen,5,14,outdoor_scenes,faces,1500,0,5,4
37,38479,0,38,1,1,1,gain2,no_gain6,G,D,40,36,objects,objects,0,0,Stimuli/Experimental_stims/objects/fabian-blank-pElSkGRA2NU-unsplash.jpg,Stimuli/Experimental_stims/objects/alexander-andrews-JYGnB9gTCls-unsplash.jpg,0,1,1031,1,unchosen,40,36,objects,objects,4800,1,5,4
38,38479,0,39,1,1,1,gain2,no_gain2,G,A,5,4,outdoor_scenes,outdoor_scenes,67,85,Stimuli/Experimental_stims/outdoor_scenes/jeff-king-bJHWJeiHfHc-unsplash.jpg,Stimuli/Experimental_stims/outdoor_scenes/jarrett-kow-1ZOyYPOBn7I-unsplash.jpg,0,1,1198,1,chosen,5,4,outdoor_scenes,outdoor_scenes,1500,0,5,4
39,38479,0,40,1,1,0,no_gain5,gain1,C,E,26,45,body_parts,objects,0,69,Stimuli/Experimental_stims/body_parts/engin-akyurt-x_3gyC42btc-unsplash.jpg,Stimuli/Experimental_stims/objects/leohoho-rngTKHXumy0-unsplash.jpg,0,0,794,1,unchosen,45,26,objects,body_parts,1700,0,5,4
40,38479,0,41,1,1,0,no_gain4,gain1,H,E,8,45,outdoor_scenes,objects,72,69,Stimuli/Experimental_stims/outdoor_scenes/samsommer-vddccTqwal8-unsplash.jpg,Stimuli/Experimental_stims/objects/leohoho-rngTKHXumy0-unsplash.jpg,0,0,717,1,unchosen,45,8,objects,outdoor_scenes,1200,0,5,4
41,38479,0,42,1,1,1,gain5,no_gain2,B,A,20,44,faces,objects,0,0,Stimuli/Experimental_stims/faces/justin-chen-J7Cf1Gch49E-unsplash.jpg,Stimuli/Experimental_stims/objects/kuiye-chen-NuOGFo4PudE-unsplash.jpg,0,1,1072,1,unchosen,20,44,faces,objects,1400,0,5,4
42,38479,0,43,1,1,1,gain6,no_gain6,F,D,22,14,faces,faces,68,72,Stimuli/Experimental_stims/faces/ravi-patel-VMGAbeeJTKo-unsplash.jpg,Stimuli/Experimental_stims/faces/david-siglin-UuW4psOb388-unsplash.jpg,0,1,1181,1,chosen,22,14,faces,faces,1800,0,5,4
43,38479,0,44,1,1,1,gain1,no_gain3,E,I,45,31,objects,body_parts,69,0,Stimuli/Experimental_stims/objects/leohoho-rngTKHXumy0-unsplash.jpg,Stimuli/Experimental_stims/body_parts/sincerely-media-VN6DbKajo5s-unsplash.jpg,0,1,1186,1,unchosen,45,31,objects,body_parts,3600,1,5,4
44,38479,0,45,1,1,1,gain2,no_gain5,G,C,5,2,outdoor_scenes,outdoor_scenes,67,86,Stimuli/Experimental_stims/outdoor_scenes/jeff-king-bJHWJeiHfHc-unsplash.jpg,Stimuli/Experimental_stims/outdoor_scenes/bruno-van-der-kraan-qez8mNJ3ilU-unsplash.jpg,0,1,1238,1,chosen,5,2,outdoor_scenes,outdoor_scenes,1200,0,5,4
45,38479,0,46,1,1,0,no_gain2,gain5,A,B,4,3,outdoor_scenes,outdoor_scenes,85,92,Stimuli/Experimental_stims/outdoor_scenes/jarrett-kow-1ZOyYPOBn7I-unsplash.jpg,Stimuli/Experimental_stims/outdoor_scenes/henry-be-NLF6hTe4PAg-unsplash.jpg,0,0,825,1,chosen,3,4,outdoor_scenes,outdoor_scenes,2700,0,5,4
46,38479,0,47,1,1,0,no_gain4,gain3,H,L,8,18,outdoor_scenes,faces,72,24,Stimuli/Experimental_stims/outdoor_scenes/samsommer-vddccTqwal8-unsplash.jpg,Stimuli/Experimental_stims/faces/jessica-radanavong-mrYkTuAesKE-unsplash.jpg,0,0,993,1,unchosen,18,8,faces,outdoor_scenes,2100,0,5,4
47,38479,0,48,1,1,1,gain6,no_gain4,F,H,34,8,body_parts,outdoor_scenes,0,72,Stimuli/Experimental_stims/body_parts/wagner-santos-mBWMvIuVnso-unsplash.jpg,Stimuli/Experimental_stims/outdoor_scenes/samsommer-vddccTqwal8-unsplash.jpg,0,0,886,0,unchosen,8,34,outdoor_scenes,body_parts,2500,0,5,4
48,38479,0,49,1,1,1,gain3,no_gain6,L,D,32,14,body_parts,faces,0,72,Stimuli/Experimental_stims/body_parts/towfiqu-barbhuiya-3AsiVDsZnHg-unsplash.jpg,Stimuli/Experimental_stims/faces/david-siglin-UuW4psOb388-unsplash.jpg,0,1,1055,1,chosen,32,14,body_parts,faces,1500,0,5,4
49,38479,0,50,1,1,1,gain2,no_gain1,G,K,5,33,outdoor_scenes,body_parts,67,0,Stimuli/Experimental_stims/outdoor_scenes/jeff-king-bJHWJeiHfHc-unsplash.jpg,Stimuli/Experimental_stims/body_parts/tucker-good-36skLT5jZcc-unsplash.jpg,0,1,1132,1,chosen,5,33,outdoor_scenes,body_parts,1300,0,5,4
50,38479,0,51,1,1,1,gain6,no_gain3,F,I,22,10,faces,outdoor_scenes,68,17,Stimuli/Experimental_stims/faces/ravi-patel-VMGAbeeJTKo-unsplash.jpg,Stimuli/Experimental_stims/outdoor_scenes/shannon-kunkle-dM8INmkyDas-unsplash.jpg,0,1,1328,1,chosen,22,10,faces,outdoor_scenes,1000,0,5,4
51,38479,0,52,1,1,1,gain6,no_gain3,F,I,34,31,body_parts,body_parts,0,0,Stimuli/Experimental_stims/body_parts/wagner-santos-mBWMvIuVnso-unsplash.jpg,Stimuli/Experimental_stims/body_parts/sincerely-media-VN6DbKajo5s-unsplash.jpg,0,0,1446,0,unchosen,31,34,body_parts,body_parts,1500,0,5,4
52,38479,0,53,1,1,0,no_gain6,gain3,D,L,36,18,objects,faces,0,24,Stimuli/Experimental_stims/objects/alexander-andrews-JYGnB9gTCls-unsplash.jpg,Stimuli/Experimental_stims/faces/jessica-radanavong-mrYkTuAesKE-unsplash.jpg,0,0,887,1,unchosen,18,36,faces,objects,2200,0,5,4
53,38479,0,54,1,1,1,gain2,no_gain5,G,C,40,26,objects,body_parts,0,0,Stimuli/Experimental_stims/objects/fabian-blank-pElSkGRA2NU-unsplash.jpg,Stimuli/Experimental_stims/body_parts/engin-akyurt-x_3gyC42btc-unsplash.jpg,0,1,988,1,unchosen,40,26,objects,body_parts,1300,0,5,4
54,38479,0,55,1,1,1,gain4,no_gain6,J,D,16,14,faces,faces,78,72,Stimuli/Experimental_stims/faces/freddy-kearney-o-ioeoATbIM-unsplash.jpg,Stimuli/Experimental_stims/faces/david-siglin-UuW4psOb388-unsplash.jpg,0,0,868,0,chosen,14,16,faces,faces,3000,1,5,4
55,38479,0,56,1,1,1,gain4,no_gain2,J,A,42,44,objects,objects,0,0,Stimuli/Experimental_stims/objects/jess-bailey-nOeVi8DsN8U-unsplash.jpg,Stimuli/Experimental_stims/objects/kuiye-chen-NuOGFo4PudE-unsplash.jpg,0,1,842,1,unchosen,42,44,objects,objects,1400,0,5,4
56,38479,0,57,1,1,1,gain3,no_gain2,L,A,18,44,faces,objects,24,0,Stimuli/Experimental_stims/faces/jessica-radanavong-mrYkTuAesKE-unsplash.jpg,Stimuli/Experimental_stims/objects/kuiye-chen-NuOGFo4PudE-unsplash.jpg,0,1,828,1,unchosen,18,44,faces,objects,1500,0,5,4
57,38479,0,58,1,1,0,no_gain4,gain1,H,E,12,29,faces,body_parts,93,0,Stimuli/Experimental_stims/faces/aiony-haust-jmATI5Q_YgY-unsplash.jpg,Stimuli/Experimental_stims/body_parts/manuel-schinner-ZwjFuJ7ebpk-unsplash.jpg,0,1,777,0,chosen,12,29,faces,body_parts,1200,0,5,4
58,38479,0,59,1,1,0,no_gain2,gain2,A,G,44,40,objects,objects,0,0,Stimuli/Experimental_stims/objects/kuiye-chen-NuOGFo4PudE-unsplash.jpg,Stimuli/Experimental_stims/objects/fabian-blank-pElSkGRA2NU-unsplash.jpg,0,0,937,1,unchosen,40,44,objects,objects,1600,0,5,4
59,38479,0,60,1,1,0,no_gain6,gain1,D,E,14,29,faces,body_parts,72,0,Stimuli/Experimental_stims/faces/david-siglin-UuW4psOb388-unsplash.jpg,Stimuli/Experimental_stims/body_parts/manuel-schinner-ZwjFuJ7ebpk-unsplash.jpg,0,0,1400,1,chosen,29,14,body_parts,faces,2300,0,5,4
60,38479,0,61,1,1,1,gain2,no_gain3,G,I,40,31,objects,body_parts,0,0,Stimuli/Experimental_stims/objects/fabian-blank-pElSkGRA2NU-unsplash.jpg,Stimuli/Experimental_stims/body_parts/sincerely-media-VN6DbKajo5s-unsplash.jpg,0,1,838,1,unchosen,40,31,objects,body_parts,1400,0,5,4
61,38479,0,62,1,1,0,no_gain5,gain4,C,J,2,16,outdoor_scenes,faces,86,78,Stimuli/Experimental_stims/outdoor_scenes/bruno-van-der-kraan-qez8mNJ3ilU-unsplash.jpg,Stimuli/Experimental_stims/faces/freddy-kearney-o-ioeoATbIM-unsplash.jpg,0,0,855,1,chosen,16,2,faces,outdoor_scenes,4400,1,5,4
62,38479,0,63,1,1,1,gain3,no_gain5,L,C,32,2,body_parts,outdoor_scenes,0,86,Stimuli/Experimental_stims/body_parts/towfiqu-barbhuiya-3AsiVDsZnHg-unsplash.jpg,Stimuli/Experimental_stims/outdoor_scenes/bruno-van-der-kraan-qez8mNJ3ilU-unsplash.jpg,0,1,849,1,chosen,32,2,body_parts,outdoor_scenes,1900,0,5,4
63,38479,0,64,1,1,0,no_gain6,gain5,D,B,36,20,objects,faces,0,0,Stimuli/Experimental_stims/objects/alexander-andrews-JYGnB9gTCls-unsplash.jpg,Stimuli/Experimental_stims/faces/justin-chen-J7Cf1Gch49E-unsplash.jpg,0,0,999,1,unchosen,20,36,faces,objects,2000,0,5,4
64,38479,0,65,1,1,0,no_gain5,gain6,C,F,26,34,body_parts,body_parts,0,0,Stimuli/Experimental_stims/body_parts/engin-akyurt-x_3gyC42btc-unsplash.jpg,Stimuli/Experimental_stims/body_parts/wagner-santos-mBWMvIuVnso-unsplash.jpg,0,1,1500,0,unchosen,26,34,body_parts,body_parts,1500,0,5,4
65,38479,0,66,1,1,1,gain5,no_gain6,B,D,3,14,outdoor_scenes,faces,92,72,Stimuli/Experimental_stims/outdoor_scenes/henry-be-NLF6hTe4PAg-unsplash.jpg,Stimuli/Experimental_stims/faces/david-siglin-UuW4psOb388-unsplash.jpg,0,1,953,1,chosen,3,14,outdoor_scenes,faces,1600,0,5,4
66,38479,0,67,1,1,0,no_gain2,gain6,A,F,44,34,objects,body_parts,0,0,Stimuli/Experimental_stims/objects/kuiye-chen-NuOGFo4PudE-unsplash.jpg,Stimuli/Experimental_stims/body_parts/wagner-santos-mBWMvIuVnso-unsplash.jpg,0,0,1153,1,unchosen,34,44,body_parts,objects,3000,1,5,4
67,38479,0,68,1,1,0,no_gain1,gain1,K,E,33,29,body_parts,body_parts,0,0,Stimuli/Experimental_stims/body_parts/tucker-good-36skLT5jZcc-unsplash.jpg,Stimuli/Experimental_stims/body_parts/manuel-schinner-ZwjFuJ7ebpk-unsplash.jpg,0,0,984,1,chosen,29,33,body_parts,body_parts,1900,0,5,4
68,38479,0,69,1,1,0,no_gain4,gain2,H,G,8,40,outdoor_scenes,objects,72,0,Stimuli/Experimental_stims/outdoor_scenes/samsommer-vddccTqwal8-unsplash.jpg,Stimuli/Experimental_stims/objects/fabian-blank-pElSkGRA2NU-unsplash.jpg,0,1,1006,0,unchosen,8,40,outdoor_scenes,objects,1100,0,5,4
69,38479,0,70,1,1,1,gain4,no_gain3,J,I,16,10,faces,outdoor_scenes,78,17,Stimuli/Experimental_stims/faces/freddy-kearney-o-ioeoATbIM-unsplash.jpg,Stimuli/Experimental_stims/outdoor_scenes/shannon-kunkle-dM8INmkyDas-unsplash.jpg,0,1,1173,1,chosen,16,10,faces,outdoor_scenes,1300,0,5,4
70,38479,0,71,1,1,1,gain6,no_gain1,F,K,22,33,faces,body_parts,68,0,Stimuli/Experimental_stims/faces/ravi-patel-VMGAbeeJTKo-unsplash.jpg,Stimuli/Experimental_stims/body_parts/tucker-good-36skLT5jZcc-unsplash.jpg,0,1,846,1,chosen,22,33,faces,body_parts,2600,0,5,4
71,38479,0,72,1,1,0,no_gain5,gain5,C,B,2,3,outdoor_scenes,outdoor_scenes,86,92,Stimuli/Experimental_stims/outdoor_scenes/bruno-van-der-kraan-qez8mNJ3ilU-unsplash.jpg,Stimuli/Experimental_stims/outdoor_scenes/henry-be-NLF6hTe4PAg-unsplash.jpg,0,0,1360,1,chosen,3,2,outdoor_scenes,outdoor_scenes,1100,0,5,4
72,38479,0,73,1,1,0,no_gain1,gain5,K,B,41,20,objects,faces,19,0,Stimuli/Experimental_stims/objects/insung-yoon-w2JtIQQXoRU-unsplash.jpg,Stimuli/Experimental_stims/faces/justin-chen-J7Cf1Gch49E-unsplash.jpg,0,0,1000,1,unchosen,20,41,faces,objects,2500,0,5,4
73,38479,0,74,1,1,1,gain4,no_gain4,J,H,16,12,faces,faces,78,93,Stimuli/Experimental_stims/faces/freddy-kearney-o-ioeoATbIM-unsplash.jpg,Stimuli/Experimental_stims/faces/aiony-haust-jmATI5Q_YgY-unsplash.jpg,0,1,1203,1,chosen,16,12,faces,faces,2600,0,5,4
74,38479,0,75,1,1,0,no_gain1,gain5,K,B,33,3,body_parts,outdoor_scenes,0,92,Stimuli/Experimental_stims/body_parts/tucker-good-36skLT5jZcc-unsplash.jpg,Stimuli/Experimental_stims/outdoor_scenes/henry-be-NLF6hTe4PAg-unsplash.jpg,0,0,1189,1,chosen,3,33,outdoor_scenes,body_parts,1100,0,5,4
75,38479,0,76,1,1,1,gain3,no_gain5,L,C,18,26,faces,body_parts,24,0,Stimuli/Experimental_stims/faces/jessica-radanavong-mrYkTuAesKE-unsplash.jpg,Stimuli/Experimental_stims/body_parts/engin-akyurt-x_3gyC42btc-unsplash.jpg,0,0,1211,0,unchosen,26,18,body_parts,faces,4200,1,5,4
76,38479,0,77,2,2,1,gain4,no_gain6,J,D,42,36,objects,objects,0,0,Stimuli/Experimental_stims/objects/jess-bailey-nOeVi8DsN8U-unsplash.jpg,Stimuli/Experimental_stims/objects/alexander-andrews-JYGnB9gTCls-unsplash.jpg,0,1,1269,1,unchosen,42,36,objects,objects,1200,0,8,4
77,38479,0,78,2,2,1,gain4,no_gain3,J,I,42,31,objects,body_parts,0,0,Stimuli/Experimental_stims/objects/jess-bailey-nOeVi8DsN8U-unsplash.jpg,Stimuli/Experimental_stims/body_parts/sincerely-media-VN6DbKajo5s-unsplash.jpg,0,1,747,1,unchosen,42,31,objects,body_parts,1400,0,8,4
78,38479,0,79,2,2,1,gain5,no_gain2,B,A,20,44,faces,objects,0,0,Stimuli/Experimental_stims/faces/justin-chen-J7Cf1Gch49E-unsplash.jpg,Stimuli/Experimental_stims/objects/kuiye-chen-NuOGFo4PudE-unsplash.jpg,0,1,876,1,unchosen,20,44,faces,objects,2800,0,8,4
79,38479,0,80,2,2,0,no_gain3,gain1,I,E,10,29,outdoor_scenes,body_parts,17,0,Stimuli/Experimental_stims/outdoor_scenes/shannon-kunkle-dM8INmkyDas-unsplash.jpg,Stimuli/Experimental_stims/body_parts/manuel-schinner-ZwjFuJ7ebpk-unsplash.jpg,0,0,1003,1,chosen,29,10,body_parts,outdoor_scenes,1700,0,8,4
80,38479,0,81,2,2,0,no_gain5,gain6,C,F,26,34,body_parts,body_parts,0,0,Stimuli/Experimental_stims/body_parts/engin-akyurt-x_3gyC42btc-unsplash.jpg,Stimuli/Experimental_stims/body_parts/wagner-santos-mBWMvIuVnso-unsplash.jpg,0,1,1038,0,unchosen,26,34,body_parts,body_parts,3700,1,8,4
81,38479,0,82,2,2,1,gain1,no_gain4,E,H,45,8,objects,outdoor_scenes,69,72,Stimuli/Experimental_stims/objects/leohoho-rngTKHXumy0-unsplash.jpg,Stimuli/Experimental_stims/outdoor_scenes/samsommer-vddccTqwal8-unsplash.jpg,0,0,1427,0,unchosen,8,45,outdoor_scenes,objects,2300,0,8,4
82,38479,0,83,2,2,0,no_gain1,gain1,K,E,33,29,body_parts,body_parts,0,0,Stimuli/Experimental_stims/body_parts/tucker-good-36skLT5jZcc-unsplash.jpg,Stimuli/Experimental_stims/body_parts/manuel-schinner-ZwjFuJ7ebpk-unsplash.jpg,0,0,1143,1,chosen,29,33,body_parts,body_parts,2900,0,8,4
83,38479,0,84,2,2,0,no_gain3,gain5,I,B,31,20,body_parts,faces,0,0,Stimuli/Experimental_stims/body_parts/sincerely-media-VN6DbKajo5s-unsplash.jpg,Stimuli/Experimental_stims/faces/justin-chen-J7Cf1Gch49E-unsplash.jpg,0,0,772,1,unchosen,20,31,faces,body_parts,2300,0,8,4
84,38479,0,85,2,2,0,no_gain2,gain1,A,E,4,29,outdoor_scenes,body_parts,85,0,Stimuli/Experimental_stims/outdoor_scenes/jarrett-kow-1ZOyYPOBn7I-unsplash.jpg,Stimuli/Experimental_stims/body_parts/manuel-schinner-ZwjFuJ7ebpk-unsplash.jpg,0,0,1092,1,chosen,29,4,body_parts,outdoor_scenes,1200,0,8,4
85,38479,0,86,2,2,0,no_gain1,gain1,K,E,41,45,objects,objects,19,69,Stimuli/Experimental_stims/objects/insung-yoon-w2JtIQQXoRU-unsplash.jpg,Stimuli/Experimental_stims/objects/leohoho-rngTKHXumy0-unsplash.jpg,0,0,1261,1,unchosen,45,41,objects,objects,3100,1,8,4
86,38479,0,87,2,2,0,no_gain2,gain4,A,J,4,16,outdoor_scenes,faces,85,78,Stimuli/Experimental_stims/outdoor_scenes/jarrett-kow-1ZOyYPOBn7I-unsplash.jpg,Stimuli/Experimental_stims/faces/freddy-kearney-o-ioeoATbIM-unsplash.jpg,0,0,1032,1,chosen,16,4,faces,outdoor_scenes,1200,0,8,4
87,38479,0,88,2,2,0,no_gain5,gain2,C,G,26,40,body_parts,objects,0,0,Stimuli/Experimental_stims/body_parts/engin-akyurt-x_3gyC42btc-unsplash.jpg,Stimuli/Experimental_stims/objects/fabian-blank-pElSkGRA2NU-unsplash.jpg,0,0,1400,1,unchosen,40,26,objects,body_parts,1900,0,8,4
88,38479,0,89,2,2,1,gain6,no_gain1,F,K,22,33,faces,body_parts,68,0,Stimuli/Experimental_stims/faces/ravi-patel-VMGAbeeJTKo-unsplash.jpg,Stimuli/Experimental_stims/body_parts/tucker-good-36skLT5jZcc-unsplash.jpg,0,1,1177,1,chosen,22,33,faces,body_parts,2800,0,8,4
89,38479,0,90,2,2,1,gain5,no_gain3,B,I,3,10,outdoor_scenes,outdoor_scenes,92,17,Stimuli/Experimental_stims/outdoor_scenes/henry-be-NLF6hTe4PAg-unsplash.jpg,Stimuli/Experimental_stims/outdoor_scenes/shannon-kunkle-dM8INmkyDas-unsplash.jpg,0,1,1279,1,chosen,3,10,outdoor_scenes,outdoor_scenes,1200,0,8,4
90,38479,0,91,2,2,1,gain4,no_gain4,J,H,42,8,objects,outdoor_scenes,0,72,Stimuli/Experimental_stims/objects/jess-bailey-nOeVi8DsN8U-unsplash.jpg,Stimuli/Experimental_stims/outdoor_scenes/samsommer-vddccTqwal8-unsplash.jpg,0,0,1156,0,unchosen,8,42,outdoor_scenes,objects,3800,1,8,4
91,38479,0,92,2,2,0,no_gain1,gain2,K,G,41,40,objects,objects,19,0,Stimuli/Experimental_stims/objects/insung-yoon-w2JtIQQXoRU-unsplash.jpg,Stimuli/Experimental_stims/objects/fabian-blank-pElSkGRA2NU-unsplash.jpg,0,0,1149,1,unchosen,40,41,objects,objects,1800,0,8,4
92,38479,0,93,2,2,0,no_gain3,gain4,I,J,10,16,outdoor_scenes,faces,17,78,Stimuli/Experimental_stims/outdoor_scenes/shannon-kunkle-dM8INmkyDas-unsplash.jpg,Stimuli/Experimental_stims/faces/freddy-kearney-o-ioeoATbIM-unsplash.jpg,0,0,775,1,chosen,16,10,faces,outdoor_scenes,2300,0,8,4
93,38479,0,94,2,2,1,gain5,no_gain1,B,K,3,33,outdoor_scenes,body_parts,92,0,Stimuli/Experimental_stims/outdoor_scenes/henry-be-NLF6hTe4PAg-unsplash.jpg,Stimuli/Experimental_stims/body_parts/tucker-good-36skLT5jZcc-unsplash.jpg,0,0,1017,0,chosen,33,3,body_parts,outdoor_scenes,1400,0,8,4
94,38479,0,95,2,2,0,no_gain5,gain4,C,J,26,42,body_parts,objects,0,0,Stimuli/Experimental_stims/body_parts/engin-akyurt-x_3gyC42btc-unsplash.jpg,Stimuli/Experimental_stims/objects/jess-bailey-nOeVi8DsN8U-unsplash.jpg,0,1,1250,0,unchosen,26,42,body_parts,objects,1300,0,8,4
95,38479,0,96,2,2,1,gain4,no_gain5,J,C,16,2,faces,outdoor_scenes,78,86,Stimuli/Experimental_stims/faces/freddy-kearney-o-ioeoATbIM-unsplash.jpg,Stimuli/Experimental_stims/outdoor_scenes/bruno-van-der-kraan-qez8mNJ3ilU-unsplash.jpg,0,1,761,1,chosen,16,2,faces,outdoor_scenes,1700,0,8,4
96,38479,0,97,2,2,1,gain5,no_gain1,B,K,20,41,faces,objects,0,19,Stimuli/Experimental_stims/faces/justin-chen-J7Cf1Gch49E-unsplash.jpg,Stimuli/Experimental_stims/objects/insung-yoon-w2JtIQQXoRU-unsplash.jpg,0,1,932,1,unchosen,20,41,faces,objects,3100,1,8,4
97,38479,0,98,2,2,1,gain1,no_gain6,E,D,29,14,body_parts,faces,0,72,Stimuli/Experimental_stims/body_parts/manuel-schinner-ZwjFuJ7ebpk-unsplash.jpg,Stimuli/Experimental_stims/faces/david-siglin-UuW4psOb388-unsplash.jpg,0,1,1183,1,chosen,29,14,body_parts,faces,1300,0,8,4
98,38479,0,99,2,2,0,no_gain2,gain1,A,E,44,45,objects,objects,0,69,Stimuli/Experimental_stims/objects/kuiye-chen-NuOGFo4PudE-unsplash.jpg,Stimuli/Experimental_stims/objects/leohoho-rngTKHXumy0-unsplash.jpg,0,0,1010,1,unchosen,45,44,objects,objects,2100,0,8,4
99,38479,0,100,2,2,1,gain2,no_gain3,G,I,5,10,outdoor_scenes,outdoor_scenes,67,17,Stimuli/Experimental_stims/outdoor_scenes/jeff-king-bJHWJeiHfHc-unsplash.jpg,Stimuli/Experimental_stims/outdoor_scenes/shannon-kunkle-dM8INmkyDas-unsplash.jpg,0,1,1077,1,chosen,5,10,outdoor_scenes,outdoor_scenes,1000,0,8,4
100,38479,0,101,2,2,1,gain2,no_gain2,G,A,5,4,outdoor_scenes,outdoor_scenes,67,85,Stimuli/Experimental_stims/outdoor_scenes/jeff-king-bJHWJeiHfHc-unsplash.jpg,Stimuli/Experimental_stims/outdoor_scenes/jarrett-kow-1ZOyYPOBn7I-unsplash.jpg,0,0,1307,0,chosen,4,5,outdoor_scenes,outdoor_scenes,1200,0,8,4
101,38479,0,102,2,2,1,gain3,no_gain1,L,K,32,33,body_parts,body_parts,0,0,Stimuli/Experimental_stims/body_parts/towfiqu-barbhuiya-3AsiVDsZnHg-unsplash.jpg,Stimuli/Experimental_stims/body_parts/tucker-good-36skLT5jZcc-unsplash.jpg,0,1,911,1,chosen,32,33,body_parts,body_parts,1700,0,8,4
102,38479,0,103,2,2,0,no_gain5,gain5,C,B,26,20,body_parts,faces,0,0,Stimuli/Experimental_stims/body_parts/engin-akyurt-x_3gyC42btc-unsplash.jpg,Stimuli/Experimental_stims/faces/justin-chen-J7Cf1Gch49E-unsplash.jpg,0,1,1099,0,unchosen,26,20,body_parts,faces,1100,0,8,4
103,38479,0,104,2,2,0,no_gain6,gain5,D,B,14,3,faces,outdoor_scenes,72,92,Stimuli/Experimental_stims/faces/david-siglin-UuW4psOb388-unsplash.jpg,Stimuli/Experimental_stims/outdoor_scenes/henry-be-NLF6hTe4PAg-unsplash.jpg,0,0,1085,1,chosen,3,14,outdoor_scenes,faces,1900,0,8,4
104,38479,0,105,2,2,0,no_gain2,gain3,A,L,4,32,outdoor_scenes,body_parts,85,0,Stimuli/Experimental_stims/outdoor_scenes/jarrett-kow-1ZOyYPOBn7I-unsplash.jpg,Stimuli/Experimental_stims/body_parts/towfiqu-barbhuiya-3AsiVDsZnHg-unsplash.jpg,0,0,859,1,chosen,32,4,body_parts,outdoor_scenes,4100,1,8,4
105,38479,0,106,2,2,0,no_gain1,gain4,K,J,41,42,objects,objects,19,0,Stimuli/Experimental_stims/objects/insung-yoon-w2JtIQQXoRU-unsplash.jpg,Stimuli/Experimental_stims/objects/jess-bailey-nOeVi8DsN8U-unsplash.jpg,0,0,912,1,unchosen,42,41,objects,objects,1400,0,8,4
106,38479,0,107,2,2,0,no_gain4,gain2,H,G,8,40,outdoor_scenes,objects,72,0,Stimuli/Experimental_stims/outdoor_scenes/samsommer-vddccTqwal8-unsplash.jpg,Stimuli/Experimental_stims/objects/fabian-blank-pElSkGRA2NU-unsplash.jpg,0,1,1031,0,unchosen,8,40,outdoor_scenes,objects,2400,0,8,4
107,38479,0,108,2,2,0,no_gain5,gain1,C,E,2,29,outdoor_scenes,body_parts,86,0,Stimuli/Experimental_stims/outdoor_scenes/bruno-van-der-kraan-qez8mNJ3ilU-unsplash.jpg,Stimuli/Experimental_stims/body_parts/manuel-schinner-ZwjFuJ7ebpk-unsplash.jpg,0,0,1305,1,chosen,29,2,body_parts,outdoor_scenes,1200,0,8,4
108,38479,0,109,2,2,1,gain6,no_gain1,F,K,34,41,body_parts,objects,0,19,Stimuli/Experimental_stims/body_parts/wagner-santos-mBWMvIuVnso-unsplash.jpg,Stimuli/Experimental_stims/objects/insung-yoon-w2JtIQQXoRU-unsplash.jpg,0,1,1106,1,unchosen,34,41,body_parts,objects,1500,0,8,4
109,38479,0,110,2,2,1,gain1,no_gain6,E,D,45,36,objects,objects,69,0,Stimuli/Experimental_stims/objects/leohoho-rngTKHXumy0-unsplash.jpg,Stimuli/Experimental_stims/objects/alexander-andrews-JYGnB9gTCls-unsplash.jpg,0,1,843,1,unchosen,45,36,objects,objects,3200,1,8,4
110,38479,0,111,2,2,0,no_gain5,gain2,C,G,2,5,outdoor_scenes,outdoor_scenes,86,67,Stimuli/Experimental_stims/outdoor_scenes/bruno-van-der-kraan-qez8mNJ3ilU-unsplash.jpg,Stimuli/Experimental_stims/outdoor_scenes/jeff-king-bJHWJeiHfHc-unsplash.jpg,1,NaN,,NaN,chosen,NaN,NaN,NaN,NaN,1800,0,8,4
111,38479,0,112,2,2,0,no_gain5,gain1,C,E,26,45,body_parts,objects,0,69,Stimuli/Experimental_stims/body_parts/engin-akyurt-x_3gyC42btc-unsplash.jpg,Stimuli/Experimental_stims/objects/leohoho-rngTKHXumy0-unsplash.jpg,0,0,649,1,unchosen,45,26,objects,body_parts,1100,0,8,4
112,38479,0,113,2,2,1,gain2,no_gain6,G,D,40,36,objects,objects,0,0,Stimuli/Experimental_stims/objects/fabian-blank-pElSkGRA2NU-unsplash.jpg,Stimuli/Experimental_stims/objects/alexander-andrews-JYGnB9gTCls-unsplash.jpg,0,1,1077,1,unchosen,40,36,objects,objects,1700,0,8,4
113,38479,0,114,2,2,1,gain6,no_gain4,F,H,22,12,faces,faces,68,93,Stimuli/Experimental_stims/faces/ravi-patel-VMGAbeeJTKo-unsplash.jpg,Stimuli/Experimental_stims/faces/aiony-haust-jmATI5Q_YgY-unsplash.jpg,0,1,1217,1,chosen,22,12,faces,faces,2700,0,8,4
114,38479,0,115,2,2,1,gain6,no_gain3,F,I,34,31,body_parts,body_parts,0,0,Stimuli/Experimental_stims/body_parts/wagner-santos-mBWMvIuVnso-unsplash.jpg,Stimuli/Experimental_stims/body_parts/sincerely-media-VN6DbKajo5s-unsplash.jpg,0,1,847,1,unchosen,34,31,body_parts,body_parts,1100,0,8,4
115,38479,0,116,2,2,0,no_gain6,gain4,D,J,14,16,faces,faces,72,78,Stimuli/Experimental_stims/faces/david-siglin-UuW4psOb388-unsplash.jpg,Stimuli/Experimental_stims/faces/freddy-kearney-o-ioeoATbIM-unsplash.jpg,0,0,736,1,chosen,16,14,faces,faces,1100,0,8,4
116,38479,0,117,2,2,0,no_gain1,gain3,K,L,41,18,objects,faces,19,24,Stimuli/Experimental_stims/objects/insung-yoon-w2JtIQQXoRU-unsplash.jpg,Stimuli/Experimental_stims/faces/jessica-radanavong-mrYkTuAesKE-unsplash.jpg,0,1,1015,0,unchosen,41,18,objects,faces,2400,0,8,4
117,38479,0,118,2,2,1,gain3,no_gain6,L,D,32,14,body_parts,faces,0,72,Stimuli/Experimental_stims/body_parts/towfiqu-barbhuiya-3AsiVDsZnHg-unsplash.jpg,Stimuli/Experimental_stims/faces/david-siglin-UuW4psOb388-unsplash.jpg,0,1,929,1,chosen,32,14,body_parts,faces,3400,1,8,4
118,38479,0,119,2,2,1,gain3,no_gain3,L,I,32,10,body_parts,outdoor_scenes,0,17,Stimuli/Experimental_stims/body_parts/towfiqu-barbhuiya-3AsiVDsZnHg-unsplash.jpg,Stimuli/Experimental_stims/outdoor_scenes/shannon-kunkle-dM8INmkyDas-unsplash.jpg,0,1,894,1,chosen,32,10,body_parts,outdoor_scenes,2000,0,8,4
119,38479,0,120,2,2,0,no_gain6,gain3,D,L,36,18,objects,faces,0,24,Stimuli/Experimental_stims/objects/alexander-andrews-JYGnB9gTCls-unsplash.jpg,Stimuli/Experimental_stims/faces/jessica-radanavong-mrYkTuAesKE-unsplash.jpg,0,0,933,1,unchosen,18,36,faces,objects,2100,0,8,4
120,38479,0,121,2,2,0,no_gain2,gain6,A,F,44,34,objects,body_parts,0,0,Stimuli/Experimental_stims/objects/kuiye-chen-NuOGFo4PudE-unsplash.jpg,Stimuli/Experimental_stims/body_parts/wagner-santos-mBWMvIuVnso-unsplash.jpg,0,0,1069,1,unchosen,34,44,body_parts,objects,2500,0,8,4
121,38479,0,122,2,2,1,gain5,no_gain4,B,H,20,8,faces,outdoor_scenes,0,72,Stimuli/Experimental_stims/faces/justin-chen-J7Cf1Gch49E-unsplash.jpg,Stimuli/Experimental_stims/outdoor_scenes/samsommer-vddccTqwal8-unsplash.jpg,0,0,857,0,unchosen,8,20,outdoor_scenes,faces,1600,0,8,4
122,38479,0,123,2,2,1,gain2,no_gain4,G,H,5,12,outdoor_scenes,faces,67,93,Stimuli/Experimental_stims/outdoor_scenes/jeff-king-bJHWJeiHfHc-unsplash.jpg,Stimuli/Experimental_stims/faces/aiony-haust-jmATI5Q_YgY-unsplash.jpg,0,1,1087,1,chosen,5,12,outdoor_scenes,faces,2400,0,8,4
123,38479,0,124,2,2,1,gain4,no_gain1,J,K,16,33,faces,body_parts,78,0,Stimuli/Experimental_stims/faces/freddy-kearney-o-ioeoATbIM-unsplash.jpg,Stimuli/Experimental_stims/body_parts/tucker-good-36skLT5jZcc-unsplash.jpg,0,1,904,1,chosen,16,33,faces,body_parts,1300,0,8,4
124,38479,0,125,2,2,1,gain3,no_gain4,L,H,18,8,faces,outdoor_scenes,24,72,Stimuli/Experimental_stims/faces/jessica-radanavong-mrYkTuAesKE-unsplash.jpg,Stimuli/Experimental_stims/outdoor_scenes/samsommer-vddccTqwal8-unsplash.jpg,0,0,770,0,unchosen,8,18,outdoor_scenes,faces,1900,0,8,4
125,38479,0,126,2,2,1,gain2,no_gain1,G,K,5,33,outdoor_scenes,body_parts,67,0,Stimuli/Experimental_stims/outdoor_scenes/jeff-king-bJHWJeiHfHc-unsplash.jpg,Stimuli/Experimental_stims/body_parts/tucker-good-36skLT5jZcc-unsplash.jpg,0,1,935,1,chosen,5,33,outdoor_scenes,body_parts,1600,0,8,4
126,38479,0,127,2,2,0,no_gain2,gain5,A,B,4,3,outdoor_scenes,outdoor_scenes,85,92,Stimuli/Experimental_stims/outdoor_scenes/jarrett-kow-1ZOyYPOBn7I-unsplash.jpg,Stimuli/Experimental_stims/outdoor_scenes/henry-be-NLF6hTe4PAg-unsplash.jpg,0,0,887,1,chosen,3,4,outdoor_scenes,outdoor_scenes,1100,0,8,4
127,38479,0,128,2,2,1,gain3,no_gain2,L,A,18,44,faces,objects,24,0,Stimuli/Experimental_stims/faces/jessica-radanavong-mrYkTuAesKE-unsplash.jpg,Stimuli/Experimental_stims/objects/kuiye-chen-NuOGFo4PudE-unsplash.jpg,0,1,835,1,unchosen,18,44,faces,objects,1200,0,8,4
128,38479,0,129,2,2,1,gain3,no_gain3,L,I,18,31,faces,body_parts,24,0,Stimuli/Experimental_stims/faces/jessica-radanavong-mrYkTuAesKE-unsplash.jpg,Stimuli/Experimental_stims/body_parts/sincerely-media-VN6DbKajo5s-unsplash.jpg,0,1,808,1,unchosen,18,31,faces,body_parts,1300,0,8,4
129,38479,0,130,2,2,1,gain4,no_gain4,J,H,16,12,faces,faces,78,93,Stimuli/Experimental_stims/faces/freddy-kearney-o-ioeoATbIM-unsplash.jpg,Stimuli/Experimental_stims/faces/aiony-haust-jmATI5Q_YgY-unsplash.jpg,0,1,990,1,chosen,16,12,faces,faces,1000,0,8,4
130,38479,0,131,2,2,0,no_gain4,gain1,H,E,12,29,faces,body_parts,93,0,Stimuli/Experimental_stims/faces/aiony-haust-jmATI5Q_YgY-unsplash.jpg,Stimuli/Experimental_stims/body_parts/manuel-schinner-ZwjFuJ7ebpk-unsplash.jpg,0,0,963,1,chosen,29,12,body_parts,faces,2900,0,8,4
131,38479,0,132,2,2,0,no_gain2,gain6,A,F,4,22,outdoor_scenes,faces,85,68,Stimuli/Experimental_stims/outdoor_scenes/jarrett-kow-1ZOyYPOBn7I-unsplash.jpg,Stimuli/Experimental_stims/faces/ravi-patel-VMGAbeeJTKo-unsplash.jpg,0,0,1099,1,chosen,22,4,faces,outdoor_scenes,2200,0,8,4
132,38479,0,133,2,2,0,no_gain3,gain2,I,G,31,40,body_parts,objects,0,0,Stimuli/Experimental_stims/body_parts/sincerely-media-VN6DbKajo5s-unsplash.jpg,Stimuli/Experimental_stims/objects/fabian-blank-pElSkGRA2NU-unsplash.jpg,0,1,1424,0,unchosen,31,40,body_parts,objects,3200,1,8,4
133,38479,0,134,2,2,1,gain1,no_gain3,E,I,45,31,objects,body_parts,69,0,Stimuli/Experimental_stims/objects/leohoho-rngTKHXumy0-unsplash.jpg,Stimuli/Experimental_stims/body_parts/sincerely-media-VN6DbKajo5s-unsplash.jpg,0,1,895,1,unchosen,45,31,objects,body_parts,2600,0,8,4
134,38479,0,135,2,2,0,no_gain6,gain6,D,F,36,34,objects,body_parts,0,0,Stimuli/Experimental_stims/objects/alexander-andrews-JYGnB9gTCls-unsplash.jpg,Stimuli/Experimental_stims/body_parts/wagner-santos-mBWMvIuVnso-unsplash.jpg,0,0,829,1,unchosen,34,36,body_parts,objects,1200,0,8,4
135,38479,0,136,2,2,0,no_gain4,gain3,H,L,12,32,faces,body_parts,93,0,Stimuli/Experimental_stims/faces/aiony-haust-jmATI5Q_YgY-unsplash.jpg,Stimuli/Experimental_stims/body_parts/towfiqu-barbhuiya-3AsiVDsZnHg-unsplash.jpg,0,0,945,1,chosen,32,12,body_parts,faces,1100,0,8,4
136,38479,0,137,2,2,1,gain5,no_gain6,B,D,20,36,faces,objects,0,0,Stimuli/Experimental_stims/faces/justin-chen-J7Cf1Gch49E-unsplash.jpg,Stimuli/Experimental_stims/objects/alexander-andrews-JYGnB9gTCls-unsplash.jpg,0,1,726,1,unchosen,20,36,faces,objects,2000,0,8,4
137,38479,0,138,2,2,0,no_gain6,gain2,D,G,14,5,faces,outdoor_scenes,72,67,Stimuli/Experimental_stims/faces/david-siglin-UuW4psOb388-unsplash.jpg,Stimuli/Experimental_stims/outdoor_scenes/jeff-king-bJHWJeiHfHc-unsplash.jpg,0,0,827,1,chosen,5,14,outdoor_scenes,faces,4100,1,8,4
138,38479,0,139,2,2,0,no_gain2,gain4,A,J,44,42,objects,objects,0,0,Stimuli/Experimental_stims/objects/kuiye-chen-NuOGFo4PudE-unsplash.jpg,Stimuli/Experimental_stims/objects/jess-bailey-nOeVi8DsN8U-unsplash.jpg,0,0,757,1,unchosen,42,44,objects,objects,1700,0,8,4
139,38479,0,140,2,2,0,no_gain2,gain2,A,G,44,40,objects,objects,0,0,Stimuli/Experimental_stims/objects/kuiye-chen-NuOGFo4PudE-unsplash.jpg,Stimuli/Experimental_stims/objects/fabian-blank-pElSkGRA2NU-unsplash.jpg,0,0,916,1,unchosen,40,44,objects,objects,1200,0,8,4
140,38479,0,141,2,2,1,gain6,no_gain3,F,I,22,10,faces,outdoor_scenes,68,17,Stimuli/Experimental_stims/faces/ravi-patel-VMGAbeeJTKo-unsplash.jpg,Stimuli/Experimental_stims/outdoor_scenes/shannon-kunkle-dM8INmkyDas-unsplash.jpg,0,1,742,1,chosen,22,10,faces,outdoor_scenes,1000,0,8,4
141,38479,0,142,2,2,0,no_gain5,gain5,C,B,2,3,outdoor_scenes,outdoor_scenes,86,92,Stimuli/Experimental_stims/outdoor_scenes/bruno-van-der-kraan-qez8mNJ3ilU-unsplash.jpg,Stimuli/Experimental_stims/outdoor_scenes/henry-be-NLF6hTe4PAg-unsplash.jpg,1,NaN,,NaN,chosen,NaN,NaN,NaN,NaN,1800,0,8,4
142,38479,0,143,2,2,0,no_gain5,gain6,C,F,2,22,outdoor_scenes,faces,86,68,Stimuli/Experimental_stims/outdoor_scenes/bruno-van-der-kraan-qez8mNJ3ilU-unsplash.jpg,Stimuli/Experimental_stims/faces/ravi-patel-VMGAbeeJTKo-unsplash.jpg,0,0,774,1,chosen,22,2,faces,outdoor_scenes,3500,1,8,4
143,38479,0,144,2,2,1,gain6,no_gain4,F,H,34,8,body_parts,outdoor_scenes,0,72,Stimuli/Experimental_stims/body_parts/wagner-santos-mBWMvIuVnso-unsplash.jpg,Stimuli/Experimental_stims/outdoor_scenes/samsommer-vddccTqwal8-unsplash.jpg,0,0,897,0,unchosen,8,34,outdoor_scenes,body_parts,2700,0,8,4
144,38479,0,145,2,2,1,gain6,no_gain6,F,D,22,14,faces,faces,68,72,Stimuli/Experimental_stims/faces/ravi-patel-VMGAbeeJTKo-unsplash.jpg,Stimuli/Experimental_stims/faces/david-siglin-UuW4psOb388-unsplash.jpg,0,1,930,1,chosen,22,14,faces,faces,2400,0,8,4
145,38479,0,146,2,2,1,gain3,no_gain5,L,C,18,26,faces,body_parts,24,0,Stimuli/Experimental_stims/faces/jessica-radanavong-mrYkTuAesKE-unsplash.jpg,Stimuli/Experimental_stims/body_parts/engin-akyurt-x_3gyC42btc-unsplash.jpg,0,0,1102,0,unchosen,26,18,body_parts,faces,1400,0,8,4
146,38479,0,147,2,2,1,gain5,no_gain4,B,H,3,12,outdoor_scenes,faces,92,93,Stimuli/Experimental_stims/outdoor_scenes/henry-be-NLF6hTe4PAg-unsplash.jpg,Stimuli/Experimental_stims/faces/aiony-haust-jmATI5Q_YgY-unsplash.jpg,0,1,1211,1,chosen,3,12,outdoor_scenes,faces,1200,0,8,4
147,38479,0,148,2,2,0,no_gain5,gain3,C,L,2,32,outdoor_scenes,body_parts,86,0,Stimuli/Experimental_stims/outdoor_scenes/bruno-van-der-kraan-qez8mNJ3ilU-unsplash.jpg,Stimuli/Experimental_stims/body_parts/towfiqu-barbhuiya-3AsiVDsZnHg-unsplash.jpg,0,0,807,1,chosen,32,2,body_parts,outdoor_scenes,3300,1,8,4
148,38479,0,149,3,3,1,gain5,no_gain3,B,I,3,10,outdoor_scenes,outdoor_scenes,92,17,Stimuli/Experimental_stims/outdoor_scenes/henry-be-NLF6hTe4PAg-unsplash.jpg,Stimuli/Experimental_stims/outdoor_scenes/shannon-kunkle-dM8INmkyDas-unsplash.jpg,0,1,1089,1,chosen,3,10,outdoor_scenes,outdoor_scenes,3900,1,7,4
149,38479,0,150,3,3,0,no_gain3,gain4,I,J,10,16,outdoor_scenes,faces,17,78,Stimuli/Experimental_stims/outdoor_scenes/shannon-kunkle-dM8INmkyDas-unsplash.jpg,Stimuli/Experimental_stims/faces/freddy-kearney-o-ioeoATbIM-unsplash.jpg,0,0,738,1,chosen,16,10,faces,outdoor_scenes,1200,0,7,4
150,38479,0,151,3,3,1,gain6,no_gain3,F,I,22,10,faces,outdoor_scenes,68,17,Stimuli/Experimental_stims/faces/ravi-patel-VMGAbeeJTKo-unsplash.jpg,Stimuli/Experimental_stims/outdoor_scenes/shannon-kunkle-dM8INmkyDas-unsplash.jpg,0,1,636,1,chosen,22,10,faces,outdoor_scenes,1500,0,7,4
151,38479,0,152,3,3,1,gain4,no_gain4,J,H,42,8,objects,outdoor_scenes,0,72,Stimuli/Experimental_stims/objects/jess-bailey-nOeVi8DsN8U-unsplash.jpg,Stimuli/Experimental_stims/outdoor_scenes/samsommer-vddccTqwal8-unsplash.jpg,0,0,913,0,unchosen,8,42,outdoor_scenes,objects,2700,0,7,4
152,38479,0,153,3,3,1,gain5,no_gain5,B,C,20,26,faces,body_parts,0,0,Stimuli/Experimental_stims/faces/justin-chen-J7Cf1Gch49E-unsplash.jpg,Stimuli/Experimental_stims/body_parts/engin-akyurt-x_3gyC42btc-unsplash.jpg,0,0,1002,0,unchosen,26,20,body_parts,faces,1300,0,7,4
153,38479,0,154,3,3,0,no_gain6,gain1,D,E,14,29,faces,body_parts,72,0,Stimuli/Experimental_stims/faces/david-siglin-UuW4psOb388-unsplash.jpg,Stimuli/Experimental_stims/body_parts/manuel-schinner-ZwjFuJ7ebpk-unsplash.jpg,0,0,981,1,chosen,29,14,body_parts,faces,1000,0,7,4
154,38479,0,155,3,3,1,gain1,no_gain3,E,I,29,10,body_parts,outdoor_scenes,0,17,Stimuli/Experimental_stims/body_parts/manuel-schinner-ZwjFuJ7ebpk-unsplash.jpg,Stimuli/Experimental_stims/outdoor_scenes/shannon-kunkle-dM8INmkyDas-unsplash.jpg,0,1,1026,1,chosen,29,10,body_parts,outdoor_scenes,3000,1,7,4
155,38479,0,156,3,3,0,no_gain2,gain3,A,L,44,18,objects,faces,0,24,Stimuli/Experimental_stims/objects/kuiye-chen-NuOGFo4PudE-unsplash.jpg,Stimuli/Experimental_stims/faces/jessica-radanavong-mrYkTuAesKE-unsplash.jpg,0,0,922,1,unchosen,18,44,faces,objects,2800,0,7,4
156,38479,0,157,3,3,1,gain3,no_gain5,L,C,32,2,body_parts,outdoor_scenes,0,86,Stimuli/Experimental_stims/body_parts/towfiqu-barbhuiya-3AsiVDsZnHg-unsplash.jpg,Stimuli/Experimental_stims/outdoor_scenes/bruno-van-der-kraan-qez8mNJ3ilU-unsplash.jpg,0,1,822,1,chosen,32,2,body_parts,outdoor_scenes,1400,0,7,4
157,38479,0,158,3,3,1,gain1,no_gain1,E,K,29,33,body_parts,body_parts,0,0,Stimuli/Experimental_stims/body_parts/manuel-schinner-ZwjFuJ7ebpk-unsplash.jpg,Stimuli/Experimental_stims/body_parts/tucker-good-36skLT5jZcc-unsplash.jpg,0,1,1128,1,chosen,29,33,body_parts,body_parts,2500,0,7,4
158,38479,0,159,3,3,0,no_gain3,gain2,I,G,31,40,body_parts,objects,0,0,Stimuli/Experimental_stims/body_parts/sincerely-media-VN6DbKajo5s-unsplash.jpg,Stimuli/Experimental_stims/objects/fabian-blank-pElSkGRA2NU-unsplash.jpg,0,0,1231,1,unchosen,40,31,objects,body_parts,1600,0,7,4
159,38479,0,160,3,3,1,gain2,no_gain4,G,H,40,8,objects,outdoor_scenes,0,72,Stimuli/Experimental_stims/objects/fabian-blank-pElSkGRA2NU-unsplash.jpg,Stimuli/Experimental_stims/outdoor_scenes/samsommer-vddccTqwal8-unsplash.jpg,0,1,733,1,unchosen,40,8,objects,outdoor_scenes,3600,1,7,4
160,38479,0,161,3,3,0,no_gain4,gain5,H,B,8,20,outdoor_scenes,faces,72,0,Stimuli/Experimental_stims/outdoor_scenes/samsommer-vddccTqwal8-unsplash.jpg,Stimuli/Experimental_stims/faces/justin-chen-J7Cf1Gch49E-unsplash.jpg,0,1,832,0,unchosen,8,20,outdoor_scenes,faces,1200,0,7,4
161,38479,0,162,3,3,0,no_gain5,gain4,C,J,2,16,outdoor_scenes,faces,86,78,Stimuli/Experimental_stims/outdoor_scenes/bruno-van-der-kraan-qez8mNJ3ilU-unsplash.jpg,Stimuli/Experimental_stims/faces/freddy-kearney-o-ioeoATbIM-unsplash.jpg,0,0,809,1,chosen,16,2,faces,outdoor_scenes,1800,0,7,4
162,38479,0,163,3,3,1,gain2,no_gain5,G,C,5,2,outdoor_scenes,outdoor_scenes,67,86,Stimuli/Experimental_stims/outdoor_scenes/jeff-king-bJHWJeiHfHc-unsplash.jpg,Stimuli/Experimental_stims/outdoor_scenes/bruno-van-der-kraan-qez8mNJ3ilU-unsplash.jpg,0,0,891,0,chosen,2,5,outdoor_scenes,outdoor_scenes,2800,0,7,4
163,38479,0,164,3,3,1,gain5,no_gain6,B,D,20,36,faces,objects,0,0,Stimuli/Experimental_stims/faces/justin-chen-J7Cf1Gch49E-unsplash.jpg,Stimuli/Experimental_stims/objects/alexander-andrews-JYGnB9gTCls-unsplash.jpg,0,1,837,1,unchosen,20,36,faces,objects,2100,0,7,4
164,38479,0,165,3,3,0,no_gain4,gain3,H,L,12,32,faces,body_parts,93,0,Stimuli/Experimental_stims/faces/aiony-haust-jmATI5Q_YgY-unsplash.jpg,Stimuli/Experimental_stims/body_parts/towfiqu-barbhuiya-3AsiVDsZnHg-unsplash.jpg,0,0,756,1,chosen,32,12,body_parts,faces,1500,0,7,4
165,38479,0,166,3,3,0,no_gain1,gain5,K,B,33,3,body_parts,outdoor_scenes,0,92,Stimuli/Experimental_stims/body_parts/tucker-good-36skLT5jZcc-unsplash.jpg,Stimuli/Experimental_stims/outdoor_scenes/henry-be-NLF6hTe4PAg-unsplash.jpg,0,1,1290,0,chosen,33,3,body_parts,outdoor_scenes,2100,0,7,4
166,38479,0,167,3,3,0,no_gain3,gain2,I,G,10,5,outdoor_scenes,outdoor_scenes,17,67,Stimuli/Experimental_stims/outdoor_scenes/shannon-kunkle-dM8INmkyDas-unsplash.jpg,Stimuli/Experimental_stims/outdoor_scenes/jeff-king-bJHWJeiHfHc-unsplash.jpg,0,0,892,1,chosen,5,10,outdoor_scenes,outdoor_scenes,3600,1,7,4
167,38479,0,168,3,3,1,gain6,no_gain4,F,H,34,8,body_parts,outdoor_scenes,0,72,Stimuli/Experimental_stims/body_parts/wagner-santos-mBWMvIuVnso-unsplash.jpg,Stimuli/Experimental_stims/outdoor_scenes/samsommer-vddccTqwal8-unsplash.jpg,0,0,714,0,unchosen,8,34,outdoor_scenes,body_parts,1300,0,7,4
168,38479,0,169,3,3,0,no_gain4,gain2,H,G,12,5,faces,outdoor_scenes,93,67,Stimuli/Experimental_stims/faces/aiony-haust-jmATI5Q_YgY-unsplash.jpg,Stimuli/Experimental_stims/outdoor_scenes/jeff-king-bJHWJeiHfHc-unsplash.jpg,0,1,874,0,chosen,12,5,faces,outdoor_scenes,2700,0,7,4
169,38479,0,170,3,3,1,gain1,no_gain4,E,H,45,8,objects,outdoor_scenes,69,72,Stimuli/Experimental_stims/objects/leohoho-rngTKHXumy0-unsplash.jpg,Stimuli/Experimental_stims/outdoor_scenes/samsommer-vddccTqwal8-unsplash.jpg,0,1,983,1,unchosen,45,8,objects,outdoor_scenes,1400,0,7,4
170,38479,0,171,3,3,0,no_gain2,gain4,A,J,44,42,objects,objects,0,0,Stimuli/Experimental_stims/objects/kuiye-chen-NuOGFo4PudE-unsplash.jpg,Stimuli/Experimental_stims/objects/jess-bailey-nOeVi8DsN8U-unsplash.jpg,0,0,721,1,unchosen,42,44,objects,objects,2300,0,7,4
171,38479,0,172,3,3,0,no_gain1,gain1,K,E,41,45,objects,objects,19,69,Stimuli/Experimental_stims/objects/insung-yoon-w2JtIQQXoRU-unsplash.jpg,Stimuli/Experimental_stims/objects/leohoho-rngTKHXumy0-unsplash.jpg,0,0,688,1,unchosen,45,41,objects,objects,3400,1,7,4
172,38479,0,173,3,3,1,gain4,no_gain2,J,A,16,4,faces,outdoor_scenes,78,85,Stimuli/Experimental_stims/faces/freddy-kearney-o-ioeoATbIM-unsplash.jpg,Stimuli/Experimental_stims/outdoor_scenes/jarrett-kow-1ZOyYPOBn7I-unsplash.jpg,0,1,842,1,chosen,16,4,faces,outdoor_scenes,1200,0,7,4
173,38479,0,174,3,3,0,no_gain6,gain6,D,F,36,34,objects,body_parts,0,0,Stimuli/Experimental_stims/objects/alexander-andrews-JYGnB9gTCls-unsplash.jpg,Stimuli/Experimental_stims/body_parts/wagner-santos-mBWMvIuVnso-unsplash.jpg,0,0,1165,1,unchosen,34,36,body_parts,objects,2500,0,7,4
174,38479,0,175,3,3,1,gain3,no_gain3,L,I,32,10,body_parts,outdoor_scenes,0,17,Stimuli/Experimental_stims/body_parts/towfiqu-barbhuiya-3AsiVDsZnHg-unsplash.jpg,Stimuli/Experimental_stims/outdoor_scenes/shannon-kunkle-dM8INmkyDas-unsplash.jpg,0,1,749,1,chosen,32,10,body_parts,outdoor_scenes,2600,0,7,4
175,38479,0,176,3,3,0,no_gain2,gain6,A,F,44,34,objects,body_parts,0,0,Stimuli/Experimental_stims/objects/kuiye-chen-NuOGFo4PudE-unsplash.jpg,Stimuli/Experimental_stims/body_parts/wagner-santos-mBWMvIuVnso-unsplash.jpg,0,0,784,1,unchosen,34,44,body_parts,objects,2100,0,7,4
176,38479,0,177,3,3,1,gain1,no_gain5,E,C,29,2,body_parts,outdoor_scenes,0,86,Stimuli/Experimental_stims/body_parts/manuel-schinner-ZwjFuJ7ebpk-unsplash.jpg,Stimuli/Experimental_stims/outdoor_scenes/bruno-van-der-kraan-qez8mNJ3ilU-unsplash.jpg,0,1,1187,1,chosen,29,2,body_parts,outdoor_scenes,3300,1,7,4
177,38479,0,178,3,3,0,no_gain1,gain5,K,B,41,20,objects,faces,19,0,Stimuli/Experimental_stims/objects/insung-yoon-w2JtIQQXoRU-unsplash.jpg,Stimuli/Experimental_stims/faces/justin-chen-J7Cf1Gch49E-unsplash.jpg,0,0,777,1,unchosen,20,41,faces,objects,1200,0,7,4
178,38479,0,179,3,3,1,gain2,no_gain6,G,D,5,14,outdoor_scenes,faces,67,72,Stimuli/Experimental_stims/outdoor_scenes/jeff-king-bJHWJeiHfHc-unsplash.jpg,Stimuli/Experimental_stims/faces/david-siglin-UuW4psOb388-unsplash.jpg,0,0,837,0,chosen,14,5,faces,outdoor_scenes,1500,0,7,4
179,38479,0,180,3,3,1,gain3,no_gain6,L,D,18,36,faces,objects,24,0,Stimuli/Experimental_stims/faces/jessica-radanavong-mrYkTuAesKE-unsplash.jpg,Stimuli/Experimental_stims/objects/alexander-andrews-JYGnB9gTCls-unsplash.jpg,0,1,1072,1,unchosen,18,36,faces,objects,1700,0,7,4
180,38479,0,181,3,3,0,no_gain5,gain1,C,E,26,45,body_parts,objects,0,69,Stimuli/Experimental_stims/body_parts/engin-akyurt-x_3gyC42btc-unsplash.jpg,Stimuli/Experimental_stims/objects/leohoho-rngTKHXumy0-unsplash.jpg,0,0,872,1,unchosen,45,26,objects,body_parts,1500,0,7,4
181,38479,0,182,3,3,1,gain2,no_gain6,G,D,40,36,objects,objects,0,0,Stimuli/Experimental_stims/objects/fabian-blank-pElSkGRA2NU-unsplash.jpg,Stimuli/Experimental_stims/objects/alexander-andrews-JYGnB9gTCls-unsplash.jpg,0,1,911,1,unchosen,40,36,objects,objects,1300,0,7,4
182,38479,0,183,3,3,1,gain1,no_gain4,E,H,29,12,body_parts,faces,0,93,Stimuli/Experimental_stims/body_parts/manuel-schinner-ZwjFuJ7ebpk-unsplash.jpg,Stimuli/Experimental_stims/faces/aiony-haust-jmATI5Q_YgY-unsplash.jpg,0,1,1047,1,chosen,29,12,body_parts,faces,2000,0,7,4
183,38479,0,184,3,3,0,no_gain1,gain6,K,F,41,34,objects,body_parts,19,0,Stimuli/Experimental_stims/objects/insung-yoon-w2JtIQQXoRU-unsplash.jpg,Stimuli/Experimental_stims/body_parts/wagner-santos-mBWMvIuVnso-unsplash.jpg,0,0,962,1,unchosen,34,41,body_parts,objects,1500,0,7,4
184,38479,0,185,3,3,1,gain5,no_gain5,B,C,3,2,outdoor_scenes,outdoor_scenes,92,86,Stimuli/Experimental_stims/outdoor_scenes/henry-be-NLF6hTe4PAg-unsplash.jpg,Stimuli/Experimental_stims/outdoor_scenes/bruno-van-der-kraan-qez8mNJ3ilU-unsplash.jpg,0,1,1290,1,chosen,3,2,outdoor_scenes,outdoor_scenes,2200,0,7,4
185,38479,0,186,3,3,1,gain6,no_gain1,F,K,22,33,faces,body_parts,68,0,Stimuli/Experimental_stims/faces/ravi-patel-VMGAbeeJTKo-unsplash.jpg,Stimuli/Experimental_stims/body_parts/tucker-good-36skLT5jZcc-unsplash.jpg,0,1,845,1,chosen,22,33,faces,body_parts,1300,0,7,4
186,38479,0,187,3,3,0,no_gain6,gain4,D,J,14,16,faces,faces,72,78,Stimuli/Experimental_stims/faces/david-siglin-UuW4psOb388-unsplash.jpg,Stimuli/Experimental_stims/faces/freddy-kearney-o-ioeoATbIM-unsplash.jpg,0,0,1076,1,chosen,16,14,faces,faces,1000,0,7,4
187,38479,0,188,3,3,1,gain1,no_gain2,E,A,45,44,objects,objects,69,0,Stimuli/Experimental_stims/objects/leohoho-rngTKHXumy0-unsplash.jpg,Stimuli/Experimental_stims/objects/kuiye-chen-NuOGFo4PudE-unsplash.jpg,0,1,746,1,unchosen,45,44,objects,objects,3000,1,7,4
188,38479,0,189,3,3,0,no_gain2,gain5,A,B,44,20,objects,faces,0,0,Stimuli/Experimental_stims/objects/kuiye-chen-NuOGFo4PudE-unsplash.jpg,Stimuli/Experimental_stims/faces/justin-chen-J7Cf1Gch49E-unsplash.jpg,0,0,835,1,unchosen,20,44,faces,objects,1300,0,7,4
189,38479,0,190,3,3,1,gain1,no_gain3,E,I,45,31,objects,body_parts,69,0,Stimuli/Experimental_stims/objects/leohoho-rngTKHXumy0-unsplash.jpg,Stimuli/Experimental_stims/body_parts/sincerely-media-VN6DbKajo5s-unsplash.jpg,0,1,872,1,unchosen,45,31,objects,body_parts,2200,0,7,4
190,38479,0,191,3,3,0,no_gain1,gain2,K,G,33,5,body_parts,outdoor_scenes,0,67,Stimuli/Experimental_stims/body_parts/tucker-good-36skLT5jZcc-unsplash.jpg,Stimuli/Experimental_stims/outdoor_scenes/jeff-king-bJHWJeiHfHc-unsplash.jpg,0,0,1219,1,chosen,5,33,outdoor_scenes,body_parts,1100,0,7,4
191,38479,0,192,3,3,0,no_gain3,gain5,I,B,31,20,body_parts,faces,0,0,Stimuli/Experimental_stims/body_parts/sincerely-media-VN6DbKajo5s-unsplash.jpg,Stimuli/Experimental_stims/faces/justin-chen-J7Cf1Gch49E-unsplash.jpg,1,NaN,,NaN,unchosen,NaN,NaN,NaN,NaN,2100,0,7,4
192,38479,0,193,3,3,0,no_gain2,gain6,A,F,4,22,outdoor_scenes,faces,85,68,Stimuli/Experimental_stims/outdoor_scenes/jarrett-kow-1ZOyYPOBn7I-unsplash.jpg,Stimuli/Experimental_stims/faces/ravi-patel-VMGAbeeJTKo-unsplash.jpg,0,1,834,0,chosen,4,22,outdoor_scenes,faces,2300,0,7,4
193,38479,0,194,3,3,0,no_gain4,gain5,H,B,12,3,faces,outdoor_scenes,93,92,Stimuli/Experimental_stims/faces/aiony-haust-jmATI5Q_YgY-unsplash.jpg,Stimuli/Experimental_stims/outdoor_scenes/henry-be-NLF6hTe4PAg-unsplash.jpg,0,0,962,1,chosen,3,12,outdoor_scenes,faces,3900,1,7,4
194,38479,0,195,3,3,0,no_gain4,gain6,H,F,12,22,faces,faces,93,68,Stimuli/Experimental_stims/faces/aiony-haust-jmATI5Q_YgY-unsplash.jpg,Stimuli/Experimental_stims/faces/ravi-patel-VMGAbeeJTKo-unsplash.jpg,0,0,990,1,chosen,22,12,faces,faces,1700,0,7,4
195,38479,0,196,3,3,1,gain4,no_gain3,J,I,42,31,objects,body_parts,0,0,Stimuli/Experimental_stims/objects/jess-bailey-nOeVi8DsN8U-unsplash.jpg,Stimuli/Experimental_stims/body_parts/sincerely-media-VN6DbKajo5s-unsplash.jpg,0,1,1225,1,unchosen,42,31,objects,body_parts,1200,0,7,4
196,38479,0,197,3,3,0,no_gain1,gain4,K,J,41,42,objects,objects,19,0,Stimuli/Experimental_stims/objects/insung-yoon-w2JtIQQXoRU-unsplash.jpg,Stimuli/Experimental_stims/objects/jess-bailey-nOeVi8DsN8U-unsplash.jpg,0,0,725,1,unchosen,42,41,objects,objects,1200,0,7,4
197,38479,0,198,3,3,1,gain2,no_gain2,G,A,40,44,objects,objects,0,0,Stimuli/Experimental_stims/objects/fabian-blank-pElSkGRA2NU-unsplash.jpg,Stimuli/Experimental_stims/objects/kuiye-chen-NuOGFo4PudE-unsplash.jpg,0,1,953,1,unchosen,40,44,objects,objects,1900,0,7,4
198,38479,0,199,3,3,0,no_gain6,gain3,D,L,14,32,faces,body_parts,72,0,Stimuli/Experimental_stims/faces/david-siglin-UuW4psOb388-unsplash.jpg,Stimuli/Experimental_stims/body_parts/towfiqu-barbhuiya-3AsiVDsZnHg-unsplash.jpg,0,0,1024,1,chosen,32,14,body_parts,faces,1000,0,7,4
199,38479,0,200,3,3,0,no_gain4,gain4,H,J,12,16,faces,faces,93,78,Stimuli/Experimental_stims/faces/aiony-haust-jmATI5Q_YgY-unsplash.jpg,Stimuli/Experimental_stims/faces/freddy-kearney-o-ioeoATbIM-unsplash.jpg,1,NaN,,NaN,chosen,NaN,NaN,NaN,NaN,3900,1,7,4
200,38479,0,201,3,3,0,no_gain6,gain5,D,B,14,3,faces,outdoor_scenes,72,92,Stimuli/Experimental_stims/faces/david-siglin-UuW4psOb388-unsplash.jpg,Stimuli/Experimental_stims/outdoor_scenes/henry-be-NLF6hTe4PAg-unsplash.jpg,0,0,720,1,chosen,3,14,outdoor_scenes,faces,2100,0,7,4
201,38479,0,202,3,3,1,gain6,no_gain5,F,C,34,26,body_parts,body_parts,0,0,Stimuli/Experimental_stims/body_parts/wagner-santos-mBWMvIuVnso-unsplash.jpg,Stimuli/Experimental_stims/body_parts/engin-akyurt-x_3gyC42btc-unsplash.jpg,0,1,854,1,unchosen,34,26,body_parts,body_parts,1300,0,7,4
202,38479,0,203,3,3,0,no_gain2,gain5,A,B,4,3,outdoor_scenes,outdoor_scenes,85,92,Stimuli/Experimental_stims/outdoor_scenes/jarrett-kow-1ZOyYPOBn7I-unsplash.jpg,Stimuli/Experimental_stims/outdoor_scenes/henry-be-NLF6hTe4PAg-unsplash.jpg,0,0,981,1,chosen,3,4,outdoor_scenes,outdoor_scenes,1800,0,7,4
203,38479,0,204,3,3,1,gain4,no_gain1,J,K,16,33,faces,body_parts,78,0,Stimuli/Experimental_stims/faces/freddy-kearney-o-ioeoATbIM-unsplash.jpg,Stimuli/Experimental_stims/body_parts/tucker-good-36skLT5jZcc-unsplash.jpg,0,1,900,1,chosen,16,33,faces,body_parts,1900,0,7,4
204,38479,0,205,3,3,1,gain6,no_gain3,F,I,34,31,body_parts,body_parts,0,0,Stimuli/Experimental_stims/body_parts/wagner-santos-mBWMvIuVnso-unsplash.jpg,Stimuli/Experimental_stims/body_parts/sincerely-media-VN6DbKajo5s-unsplash.jpg,0,0,1344,0,unchosen,31,34,body_parts,body_parts,2600,0,7,4
205,38479,0,206,3,3,1,gain4,no_gain6,J,D,42,36,objects,objects,0,0,Stimuli/Experimental_stims/objects/jess-bailey-nOeVi8DsN8U-unsplash.jpg,Stimuli/Experimental_stims/objects/alexander-andrews-JYGnB9gTCls-unsplash.jpg,0,1,905,1,unchosen,42,36,objects,objects,2400,0,7,4
206,38479,0,207,3,3,0,no_gain5,gain4,C,J,26,42,body_parts,objects,0,0,Stimuli/Experimental_stims/body_parts/engin-akyurt-x_3gyC42btc-unsplash.jpg,Stimuli/Experimental_stims/objects/jess-bailey-nOeVi8DsN8U-unsplash.jpg,0,0,681,1,unchosen,42,26,objects,body_parts,2500,0,7,4
207,38479,0,208,3,3,0,no_gain5,gain6,C,F,2,22,outdoor_scenes,faces,86,68,Stimuli/Experimental_stims/outdoor_scenes/bruno-van-der-kraan-qez8mNJ3ilU-unsplash.jpg,Stimuli/Experimental_stims/faces/ravi-patel-VMGAbeeJTKo-unsplash.jpg,0,0,716,1,chosen,22,2,faces,outdoor_scenes,2900,1,7,4
208,38479,0,209,3,3,0,no_gain4,gain3,H,L,8,18,outdoor_scenes,faces,72,24,Stimuli/Experimental_stims/outdoor_scenes/samsommer-vddccTqwal8-unsplash.jpg,Stimuli/Experimental_stims/faces/jessica-radanavong-mrYkTuAesKE-unsplash.jpg,0,1,911,0,unchosen,8,18,outdoor_scenes,faces,1000,0,7,4
209,38479,0,210,3,3,0,no_gain1,gain3,K,L,33,32,body_parts,body_parts,0,0,Stimuli/Experimental_stims/body_parts/tucker-good-36skLT5jZcc-unsplash.jpg,Stimuli/Experimental_stims/body_parts/towfiqu-barbhuiya-3AsiVDsZnHg-unsplash.jpg,0,0,737,1,chosen,32,33,body_parts,body_parts,1500,0,7,4
210,38479,0,211,3,3,1,gain3,no_gain3,L,I,18,31,faces,body_parts,24,0,Stimuli/Experimental_stims/faces/jessica-radanavong-mrYkTuAesKE-unsplash.jpg,Stimuli/Experimental_stims/body_parts/sincerely-media-VN6DbKajo5s-unsplash.jpg,0,0,998,0,unchosen,31,18,body_parts,faces,2000,0,7,4
211,38479,0,212,3,3,1,gain1,no_gain6,E,D,45,36,objects,objects,69,0,Stimuli/Experimental_stims/objects/leohoho-rngTKHXumy0-unsplash.jpg,Stimuli/Experimental_stims/objects/alexander-andrews-JYGnB9gTCls-unsplash.jpg,0,1,1148,1,unchosen,45,36,objects,objects,1400,0,7,4
212,38479,0,213,3,3,0,no_gain5,gain2,C,G,26,40,body_parts,objects,0,0,Stimuli/Experimental_stims/body_parts/engin-akyurt-x_3gyC42btc-unsplash.jpg,Stimuli/Experimental_stims/objects/fabian-blank-pElSkGRA2NU-unsplash.jpg,0,0,688,1,unchosen,40,26,objects,body_parts,1800,0,7,4
213,38479,0,214,3,3,1,gain6,no_gain6,F,D,22,14,faces,faces,68,72,Stimuli/Experimental_stims/faces/ravi-patel-VMGAbeeJTKo-unsplash.jpg,Stimuli/Experimental_stims/faces/david-siglin-UuW4psOb388-unsplash.jpg,0,1,952,1,chosen,22,14,faces,faces,2500,0,7,4
214,38479,0,215,3,3,1,gain1,no_gain2,E,A,29,4,body_parts,outdoor_scenes,0,85,Stimuli/Experimental_stims/body_parts/manuel-schinner-ZwjFuJ7ebpk-unsplash.jpg,Stimuli/Experimental_stims/outdoor_scenes/jarrett-kow-1ZOyYPOBn7I-unsplash.jpg,0,0,760,0,chosen,4,29,outdoor_scenes,body_parts,1600,0,7,4
215,38479,0,216,3,3,0,no_gain1,gain2,K,G,41,40,objects,objects,19,0,Stimuli/Experimental_stims/objects/insung-yoon-w2JtIQQXoRU-unsplash.jpg,Stimuli/Experimental_stims/objects/fabian-blank-pElSkGRA2NU-unsplash.jpg,0,0,722,1,unchosen,40,41,objects,objects,3700,1,7,4
216,38479,0,217,3,3,0,no_gain5,gain3,C,L,26,18,body_parts,faces,0,24,Stimuli/Experimental_stims/body_parts/engin-akyurt-x_3gyC42btc-unsplash.jpg,Stimuli/Experimental_stims/faces/jessica-radanavong-mrYkTuAesKE-unsplash.jpg,0,1,960,0,unchosen,26,18,body_parts,faces,1200,0,7,4
217,38479,0,218,3,3,1,gain3,no_gain2,L,A,32,4,body_parts,outdoor_scenes,0,85,Stimuli/Experimental_stims/body_parts/towfiqu-barbhuiya-3AsiVDsZnHg-unsplash.jpg,Stimuli/Experimental_stims/outdoor_scenes/jarrett-kow-1ZOyYPOBn7I-unsplash.jpg,0,1,882,1,chosen,32,4,body_parts,outdoor_scenes,1200,0,7,4
218,38479,0,219,3,3,1,gain3,no_gain1,L,K,18,41,faces,objects,24,19,Stimuli/Experimental_stims/faces/jessica-radanavong-mrYkTuAesKE-unsplash.jpg,Stimuli/Experimental_stims/objects/insung-yoon-w2JtIQQXoRU-unsplash.jpg,0,1,823,1,unchosen,18,41,faces,objects,1100,0,7,4
219,38479,0,220,3,3,1,gain2,no_gain2,G,A,5,4,outdoor_scenes,outdoor_scenes,67,85,Stimuli/Experimental_stims/outdoor_scenes/jeff-king-bJHWJeiHfHc-unsplash.jpg,Stimuli/Experimental_stims/outdoor_scenes/jarrett-kow-1ZOyYPOBn7I-unsplash.jpg,0,1,850,1,chosen,5,4,outdoor_scenes,outdoor_scenes,1100,0,7,4
220,38479,0,221,4,4,1,gain4,no_gain1,J,K,42,41,objects,objects,0,19,Stimuli/Experimental_stims/objects/jess-bailey-nOeVi8DsN8U-unsplash.jpg,Stimuli/Experimental_stims/objects/insung-yoon-w2JtIQQXoRU-unsplash.jpg,0,1,834,1,unchosen,42,41,objects,objects,4000,1,8,4
221,38479,0,222,4,4,0,no_gain1,gain5,K,B,33,3,body_parts,outdoor_scenes,0,92,Stimuli/Experimental_stims/body_parts/tucker-good-36skLT5jZcc-unsplash.jpg,Stimuli/Experimental_stims/outdoor_scenes/henry-be-NLF6hTe4PAg-unsplash.jpg,0,0,1072,1,chosen,3,33,outdoor_scenes,body_parts,1900,0,8,4
222,38479,0,223,4,4,1,gain2,no_gain1,G,K,5,33,outdoor_scenes,body_parts,67,0,Stimuli/Experimental_stims/outdoor_scenes/jeff-king-bJHWJeiHfHc-unsplash.jpg,Stimuli/Experimental_stims/body_parts/tucker-good-36skLT5jZcc-unsplash.jpg,0,1,683,1,chosen,5,33,outdoor_scenes,body_parts,1200,0,8,4
223,38479,0,224,4,4,1,gain4,no_gain6,J,D,42,36,objects,objects,0,0,Stimuli/Experimental_stims/objects/jess-bailey-nOeVi8DsN8U-unsplash.jpg,Stimuli/Experimental_stims/objects/alexander-andrews-JYGnB9gTCls-unsplash.jpg,0,1,754,1,unchosen,42,36,objects,objects,1200,0,8,4
224,38479,0,225,4,4,1,gain4,no_gain3,J,I,42,31,objects,body_parts,0,0,Stimuli/Experimental_stims/objects/jess-bailey-nOeVi8DsN8U-unsplash.jpg,Stimuli/Experimental_stims/body_parts/sincerely-media-VN6DbKajo5s-unsplash.jpg,0,1,564,1,unchosen,42,31,objects,body_parts,2900,0,8,4
225,38479,0,226,4,4,1,gain2,no_gain3,G,I,40,31,objects,body_parts,0,0,Stimuli/Experimental_stims/objects/fabian-blank-pElSkGRA2NU-unsplash.jpg,Stimuli/Experimental_stims/body_parts/sincerely-media-VN6DbKajo5s-unsplash.jpg,0,1,1037,1,unchosen,40,31,objects,body_parts,1800,0,8,4
226,38479,0,227,4,4,1,gain1,no_gain3,E,I,29,10,body_parts,outdoor_scenes,0,17,Stimuli/Experimental_stims/body_parts/manuel-schinner-ZwjFuJ7ebpk-unsplash.jpg,Stimuli/Experimental_stims/outdoor_scenes/shannon-kunkle-dM8INmkyDas-unsplash.jpg,0,1,868,1,chosen,29,10,body_parts,outdoor_scenes,4700,1,8,4
227,38479,0,228,4,4,0,no_gain2,gain5,A,B,4,3,outdoor_scenes,outdoor_scenes,85,92,Stimuli/Experimental_stims/outdoor_scenes/jarrett-kow-1ZOyYPOBn7I-unsplash.jpg,Stimuli/Experimental_stims/outdoor_scenes/henry-be-NLF6hTe4PAg-unsplash.jpg,0,0,917,1,chosen,3,4,outdoor_scenes,outdoor_scenes,2800,0,8,4
228,38479,0,229,4,4,1,gain5,no_gain1,B,K,20,41,faces,objects,0,19,Stimuli/Experimental_stims/faces/justin-chen-J7Cf1Gch49E-unsplash.jpg,Stimuli/Experimental_stims/objects/insung-yoon-w2JtIQQXoRU-unsplash.jpg,0,0,1043,0,unchosen,41,20,objects,faces,1100,0,8,4
229,38479,0,230,4,4,0,no_gain4,gain5,H,B,12,3,faces,outdoor_scenes,93,92,Stimuli/Experimental_stims/faces/aiony-haust-jmATI5Q_YgY-unsplash.jpg,Stimuli/Experimental_stims/outdoor_scenes/henry-be-NLF6hTe4PAg-unsplash.jpg,0,0,1052,1,chosen,3,12,outdoor_scenes,faces,2200,0,8,4
230,38479,0,231,4,4,0,no_gain1,gain6,K,F,41,34,objects,body_parts,19,0,Stimuli/Experimental_stims/objects/insung-yoon-w2JtIQQXoRU-unsplash.jpg,Stimuli/Experimental_stims/body_parts/wagner-santos-mBWMvIuVnso-unsplash.jpg,0,0,957,1,unchosen,34,41,body_parts,objects,2000,0,8,4
231,38479,0,232,4,4,1,gain3,no_gain5,L,C,18,26,faces,body_parts,24,0,Stimuli/Experimental_stims/faces/jessica-radanavong-mrYkTuAesKE-unsplash.jpg,Stimuli/Experimental_stims/body_parts/engin-akyurt-x_3gyC42btc-unsplash.jpg,0,0,837,0,unchosen,26,18,body_parts,faces,1100,0,8,4
232,38479,0,233,4,4,0,no_gain6,gain1,D,E,36,45,objects,objects,0,69,Stimuli/Experimental_stims/objects/alexander-andrews-JYGnB9gTCls-unsplash.jpg,Stimuli/Experimental_stims/objects/leohoho-rngTKHXumy0-unsplash.jpg,0,0,834,1,unchosen,45,36,objects,objects,3000,1,8,4
233,38479,0,234,4,4,1,gain3,no_gain5,L,C,32,2,body_parts,outdoor_scenes,0,86,Stimuli/Experimental_stims/body_parts/towfiqu-barbhuiya-3AsiVDsZnHg-unsplash.jpg,Stimuli/Experimental_stims/outdoor_scenes/bruno-van-der-kraan-qez8mNJ3ilU-unsplash.jpg,0,1,751,1,chosen,32,2,body_parts,outdoor_scenes,1800,0,8,4
234,38479,0,235,4,4,0,no_gain3,gain1,I,E,31,45,body_parts,objects,0,69,Stimuli/Experimental_stims/body_parts/sincerely-media-VN6DbKajo5s-unsplash.jpg,Stimuli/Experimental_stims/objects/leohoho-rngTKHXumy0-unsplash.jpg,0,0,734,1,unchosen,45,31,objects,body_parts,1700,0,8,4
235,38479,0,236,4,4,0,no_gain2,gain5,A,B,44,20,objects,faces,0,0,Stimuli/Experimental_stims/objects/kuiye-chen-NuOGFo4PudE-unsplash.jpg,Stimuli/Experimental_stims/faces/justin-chen-J7Cf1Gch49E-unsplash.jpg,0,0,1389,1,unchosen,20,44,faces,objects,1500,0,8,4
236,38479,0,237,4,4,0,no_gain2,gain1,A,E,44,45,objects,objects,0,69,Stimuli/Experimental_stims/objects/kuiye-chen-NuOGFo4PudE-unsplash.jpg,Stimuli/Experimental_stims/objects/leohoho-rngTKHXumy0-unsplash.jpg,0,0,697,1,unchosen,45,44,objects,objects,1400,0,8,4
237,38479,0,238,4,4,1,gain6,no_gain2,F,A,22,4,faces,outdoor_scenes,68,85,Stimuli/Experimental_stims/faces/ravi-patel-VMGAbeeJTKo-unsplash.jpg,Stimuli/Experimental_stims/outdoor_scenes/jarrett-kow-1ZOyYPOBn7I-unsplash.jpg,0,1,830,1,chosen,22,4,faces,outdoor_scenes,3000,1,8,4
238,38479,0,239,4,4,1,gain4,no_gain2,J,A,42,44,objects,objects,0,0,Stimuli/Experimental_stims/objects/jess-bailey-nOeVi8DsN8U-unsplash.jpg,Stimuli/Experimental_stims/objects/kuiye-chen-NuOGFo4PudE-unsplash.jpg,0,1,917,1,unchosen,42,44,objects,objects,1000,0,8,4
239,38479,0,240,4,4,0,no_gain1,gain2,K,G,41,40,objects,objects,19,0,Stimuli/Experimental_stims/objects/insung-yoon-w2JtIQQXoRU-unsplash.jpg,Stimuli/Experimental_stims/objects/fabian-blank-pElSkGRA2NU-unsplash.jpg,0,0,856,1,unchosen,40,41,objects,objects,1100,0,8,4
240,38479,0,241,4,4,0,no_gain4,gain3,H,L,8,18,outdoor_scenes,faces,72,24,Stimuli/Experimental_stims/outdoor_scenes/samsommer-vddccTqwal8-unsplash.jpg,Stimuli/Experimental_stims/faces/jessica-radanavong-mrYkTuAesKE-unsplash.jpg,0,1,767,0,unchosen,8,18,outdoor_scenes,faces,1600,0,8,4
241,38479,0,242,4,4,0,no_gain5,gain4,C,J,2,16,outdoor_scenes,faces,86,78,Stimuli/Experimental_stims/outdoor_scenes/bruno-van-der-kraan-qez8mNJ3ilU-unsplash.jpg,Stimuli/Experimental_stims/faces/freddy-kearney-o-ioeoATbIM-unsplash.jpg,0,0,854,1,chosen,16,2,faces,outdoor_scenes,1100,0,8,4
242,38479,0,243,4,4,1,gain6,no_gain6,F,D,34,36,body_parts,objects,0,0,Stimuli/Experimental_stims/body_parts/wagner-santos-mBWMvIuVnso-unsplash.jpg,Stimuli/Experimental_stims/objects/alexander-andrews-JYGnB9gTCls-unsplash.jpg,0,1,731,1,unchosen,34,36,body_parts,objects,1100,0,8,4
243,38479,0,244,4,4,1,gain3,no_gain2,L,A,32,4,body_parts,outdoor_scenes,0,85,Stimuli/Experimental_stims/body_parts/towfiqu-barbhuiya-3AsiVDsZnHg-unsplash.jpg,Stimuli/Experimental_stims/outdoor_scenes/jarrett-kow-1ZOyYPOBn7I-unsplash.jpg,0,1,723,1,chosen,32,4,body_parts,outdoor_scenes,1800,0,8,4
244,38479,0,245,4,4,0,no_gain1,gain1,K,E,33,29,body_parts,body_parts,0,0,Stimuli/Experimental_stims/body_parts/tucker-good-36skLT5jZcc-unsplash.jpg,Stimuli/Experimental_stims/body_parts/manuel-schinner-ZwjFuJ7ebpk-unsplash.jpg,0,0,969,1,chosen,29,33,body_parts,body_parts,1400,0,8,4
245,38479,0,246,4,4,0,no_gain4,gain5,H,B,8,20,outdoor_scenes,faces,72,0,Stimuli/Experimental_stims/outdoor_scenes/samsommer-vddccTqwal8-unsplash.jpg,Stimuli/Experimental_stims/faces/justin-chen-J7Cf1Gch49E-unsplash.jpg,0,1,934,0,unchosen,8,20,outdoor_scenes,faces,1600,0,8,4
246,38479,0,247,4,4,1,gain2,no_gain2,G,A,5,4,outdoor_scenes,outdoor_scenes,67,85,Stimuli/Experimental_stims/outdoor_scenes/jeff-king-bJHWJeiHfHc-unsplash.jpg,Stimuli/Experimental_stims/outdoor_scenes/jarrett-kow-1ZOyYPOBn7I-unsplash.jpg,0,1,1287,1,chosen,5,4,outdoor_scenes,outdoor_scenes,2000,0,8,4
247,38479,0,248,4,4,0,no_gain1,gain3,K,L,41,18,objects,faces,19,24,Stimuli/Experimental_stims/objects/insung-yoon-w2JtIQQXoRU-unsplash.jpg,Stimuli/Experimental_stims/faces/jessica-radanavong-mrYkTuAesKE-unsplash.jpg,0,0,781,1,unchosen,18,41,faces,objects,2200,0,8,4
248,38479,0,249,4,4,0,no_gain4,gain2,H,G,12,5,faces,outdoor_scenes,93,67,Stimuli/Experimental_stims/faces/aiony-haust-jmATI5Q_YgY-unsplash.jpg,Stimuli/Experimental_stims/outdoor_scenes/jeff-king-bJHWJeiHfHc-unsplash.jpg,0,0,834,1,chosen,5,12,outdoor_scenes,faces,2100,0,8,4
249,38479,0,250,4,4,0,no_gain3,gain2,I,G,10,5,outdoor_scenes,outdoor_scenes,17,67,Stimuli/Experimental_stims/outdoor_scenes/shannon-kunkle-dM8INmkyDas-unsplash.jpg,Stimuli/Experimental_stims/outdoor_scenes/jeff-king-bJHWJeiHfHc-unsplash.jpg,0,0,657,1,chosen,5,10,outdoor_scenes,outdoor_scenes,2900,0,8,4
250,38479,0,251,4,4,0,no_gain6,gain5,D,B,36,20,objects,faces,0,0,Stimuli/Experimental_stims/objects/alexander-andrews-JYGnB9gTCls-unsplash.jpg,Stimuli/Experimental_stims/faces/justin-chen-J7Cf1Gch49E-unsplash.jpg,0,1,943,0,unchosen,36,20,objects,faces,1600,0,8,4
251,38479,0,252,4,4,1,gain3,no_gain4,L,H,32,12,body_parts,faces,0,93,Stimuli/Experimental_stims/body_parts/towfiqu-barbhuiya-3AsiVDsZnHg-unsplash.jpg,Stimuli/Experimental_stims/faces/aiony-haust-jmATI5Q_YgY-unsplash.jpg,0,1,872,1,chosen,32,12,body_parts,faces,1600,0,8,4
252,38479,0,253,4,4,0,no_gain1,gain1,K,E,41,45,objects,objects,19,69,Stimuli/Experimental_stims/objects/insung-yoon-w2JtIQQXoRU-unsplash.jpg,Stimuli/Experimental_stims/objects/leohoho-rngTKHXumy0-unsplash.jpg,0,0,748,1,unchosen,45,41,objects,objects,4900,1,8,4
253,38479,0,254,4,4,0,no_gain5,gain1,C,E,26,45,body_parts,objects,0,69,Stimuli/Experimental_stims/body_parts/engin-akyurt-x_3gyC42btc-unsplash.jpg,Stimuli/Experimental_stims/objects/leohoho-rngTKHXumy0-unsplash.jpg,0,0,849,1,unchosen,45,26,objects,body_parts,2600,0,8,4
254,38479,0,255,4,4,1,gain5,no_gain5,B,C,3,2,outdoor_scenes,outdoor_scenes,92,86,Stimuli/Experimental_stims/outdoor_scenes/henry-be-NLF6hTe4PAg-unsplash.jpg,Stimuli/Experimental_stims/outdoor_scenes/bruno-van-der-kraan-qez8mNJ3ilU-unsplash.jpg,0,1,1325,1,chosen,3,2,outdoor_scenes,outdoor_scenes,1800,0,8,4
255,38479,0,256,4,4,0,no_gain1,gain3,K,L,33,32,body_parts,body_parts,0,0,Stimuli/Experimental_stims/body_parts/tucker-good-36skLT5jZcc-unsplash.jpg,Stimuli/Experimental_stims/body_parts/towfiqu-barbhuiya-3AsiVDsZnHg-unsplash.jpg,0,0,750,1,chosen,32,33,body_parts,body_parts,1500,0,8,4
256,38479,0,257,4,4,1,gain5,no_gain3,B,I,3,10,outdoor_scenes,outdoor_scenes,92,17,Stimuli/Experimental_stims/outdoor_scenes/henry-be-NLF6hTe4PAg-unsplash.jpg,Stimuli/Experimental_stims/outdoor_scenes/shannon-kunkle-dM8INmkyDas-unsplash.jpg,1,NaN,,NaN,chosen,NaN,NaN,NaN,NaN,1700,0,8,4
257,38479,0,258,4,4,1,gain2,no_gain4,G,H,40,8,objects,outdoor_scenes,0,72,Stimuli/Experimental_stims/objects/fabian-blank-pElSkGRA2NU-unsplash.jpg,Stimuli/Experimental_stims/outdoor_scenes/samsommer-vddccTqwal8-unsplash.jpg,0,1,954,1,unchosen,40,8,objects,outdoor_scenes,3200,1,8,4
258,38479,0,259,4,4,1,gain3,no_gain3,L,I,32,10,body_parts,outdoor_scenes,0,17,Stimuli/Experimental_stims/body_parts/towfiqu-barbhuiya-3AsiVDsZnHg-unsplash.jpg,Stimuli/Experimental_stims/outdoor_scenes/shannon-kunkle-dM8INmkyDas-unsplash.jpg,0,1,681,1,chosen,32,10,body_parts,outdoor_scenes,2100,0,8,4
259,38479,0,260,4,4,0,no_gain6,gain1,D,E,14,29,faces,body_parts,72,0,Stimuli/Experimental_stims/faces/david-siglin-UuW4psOb388-unsplash.jpg,Stimuli/Experimental_stims/body_parts/manuel-schinner-ZwjFuJ7ebpk-unsplash.jpg,0,0,976,1,chosen,29,14,body_parts,faces,1600,0,8,4
260,38479,0,261,4,4,0,no_gain2,gain3,A,L,44,18,objects,faces,0,24,Stimuli/Experimental_stims/objects/kuiye-chen-NuOGFo4PudE-unsplash.jpg,Stimuli/Experimental_stims/faces/jessica-radanavong-mrYkTuAesKE-unsplash.jpg,0,0,801,1,unchosen,18,44,faces,objects,1700,0,8,4
261,38479,0,262,4,4,0,no_gain4,gain4,H,J,12,16,faces,faces,93,78,Stimuli/Experimental_stims/faces/aiony-haust-jmATI5Q_YgY-unsplash.jpg,Stimuli/Experimental_stims/faces/freddy-kearney-o-ioeoATbIM-unsplash.jpg,0,0,818,1,chosen,16,12,faces,faces,1300,0,8,4
262,38479,0,263,4,4,1,gain6,no_gain1,F,K,22,33,faces,body_parts,68,0,Stimuli/Experimental_stims/faces/ravi-patel-VMGAbeeJTKo-unsplash.jpg,Stimuli/Experimental_stims/body_parts/tucker-good-36skLT5jZcc-unsplash.jpg,0,1,822,1,chosen,22,33,faces,body_parts,3700,1,8,4
263,38479,0,264,4,4,1,gain1,no_gain4,E,H,45,8,objects,outdoor_scenes,69,72,Stimuli/Experimental_stims/objects/leohoho-rngTKHXumy0-unsplash.jpg,Stimuli/Experimental_stims/outdoor_scenes/samsommer-vddccTqwal8-unsplash.jpg,0,0,777,0,unchosen,8,45,outdoor_scenes,objects,1500,0,8,4
264,38479,0,265,4,4,1,gain4,no_gain1,J,K,16,33,faces,body_parts,78,0,Stimuli/Experimental_stims/faces/freddy-kearney-o-ioeoATbIM-unsplash.jpg,Stimuli/Experimental_stims/body_parts/tucker-good-36skLT5jZcc-unsplash.jpg,0,1,839,1,chosen,16,33,faces,body_parts,1500,0,8,4
265,38479,0,266,4,4,1,gain2,no_gain5,G,C,40,26,objects,body_parts,0,0,Stimuli/Experimental_stims/objects/fabian-blank-pElSkGRA2NU-unsplash.jpg,Stimuli/Experimental_stims/body_parts/engin-akyurt-x_3gyC42btc-unsplash.jpg,0,1,1125,1,unchosen,40,26,objects,body_parts,1400,0,8,4
266,38479,0,267,4,4,0,no_gain2,gain4,A,J,4,16,outdoor_scenes,faces,85,78,Stimuli/Experimental_stims/outdoor_scenes/jarrett-kow-1ZOyYPOBn7I-unsplash.jpg,Stimuli/Experimental_stims/faces/freddy-kearney-o-ioeoATbIM-unsplash.jpg,0,0,955,1,chosen,16,4,faces,outdoor_scenes,1700,0,8,4
267,38479,0,268,4,4,0,no_gain4,gain6,H,F,12,22,faces,faces,93,68,Stimuli/Experimental_stims/faces/aiony-haust-jmATI5Q_YgY-unsplash.jpg,Stimuli/Experimental_stims/faces/ravi-patel-VMGAbeeJTKo-unsplash.jpg,0,0,810,1,chosen,22,12,faces,faces,2500,0,8,4
268,38479,0,269,4,4,0,no_gain6,gain6,D,F,14,22,faces,faces,72,68,Stimuli/Experimental_stims/faces/david-siglin-UuW4psOb388-unsplash.jpg,Stimuli/Experimental_stims/faces/ravi-patel-VMGAbeeJTKo-unsplash.jpg,0,0,764,1,chosen,22,14,faces,faces,1800,0,8,4
269,38479,0,270,4,4,0,no_gain2,gain6,A,F,44,34,objects,body_parts,0,0,Stimuli/Experimental_stims/objects/kuiye-chen-NuOGFo4PudE-unsplash.jpg,Stimuli/Experimental_stims/body_parts/wagner-santos-mBWMvIuVnso-unsplash.jpg,0,0,873,1,unchosen,34,44,body_parts,objects,2200,0,8,4
270,38479,0,271,4,4,0,no_gain5,gain6,C,F,26,34,body_parts,body_parts,0,0,Stimuli/Experimental_stims/body_parts/engin-akyurt-x_3gyC42btc-unsplash.jpg,Stimuli/Experimental_stims/body_parts/wagner-santos-mBWMvIuVnso-unsplash.jpg,0,0,781,1,unchosen,34,26,body_parts,body_parts,1400,0,8,4
271,38479,0,272,4,4,1,gain3,no_gain6,L,D,32,14,body_parts,faces,0,72,Stimuli/Experimental_stims/body_parts/towfiqu-barbhuiya-3AsiVDsZnHg-unsplash.jpg,Stimuli/Experimental_stims/faces/david-siglin-UuW4psOb388-unsplash.jpg,0,1,915,1,chosen,32,14,body_parts,faces,4200,1,8,4
272,38479,0,273,4,4,1,gain5,no_gain5,B,C,20,26,faces,body_parts,0,0,Stimuli/Experimental_stims/faces/justin-chen-J7Cf1Gch49E-unsplash.jpg,Stimuli/Experimental_stims/body_parts/engin-akyurt-x_3gyC42btc-unsplash.jpg,0,0,873,0,unchosen,26,20,body_parts,faces,2400,0,8,4
273,38479,0,274,4,4,0,no_gain4,gain6,H,F,8,34,outdoor_scenes,body_parts,72,0,Stimuli/Experimental_stims/outdoor_scenes/samsommer-vddccTqwal8-unsplash.jpg,Stimuli/Experimental_stims/body_parts/wagner-santos-mBWMvIuVnso-unsplash.jpg,1,NaN,,NaN,unchosen,NaN,NaN,NaN,NaN,1100,0,8,4
274,38479,0,275,4,4,0,no_gain2,gain1,A,E,4,29,outdoor_scenes,body_parts,85,0,Stimuli/Experimental_stims/outdoor_scenes/jarrett-kow-1ZOyYPOBn7I-unsplash.jpg,Stimuli/Experimental_stims/body_parts/manuel-schinner-ZwjFuJ7ebpk-unsplash.jpg,0,0,830,1,chosen,29,4,body_parts,outdoor_scenes,1400,0,8,4
275,38479,0,276,4,4,0,no_gain3,gain3,I,L,31,18,body_parts,faces,0,24,Stimuli/Experimental_stims/body_parts/sincerely-media-VN6DbKajo5s-unsplash.jpg,Stimuli/Experimental_stims/faces/jessica-radanavong-mrYkTuAesKE-unsplash.jpg,0,0,858,1,unchosen,18,31,faces,body_parts,1400,0,8,4
276,38479,0,277,4,4,1,gain5,no_gain6,B,D,3,14,outdoor_scenes,faces,92,72,Stimuli/Experimental_stims/outdoor_scenes/henry-be-NLF6hTe4PAg-unsplash.jpg,Stimuli/Experimental_stims/faces/david-siglin-UuW4psOb388-unsplash.jpg,0,1,1039,1,chosen,3,14,outdoor_scenes,faces,1000,0,8,4
277,38479,0,278,4,4,1,gain1,no_gain5,E,C,29,2,body_parts,outdoor_scenes,0,86,Stimuli/Experimental_stims/body_parts/manuel-schinner-ZwjFuJ7ebpk-unsplash.jpg,Stimuli/Experimental_stims/outdoor_scenes/bruno-van-der-kraan-qez8mNJ3ilU-unsplash.jpg,0,1,959,1,chosen,29,2,body_parts,outdoor_scenes,1900,0,8,4
278,38479,0,279,4,4,1,gain2,no_gain6,G,D,40,36,objects,objects,0,0,Stimuli/Experimental_stims/objects/fabian-blank-pElSkGRA2NU-unsplash.jpg,Stimuli/Experimental_stims/objects/alexander-andrews-JYGnB9gTCls-unsplash.jpg,0,1,1077,1,unchosen,40,36,objects,objects,2100,0,8,4
279,38479,0,280,4,4,1,gain2,no_gain2,G,A,40,44,objects,objects,0,0,Stimuli/Experimental_stims/objects/fabian-blank-pElSkGRA2NU-unsplash.jpg,Stimuli/Experimental_stims/objects/kuiye-chen-NuOGFo4PudE-unsplash.jpg,0,1,825,1,unchosen,40,44,objects,objects,1100,0,8,4
280,38479,0,281,4,4,1,gain3,no_gain6,L,D,18,36,faces,objects,24,0,Stimuli/Experimental_stims/faces/jessica-radanavong-mrYkTuAesKE-unsplash.jpg,Stimuli/Experimental_stims/objects/alexander-andrews-JYGnB9gTCls-unsplash.jpg,0,1,843,1,unchosen,18,36,faces,objects,3800,1,8,4
281,38479,0,282,4,4,0,no_gain6,gain2,D,G,14,5,faces,outdoor_scenes,72,67,Stimuli/Experimental_stims/faces/david-siglin-UuW4psOb388-unsplash.jpg,Stimuli/Experimental_stims/outdoor_scenes/jeff-king-bJHWJeiHfHc-unsplash.jpg,0,1,774,0,chosen,14,5,faces,outdoor_scenes,1200,0,8,4
282,38479,0,283,4,4,0,no_gain3,gain4,I,J,10,16,outdoor_scenes,faces,17,78,Stimuli/Experimental_stims/outdoor_scenes/shannon-kunkle-dM8INmkyDas-unsplash.jpg,Stimuli/Experimental_stims/faces/freddy-kearney-o-ioeoATbIM-unsplash.jpg,0,0,733,1,chosen,16,10,faces,outdoor_scenes,2500,0,8,4
283,38479,0,284,4,4,0,no_gain6,gain4,D,J,14,16,faces,faces,72,78,Stimuli/Experimental_stims/faces/david-siglin-UuW4psOb388-unsplash.jpg,Stimuli/Experimental_stims/faces/freddy-kearney-o-ioeoATbIM-unsplash.jpg,0,0,817,1,chosen,16,14,faces,faces,1200,0,8,4
284,38479,0,285,4,4,1,gain4,no_gain5,J,C,42,26,objects,body_parts,0,0,Stimuli/Experimental_stims/objects/jess-bailey-nOeVi8DsN8U-unsplash.jpg,Stimuli/Experimental_stims/body_parts/engin-akyurt-x_3gyC42btc-unsplash.jpg,0,1,734,1,unchosen,42,26,objects,body_parts,1600,0,8,4
285,38479,0,286,4,4,1,gain6,no_gain5,F,C,22,2,faces,outdoor_scenes,68,86,Stimuli/Experimental_stims/faces/ravi-patel-VMGAbeeJTKo-unsplash.jpg,Stimuli/Experimental_stims/outdoor_scenes/bruno-van-der-kraan-qez8mNJ3ilU-unsplash.jpg,0,1,849,1,chosen,22,2,faces,outdoor_scenes,1900,0,8,4
286,38479,0,287,4,4,1,gain2,no_gain5,G,C,5,2,outdoor_scenes,outdoor_scenes,67,86,Stimuli/Experimental_stims/outdoor_scenes/jeff-king-bJHWJeiHfHc-unsplash.jpg,Stimuli/Experimental_stims/outdoor_scenes/bruno-van-der-kraan-qez8mNJ3ilU-unsplash.jpg,0,1,914,1,chosen,5,2,outdoor_scenes,outdoor_scenes,1000,0,8,4
287,38479,0,288,4,4,1,gain6,no_gain3,F,I,34,31,body_parts,body_parts,0,0,Stimuli/Experimental_stims/body_parts/wagner-santos-mBWMvIuVnso-unsplash.jpg,Stimuli/Experimental_stims/body_parts/sincerely-media-VN6DbKajo5s-unsplash.jpg,0,1,744,1,unchosen,34,31,body_parts,body_parts,5000,1,8,4
288,38479,0,289,4,4,0,no_gain4,gain1,H,E,12,29,faces,body_parts,93,0,Stimuli/Experimental_stims/faces/aiony-haust-jmATI5Q_YgY-unsplash.jpg,Stimuli/Experimental_stims/body_parts/manuel-schinner-ZwjFuJ7ebpk-unsplash.jpg,0,0,1020,1,chosen,29,12,body_parts,faces,2400,0,8,4
289,38479,0,290,4,4,0,no_gain3,gain5,I,B,31,20,body_parts,faces,0,0,Stimuli/Experimental_stims/body_parts/sincerely-media-VN6DbKajo5s-unsplash.jpg,Stimuli/Experimental_stims/faces/justin-chen-J7Cf1Gch49E-unsplash.jpg,0,1,967,0,unchosen,31,20,body_parts,faces,1500,0,8,4
290,38479,0,291,4,4,1,gain6,no_gain3,F,I,22,10,faces,outdoor_scenes,68,17,Stimuli/Experimental_stims/faces/ravi-patel-VMGAbeeJTKo-unsplash.jpg,Stimuli/Experimental_stims/outdoor_scenes/shannon-kunkle-dM8INmkyDas-unsplash.jpg,0,1,809,1,chosen,22,10,faces,outdoor_scenes,1500,0,8,4
291,38479,0,292,4,4,1,gain4,no_gain4,J,H,42,8,objects,outdoor_scenes,0,72,Stimuli/Experimental_stims/objects/jess-bailey-nOeVi8DsN8U-unsplash.jpg,Stimuli/Experimental_stims/outdoor_scenes/samsommer-vddccTqwal8-unsplash.jpg,0,0,1093,0,unchosen,8,42,outdoor_scenes,objects,1300,0,8,4