,PID,practice,trial,block,run,gain_left,left_item_id,right_item_id,left_pair_id,right_pair_id,left_stimulus,right_stimulus,left_category,left_rating,right_rating,right_category,left_path,right_path,no_response,left_chosen,rt,higher_outcome_chosen,choice_type,chosen_stimulus,unchosen_stimulus,chosen_category,unchosen_category,iti,long_iti,simulation,version
0,74897,1,1,0,0,0,,,,,,,,,,,Stimuli/Practice_stims/Final_decisions/debby-hudson-FmCSSSGge-0-unsplash.jpg,Stimuli/Practice_stims/Final_decisions/yassine-khalfalli-adsQ9d_Cx0c-unsplash.jpg,0,0,47,1,,,,,,3000,0,7,2
1,74897,1,2,0,0,0,,,,,,,,,,,Stimuli/Practice_stims/Final_decisions/florian-wehde-iVW7mZPwd4g-unsplash.jpg,Stimuli/Practice_stims/Final_decisions/patrick-perkins-3wylDrjxH-E-unsplash.jpg,0,0,129,1,,,,,,1500,0,7,2
2,74897,1,3,0,0,0,,,,,,,,,,,Stimuli/Practice_stims/Final_decisions/debby-hudson-FmCSSSGge-0-unsplash.jpg,Stimuli/Practice_stims/Final_decisions/florian-wehde-iVW7mZPwd4g-unsplash.jpg,0,0,67,1,,,,,,2000,0,7,2
3,74897,1,4,0,0,0,,,,,,,,,,,Stimuli/Practice_stims/Final_decisions/yassine-khalfalli-adsQ9d_Cx0c-unsplash.jpg,Stimuli/Practice_stims/Final_decisions/debby-hudson-FmCSSSGge-0-unsplash.jpg,0,1,25,0,,,,,,1000,0,7,2
4,74897,0,5,1,1,1,gain2,no_gain3,D,B,43,7,objects,50,50,outdoor_scenes,Stimuli/Experimental_stims/objects/jonathan-greenaway-Y4hGgeiFn3s-unsplash.jpg,Stimuli/Experimental_stims/outdoor_scenes/petr-vysohlid-9fqwGqGLUxc-unsplash.jpg,0,1,1090,1,unchosen,43,7,objects,outdoor_scenes,4100,1,7,2
5,74897,0,6,1,1,1,gain3,no_gain5,F,E,33,31,body_parts,50,50,body_parts,Stimuli/Experimental_stims/body_parts/tucker-good-36skLT5jZcc-unsplash.jpg,Stimuli/Experimental_stims/body_parts/sincerely-media-VN6DbKajo5s-unsplash.jpg,0,0,3,0,chosen,31,33,body_parts,body_parts,1200,0,7,2
6,74897,0,7,1,1,1,gain1,no_gain3,H,B,4,16,outdoor_scenes,50,50,faces,Stimuli/Experimental_stims/outdoor_scenes/jarrett-kow-1ZOyYPOBn7I-unsplash.jpg,Stimuli/Experimental_stims/faces/freddy-kearney-o-ioeoATbIM-unsplash.jpg,0,0,58,0,chosen,16,4,faces,outdoor_scenes,2600,0,7,2
7,74897,0,8,1,1,1,gain2,no_gain4,D,L,15,22,faces,50,50,faces,Stimuli/Experimental_stims/faces/erik-lucatero-d2MSDujJl2g-unsplash.jpg,Stimuli/Experimental_stims/faces/ravi-patel-VMGAbeeJTKo-unsplash.jpg,0,1,223,1,chosen,15,22,faces,faces,2000,0,7,2
8,74897,0,9,1,1,0,no_gain5,gain1,E,H,38,19,objects,50,50,faces,Stimuli/Experimental_stims/objects/art-lasovsky-8XddFc6NkBY-unsplash.jpg,Stimuli/Experimental_stims/faces/joel-mott-LaK153ghdig-unsplash.jpg,0,0,172,1,unchosen,19,38,faces,objects,1200,0,7,2
9,74897,0,10,1,1,0,no_gain4,gain3,L,F,22,33,faces,50,50,body_parts,Stimuli/Experimental_stims/faces/ravi-patel-VMGAbeeJTKo-unsplash.jpg,Stimuli/Experimental_stims/body_parts/tucker-good-36skLT5jZcc-unsplash.jpg,0,0,247,1,chosen,33,22,body_parts,faces,3200,1,7,2
10,74897,0,11,1,1,0,no_gain1,gain3,I,F,0,33,outdoor_scenes,50,50,body_parts,Stimuli/Experimental_stims/outdoor_scenes/aleksandra-boguslawska-MS7KD9Ti7FQ-unsplash.jpg,Stimuli/Experimental_stims/body_parts/tucker-good-36skLT5jZcc-unsplash.jpg,0,0,377,1,chosen,33,0,body_parts,outdoor_scenes,1200,0,7,2
11,74897,0,12,1,1,0,no_gain2,gain1,J,H,40,4,objects,50,50,outdoor_scenes,Stimuli/Experimental_stims/objects/fabian-blank-pElSkGRA2NU-unsplash.jpg,Stimuli/Experimental_stims/outdoor_scenes/jarrett-kow-1ZOyYPOBn7I-unsplash.jpg,0,1,215,0,chosen,40,4,objects,outdoor_scenes,1800,0,7,2
12,74897,0,13,1,1,1,gain2,no_gain1,D,I,43,24,objects,50,50,body_parts,Stimuli/Experimental_stims/objects/jonathan-greenaway-Y4hGgeiFn3s-unsplash.jpg,Stimuli/Experimental_stims/body_parts/clay-banks-LjqARJaJotc-unsplash.jpg,0,0,209,0,unchosen,24,43,body_parts,objects,1600,0,7,2
13,74897,0,14,1,1,0,no_gain6,gain6,G,K,46,32,objects,50,50,body_parts,Stimuli/Experimental_stims/objects/mockup-graphics-PNsj6RiHAF4-unsplash.jpg,Stimuli/Experimental_stims/body_parts/towfiqu-barbhuiya-3AsiVDsZnHg-unsplash.jpg,0,0,39,1,unchosen,32,46,body_parts,objects,1300,0,7,2
14,74897,0,15,1,1,0,no_gain1,gain5,I,A,24,5,body_parts,50,50,outdoor_scenes,Stimuli/Experimental_stims/body_parts/clay-banks-LjqARJaJotc-unsplash.jpg,Stimuli/Experimental_stims/outdoor_scenes/jeff-king-bJHWJeiHfHc-unsplash.jpg,0,1,52,0,unchosen,24,5,body_parts,outdoor_scenes,1900,0,7,2
15,74897,0,16,1,1,0,no_gain3,gain2,B,D,16,15,faces,50,50,faces,Stimuli/Experimental_stims/faces/freddy-kearney-o-ioeoATbIM-unsplash.jpg,Stimuli/Experimental_stims/faces/erik-lucatero-d2MSDujJl2g-unsplash.jpg,0,1,11,0,chosen,16,15,faces,faces,4100,1,7,2
16,74897,0,17,1,1,1,gain4,no_gain2,C,J,9,23,outdoor_scenes,50,50,faces,Stimuli/Experimental_stims/outdoor_scenes/sergey-pesterev-y-b_FOmJXdg-unsplash.jpg,Stimuli/Experimental_stims/faces/rikonavt-HQjfrvdTfak-unsplash.jpg,0,1,40,1,unchosen,9,23,outdoor_scenes,faces,1100,0,7,2
17,74897,0,18,1,1,1,gain6,no_gain2,K,J,39,40,objects,50,50,objects,Stimuli/Experimental_stims/objects/charlesdeluvio-1-nx1QR5dTE-unsplash.jpg,Stimuli/Experimental_stims/objects/fabian-blank-pElSkGRA2NU-unsplash.jpg,0,1,158,1,chosen,39,40,objects,objects,1200,0,7,2
18,74897,0,19,1,1,1,gain5,no_gain4,A,L,5,27,outdoor_scenes,50,50,body_parts,Stimuli/Experimental_stims/outdoor_scenes/jeff-king-bJHWJeiHfHc-unsplash.jpg,Stimuli/Experimental_stims/body_parts/heike-mintel-i_Gns0ELnLw-unsplash.jpg,0,1,120,1,unchosen,5,27,outdoor_scenes,body_parts,1400,0,7,2
19,74897,0,20,1,1,0,no_gain4,gain1,L,H,22,4,faces,50,50,outdoor_scenes,Stimuli/Experimental_stims/faces/ravi-patel-VMGAbeeJTKo-unsplash.jpg,Stimuli/Experimental_stims/outdoor_scenes/jarrett-kow-1ZOyYPOBn7I-unsplash.jpg,0,1,66,0,chosen,22,4,faces,outdoor_scenes,1300,0,7,2
20,74897,0,21,1,1,1,gain6,no_gain6,K,G,39,1,objects,50,50,outdoor_scenes,Stimuli/Experimental_stims/objects/charlesdeluvio-1-nx1QR5dTE-unsplash.jpg,Stimuli/Experimental_stims/outdoor_scenes/ashim-d-silva-S2Q5mdOrrVc-unsplash.jpg,0,0,117,0,chosen,1,39,outdoor_scenes,objects,4600,1,7,2
21,74897,0,22,1,1,0,no_gain1,gain3,I,F,24,21,body_parts,50,50,faces,Stimuli/Experimental_stims/body_parts/clay-banks-LjqARJaJotc-unsplash.jpg,Stimuli/Experimental_stims/faces/leilani-angel-K84vnnzxmTQ-unsplash.jpg,0,0,114,1,unchosen,21,24,faces,body_parts,1000,0,7,2
22,74897,0,23,1,1,1,gain4,no_gain4,C,L,30,22,body_parts,50,50,faces,Stimuli/Experimental_stims/body_parts/mika-korhonen-Xodzxosar18-unsplash.jpg,Stimuli/Experimental_stims/faces/ravi-patel-VMGAbeeJTKo-unsplash.jpg,0,1,21,1,chosen,30,22,body_parts,faces,1100,0,7,2
23,74897,0,24,1,1,0,no_gain1,gain4,I,C,24,9,body_parts,50,50,outdoor_scenes,Stimuli/Experimental_stims/body_parts/clay-banks-LjqARJaJotc-unsplash.jpg,Stimuli/Experimental_stims/outdoor_scenes/sergey-pesterev-y-b_FOmJXdg-unsplash.jpg,0,0,1163,1,unchosen,9,24,outdoor_scenes,body_parts,1700,0,7,2
24,74897,0,25,1,1,0,no_gain3,gain5,B,A,7,5,outdoor_scenes,50,50,outdoor_scenes,Stimuli/Experimental_stims/outdoor_scenes/petr-vysohlid-9fqwGqGLUxc-unsplash.jpg,Stimuli/Experimental_stims/outdoor_scenes/jeff-king-bJHWJeiHfHc-unsplash.jpg,0,0,22,1,unchosen,5,7,outdoor_scenes,outdoor_scenes,2800,0,7,2
25,74897,0,26,1,1,1,gain4,no_gain3,C,B,30,16,body_parts,50,50,faces,Stimuli/Experimental_stims/body_parts/mika-korhonen-Xodzxosar18-unsplash.jpg,Stimuli/Experimental_stims/faces/freddy-kearney-o-ioeoATbIM-unsplash.jpg,0,0,91,0,chosen,16,30,faces,body_parts,3200,1,7,2
26,74897,0,27,1,1,1,gain5,no_gain6,A,G,37,1,objects,50,50,outdoor_scenes,Stimuli/Experimental_stims/objects/alexander-andrews-VLGWE_SumrA-unsplash.jpg,Stimuli/Experimental_stims/outdoor_scenes/ashim-d-silva-S2Q5mdOrrVc-unsplash.jpg,0,1,27,1,chosen,37,1,objects,outdoor_scenes,2000,0,7,2
27,74897,0,28,1,1,0,no_gain3,gain3,B,F,7,21,outdoor_scenes,50,50,faces,Stimuli/Experimental_stims/outdoor_scenes/petr-vysohlid-9fqwGqGLUxc-unsplash.jpg,Stimuli/Experimental_stims/faces/leilani-angel-K84vnnzxmTQ-unsplash.jpg,0,1,118,0,unchosen,7,21,outdoor_scenes,faces,1600,0,7,2
28,74897,0,29,1,1,1,gain6,no_gain3,K,B,39,16,objects,50,50,faces,Stimuli/Experimental_stims/objects/charlesdeluvio-1-nx1QR5dTE-unsplash.jpg,Stimuli/Experimental_stims/faces/freddy-kearney-o-ioeoATbIM-unsplash.jpg,0,1,91,1,chosen,39,16,objects,faces,1300,0,7,2
29,74897,0,30,1,1,1,gain5,no_gain5,A,E,5,38,outdoor_scenes,50,50,objects,Stimuli/Experimental_stims/outdoor_scenes/jeff-king-bJHWJeiHfHc-unsplash.jpg,Stimuli/Experimental_stims/objects/art-lasovsky-8XddFc6NkBY-unsplash.jpg,0,1,51,1,unchosen,5,38,outdoor_scenes,objects,1200,0,7,2
30,74897,0,31,1,1,0,no_gain6,gain3,G,F,46,21,objects,50,50,faces,Stimuli/Experimental_stims/objects/mockup-graphics-PNsj6RiHAF4-unsplash.jpg,Stimuli/Experimental_stims/faces/leilani-angel-K84vnnzxmTQ-unsplash.jpg,0,0,68,1,unchosen,21,46,faces,objects,3500,1,7,2
31,74897,0,32,1,1,0,no_gain1,gain1,I,H,0,4,outdoor_scenes,50,50,outdoor_scenes,Stimuli/Experimental_stims/outdoor_scenes/aleksandra-boguslawska-MS7KD9Ti7FQ-unsplash.jpg,Stimuli/Experimental_stims/outdoor_scenes/jarrett-kow-1ZOyYPOBn7I-unsplash.jpg,0,1,139,0,chosen,0,4,outdoor_scenes,outdoor_scenes,1800,0,7,2
32,74897,0,33,1,1,0,no_gain5,gain6,E,K,38,32,objects,50,50,body_parts,Stimuli/Experimental_stims/objects/art-lasovsky-8XddFc6NkBY-unsplash.jpg,Stimuli/Experimental_stims/body_parts/towfiqu-barbhuiya-3AsiVDsZnHg-unsplash.jpg,0,1,307,0,unchosen,38,32,objects,body_parts,1600,0,7,2
33,74897,0,34,1,1,0,no_gain1,gain5,I,A,0,37,outdoor_scenes,50,50,objects,Stimuli/Experimental_stims/outdoor_scenes/aleksandra-boguslawska-MS7KD9Ti7FQ-unsplash.jpg,Stimuli/Experimental_stims/objects/alexander-andrews-VLGWE_SumrA-unsplash.jpg,0,1,28,0,chosen,0,37,outdoor_scenes,objects,2000,0,7,2
34,74897,0,35,1,1,0,no_gain5,gain5,E,A,31,37,body_parts,50,50,objects,Stimuli/Experimental_stims/body_parts/sincerely-media-VN6DbKajo5s-unsplash.jpg,Stimuli/Experimental_stims/objects/alexander-andrews-VLGWE_SumrA-unsplash.jpg,0,0,136,1,chosen,37,31,objects,body_parts,1100,0,7,2
35,74897,0,36,1,1,1,gain1,no_gain2,H,J,19,23,faces,50,50,faces,Stimuli/Experimental_stims/faces/joel-mott-LaK153ghdig-unsplash.jpg,Stimuli/Experimental_stims/faces/rikonavt-HQjfrvdTfak-unsplash.jpg,0,1,92,1,unchosen,19,23,faces,faces,2800,0,7,2
36,74897,0,37,1,1,0,no_gain2,gain5,J,A,40,37,objects,50,50,objects,Stimuli/Experimental_stims/objects/fabian-blank-pElSkGRA2NU-unsplash.jpg,Stimuli/Experimental_stims/objects/alexander-andrews-VLGWE_SumrA-unsplash.jpg,0,1,138,0,chosen,40,37,objects,objects,3100,1,7,2
37,74897,0,38,1,1,0,no_gain4,gain2,L,D,27,43,body_parts,50,50,objects,Stimuli/Experimental_stims/body_parts/heike-mintel-i_Gns0ELnLw-unsplash.jpg,Stimuli/Experimental_stims/objects/jonathan-greenaway-Y4hGgeiFn3s-unsplash.jpg,0,1,160,0,unchosen,27,43,body_parts,objects,1100,0,7,2
38,74897,0,39,1,1,0,no_gain4,gain1,L,H,27,19,body_parts,50,50,faces,Stimuli/Experimental_stims/body_parts/heike-mintel-i_Gns0ELnLw-unsplash.jpg,Stimuli/Experimental_stims/faces/joel-mott-LaK153ghdig-unsplash.jpg,0,1,127,0,unchosen,27,19,body_parts,faces,1100,0,7,2
39,74897,0,40,1,1,1,gain2,no_gain1,D,I,15,0,faces,50,50,outdoor_scenes,Stimuli/Experimental_stims/faces/erik-lucatero-d2MSDujJl2g-unsplash.jpg,Stimuli/Experimental_stims/outdoor_scenes/aleksandra-boguslawska-MS7KD9Ti7FQ-unsplash.jpg,0,1,79,1,chosen,15,0,faces,outdoor_scenes,1100,0,7,2
40,74897,0,41,1,1,1,gain2,no_gain5,D,E,43,38,objects,50,50,objects,Stimuli/Experimental_stims/objects/jonathan-greenaway-Y4hGgeiFn3s-unsplash.jpg,Stimuli/Experimental_stims/objects/art-lasovsky-8XddFc6NkBY-unsplash.jpg,0,1,156,1,unchosen,43,38,objects,objects,2300,0,7,2
41,74897,0,42,1,1,1,gain6,no_gain3,K,B,32,7,body_parts,50,50,outdoor_scenes,Stimuli/Experimental_stims/body_parts/towfiqu-barbhuiya-3AsiVDsZnHg-unsplash.jpg,Stimuli/Experimental_stims/outdoor_scenes/petr-vysohlid-9fqwGqGLUxc-unsplash.jpg,0,1,174,1,unchosen,32,7,body_parts,outdoor_scenes,3700,1,7,2
42,74897,0,43,1,1,0,no_gain6,gain5,G,A,46,5,objects,50,50,outdoor_scenes,Stimuli/Experimental_stims/objects/mockup-graphics-PNsj6RiHAF4-unsplash.jpg,Stimuli/Experimental_stims/outdoor_scenes/jeff-king-bJHWJeiHfHc-unsplash.jpg,0,1,278,0,unchosen,46,5,objects,outdoor_scenes,2400,0,7,2
43,74897,0,44,1,1,0,no_gain5,gain6,E,K,31,39,body_parts,50,50,objects,Stimuli/Experimental_stims/body_parts/sincerely-media-VN6DbKajo5s-unsplash.jpg,Stimuli/Experimental_stims/objects/charlesdeluvio-1-nx1QR5dTE-unsplash.jpg,0,1,425,0,chosen,31,39,body_parts,objects,1400,0,7,2
44,74897,0,45,1,1,0,no_gain2,gain6,J,K,23,32,faces,50,50,body_parts,Stimuli/Experimental_stims/faces/rikonavt-HQjfrvdTfak-unsplash.jpg,Stimuli/Experimental_stims/body_parts/towfiqu-barbhuiya-3AsiVDsZnHg-unsplash.jpg,0,1,321,0,unchosen,23,32,faces,body_parts,2500,0,7,2
45,74897,0,46,1,1,1,gain6,no_gain1,K,I,39,0,objects,50,50,outdoor_scenes,Stimuli/Experimental_stims/objects/charlesdeluvio-1-nx1QR5dTE-unsplash.jpg,Stimuli/Experimental_stims/outdoor_scenes/aleksandra-boguslawska-MS7KD9Ti7FQ-unsplash.jpg,0,1,311,1,chosen,39,0,objects,outdoor_scenes,2600,0,7,2
46,74897,0,47,1,1,1,gain2,no_gain2,D,J,15,40,faces,50,50,objects,Stimuli/Experimental_stims/faces/erik-lucatero-d2MSDujJl2g-unsplash.jpg,Stimuli/Experimental_stims/objects/fabian-blank-pElSkGRA2NU-unsplash.jpg,0,1,4,1,chosen,15,40,faces,objects,1100,0,7,2
47,74897,0,48,1,1,0,no_gain6,gain1,G,H,46,19,objects,50,50,faces,Stimuli/Experimental_stims/objects/mockup-graphics-PNsj6RiHAF4-unsplash.jpg,Stimuli/Experimental_stims/faces/joel-mott-LaK153ghdig-unsplash.jpg,0,1,158,0,unchosen,46,19,objects,faces,4800,1,7,2
48,74897,0,49,1,1,1,gain4,no_gain3,C,B,9,7,outdoor_scenes,50,50,outdoor_scenes,Stimuli/Experimental_stims/outdoor_scenes/sergey-pesterev-y-b_FOmJXdg-unsplash.jpg,Stimuli/Experimental_stims/outdoor_scenes/petr-vysohlid-9fqwGqGLUxc-unsplash.jpg,0,1,13,1,unchosen,9,7,outdoor_scenes,outdoor_scenes,1600,0,7,2
49,74897,0,50,1,1,1,gain6,no_gain4,K,L,39,22,objects,50,50,faces,Stimuli/Experimental_stims/objects/charlesdeluvio-1-nx1QR5dTE-unsplash.jpg,Stimuli/Experimental_stims/faces/ravi-patel-VMGAbeeJTKo-unsplash.jpg,0,1,55,1,chosen,39,22,objects,faces,2800,0,7,2
50,74897,0,51,1,1,1,gain1,no_gain3,H,B,19,7,faces,50,50,outdoor_scenes,Stimuli/Experimental_stims/faces/joel-mott-LaK153ghdig-unsplash.jpg,Stimuli/Experimental_stims/outdoor_scenes/petr-vysohlid-9fqwGqGLUxc-unsplash.jpg,0,1,45,1,unchosen,19,7,faces,outdoor_scenes,2300,0,7,2
51,74897,0,52,1,1,1,gain3,no_gain5,F,E,21,38,faces,50,50,objects,Stimuli/Experimental_stims/faces/leilani-angel-K84vnnzxmTQ-unsplash.jpg,Stimuli/Experimental_stims/objects/art-lasovsky-8XddFc6NkBY-unsplash.jpg,0,1,58,1,unchosen,21,38,faces,objects,2400,0,7,2
52,74897,0,53,1,1,1,gain4,no_gain4,C,L,9,27,outdoor_scenes,50,50,body_parts,Stimuli/Experimental_stims/outdoor_scenes/sergey-pesterev-y-b_FOmJXdg-unsplash.jpg,Stimuli/Experimental_stims/body_parts/heike-mintel-i_Gns0ELnLw-unsplash.jpg,0,1,188,1,unchosen,9,27,outdoor_scenes,body_parts,1800,0,7,2
53,74897,0,54,1,1,0,no_gain6,gain1,G,H,1,4,outdoor_scenes,50,50,outdoor_scenes,Stimuli/Experimental_stims/outdoor_scenes/ashim-d-silva-S2Q5mdOrrVc-unsplash.jpg,Stimuli/Experimental_stims/outdoor_scenes/jarrett-kow-1ZOyYPOBn7I-unsplash.jpg,0,1,63,0,chosen,1,4,outdoor_scenes,outdoor_scenes,1500,0,7,2
54,74897,0,55,1,1,1,gain6,no_gain4,K,L,32,27,body_parts,50,50,body_parts,Stimuli/Experimental_stims/body_parts/towfiqu-barbhuiya-3AsiVDsZnHg-unsplash.jpg,Stimuli/Experimental_stims/body_parts/heike-mintel-i_Gns0ELnLw-unsplash.jpg,0,1,61,1,unchosen,32,27,body_parts,body_parts,1900,0,7,2
55,74897,0,56,1,1,1,gain3,no_gain2,F,J,21,23,faces,50,50,faces,Stimuli/Experimental_stims/faces/leilani-angel-K84vnnzxmTQ-unsplash.jpg,Stimuli/Experimental_stims/faces/rikonavt-HQjfrvdTfak-unsplash.jpg,0,1,95,1,unchosen,21,23,faces,faces,1100,0,7,2
56,74897,0,57,1,1,0,no_gain2,gain2,J,D,23,43,faces,50,50,objects,Stimuli/Experimental_stims/faces/rikonavt-HQjfrvdTfak-unsplash.jpg,Stimuli/Experimental_stims/objects/jonathan-greenaway-Y4hGgeiFn3s-unsplash.jpg,0,1,16,0,unchosen,23,43,faces,objects,1700,0,7,2
57,74897,0,58,1,1,1,gain5,no_gain3,A,B,37,16,objects,50,50,faces,Stimuli/Experimental_stims/objects/alexander-andrews-VLGWE_SumrA-unsplash.jpg,Stimuli/Experimental_stims/faces/freddy-kearney-o-ioeoATbIM-unsplash.jpg,0,1,35,1,chosen,37,16,objects,faces,1600,0,7,2
58,74897,0,59,1,1,1,gain6,no_gain1,K,I,32,24,body_parts,50,50,body_parts,Stimuli/Experimental_stims/body_parts/towfiqu-barbhuiya-3AsiVDsZnHg-unsplash.jpg,Stimuli/Experimental_stims/body_parts/clay-banks-LjqARJaJotc-unsplash.jpg,0,1,156,1,unchosen,32,24,body_parts,body_parts,1700,0,7,2
59,74897,0,60,1,1,0,no_gain5,gain4,E,C,31,30,body_parts,50,50,body_parts,Stimuli/Experimental_stims/body_parts/sincerely-media-VN6DbKajo5s-unsplash.jpg,Stimuli/Experimental_stims/body_parts/mika-korhonen-Xodzxosar18-unsplash.jpg,0,1,70,0,chosen,31,30,body_parts,body_parts,3000,0,7,2
60,74897,0,61,1,1,1,gain3,no_gain6,F,G,33,1,body_parts,50,50,outdoor_scenes,Stimuli/Experimental_stims/body_parts/tucker-good-36skLT5jZcc-unsplash.jpg,Stimuli/Experimental_stims/outdoor_scenes/ashim-d-silva-S2Q5mdOrrVc-unsplash.jpg,0,1,160,1,chosen,33,1,body_parts,outdoor_scenes,2100,0,7,2
61,74897,0,62,1,1,1,gain5,no_gain2,A,J,5,23,outdoor_scenes,50,50,faces,Stimuli/Experimental_stims/outdoor_scenes/jeff-king-bJHWJeiHfHc-unsplash.jpg,Stimuli/Experimental_stims/faces/rikonavt-HQjfrvdTfak-unsplash.jpg,0,1,151,1,unchosen,5,23,outdoor_scenes,faces,3200,1,7,2
62,74897,0,63,1,1,1,gain1,no_gain5,H,E,4,31,outdoor_scenes,50,50,body_parts,Stimuli/Experimental_stims/outdoor_scenes/jarrett-kow-1ZOyYPOBn7I-unsplash.jpg,Stimuli/Experimental_stims/body_parts/sincerely-media-VN6DbKajo5s-unsplash.jpg,0,1,345,1,chosen,4,31,outdoor_scenes,body_parts,1600,0,7,2
63,74897,0,64,1,1,0,no_gain2,gain4,J,C,40,30,objects,50,50,body_parts,Stimuli/Experimental_stims/objects/fabian-blank-pElSkGRA2NU-unsplash.jpg,Stimuli/Experimental_stims/body_parts/mika-korhonen-Xodzxosar18-unsplash.jpg,0,1,160,0,chosen,40,30,objects,body_parts,1300,0,7,2
64,74897,0,65,1,1,0,no_gain1,gain1,I,H,24,19,body_parts,50,50,faces,Stimuli/Experimental_stims/body_parts/clay-banks-LjqARJaJotc-unsplash.jpg,Stimuli/Experimental_stims/faces/joel-mott-LaK153ghdig-unsplash.jpg,0,1,102,0,unchosen,24,19,body_parts,faces,1800,0,7,2
65,74897,0,66,1,1,0,no_gain1,gain4,I,C,0,30,outdoor_scenes,50,50,body_parts,Stimuli/Experimental_stims/outdoor_scenes/aleksandra-boguslawska-MS7KD9Ti7FQ-unsplash.jpg,Stimuli/Experimental_stims/body_parts/mika-korhonen-Xodzxosar18-unsplash.jpg,0,1,33,0,chosen,0,30,outdoor_scenes,body_parts,1400,0,7,2
66,74897,0,67,1,1,0,no_gain3,gain3,B,F,16,33,faces,50,50,body_parts,Stimuli/Experimental_stims/faces/freddy-kearney-o-ioeoATbIM-unsplash.jpg,Stimuli/Experimental_stims/body_parts/tucker-good-36skLT5jZcc-unsplash.jpg,0,1,81,0,chosen,16,33,faces,body_parts,1500,0,7,2
67,74897,0,68,1,1,0,no_gain6,gain2,G,D,1,15,outdoor_scenes,50,50,faces,Stimuli/Experimental_stims/outdoor_scenes/ashim-d-silva-S2Q5mdOrrVc-unsplash.jpg,Stimuli/Experimental_stims/faces/erik-lucatero-d2MSDujJl2g-unsplash.jpg,0,1,1,0,chosen,1,15,outdoor_scenes,faces,1100,0,7,2
68,74897,0,69,1,1,0,no_gain6,gain4,G,C,46,9,objects,50,50,outdoor_scenes,Stimuli/Experimental_stims/objects/mockup-graphics-PNsj6RiHAF4-unsplash.jpg,Stimuli/Experimental_stims/outdoor_scenes/sergey-pesterev-y-b_FOmJXdg-unsplash.jpg,0,1,94,0,unchosen,46,9,objects,outdoor_scenes,4300,1,7,2
69,74897,0,70,1,1,0,no_gain2,gain3,J,F,40,33,objects,50,50,body_parts,Stimuli/Experimental_stims/objects/fabian-blank-pElSkGRA2NU-unsplash.jpg,Stimuli/Experimental_stims/body_parts/tucker-good-36skLT5jZcc-unsplash.jpg,0,1,459,0,chosen,40,33,objects,body_parts,1100,0,7,2
70,74897,0,71,1,1,1,gain2,no_gain5,D,E,15,31,faces,50,50,body_parts,Stimuli/Experimental_stims/faces/erik-lucatero-d2MSDujJl2g-unsplash.jpg,Stimuli/Experimental_stims/body_parts/sincerely-media-VN6DbKajo5s-unsplash.jpg,0,1,44,1,chosen,15,31,faces,body_parts,1300,0,7,2
71,74897,0,72,1,1,1,gain2,no_gain6,D,G,43,46,objects,50,50,objects,Stimuli/Experimental_stims/objects/jonathan-greenaway-Y4hGgeiFn3s-unsplash.jpg,Stimuli/Experimental_stims/objects/mockup-graphics-PNsj6RiHAF4-unsplash.jpg,0,1,121,1,unchosen,43,46,objects,objects,2000,0,7,2
72,74897,0,73,1,1,0,no_gain4,gain3,L,F,27,21,body_parts,50,50,faces,Stimuli/Experimental_stims/body_parts/heike-mintel-i_Gns0ELnLw-unsplash.jpg,Stimuli/Experimental_stims/faces/leilani-angel-K84vnnzxmTQ-unsplash.jpg,0,1,188,0,unchosen,27,21,body_parts,faces,1900,0,7,2
73,74897,0,74,1,1,0,no_gain4,gain5,L,A,22,37,faces,50,50,objects,Stimuli/Experimental_stims/faces/ravi-patel-VMGAbeeJTKo-unsplash.jpg,Stimuli/Experimental_stims/objects/alexander-andrews-VLGWE_SumrA-unsplash.jpg,0,1,139,0,chosen,22,37,faces,objects,2200,0,7,2
74,74897,0,75,1,1,1,gain4,no_gain6,C,G,30,1,body_parts,50,50,outdoor_scenes,Stimuli/Experimental_stims/body_parts/mika-korhonen-Xodzxosar18-unsplash.jpg,Stimuli/Experimental_stims/outdoor_scenes/ashim-d-silva-S2Q5mdOrrVc-unsplash.jpg,0,1,18,1,chosen,30,1,body_parts,outdoor_scenes,1000,0,7,2
75,74897,0,76,1,1,1,gain4,no_gain5,C,E,9,38,outdoor_scenes,50,50,objects,Stimuli/Experimental_stims/outdoor_scenes/sergey-pesterev-y-b_FOmJXdg-unsplash.jpg,Stimuli/Experimental_stims/objects/art-lasovsky-8XddFc6NkBY-unsplash.jpg,0,1,178,1,unchosen,9,38,outdoor_scenes,objects,1100,0,7,2
76,74897,0,77,2,2,1,gain6,no_gain3,K,B,32,7,body_parts,50,50,outdoor_scenes,Stimuli/Experimental_stims/body_parts/towfiqu-barbhuiya-3AsiVDsZnHg-unsplash.jpg,Stimuli/Experimental_stims/outdoor_scenes/petr-vysohlid-9fqwGqGLUxc-unsplash.jpg,0,1,873,1,unchosen,32,7,body_parts,outdoor_scenes,3800,1,10,2
77,74897,0,78,2,2,1,gain6,no_gain4,K,L,39,22,objects,50,50,faces,Stimuli/Experimental_stims/objects/charlesdeluvio-1-nx1QR5dTE-unsplash.jpg,Stimuli/Experimental_stims/faces/ravi-patel-VMGAbeeJTKo-unsplash.jpg,0,1,0,1,chosen,39,22,objects,faces,2000,0,10,2
78,74897,0,79,2,2,1,gain3,no_gain1,F,I,33,0,body_parts,50,50,outdoor_scenes,Stimuli/Experimental_stims/body_parts/tucker-good-36skLT5jZcc-unsplash.jpg,Stimuli/Experimental_stims/outdoor_scenes/aleksandra-boguslawska-MS7KD9Ti7FQ-unsplash.jpg,0,1,26,1,chosen,33,0,body_parts,outdoor_scenes,3000,0,10,2
79,74897,0,80,2,2,1,gain4,no_gain3,C,B,9,7,outdoor_scenes,50,50,outdoor_scenes,Stimuli/Experimental_stims/outdoor_scenes/sergey-pesterev-y-b_FOmJXdg-unsplash.jpg,Stimuli/Experimental_stims/outdoor_scenes/petr-vysohlid-9fqwGqGLUxc-unsplash.jpg,0,1,130,1,unchosen,9,7,outdoor_scenes,outdoor_scenes,1400,0,10,2
80,74897,0,81,2,2,1,gain6,no_gain6,K,G,39,1,objects,50,50,outdoor_scenes,Stimuli/Experimental_stims/objects/charlesdeluvio-1-nx1QR5dTE-unsplash.jpg,Stimuli/Experimental_stims/outdoor_scenes/ashim-d-silva-S2Q5mdOrrVc-unsplash.jpg,0,1,4,1,chosen,39,1,objects,outdoor_scenes,2900,0,10,2
81,74897,0,82,2,2,1,gain2,no_gain1,D,I,15,0,faces,50,50,outdoor_scenes,Stimuli/Experimental_stims/faces/erik-lucatero-d2MSDujJl2g-unsplash.jpg,Stimuli/Experimental_stims/outdoor_scenes/aleksandra-boguslawska-MS7KD9Ti7FQ-unsplash.jpg,0,1,196,1,chosen,15,0,faces,outdoor_scenes,2000,0,10,2
82,74897,0,83,2,2,0,no_gain1,gain3,I,F,24,21,body_parts,50,50,faces,Stimuli/Experimental_stims/body_parts/clay-banks-LjqARJaJotc-unsplash.jpg,Stimuli/Experimental_stims/faces/leilani-angel-K84vnnzxmTQ-unsplash.jpg,0,1,188,0,unchosen,24,21,body_parts,faces,2700,0,10,2
83,74897,0,84,2,2,0,no_gain6,gain2,G,D,1,15,outdoor_scenes,50,50,faces,Stimuli/Experimental_stims/outdoor_scenes/ashim-d-silva-S2Q5mdOrrVc-unsplash.jpg,Stimuli/Experimental_stims/faces/erik-lucatero-d2MSDujJl2g-unsplash.jpg,0,1,192,0,chosen,1,15,outdoor_scenes,faces,3600,1,10,2
84,74897,0,85,2,2,0,no_gain3,gain2,B,D,7,43,outdoor_scenes,50,50,objects,Stimuli/Experimental_stims/outdoor_scenes/petr-vysohlid-9fqwGqGLUxc-unsplash.jpg,Stimuli/Experimental_stims/objects/jonathan-greenaway-Y4hGgeiFn3s-unsplash.jpg,0,1,122,0,unchosen,7,43,outdoor_scenes,objects,1300,0,10,2
85,74897,0,86,2,2,1,gain6,no_gain1,K,I,32,24,body_parts,50,50,body_parts,Stimuli/Experimental_stims/body_parts/towfiqu-barbhuiya-3AsiVDsZnHg-unsplash.jpg,Stimuli/Experimental_stims/body_parts/clay-banks-LjqARJaJotc-unsplash.jpg,0,1,37,1,unchosen,32,24,body_parts,body_parts,3000,0,10,2
86,74897,0,87,2,2,0,no_gain5,gain4,E,C,38,9,objects,50,50,outdoor_scenes,Stimuli/Experimental_stims/objects/art-lasovsky-8XddFc6NkBY-unsplash.jpg,Stimuli/Experimental_stims/outdoor_scenes/sergey-pesterev-y-b_FOmJXdg-unsplash.jpg,0,1,178,0,unchosen,38,9,objects,outdoor_scenes,2600,0,10,2
87,74897,0,88,2,2,0,no_gain2,gain3,J,F,40,33,objects,50,50,body_parts,Stimuli/Experimental_stims/objects/fabian-blank-pElSkGRA2NU-unsplash.jpg,Stimuli/Experimental_stims/body_parts/tucker-good-36skLT5jZcc-unsplash.jpg,0,1,127,0,chosen,40,33,objects,body_parts,1100,0,10,2
88,74897,0,89,2,2,0,no_gain1,gain1,I,H,0,4,outdoor_scenes,50,50,outdoor_scenes,Stimuli/Experimental_stims/outdoor_scenes/aleksandra-boguslawska-MS7KD9Ti7FQ-unsplash.jpg,Stimuli/Experimental_stims/outdoor_scenes/jarrett-kow-1ZOyYPOBn7I-unsplash.jpg,0,1,30,0,chosen,0,4,outdoor_scenes,outdoor_scenes,1400,0,10,2
89,74897,0,90,2,2,0,no_gain5,gain2,E,D,38,43,objects,50,50,objects,Stimuli/Experimental_stims/objects/art-lasovsky-8XddFc6NkBY-unsplash.jpg,Stimuli/Experimental_stims/objects/jonathan-greenaway-Y4hGgeiFn3s-unsplash.jpg,0,1,67,0,unchosen,38,43,objects,objects,1100,0,10,2
90,74897,0,91,2,2,1,gain3,no_gain3,F,B,21,7,faces,50,50,outdoor_scenes,Stimuli/Experimental_stims/faces/leilani-angel-K84vnnzxmTQ-unsplash.jpg,Stimuli/Experimental_stims/outdoor_scenes/petr-vysohlid-9fqwGqGLUxc-unsplash.jpg,0,1,175,1,unchosen,21,7,faces,outdoor_scenes,2900,0,10,2
91,74897,0,92,2,2,1,gain5,no_gain4,A,L,37,22,objects,50,50,faces,Stimuli/Experimental_stims/objects/alexander-andrews-VLGWE_SumrA-unsplash.jpg,Stimuli/Experimental_stims/faces/ravi-patel-VMGAbeeJTKo-unsplash.jpg,0,1,131,1,chosen,37,22,objects,faces,1600,0,10,2
92,74897,0,93,2,2,1,gain2,no_gain6,D,G,43,46,objects,50,50,objects,Stimuli/Experimental_stims/objects/jonathan-greenaway-Y4hGgeiFn3s-unsplash.jpg,Stimuli/Experimental_stims/objects/mockup-graphics-PNsj6RiHAF4-unsplash.jpg,0,1,249,1,unchosen,43,46,objects,objects,1500,0,10,2
93,74897,0,94,2,2,0,no_gain5,gain6,E,K,38,32,objects,50,50,body_parts,Stimuli/Experimental_stims/objects/art-lasovsky-8XddFc6NkBY-unsplash.jpg,Stimuli/Experimental_stims/body_parts/towfiqu-barbhuiya-3AsiVDsZnHg-unsplash.jpg,0,1,1040,0,unchosen,38,32,objects,body_parts,3800,1,10,2
94,74897,0,95,2,2,0,no_gain6,gain4,G,C,1,30,outdoor_scenes,50,50,body_parts,Stimuli/Experimental_stims/outdoor_scenes/ashim-d-silva-S2Q5mdOrrVc-unsplash.jpg,Stimuli/Experimental_stims/body_parts/mika-korhonen-Xodzxosar18-unsplash.jpg,0,1,179,0,chosen,1,30,outdoor_scenes,body_parts,1500,0,10,2
95,74897,0,96,2,2,1,gain5,no_gain2,A,J,5,23,outdoor_scenes,50,50,faces,Stimuli/Experimental_stims/outdoor_scenes/jeff-king-bJHWJeiHfHc-unsplash.jpg,Stimuli/Experimental_stims/faces/rikonavt-HQjfrvdTfak-unsplash.jpg,0,1,30,1,unchosen,5,23,outdoor_scenes,faces,1000,0,10,2
96,74897,0,97,2,2,1,gain4,no_gain4,C,L,9,27,outdoor_scenes,50,50,body_parts,Stimuli/Experimental_stims/outdoor_scenes/sergey-pesterev-y-b_FOmJXdg-unsplash.jpg,Stimuli/Experimental_stims/body_parts/heike-mintel-i_Gns0ELnLw-unsplash.jpg,0,1,97,1,unchosen,9,27,outdoor_scenes,body_parts,1600,0,10,2
97,74897,0,98,2,2,0,no_gain5,gain3,E,F,31,33,body_parts,50,50,body_parts,Stimuli/Experimental_stims/body_parts/sincerely-media-VN6DbKajo5s-unsplash.jpg,Stimuli/Experimental_stims/body_parts/tucker-good-36skLT5jZcc-unsplash.jpg,0,1,210,0,chosen,31,33,body_parts,body_parts,1300,0,10,2
98,74897,0,99,2,2,1,gain2,no_gain4,D,L,15,22,faces,50,50,faces,Stimuli/Experimental_stims/faces/erik-lucatero-d2MSDujJl2g-unsplash.jpg,Stimuli/Experimental_stims/faces/ravi-patel-VMGAbeeJTKo-unsplash.jpg,1,NaN,,NaN,chosen,NaN,NaN,NaN,NaN,3500,1,10,2
99,74897,0,100,2,2,0,no_gain2,gain4,J,C,40,30,objects,50,50,body_parts,Stimuli/Experimental_stims/objects/fabian-blank-pElSkGRA2NU-unsplash.jpg,Stimuli/Experimental_stims/body_parts/mika-korhonen-Xodzxosar18-unsplash.jpg,1,NaN,,NaN,chosen,NaN,NaN,NaN,NaN,2500,0,10,2
100,74897,0,101,2,2,1,gain5,no_gain6,A,G,5,46,outdoor_scenes,50,50,objects,Stimuli/Experimental_stims/outdoor_scenes/jeff-king-bJHWJeiHfHc-unsplash.jpg,Stimuli/Experimental_stims/objects/mockup-graphics-PNsj6RiHAF4-unsplash.jpg,1,NaN,,NaN,unchosen,NaN,NaN,NaN,NaN,1100,0,10,2
101,74897,0,102,2,2,1,gain3,no_gain3,F,B,33,16,body_parts,50,50,faces,Stimuli/Experimental_stims/body_parts/tucker-good-36skLT5jZcc-unsplash.jpg,Stimuli/Experimental_stims/faces/freddy-kearney-o-ioeoATbIM-unsplash.jpg,0,1,121,1,chosen,33,16,body_parts,faces,1000,0,10,2
102,74897,0,103,2,2,0,no_gain2,gain1,J,H,23,19,faces,50,50,faces,Stimuli/Experimental_stims/faces/rikonavt-HQjfrvdTfak-unsplash.jpg,Stimuli/Experimental_stims/faces/joel-mott-LaK153ghdig-unsplash.jpg,0,1,20,0,unchosen,23,19,faces,faces,2100,0,10,2
103,74897,0,104,2,2,1,gain4,no_gain4,C,L,30,22,body_parts,50,50,faces,Stimuli/Experimental_stims/body_parts/mika-korhonen-Xodzxosar18-unsplash.jpg,Stimuli/Experimental_stims/faces/ravi-patel-VMGAbeeJTKo-unsplash.jpg,0,1,95,1,chosen,30,22,body_parts,faces,1300,0,10,2
104,74897,0,105,2,2,0,no_gain2,gain4,J,C,23,9,faces,50,50,outdoor_scenes,Stimuli/Experimental_stims/faces/rikonavt-HQjfrvdTfak-unsplash.jpg,Stimuli/Experimental_stims/outdoor_scenes/sergey-pesterev-y-b_FOmJXdg-unsplash.jpg,0,1,176,0,unchosen,23,9,faces,outdoor_scenes,2000,0,10,2
105,74897,0,106,2,2,1,gain5,no_gain1,A,I,37,0,objects,50,50,outdoor_scenes,Stimuli/Experimental_stims/objects/alexander-andrews-VLGWE_SumrA-unsplash.jpg,Stimuli/Experimental_stims/outdoor_scenes/aleksandra-boguslawska-MS7KD9Ti7FQ-unsplash.jpg,0,1,182,1,chosen,37,0,objects,outdoor_scenes,3100,1,10,2
106,74897,0,107,2,2,0,no_gain6,gain3,G,F,46,21,objects,50,50,faces,Stimuli/Experimental_stims/objects/mockup-graphics-PNsj6RiHAF4-unsplash.jpg,Stimuli/Experimental_stims/faces/leilani-angel-K84vnnzxmTQ-unsplash.jpg,0,1,203,0,unchosen,46,21,objects,faces,1400,0,10,2
107,74897,0,108,2,2,1,gain6,no_gain1,K,I,39,0,objects,50,50,outdoor_scenes,Stimuli/Experimental_stims/objects/charlesdeluvio-1-nx1QR5dTE-unsplash.jpg,Stimuli/Experimental_stims/outdoor_scenes/aleksandra-boguslawska-MS7KD9Ti7FQ-unsplash.jpg,0,1,50,1,chosen,39,0,objects,outdoor_scenes,1300,0,10,2
108,74897,0,109,2,2,0,no_gain2,gain5,J,A,40,37,objects,50,50,objects,Stimuli/Experimental_stims/objects/fabian-blank-pElSkGRA2NU-unsplash.jpg,Stimuli/Experimental_stims/objects/alexander-andrews-VLGWE_SumrA-unsplash.jpg,0,1,150,0,chosen,40,37,objects,objects,1300,0,10,2
109,74897,0,110,2,2,0,no_gain5,gain5,E,A,38,5,objects,50,50,outdoor_scenes,Stimuli/Experimental_stims/objects/art-lasovsky-8XddFc6NkBY-unsplash.jpg,Stimuli/Experimental_stims/outdoor_scenes/jeff-king-bJHWJeiHfHc-unsplash.jpg,0,1,311,0,unchosen,38,5,objects,outdoor_scenes,1200,0,10,2
110,74897,0,111,2,2,0,no_gain5,gain1,E,H,38,19,objects,50,50,faces,Stimuli/Experimental_stims/objects/art-lasovsky-8XddFc6NkBY-unsplash.jpg,Stimuli/Experimental_stims/faces/joel-mott-LaK153ghdig-unsplash.jpg,0,1,72,0,unchosen,38,19,objects,faces,1300,0,10,2
111,74897,0,112,2,2,0,no_gain6,gain5,G,A,1,37,outdoor_scenes,50,50,objects,Stimuli/Experimental_stims/outdoor_scenes/ashim-d-silva-S2Q5mdOrrVc-unsplash.jpg,Stimuli/Experimental_stims/objects/alexander-andrews-VLGWE_SumrA-unsplash.jpg,0,1,71,0,chosen,1,37,outdoor_scenes,objects,1100,0,10,2
112,74897,0,113,2,2,1,gain2,no_gain2,D,J,15,40,faces,50,50,objects,Stimuli/Experimental_stims/faces/erik-lucatero-d2MSDujJl2g-unsplash.jpg,Stimuli/Experimental_stims/objects/fabian-blank-pElSkGRA2NU-unsplash.jpg,0,1,29,1,chosen,15,40,faces,objects,1900,0,10,2
113,74897,0,114,2,2,1,gain1,no_gain6,H,G,19,46,faces,50,50,objects,Stimuli/Experimental_stims/faces/joel-mott-LaK153ghdig-unsplash.jpg,Stimuli/Experimental_stims/objects/mockup-graphics-PNsj6RiHAF4-unsplash.jpg,0,1,153,1,unchosen,19,46,faces,objects,2100,0,10,2
114,74897,0,115,2,2,0,no_gain3,gain5,B,A,7,5,outdoor_scenes,50,50,outdoor_scenes,Stimuli/Experimental_stims/outdoor_scenes/petr-vysohlid-9fqwGqGLUxc-unsplash.jpg,Stimuli/Experimental_stims/outdoor_scenes/jeff-king-bJHWJeiHfHc-unsplash.jpg,0,1,106,0,unchosen,7,5,outdoor_scenes,outdoor_scenes,1400,0,10,2
115,74897,0,116,2,2,1,gain3,no_gain6,F,G,33,1,body_parts,50,50,outdoor_scenes,Stimuli/Experimental_stims/body_parts/tucker-good-36skLT5jZcc-unsplash.jpg,Stimuli/Experimental_stims/outdoor_scenes/ashim-d-silva-S2Q5mdOrrVc-unsplash.jpg,0,1,99,1,chosen,33,1,body_parts,outdoor_scenes,1100,0,10,2
116,74897,0,117,2,2,0,no_gain5,gain5,E,A,31,37,body_parts,50,50,objects,Stimuli/Experimental_stims/body_parts/sincerely-media-VN6DbKajo5s-unsplash.jpg,Stimuli/Experimental_stims/objects/alexander-andrews-VLGWE_SumrA-unsplash.jpg,0,1,461,0,chosen,31,37,body_parts,objects,1600,0,10,2
117,74897,0,118,2,2,1,gain3,no_gain4,F,L,21,27,faces,50,50,body_parts,Stimuli/Experimental_stims/faces/leilani-angel-K84vnnzxmTQ-unsplash.jpg,Stimuli/Experimental_stims/body_parts/heike-mintel-i_Gns0ELnLw-unsplash.jpg,0,1,138,1,unchosen,21,27,faces,body_parts,1300,0,10,2
118,74897,0,119,2,2,1,gain4,no_gain1,C,I,30,0,body_parts,50,50,outdoor_scenes,Stimuli/Experimental_stims/body_parts/mika-korhonen-Xodzxosar18-unsplash.jpg,Stimuli/Experimental_stims/outdoor_scenes/aleksandra-boguslawska-MS7KD9Ti7FQ-unsplash.jpg,0,1,152,1,chosen,30,0,body_parts,outdoor_scenes,2500,0,10,2
119,74897,0,120,2,2,0,no_gain4,gain2,L,D,27,43,body_parts,50,50,objects,Stimuli/Experimental_stims/body_parts/heike-mintel-i_Gns0ELnLw-unsplash.jpg,Stimuli/Experimental_stims/objects/jonathan-greenaway-Y4hGgeiFn3s-unsplash.jpg,0,1,244,0,unchosen,27,43,body_parts,objects,4300,1,10,2
120,74897,0,121,2,2,0,no_gain3,gain4,B,C,16,30,faces,50,50,body_parts,Stimuli/Experimental_stims/faces/freddy-kearney-o-ioeoATbIM-unsplash.jpg,Stimuli/Experimental_stims/body_parts/mika-korhonen-Xodzxosar18-unsplash.jpg,0,1,192,0,chosen,16,30,faces,body_parts,2400,0,10,2
121,74897,0,122,2,2,1,gain1,no_gain4,H,L,19,27,faces,50,50,body_parts,Stimuli/Experimental_stims/faces/joel-mott-LaK153ghdig-unsplash.jpg,Stimuli/Experimental_stims/body_parts/heike-mintel-i_Gns0ELnLw-unsplash.jpg,0,1,277,1,unchosen,19,27,faces,body_parts,1800,0,10,2
122,74897,0,123,2,2,1,gain6,no_gain3,K,B,39,16,objects,50,50,faces,Stimuli/Experimental_stims/objects/charlesdeluvio-1-nx1QR5dTE-unsplash.jpg,Stimuli/Experimental_stims/faces/freddy-kearney-o-ioeoATbIM-unsplash.jpg,1,NaN,,NaN,chosen,NaN,NaN,NaN,NaN,1000,0,10,2
123,74897,0,124,2,2,1,gain5,no_gain1,A,I,5,24,outdoor_scenes,50,50,body_parts,Stimuli/Experimental_stims/outdoor_scenes/jeff-king-bJHWJeiHfHc-unsplash.jpg,Stimuli/Experimental_stims/body_parts/clay-banks-LjqARJaJotc-unsplash.jpg,0,1,41,1,unchosen,5,24,outdoor_scenes,body_parts,2000,0,10,2
124,74897,0,125,2,2,1,gain3,no_gain2,F,J,21,23,faces,50,50,faces,Stimuli/Experimental_stims/faces/leilani-angel-K84vnnzxmTQ-unsplash.jpg,Stimuli/Experimental_stims/faces/rikonavt-HQjfrvdTfak-unsplash.jpg,0,1,25,1,unchosen,21,23,faces,faces,2700,0,10,2
125,74897,0,126,2,2,0,no_gain2,gain2,J,D,23,43,faces,50,50,objects,Stimuli/Experimental_stims/faces/rikonavt-HQjfrvdTfak-unsplash.jpg,Stimuli/Experimental_stims/objects/jonathan-greenaway-Y4hGgeiFn3s-unsplash.jpg,0,1,107,0,unchosen,23,43,faces,objects,2500,0,10,2
126,74897,0,127,2,2,0,no_gain4,gain1,L,H,22,4,faces,50,50,outdoor_scenes,Stimuli/Experimental_stims/faces/ravi-patel-VMGAbeeJTKo-unsplash.jpg,Stimuli/Experimental_stims/outdoor_scenes/jarrett-kow-1ZOyYPOBn7I-unsplash.jpg,0,1,70,0,chosen,22,4,faces,outdoor_scenes,1800,0,10,2
127,74897,0,128,2,2,1,gain4,no_gain6,C,G,9,46,outdoor_scenes,50,50,objects,Stimuli/Experimental_stims/outdoor_scenes/sergey-pesterev-y-b_FOmJXdg-unsplash.jpg,Stimuli/Experimental_stims/objects/mockup-graphics-PNsj6RiHAF4-unsplash.jpg,0,1,274,1,unchosen,9,46,outdoor_scenes,objects,1200,0,10,2
128,74897,0,129,2,2,0,no_gain1,gain2,I,D,24,43,body_parts,50,50,objects,Stimuli/Experimental_stims/body_parts/clay-banks-LjqARJaJotc-unsplash.jpg,Stimuli/Experimental_stims/objects/jonathan-greenaway-Y4hGgeiFn3s-unsplash.jpg,0,1,232,0,unchosen,24,43,body_parts,objects,3800,1,10,2
129,74897,0,130,2,2,1,gain1,no_gain6,H,G,4,1,outdoor_scenes,50,50,outdoor_scenes,Stimuli/Experimental_stims/outdoor_scenes/jarrett-kow-1ZOyYPOBn7I-unsplash.jpg,Stimuli/Experimental_stims/outdoor_scenes/ashim-d-silva-S2Q5mdOrrVc-unsplash.jpg,0,1,93,1,chosen,4,1,outdoor_scenes,outdoor_scenes,1300,0,10,2
130,74897,0,131,2,2,1,gain6,no_gain4,K,L,32,27,body_parts,50,50,body_parts,Stimuli/Experimental_stims/body_parts/towfiqu-barbhuiya-3AsiVDsZnHg-unsplash.jpg,Stimuli/Experimental_stims/body_parts/heike-mintel-i_Gns0ELnLw-unsplash.jpg,0,1,373,1,unchosen,32,27,body_parts,body_parts,2900,0,10,2
131,74897,0,132,2,2,0,no_gain5,gain2,E,D,31,15,body_parts,50,50,faces,Stimuli/Experimental_stims/body_parts/sincerely-media-VN6DbKajo5s-unsplash.jpg,Stimuli/Experimental_stims/faces/erik-lucatero-d2MSDujJl2g-unsplash.jpg,0,1,322,0,chosen,31,15,body_parts,faces,1200,0,10,2
132,74897,0,133,2,2,0,no_gain5,gain6,E,K,31,39,body_parts,50,50,objects,Stimuli/Experimental_stims/body_parts/sincerely-media-VN6DbKajo5s-unsplash.jpg,Stimuli/Experimental_stims/objects/charlesdeluvio-1-nx1QR5dTE-unsplash.jpg,0,1,202,0,chosen,31,39,body_parts,objects,1300,0,10,2
133,74897,0,134,2,2,0,no_gain2,gain6,J,K,23,32,faces,50,50,body_parts,Stimuli/Experimental_stims/faces/rikonavt-HQjfrvdTfak-unsplash.jpg,Stimuli/Experimental_stims/body_parts/towfiqu-barbhuiya-3AsiVDsZnHg-unsplash.jpg,0,1,247,0,unchosen,23,32,faces,body_parts,2500,0,10,2
134,74897,0,135,2,2,1,gain5,no_gain3,A,B,37,16,objects,50,50,faces,Stimuli/Experimental_stims/objects/alexander-andrews-VLGWE_SumrA-unsplash.jpg,Stimuli/Experimental_stims/faces/freddy-kearney-o-ioeoATbIM-unsplash.jpg,0,1,182,1,chosen,37,16,objects,faces,3000,0,10,2
135,74897,0,136,2,2,1,gain4,no_gain5,C,E,30,31,body_parts,50,50,body_parts,Stimuli/Experimental_stims/body_parts/mika-korhonen-Xodzxosar18-unsplash.jpg,Stimuli/Experimental_stims/body_parts/sincerely-media-VN6DbKajo5s-unsplash.jpg,0,1,177,1,chosen,30,31,body_parts,body_parts,4200,1,10,2
136,74897,0,137,2,2,0,no_gain6,gain6,G,K,46,32,objects,50,50,body_parts,Stimuli/Experimental_stims/objects/mockup-graphics-PNsj6RiHAF4-unsplash.jpg,Stimuli/Experimental_stims/body_parts/towfiqu-barbhuiya-3AsiVDsZnHg-unsplash.jpg,0,1,161,0,unchosen,46,32,objects,body_parts,1700,0,10,2
137,74897,0,138,2,2,0,no_gain3,gain1,B,H,16,4,faces,50,50,outdoor_scenes,Stimuli/Experimental_stims/faces/freddy-kearney-o-ioeoATbIM-unsplash.jpg,Stimuli/Experimental_stims/outdoor_scenes/jarrett-kow-1ZOyYPOBn7I-unsplash.jpg,0,1,152,0,chosen,16,4,faces,outdoor_scenes,1300,0,10,2
138,74897,0,139,2,2,0,no_gain2,gain1,J,H,40,4,objects,50,50,outdoor_scenes,Stimuli/Experimental_stims/objects/fabian-blank-pElSkGRA2NU-unsplash.jpg,Stimuli/Experimental_stims/outdoor_scenes/jarrett-kow-1ZOyYPOBn7I-unsplash.jpg,0,1,211,0,chosen,40,4,objects,outdoor_scenes,1100,0,10,2
139,74897,0,140,2,2,0,no_gain2,gain6,J,K,40,39,objects,50,50,objects,Stimuli/Experimental_stims/objects/fabian-blank-pElSkGRA2NU-unsplash.jpg,Stimuli/Experimental_stims/objects/charlesdeluvio-1-nx1QR5dTE-unsplash.jpg,0,1,143,0,chosen,40,39,objects,objects,1300,0,10,2
140,74897,0,141,2,2,1,gain5,no_gain4,A,L,5,27,outdoor_scenes,50,50,body_parts,Stimuli/Experimental_stims/outdoor_scenes/jeff-king-bJHWJeiHfHc-unsplash.jpg,Stimuli/Experimental_stims/body_parts/heike-mintel-i_Gns0ELnLw-unsplash.jpg,0,1,5,1,unchosen,5,27,outdoor_scenes,body_parts,1500,0,10,2
141,74897,0,142,2,2,0,no_gain5,gain1,E,H,31,4,body_parts,50,50,outdoor_scenes,Stimuli/Experimental_stims/body_parts/sincerely-media-VN6DbKajo5s-unsplash.jpg,Stimuli/Experimental_stims/outdoor_scenes/jarrett-kow-1ZOyYPOBn7I-unsplash.jpg,0,1,238,0,chosen,31,4,body_parts,outdoor_scenes,1800,0,10,2
142,74897,0,143,2,2,0,no_gain1,gain4,I,C,24,9,body_parts,50,50,outdoor_scenes,Stimuli/Experimental_stims/body_parts/clay-banks-LjqARJaJotc-unsplash.jpg,Stimuli/Experimental_stims/outdoor_scenes/sergey-pesterev-y-b_FOmJXdg-unsplash.jpg,0,1,403,0,unchosen,24,9,body_parts,outdoor_scenes,1400,0,10,2
143,74897,0,144,2,2,1,gain3,no_gain5,F,E,21,38,faces,50,50,objects,Stimuli/Experimental_stims/faces/leilani-angel-K84vnnzxmTQ-unsplash.jpg,Stimuli/Experimental_stims/objects/art-lasovsky-8XddFc6NkBY-unsplash.jpg,0,1,269,1,unchosen,21,38,faces,objects,1400,0,10,2
144,74897,0,145,2,2,0,no_gain4,gain3,L,F,22,33,faces,50,50,body_parts,Stimuli/Experimental_stims/faces/ravi-patel-VMGAbeeJTKo-unsplash.jpg,Stimuli/Experimental_stims/body_parts/tucker-good-36skLT5jZcc-unsplash.jpg,0,1,610,0,chosen,22,33,faces,body_parts,1600,0,10,2
145,74897,0,146,2,2,1,gain1,no_gain3,H,B,19,7,faces,50,50,outdoor_scenes,Stimuli/Experimental_stims/faces/joel-mott-LaK153ghdig-unsplash.jpg,Stimuli/Experimental_stims/outdoor_scenes/petr-vysohlid-9fqwGqGLUxc-unsplash.jpg,0,1,10,1,unchosen,19,7,faces,outdoor_scenes,2000,0,10,2
146,74897,0,147,2,2,0,no_gain1,gain1,I,H,24,19,body_parts,50,50,faces,Stimuli/Experimental_stims/body_parts/clay-banks-LjqARJaJotc-unsplash.jpg,Stimuli/Experimental_stims/faces/joel-mott-LaK153ghdig-unsplash.jpg,0,1,172,0,unchosen,24,19,body_parts,faces,2500,0,10,2
147,74897,0,148,2,2,1,gain2,no_gain3,D,B,15,16,faces,50,50,faces,Stimuli/Experimental_stims/faces/erik-lucatero-d2MSDujJl2g-unsplash.jpg,Stimuli/Experimental_stims/faces/freddy-kearney-o-ioeoATbIM-unsplash.jpg,0,1,21,1,chosen,15,16,faces,faces,3300,1,10,2
148,74897,0,149,3,3,0,no_gain1,gain2,I,D,24,43,body_parts,50,50,objects,Stimuli/Experimental_stims/body_parts/clay-banks-LjqARJaJotc-unsplash.jpg,Stimuli/Experimental_stims/objects/jonathan-greenaway-Y4hGgeiFn3s-unsplash.jpg,0,1,1323,0,unchosen,24,43,body_parts,objects,2200,0,10,2
149,74897,0,150,3,3,1,gain2,no_gain4,D,L,43,27,objects,50,50,body_parts,Stimuli/Experimental_stims/objects/jonathan-greenaway-Y4hGgeiFn3s-unsplash.jpg,Stimuli/Experimental_stims/body_parts/heike-mintel-i_Gns0ELnLw-unsplash.jpg,0,1,4,1,unchosen,43,27,objects,body_parts,1200,0,10,2
150,74897,0,151,3,3,0,no_gain5,gain1,E,H,38,19,objects,50,50,faces,Stimuli/Experimental_stims/objects/art-lasovsky-8XddFc6NkBY-unsplash.jpg,Stimuli/Experimental_stims/faces/joel-mott-LaK153ghdig-unsplash.jpg,0,1,358,0,unchosen,38,19,objects,faces,1700,0,10,2
151,74897,0,152,3,3,0,no_gain6,gain4,G,C,1,30,outdoor_scenes,50,50,body_parts,Stimuli/Experimental_stims/outdoor_scenes/ashim-d-silva-S2Q5mdOrrVc-unsplash.jpg,Stimuli/Experimental_stims/body_parts/mika-korhonen-Xodzxosar18-unsplash.jpg,0,1,151,0,chosen,1,30,outdoor_scenes,body_parts,1100,0,10,2
152,74897,0,153,3,3,0,no_gain1,gain3,I,F,0,33,outdoor_scenes,50,50,body_parts,Stimuli/Experimental_stims/outdoor_scenes/aleksandra-boguslawska-MS7KD9Ti7FQ-unsplash.jpg,Stimuli/Experimental_stims/body_parts/tucker-good-36skLT5jZcc-unsplash.jpg,0,1,110,0,chosen,0,33,outdoor_scenes,body_parts,1000,0,10,2
153,74897,0,154,3,3,1,gain4,no_gain3,C,B,9,7,outdoor_scenes,50,50,outdoor_scenes,Stimuli/Experimental_stims/outdoor_scenes/sergey-pesterev-y-b_FOmJXdg-unsplash.jpg,Stimuli/Experimental_stims/outdoor_scenes/petr-vysohlid-9fqwGqGLUxc-unsplash.jpg,0,1,190,1,unchosen,9,7,outdoor_scenes,outdoor_scenes,1900,0,10,2
154,74897,0,155,3,3,1,gain3,no_gain3,F,B,21,7,faces,50,50,outdoor_scenes,Stimuli/Experimental_stims/faces/leilani-angel-K84vnnzxmTQ-unsplash.jpg,Stimuli/Experimental_stims/outdoor_scenes/petr-vysohlid-9fqwGqGLUxc-unsplash.jpg,0,1,506,1,unchosen,21,7,faces,outdoor_scenes,4700,1,10,2
155,74897,0,156,3,3,1,gain5,no_gain5,A,E,37,31,objects,50,50,body_parts,Stimuli/Experimental_stims/objects/alexander-andrews-VLGWE_SumrA-unsplash.jpg,Stimuli/Experimental_stims/body_parts/sincerely-media-VN6DbKajo5s-unsplash.jpg,0,1,74,1,chosen,37,31,objects,body_parts,2400,0,10,2
156,74897,0,157,3,3,1,gain6,no_gain3,K,B,32,7,body_parts,50,50,outdoor_scenes,Stimuli/Experimental_stims/body_parts/towfiqu-barbhuiya-3AsiVDsZnHg-unsplash.jpg,Stimuli/Experimental_stims/outdoor_scenes/petr-vysohlid-9fqwGqGLUxc-unsplash.jpg,0,1,248,1,unchosen,32,7,body_parts,outdoor_scenes,1900,0,10,2
157,74897,0,158,3,3,1,gain1,no_gain4,H,L,4,22,outdoor_scenes,50,50,faces,Stimuli/Experimental_stims/outdoor_scenes/jarrett-kow-1ZOyYPOBn7I-unsplash.jpg,Stimuli/Experimental_stims/faces/ravi-patel-VMGAbeeJTKo-unsplash.jpg,0,1,188,1,chosen,4,22,outdoor_scenes,faces,1000,0,10,2
158,74897,0,159,3,3,0,no_gain2,gain6,J,K,40,39,objects,50,50,objects,Stimuli/Experimental_stims/objects/fabian-blank-pElSkGRA2NU-unsplash.jpg,Stimuli/Experimental_stims/objects/charlesdeluvio-1-nx1QR5dTE-unsplash.jpg,0,1,143,0,chosen,40,39,objects,objects,1800,0,10,2
159,74897,0,160,3,3,1,gain4,no_gain4,C,L,9,27,outdoor_scenes,50,50,body_parts,Stimuli/Experimental_stims/outdoor_scenes/sergey-pesterev-y-b_FOmJXdg-unsplash.jpg,Stimuli/Experimental_stims/body_parts/heike-mintel-i_Gns0ELnLw-unsplash.jpg,0,1,802,1,unchosen,9,27,outdoor_scenes,body_parts,1800,0,10,2
160,74897,0,161,3,3,0,no_gain4,gain3,L,F,27,21,body_parts,50,50,faces,Stimuli/Experimental_stims/body_parts/heike-mintel-i_Gns0ELnLw-unsplash.jpg,Stimuli/Experimental_stims/faces/leilani-angel-K84vnnzxmTQ-unsplash.jpg,0,1,223,0,unchosen,27,21,body_parts,faces,4700,1,10,2
161,74897,0,162,3,3,0,no_gain1,gain4,I,C,24,9,body_parts,50,50,outdoor_scenes,Stimuli/Experimental_stims/body_parts/clay-banks-LjqARJaJotc-unsplash.jpg,Stimuli/Experimental_stims/outdoor_scenes/sergey-pesterev-y-b_FOmJXdg-unsplash.jpg,0,1,126,0,unchosen,24,9,body_parts,outdoor_scenes,1300,0,10,2
162,74897,0,163,3,3,1,gain2,no_gain5,D,E,15,31,faces,50,50,body_parts,Stimuli/Experimental_stims/faces/erik-lucatero-d2MSDujJl2g-unsplash.jpg,Stimuli/Experimental_stims/body_parts/sincerely-media-VN6DbKajo5s-unsplash.jpg,0,1,64,1,chosen,15,31,faces,body_parts,1200,0,10,2
163,74897,0,164,3,3,0,no_gain3,gain4,B,C,16,30,faces,50,50,body_parts,Stimuli/Experimental_stims/faces/freddy-kearney-o-ioeoATbIM-unsplash.jpg,Stimuli/Experimental_stims/body_parts/mika-korhonen-Xodzxosar18-unsplash.jpg,0,1,531,0,chosen,16,30,faces,body_parts,1600,0,10,2
164,74897,0,165,3,3,0,no_gain2,gain5,J,A,23,5,faces,50,50,outdoor_scenes,Stimuli/Experimental_stims/faces/rikonavt-HQjfrvdTfak-unsplash.jpg,Stimuli/Experimental_stims/outdoor_scenes/jeff-king-bJHWJeiHfHc-unsplash.jpg,0,1,22,0,unchosen,23,5,faces,outdoor_scenes,1200,0,10,2
165,74897,0,166,3,3,1,gain6,no_gain5,K,E,32,38,body_parts,50,50,objects,Stimuli/Experimental_stims/body_parts/towfiqu-barbhuiya-3AsiVDsZnHg-unsplash.jpg,Stimuli/Experimental_stims/objects/art-lasovsky-8XddFc6NkBY-unsplash.jpg,0,1,8,1,unchosen,32,38,body_parts,objects,1100,0,10,2
166,74897,0,167,3,3,0,no_gain6,gain3,G,F,1,33,outdoor_scenes,50,50,body_parts,Stimuli/Experimental_stims/outdoor_scenes/ashim-d-silva-S2Q5mdOrrVc-unsplash.jpg,Stimuli/Experimental_stims/body_parts/tucker-good-36skLT5jZcc-unsplash.jpg,0,1,139,0,chosen,1,33,outdoor_scenes,body_parts,3100,1,10,2
167,74897,0,168,3,3,0,no_gain5,gain3,E,F,38,21,objects,50,50,faces,Stimuli/Experimental_stims/objects/art-lasovsky-8XddFc6NkBY-unsplash.jpg,Stimuli/Experimental_stims/faces/leilani-angel-K84vnnzxmTQ-unsplash.jpg,0,1,287,0,unchosen,38,21,objects,faces,1500,0,10,2
168,74897,0,169,3,3,0,no_gain4,gain3,L,F,22,33,faces,50,50,body_parts,Stimuli/Experimental_stims/faces/ravi-patel-VMGAbeeJTKo-unsplash.jpg,Stimuli/Experimental_stims/body_parts/tucker-good-36skLT5jZcc-unsplash.jpg,0,1,255,0,chosen,22,33,faces,body_parts,1000,0,10,2
169,74897,0,170,3,3,0,no_gain5,gain2,E,D,38,43,objects,50,50,objects,Stimuli/Experimental_stims/objects/art-lasovsky-8XddFc6NkBY-unsplash.jpg,Stimuli/Experimental_stims/objects/jonathan-greenaway-Y4hGgeiFn3s-unsplash.jpg,0,1,79,0,unchosen,38,43,objects,objects,1500,0,10,2
170,74897,0,171,3,3,0,no_gain3,gain2,B,D,16,15,faces,50,50,faces,Stimuli/Experimental_stims/faces/freddy-kearney-o-ioeoATbIM-unsplash.jpg,Stimuli/Experimental_stims/faces/erik-lucatero-d2MSDujJl2g-unsplash.jpg,0,1,29,0,chosen,16,15,faces,faces,1400,0,10,2
171,74897,0,172,3,3,1,gain1,no_gain2,H,J,4,40,outdoor_scenes,50,50,objects,Stimuli/Experimental_stims/outdoor_scenes/jarrett-kow-1ZOyYPOBn7I-unsplash.jpg,Stimuli/Experimental_stims/objects/fabian-blank-pElSkGRA2NU-unsplash.jpg,0,1,141,1,chosen,4,40,outdoor_scenes,objects,3500,1,10,2
172,74897,0,173,3,3,0,no_gain4,gain2,L,D,22,15,faces,50,50,faces,Stimuli/Experimental_stims/faces/ravi-patel-VMGAbeeJTKo-unsplash.jpg,Stimuli/Experimental_stims/faces/erik-lucatero-d2MSDujJl2g-unsplash.jpg,0,1,43,0,chosen,22,15,faces,faces,1600,0,10,2
173,74897,0,174,3,3,0,no_gain4,gain5,L,A,27,5,body_parts,50,50,outdoor_scenes,Stimuli/Experimental_stims/body_parts/heike-mintel-i_Gns0ELnLw-unsplash.jpg,Stimuli/Experimental_stims/outdoor_scenes/jeff-king-bJHWJeiHfHc-unsplash.jpg,0,1,5,0,unchosen,27,5,body_parts,outdoor_scenes,2200,0,10,2
174,74897,0,175,3,3,0,no_gain3,gain2,B,D,7,43,outdoor_scenes,50,50,objects,Stimuli/Experimental_stims/outdoor_scenes/petr-vysohlid-9fqwGqGLUxc-unsplash.jpg,Stimuli/Experimental_stims/objects/jonathan-greenaway-Y4hGgeiFn3s-unsplash.jpg,0,1,271,0,unchosen,7,43,outdoor_scenes,objects,1200,0,10,2
175,74897,0,176,3,3,1,gain2,no_gain2,D,J,43,23,objects,50,50,faces,Stimuli/Experimental_stims/objects/jonathan-greenaway-Y4hGgeiFn3s-unsplash.jpg,Stimuli/Experimental_stims/faces/rikonavt-HQjfrvdTfak-unsplash.jpg,0,1,105,1,unchosen,43,23,objects,faces,1900,0,10,2
176,74897,0,177,3,3,0,no_gain6,gain5,G,A,1,37,outdoor_scenes,50,50,objects,Stimuli/Experimental_stims/outdoor_scenes/ashim-d-silva-S2Q5mdOrrVc-unsplash.jpg,Stimuli/Experimental_stims/objects/alexander-andrews-VLGWE_SumrA-unsplash.jpg,0,1,175,0,chosen,1,37,outdoor_scenes,objects,2000,0,10,2
177,74897,0,178,3,3,1,gain6,no_gain1,K,I,39,0,objects,50,50,outdoor_scenes,Stimuli/Experimental_stims/objects/charlesdeluvio-1-nx1QR5dTE-unsplash.jpg,Stimuli/Experimental_stims/outdoor_scenes/aleksandra-boguslawska-MS7KD9Ti7FQ-unsplash.jpg,0,1,69,1,chosen,39,0,objects,outdoor_scenes,1800,0,10,2
178,74897,0,179,3,3,0,no_gain1,gain2,I,D,0,15,outdoor_scenes,50,50,faces,Stimuli/Experimental_stims/outdoor_scenes/aleksandra-boguslawska-MS7KD9Ti7FQ-unsplash.jpg,Stimuli/Experimental_stims/faces/erik-lucatero-d2MSDujJl2g-unsplash.jpg,0,1,2,0,chosen,0,15,outdoor_scenes,faces,2200,0,10,2
179,74897,0,180,3,3,0,no_gain2,gain3,J,F,23,21,faces,50,50,faces,Stimuli/Experimental_stims/faces/rikonavt-HQjfrvdTfak-unsplash.jpg,Stimuli/Experimental_stims/faces/leilani-angel-K84vnnzxmTQ-unsplash.jpg,0,1,49,0,unchosen,23,21,faces,faces,2300,0,10,2
180,74897,0,181,3,3,1,gain6,no_gain3,K,B,39,16,objects,50,50,faces,Stimuli/Experimental_stims/objects/charlesdeluvio-1-nx1QR5dTE-unsplash.jpg,Stimuli/Experimental_stims/faces/freddy-kearney-o-ioeoATbIM-unsplash.jpg,0,1,269,1,chosen,39,16,objects,faces,4300,1,10,2
181,74897,0,182,3,3,1,gain5,no_gain3,A,B,37,16,objects,50,50,faces,Stimuli/Experimental_stims/objects/alexander-andrews-VLGWE_SumrA-unsplash.jpg,Stimuli/Experimental_stims/faces/freddy-kearney-o-ioeoATbIM-unsplash.jpg,0,1,140,1,chosen,37,16,objects,faces,1600,0,10,2
182,74897,0,183,3,3,0,no_gain2,gain4,J,C,23,9,faces,50,50,outdoor_scenes,Stimuli/Experimental_stims/faces/rikonavt-HQjfrvdTfak-unsplash.jpg,Stimuli/Experimental_stims/outdoor_scenes/sergey-pesterev-y-b_FOmJXdg-unsplash.jpg,0,1,123,0,unchosen,23,9,faces,outdoor_scenes,1600,0,10,2
183,74897,0,184,3,3,1,gain3,no_gain1,F,I,21,24,faces,50,50,body_parts,Stimuli/Experimental_stims/faces/leilani-angel-K84vnnzxmTQ-unsplash.jpg,Stimuli/Experimental_stims/body_parts/clay-banks-LjqARJaJotc-unsplash.jpg,0,1,1053,1,unchosen,21,24,faces,body_parts,1100,0,10,2
184,74897,0,185,3,3,1,gain6,no_gain6,K,G,39,1,objects,50,50,outdoor_scenes,Stimuli/Experimental_stims/objects/charlesdeluvio-1-nx1QR5dTE-unsplash.jpg,Stimuli/Experimental_stims/outdoor_scenes/ashim-d-silva-S2Q5mdOrrVc-unsplash.jpg,0,1,137,1,chosen,39,1,objects,outdoor_scenes,1000,0,10,2
185,74897,0,186,3,3,0,no_gain1,gain5,I,A,0,37,outdoor_scenes,50,50,objects,Stimuli/Experimental_stims/outdoor_scenes/aleksandra-boguslawska-MS7KD9Ti7FQ-unsplash.jpg,Stimuli/Experimental_stims/objects/alexander-andrews-VLGWE_SumrA-unsplash.jpg,0,1,81,0,chosen,0,37,outdoor_scenes,objects,1000,0,10,2
186,74897,0,187,3,3,0,no_gain1,gain5,I,A,24,5,body_parts,50,50,outdoor_scenes,Stimuli/Experimental_stims/body_parts/clay-banks-LjqARJaJotc-unsplash.jpg,Stimuli/Experimental_stims/outdoor_scenes/jeff-king-bJHWJeiHfHc-unsplash.jpg,0,1,337,0,unchosen,24,5,body_parts,outdoor_scenes,3000,1,10,2
187,74897,0,188,3,3,1,gain4,no_gain1,C,I,30,0,body_parts,50,50,outdoor_scenes,Stimuli/Experimental_stims/body_parts/mika-korhonen-Xodzxosar18-unsplash.jpg,Stimuli/Experimental_stims/outdoor_scenes/aleksandra-boguslawska-MS7KD9Ti7FQ-unsplash.jpg,0,1,323,1,chosen,30,0,body_parts,outdoor_scenes,1000,0,10,2
188,74897,0,189,3,3,1,gain3,no_gain3,F,B,33,16,body_parts,50,50,faces,Stimuli/Experimental_stims/body_parts/tucker-good-36skLT5jZcc-unsplash.jpg,Stimuli/Experimental_stims/faces/freddy-kearney-o-ioeoATbIM-unsplash.jpg,0,1,402,1,chosen,33,16,body_parts,faces,1600,0,10,2
189,74897,0,190,3,3,0,no_gain2,gain5,J,A,40,37,objects,50,50,objects,Stimuli/Experimental_stims/objects/fabian-blank-pElSkGRA2NU-unsplash.jpg,Stimuli/Experimental_stims/objects/alexander-andrews-VLGWE_SumrA-unsplash.jpg,0,1,137,0,chosen,40,37,objects,objects,1500,0,10,2
190,74897,0,191,3,3,0,no_gain1,gain6,I,K,24,32,body_parts,50,50,body_parts,Stimuli/Experimental_stims/body_parts/clay-banks-LjqARJaJotc-unsplash.jpg,Stimuli/Experimental_stims/body_parts/towfiqu-barbhuiya-3AsiVDsZnHg-unsplash.jpg,0,1,351,0,unchosen,24,32,body_parts,body_parts,1700,0,10,2
191,74897,0,192,3,3,1,gain5,no_gain6,A,G,5,46,outdoor_scenes,50,50,objects,Stimuli/Experimental_stims/outdoor_scenes/jeff-king-bJHWJeiHfHc-unsplash.jpg,Stimuli/Experimental_stims/objects/mockup-graphics-PNsj6RiHAF4-unsplash.jpg,0,1,359,1,unchosen,5,46,outdoor_scenes,objects,1300,0,10,2
192,74897,0,193,3,3,0,no_gain5,gain4,E,C,38,9,objects,50,50,outdoor_scenes,Stimuli/Experimental_stims/objects/art-lasovsky-8XddFc6NkBY-unsplash.jpg,Stimuli/Experimental_stims/outdoor_scenes/sergey-pesterev-y-b_FOmJXdg-unsplash.jpg,0,1,517,0,unchosen,38,9,objects,outdoor_scenes,1300,0,10,2
193,74897,0,194,3,3,1,gain1,no_gain5,H,E,4,31,outdoor_scenes,50,50,body_parts,Stimuli/Experimental_stims/outdoor_scenes/jarrett-kow-1ZOyYPOBn7I-unsplash.jpg,Stimuli/Experimental_stims/body_parts/sincerely-media-VN6DbKajo5s-unsplash.jpg,0,1,53,1,chosen,4,31,outdoor_scenes,body_parts,3600,1,10,2
194,74897,0,195,3,3,1,gain6,no_gain4,K,L,32,27,body_parts,50,50,body_parts,Stimuli/Experimental_stims/body_parts/towfiqu-barbhuiya-3AsiVDsZnHg-unsplash.jpg,Stimuli/Experimental_stims/body_parts/heike-mintel-i_Gns0ELnLw-unsplash.jpg,0,1,185,1,unchosen,32,27,body_parts,body_parts,2100,0,10,2
195,74897,0,196,3,3,1,gain1,no_gain1,H,I,4,0,outdoor_scenes,50,50,outdoor_scenes,Stimuli/Experimental_stims/outdoor_scenes/jarrett-kow-1ZOyYPOBn7I-unsplash.jpg,Stimuli/Experimental_stims/outdoor_scenes/aleksandra-boguslawska-MS7KD9Ti7FQ-unsplash.jpg,0,1,248,1,chosen,4,0,outdoor_scenes,outdoor_scenes,1600,0,10,2
196,74897,0,197,3,3,1,gain4,no_gain6,C,G,9,46,outdoor_scenes,50,50,objects,Stimuli/Experimental_stims/outdoor_scenes/sergey-pesterev-y-b_FOmJXdg-unsplash.jpg,Stimuli/Experimental_stims/objects/mockup-graphics-PNsj6RiHAF4-unsplash.jpg,0,1,40,1,unchosen,9,46,outdoor_scenes,objects,1800,0,10,2
197,74897,0,198,3,3,1,gain3,no_gain6,F,G,21,46,faces,50,50,objects,Stimuli/Experimental_stims/faces/leilani-angel-K84vnnzxmTQ-unsplash.jpg,Stimuli/Experimental_stims/objects/mockup-graphics-PNsj6RiHAF4-unsplash.jpg,0,1,175,1,unchosen,21,46,faces,objects,1600,0,10,2
198,74897,0,199,3,3,1,gain1,no_gain3,H,B,4,16,outdoor_scenes,50,50,faces,Stimuli/Experimental_stims/outdoor_scenes/jarrett-kow-1ZOyYPOBn7I-unsplash.jpg,Stimuli/Experimental_stims/faces/freddy-kearney-o-ioeoATbIM-unsplash.jpg,0,1,170,1,chosen,4,16,outdoor_scenes,faces,3100,1,10,2
199,74897,0,200,3,3,0,no_gain5,gain4,E,C,31,30,body_parts,50,50,body_parts,Stimuli/Experimental_stims/body_parts/sincerely-media-VN6DbKajo5s-unsplash.jpg,Stimuli/Experimental_stims/body_parts/mika-korhonen-Xodzxosar18-unsplash.jpg,0,1,344,0,chosen,31,30,body_parts,body_parts,2500,0,10,2
200,74897,0,201,3,3,0,no_gain1,gain1,I,H,24,19,body_parts,50,50,faces,Stimuli/Experimental_stims/body_parts/clay-banks-LjqARJaJotc-unsplash.jpg,Stimuli/Experimental_stims/faces/joel-mott-LaK153ghdig-unsplash.jpg,0,1,370,0,unchosen,24,19,body_parts,faces,2000,0,10,2
201,74897,0,202,3,3,0,no_gain4,gain4,L,C,22,30,faces,50,50,body_parts,Stimuli/Experimental_stims/faces/ravi-patel-VMGAbeeJTKo-unsplash.jpg,Stimuli/Experimental_stims/body_parts/mika-korhonen-Xodzxosar18-unsplash.jpg,0,1,171,0,chosen,22,30,faces,body_parts,2100,0,10,2
202,74897,0,203,3,3,1,gain3,no_gain5,F,E,33,31,body_parts,50,50,body_parts,Stimuli/Experimental_stims/body_parts/tucker-good-36skLT5jZcc-unsplash.jpg,Stimuli/Experimental_stims/body_parts/sincerely-media-VN6DbKajo5s-unsplash.jpg,0,1,610,1,chosen,33,31,body_parts,body_parts,1200,0,10,2
203,74897,0,204,3,3,1,gain1,no_gain6,H,G,19,46,faces,50,50,objects,Stimuli/Experimental_stims/faces/joel-mott-LaK153ghdig-unsplash.jpg,Stimuli/Experimental_stims/objects/mockup-graphics-PNsj6RiHAF4-unsplash.jpg,0,1,228,1,unchosen,19,46,faces,objects,3300,1,10,2
204,74897,0,205,3,3,1,gain3,no_gain2,F,J,33,40,body_parts,50,50,objects,Stimuli/Experimental_stims/body_parts/tucker-good-36skLT5jZcc-unsplash.jpg,Stimuli/Experimental_stims/objects/fabian-blank-pElSkGRA2NU-unsplash.jpg,0,1,437,1,chosen,33,40,body_parts,objects,2100,0,10,2
205,74897,0,206,3,3,0,no_gain4,gain5,L,A,22,37,faces,50,50,objects,Stimuli/Experimental_stims/faces/ravi-patel-VMGAbeeJTKo-unsplash.jpg,Stimuli/Experimental_stims/objects/alexander-andrews-VLGWE_SumrA-unsplash.jpg,0,1,229,0,chosen,22,37,faces,objects,2100,0,10,2
206,74897,0,207,3,3,1,gain2,no_gain6,D,G,15,1,faces,50,50,outdoor_scenes,Stimuli/Experimental_stims/faces/erik-lucatero-d2MSDujJl2g-unsplash.jpg,Stimuli/Experimental_stims/outdoor_scenes/ashim-d-silva-S2Q5mdOrrVc-unsplash.jpg,0,1,338,1,chosen,15,1,faces,outdoor_scenes,2600,0,10,2
207,74897,0,208,3,3,1,gain1,no_gain2,H,J,19,23,faces,50,50,faces,Stimuli/Experimental_stims/faces/joel-mott-LaK153ghdig-unsplash.jpg,Stimuli/Experimental_stims/faces/rikonavt-HQjfrvdTfak-unsplash.jpg,0,1,306,1,unchosen,19,23,faces,faces,2800,0,10,2
208,74897,0,209,3,3,1,gain1,no_gain4,H,L,19,27,faces,50,50,body_parts,Stimuli/Experimental_stims/faces/joel-mott-LaK153ghdig-unsplash.jpg,Stimuli/Experimental_stims/body_parts/heike-mintel-i_Gns0ELnLw-unsplash.jpg,0,1,825,1,unchosen,19,27,faces,body_parts,2100,0,10,2
209,74897,0,210,3,3,0,no_gain6,gain1,G,H,1,4,outdoor_scenes,50,50,outdoor_scenes,Stimuli/Experimental_stims/outdoor_scenes/ashim-d-silva-S2Q5mdOrrVc-unsplash.jpg,Stimuli/Experimental_stims/outdoor_scenes/jarrett-kow-1ZOyYPOBn7I-unsplash.jpg,0,1,36,0,chosen,1,4,outdoor_scenes,outdoor_scenes,1300,0,10,2
210,74897,0,211,3,3,0,no_gain5,gain6,E,K,31,39,body_parts,50,50,objects,Stimuli/Experimental_stims/body_parts/sincerely-media-VN6DbKajo5s-unsplash.jpg,Stimuli/Experimental_stims/objects/charlesdeluvio-1-nx1QR5dTE-unsplash.jpg,0,1,16,0,chosen,31,39,body_parts,objects,3900,1,10,2
211,74897,0,212,3,3,0,no_gain2,gain6,J,K,23,32,faces,50,50,body_parts,Stimuli/Experimental_stims/faces/rikonavt-HQjfrvdTfak-unsplash.jpg,Stimuli/Experimental_stims/body_parts/towfiqu-barbhuiya-3AsiVDsZnHg-unsplash.jpg,0,1,79,0,unchosen,23,32,faces,body_parts,1600,0,10,2
212,74897,0,213,3,3,1,gain4,no_gain2,C,J,30,40,body_parts,50,50,objects,Stimuli/Experimental_stims/body_parts/mika-korhonen-Xodzxosar18-unsplash.jpg,Stimuli/Experimental_stims/objects/fabian-blank-pElSkGRA2NU-unsplash.jpg,0,1,232,1,chosen,30,40,body_parts,objects,1300,0,10,2
213,74897,0,214,3,3,0,no_gain3,gain5,B,A,7,5,outdoor_scenes,50,50,outdoor_scenes,Stimuli/Experimental_stims/outdoor_scenes/petr-vysohlid-9fqwGqGLUxc-unsplash.jpg,Stimuli/Experimental_stims/outdoor_scenes/jeff-king-bJHWJeiHfHc-unsplash.jpg,0,1,70,0,unchosen,7,5,outdoor_scenes,outdoor_scenes,1700,0,10,2
214,74897,0,215,3,3,1,gain2,no_gain6,D,G,43,46,objects,50,50,objects,Stimuli/Experimental_stims/objects/jonathan-greenaway-Y4hGgeiFn3s-unsplash.jpg,Stimuli/Experimental_stims/objects/mockup-graphics-PNsj6RiHAF4-unsplash.jpg,0,1,454,1,unchosen,43,46,objects,objects,1600,0,10,2
215,74897,0,216,3,3,0,no_gain4,gain6,L,K,22,39,faces,50,50,objects,Stimuli/Experimental_stims/faces/ravi-patel-VMGAbeeJTKo-unsplash.jpg,Stimuli/Experimental_stims/objects/charlesdeluvio-1-nx1QR5dTE-unsplash.jpg,0,1,410,0,chosen,22,39,faces,objects,3600,1,10,2
216,74897,0,217,3,3,1,gain5,no_gain5,A,E,5,38,outdoor_scenes,50,50,objects,Stimuli/Experimental_stims/outdoor_scenes/jeff-king-bJHWJeiHfHc-unsplash.jpg,Stimuli/Experimental_stims/objects/art-lasovsky-8XddFc6NkBY-unsplash.jpg,0,1,55,1,unchosen,5,38,outdoor_scenes,objects,2700,0,10,2
217,74897,0,218,3,3,1,gain2,no_gain2,D,J,15,40,faces,50,50,objects,Stimuli/Experimental_stims/faces/erik-lucatero-d2MSDujJl2g-unsplash.jpg,Stimuli/Experimental_stims/objects/fabian-blank-pElSkGRA2NU-unsplash.jpg,0,1,431,1,chosen,15,40,faces,objects,2800,0,10,2
218,74897,0,219,3,3,0,no_gain6,gain6,G,K,46,32,objects,50,50,body_parts,Stimuli/Experimental_stims/objects/mockup-graphics-PNsj6RiHAF4-unsplash.jpg,Stimuli/Experimental_stims/body_parts/towfiqu-barbhuiya-3AsiVDsZnHg-unsplash.jpg,0,1,264,0,unchosen,46,32,objects,body_parts,2800,0,10,2
219,74897,0,220,3,3,1,gain1,no_gain3,H,B,19,7,faces,50,50,outdoor_scenes,Stimuli/Experimental_stims/faces/joel-mott-LaK153ghdig-unsplash.jpg,Stimuli/Experimental_stims/outdoor_scenes/petr-vysohlid-9fqwGqGLUxc-unsplash.jpg,0,1,29,1,unchosen,19,7,faces,outdoor_scenes,1100,0,10,2
220,74897,0,221,4,4,0,no_gain6,gain2,G,D,1,15,outdoor_scenes,50,50,faces,Stimuli/Experimental_stims/outdoor_scenes/ashim-d-silva-S2Q5mdOrrVc-unsplash.jpg,Stimuli/Experimental_stims/faces/erik-lucatero-d2MSDujJl2g-unsplash.jpg,0,1,716,0,chosen,1,15,outdoor_scenes,faces,4200,1,9,2
221,74897,0,222,4,4,1,gain4,no_gain2,C,J,9,23,outdoor_scenes,50,50,faces,Stimuli/Experimental_stims/outdoor_scenes/sergey-pesterev-y-b_FOmJXdg-unsplash.jpg,Stimuli/Experimental_stims/faces/rikonavt-HQjfrvdTfak-unsplash.jpg,0,1,96,1,unchosen,9,23,outdoor_scenes,faces,2400,0,9,2
222,74897,0,223,4,4,1,gain2,no_gain1,D,I,15,0,faces,50,50,outdoor_scenes,Stimuli/Experimental_stims/faces/erik-lucatero-d2MSDujJl2g-unsplash.jpg,Stimuli/Experimental_stims/outdoor_scenes/aleksandra-boguslawska-MS7KD9Ti7FQ-unsplash.jpg,0,1,135,1,chosen,15,0,faces,outdoor_scenes,1200,0,9,2
223,74897,0,224,4,4,0,no_gain4,gain4,L,C,22,30,faces,50,50,body_parts,Stimuli/Experimental_stims/faces/ravi-patel-VMGAbeeJTKo-unsplash.jpg,Stimuli/Experimental_stims/body_parts/mika-korhonen-Xodzxosar18-unsplash.jpg,0,1,153,0,chosen,22,30,faces,body_parts,1400,0,9,2
224,74897,0,225,4,4,0,no_gain4,gain6,L,K,27,32,body_parts,50,50,body_parts,Stimuli/Experimental_stims/body_parts/heike-mintel-i_Gns0ELnLw-unsplash.jpg,Stimuli/Experimental_stims/body_parts/towfiqu-barbhuiya-3AsiVDsZnHg-unsplash.jpg,0,1,98,0,unchosen,27,32,body_parts,body_parts,1800,0,9,2
225,74897,0,226,4,4,0,no_gain4,gain5,L,A,27,5,body_parts,50,50,outdoor_scenes,Stimuli/Experimental_stims/body_parts/heike-mintel-i_Gns0ELnLw-unsplash.jpg,Stimuli/Experimental_stims/outdoor_scenes/jeff-king-bJHWJeiHfHc-unsplash.jpg,0,1,97,0,unchosen,27,5,body_parts,outdoor_scenes,2200,0,9,2
226,74897,0,227,4,4,1,gain4,no_gain1,C,I,30,0,body_parts,50,50,outdoor_scenes,Stimuli/Experimental_stims/body_parts/mika-korhonen-Xodzxosar18-unsplash.jpg,Stimuli/Experimental_stims/outdoor_scenes/aleksandra-boguslawska-MS7KD9Ti7FQ-unsplash.jpg,0,1,96,1,chosen,30,0,body_parts,outdoor_scenes,4000,1,9,2
227,74897,0,228,4,4,1,gain3,no_gain2,F,J,33,40,body_parts,50,50,objects,Stimuli/Experimental_stims/body_parts/tucker-good-36skLT5jZcc-unsplash.jpg,Stimuli/Experimental_stims/objects/fabian-blank-pElSkGRA2NU-unsplash.jpg,0,1,10,1,chosen,33,40,body_parts,objects,1900,0,9,2
228,74897,0,229,4,4,0,no_gain5,gain4,E,C,31,30,body_parts,50,50,body_parts,Stimuli/Experimental_stims/body_parts/sincerely-media-VN6DbKajo5s-unsplash.jpg,Stimuli/Experimental_stims/body_parts/mika-korhonen-Xodzxosar18-unsplash.jpg,0,1,93,0,chosen,31,30,body_parts,body_parts,1800,0,9,2
229,74897,0,230,4,4,0,no_gain4,gain3,L,F,27,21,body_parts,50,50,faces,Stimuli/Experimental_stims/body_parts/heike-mintel-i_Gns0ELnLw-unsplash.jpg,Stimuli/Experimental_stims/faces/leilani-angel-K84vnnzxmTQ-unsplash.jpg,0,1,36,0,unchosen,27,21,body_parts,faces,1200,0,9,2
230,74897,0,231,4,4,0,no_gain3,gain5,B,A,7,5,outdoor_scenes,50,50,outdoor_scenes,Stimuli/Experimental_stims/outdoor_scenes/petr-vysohlid-9fqwGqGLUxc-unsplash.jpg,Stimuli/Experimental_stims/outdoor_scenes/jeff-king-bJHWJeiHfHc-unsplash.jpg,0,1,458,0,unchosen,7,5,outdoor_scenes,outdoor_scenes,1700,0,9,2
231,74897,0,232,4,4,0,no_gain2,gain5,J,A,23,5,faces,50,50,outdoor_scenes,Stimuli/Experimental_stims/faces/rikonavt-HQjfrvdTfak-unsplash.jpg,Stimuli/Experimental_stims/outdoor_scenes/jeff-king-bJHWJeiHfHc-unsplash.jpg,0,1,70,0,unchosen,23,5,faces,outdoor_scenes,3500,1,9,2
232,74897,0,233,4,4,1,gain3,no_gain3,F,B,33,16,body_parts,50,50,faces,Stimuli/Experimental_stims/body_parts/tucker-good-36skLT5jZcc-unsplash.jpg,Stimuli/Experimental_stims/faces/freddy-kearney-o-ioeoATbIM-unsplash.jpg,0,1,184,1,chosen,33,16,body_parts,faces,1700,0,9,2
233,74897,0,234,4,4,1,gain2,no_gain2,D,J,43,23,objects,50,50,faces,Stimuli/Experimental_stims/objects/jonathan-greenaway-Y4hGgeiFn3s-unsplash.jpg,Stimuli/Experimental_stims/faces/rikonavt-HQjfrvdTfak-unsplash.jpg,0,1,227,1,unchosen,43,23,objects,faces,2000,0,9,2
234,74897,0,235,4,4,0,no_gain6,gain5,G,A,46,5,objects,50,50,outdoor_scenes,Stimuli/Experimental_stims/objects/mockup-graphics-PNsj6RiHAF4-unsplash.jpg,Stimuli/Experimental_stims/outdoor_scenes/jeff-king-bJHWJeiHfHc-unsplash.jpg,0,1,122,0,unchosen,46,5,objects,outdoor_scenes,1300,0,9,2
235,74897,0,236,4,4,1,gain6,no_gain1,K,I,39,0,objects,50,50,outdoor_scenes,Stimuli/Experimental_stims/objects/charlesdeluvio-1-nx1QR5dTE-unsplash.jpg,Stimuli/Experimental_stims/outdoor_scenes/aleksandra-boguslawska-MS7KD9Ti7FQ-unsplash.jpg,0,1,292,1,chosen,39,0,objects,outdoor_scenes,1400,0,9,2
236,74897,0,237,4,4,1,gain1,no_gain4,H,L,19,27,faces,50,50,body_parts,Stimuli/Experimental_stims/faces/joel-mott-LaK153ghdig-unsplash.jpg,Stimuli/Experimental_stims/body_parts/heike-mintel-i_Gns0ELnLw-unsplash.jpg,0,1,129,1,unchosen,19,27,faces,body_parts,3600,1,9,2
237,74897,0,238,4,4,0,no_gain3,gain4,B,C,16,30,faces,50,50,body_parts,Stimuli/Experimental_stims/faces/freddy-kearney-o-ioeoATbIM-unsplash.jpg,Stimuli/Experimental_stims/body_parts/mika-korhonen-Xodzxosar18-unsplash.jpg,0,1,10,0,chosen,16,30,faces,body_parts,2700,0,9,2
238,74897,0,239,4,4,0,no_gain5,gain1,E,H,38,19,objects,50,50,faces,Stimuli/Experimental_stims/objects/art-lasovsky-8XddFc6NkBY-unsplash.jpg,Stimuli/Experimental_stims/faces/joel-mott-LaK153ghdig-unsplash.jpg,0,1,198,0,unchosen,38,19,objects,faces,1900,0,9,2
239,74897,0,240,4,4,0,no_gain1,gain3,I,F,24,21,body_parts,50,50,faces,Stimuli/Experimental_stims/body_parts/clay-banks-LjqARJaJotc-unsplash.jpg,Stimuli/Experimental_stims/faces/leilani-angel-K84vnnzxmTQ-unsplash.jpg,0,1,190,0,unchosen,24,21,body_parts,faces,1200,0,9,2
240,74897,0,241,4,4,0,no_gain2,gain1,J,H,23,19,faces,50,50,faces,Stimuli/Experimental_stims/faces/rikonavt-HQjfrvdTfak-unsplash.jpg,Stimuli/Experimental_stims/faces/joel-mott-LaK153ghdig-unsplash.jpg,0,1,103,0,unchosen,23,19,faces,faces,1000,0,9,2
241,74897,0,242,4,4,1,gain3,no_gain4,F,L,33,22,body_parts,50,50,faces,Stimuli/Experimental_stims/body_parts/tucker-good-36skLT5jZcc-unsplash.jpg,Stimuli/Experimental_stims/faces/ravi-patel-VMGAbeeJTKo-unsplash.jpg,0,1,2,1,chosen,33,22,body_parts,faces,3700,1,9,2
242,74897,0,243,4,4,0,no_gain4,gain1,L,H,22,4,faces,50,50,outdoor_scenes,Stimuli/Experimental_stims/faces/ravi-patel-VMGAbeeJTKo-unsplash.jpg,Stimuli/Experimental_stims/outdoor_scenes/jarrett-kow-1ZOyYPOBn7I-unsplash.jpg,0,1,100,0,chosen,22,4,faces,outdoor_scenes,1200,0,9,2
243,74897,0,244,4,4,1,gain2,no_gain3,D,B,43,7,objects,50,50,outdoor_scenes,Stimuli/Experimental_stims/objects/jonathan-greenaway-Y4hGgeiFn3s-unsplash.jpg,Stimuli/Experimental_stims/outdoor_scenes/petr-vysohlid-9fqwGqGLUxc-unsplash.jpg,0,1,1,1,unchosen,43,7,objects,outdoor_scenes,2600,0,9,2
244,74897,0,245,4,4,1,gain4,no_gain4,C,L,9,27,outdoor_scenes,50,50,body_parts,Stimuli/Experimental_stims/outdoor_scenes/sergey-pesterev-y-b_FOmJXdg-unsplash.jpg,Stimuli/Experimental_stims/body_parts/heike-mintel-i_Gns0ELnLw-unsplash.jpg,0,1,270,1,unchosen,9,27,outdoor_scenes,body_parts,2400,0,9,2
245,74897,0,246,4,4,1,gain2,no_gain6,D,G,43,46,objects,50,50,objects,Stimuli/Experimental_stims/objects/jonathan-greenaway-Y4hGgeiFn3s-unsplash.jpg,Stimuli/Experimental_stims/objects/mockup-graphics-PNsj6RiHAF4-unsplash.jpg,0,1,627,1,unchosen,43,46,objects,objects,1200,0,9,2
246,74897,0,247,4,4,0,no_gain6,gain6,G,K,1,39,outdoor_scenes,50,50,objects,Stimuli/Experimental_stims/outdoor_scenes/ashim-d-silva-S2Q5mdOrrVc-unsplash.jpg,Stimuli/Experimental_stims/objects/charlesdeluvio-1-nx1QR5dTE-unsplash.jpg,0,1,264,0,chosen,1,39,outdoor_scenes,objects,2500,0,9,2
247,74897,0,248,4,4,1,gain2,no_gain5,D,E,43,38,objects,50,50,objects,Stimuli/Experimental_stims/objects/jonathan-greenaway-Y4hGgeiFn3s-unsplash.jpg,Stimuli/Experimental_stims/objects/art-lasovsky-8XddFc6NkBY-unsplash.jpg,0,1,358,1,unchosen,43,38,objects,objects,2200,0,9,2
248,74897,0,249,4,4,0,no_gain1,gain3,I,F,0,33,outdoor_scenes,50,50,body_parts,Stimuli/Experimental_stims/outdoor_scenes/aleksandra-boguslawska-MS7KD9Ti7FQ-unsplash.jpg,Stimuli/Experimental_stims/body_parts/tucker-good-36skLT5jZcc-unsplash.jpg,0,1,752,0,chosen,0,33,outdoor_scenes,body_parts,1100,0,9,2
249,74897,0,250,4,4,0,no_gain6,gain1,G,H,1,4,outdoor_scenes,50,50,outdoor_scenes,Stimuli/Experimental_stims/outdoor_scenes/ashim-d-silva-S2Q5mdOrrVc-unsplash.jpg,Stimuli/Experimental_stims/outdoor_scenes/jarrett-kow-1ZOyYPOBn7I-unsplash.jpg,0,1,75,0,chosen,1,4,outdoor_scenes,outdoor_scenes,1700,0,9,2
250,74897,0,251,4,4,0,no_gain1,gain2,I,D,24,43,body_parts,50,50,objects,Stimuli/Experimental_stims/body_parts/clay-banks-LjqARJaJotc-unsplash.jpg,Stimuli/Experimental_stims/objects/jonathan-greenaway-Y4hGgeiFn3s-unsplash.jpg,0,1,148,0,unchosen,24,43,body_parts,objects,1100,0,9,2
251,74897,0,252,4,4,1,gain6,no_gain3,K,B,39,16,objects,50,50,faces,Stimuli/Experimental_stims/objects/charlesdeluvio-1-nx1QR5dTE-unsplash.jpg,Stimuli/Experimental_stims/faces/freddy-kearney-o-ioeoATbIM-unsplash.jpg,0,1,91,1,chosen,39,16,objects,faces,1900,0,9,2
252,74897,0,253,4,4,1,gain4,no_gain1,C,I,9,24,outdoor_scenes,50,50,body_parts,Stimuli/Experimental_stims/outdoor_scenes/sergey-pesterev-y-b_FOmJXdg-unsplash.jpg,Stimuli/Experimental_stims/body_parts/clay-banks-LjqARJaJotc-unsplash.jpg,0,1,718,1,unchosen,9,24,outdoor_scenes,body_parts,1100,0,9,2
253,74897,0,254,4,4,1,gain4,no_gain5,C,E,9,38,outdoor_scenes,50,50,objects,Stimuli/Experimental_stims/outdoor_scenes/sergey-pesterev-y-b_FOmJXdg-unsplash.jpg,Stimuli/Experimental_stims/objects/art-lasovsky-8XddFc6NkBY-unsplash.jpg,0,1,59,1,unchosen,9,38,outdoor_scenes,objects,1000,0,9,2
254,74897,0,255,4,4,1,gain6,no_gain6,K,G,32,46,body_parts,50,50,objects,Stimuli/Experimental_stims/body_parts/towfiqu-barbhuiya-3AsiVDsZnHg-unsplash.jpg,Stimuli/Experimental_stims/objects/mockup-graphics-PNsj6RiHAF4-unsplash.jpg,0,1,371,1,unchosen,32,46,body_parts,objects,1600,0,9,2
255,74897,0,256,4,4,0,no_gain4,gain5,L,A,22,37,faces,50,50,objects,Stimuli/Experimental_stims/faces/ravi-patel-VMGAbeeJTKo-unsplash.jpg,Stimuli/Experimental_stims/objects/alexander-andrews-VLGWE_SumrA-unsplash.jpg,0,1,841,0,chosen,22,37,faces,objects,2700,0,9,2
256,74897,0,257,4,4,1,gain4,no_gain6,C,G,9,46,outdoor_scenes,50,50,objects,Stimuli/Experimental_stims/outdoor_scenes/sergey-pesterev-y-b_FOmJXdg-unsplash.jpg,Stimuli/Experimental_stims/objects/mockup-graphics-PNsj6RiHAF4-unsplash.jpg,0,1,364,1,unchosen,9,46,outdoor_scenes,objects,3500,1,9,2
257,74897,0,258,4,4,0,no_gain2,gain6,J,K,23,32,faces,50,50,body_parts,Stimuli/Experimental_stims/faces/rikonavt-HQjfrvdTfak-unsplash.jpg,Stimuli/Experimental_stims/body_parts/towfiqu-barbhuiya-3AsiVDsZnHg-unsplash.jpg,0,1,619,0,unchosen,23,32,faces,body_parts,1000,0,9,2
258,74897,0,259,4,4,0,no_gain2,gain3,J,F,23,21,faces,50,50,faces,Stimuli/Experimental_stims/faces/rikonavt-HQjfrvdTfak-unsplash.jpg,Stimuli/Experimental_stims/faces/leilani-angel-K84vnnzxmTQ-unsplash.jpg,0,1,33,0,unchosen,23,21,faces,faces,1700,0,9,2
259,74897,0,260,4,4,1,gain2,no_gain5,D,E,15,31,faces,50,50,body_parts,Stimuli/Experimental_stims/faces/erik-lucatero-d2MSDujJl2g-unsplash.jpg,Stimuli/Experimental_stims/body_parts/sincerely-media-VN6DbKajo5s-unsplash.jpg,0,1,84,1,chosen,15,31,faces,body_parts,1500,0,9,2
260,74897,0,261,4,4,1,gain3,no_gain5,F,E,33,31,body_parts,50,50,body_parts,Stimuli/Experimental_stims/body_parts/tucker-good-36skLT5jZcc-unsplash.jpg,Stimuli/Experimental_stims/body_parts/sincerely-media-VN6DbKajo5s-unsplash.jpg,0,1,27,1,chosen,33,31,body_parts,body_parts,1400,0,9,2
261,74897,0,262,4,4,1,gain5,no_gain3,A,B,37,16,objects,50,50,faces,Stimuli/Experimental_stims/objects/alexander-andrews-VLGWE_SumrA-unsplash.jpg,Stimuli/Experimental_stims/faces/freddy-kearney-o-ioeoATbIM-unsplash.jpg,0,1,225,1,chosen,37,16,objects,faces,1300,0,9,2
262,74897,0,263,4,4,1,gain5,no_gain5,A,E,5,38,outdoor_scenes,50,50,objects,Stimuli/Experimental_stims/outdoor_scenes/jeff-king-bJHWJeiHfHc-unsplash.jpg,Stimuli/Experimental_stims/objects/art-lasovsky-8XddFc6NkBY-unsplash.jpg,0,1,492,1,unchosen,5,38,outdoor_scenes,objects,4500,1,9,2
263,74897,0,264,4,4,0,no_gain5,gain6,E,K,38,32,objects,50,50,body_parts,Stimuli/Experimental_stims/objects/art-lasovsky-8XddFc6NkBY-unsplash.jpg,Stimuli/Experimental_stims/body_parts/towfiqu-barbhuiya-3AsiVDsZnHg-unsplash.jpg,0,1,135,0,unchosen,38,32,objects,body_parts,1900,0,9,2
264,74897,0,265,4,4,0,no_gain6,gain1,G,H,46,19,objects,50,50,faces,Stimuli/Experimental_stims/objects/mockup-graphics-PNsj6RiHAF4-unsplash.jpg,Stimuli/Experimental_stims/faces/joel-mott-LaK153ghdig-unsplash.jpg,0,1,86,0,unchosen,46,19,objects,faces,1900,0,9,2
265,74897,0,266,4,4,1,gain5,no_gain5,A,E,37,31,objects,50,50,body_parts,Stimuli/Experimental_stims/objects/alexander-andrews-VLGWE_SumrA-unsplash.jpg,Stimuli/Experimental_stims/body_parts/sincerely-media-VN6DbKajo5s-unsplash.jpg,0,1,63,1,chosen,37,31,objects,body_parts,1600,0,9,2
266,74897,0,267,4,4,0,no_gain2,gain4,J,C,40,30,objects,50,50,body_parts,Stimuli/Experimental_stims/objects/fabian-blank-pElSkGRA2NU-unsplash.jpg,Stimuli/Experimental_stims/body_parts/mika-korhonen-Xodzxosar18-unsplash.jpg,0,1,200,0,chosen,40,30,objects,body_parts,2300,0,9,2
267,74897,0,268,4,4,1,gain6,no_gain2,K,J,39,40,objects,50,50,objects,Stimuli/Experimental_stims/objects/charlesdeluvio-1-nx1QR5dTE-unsplash.jpg,Stimuli/Experimental_stims/objects/fabian-blank-pElSkGRA2NU-unsplash.jpg,0,1,222,1,chosen,39,40,objects,objects,3700,1,9,2
268,74897,0,269,4,4,0,no_gain3,gain3,B,F,7,21,outdoor_scenes,50,50,faces,Stimuli/Experimental_stims/outdoor_scenes/petr-vysohlid-9fqwGqGLUxc-unsplash.jpg,Stimuli/Experimental_stims/faces/leilani-angel-K84vnnzxmTQ-unsplash.jpg,0,1,84,0,unchosen,7,21,outdoor_scenes,faces,1200,0,9,2
269,74897,0,270,4,4,1,gain4,no_gain3,C,B,9,7,outdoor_scenes,50,50,outdoor_scenes,Stimuli/Experimental_stims/outdoor_scenes/sergey-pesterev-y-b_FOmJXdg-unsplash.jpg,Stimuli/Experimental_stims/outdoor_scenes/petr-vysohlid-9fqwGqGLUxc-unsplash.jpg,0,1,215,1,unchosen,9,7,outdoor_scenes,outdoor_scenes,1900,0,9,2
270,74897,0,271,4,4,0,no_gain3,gain1,B,H,7,19,outdoor_scenes,50,50,faces,Stimuli/Experimental_stims/outdoor_scenes/petr-vysohlid-9fqwGqGLUxc-unsplash.jpg,Stimuli/Experimental_stims/faces/joel-mott-LaK153ghdig-unsplash.jpg,0,1,190,0,unchosen,7,19,outdoor_scenes,faces,2000,0,9,2
271,74897,0,272,4,4,1,gain1,no_gain3,H,B,4,16,outdoor_scenes,50,50,faces,Stimuli/Experimental_stims/outdoor_scenes/jarrett-kow-1ZOyYPOBn7I-unsplash.jpg,Stimuli/Experimental_stims/faces/freddy-kearney-o-ioeoATbIM-unsplash.jpg,0,1,88,1,chosen,4,16,outdoor_scenes,faces,2700,0,9,2
272,74897,0,273,4,4,1,gain6,no_gain5,K,E,39,31,objects,50,50,body_parts,Stimuli/Experimental_stims/objects/charlesdeluvio-1-nx1QR5dTE-unsplash.jpg,Stimuli/Experimental_stims/body_parts/sincerely-media-VN6DbKajo5s-unsplash.jpg,0,1,11,1,chosen,39,31,objects,body_parts,1100,0,9,2
273,74897,0,274,4,4,0,no_gain2,gain1,J,H,40,4,objects,50,50,outdoor_scenes,Stimuli/Experimental_stims/objects/fabian-blank-pElSkGRA2NU-unsplash.jpg,Stimuli/Experimental_stims/outdoor_scenes/jarrett-kow-1ZOyYPOBn7I-unsplash.jpg,0,1,136,0,chosen,40,4,objects,outdoor_scenes,4200,1,9,2
274,74897,0,275,4,4,1,gain3,no_gain6,F,G,21,46,faces,50,50,objects,Stimuli/Experimental_stims/faces/leilani-angel-K84vnnzxmTQ-unsplash.jpg,Stimuli/Experimental_stims/objects/mockup-graphics-PNsj6RiHAF4-unsplash.jpg,0,1,60,1,unchosen,21,46,faces,objects,1300,0,9,2
275,74897,0,276,4,4,1,gain1,no_gain5,H,E,4,31,outdoor_scenes,50,50,body_parts,Stimuli/Experimental_stims/outdoor_scenes/jarrett-kow-1ZOyYPOBn7I-unsplash.jpg,Stimuli/Experimental_stims/body_parts/sincerely-media-VN6DbKajo5s-unsplash.jpg,0,1,107,1,chosen,4,31,outdoor_scenes,body_parts,2000,0,9,2
276,74897,0,277,4,4,0,no_gain3,gain2,B,D,16,15,faces,50,50,faces,Stimuli/Experimental_stims/faces/freddy-kearney-o-ioeoATbIM-unsplash.jpg,Stimuli/Experimental_stims/faces/erik-lucatero-d2MSDujJl2g-unsplash.jpg,0,1,173,0,chosen,16,15,faces,faces,1100,0,9,2
277,74897,0,278,4,4,1,gain5,no_gain1,A,I,5,24,outdoor_scenes,50,50,body_parts,Stimuli/Experimental_stims/outdoor_scenes/jeff-king-bJHWJeiHfHc-unsplash.jpg,Stimuli/Experimental_stims/body_parts/clay-banks-LjqARJaJotc-unsplash.jpg,0,1,74,1,unchosen,5,24,outdoor_scenes,body_parts,2300,0,9,2
278,74897,0,279,4,4,1,gain2,no_gain2,D,J,15,40,faces,50,50,objects,Stimuli/Experimental_stims/faces/erik-lucatero-d2MSDujJl2g-unsplash.jpg,Stimuli/Experimental_stims/objects/fabian-blank-pElSkGRA2NU-unsplash.jpg,0,1,93,1,chosen,15,40,faces,objects,2900,0,9,2
279,74897,0,280,4,4,0,no_gain2,gain5,J,A,40,37,objects,50,50,objects,Stimuli/Experimental_stims/objects/fabian-blank-pElSkGRA2NU-unsplash.jpg,Stimuli/Experimental_stims/objects/alexander-andrews-VLGWE_SumrA-unsplash.jpg,0,1,4,0,chosen,40,37,objects,objects,1200,0,9,2
280,74897,0,281,4,4,1,gain5,no_gain6,A,G,37,1,objects,50,50,outdoor_scenes,Stimuli/Experimental_stims/objects/alexander-andrews-VLGWE_SumrA-unsplash.jpg,Stimuli/Experimental_stims/outdoor_scenes/ashim-d-silva-S2Q5mdOrrVc-unsplash.jpg,0,1,169,1,chosen,37,1,objects,outdoor_scenes,1500,0,9,2
281,74897,0,282,4,4,1,gain6,no_gain3,K,B,32,7,body_parts,50,50,outdoor_scenes,Stimuli/Experimental_stims/body_parts/towfiqu-barbhuiya-3AsiVDsZnHg-unsplash.jpg,Stimuli/Experimental_stims/outdoor_scenes/petr-vysohlid-9fqwGqGLUxc-unsplash.jpg,0,1,121,1,unchosen,32,7,body_parts,outdoor_scenes,1100,0,9,2
282,74897,0,283,4,4,0,no_gain6,gain4,G,C,1,30,outdoor_scenes,50,50,body_parts,Stimuli/Experimental_stims/outdoor_scenes/ashim-d-silva-S2Q5mdOrrVc-unsplash.jpg,Stimuli/Experimental_stims/body_parts/mika-korhonen-Xodzxosar18-unsplash.jpg,0,1,44,0,chosen,1,30,outdoor_scenes,body_parts,1200,0,9,2
283,74897,0,284,4,4,0,no_gain4,gain2,L,D,22,15,faces,50,50,faces,Stimuli/Experimental_stims/faces/ravi-patel-VMGAbeeJTKo-unsplash.jpg,Stimuli/Experimental_stims/faces/erik-lucatero-d2MSDujJl2g-unsplash.jpg,0,1,170,0,chosen,22,15,faces,faces,1400,0,9,2
284,74897,0,285,4,4,1,gain2,no_gain4,D,L,43,27,objects,50,50,body_parts,Stimuli/Experimental_stims/objects/jonathan-greenaway-Y4hGgeiFn3s-unsplash.jpg,Stimuli/Experimental_stims/body_parts/heike-mintel-i_Gns0ELnLw-unsplash.jpg,0,1,26,1,unchosen,43,27,objects,body_parts,1100,0,9,2
285,74897,0,286,4,4,1,gain3,no_gain6,F,G,33,1,body_parts,50,50,outdoor_scenes,Stimuli/Experimental_stims/body_parts/tucker-good-36skLT5jZcc-unsplash.jpg,Stimuli/Experimental_stims/outdoor_scenes/ashim-d-silva-S2Q5mdOrrVc-unsplash.jpg,0,1,126,1,chosen,33,1,body_parts,outdoor_scenes,2100,0,9,2
286,74897,0,287,4,4,0,no_gain1,gain1,I,H,24,19,body_parts,50,50,faces,Stimuli/Experimental_stims/body_parts/clay-banks-LjqARJaJotc-unsplash.jpg,Stimuli/Experimental_stims/faces/joel-mott-LaK153ghdig-unsplash.jpg,0,1,128,0,unchosen,24,19,body_parts,faces,3300,1,9,2
287,74897,0,288,4,4,0,no_gain1,gain6,I,K,24,32,body_parts,50,50,body_parts,Stimuli/Experimental_stims/body_parts/clay-banks-LjqARJaJotc-unsplash.jpg,Stimuli/Experimental_stims/body_parts/towfiqu-barbhuiya-3AsiVDsZnHg-unsplash.jpg,0,1,70,0,unchosen,24,32,body_parts,body_parts,1900,0,9,2
288,74897,0,289,4,4,0,no_gain1,gain5,I,A,0,37,outdoor_scenes,50,50,objects,Stimuli/Experimental_stims/outdoor_scenes/aleksandra-boguslawska-MS7KD9Ti7FQ-unsplash.jpg,Stimuli/Experimental_stims/objects/alexander-andrews-VLGWE_SumrA-unsplash.jpg,0,1,202,0,chosen,0,37,outdoor_scenes,objects,2000,0,9,2
289,74897,0,290,4,4,0,no_gain4,gain6,L,K,22,39,faces,50,50,objects,Stimuli/Experimental_stims/faces/ravi-patel-VMGAbeeJTKo-unsplash.jpg,Stimuli/Experimental_stims/objects/charlesdeluvio-1-nx1QR5dTE-unsplash.jpg,0,1,200,0,chosen,22,39,faces,objects,1100,0,9,2
290,74897,0,291,4,4,1,gain3,no_gain5,F,E,21,38,faces,50,50,objects,Stimuli/Experimental_stims/faces/leilani-angel-K84vnnzxmTQ-unsplash.jpg,Stimuli/Experimental_stims/objects/art-lasovsky-8XddFc6NkBY-unsplash.jpg,0,1,139,1,unchosen,21,38,faces,objects,1800,0,9,2
291,74897,0,292,4,4,0,no_gain1,gain1,I,H,0,4,outdoor_scenes,50,50,outdoor_scenes,Stimuli/Experimental_stims/outdoor_scenes/aleksandra-boguslawska-MS7KD9Ti7FQ-unsplash.jpg,Stimuli/Experimental_stims/outdoor_scenes/jarrett-kow-1ZOyYPOBn7I-unsplash.jpg,0,1,18,0,chosen,0,4,outdoor_scenes,outdoor_scenes,3200,1,9,2