,PID,practice,trial,block,run,gain_left,left_item_id,right_item_id,left_pair_id,right_pair_id,left_stimulus,right_stimulus,left_category,right_category,left_rating,right_rating,left_path,right_path,no_response,left_chosen,rt,higher_outcome_chosen,choice_type,chosen_stimulus,unchosen_stimulus,chosen_category,unchosen_category,iti,long_iti,simulation,version
0,95708,1,1,0,0,0,,,,,,,,,,,Stimuli/Practice_stims/Final_decisions/debby-hudson-FmCSSSGge-0-unsplash.jpg,Stimuli/Practice_stims/Final_decisions/yassine-khalfalli-adsQ9d_Cx0c-unsplash.jpg,0,0,177,1,,,,,,3000,0,6,1
1,95708,1,2,0,0,0,,,,,,,,,,,Stimuli/Practice_stims/Final_decisions/florian-wehde-iVW7mZPwd4g-unsplash.jpg,Stimuli/Practice_stims/Final_decisions/patrick-perkins-3wylDrjxH-E-unsplash.jpg,0,0,105,1,,,,,,1500,0,6,1
2,95708,1,3,0,0,0,,,,,,,,,,,Stimuli/Practice_stims/Final_decisions/debby-hudson-FmCSSSGge-0-unsplash.jpg,Stimuli/Practice_stims/Final_decisions/florian-wehde-iVW7mZPwd4g-unsplash.jpg,0,1,254,0,,,,,,2000,0,6,1
3,95708,1,4,0,0,0,,,,,,,,,,,Stimuli/Practice_stims/Final_decisions/yassine-khalfalli-adsQ9d_Cx0c-unsplash.jpg,Stimuli/Practice_stims/Final_decisions/debby-hudson-FmCSSSGge-0-unsplash.jpg,0,1,361,0,,,,,,1000,0,6,1
4,95708,0,5,1,1,0,no_gain4,gain5,F,H,28,17,body_parts,faces,50,75,Stimuli/Experimental_stims/body_parts/ira-vishnevskaya-8DQAvdCby1I-unsplash.jpg,Stimuli/Experimental_stims/faces/good-faces-xmSWVeGEnJw-unsplash.jpg,1,NaN,,NaN,chosen,NaN,NaN,NaN,NaN,1800,0,6,1
5,95708,0,6,1,1,1,gain3,no_gain6,C,B,26,21,body_parts,faces,79,77,Stimuli/Experimental_stims/body_parts/engin-akyurt-x_3gyC42btc-unsplash.jpg,Stimuli/Experimental_stims/faces/leilani-angel-K84vnnzxmTQ-unsplash.jpg,0,1,56,1,chosen,26,21,body_parts,faces,1700,0,6,1
6,95708,0,7,1,1,1,gain6,no_gain3,I,L,4,25,outdoor_scenes,body_parts,75,84,Stimuli/Experimental_stims/outdoor_scenes/jarrett-kow-1ZOyYPOBn7I-unsplash.jpg,Stimuli/Experimental_stims/body_parts/engin-akyurt-Q2rfH3GW39c-unsplash.jpg,0,0,623,0,unchosen,25,4,body_parts,outdoor_scenes,2300,0,6,1
7,95708,0,8,1,1,0,no_gain2,gain3,E,C,43,26,objects,body_parts,89,79,Stimuli/Experimental_stims/objects/jonathan-greenaway-Y4hGgeiFn3s-unsplash.jpg,Stimuli/Experimental_stims/body_parts/engin-akyurt-x_3gyC42btc-unsplash.jpg,0,0,97,1,chosen,26,43,body_parts,objects,1700,0,6,1
8,95708,0,9,1,1,1,gain4,no_gain5,K,J,30,12,body_parts,faces,75,72,Stimuli/Experimental_stims/body_parts/mika-korhonen-Xodzxosar18-unsplash.jpg,Stimuli/Experimental_stims/faces/aiony-haust-jmATI5Q_YgY-unsplash.jpg,0,0,70,0,unchosen,12,30,faces,body_parts,3900,1,6,1
9,95708,0,10,1,1,1,gain2,no_gain5,G,J,0,12,outdoor_scenes,faces,81,72,Stimuli/Experimental_stims/outdoor_scenes/aleksandra-boguslawska-MS7KD9Ti7FQ-unsplash.jpg,Stimuli/Experimental_stims/faces/aiony-haust-jmATI5Q_YgY-unsplash.jpg,0,0,738,0,unchosen,12,0,faces,outdoor_scenes,1200,0,6,1
10,95708,0,11,1,1,1,gain2,no_gain5,G,J,42,46,objects,objects,78,74,Stimuli/Experimental_stims/objects/jess-bailey-nOeVi8DsN8U-unsplash.jpg,Stimuli/Experimental_stims/objects/mockup-graphics-PNsj6RiHAF4-unsplash.jpg,0,0,124,0,chosen,46,42,objects,objects,1200,0,6,1
11,95708,0,12,1,1,0,no_gain5,gain5,J,H,46,17,objects,faces,74,75,Stimuli/Experimental_stims/objects/mockup-graphics-PNsj6RiHAF4-unsplash.jpg,Stimuli/Experimental_stims/faces/good-faces-xmSWVeGEnJw-unsplash.jpg,0,1,998,0,chosen,46,17,objects,faces,2600,0,6,1
12,95708,0,13,1,1,0,no_gain1,gain4,A,K,38,30,objects,body_parts,83,75,Stimuli/Experimental_stims/objects/art-lasovsky-8XddFc6NkBY-unsplash.jpg,Stimuli/Experimental_stims/body_parts/mika-korhonen-Xodzxosar18-unsplash.jpg,0,0,397,1,unchosen,30,38,body_parts,objects,2200,0,6,1
13,95708,0,14,1,1,1,gain4,no_gain6,K,B,45,21,objects,faces,73,77,Stimuli/Experimental_stims/objects/leohoho-rngTKHXumy0-unsplash.jpg,Stimuli/Experimental_stims/faces/leilani-angel-K84vnnzxmTQ-unsplash.jpg,0,1,1203,1,chosen,45,21,objects,faces,1700,0,6,1
14,95708,0,15,1,1,1,gain4,no_gain4,K,F,45,28,objects,body_parts,73,50,Stimuli/Experimental_stims/objects/leohoho-rngTKHXumy0-unsplash.jpg,Stimuli/Experimental_stims/body_parts/ira-vishnevskaya-8DQAvdCby1I-unsplash.jpg,0,1,6,1,chosen,45,28,objects,body_parts,3100,1,6,1
15,95708,0,16,1,1,1,gain2,no_gain1,G,A,0,38,outdoor_scenes,objects,81,83,Stimuli/Experimental_stims/outdoor_scenes/aleksandra-boguslawska-MS7KD9Ti7FQ-unsplash.jpg,Stimuli/Experimental_stims/objects/art-lasovsky-8XddFc6NkBY-unsplash.jpg,0,1,50,1,unchosen,0,38,outdoor_scenes,objects,2100,0,6,1
16,95708,0,17,1,1,0,no_gain2,gain5,E,H,43,17,objects,faces,89,75,Stimuli/Experimental_stims/objects/jonathan-greenaway-Y4hGgeiFn3s-unsplash.jpg,Stimuli/Experimental_stims/faces/good-faces-xmSWVeGEnJw-unsplash.jpg,0,1,56,0,chosen,43,17,objects,faces,1900,0,6,1
17,95708,0,18,1,1,0,no_gain1,gain5,A,H,2,17,outdoor_scenes,faces,66,75,Stimuli/Experimental_stims/outdoor_scenes/bruno-van-der-kraan-qez8mNJ3ilU-unsplash.jpg,Stimuli/Experimental_stims/faces/good-faces-xmSWVeGEnJw-unsplash.jpg,0,1,199,0,chosen,2,17,outdoor_scenes,faces,1400,0,6,1
18,95708,0,19,1,1,1,gain3,no_gain5,C,J,26,46,body_parts,objects,79,74,Stimuli/Experimental_stims/body_parts/engin-akyurt-x_3gyC42btc-unsplash.jpg,Stimuli/Experimental_stims/objects/mockup-graphics-PNsj6RiHAF4-unsplash.jpg,0,0,125,0,chosen,46,26,objects,body_parts,1500,0,6,1
19,95708,0,20,1,1,0,no_gain4,gain2,F,G,19,0,faces,outdoor_scenes,73,81,Stimuli/Experimental_stims/faces/joel-mott-LaK153ghdig-unsplash.jpg,Stimuli/Experimental_stims/outdoor_scenes/aleksandra-boguslawska-MS7KD9Ti7FQ-unsplash.jpg,0,0,112,1,unchosen,0,19,outdoor_scenes,faces,1600,0,6,1
20,95708,0,21,1,1,0,no_gain1,gain3,A,C,2,26,outdoor_scenes,body_parts,66,79,Stimuli/Experimental_stims/outdoor_scenes/bruno-van-der-kraan-qez8mNJ3ilU-unsplash.jpg,Stimuli/Experimental_stims/body_parts/engin-akyurt-x_3gyC42btc-unsplash.jpg,0,1,35,0,chosen,2,26,outdoor_scenes,body_parts,3200,1,6,1
21,95708,0,22,1,1,1,gain5,no_gain5,H,J,6,12,outdoor_scenes,faces,80,72,Stimuli/Experimental_stims/outdoor_scenes/meng-ji-8BH_M-53CyA-unsplash.jpg,Stimuli/Experimental_stims/faces/aiony-haust-jmATI5Q_YgY-unsplash.jpg,0,0,535,0,unchosen,12,6,faces,outdoor_scenes,1900,0,6,1
22,95708,0,23,1,1,0,no_gain6,gain6,B,I,9,4,outdoor_scenes,outdoor_scenes,73,75,Stimuli/Experimental_stims/outdoor_scenes/sergey-pesterev-y-b_FOmJXdg-unsplash.jpg,Stimuli/Experimental_stims/outdoor_scenes/jarrett-kow-1ZOyYPOBn7I-unsplash.jpg,0,0,149,1,unchosen,4,9,outdoor_scenes,outdoor_scenes,1600,0,6,1
23,95708,0,24,1,1,0,no_gain6,gain2,B,G,21,42,faces,objects,77,78,Stimuli/Experimental_stims/faces/leilani-angel-K84vnnzxmTQ-unsplash.jpg,Stimuli/Experimental_stims/objects/jess-bailey-nOeVi8DsN8U-unsplash.jpg,0,0,143,1,chosen,42,21,objects,faces,1100,0,6,1
24,95708,0,25,1,1,1,gain4,no_gain2,K,E,30,33,body_parts,body_parts,75,67,Stimuli/Experimental_stims/body_parts/mika-korhonen-Xodzxosar18-unsplash.jpg,Stimuli/Experimental_stims/body_parts/tucker-good-36skLT5jZcc-unsplash.jpg,0,0,42,0,unchosen,33,30,body_parts,body_parts,2200,0,6,1
25,95708,0,26,1,1,1,gain2,no_gain3,G,L,0,25,outdoor_scenes,body_parts,81,84,Stimuli/Experimental_stims/outdoor_scenes/aleksandra-boguslawska-MS7KD9Ti7FQ-unsplash.jpg,Stimuli/Experimental_stims/body_parts/engin-akyurt-Q2rfH3GW39c-unsplash.jpg,0,1,26,1,unchosen,0,25,outdoor_scenes,body_parts,3300,1,6,1
26,95708,0,27,1,1,0,no_gain2,gain4,E,K,43,45,objects,objects,89,73,Stimuli/Experimental_stims/objects/jonathan-greenaway-Y4hGgeiFn3s-unsplash.jpg,Stimuli/Experimental_stims/objects/leohoho-rngTKHXumy0-unsplash.jpg,0,0,33,1,chosen,45,43,objects,objects,2100,0,6,1
27,95708,0,28,1,1,0,no_gain2,gain2,E,G,33,0,body_parts,outdoor_scenes,67,81,Stimuli/Experimental_stims/body_parts/tucker-good-36skLT5jZcc-unsplash.jpg,Stimuli/Experimental_stims/outdoor_scenes/aleksandra-boguslawska-MS7KD9Ti7FQ-unsplash.jpg,0,0,45,1,unchosen,0,33,outdoor_scenes,body_parts,1000,0,6,1
28,95708,0,29,1,1,0,no_gain4,gain3,F,C,19,5,faces,outdoor_scenes,73,79,Stimuli/Experimental_stims/faces/joel-mott-LaK153ghdig-unsplash.jpg,Stimuli/Experimental_stims/outdoor_scenes/jeff-king-bJHWJeiHfHc-unsplash.jpg,0,0,77,1,unchosen,5,19,outdoor_scenes,faces,2600,0,6,1
29,95708,0,30,1,1,0,no_gain3,gain2,L,G,18,42,faces,objects,73,78,Stimuli/Experimental_stims/faces/jessica-radanavong-mrYkTuAesKE-unsplash.jpg,Stimuli/Experimental_stims/objects/jess-bailey-nOeVi8DsN8U-unsplash.jpg,0,0,12,1,chosen,42,18,objects,faces,1500,0,6,1
30,95708,0,31,1,1,1,gain5,no_gain4,H,F,6,19,outdoor_scenes,faces,80,73,Stimuli/Experimental_stims/outdoor_scenes/meng-ji-8BH_M-53CyA-unsplash.jpg,Stimuli/Experimental_stims/faces/joel-mott-LaK153ghdig-unsplash.jpg,0,0,1,0,unchosen,19,6,faces,outdoor_scenes,1200,0,6,1
31,95708,0,32,1,1,0,no_gain3,gain5,L,H,25,6,body_parts,outdoor_scenes,84,80,Stimuli/Experimental_stims/body_parts/engin-akyurt-Q2rfH3GW39c-unsplash.jpg,Stimuli/Experimental_stims/outdoor_scenes/meng-ji-8BH_M-53CyA-unsplash.jpg,0,0,66,1,unchosen,6,25,outdoor_scenes,body_parts,2100,0,6,1
32,95708,0,33,1,1,0,no_gain5,gain4,J,K,46,45,objects,objects,74,73,Stimuli/Experimental_stims/objects/mockup-graphics-PNsj6RiHAF4-unsplash.jpg,Stimuli/Experimental_stims/objects/leohoho-rngTKHXumy0-unsplash.jpg,0,0,82,1,chosen,45,46,objects,objects,4300,1,6,1
33,95708,0,34,1,1,0,no_gain1,gain5,A,H,38,6,objects,outdoor_scenes,83,80,Stimuli/Experimental_stims/objects/art-lasovsky-8XddFc6NkBY-unsplash.jpg,Stimuli/Experimental_stims/outdoor_scenes/meng-ji-8BH_M-53CyA-unsplash.jpg,0,0,933,1,unchosen,6,38,outdoor_scenes,objects,1000,0,6,1
34,95708,0,35,1,1,1,gain1,no_gain3,D,L,39,18,objects,faces,79,73,Stimuli/Experimental_stims/objects/charlesdeluvio-1-nx1QR5dTE-unsplash.jpg,Stimuli/Experimental_stims/faces/jessica-radanavong-mrYkTuAesKE-unsplash.jpg,0,0,45,0,chosen,18,39,faces,objects,2300,0,6,1
35,95708,0,36,1,1,0,no_gain6,gain5,B,H,9,6,outdoor_scenes,outdoor_scenes,73,80,Stimuli/Experimental_stims/outdoor_scenes/sergey-pesterev-y-b_FOmJXdg-unsplash.jpg,Stimuli/Experimental_stims/outdoor_scenes/meng-ji-8BH_M-53CyA-unsplash.jpg,0,1,29,0,unchosen,9,6,outdoor_scenes,outdoor_scenes,1200,0,6,1
36,95708,0,37,1,1,1,gain6,no_gain1,I,A,31,2,body_parts,outdoor_scenes,73,66,Stimuli/Experimental_stims/body_parts/sincerely-media-VN6DbKajo5s-unsplash.jpg,Stimuli/Experimental_stims/outdoor_scenes/bruno-van-der-kraan-qez8mNJ3ilU-unsplash.jpg,0,0,282,0,chosen,2,31,outdoor_scenes,body_parts,1300,0,6,1
37,95708,0,38,1,1,1,gain4,no_gain3,K,L,45,18,objects,faces,73,73,Stimuli/Experimental_stims/objects/leohoho-rngTKHXumy0-unsplash.jpg,Stimuli/Experimental_stims/faces/jessica-radanavong-mrYkTuAesKE-unsplash.jpg,0,0,32,0,chosen,18,45,faces,objects,1700,0,6,1
38,95708,0,39,1,1,1,gain1,no_gain5,D,J,39,46,objects,objects,79,74,Stimuli/Experimental_stims/objects/charlesdeluvio-1-nx1QR5dTE-unsplash.jpg,Stimuli/Experimental_stims/objects/mockup-graphics-PNsj6RiHAF4-unsplash.jpg,0,1,176,1,chosen,39,46,objects,objects,1300,0,6,1
39,95708,0,40,1,1,0,no_gain6,gain3,B,C,9,5,outdoor_scenes,outdoor_scenes,73,79,Stimuli/Experimental_stims/outdoor_scenes/sergey-pesterev-y-b_FOmJXdg-unsplash.jpg,Stimuli/Experimental_stims/outdoor_scenes/jeff-king-bJHWJeiHfHc-unsplash.jpg,0,0,63,1,unchosen,5,9,outdoor_scenes,outdoor_scenes,1200,0,6,1
40,95708,0,41,1,1,0,no_gain2,gain1,E,D,43,39,objects,objects,89,79,Stimuli/Experimental_stims/objects/jonathan-greenaway-Y4hGgeiFn3s-unsplash.jpg,Stimuli/Experimental_stims/objects/charlesdeluvio-1-nx1QR5dTE-unsplash.jpg,0,1,25,0,chosen,43,39,objects,objects,1900,0,6,1
41,95708,0,42,1,1,1,gain4,no_gain3,K,L,30,25,body_parts,body_parts,75,84,Stimuli/Experimental_stims/body_parts/mika-korhonen-Xodzxosar18-unsplash.jpg,Stimuli/Experimental_stims/body_parts/engin-akyurt-Q2rfH3GW39c-unsplash.jpg,0,0,2,0,unchosen,25,30,body_parts,body_parts,1200,0,6,1
42,95708,0,43,1,1,1,gain6,no_gain6,I,B,31,21,body_parts,faces,73,77,Stimuli/Experimental_stims/body_parts/sincerely-media-VN6DbKajo5s-unsplash.jpg,Stimuli/Experimental_stims/faces/leilani-angel-K84vnnzxmTQ-unsplash.jpg,0,1,100,1,chosen,31,21,body_parts,faces,4000,1,6,1
43,95708,0,44,1,1,0,no_gain3,gain3,L,C,18,26,faces,body_parts,73,79,Stimuli/Experimental_stims/faces/jessica-radanavong-mrYkTuAesKE-unsplash.jpg,Stimuli/Experimental_stims/body_parts/engin-akyurt-x_3gyC42btc-unsplash.jpg,0,0,88,1,chosen,26,18,body_parts,faces,2300,0,6,1
44,95708,0,45,1,1,1,gain2,no_gain6,G,B,0,9,outdoor_scenes,outdoor_scenes,81,73,Stimuli/Experimental_stims/outdoor_scenes/aleksandra-boguslawska-MS7KD9Ti7FQ-unsplash.jpg,Stimuli/Experimental_stims/outdoor_scenes/sergey-pesterev-y-b_FOmJXdg-unsplash.jpg,0,1,146,1,unchosen,0,9,outdoor_scenes,outdoor_scenes,1500,0,6,1
45,95708,0,46,1,1,0,no_gain1,gain1,A,D,2,39,outdoor_scenes,objects,66,79,Stimuli/Experimental_stims/outdoor_scenes/bruno-van-der-kraan-qez8mNJ3ilU-unsplash.jpg,Stimuli/Experimental_stims/objects/charlesdeluvio-1-nx1QR5dTE-unsplash.jpg,0,0,208,1,chosen,39,2,objects,outdoor_scenes,1100,0,6,1
46,95708,0,47,1,1,0,no_gain5,gain6,J,I,12,4,faces,outdoor_scenes,72,75,Stimuli/Experimental_stims/faces/aiony-haust-jmATI5Q_YgY-unsplash.jpg,Stimuli/Experimental_stims/outdoor_scenes/jarrett-kow-1ZOyYPOBn7I-unsplash.jpg,0,1,27,0,unchosen,12,4,faces,outdoor_scenes,1100,0,6,1
47,95708,0,48,1,1,0,no_gain5,gain6,J,I,46,31,objects,body_parts,74,73,Stimuli/Experimental_stims/objects/mockup-graphics-PNsj6RiHAF4-unsplash.jpg,Stimuli/Experimental_stims/body_parts/sincerely-media-VN6DbKajo5s-unsplash.jpg,0,1,38,0,chosen,46,31,objects,body_parts,3200,1,6,1
48,95708,0,49,1,1,0,no_gain2,gain6,E,I,33,4,body_parts,outdoor_scenes,67,75,Stimuli/Experimental_stims/body_parts/tucker-good-36skLT5jZcc-unsplash.jpg,Stimuli/Experimental_stims/outdoor_scenes/jarrett-kow-1ZOyYPOBn7I-unsplash.jpg,0,1,2,0,unchosen,33,4,body_parts,outdoor_scenes,1900,0,6,1
49,95708,0,50,1,1,1,gain4,no_gain4,K,F,30,19,body_parts,faces,75,73,Stimuli/Experimental_stims/body_parts/mika-korhonen-Xodzxosar18-unsplash.jpg,Stimuli/Experimental_stims/faces/joel-mott-LaK153ghdig-unsplash.jpg,0,1,30,1,unchosen,30,19,body_parts,faces,2300,0,6,1
50,95708,0,51,1,1,1,gain6,no_gain4,I,F,4,19,outdoor_scenes,faces,75,73,Stimuli/Experimental_stims/outdoor_scenes/jarrett-kow-1ZOyYPOBn7I-unsplash.jpg,Stimuli/Experimental_stims/faces/joel-mott-LaK153ghdig-unsplash.jpg,0,1,28,1,unchosen,4,19,outdoor_scenes,faces,1200,0,6,1
51,95708,0,52,1,1,0,no_gain6,gain1,B,D,21,39,faces,objects,77,79,Stimuli/Experimental_stims/faces/leilani-angel-K84vnnzxmTQ-unsplash.jpg,Stimuli/Experimental_stims/objects/charlesdeluvio-1-nx1QR5dTE-unsplash.jpg,0,1,7,0,chosen,21,39,faces,objects,2400,0,6,1
52,95708,0,53,1,1,1,gain2,no_gain1,G,A,42,2,objects,outdoor_scenes,78,66,Stimuli/Experimental_stims/objects/jess-bailey-nOeVi8DsN8U-unsplash.jpg,Stimuli/Experimental_stims/outdoor_scenes/bruno-van-der-kraan-qez8mNJ3ilU-unsplash.jpg,0,1,136,1,chosen,42,2,objects,outdoor_scenes,1600,0,6,1
53,95708,0,54,1,1,1,gain5,no_gain6,H,B,17,21,faces,faces,75,77,Stimuli/Experimental_stims/faces/good-faces-xmSWVeGEnJw-unsplash.jpg,Stimuli/Experimental_stims/faces/leilani-angel-K84vnnzxmTQ-unsplash.jpg,0,0,55,0,chosen,21,17,faces,faces,3100,1,6,1
54,95708,0,55,1,1,0,no_gain5,gain1,J,D,12,14,faces,faces,72,79,Stimuli/Experimental_stims/faces/aiony-haust-jmATI5Q_YgY-unsplash.jpg,Stimuli/Experimental_stims/faces/david-siglin-UuW4psOb388-unsplash.jpg,0,1,6,0,unchosen,12,14,faces,faces,2300,0,6,1
55,95708,0,56,1,1,1,gain2,no_gain2,G,E,42,43,objects,objects,78,89,Stimuli/Experimental_stims/objects/jess-bailey-nOeVi8DsN8U-unsplash.jpg,Stimuli/Experimental_stims/objects/jonathan-greenaway-Y4hGgeiFn3s-unsplash.jpg,0,0,151,0,chosen,43,42,objects,objects,2600,0,6,1
56,95708,0,57,1,1,1,gain3,no_gain2,C,E,5,33,outdoor_scenes,body_parts,79,67,Stimuli/Experimental_stims/outdoor_scenes/jeff-king-bJHWJeiHfHc-unsplash.jpg,Stimuli/Experimental_stims/body_parts/tucker-good-36skLT5jZcc-unsplash.jpg,0,0,4,0,unchosen,33,5,body_parts,outdoor_scenes,1700,0,6,1
57,95708,0,58,1,1,0,no_gain1,gain3,A,C,38,5,objects,outdoor_scenes,83,79,Stimuli/Experimental_stims/objects/art-lasovsky-8XddFc6NkBY-unsplash.jpg,Stimuli/Experimental_stims/outdoor_scenes/jeff-king-bJHWJeiHfHc-unsplash.jpg,0,1,527,0,unchosen,38,5,objects,outdoor_scenes,1100,0,6,1
58,95708,0,59,1,1,1,gain6,no_gain4,I,F,31,28,body_parts,body_parts,73,50,Stimuli/Experimental_stims/body_parts/sincerely-media-VN6DbKajo5s-unsplash.jpg,Stimuli/Experimental_stims/body_parts/ira-vishnevskaya-8DQAvdCby1I-unsplash.jpg,0,0,323,0,chosen,28,31,body_parts,body_parts,2600,0,6,1
59,95708,0,60,1,1,1,gain6,no_gain1,I,A,4,38,outdoor_scenes,objects,75,83,Stimuli/Experimental_stims/outdoor_scenes/jarrett-kow-1ZOyYPOBn7I-unsplash.jpg,Stimuli/Experimental_stims/objects/art-lasovsky-8XddFc6NkBY-unsplash.jpg,0,1,271,1,unchosen,4,38,outdoor_scenes,objects,1000,0,6,1
60,95708,0,61,1,1,1,gain1,no_gain3,D,L,14,25,faces,body_parts,79,84,Stimuli/Experimental_stims/faces/david-siglin-UuW4psOb388-unsplash.jpg,Stimuli/Experimental_stims/body_parts/engin-akyurt-Q2rfH3GW39c-unsplash.jpg,0,1,205,1,unchosen,14,25,faces,body_parts,2400,0,6,1
61,95708,0,62,1,1,0,no_gain6,gain4,B,K,9,30,outdoor_scenes,body_parts,73,75,Stimuli/Experimental_stims/outdoor_scenes/sergey-pesterev-y-b_FOmJXdg-unsplash.jpg,Stimuli/Experimental_stims/body_parts/mika-korhonen-Xodzxosar18-unsplash.jpg,0,0,186,1,unchosen,30,9,body_parts,outdoor_scenes,3500,1,6,1
62,95708,0,63,1,1,1,gain6,no_gain3,I,L,31,18,body_parts,faces,73,73,Stimuli/Experimental_stims/body_parts/sincerely-media-VN6DbKajo5s-unsplash.jpg,Stimuli/Experimental_stims/faces/jessica-radanavong-mrYkTuAesKE-unsplash.jpg,0,0,38,0,chosen,18,31,faces,body_parts,1700,0,6,1
63,95708,0,64,1,1,1,gain2,no_gain4,G,F,42,28,objects,body_parts,78,50,Stimuli/Experimental_stims/objects/jess-bailey-nOeVi8DsN8U-unsplash.jpg,Stimuli/Experimental_stims/body_parts/ira-vishnevskaya-8DQAvdCby1I-unsplash.jpg,0,0,78,0,chosen,28,42,body_parts,objects,1200,0,6,1
64,95708,0,65,1,1,0,no_gain6,gain1,B,D,9,14,outdoor_scenes,faces,73,79,Stimuli/Experimental_stims/outdoor_scenes/sergey-pesterev-y-b_FOmJXdg-unsplash.jpg,Stimuli/Experimental_stims/faces/david-siglin-UuW4psOb388-unsplash.jpg,0,0,187,1,unchosen,14,9,faces,outdoor_scenes,1600,0,6,1
65,95708,0,66,1,1,0,no_gain4,gain1,F,D,19,14,faces,faces,73,79,Stimuli/Experimental_stims/faces/joel-mott-LaK153ghdig-unsplash.jpg,Stimuli/Experimental_stims/faces/david-siglin-UuW4psOb388-unsplash.jpg,0,0,158,1,unchosen,14,19,faces,faces,1200,0,6,1
66,95708,0,67,1,1,1,gain5,no_gain2,H,E,6,33,outdoor_scenes,body_parts,80,67,Stimuli/Experimental_stims/outdoor_scenes/meng-ji-8BH_M-53CyA-unsplash.jpg,Stimuli/Experimental_stims/body_parts/tucker-good-36skLT5jZcc-unsplash.jpg,0,1,87,1,unchosen,6,33,outdoor_scenes,body_parts,3400,1,6,1
67,95708,0,68,1,1,0,no_gain1,gain4,A,K,2,45,outdoor_scenes,objects,66,73,Stimuli/Experimental_stims/outdoor_scenes/bruno-van-der-kraan-qez8mNJ3ilU-unsplash.jpg,Stimuli/Experimental_stims/objects/leohoho-rngTKHXumy0-unsplash.jpg,0,1,69,0,chosen,2,45,outdoor_scenes,objects,1900,0,6,1
68,95708,0,69,1,1,1,gain6,no_gain2,I,E,31,43,body_parts,objects,73,89,Stimuli/Experimental_stims/body_parts/sincerely-media-VN6DbKajo5s-unsplash.jpg,Stimuli/Experimental_stims/objects/jonathan-greenaway-Y4hGgeiFn3s-unsplash.jpg,0,1,16,1,chosen,31,43,body_parts,objects,2200,0,6,1
69,95708,0,70,1,1,1,gain5,no_gain3,H,L,17,18,faces,faces,75,73,Stimuli/Experimental_stims/faces/good-faces-xmSWVeGEnJw-unsplash.jpg,Stimuli/Experimental_stims/faces/jessica-radanavong-mrYkTuAesKE-unsplash.jpg,0,0,116,0,chosen,18,17,faces,faces,1100,0,6,1
70,95708,0,71,1,1,0,no_gain1,gain1,A,D,38,14,objects,faces,83,79,Stimuli/Experimental_stims/objects/art-lasovsky-8XddFc6NkBY-unsplash.jpg,Stimuli/Experimental_stims/faces/david-siglin-UuW4psOb388-unsplash.jpg,0,1,50,0,unchosen,38,14,objects,faces,2600,0,6,1
71,95708,0,72,1,1,1,gain1,no_gain2,D,E,14,33,faces,body_parts,79,67,Stimuli/Experimental_stims/faces/david-siglin-UuW4psOb388-unsplash.jpg,Stimuli/Experimental_stims/body_parts/tucker-good-36skLT5jZcc-unsplash.jpg,0,0,106,0,unchosen,33,14,body_parts,faces,2100,0,6,1
72,95708,0,73,1,1,0,no_gain3,gain3,L,C,25,5,body_parts,outdoor_scenes,84,79,Stimuli/Experimental_stims/body_parts/engin-akyurt-Q2rfH3GW39c-unsplash.jpg,Stimuli/Experimental_stims/outdoor_scenes/jeff-king-bJHWJeiHfHc-unsplash.jpg,0,0,165,1,unchosen,5,25,outdoor_scenes,body_parts,1600,0,6,1
73,95708,0,74,1,1,0,no_gain4,gain1,F,D,28,39,body_parts,objects,50,79,Stimuli/Experimental_stims/body_parts/ira-vishnevskaya-8DQAvdCby1I-unsplash.jpg,Stimuli/Experimental_stims/objects/charlesdeluvio-1-nx1QR5dTE-unsplash.jpg,0,0,34,1,chosen,39,28,objects,body_parts,1200,0,6,1
74,95708,0,75,1,1,1,gain3,no_gain5,C,J,5,12,outdoor_scenes,faces,79,72,Stimuli/Experimental_stims/outdoor_scenes/jeff-king-bJHWJeiHfHc-unsplash.jpg,Stimuli/Experimental_stims/faces/aiony-haust-jmATI5Q_YgY-unsplash.jpg,0,0,157,0,unchosen,12,5,faces,outdoor_scenes,2600,0,6,1
75,95708,0,76,1,1,0,no_gain4,gain3,F,C,28,26,body_parts,body_parts,50,79,Stimuli/Experimental_stims/body_parts/ira-vishnevskaya-8DQAvdCby1I-unsplash.jpg,Stimuli/Experimental_stims/body_parts/engin-akyurt-x_3gyC42btc-unsplash.jpg,0,1,138,0,chosen,28,26,body_parts,body_parts,3600,1,6,1
76,95708,0,77,2,2,1,gain4,no_gain6,K,B,30,9,body_parts,outdoor_scenes,75,73,Stimuli/Experimental_stims/body_parts/mika-korhonen-Xodzxosar18-unsplash.jpg,Stimuli/Experimental_stims/outdoor_scenes/sergey-pesterev-y-b_FOmJXdg-unsplash.jpg,1,NaN,,NaN,unchosen,NaN,NaN,NaN,NaN,3100,1,4,1
77,95708,0,78,2,2,1,gain3,no_gain1,C,A,26,2,body_parts,outdoor_scenes,79,66,Stimuli/Experimental_stims/body_parts/engin-akyurt-x_3gyC42btc-unsplash.jpg,Stimuli/Experimental_stims/outdoor_scenes/bruno-van-der-kraan-qez8mNJ3ilU-unsplash.jpg,0,1,178,1,chosen,26,2,body_parts,outdoor_scenes,2600,0,4,1
78,95708,0,79,2,2,0,no_gain5,gain5,J,H,46,17,objects,faces,74,75,Stimuli/Experimental_stims/objects/mockup-graphics-PNsj6RiHAF4-unsplash.jpg,Stimuli/Experimental_stims/faces/good-faces-xmSWVeGEnJw-unsplash.jpg,0,1,130,0,chosen,46,17,objects,faces,1800,0,4,1
79,95708,0,80,2,2,0,no_gain5,gain2,J,G,12,0,faces,outdoor_scenes,72,81,Stimuli/Experimental_stims/faces/aiony-haust-jmATI5Q_YgY-unsplash.jpg,Stimuli/Experimental_stims/outdoor_scenes/aleksandra-boguslawska-MS7KD9Ti7FQ-unsplash.jpg,0,1,19,0,unchosen,12,0,faces,outdoor_scenes,1000,0,4,1
80,95708,0,81,2,2,0,no_gain5,gain6,J,I,46,31,objects,body_parts,74,73,Stimuli/Experimental_stims/objects/mockup-graphics-PNsj6RiHAF4-unsplash.jpg,Stimuli/Experimental_stims/body_parts/sincerely-media-VN6DbKajo5s-unsplash.jpg,0,1,144,0,chosen,46,31,objects,body_parts,2300,0,4,1
81,95708,0,82,2,2,1,gain2,no_gain1,G,A,42,2,objects,outdoor_scenes,78,66,Stimuli/Experimental_stims/objects/jess-bailey-nOeVi8DsN8U-unsplash.jpg,Stimuli/Experimental_stims/outdoor_scenes/bruno-van-der-kraan-qez8mNJ3ilU-unsplash.jpg,0,0,64,0,chosen,2,42,outdoor_scenes,objects,1100,0,4,1
82,95708,0,83,2,2,1,gain6,no_gain4,I,F,31,28,body_parts,body_parts,73,50,Stimuli/Experimental_stims/body_parts/sincerely-media-VN6DbKajo5s-unsplash.jpg,Stimuli/Experimental_stims/body_parts/ira-vishnevskaya-8DQAvdCby1I-unsplash.jpg,0,1,181,1,chosen,31,28,body_parts,body_parts,1500,0,4,1
83,95708,0,84,2,2,1,gain1,no_gain4,D,F,14,19,faces,faces,79,73,Stimuli/Experimental_stims/faces/david-siglin-UuW4psOb388-unsplash.jpg,Stimuli/Experimental_stims/faces/joel-mott-LaK153ghdig-unsplash.jpg,0,1,34,1,unchosen,14,19,faces,faces,2400,0,4,1
84,95708,0,85,2,2,0,no_gain2,gain2,E,G,33,0,body_parts,outdoor_scenes,67,81,Stimuli/Experimental_stims/body_parts/tucker-good-36skLT5jZcc-unsplash.jpg,Stimuli/Experimental_stims/outdoor_scenes/aleksandra-boguslawska-MS7KD9Ti7FQ-unsplash.jpg,0,0,115,1,unchosen,0,33,outdoor_scenes,body_parts,2300,0,4,1
85,95708,0,86,2,2,1,gain6,no_gain3,I,L,31,18,body_parts,faces,73,73,Stimuli/Experimental_stims/body_parts/sincerely-media-VN6DbKajo5s-unsplash.jpg,Stimuli/Experimental_stims/faces/jessica-radanavong-mrYkTuAesKE-unsplash.jpg,0,1,33,1,chosen,31,18,body_parts,faces,1200,0,4,1
86,95708,0,87,2,2,0,no_gain5,gain4,J,K,12,30,faces,body_parts,72,75,Stimuli/Experimental_stims/faces/aiony-haust-jmATI5Q_YgY-unsplash.jpg,Stimuli/Experimental_stims/body_parts/mika-korhonen-Xodzxosar18-unsplash.jpg,0,0,67,1,unchosen,30,12,body_parts,faces,1300,0,4,1
87,95708,0,88,2,2,1,gain2,no_gain2,G,E,42,43,objects,objects,78,89,Stimuli/Experimental_stims/objects/jess-bailey-nOeVi8DsN8U-unsplash.jpg,Stimuli/Experimental_stims/objects/jonathan-greenaway-Y4hGgeiFn3s-unsplash.jpg,0,0,93,0,chosen,43,42,objects,objects,3700,1,4,1
88,95708,0,89,2,2,1,gain5,no_gain3,H,L,17,18,faces,faces,75,73,Stimuli/Experimental_stims/faces/good-faces-xmSWVeGEnJw-unsplash.jpg,Stimuli/Experimental_stims/faces/jessica-radanavong-mrYkTuAesKE-unsplash.jpg,0,0,110,0,chosen,18,17,faces,faces,1600,0,4,1
89,95708,0,90,2,2,0,no_gain3,gain1,L,D,18,39,faces,objects,73,79,Stimuli/Experimental_stims/faces/jessica-radanavong-mrYkTuAesKE-unsplash.jpg,Stimuli/Experimental_stims/objects/charlesdeluvio-1-nx1QR5dTE-unsplash.jpg,0,0,25,1,chosen,39,18,objects,faces,1700,0,4,1
90,95708,0,91,2,2,0,no_gain2,gain1,E,D,33,14,body_parts,faces,67,79,Stimuli/Experimental_stims/body_parts/tucker-good-36skLT5jZcc-unsplash.jpg,Stimuli/Experimental_stims/faces/david-siglin-UuW4psOb388-unsplash.jpg,0,0,220,1,unchosen,14,33,faces,body_parts,1200,0,4,1
91,95708,0,92,2,2,0,no_gain6,gain5,B,H,21,17,faces,faces,77,75,Stimuli/Experimental_stims/faces/leilani-angel-K84vnnzxmTQ-unsplash.jpg,Stimuli/Experimental_stims/faces/good-faces-xmSWVeGEnJw-unsplash.jpg,0,0,202,1,chosen,17,21,faces,faces,1100,0,4,1
92,95708,0,93,2,2,0,no_gain4,gain3,F,C,28,26,body_parts,body_parts,50,79,Stimuli/Experimental_stims/body_parts/ira-vishnevskaya-8DQAvdCby1I-unsplash.jpg,Stimuli/Experimental_stims/body_parts/engin-akyurt-x_3gyC42btc-unsplash.jpg,0,0,18,1,chosen,26,28,body_parts,body_parts,1300,0,4,1
93,95708,0,94,2,2,1,gain4,no_gain5,K,J,45,46,objects,objects,73,74,Stimuli/Experimental_stims/objects/leohoho-rngTKHXumy0-unsplash.jpg,Stimuli/Experimental_stims/objects/mockup-graphics-PNsj6RiHAF4-unsplash.jpg,0,1,27,1,chosen,45,46,objects,objects,4500,1,4,1
94,95708,0,95,2,2,0,no_gain5,gain1,J,D,12,14,faces,faces,72,79,Stimuli/Experimental_stims/faces/aiony-haust-jmATI5Q_YgY-unsplash.jpg,Stimuli/Experimental_stims/faces/david-siglin-UuW4psOb388-unsplash.jpg,0,1,2,0,unchosen,12,14,faces,faces,1900,0,4,1
95,95708,0,96,2,2,1,gain1,no_gain3,D,L,14,25,faces,body_parts,79,84,Stimuli/Experimental_stims/faces/david-siglin-UuW4psOb388-unsplash.jpg,Stimuli/Experimental_stims/body_parts/engin-akyurt-Q2rfH3GW39c-unsplash.jpg,0,0,179,0,unchosen,25,14,body_parts,faces,1100,0,4,1
96,95708,0,97,2,2,1,gain3,no_gain3,C,L,5,25,outdoor_scenes,body_parts,79,84,Stimuli/Experimental_stims/outdoor_scenes/jeff-king-bJHWJeiHfHc-unsplash.jpg,Stimuli/Experimental_stims/body_parts/engin-akyurt-Q2rfH3GW39c-unsplash.jpg,0,0,105,0,unchosen,25,5,body_parts,outdoor_scenes,2300,0,4,1
97,95708,0,98,2,2,0,no_gain5,gain1,J,D,46,39,objects,objects,74,79,Stimuli/Experimental_stims/objects/mockup-graphics-PNsj6RiHAF4-unsplash.jpg,Stimuli/Experimental_stims/objects/charlesdeluvio-1-nx1QR5dTE-unsplash.jpg,0,1,153,0,chosen,46,39,objects,objects,2800,0,4,1
98,95708,0,99,2,2,0,no_gain5,gain5,J,H,12,6,faces,outdoor_scenes,72,80,Stimuli/Experimental_stims/faces/aiony-haust-jmATI5Q_YgY-unsplash.jpg,Stimuli/Experimental_stims/outdoor_scenes/meng-ji-8BH_M-53CyA-unsplash.jpg,0,0,107,1,unchosen,6,12,outdoor_scenes,faces,3200,1,4,1
99,95708,0,100,2,2,1,gain5,no_gain1,H,A,17,2,faces,outdoor_scenes,75,66,Stimuli/Experimental_stims/faces/good-faces-xmSWVeGEnJw-unsplash.jpg,Stimuli/Experimental_stims/outdoor_scenes/bruno-van-der-kraan-qez8mNJ3ilU-unsplash.jpg,0,1,1284,1,chosen,17,2,faces,outdoor_scenes,2000,0,4,1
100,95708,0,101,2,2,0,no_gain2,gain6,E,I,43,31,objects,body_parts,89,73,Stimuli/Experimental_stims/objects/jonathan-greenaway-Y4hGgeiFn3s-unsplash.jpg,Stimuli/Experimental_stims/body_parts/sincerely-media-VN6DbKajo5s-unsplash.jpg,0,1,184,0,chosen,43,31,objects,body_parts,2500,0,4,1
101,95708,0,102,2,2,1,gain3,no_gain5,C,J,5,12,outdoor_scenes,faces,79,72,Stimuli/Experimental_stims/outdoor_scenes/jeff-king-bJHWJeiHfHc-unsplash.jpg,Stimuli/Experimental_stims/faces/aiony-haust-jmATI5Q_YgY-unsplash.jpg,0,1,214,1,unchosen,5,12,outdoor_scenes,faces,1300,0,4,1
102,95708,0,103,2,2,1,gain6,no_gain3,I,L,4,25,outdoor_scenes,body_parts,75,84,Stimuli/Experimental_stims/outdoor_scenes/jarrett-kow-1ZOyYPOBn7I-unsplash.jpg,Stimuli/Experimental_stims/body_parts/engin-akyurt-Q2rfH3GW39c-unsplash.jpg,0,0,210,0,unchosen,25,4,body_parts,outdoor_scenes,1300,0,4,1
103,95708,0,104,2,2,1,gain4,no_gain4,K,F,30,19,body_parts,faces,75,73,Stimuli/Experimental_stims/body_parts/mika-korhonen-Xodzxosar18-unsplash.jpg,Stimuli/Experimental_stims/faces/joel-mott-LaK153ghdig-unsplash.jpg,0,1,99,1,unchosen,30,19,body_parts,faces,4500,1,4,1
104,95708,0,105,2,2,1,gain6,no_gain1,I,A,31,2,body_parts,outdoor_scenes,73,66,Stimuli/Experimental_stims/body_parts/sincerely-media-VN6DbKajo5s-unsplash.jpg,Stimuli/Experimental_stims/outdoor_scenes/bruno-van-der-kraan-qez8mNJ3ilU-unsplash.jpg,0,0,19,0,chosen,2,31,outdoor_scenes,body_parts,1400,0,4,1
105,95708,0,106,2,2,1,gain2,no_gain6,G,B,0,9,outdoor_scenes,outdoor_scenes,81,73,Stimuli/Experimental_stims/outdoor_scenes/aleksandra-boguslawska-MS7KD9Ti7FQ-unsplash.jpg,Stimuli/Experimental_stims/outdoor_scenes/sergey-pesterev-y-b_FOmJXdg-unsplash.jpg,0,1,81,1,unchosen,0,9,outdoor_scenes,outdoor_scenes,2600,0,4,1
106,95708,0,107,2,2,1,gain4,no_gain4,K,F,45,28,objects,body_parts,73,50,Stimuli/Experimental_stims/objects/leohoho-rngTKHXumy0-unsplash.jpg,Stimuli/Experimental_stims/body_parts/ira-vishnevskaya-8DQAvdCby1I-unsplash.jpg,0,0,63,0,chosen,28,45,body_parts,objects,2100,0,4,1
107,95708,0,108,2,2,0,no_gain6,gain6,B,I,9,4,outdoor_scenes,outdoor_scenes,73,75,Stimuli/Experimental_stims/outdoor_scenes/sergey-pesterev-y-b_FOmJXdg-unsplash.jpg,Stimuli/Experimental_stims/outdoor_scenes/jarrett-kow-1ZOyYPOBn7I-unsplash.jpg,0,1,22,0,unchosen,9,4,outdoor_scenes,outdoor_scenes,2100,0,4,1
108,95708,0,109,2,2,1,gain4,no_gain3,K,L,30,25,body_parts,body_parts,75,84,Stimuli/Experimental_stims/body_parts/mika-korhonen-Xodzxosar18-unsplash.jpg,Stimuli/Experimental_stims/body_parts/engin-akyurt-Q2rfH3GW39c-unsplash.jpg,0,1,916,1,unchosen,30,25,body_parts,body_parts,2600,0,4,1
109,95708,0,110,2,2,0,no_gain1,gain1,A,D,2,39,outdoor_scenes,objects,66,79,Stimuli/Experimental_stims/outdoor_scenes/bruno-van-der-kraan-qez8mNJ3ilU-unsplash.jpg,Stimuli/Experimental_stims/objects/charlesdeluvio-1-nx1QR5dTE-unsplash.jpg,0,1,355,0,chosen,2,39,outdoor_scenes,objects,3000,1,4,1
110,95708,0,111,2,2,1,gain2,no_gain4,G,F,42,28,objects,body_parts,78,50,Stimuli/Experimental_stims/objects/jess-bailey-nOeVi8DsN8U-unsplash.jpg,Stimuli/Experimental_stims/body_parts/ira-vishnevskaya-8DQAvdCby1I-unsplash.jpg,0,1,8,1,chosen,42,28,objects,body_parts,1100,0,4,1
111,95708,0,112,2,2,0,no_gain1,gain3,A,C,38,5,objects,outdoor_scenes,83,79,Stimuli/Experimental_stims/objects/art-lasovsky-8XddFc6NkBY-unsplash.jpg,Stimuli/Experimental_stims/outdoor_scenes/jeff-king-bJHWJeiHfHc-unsplash.jpg,0,0,53,1,unchosen,5,38,outdoor_scenes,objects,1000,0,4,1
112,95708,0,113,2,2,1,gain5,no_gain1,H,A,6,38,outdoor_scenes,objects,80,83,Stimuli/Experimental_stims/outdoor_scenes/meng-ji-8BH_M-53CyA-unsplash.jpg,Stimuli/Experimental_stims/objects/art-lasovsky-8XddFc6NkBY-unsplash.jpg,0,0,155,0,unchosen,38,6,objects,outdoor_scenes,1300,0,4,1
113,95708,0,114,2,2,1,gain3,no_gain6,C,B,26,21,body_parts,faces,79,77,Stimuli/Experimental_stims/body_parts/engin-akyurt-x_3gyC42btc-unsplash.jpg,Stimuli/Experimental_stims/faces/leilani-angel-K84vnnzxmTQ-unsplash.jpg,0,0,224,0,chosen,21,26,faces,body_parts,1000,0,4,1
114,95708,0,115,2,2,0,no_gain1,gain1,A,D,38,14,objects,faces,83,79,Stimuli/Experimental_stims/objects/art-lasovsky-8XddFc6NkBY-unsplash.jpg,Stimuli/Experimental_stims/faces/david-siglin-UuW4psOb388-unsplash.jpg,0,0,156,1,unchosen,14,38,faces,objects,1200,0,4,1
115,95708,0,116,2,2,0,no_gain5,gain3,J,C,46,26,objects,body_parts,74,79,Stimuli/Experimental_stims/objects/mockup-graphics-PNsj6RiHAF4-unsplash.jpg,Stimuli/Experimental_stims/body_parts/engin-akyurt-x_3gyC42btc-unsplash.jpg,0,1,110,0,chosen,46,26,objects,body_parts,1800,0,4,1
116,95708,0,117,2,2,1,gain5,no_gain2,H,E,6,33,outdoor_scenes,body_parts,80,67,Stimuli/Experimental_stims/outdoor_scenes/meng-ji-8BH_M-53CyA-unsplash.jpg,Stimuli/Experimental_stims/body_parts/tucker-good-36skLT5jZcc-unsplash.jpg,0,0,100,0,unchosen,33,6,body_parts,outdoor_scenes,2300,0,4,1
117,95708,0,118,2,2,1,gain4,no_gain1,K,A,45,2,objects,outdoor_scenes,73,66,Stimuli/Experimental_stims/objects/leohoho-rngTKHXumy0-unsplash.jpg,Stimuli/Experimental_stims/outdoor_scenes/bruno-van-der-kraan-qez8mNJ3ilU-unsplash.jpg,0,0,133,0,chosen,2,45,outdoor_scenes,objects,3500,1,4,1
118,95708,0,119,2,2,0,no_gain2,gain6,E,I,33,4,body_parts,outdoor_scenes,67,75,Stimuli/Experimental_stims/body_parts/tucker-good-36skLT5jZcc-unsplash.jpg,Stimuli/Experimental_stims/outdoor_scenes/jarrett-kow-1ZOyYPOBn7I-unsplash.jpg,0,0,94,1,unchosen,4,33,outdoor_scenes,body_parts,1300,0,4,1
119,95708,0,120,2,2,0,no_gain2,gain5,E,H,43,17,objects,faces,89,75,Stimuli/Experimental_stims/objects/jonathan-greenaway-Y4hGgeiFn3s-unsplash.jpg,Stimuli/Experimental_stims/faces/good-faces-xmSWVeGEnJw-unsplash.jpg,0,1,102,0,chosen,43,17,objects,faces,1400,0,4,1
120,95708,0,121,2,2,1,gain3,no_gain3,C,L,26,18,body_parts,faces,79,73,Stimuli/Experimental_stims/body_parts/engin-akyurt-x_3gyC42btc-unsplash.jpg,Stimuli/Experimental_stims/faces/jessica-radanavong-mrYkTuAesKE-unsplash.jpg,0,0,24,0,chosen,18,26,faces,body_parts,1300,0,4,1
121,95708,0,122,2,2,1,gain6,no_gain1,I,A,4,38,outdoor_scenes,objects,75,83,Stimuli/Experimental_stims/outdoor_scenes/jarrett-kow-1ZOyYPOBn7I-unsplash.jpg,Stimuli/Experimental_stims/objects/art-lasovsky-8XddFc6NkBY-unsplash.jpg,0,1,176,1,unchosen,4,38,outdoor_scenes,objects,2800,0,4,1
122,95708,0,123,2,2,1,gain5,no_gain6,H,B,6,9,outdoor_scenes,outdoor_scenes,80,73,Stimuli/Experimental_stims/outdoor_scenes/meng-ji-8BH_M-53CyA-unsplash.jpg,Stimuli/Experimental_stims/outdoor_scenes/sergey-pesterev-y-b_FOmJXdg-unsplash.jpg,0,0,93,0,unchosen,9,6,outdoor_scenes,outdoor_scenes,1800,0,4,1
123,95708,0,124,2,2,0,no_gain2,gain4,E,K,33,30,body_parts,body_parts,67,75,Stimuli/Experimental_stims/body_parts/tucker-good-36skLT5jZcc-unsplash.jpg,Stimuli/Experimental_stims/body_parts/mika-korhonen-Xodzxosar18-unsplash.jpg,0,0,88,1,unchosen,30,33,body_parts,body_parts,1200,0,4,1
124,95708,0,125,2,2,0,no_gain3,gain4,L,K,18,45,faces,objects,73,73,Stimuli/Experimental_stims/faces/jessica-radanavong-mrYkTuAesKE-unsplash.jpg,Stimuli/Experimental_stims/objects/leohoho-rngTKHXumy0-unsplash.jpg,0,0,266,1,chosen,45,18,objects,faces,1000,0,4,1
125,95708,0,126,2,2,1,gain3,no_gain4,C,F,5,19,outdoor_scenes,faces,79,73,Stimuli/Experimental_stims/outdoor_scenes/jeff-king-bJHWJeiHfHc-unsplash.jpg,Stimuli/Experimental_stims/faces/joel-mott-LaK153ghdig-unsplash.jpg,0,0,119,0,unchosen,19,5,faces,outdoor_scenes,1600,0,4,1
126,95708,0,127,2,2,0,no_gain2,gain4,E,K,43,45,objects,objects,89,73,Stimuli/Experimental_stims/objects/jonathan-greenaway-Y4hGgeiFn3s-unsplash.jpg,Stimuli/Experimental_stims/objects/leohoho-rngTKHXumy0-unsplash.jpg,0,0,367,1,chosen,45,43,objects,objects,1500,0,4,1
127,95708,0,128,2,2,0,no_gain5,gain2,J,G,46,42,objects,objects,74,78,Stimuli/Experimental_stims/objects/mockup-graphics-PNsj6RiHAF4-unsplash.jpg,Stimuli/Experimental_stims/objects/jess-bailey-nOeVi8DsN8U-unsplash.jpg,0,0,216,1,chosen,42,46,objects,objects,3300,1,4,1
128,95708,0,129,2,2,0,no_gain4,gain1,F,D,28,39,body_parts,objects,50,79,Stimuli/Experimental_stims/body_parts/ira-vishnevskaya-8DQAvdCby1I-unsplash.jpg,Stimuli/Experimental_stims/objects/charlesdeluvio-1-nx1QR5dTE-unsplash.jpg,0,1,481,0,chosen,28,39,body_parts,objects,2200,0,4,1
129,95708,0,130,2,2,0,no_gain5,gain6,J,I,12,4,faces,outdoor_scenes,72,75,Stimuli/Experimental_stims/faces/aiony-haust-jmATI5Q_YgY-unsplash.jpg,Stimuli/Experimental_stims/outdoor_scenes/jarrett-kow-1ZOyYPOBn7I-unsplash.jpg,0,1,32,0,unchosen,12,4,faces,outdoor_scenes,2400,0,4,1
130,95708,0,131,2,2,1,gain2,no_gain3,G,L,42,18,objects,faces,78,73,Stimuli/Experimental_stims/objects/jess-bailey-nOeVi8DsN8U-unsplash.jpg,Stimuli/Experimental_stims/faces/jessica-radanavong-mrYkTuAesKE-unsplash.jpg,0,0,109,0,chosen,18,42,faces,objects,1300,0,4,1
131,95708,0,132,2,2,1,gain6,no_gain4,I,F,4,19,outdoor_scenes,faces,75,73,Stimuli/Experimental_stims/outdoor_scenes/jarrett-kow-1ZOyYPOBn7I-unsplash.jpg,Stimuli/Experimental_stims/faces/joel-mott-LaK153ghdig-unsplash.jpg,0,0,51,0,unchosen,19,4,faces,outdoor_scenes,2400,0,4,1
132,95708,0,133,2,2,0,no_gain1,gain4,A,K,38,30,objects,body_parts,83,75,Stimuli/Experimental_stims/objects/art-lasovsky-8XddFc6NkBY-unsplash.jpg,Stimuli/Experimental_stims/body_parts/mika-korhonen-Xodzxosar18-unsplash.jpg,0,0,40,1,unchosen,30,38,body_parts,objects,2200,0,4,1
133,95708,0,134,2,2,0,no_gain6,gain4,B,K,21,45,faces,objects,77,73,Stimuli/Experimental_stims/faces/leilani-angel-K84vnnzxmTQ-unsplash.jpg,Stimuli/Experimental_stims/objects/leohoho-rngTKHXumy0-unsplash.jpg,0,0,194,1,chosen,45,21,objects,faces,2900,1,4,1
134,95708,0,135,2,2,1,gain1,no_gain6,D,B,39,21,objects,faces,79,77,Stimuli/Experimental_stims/objects/charlesdeluvio-1-nx1QR5dTE-unsplash.jpg,Stimuli/Experimental_stims/faces/leilani-angel-K84vnnzxmTQ-unsplash.jpg,0,0,24,0,chosen,21,39,faces,objects,1900,0,4,1
135,95708,0,136,2,2,0,no_gain1,gain2,A,G,38,0,objects,outdoor_scenes,83,81,Stimuli/Experimental_stims/objects/art-lasovsky-8XddFc6NkBY-unsplash.jpg,Stimuli/Experimental_stims/outdoor_scenes/aleksandra-boguslawska-MS7KD9Ti7FQ-unsplash.jpg,0,1,31,0,unchosen,38,0,objects,outdoor_scenes,1700,0,4,1
136,95708,0,137,2,2,0,no_gain4,gain2,F,G,19,0,faces,outdoor_scenes,73,81,Stimuli/Experimental_stims/faces/joel-mott-LaK153ghdig-unsplash.jpg,Stimuli/Experimental_stims/outdoor_scenes/aleksandra-boguslawska-MS7KD9Ti7FQ-unsplash.jpg,0,1,34,0,unchosen,19,0,faces,outdoor_scenes,1900,0,4,1
137,95708,0,138,2,2,1,gain6,no_gain6,I,B,31,21,body_parts,faces,73,77,Stimuli/Experimental_stims/body_parts/sincerely-media-VN6DbKajo5s-unsplash.jpg,Stimuli/Experimental_stims/faces/leilani-angel-K84vnnzxmTQ-unsplash.jpg,0,0,100,0,chosen,21,31,faces,body_parts,1700,0,4,1
138,95708,0,139,2,2,0,no_gain3,gain2,L,G,25,0,body_parts,outdoor_scenes,84,81,Stimuli/Experimental_stims/body_parts/engin-akyurt-Q2rfH3GW39c-unsplash.jpg,Stimuli/Experimental_stims/outdoor_scenes/aleksandra-boguslawska-MS7KD9Ti7FQ-unsplash.jpg,0,0,693,1,unchosen,0,25,outdoor_scenes,body_parts,1300,0,4,1
139,95708,0,140,2,2,1,gain5,no_gain4,H,F,6,19,outdoor_scenes,faces,80,73,Stimuli/Experimental_stims/outdoor_scenes/meng-ji-8BH_M-53CyA-unsplash.jpg,Stimuli/Experimental_stims/faces/joel-mott-LaK153ghdig-unsplash.jpg,0,0,818,0,unchosen,19,6,faces,outdoor_scenes,3600,1,4,1
140,95708,0,141,2,2,1,gain5,no_gain4,H,F,17,28,faces,body_parts,75,50,Stimuli/Experimental_stims/faces/good-faces-xmSWVeGEnJw-unsplash.jpg,Stimuli/Experimental_stims/body_parts/ira-vishnevskaya-8DQAvdCby1I-unsplash.jpg,0,1,1,1,chosen,17,28,faces,body_parts,1700,0,4,1
141,95708,0,142,2,2,0,no_gain6,gain2,B,G,21,42,faces,objects,77,78,Stimuli/Experimental_stims/faces/leilani-angel-K84vnnzxmTQ-unsplash.jpg,Stimuli/Experimental_stims/objects/jess-bailey-nOeVi8DsN8U-unsplash.jpg,0,1,111,0,chosen,21,42,faces,objects,1900,0,4,1
142,95708,0,143,2,2,0,no_gain2,gain1,E,D,43,39,objects,objects,89,79,Stimuli/Experimental_stims/objects/jonathan-greenaway-Y4hGgeiFn3s-unsplash.jpg,Stimuli/Experimental_stims/objects/charlesdeluvio-1-nx1QR5dTE-unsplash.jpg,0,0,116,1,chosen,39,43,objects,objects,2200,0,4,1
143,95708,0,144,2,2,0,no_gain3,gain5,L,H,25,6,body_parts,outdoor_scenes,84,80,Stimuli/Experimental_stims/body_parts/engin-akyurt-Q2rfH3GW39c-unsplash.jpg,Stimuli/Experimental_stims/outdoor_scenes/meng-ji-8BH_M-53CyA-unsplash.jpg,0,0,70,1,unchosen,6,25,outdoor_scenes,body_parts,1800,0,4,1
144,95708,0,145,2,2,0,no_gain6,gain3,B,C,9,5,outdoor_scenes,outdoor_scenes,73,79,Stimuli/Experimental_stims/outdoor_scenes/sergey-pesterev-y-b_FOmJXdg-unsplash.jpg,Stimuli/Experimental_stims/outdoor_scenes/jeff-king-bJHWJeiHfHc-unsplash.jpg,0,1,148,0,unchosen,9,5,outdoor_scenes,outdoor_scenes,1400,0,4,1
145,95708,0,146,2,2,0,no_gain2,gain3,E,C,43,26,objects,body_parts,89,79,Stimuli/Experimental_stims/objects/jonathan-greenaway-Y4hGgeiFn3s-unsplash.jpg,Stimuli/Experimental_stims/body_parts/engin-akyurt-x_3gyC42btc-unsplash.jpg,0,1,125,0,chosen,43,26,objects,body_parts,1800,0,4,1
146,95708,0,147,2,2,1,gain3,no_gain2,C,E,5,33,outdoor_scenes,body_parts,79,67,Stimuli/Experimental_stims/outdoor_scenes/jeff-king-bJHWJeiHfHc-unsplash.jpg,Stimuli/Experimental_stims/body_parts/tucker-good-36skLT5jZcc-unsplash.jpg,1,NaN,,NaN,unchosen,NaN,NaN,NaN,NaN,1300,0,4,1
147,95708,0,148,2,2,1,gain1,no_gain6,D,B,14,9,faces,outdoor_scenes,79,73,Stimuli/Experimental_stims/faces/david-siglin-UuW4psOb388-unsplash.jpg,Stimuli/Experimental_stims/outdoor_scenes/sergey-pesterev-y-b_FOmJXdg-unsplash.jpg,0,0,262,0,unchosen,9,14,outdoor_scenes,faces,3600,1,4,1
148,95708,0,149,3,3,1,gain3,no_gain6,C,B,5,9,outdoor_scenes,outdoor_scenes,79,73,Stimuli/Experimental_stims/outdoor_scenes/jeff-king-bJHWJeiHfHc-unsplash.jpg,Stimuli/Experimental_stims/outdoor_scenes/sergey-pesterev-y-b_FOmJXdg-unsplash.jpg,1,NaN,,NaN,unchosen,NaN,NaN,NaN,NaN,1200,0,5,1
149,95708,0,150,3,3,1,gain3,no_gain3,C,L,26,18,body_parts,faces,79,73,Stimuli/Experimental_stims/body_parts/engin-akyurt-x_3gyC42btc-unsplash.jpg,Stimuli/Experimental_stims/faces/jessica-radanavong-mrYkTuAesKE-unsplash.jpg,0,0,38,0,chosen,18,26,faces,body_parts,1100,0,5,1
150,95708,0,151,3,3,1,gain1,no_gain4,D,F,39,28,objects,body_parts,79,50,Stimuli/Experimental_stims/objects/charlesdeluvio-1-nx1QR5dTE-unsplash.jpg,Stimuli/Experimental_stims/body_parts/ira-vishnevskaya-8DQAvdCby1I-unsplash.jpg,0,0,22,0,chosen,28,39,body_parts,objects,1100,0,5,1
151,95708,0,152,3,3,1,gain5,no_gain6,H,B,6,9,outdoor_scenes,outdoor_scenes,80,73,Stimuli/Experimental_stims/outdoor_scenes/meng-ji-8BH_M-53CyA-unsplash.jpg,Stimuli/Experimental_stims/outdoor_scenes/sergey-pesterev-y-b_FOmJXdg-unsplash.jpg,0,0,1,0,unchosen,9,6,outdoor_scenes,outdoor_scenes,1300,0,5,1
152,95708,0,153,3,3,1,gain2,no_gain6,G,B,42,21,objects,faces,78,77,Stimuli/Experimental_stims/objects/jess-bailey-nOeVi8DsN8U-unsplash.jpg,Stimuli/Experimental_stims/faces/leilani-angel-K84vnnzxmTQ-unsplash.jpg,0,0,1,0,chosen,21,42,faces,objects,3300,1,5,1
153,95708,0,154,3,3,1,gain6,no_gain6,I,B,31,21,body_parts,faces,73,77,Stimuli/Experimental_stims/body_parts/sincerely-media-VN6DbKajo5s-unsplash.jpg,Stimuli/Experimental_stims/faces/leilani-angel-K84vnnzxmTQ-unsplash.jpg,0,1,26,1,chosen,31,21,body_parts,faces,1000,0,5,1
154,95708,0,155,3,3,1,gain1,no_gain2,D,E,14,33,faces,body_parts,79,67,Stimuli/Experimental_stims/faces/david-siglin-UuW4psOb388-unsplash.jpg,Stimuli/Experimental_stims/body_parts/tucker-good-36skLT5jZcc-unsplash.jpg,0,1,41,1,unchosen,14,33,faces,body_parts,1300,0,5,1
155,95708,0,156,3,3,0,no_gain4,gain3,F,C,28,26,body_parts,body_parts,50,79,Stimuli/Experimental_stims/body_parts/ira-vishnevskaya-8DQAvdCby1I-unsplash.jpg,Stimuli/Experimental_stims/body_parts/engin-akyurt-x_3gyC42btc-unsplash.jpg,0,1,108,0,chosen,28,26,body_parts,body_parts,1300,0,5,1
156,95708,0,157,3,3,0,no_gain4,gain4,F,K,28,45,body_parts,objects,50,73,Stimuli/Experimental_stims/body_parts/ira-vishnevskaya-8DQAvdCby1I-unsplash.jpg,Stimuli/Experimental_stims/objects/leohoho-rngTKHXumy0-unsplash.jpg,0,0,18,1,chosen,45,28,objects,body_parts,1600,0,5,1
157,95708,0,158,3,3,1,gain6,no_gain3,I,L,31,18,body_parts,faces,73,73,Stimuli/Experimental_stims/body_parts/sincerely-media-VN6DbKajo5s-unsplash.jpg,Stimuli/Experimental_stims/faces/jessica-radanavong-mrYkTuAesKE-unsplash.jpg,0,0,127,0,chosen,18,31,faces,body_parts,1400,0,5,1
158,95708,0,159,3,3,0,no_gain1,gain2,A,G,38,0,objects,outdoor_scenes,83,81,Stimuli/Experimental_stims/objects/art-lasovsky-8XddFc6NkBY-unsplash.jpg,Stimuli/Experimental_stims/outdoor_scenes/aleksandra-boguslawska-MS7KD9Ti7FQ-unsplash.jpg,0,1,26,0,unchosen,38,0,objects,outdoor_scenes,2100,0,5,1
159,95708,0,160,3,3,0,no_gain4,gain3,F,C,19,5,faces,outdoor_scenes,73,79,Stimuli/Experimental_stims/faces/joel-mott-LaK153ghdig-unsplash.jpg,Stimuli/Experimental_stims/outdoor_scenes/jeff-king-bJHWJeiHfHc-unsplash.jpg,0,0,38,1,unchosen,5,19,outdoor_scenes,faces,1200,0,5,1
160,95708,0,161,3,3,0,no_gain1,gain3,A,C,2,26,outdoor_scenes,body_parts,66,79,Stimuli/Experimental_stims/outdoor_scenes/bruno-van-der-kraan-qez8mNJ3ilU-unsplash.jpg,Stimuli/Experimental_stims/body_parts/engin-akyurt-x_3gyC42btc-unsplash.jpg,0,1,238,0,chosen,2,26,outdoor_scenes,body_parts,4100,1,5,1
161,95708,0,162,3,3,0,no_gain1,gain4,A,K,38,30,objects,body_parts,83,75,Stimuli/Experimental_stims/objects/art-lasovsky-8XddFc6NkBY-unsplash.jpg,Stimuli/Experimental_stims/body_parts/mika-korhonen-Xodzxosar18-unsplash.jpg,0,0,131,1,unchosen,30,38,body_parts,objects,1900,0,5,1
162,95708,0,163,3,3,1,gain5,no_gain5,H,J,17,46,faces,objects,75,74,Stimuli/Experimental_stims/faces/good-faces-xmSWVeGEnJw-unsplash.jpg,Stimuli/Experimental_stims/objects/mockup-graphics-PNsj6RiHAF4-unsplash.jpg,0,0,195,0,chosen,46,17,objects,faces,2000,0,5,1
163,95708,0,164,3,3,0,no_gain2,gain5,E,H,33,6,body_parts,outdoor_scenes,67,80,Stimuli/Experimental_stims/body_parts/tucker-good-36skLT5jZcc-unsplash.jpg,Stimuli/Experimental_stims/outdoor_scenes/meng-ji-8BH_M-53CyA-unsplash.jpg,1,NaN,,NaN,unchosen,NaN,NaN,NaN,NaN,2600,0,5,1
164,95708,0,165,3,3,1,gain1,no_gain4,D,F,14,19,faces,faces,79,73,Stimuli/Experimental_stims/faces/david-siglin-UuW4psOb388-unsplash.jpg,Stimuli/Experimental_stims/faces/joel-mott-LaK153ghdig-unsplash.jpg,1,NaN,,NaN,unchosen,NaN,NaN,NaN,NaN,1100,0,5,1
165,95708,0,166,3,3,0,no_gain4,gain5,F,H,28,17,body_parts,faces,50,75,Stimuli/Experimental_stims/body_parts/ira-vishnevskaya-8DQAvdCby1I-unsplash.jpg,Stimuli/Experimental_stims/faces/good-faces-xmSWVeGEnJw-unsplash.jpg,1,NaN,,NaN,chosen,NaN,NaN,NaN,NaN,4400,1,5,1
166,95708,0,167,3,3,0,no_gain5,gain4,J,K,12,30,faces,body_parts,72,75,Stimuli/Experimental_stims/faces/aiony-haust-jmATI5Q_YgY-unsplash.jpg,Stimuli/Experimental_stims/body_parts/mika-korhonen-Xodzxosar18-unsplash.jpg,1,NaN,,NaN,unchosen,NaN,NaN,NaN,NaN,1200,0,5,1
167,95708,0,168,3,3,0,no_gain5,gain6,J,I,46,31,objects,body_parts,74,73,Stimuli/Experimental_stims/objects/mockup-graphics-PNsj6RiHAF4-unsplash.jpg,Stimuli/Experimental_stims/body_parts/sincerely-media-VN6DbKajo5s-unsplash.jpg,1,NaN,,NaN,chosen,NaN,NaN,NaN,NaN,1100,0,5,1
168,95708,0,169,3,3,1,gain1,no_gain6,D,B,14,9,faces,outdoor_scenes,79,73,Stimuli/Experimental_stims/faces/david-siglin-UuW4psOb388-unsplash.jpg,Stimuli/Experimental_stims/outdoor_scenes/sergey-pesterev-y-b_FOmJXdg-unsplash.jpg,1,NaN,,NaN,unchosen,NaN,NaN,NaN,NaN,1700,0,5,1
169,95708,0,170,3,3,1,gain2,no_gain2,G,E,42,43,objects,objects,78,89,Stimuli/Experimental_stims/objects/jess-bailey-nOeVi8DsN8U-unsplash.jpg,Stimuli/Experimental_stims/objects/jonathan-greenaway-Y4hGgeiFn3s-unsplash.jpg,1,NaN,,NaN,chosen,NaN,NaN,NaN,NaN,1100,0,5,1
170,95708,0,171,3,3,0,no_gain2,gain4,E,K,33,30,body_parts,body_parts,67,75,Stimuli/Experimental_stims/body_parts/tucker-good-36skLT5jZcc-unsplash.jpg,Stimuli/Experimental_stims/body_parts/mika-korhonen-Xodzxosar18-unsplash.jpg,1,NaN,,NaN,unchosen,NaN,NaN,NaN,NaN,3300,1,5,1
171,95708,0,172,3,3,0,no_gain3,gain2,L,G,18,42,faces,objects,73,78,Stimuli/Experimental_stims/faces/jessica-radanavong-mrYkTuAesKE-unsplash.jpg,Stimuli/Experimental_stims/objects/jess-bailey-nOeVi8DsN8U-unsplash.jpg,1,NaN,,NaN,chosen,NaN,NaN,NaN,NaN,2800,0,5,1
172,95708,0,173,3,3,0,no_gain4,gain2,F,G,28,42,body_parts,objects,50,78,Stimuli/Experimental_stims/body_parts/ira-vishnevskaya-8DQAvdCby1I-unsplash.jpg,Stimuli/Experimental_stims/objects/jess-bailey-nOeVi8DsN8U-unsplash.jpg,1,NaN,,NaN,chosen,NaN,NaN,NaN,NaN,1000,0,5,1
173,95708,0,174,3,3,0,no_gain1,gain6,A,I,38,4,objects,outdoor_scenes,83,75,Stimuli/Experimental_stims/objects/art-lasovsky-8XddFc6NkBY-unsplash.jpg,Stimuli/Experimental_stims/outdoor_scenes/jarrett-kow-1ZOyYPOBn7I-unsplash.jpg,1,NaN,,NaN,unchosen,NaN,NaN,NaN,NaN,3100,0,5,1
174,95708,0,175,3,3,1,gain4,no_gain1,K,A,45,2,objects,outdoor_scenes,73,66,Stimuli/Experimental_stims/objects/leohoho-rngTKHXumy0-unsplash.jpg,Stimuli/Experimental_stims/outdoor_scenes/bruno-van-der-kraan-qez8mNJ3ilU-unsplash.jpg,1,NaN,,NaN,chosen,NaN,NaN,NaN,NaN,2000,0,5,1
175,95708,0,176,3,3,0,no_gain6,gain6,B,I,9,4,outdoor_scenes,outdoor_scenes,73,75,Stimuli/Experimental_stims/outdoor_scenes/sergey-pesterev-y-b_FOmJXdg-unsplash.jpg,Stimuli/Experimental_stims/outdoor_scenes/jarrett-kow-1ZOyYPOBn7I-unsplash.jpg,1,NaN,,NaN,unchosen,NaN,NaN,NaN,NaN,2300,0,5,1
176,95708,0,177,3,3,0,no_gain2,gain5,E,H,43,17,objects,faces,89,75,Stimuli/Experimental_stims/objects/jonathan-greenaway-Y4hGgeiFn3s-unsplash.jpg,Stimuli/Experimental_stims/faces/good-faces-xmSWVeGEnJw-unsplash.jpg,1,NaN,,NaN,chosen,NaN,NaN,NaN,NaN,1500,0,5,1
177,95708,0,178,3,3,0,no_gain5,gain2,J,G,12,0,faces,outdoor_scenes,72,81,Stimuli/Experimental_stims/faces/aiony-haust-jmATI5Q_YgY-unsplash.jpg,Stimuli/Experimental_stims/outdoor_scenes/aleksandra-boguslawska-MS7KD9Ti7FQ-unsplash.jpg,1,NaN,,NaN,unchosen,NaN,NaN,NaN,NaN,1600,0,5,1
178,95708,0,179,3,3,1,gain6,no_gain1,I,A,31,2,body_parts,outdoor_scenes,73,66,Stimuli/Experimental_stims/body_parts/sincerely-media-VN6DbKajo5s-unsplash.jpg,Stimuli/Experimental_stims/outdoor_scenes/bruno-van-der-kraan-qez8mNJ3ilU-unsplash.jpg,1,NaN,,NaN,chosen,NaN,NaN,NaN,NaN,4200,1,5,1
179,95708,0,180,3,3,0,no_gain5,gain4,J,K,46,45,objects,objects,74,73,Stimuli/Experimental_stims/objects/mockup-graphics-PNsj6RiHAF4-unsplash.jpg,Stimuli/Experimental_stims/objects/leohoho-rngTKHXumy0-unsplash.jpg,1,NaN,,NaN,chosen,NaN,NaN,NaN,NaN,1000,0,5,1
180,95708,0,181,3,3,0,no_gain6,gain3,B,C,21,26,faces,body_parts,77,79,Stimuli/Experimental_stims/faces/leilani-angel-K84vnnzxmTQ-unsplash.jpg,Stimuli/Experimental_stims/body_parts/engin-akyurt-x_3gyC42btc-unsplash.jpg,1,NaN,,NaN,chosen,NaN,NaN,NaN,NaN,2000,0,5,1
181,95708,0,182,3,3,1,gain4,no_gain3,K,L,30,25,body_parts,body_parts,75,84,Stimuli/Experimental_stims/body_parts/mika-korhonen-Xodzxosar18-unsplash.jpg,Stimuli/Experimental_stims/body_parts/engin-akyurt-Q2rfH3GW39c-unsplash.jpg,1,NaN,,NaN,unchosen,NaN,NaN,NaN,NaN,1700,0,5,1
182,95708,0,183,3,3,1,gain2,no_gain6,G,B,0,9,outdoor_scenes,outdoor_scenes,81,73,Stimuli/Experimental_stims/outdoor_scenes/aleksandra-boguslawska-MS7KD9Ti7FQ-unsplash.jpg,Stimuli/Experimental_stims/outdoor_scenes/sergey-pesterev-y-b_FOmJXdg-unsplash.jpg,1,NaN,,NaN,unchosen,NaN,NaN,NaN,NaN,2300,0,5,1
183,95708,0,184,3,3,1,gain4,no_gain4,K,F,30,19,body_parts,faces,75,73,Stimuli/Experimental_stims/body_parts/mika-korhonen-Xodzxosar18-unsplash.jpg,Stimuli/Experimental_stims/faces/joel-mott-LaK153ghdig-unsplash.jpg,1,NaN,,NaN,unchosen,NaN,NaN,NaN,NaN,3300,1,5,1
184,95708,0,185,3,3,0,no_gain1,gain2,A,G,2,42,outdoor_scenes,objects,66,78,Stimuli/Experimental_stims/outdoor_scenes/bruno-van-der-kraan-qez8mNJ3ilU-unsplash.jpg,Stimuli/Experimental_stims/objects/jess-bailey-nOeVi8DsN8U-unsplash.jpg,1,NaN,,NaN,chosen,NaN,NaN,NaN,NaN,1100,0,5,1
185,95708,0,186,3,3,0,no_gain4,gain6,F,I,28,31,body_parts,body_parts,50,73,Stimuli/Experimental_stims/body_parts/ira-vishnevskaya-8DQAvdCby1I-unsplash.jpg,Stimuli/Experimental_stims/body_parts/sincerely-media-VN6DbKajo5s-unsplash.jpg,1,NaN,,NaN,chosen,NaN,NaN,NaN,NaN,1900,0,5,1
186,95708,0,187,3,3,1,gain3,no_gain5,C,J,26,46,body_parts,objects,79,74,Stimuli/Experimental_stims/body_parts/engin-akyurt-x_3gyC42btc-unsplash.jpg,Stimuli/Experimental_stims/objects/mockup-graphics-PNsj6RiHAF4-unsplash.jpg,1,NaN,,NaN,chosen,NaN,NaN,NaN,NaN,2400,0,5,1
187,95708,0,188,3,3,0,no_gain2,gain6,E,I,33,4,body_parts,outdoor_scenes,67,75,Stimuli/Experimental_stims/body_parts/tucker-good-36skLT5jZcc-unsplash.jpg,Stimuli/Experimental_stims/outdoor_scenes/jarrett-kow-1ZOyYPOBn7I-unsplash.jpg,1,NaN,,NaN,unchosen,NaN,NaN,NaN,NaN,1900,0,5,1
188,95708,0,189,3,3,0,no_gain1,gain1,A,D,38,14,objects,faces,83,79,Stimuli/Experimental_stims/objects/art-lasovsky-8XddFc6NkBY-unsplash.jpg,Stimuli/Experimental_stims/faces/david-siglin-UuW4psOb388-unsplash.jpg,1,NaN,,NaN,unchosen,NaN,NaN,NaN,NaN,3300,1,5,1
189,95708,0,190,3,3,0,no_gain3,gain5,L,H,25,6,body_parts,outdoor_scenes,84,80,Stimuli/Experimental_stims/body_parts/engin-akyurt-Q2rfH3GW39c-unsplash.jpg,Stimuli/Experimental_stims/outdoor_scenes/meng-ji-8BH_M-53CyA-unsplash.jpg,1,NaN,,NaN,unchosen,NaN,NaN,NaN,NaN,1200,0,5,1
190,95708,0,191,3,3,1,gain1,no_gain1,D,A,39,2,objects,outdoor_scenes,79,66,Stimuli/Experimental_stims/objects/charlesdeluvio-1-nx1QR5dTE-unsplash.jpg,Stimuli/Experimental_stims/outdoor_scenes/bruno-van-der-kraan-qez8mNJ3ilU-unsplash.jpg,1,NaN,,NaN,chosen,NaN,NaN,NaN,NaN,1100,0,5,1
191,95708,0,192,3,3,0,no_gain4,gain5,F,H,19,6,faces,outdoor_scenes,73,80,Stimuli/Experimental_stims/faces/joel-mott-LaK153ghdig-unsplash.jpg,Stimuli/Experimental_stims/outdoor_scenes/meng-ji-8BH_M-53CyA-unsplash.jpg,1,NaN,,NaN,unchosen,NaN,NaN,NaN,NaN,1400,0,5,1
192,95708,0,193,3,3,1,gain3,no_gain1,C,A,5,38,outdoor_scenes,objects,79,83,Stimuli/Experimental_stims/outdoor_scenes/jeff-king-bJHWJeiHfHc-unsplash.jpg,Stimuli/Experimental_stims/objects/art-lasovsky-8XddFc6NkBY-unsplash.jpg,0,0,17,0,unchosen,38,5,objects,outdoor_scenes,2600,0,5,1
193,95708,0,194,3,3,1,gain6,no_gain4,I,F,4,19,outdoor_scenes,faces,75,73,Stimuli/Experimental_stims/outdoor_scenes/jarrett-kow-1ZOyYPOBn7I-unsplash.jpg,Stimuli/Experimental_stims/faces/joel-mott-LaK153ghdig-unsplash.jpg,0,0,276,0,unchosen,19,4,faces,outdoor_scenes,1100,0,5,1
194,95708,0,195,3,3,1,gain1,no_gain3,D,L,39,18,objects,faces,79,73,Stimuli/Experimental_stims/objects/charlesdeluvio-1-nx1QR5dTE-unsplash.jpg,Stimuli/Experimental_stims/faces/jessica-radanavong-mrYkTuAesKE-unsplash.jpg,0,0,1308,0,chosen,18,39,faces,objects,4100,1,5,1
195,95708,0,196,3,3,1,gain6,no_gain3,I,L,4,25,outdoor_scenes,body_parts,75,84,Stimuli/Experimental_stims/outdoor_scenes/jarrett-kow-1ZOyYPOBn7I-unsplash.jpg,Stimuli/Experimental_stims/body_parts/engin-akyurt-Q2rfH3GW39c-unsplash.jpg,1,NaN,,NaN,unchosen,NaN,NaN,NaN,NaN,1000,0,5,1
196,95708,0,197,3,3,0,no_gain3,gain4,L,K,18,45,faces,objects,73,73,Stimuli/Experimental_stims/faces/jessica-radanavong-mrYkTuAesKE-unsplash.jpg,Stimuli/Experimental_stims/objects/leohoho-rngTKHXumy0-unsplash.jpg,1,NaN,,NaN,chosen,NaN,NaN,NaN,NaN,1800,0,5,1
197,95708,0,198,3,3,1,gain1,no_gain3,D,L,14,25,faces,body_parts,79,84,Stimuli/Experimental_stims/faces/david-siglin-UuW4psOb388-unsplash.jpg,Stimuli/Experimental_stims/body_parts/engin-akyurt-Q2rfH3GW39c-unsplash.jpg,1,NaN,,NaN,unchosen,NaN,NaN,NaN,NaN,1600,0,5,1
198,95708,0,199,3,3,1,gain4,no_gain6,K,B,30,9,body_parts,outdoor_scenes,75,73,Stimuli/Experimental_stims/body_parts/mika-korhonen-Xodzxosar18-unsplash.jpg,Stimuli/Experimental_stims/outdoor_scenes/sergey-pesterev-y-b_FOmJXdg-unsplash.jpg,1,NaN,,NaN,unchosen,NaN,NaN,NaN,NaN,2100,0,5,1
199,95708,0,200,3,3,1,gain2,no_gain4,G,F,0,19,outdoor_scenes,faces,81,73,Stimuli/Experimental_stims/outdoor_scenes/aleksandra-boguslawska-MS7KD9Ti7FQ-unsplash.jpg,Stimuli/Experimental_stims/faces/joel-mott-LaK153ghdig-unsplash.jpg,1,NaN,,NaN,unchosen,NaN,NaN,NaN,NaN,1700,0,5,1
200,95708,0,201,3,3,1,gain5,no_gain3,H,L,17,18,faces,faces,75,73,Stimuli/Experimental_stims/faces/good-faces-xmSWVeGEnJw-unsplash.jpg,Stimuli/Experimental_stims/faces/jessica-radanavong-mrYkTuAesKE-unsplash.jpg,1,NaN,,NaN,chosen,NaN,NaN,NaN,NaN,3200,1,5,1
201,95708,0,202,3,3,0,no_gain6,gain4,B,K,21,45,faces,objects,77,73,Stimuli/Experimental_stims/faces/leilani-angel-K84vnnzxmTQ-unsplash.jpg,Stimuli/Experimental_stims/objects/leohoho-rngTKHXumy0-unsplash.jpg,1,NaN,,NaN,chosen,NaN,NaN,NaN,NaN,1100,0,5,1
202,95708,0,203,3,3,1,gain2,no_gain2,G,E,0,33,outdoor_scenes,body_parts,81,67,Stimuli/Experimental_stims/outdoor_scenes/aleksandra-boguslawska-MS7KD9Ti7FQ-unsplash.jpg,Stimuli/Experimental_stims/body_parts/tucker-good-36skLT5jZcc-unsplash.jpg,1,NaN,,NaN,unchosen,NaN,NaN,NaN,NaN,2800,0,5,1
203,95708,0,204,3,3,1,gain2,no_gain5,G,J,42,46,objects,objects,78,74,Stimuli/Experimental_stims/objects/jess-bailey-nOeVi8DsN8U-unsplash.jpg,Stimuli/Experimental_stims/objects/mockup-graphics-PNsj6RiHAF4-unsplash.jpg,0,0,173,0,chosen,46,42,objects,objects,1400,0,5,1
204,95708,0,205,3,3,1,gain1,no_gain2,D,E,39,43,objects,objects,79,89,Stimuli/Experimental_stims/objects/charlesdeluvio-1-nx1QR5dTE-unsplash.jpg,Stimuli/Experimental_stims/objects/jonathan-greenaway-Y4hGgeiFn3s-unsplash.jpg,0,1,122,1,chosen,39,43,objects,objects,2200,0,5,1
205,95708,0,206,3,3,1,gain3,no_gain3,C,L,5,25,outdoor_scenes,body_parts,79,84,Stimuli/Experimental_stims/outdoor_scenes/jeff-king-bJHWJeiHfHc-unsplash.jpg,Stimuli/Experimental_stims/body_parts/engin-akyurt-Q2rfH3GW39c-unsplash.jpg,0,1,167,1,unchosen,5,25,outdoor_scenes,body_parts,1200,0,5,1
206,95708,0,207,3,3,0,no_gain6,gain5,B,H,21,17,faces,faces,77,75,Stimuli/Experimental_stims/faces/leilani-angel-K84vnnzxmTQ-unsplash.jpg,Stimuli/Experimental_stims/faces/good-faces-xmSWVeGEnJw-unsplash.jpg,0,0,262,1,chosen,17,21,faces,faces,2100,0,5,1
207,95708,0,208,3,3,1,gain1,no_gain5,D,J,39,46,objects,objects,79,74,Stimuli/Experimental_stims/objects/charlesdeluvio-1-nx1QR5dTE-unsplash.jpg,Stimuli/Experimental_stims/objects/mockup-graphics-PNsj6RiHAF4-unsplash.jpg,0,0,105,0,chosen,46,39,objects,objects,2600,0,5,1
208,95708,0,209,3,3,0,no_gain2,gain3,E,C,33,5,body_parts,outdoor_scenes,67,79,Stimuli/Experimental_stims/body_parts/tucker-good-36skLT5jZcc-unsplash.jpg,Stimuli/Experimental_stims/outdoor_scenes/jeff-king-bJHWJeiHfHc-unsplash.jpg,0,0,108,1,unchosen,5,33,outdoor_scenes,body_parts,3800,1,5,1
209,95708,0,210,3,3,0,no_gain6,gain1,B,D,21,39,faces,objects,77,79,Stimuli/Experimental_stims/faces/leilani-angel-K84vnnzxmTQ-unsplash.jpg,Stimuli/Experimental_stims/objects/charlesdeluvio-1-nx1QR5dTE-unsplash.jpg,0,1,13,0,chosen,21,39,faces,objects,2300,0,5,1
210,95708,0,211,3,3,1,gain3,no_gain2,C,E,26,43,body_parts,objects,79,89,Stimuli/Experimental_stims/body_parts/engin-akyurt-x_3gyC42btc-unsplash.jpg,Stimuli/Experimental_stims/objects/jonathan-greenaway-Y4hGgeiFn3s-unsplash.jpg,0,0,85,0,chosen,43,26,objects,body_parts,1500,0,5,1
211,95708,0,212,3,3,0,no_gain3,gain2,L,G,25,0,body_parts,outdoor_scenes,84,81,Stimuli/Experimental_stims/body_parts/engin-akyurt-Q2rfH3GW39c-unsplash.jpg,Stimuli/Experimental_stims/outdoor_scenes/aleksandra-boguslawska-MS7KD9Ti7FQ-unsplash.jpg,0,0,83,1,unchosen,0,25,outdoor_scenes,body_parts,1700,0,5,1
212,95708,0,213,3,3,1,gain5,no_gain5,H,J,6,12,outdoor_scenes,faces,80,72,Stimuli/Experimental_stims/outdoor_scenes/meng-ji-8BH_M-53CyA-unsplash.jpg,Stimuli/Experimental_stims/faces/aiony-haust-jmATI5Q_YgY-unsplash.jpg,0,0,182,0,unchosen,12,6,faces,outdoor_scenes,1000,0,5,1
213,95708,0,214,3,3,1,gain6,no_gain5,I,J,4,12,outdoor_scenes,faces,75,72,Stimuli/Experimental_stims/outdoor_scenes/jarrett-kow-1ZOyYPOBn7I-unsplash.jpg,Stimuli/Experimental_stims/faces/aiony-haust-jmATI5Q_YgY-unsplash.jpg,0,1,72,1,unchosen,4,12,outdoor_scenes,faces,2800,0,5,1
214,95708,0,215,3,3,0,no_gain1,gain5,A,H,2,17,outdoor_scenes,faces,66,75,Stimuli/Experimental_stims/outdoor_scenes/bruno-van-der-kraan-qez8mNJ3ilU-unsplash.jpg,Stimuli/Experimental_stims/faces/good-faces-xmSWVeGEnJw-unsplash.jpg,0,1,229,0,chosen,2,17,outdoor_scenes,faces,2400,0,5,1
215,95708,0,216,3,3,0,no_gain1,gain5,A,H,38,6,objects,outdoor_scenes,83,80,Stimuli/Experimental_stims/objects/art-lasovsky-8XddFc6NkBY-unsplash.jpg,Stimuli/Experimental_stims/outdoor_scenes/meng-ji-8BH_M-53CyA-unsplash.jpg,0,0,21,1,unchosen,6,38,outdoor_scenes,objects,3800,1,5,1
216,95708,0,217,3,3,0,no_gain5,gain3,J,C,12,5,faces,outdoor_scenes,72,79,Stimuli/Experimental_stims/faces/aiony-haust-jmATI5Q_YgY-unsplash.jpg,Stimuli/Experimental_stims/outdoor_scenes/jeff-king-bJHWJeiHfHc-unsplash.jpg,0,0,135,1,unchosen,5,12,outdoor_scenes,faces,1500,0,5,1
217,95708,0,218,3,3,0,no_gain5,gain1,J,D,12,14,faces,faces,72,79,Stimuli/Experimental_stims/faces/aiony-haust-jmATI5Q_YgY-unsplash.jpg,Stimuli/Experimental_stims/faces/david-siglin-UuW4psOb388-unsplash.jpg,0,1,306,0,unchosen,12,14,faces,faces,1100,0,5,1
218,95708,0,219,3,3,1,gain4,no_gain2,K,E,45,43,objects,objects,73,89,Stimuli/Experimental_stims/objects/leohoho-rngTKHXumy0-unsplash.jpg,Stimuli/Experimental_stims/objects/jonathan-greenaway-Y4hGgeiFn3s-unsplash.jpg,0,0,378,0,chosen,43,45,objects,objects,1500,0,5,1
219,95708,0,220,3,3,0,no_gain2,gain6,E,I,43,31,objects,body_parts,89,73,Stimuli/Experimental_stims/objects/jonathan-greenaway-Y4hGgeiFn3s-unsplash.jpg,Stimuli/Experimental_stims/body_parts/sincerely-media-VN6DbKajo5s-unsplash.jpg,0,0,12,1,chosen,31,43,body_parts,objects,2500,0,5,1
220,95708,0,221,4,4,0,no_gain5,gain1,J,D,12,14,faces,faces,72,79,Stimuli/Experimental_stims/faces/aiony-haust-jmATI5Q_YgY-unsplash.jpg,Stimuli/Experimental_stims/faces/david-siglin-UuW4psOb388-unsplash.jpg,0,1,1229,0,unchosen,12,14,faces,faces,3400,1,3,1
221,95708,0,222,4,4,0,no_gain5,gain4,J,K,46,45,objects,objects,74,73,Stimuli/Experimental_stims/objects/mockup-graphics-PNsj6RiHAF4-unsplash.jpg,Stimuli/Experimental_stims/objects/leohoho-rngTKHXumy0-unsplash.jpg,0,0,71,1,chosen,45,46,objects,objects,1500,0,3,1
222,95708,0,223,4,4,0,no_gain2,gain3,E,C,33,5,body_parts,outdoor_scenes,67,79,Stimuli/Experimental_stims/body_parts/tucker-good-36skLT5jZcc-unsplash.jpg,Stimuli/Experimental_stims/outdoor_scenes/jeff-king-bJHWJeiHfHc-unsplash.jpg,0,1,45,0,unchosen,33,5,body_parts,outdoor_scenes,2000,0,3,1
223,95708,0,224,4,4,0,no_gain4,gain3,F,C,19,5,faces,outdoor_scenes,73,79,Stimuli/Experimental_stims/faces/joel-mott-LaK153ghdig-unsplash.jpg,Stimuli/Experimental_stims/outdoor_scenes/jeff-king-bJHWJeiHfHc-unsplash.jpg,0,0,25,1,unchosen,5,19,outdoor_scenes,faces,1100,0,3,1
224,95708,0,225,4,4,0,no_gain1,gain6,A,I,38,4,objects,outdoor_scenes,83,75,Stimuli/Experimental_stims/objects/art-lasovsky-8XddFc6NkBY-unsplash.jpg,Stimuli/Experimental_stims/outdoor_scenes/jarrett-kow-1ZOyYPOBn7I-unsplash.jpg,0,0,172,1,unchosen,4,38,outdoor_scenes,objects,2700,0,3,1
225,95708,0,226,4,4,0,no_gain4,gain2,F,G,28,42,body_parts,objects,50,78,Stimuli/Experimental_stims/body_parts/ira-vishnevskaya-8DQAvdCby1I-unsplash.jpg,Stimuli/Experimental_stims/objects/jess-bailey-nOeVi8DsN8U-unsplash.jpg,0,1,332,0,chosen,28,42,body_parts,objects,1700,0,3,1
226,95708,0,227,4,4,0,no_gain1,gain1,A,D,2,39,outdoor_scenes,objects,66,79,Stimuli/Experimental_stims/outdoor_scenes/bruno-van-der-kraan-qez8mNJ3ilU-unsplash.jpg,Stimuli/Experimental_stims/objects/charlesdeluvio-1-nx1QR5dTE-unsplash.jpg,0,0,47,1,chosen,39,2,objects,outdoor_scenes,3500,1,3,1
227,95708,0,228,4,4,0,no_gain3,gain3,L,C,25,5,body_parts,outdoor_scenes,84,79,Stimuli/Experimental_stims/body_parts/engin-akyurt-Q2rfH3GW39c-unsplash.jpg,Stimuli/Experimental_stims/outdoor_scenes/jeff-king-bJHWJeiHfHc-unsplash.jpg,0,1,180,0,unchosen,25,5,body_parts,outdoor_scenes,2700,0,3,1
228,95708,0,229,4,4,1,gain4,no_gain5,K,J,30,12,body_parts,faces,75,72,Stimuli/Experimental_stims/body_parts/mika-korhonen-Xodzxosar18-unsplash.jpg,Stimuli/Experimental_stims/faces/aiony-haust-jmATI5Q_YgY-unsplash.jpg,0,1,255,1,unchosen,30,12,body_parts,faces,1500,0,3,1
229,95708,0,230,4,4,0,no_gain6,gain1,B,D,21,39,faces,objects,77,79,Stimuli/Experimental_stims/faces/leilani-angel-K84vnnzxmTQ-unsplash.jpg,Stimuli/Experimental_stims/objects/charlesdeluvio-1-nx1QR5dTE-unsplash.jpg,0,1,58,0,chosen,21,39,faces,objects,1700,0,3,1
230,95708,0,231,4,4,0,no_gain1,gain2,A,G,38,0,objects,outdoor_scenes,83,81,Stimuli/Experimental_stims/objects/art-lasovsky-8XddFc6NkBY-unsplash.jpg,Stimuli/Experimental_stims/outdoor_scenes/aleksandra-boguslawska-MS7KD9Ti7FQ-unsplash.jpg,0,1,142,0,unchosen,38,0,objects,outdoor_scenes,2300,0,3,1
231,95708,0,232,4,4,0,no_gain4,gain6,F,I,28,31,body_parts,body_parts,50,73,Stimuli/Experimental_stims/body_parts/ira-vishnevskaya-8DQAvdCby1I-unsplash.jpg,Stimuli/Experimental_stims/body_parts/sincerely-media-VN6DbKajo5s-unsplash.jpg,0,1,3,0,chosen,28,31,body_parts,body_parts,3100,1,3,1
232,95708,0,233,4,4,1,gain5,no_gain3,H,L,17,18,faces,faces,75,73,Stimuli/Experimental_stims/faces/good-faces-xmSWVeGEnJw-unsplash.jpg,Stimuli/Experimental_stims/faces/jessica-radanavong-mrYkTuAesKE-unsplash.jpg,0,1,39,1,chosen,17,18,faces,faces,1300,0,3,1
233,95708,0,234,4,4,1,gain1,no_gain3,D,L,39,18,objects,faces,79,73,Stimuli/Experimental_stims/objects/charlesdeluvio-1-nx1QR5dTE-unsplash.jpg,Stimuli/Experimental_stims/faces/jessica-radanavong-mrYkTuAesKE-unsplash.jpg,0,1,134,1,chosen,39,18,objects,faces,1400,0,3,1
234,95708,0,235,4,4,1,gain2,no_gain4,G,F,0,19,outdoor_scenes,faces,81,73,Stimuli/Experimental_stims/outdoor_scenes/aleksandra-boguslawska-MS7KD9Ti7FQ-unsplash.jpg,Stimuli/Experimental_stims/faces/joel-mott-LaK153ghdig-unsplash.jpg,0,1,91,1,unchosen,0,19,outdoor_scenes,faces,2500,0,3,1
235,95708,0,236,4,4,1,gain2,no_gain5,G,J,0,12,outdoor_scenes,faces,81,72,Stimuli/Experimental_stims/outdoor_scenes/aleksandra-boguslawska-MS7KD9Ti7FQ-unsplash.jpg,Stimuli/Experimental_stims/faces/aiony-haust-jmATI5Q_YgY-unsplash.jpg,0,0,30,0,unchosen,12,0,faces,outdoor_scenes,1500,0,3,1
236,95708,0,237,4,4,1,gain4,no_gain1,K,A,30,38,body_parts,objects,75,83,Stimuli/Experimental_stims/body_parts/mika-korhonen-Xodzxosar18-unsplash.jpg,Stimuli/Experimental_stims/objects/art-lasovsky-8XddFc6NkBY-unsplash.jpg,0,1,4,1,unchosen,30,38,body_parts,objects,1900,0,3,1
237,95708,0,238,4,4,1,gain6,no_gain3,I,L,31,18,body_parts,faces,73,73,Stimuli/Experimental_stims/body_parts/sincerely-media-VN6DbKajo5s-unsplash.jpg,Stimuli/Experimental_stims/faces/jessica-radanavong-mrYkTuAesKE-unsplash.jpg,0,1,85,1,chosen,31,18,body_parts,faces,1200,0,3,1
238,95708,0,239,4,4,1,gain2,no_gain5,G,J,42,46,objects,objects,78,74,Stimuli/Experimental_stims/objects/jess-bailey-nOeVi8DsN8U-unsplash.jpg,Stimuli/Experimental_stims/objects/mockup-graphics-PNsj6RiHAF4-unsplash.jpg,0,0,1177,0,chosen,46,42,objects,objects,3500,1,3,1
239,95708,0,240,4,4,0,no_gain2,gain6,E,I,33,4,body_parts,outdoor_scenes,67,75,Stimuli/Experimental_stims/body_parts/tucker-good-36skLT5jZcc-unsplash.jpg,Stimuli/Experimental_stims/outdoor_scenes/jarrett-kow-1ZOyYPOBn7I-unsplash.jpg,0,1,306,0,unchosen,33,4,body_parts,outdoor_scenes,1500,0,3,1
240,95708,0,241,4,4,1,gain5,no_gain6,H,B,17,21,faces,faces,75,77,Stimuli/Experimental_stims/faces/good-faces-xmSWVeGEnJw-unsplash.jpg,Stimuli/Experimental_stims/faces/leilani-angel-K84vnnzxmTQ-unsplash.jpg,0,0,11,0,chosen,21,17,faces,faces,2200,0,3,1
241,95708,0,242,4,4,1,gain6,no_gain2,I,E,31,43,body_parts,objects,73,89,Stimuli/Experimental_stims/body_parts/sincerely-media-VN6DbKajo5s-unsplash.jpg,Stimuli/Experimental_stims/objects/jonathan-greenaway-Y4hGgeiFn3s-unsplash.jpg,0,0,200,0,chosen,43,31,objects,body_parts,1100,0,3,1
242,95708,0,243,4,4,0,no_gain3,gain2,L,G,18,42,faces,objects,73,78,Stimuli/Experimental_stims/faces/jessica-radanavong-mrYkTuAesKE-unsplash.jpg,Stimuli/Experimental_stims/objects/jess-bailey-nOeVi8DsN8U-unsplash.jpg,0,0,23,1,chosen,42,18,objects,faces,1300,0,3,1
243,95708,0,244,4,4,0,no_gain3,gain5,L,H,25,6,body_parts,outdoor_scenes,84,80,Stimuli/Experimental_stims/body_parts/engin-akyurt-Q2rfH3GW39c-unsplash.jpg,Stimuli/Experimental_stims/outdoor_scenes/meng-ji-8BH_M-53CyA-unsplash.jpg,1,NaN,,NaN,unchosen,NaN,NaN,NaN,NaN,1500,0,3,1
244,95708,0,245,4,4,0,no_gain6,gain6,B,I,21,31,faces,body_parts,77,73,Stimuli/Experimental_stims/faces/leilani-angel-K84vnnzxmTQ-unsplash.jpg,Stimuli/Experimental_stims/body_parts/sincerely-media-VN6DbKajo5s-unsplash.jpg,0,1,702,0,chosen,21,31,faces,body_parts,1100,0,3,1
245,95708,0,246,4,4,1,gain3,no_gain6,C,B,26,21,body_parts,faces,79,77,Stimuli/Experimental_stims/body_parts/engin-akyurt-x_3gyC42btc-unsplash.jpg,Stimuli/Experimental_stims/faces/leilani-angel-K84vnnzxmTQ-unsplash.jpg,0,0,8,0,chosen,21,26,faces,body_parts,2000,0,3,1
246,95708,0,247,4,4,0,no_gain2,gain5,E,H,33,6,body_parts,outdoor_scenes,67,80,Stimuli/Experimental_stims/body_parts/tucker-good-36skLT5jZcc-unsplash.jpg,Stimuli/Experimental_stims/outdoor_scenes/meng-ji-8BH_M-53CyA-unsplash.jpg,0,1,11,0,unchosen,33,6,body_parts,outdoor_scenes,4700,1,3,1
247,95708,0,248,4,4,0,no_gain1,gain3,A,C,2,26,outdoor_scenes,body_parts,66,79,Stimuli/Experimental_stims/outdoor_scenes/bruno-van-der-kraan-qez8mNJ3ilU-unsplash.jpg,Stimuli/Experimental_stims/body_parts/engin-akyurt-x_3gyC42btc-unsplash.jpg,0,0,31,1,chosen,26,2,body_parts,outdoor_scenes,2400,0,3,1
248,95708,0,249,4,4,1,gain4,no_gain2,K,E,30,33,body_parts,body_parts,75,67,Stimuli/Experimental_stims/body_parts/mika-korhonen-Xodzxosar18-unsplash.jpg,Stimuli/Experimental_stims/body_parts/tucker-good-36skLT5jZcc-unsplash.jpg,0,1,37,1,unchosen,30,33,body_parts,body_parts,1100,0,3,1
249,95708,0,250,4,4,1,gain6,no_gain5,I,J,31,46,body_parts,objects,73,74,Stimuli/Experimental_stims/body_parts/sincerely-media-VN6DbKajo5s-unsplash.jpg,Stimuli/Experimental_stims/objects/mockup-graphics-PNsj6RiHAF4-unsplash.jpg,0,1,125,1,chosen,31,46,body_parts,objects,2400,0,3,1
250,95708,0,251,4,4,1,gain4,no_gain6,K,B,30,9,body_parts,outdoor_scenes,75,73,Stimuli/Experimental_stims/body_parts/mika-korhonen-Xodzxosar18-unsplash.jpg,Stimuli/Experimental_stims/outdoor_scenes/sergey-pesterev-y-b_FOmJXdg-unsplash.jpg,0,1,220,1,unchosen,30,9,body_parts,outdoor_scenes,1600,0,3,1
251,95708,0,252,4,4,0,no_gain1,gain1,A,D,38,14,objects,faces,83,79,Stimuli/Experimental_stims/objects/art-lasovsky-8XddFc6NkBY-unsplash.jpg,Stimuli/Experimental_stims/faces/david-siglin-UuW4psOb388-unsplash.jpg,0,0,86,1,unchosen,14,38,faces,objects,2300,0,3,1
252,95708,0,253,4,4,0,no_gain3,gain4,L,K,18,45,faces,objects,73,73,Stimuli/Experimental_stims/faces/jessica-radanavong-mrYkTuAesKE-unsplash.jpg,Stimuli/Experimental_stims/objects/leohoho-rngTKHXumy0-unsplash.jpg,0,1,193,0,chosen,18,45,faces,objects,2500,0,3,1
253,95708,0,254,4,4,1,gain3,no_gain5,C,J,26,46,body_parts,objects,79,74,Stimuli/Experimental_stims/body_parts/engin-akyurt-x_3gyC42btc-unsplash.jpg,Stimuli/Experimental_stims/objects/mockup-graphics-PNsj6RiHAF4-unsplash.jpg,0,0,84,0,chosen,46,26,objects,body_parts,3700,1,3,1
254,95708,0,255,4,4,1,gain2,no_gain1,G,A,42,2,objects,outdoor_scenes,78,66,Stimuli/Experimental_stims/objects/jess-bailey-nOeVi8DsN8U-unsplash.jpg,Stimuli/Experimental_stims/outdoor_scenes/bruno-van-der-kraan-qez8mNJ3ilU-unsplash.jpg,0,1,72,1,chosen,42,2,objects,outdoor_scenes,2100,0,3,1
255,95708,0,256,4,4,1,gain6,no_gain3,I,L,4,25,outdoor_scenes,body_parts,75,84,Stimuli/Experimental_stims/outdoor_scenes/jarrett-kow-1ZOyYPOBn7I-unsplash.jpg,Stimuli/Experimental_stims/body_parts/engin-akyurt-Q2rfH3GW39c-unsplash.jpg,0,1,177,1,unchosen,4,25,outdoor_scenes,body_parts,2300,0,3,1
256,95708,0,257,4,4,0,no_gain6,gain1,B,D,9,14,outdoor_scenes,faces,73,79,Stimuli/Experimental_stims/outdoor_scenes/sergey-pesterev-y-b_FOmJXdg-unsplash.jpg,Stimuli/Experimental_stims/faces/david-siglin-UuW4psOb388-unsplash.jpg,0,1,1181,0,unchosen,9,14,outdoor_scenes,faces,1700,0,3,1
257,95708,0,258,4,4,0,no_gain4,gain6,F,I,19,4,faces,outdoor_scenes,73,75,Stimuli/Experimental_stims/faces/joel-mott-LaK153ghdig-unsplash.jpg,Stimuli/Experimental_stims/outdoor_scenes/jarrett-kow-1ZOyYPOBn7I-unsplash.jpg,0,0,92,1,unchosen,4,19,outdoor_scenes,faces,2900,0,3,1
258,95708,0,259,4,4,0,no_gain4,gain1,F,D,28,39,body_parts,objects,50,79,Stimuli/Experimental_stims/body_parts/ira-vishnevskaya-8DQAvdCby1I-unsplash.jpg,Stimuli/Experimental_stims/objects/charlesdeluvio-1-nx1QR5dTE-unsplash.jpg,0,1,167,0,chosen,28,39,body_parts,objects,3000,1,3,1
259,95708,0,260,4,4,1,gain2,no_gain3,G,L,0,25,outdoor_scenes,body_parts,81,84,Stimuli/Experimental_stims/outdoor_scenes/aleksandra-boguslawska-MS7KD9Ti7FQ-unsplash.jpg,Stimuli/Experimental_stims/body_parts/engin-akyurt-Q2rfH3GW39c-unsplash.jpg,0,0,25,0,unchosen,25,0,body_parts,outdoor_scenes,2600,0,3,1
260,95708,0,261,4,4,0,no_gain6,gain5,B,H,9,6,outdoor_scenes,outdoor_scenes,73,80,Stimuli/Experimental_stims/outdoor_scenes/sergey-pesterev-y-b_FOmJXdg-unsplash.jpg,Stimuli/Experimental_stims/outdoor_scenes/meng-ji-8BH_M-53CyA-unsplash.jpg,0,0,72,1,unchosen,6,9,outdoor_scenes,outdoor_scenes,1700,0,3,1
261,95708,0,262,4,4,0,no_gain3,gain1,L,D,25,14,body_parts,faces,84,79,Stimuli/Experimental_stims/body_parts/engin-akyurt-Q2rfH3GW39c-unsplash.jpg,Stimuli/Experimental_stims/faces/david-siglin-UuW4psOb388-unsplash.jpg,0,1,55,0,unchosen,25,14,body_parts,faces,1800,0,3,1
262,95708,0,263,4,4,1,gain5,no_gain5,H,J,17,46,faces,objects,75,74,Stimuli/Experimental_stims/faces/good-faces-xmSWVeGEnJw-unsplash.jpg,Stimuli/Experimental_stims/objects/mockup-graphics-PNsj6RiHAF4-unsplash.jpg,0,1,141,1,chosen,17,46,faces,objects,1400,0,3,1
263,95708,0,264,4,4,0,no_gain2,gain1,E,D,43,39,objects,objects,89,79,Stimuli/Experimental_stims/objects/jonathan-greenaway-Y4hGgeiFn3s-unsplash.jpg,Stimuli/Experimental_stims/objects/charlesdeluvio-1-nx1QR5dTE-unsplash.jpg,0,1,40,0,chosen,43,39,objects,objects,2200,0,3,1
264,95708,0,265,4,4,0,no_gain2,gain1,E,D,33,14,body_parts,faces,67,79,Stimuli/Experimental_stims/body_parts/tucker-good-36skLT5jZcc-unsplash.jpg,Stimuli/Experimental_stims/faces/david-siglin-UuW4psOb388-unsplash.jpg,0,1,94,0,unchosen,33,14,body_parts,faces,3500,1,3,1
265,95708,0,266,4,4,1,gain3,no_gain3,C,L,26,18,body_parts,faces,79,73,Stimuli/Experimental_stims/body_parts/engin-akyurt-x_3gyC42btc-unsplash.jpg,Stimuli/Experimental_stims/faces/jessica-radanavong-mrYkTuAesKE-unsplash.jpg,0,1,756,1,chosen,26,18,body_parts,faces,1400,0,3,1
266,95708,0,267,4,4,0,no_gain2,gain4,E,K,43,45,objects,objects,89,73,Stimuli/Experimental_stims/objects/jonathan-greenaway-Y4hGgeiFn3s-unsplash.jpg,Stimuli/Experimental_stims/objects/leohoho-rngTKHXumy0-unsplash.jpg,0,1,168,0,chosen,43,45,objects,objects,1100,0,3,1
267,95708,0,268,4,4,1,gain6,no_gain1,I,A,31,2,body_parts,outdoor_scenes,73,66,Stimuli/Experimental_stims/body_parts/sincerely-media-VN6DbKajo5s-unsplash.jpg,Stimuli/Experimental_stims/outdoor_scenes/bruno-van-der-kraan-qez8mNJ3ilU-unsplash.jpg,0,1,228,1,chosen,31,2,body_parts,outdoor_scenes,1300,0,3,1
268,95708,0,269,4,4,0,no_gain1,gain3,A,C,38,5,objects,outdoor_scenes,83,79,Stimuli/Experimental_stims/objects/art-lasovsky-8XddFc6NkBY-unsplash.jpg,Stimuli/Experimental_stims/outdoor_scenes/jeff-king-bJHWJeiHfHc-unsplash.jpg,0,0,161,1,unchosen,5,38,outdoor_scenes,objects,2600,0,3,1
269,95708,0,270,4,4,0,no_gain4,gain4,F,K,28,45,body_parts,objects,50,73,Stimuli/Experimental_stims/body_parts/ira-vishnevskaya-8DQAvdCby1I-unsplash.jpg,Stimuli/Experimental_stims/objects/leohoho-rngTKHXumy0-unsplash.jpg,0,0,216,1,chosen,45,28,objects,body_parts,1100,0,3,1
270,95708,0,271,4,4,1,gain1,no_gain4,D,F,14,19,faces,faces,79,73,Stimuli/Experimental_stims/faces/david-siglin-UuW4psOb388-unsplash.jpg,Stimuli/Experimental_stims/faces/joel-mott-LaK153ghdig-unsplash.jpg,0,1,92,1,unchosen,14,19,faces,faces,1400,0,3,1
271,95708,0,272,4,4,1,gain4,no_gain3,K,L,30,25,body_parts,body_parts,75,84,Stimuli/Experimental_stims/body_parts/mika-korhonen-Xodzxosar18-unsplash.jpg,Stimuli/Experimental_stims/body_parts/engin-akyurt-Q2rfH3GW39c-unsplash.jpg,0,0,64,0,unchosen,25,30,body_parts,body_parts,3200,1,3,1
272,95708,0,273,4,4,0,no_gain6,gain2,B,G,21,42,faces,objects,77,78,Stimuli/Experimental_stims/faces/leilani-angel-K84vnnzxmTQ-unsplash.jpg,Stimuli/Experimental_stims/objects/jess-bailey-nOeVi8DsN8U-unsplash.jpg,0,0,22,1,chosen,42,21,objects,faces,1600,0,3,1
273,95708,0,274,4,4,0,no_gain2,gain5,E,H,43,17,objects,faces,89,75,Stimuli/Experimental_stims/objects/jonathan-greenaway-Y4hGgeiFn3s-unsplash.jpg,Stimuli/Experimental_stims/faces/good-faces-xmSWVeGEnJw-unsplash.jpg,0,0,1,1,chosen,17,43,faces,objects,1000,0,3,1
274,95708,0,275,4,4,1,gain1,no_gain5,D,J,39,46,objects,objects,79,74,Stimuli/Experimental_stims/objects/charlesdeluvio-1-nx1QR5dTE-unsplash.jpg,Stimuli/Experimental_stims/objects/mockup-graphics-PNsj6RiHAF4-unsplash.jpg,0,1,223,1,chosen,39,46,objects,objects,1700,0,3,1
275,95708,0,276,4,4,1,gain4,no_gain4,K,F,30,19,body_parts,faces,75,73,Stimuli/Experimental_stims/body_parts/mika-korhonen-Xodzxosar18-unsplash.jpg,Stimuli/Experimental_stims/faces/joel-mott-LaK153ghdig-unsplash.jpg,0,1,156,1,unchosen,30,19,body_parts,faces,1200,0,3,1
276,95708,0,277,4,4,1,gain3,no_gain5,C,J,5,12,outdoor_scenes,faces,79,72,Stimuli/Experimental_stims/outdoor_scenes/jeff-king-bJHWJeiHfHc-unsplash.jpg,Stimuli/Experimental_stims/faces/aiony-haust-jmATI5Q_YgY-unsplash.jpg,0,1,356,1,unchosen,5,12,outdoor_scenes,faces,2200,0,3,1
277,95708,0,278,4,4,0,no_gain5,gain6,J,I,12,4,faces,outdoor_scenes,72,75,Stimuli/Experimental_stims/faces/aiony-haust-jmATI5Q_YgY-unsplash.jpg,Stimuli/Experimental_stims/outdoor_scenes/jarrett-kow-1ZOyYPOBn7I-unsplash.jpg,0,0,35,1,unchosen,4,12,outdoor_scenes,faces,2000,0,3,1
278,95708,0,279,4,4,1,gain3,no_gain4,C,F,26,28,body_parts,body_parts,79,50,Stimuli/Experimental_stims/body_parts/engin-akyurt-x_3gyC42btc-unsplash.jpg,Stimuli/Experimental_stims/body_parts/ira-vishnevskaya-8DQAvdCby1I-unsplash.jpg,0,1,1068,1,chosen,26,28,body_parts,body_parts,3100,1,3,1
279,95708,0,280,4,4,1,gain5,no_gain5,H,J,6,12,outdoor_scenes,faces,80,72,Stimuli/Experimental_stims/outdoor_scenes/meng-ji-8BH_M-53CyA-unsplash.jpg,Stimuli/Experimental_stims/faces/aiony-haust-jmATI5Q_YgY-unsplash.jpg,0,1,16,1,unchosen,6,12,outdoor_scenes,faces,2400,0,3,1
280,95708,0,281,4,4,1,gain4,no_gain1,K,A,45,2,objects,outdoor_scenes,73,66,Stimuli/Experimental_stims/objects/leohoho-rngTKHXumy0-unsplash.jpg,Stimuli/Experimental_stims/outdoor_scenes/bruno-van-der-kraan-qez8mNJ3ilU-unsplash.jpg,0,0,210,0,chosen,2,45,outdoor_scenes,objects,1000,0,3,1
281,95708,0,282,4,4,0,no_gain1,gain5,A,H,2,17,outdoor_scenes,faces,66,75,Stimuli/Experimental_stims/outdoor_scenes/bruno-van-der-kraan-qez8mNJ3ilU-unsplash.jpg,Stimuli/Experimental_stims/faces/good-faces-xmSWVeGEnJw-unsplash.jpg,0,1,230,0,chosen,2,17,outdoor_scenes,faces,1900,0,3,1
282,95708,0,283,4,4,0,no_gain4,gain5,F,H,19,6,faces,outdoor_scenes,73,80,Stimuli/Experimental_stims/faces/joel-mott-LaK153ghdig-unsplash.jpg,Stimuli/Experimental_stims/outdoor_scenes/meng-ji-8BH_M-53CyA-unsplash.jpg,0,0,23,1,unchosen,6,19,outdoor_scenes,faces,2400,0,3,1
283,95708,0,284,4,4,1,gain2,no_gain2,G,E,42,43,objects,objects,78,89,Stimuli/Experimental_stims/objects/jess-bailey-nOeVi8DsN8U-unsplash.jpg,Stimuli/Experimental_stims/objects/jonathan-greenaway-Y4hGgeiFn3s-unsplash.jpg,0,1,132,1,chosen,42,43,objects,objects,1300,0,3,1
284,95708,0,285,4,4,0,no_gain4,gain5,F,H,28,17,body_parts,faces,50,75,Stimuli/Experimental_stims/body_parts/ira-vishnevskaya-8DQAvdCby1I-unsplash.jpg,Stimuli/Experimental_stims/faces/good-faces-xmSWVeGEnJw-unsplash.jpg,0,0,34,1,chosen,17,28,faces,body_parts,1600,0,3,1
285,95708,0,286,4,4,1,gain6,no_gain6,I,B,4,9,outdoor_scenes,outdoor_scenes,75,73,Stimuli/Experimental_stims/outdoor_scenes/jarrett-kow-1ZOyYPOBn7I-unsplash.jpg,Stimuli/Experimental_stims/outdoor_scenes/sergey-pesterev-y-b_FOmJXdg-unsplash.jpg,0,0,43,0,unchosen,9,4,outdoor_scenes,outdoor_scenes,1000,0,3,1
286,95708,0,287,4,4,0,no_gain6,gain4,B,K,21,45,faces,objects,77,73,Stimuli/Experimental_stims/faces/leilani-angel-K84vnnzxmTQ-unsplash.jpg,Stimuli/Experimental_stims/objects/leohoho-rngTKHXumy0-unsplash.jpg,0,0,3,1,chosen,45,21,objects,faces,1500,0,3,1
287,95708,0,288,4,4,1,gain5,no_gain1,H,A,6,38,outdoor_scenes,objects,80,83,Stimuli/Experimental_stims/outdoor_scenes/meng-ji-8BH_M-53CyA-unsplash.jpg,Stimuli/Experimental_stims/objects/art-lasovsky-8XddFc6NkBY-unsplash.jpg,0,1,28,1,unchosen,6,38,outdoor_scenes,objects,1900,0,3,1
288,95708,0,289,4,4,1,gain3,no_gain2,C,E,26,43,body_parts,objects,79,89,Stimuli/Experimental_stims/body_parts/engin-akyurt-x_3gyC42btc-unsplash.jpg,Stimuli/Experimental_stims/objects/jonathan-greenaway-Y4hGgeiFn3s-unsplash.jpg,0,1,68,1,chosen,26,43,body_parts,objects,1600,0,3,1
289,95708,0,290,4,4,1,gain3,no_gain6,C,B,5,9,outdoor_scenes,outdoor_scenes,79,73,Stimuli/Experimental_stims/outdoor_scenes/jeff-king-bJHWJeiHfHc-unsplash.jpg,Stimuli/Experimental_stims/outdoor_scenes/sergey-pesterev-y-b_FOmJXdg-unsplash.jpg,0,1,132,1,unchosen,5,9,outdoor_scenes,outdoor_scenes,1200,0,3,1
290,95708,0,291,4,4,1,gain2,no_gain2,G,E,0,33,outdoor_scenes,body_parts,81,67,Stimuli/Experimental_stims/outdoor_scenes/aleksandra-boguslawska-MS7KD9Ti7FQ-unsplash.jpg,Stimuli/Experimental_stims/body_parts/tucker-good-36skLT5jZcc-unsplash.jpg,0,0,160,0,unchosen,33,0,body_parts,outdoor_scenes,1000,0,3,1
291,95708,0,292,4,4,1,gain2,no_gain6,G,B,0,9,outdoor_scenes,outdoor_scenes,81,73,Stimuli/Experimental_stims/outdoor_scenes/aleksandra-boguslawska-MS7KD9Ti7FQ-unsplash.jpg,Stimuli/Experimental_stims/outdoor_scenes/sergey-pesterev-y-b_FOmJXdg-unsplash.jpg,0,0,98,0,unchosen,9,0,outdoor_scenes,outdoor_scenes,3200,1,3,1