,PID,practice,trial,block,run,gain_left,left_item_id,right_item_id,left_pair_id,right_pair_id,left_stimulus,right_stimulus,left_category,right_category,left_rating,right_rating,left_path,right_path,no_response,left_chosen,rt,higher_outcome_chosen,choice_type,chosen_stimulus,unchosen_stimulus,chosen_category,unchosen_category,iti,long_iti,simulation,version
0,53808,1,1,0,0,0,,,,,,,,,,,Stimuli/Practice_stims/Final_decisions/debby-hudson-FmCSSSGge-0-unsplash.jpg,Stimuli/Practice_stims/Final_decisions/yassine-khalfalli-adsQ9d_Cx0c-unsplash.jpg,0,1,1346,0,,,,,,3000,0,6,1
1,53808,1,2,0,0,0,,,,,,,,,,,Stimuli/Practice_stims/Final_decisions/florian-wehde-iVW7mZPwd4g-unsplash.jpg,Stimuli/Practice_stims/Final_decisions/patrick-perkins-3wylDrjxH-E-unsplash.jpg,0,1,1017,0,,,,,,1500,0,6,1
2,53808,1,3,0,0,0,,,,,,,,,,,Stimuli/Practice_stims/Final_decisions/debby-hudson-FmCSSSGge-0-unsplash.jpg,Stimuli/Practice_stims/Final_decisions/florian-wehde-iVW7mZPwd4g-unsplash.jpg,0,0,1320,1,,,,,,2000,0,6,1
3,53808,1,4,0,0,0,,,,,,,,,,,Stimuli/Practice_stims/Final_decisions/yassine-khalfalli-adsQ9d_Cx0c-unsplash.jpg,Stimuli/Practice_stims/Final_decisions/debby-hudson-FmCSSSGge-0-unsplash.jpg,0,0,972,1,,,,,,1000,0,6,1
4,53808,0,5,1,1,0,no_gain4,gain5,E,L,46,26,objects,body_parts,99,100,Stimuli/Experimental_stims/objects/mockup-graphics-PNsj6RiHAF4-unsplash.jpg,Stimuli/Experimental_stims/body_parts/engin-akyurt-x_3gyC42btc-unsplash.jpg,1,NaN,,NaN,chosen,NaN,NaN,NaN,NaN,1800,0,6,1
5,53808,0,6,1,1,1,gain3,no_gain6,I,F,30,19,body_parts,faces,100,100,Stimuli/Experimental_stims/body_parts/mika-korhonen-Xodzxosar18-unsplash.jpg,Stimuli/Experimental_stims/faces/joel-mott-LaK153ghdig-unsplash.jpg,0,0,463,0,chosen,19,30,faces,body_parts,1700,0,6,1
6,53808,0,7,1,1,1,gain6,no_gain3,G,A,4,42,outdoor_scenes,objects,100,99,Stimuli/Experimental_stims/outdoor_scenes/jarrett-kow-1ZOyYPOBn7I-unsplash.jpg,Stimuli/Experimental_stims/objects/jess-bailey-nOeVi8DsN8U-unsplash.jpg,0,1,221,1,unchosen,4,42,outdoor_scenes,objects,2300,0,6,1
7,53808,0,8,1,1,0,no_gain2,gain3,J,I,22,30,faces,body_parts,100,100,Stimuli/Experimental_stims/faces/ravi-patel-VMGAbeeJTKo-unsplash.jpg,Stimuli/Experimental_stims/body_parts/mika-korhonen-Xodzxosar18-unsplash.jpg,0,0,274,1,chosen,30,22,body_parts,faces,1700,0,6,1
8,53808,0,9,1,1,1,gain4,no_gain5,B,K,17,36,faces,objects,99,100,Stimuli/Experimental_stims/faces/good-faces-xmSWVeGEnJw-unsplash.jpg,Stimuli/Experimental_stims/objects/alexander-andrews-JYGnB9gTCls-unsplash.jpg,0,1,524,1,unchosen,17,36,faces,objects,3900,1,6,1
9,53808,0,10,1,1,1,gain2,no_gain5,H,K,7,36,outdoor_scenes,objects,100,100,Stimuli/Experimental_stims/outdoor_scenes/petr-vysohlid-9fqwGqGLUxc-unsplash.jpg,Stimuli/Experimental_stims/objects/alexander-andrews-JYGnB9gTCls-unsplash.jpg,0,1,564,1,unchosen,7,36,outdoor_scenes,objects,1200,0,6,1
10,53808,0,11,1,1,1,gain2,no_gain5,H,K,21,25,faces,body_parts,100,100,Stimuli/Experimental_stims/faces/leilani-angel-K84vnnzxmTQ-unsplash.jpg,Stimuli/Experimental_stims/body_parts/engin-akyurt-Q2rfH3GW39c-unsplash.jpg,0,1,241,1,chosen,21,25,faces,body_parts,1200,0,6,1
11,53808,0,12,1,1,0,no_gain5,gain5,K,L,25,26,body_parts,body_parts,100,100,Stimuli/Experimental_stims/body_parts/engin-akyurt-Q2rfH3GW39c-unsplash.jpg,Stimuli/Experimental_stims/body_parts/engin-akyurt-x_3gyC42btc-unsplash.jpg,0,1,521,0,chosen,25,26,body_parts,body_parts,2600,0,6,1
12,53808,0,13,1,1,0,no_gain1,gain4,C,B,33,17,body_parts,faces,99,99,Stimuli/Experimental_stims/body_parts/tucker-good-36skLT5jZcc-unsplash.jpg,Stimuli/Experimental_stims/faces/good-faces-xmSWVeGEnJw-unsplash.jpg,0,1,246,0,unchosen,33,17,body_parts,faces,2200,0,6,1
13,53808,0,14,1,1,1,gain4,no_gain6,B,F,0,19,outdoor_scenes,faces,100,100,Stimuli/Experimental_stims/outdoor_scenes/aleksandra-boguslawska-MS7KD9Ti7FQ-unsplash.jpg,Stimuli/Experimental_stims/faces/joel-mott-LaK153ghdig-unsplash.jpg,0,0,277,0,chosen,19,0,faces,outdoor_scenes,1700,0,6,1
14,53808,0,15,1,1,1,gain4,no_gain4,B,E,0,46,outdoor_scenes,objects,100,99,Stimuli/Experimental_stims/outdoor_scenes/aleksandra-boguslawska-MS7KD9Ti7FQ-unsplash.jpg,Stimuli/Experimental_stims/objects/mockup-graphics-PNsj6RiHAF4-unsplash.jpg,0,1,152,1,chosen,0,46,outdoor_scenes,objects,3100,1,6,1
15,53808,0,16,1,1,1,gain2,no_gain1,H,C,7,33,outdoor_scenes,body_parts,100,99,Stimuli/Experimental_stims/outdoor_scenes/petr-vysohlid-9fqwGqGLUxc-unsplash.jpg,Stimuli/Experimental_stims/body_parts/tucker-good-36skLT5jZcc-unsplash.jpg,0,1,609,1,unchosen,7,33,outdoor_scenes,body_parts,2100,0,6,1
16,53808,0,17,1,1,0,no_gain2,gain5,J,L,22,26,faces,body_parts,100,100,Stimuli/Experimental_stims/faces/ravi-patel-VMGAbeeJTKo-unsplash.jpg,Stimuli/Experimental_stims/body_parts/engin-akyurt-x_3gyC42btc-unsplash.jpg,0,0,634,1,chosen,26,22,body_parts,faces,1900,0,6,1
17,53808,0,18,1,1,0,no_gain1,gain5,C,L,3,26,outdoor_scenes,body_parts,100,100,Stimuli/Experimental_stims/outdoor_scenes/henry-be-NLF6hTe4PAg-unsplash.jpg,Stimuli/Experimental_stims/body_parts/engin-akyurt-x_3gyC42btc-unsplash.jpg,0,1,225,0,chosen,3,26,outdoor_scenes,body_parts,1400,0,6,1
18,53808,0,19,1,1,1,gain3,no_gain5,I,K,30,25,body_parts,body_parts,100,100,Stimuli/Experimental_stims/body_parts/mika-korhonen-Xodzxosar18-unsplash.jpg,Stimuli/Experimental_stims/body_parts/engin-akyurt-Q2rfH3GW39c-unsplash.jpg,0,1,360,1,chosen,30,25,body_parts,body_parts,1500,0,6,1
19,53808,0,20,1,1,0,no_gain4,gain2,E,H,34,7,body_parts,outdoor_scenes,100,100,Stimuli/Experimental_stims/body_parts/wagner-santos-mBWMvIuVnso-unsplash.jpg,Stimuli/Experimental_stims/outdoor_scenes/petr-vysohlid-9fqwGqGLUxc-unsplash.jpg,0,0,333,1,unchosen,7,34,outdoor_scenes,body_parts,1600,0,6,1
20,53808,0,21,1,1,0,no_gain1,gain3,C,I,3,30,outdoor_scenes,body_parts,100,100,Stimuli/Experimental_stims/outdoor_scenes/henry-be-NLF6hTe4PAg-unsplash.jpg,Stimuli/Experimental_stims/body_parts/mika-korhonen-Xodzxosar18-unsplash.jpg,0,0,194,1,chosen,30,3,body_parts,outdoor_scenes,3200,1,6,1
21,53808,0,22,1,1,1,gain5,no_gain5,L,K,23,36,faces,objects,100,100,Stimuli/Experimental_stims/faces/rikonavt-HQjfrvdTfak-unsplash.jpg,Stimuli/Experimental_stims/objects/alexander-andrews-JYGnB9gTCls-unsplash.jpg,0,1,492,1,unchosen,23,36,faces,objects,1900,0,6,1
22,53808,0,23,1,1,0,no_gain6,gain6,F,G,31,4,body_parts,outdoor_scenes,100,100,Stimuli/Experimental_stims/body_parts/sincerely-media-VN6DbKajo5s-unsplash.jpg,Stimuli/Experimental_stims/outdoor_scenes/jarrett-kow-1ZOyYPOBn7I-unsplash.jpg,0,1,11,0,unchosen,31,4,body_parts,outdoor_scenes,1600,0,6,1
23,53808,0,24,1,1,0,no_gain6,gain2,F,H,19,21,faces,faces,100,100,Stimuli/Experimental_stims/faces/joel-mott-LaK153ghdig-unsplash.jpg,Stimuli/Experimental_stims/faces/leilani-angel-K84vnnzxmTQ-unsplash.jpg,0,1,479,0,chosen,19,21,faces,faces,1100,0,6,1
24,53808,0,25,1,1,1,gain4,no_gain2,B,J,17,41,faces,objects,99,100,Stimuli/Experimental_stims/faces/good-faces-xmSWVeGEnJw-unsplash.jpg,Stimuli/Experimental_stims/objects/insung-yoon-w2JtIQQXoRU-unsplash.jpg,0,1,235,1,unchosen,17,41,faces,objects,2200,0,6,1
25,53808,0,26,1,1,1,gain2,no_gain3,H,A,7,42,outdoor_scenes,objects,100,99,Stimuli/Experimental_stims/outdoor_scenes/petr-vysohlid-9fqwGqGLUxc-unsplash.jpg,Stimuli/Experimental_stims/objects/jess-bailey-nOeVi8DsN8U-unsplash.jpg,0,1,656,1,unchosen,7,42,outdoor_scenes,objects,3300,1,6,1
26,53808,0,27,1,1,0,no_gain2,gain4,J,B,22,0,faces,outdoor_scenes,100,100,Stimuli/Experimental_stims/faces/ravi-patel-VMGAbeeJTKo-unsplash.jpg,Stimuli/Experimental_stims/outdoor_scenes/aleksandra-boguslawska-MS7KD9Ti7FQ-unsplash.jpg,0,0,505,1,chosen,0,22,outdoor_scenes,faces,2100,0,6,1
27,53808,0,28,1,1,0,no_gain2,gain2,J,H,41,7,objects,outdoor_scenes,100,100,Stimuli/Experimental_stims/objects/insung-yoon-w2JtIQQXoRU-unsplash.jpg,Stimuli/Experimental_stims/outdoor_scenes/petr-vysohlid-9fqwGqGLUxc-unsplash.jpg,0,1,343,0,unchosen,41,7,objects,outdoor_scenes,1000,0,6,1
28,53808,0,29,1,1,0,no_gain4,gain3,E,I,34,1,body_parts,outdoor_scenes,100,100,Stimuli/Experimental_stims/body_parts/wagner-santos-mBWMvIuVnso-unsplash.jpg,Stimuli/Experimental_stims/outdoor_scenes/ashim-d-silva-S2Q5mdOrrVc-unsplash.jpg,0,1,601,0,unchosen,34,1,body_parts,outdoor_scenes,2600,0,6,1
29,53808,0,30,1,1,0,no_gain3,gain2,A,H,8,21,outdoor_scenes,faces,100,100,Stimuli/Experimental_stims/outdoor_scenes/samsommer-vddccTqwal8-unsplash.jpg,Stimuli/Experimental_stims/faces/leilani-angel-K84vnnzxmTQ-unsplash.jpg,0,1,455,0,chosen,8,21,outdoor_scenes,faces,1500,0,6,1
30,53808,0,31,1,1,1,gain5,no_gain4,L,E,23,34,faces,body_parts,100,100,Stimuli/Experimental_stims/faces/rikonavt-HQjfrvdTfak-unsplash.jpg,Stimuli/Experimental_stims/body_parts/wagner-santos-mBWMvIuVnso-unsplash.jpg,0,1,600,1,unchosen,23,34,faces,body_parts,1200,0,6,1
31,53808,0,32,1,1,0,no_gain3,gain5,A,L,42,23,objects,faces,99,100,Stimuli/Experimental_stims/objects/jess-bailey-nOeVi8DsN8U-unsplash.jpg,Stimuli/Experimental_stims/faces/rikonavt-HQjfrvdTfak-unsplash.jpg,1,NaN,,NaN,unchosen,NaN,NaN,NaN,NaN,2100,0,6,1
32,53808,0,33,1,1,0,no_gain5,gain4,K,B,25,0,body_parts,outdoor_scenes,100,100,Stimuli/Experimental_stims/body_parts/engin-akyurt-Q2rfH3GW39c-unsplash.jpg,Stimuli/Experimental_stims/outdoor_scenes/aleksandra-boguslawska-MS7KD9Ti7FQ-unsplash.jpg,0,1,127,0,chosen,25,0,body_parts,outdoor_scenes,4300,1,6,1
33,53808,0,34,1,1,0,no_gain1,gain5,C,L,33,23,body_parts,faces,99,100,Stimuli/Experimental_stims/body_parts/tucker-good-36skLT5jZcc-unsplash.jpg,Stimuli/Experimental_stims/faces/rikonavt-HQjfrvdTfak-unsplash.jpg,0,1,88,0,unchosen,33,23,body_parts,faces,1000,0,6,1
34,53808,0,35,1,1,1,gain1,no_gain3,D,A,43,8,objects,outdoor_scenes,99,100,Stimuli/Experimental_stims/objects/jonathan-greenaway-Y4hGgeiFn3s-unsplash.jpg,Stimuli/Experimental_stims/outdoor_scenes/samsommer-vddccTqwal8-unsplash.jpg,0,1,1101,1,chosen,43,8,objects,outdoor_scenes,2300,0,6,1
35,53808,0,36,1,1,0,no_gain6,gain5,F,L,31,23,body_parts,faces,100,100,Stimuli/Experimental_stims/body_parts/sincerely-media-VN6DbKajo5s-unsplash.jpg,Stimuli/Experimental_stims/faces/rikonavt-HQjfrvdTfak-unsplash.jpg,0,1,32,0,unchosen,31,23,body_parts,faces,1200,0,6,1
36,53808,0,37,1,1,1,gain6,no_gain1,G,C,44,3,objects,outdoor_scenes,100,100,Stimuli/Experimental_stims/objects/kuiye-chen-NuOGFo4PudE-unsplash.jpg,Stimuli/Experimental_stims/outdoor_scenes/henry-be-NLF6hTe4PAg-unsplash.jpg,1,NaN,,NaN,chosen,NaN,NaN,NaN,NaN,1300,0,6,1
37,53808,0,38,1,1,1,gain4,no_gain3,B,A,0,8,outdoor_scenes,outdoor_scenes,100,100,Stimuli/Experimental_stims/outdoor_scenes/aleksandra-boguslawska-MS7KD9Ti7FQ-unsplash.jpg,Stimuli/Experimental_stims/outdoor_scenes/samsommer-vddccTqwal8-unsplash.jpg,0,1,454,1,chosen,0,8,outdoor_scenes,outdoor_scenes,1700,0,6,1
38,53808,0,39,1,1,1,gain1,no_gain5,D,K,43,25,objects,body_parts,99,100,Stimuli/Experimental_stims/objects/jonathan-greenaway-Y4hGgeiFn3s-unsplash.jpg,Stimuli/Experimental_stims/body_parts/engin-akyurt-Q2rfH3GW39c-unsplash.jpg,0,1,324,1,chosen,43,25,objects,body_parts,1300,0,6,1
39,53808,0,40,1,1,0,no_gain6,gain3,F,I,31,1,body_parts,outdoor_scenes,100,100,Stimuli/Experimental_stims/body_parts/sincerely-media-VN6DbKajo5s-unsplash.jpg,Stimuli/Experimental_stims/outdoor_scenes/ashim-d-silva-S2Q5mdOrrVc-unsplash.jpg,1,NaN,,NaN,unchosen,NaN,NaN,NaN,NaN,1200,0,6,1
40,53808,0,41,1,1,0,no_gain2,gain1,J,D,22,43,faces,objects,100,99,Stimuli/Experimental_stims/faces/ravi-patel-VMGAbeeJTKo-unsplash.jpg,Stimuli/Experimental_stims/objects/jonathan-greenaway-Y4hGgeiFn3s-unsplash.jpg,0,1,125,0,chosen,22,43,faces,objects,1900,0,6,1
41,53808,0,42,1,1,1,gain4,no_gain3,B,A,17,42,faces,objects,99,99,Stimuli/Experimental_stims/faces/good-faces-xmSWVeGEnJw-unsplash.jpg,Stimuli/Experimental_stims/objects/jess-bailey-nOeVi8DsN8U-unsplash.jpg,0,1,392,1,unchosen,17,42,faces,objects,1200,0,6,1
42,53808,0,43,1,1,1,gain6,no_gain6,G,F,44,19,objects,faces,100,100,Stimuli/Experimental_stims/objects/kuiye-chen-NuOGFo4PudE-unsplash.jpg,Stimuli/Experimental_stims/faces/joel-mott-LaK153ghdig-unsplash.jpg,0,1,47,1,chosen,44,19,objects,faces,4000,1,6,1
43,53808,0,44,1,1,0,no_gain3,gain3,A,I,8,30,outdoor_scenes,body_parts,100,100,Stimuli/Experimental_stims/outdoor_scenes/samsommer-vddccTqwal8-unsplash.jpg,Stimuli/Experimental_stims/body_parts/mika-korhonen-Xodzxosar18-unsplash.jpg,1,NaN,,NaN,chosen,NaN,NaN,NaN,NaN,2300,0,6,1
44,53808,0,45,1,1,1,gain2,no_gain6,H,F,7,31,outdoor_scenes,body_parts,100,100,Stimuli/Experimental_stims/outdoor_scenes/petr-vysohlid-9fqwGqGLUxc-unsplash.jpg,Stimuli/Experimental_stims/body_parts/sincerely-media-VN6DbKajo5s-unsplash.jpg,0,1,180,1,unchosen,7,31,outdoor_scenes,body_parts,1500,0,6,1
45,53808,0,46,1,1,0,no_gain1,gain1,C,D,3,43,outdoor_scenes,objects,100,99,Stimuli/Experimental_stims/outdoor_scenes/henry-be-NLF6hTe4PAg-unsplash.jpg,Stimuli/Experimental_stims/objects/jonathan-greenaway-Y4hGgeiFn3s-unsplash.jpg,0,1,563,0,chosen,3,43,outdoor_scenes,objects,1100,0,6,1
46,53808,0,47,1,1,0,no_gain5,gain6,K,G,36,4,objects,outdoor_scenes,100,100,Stimuli/Experimental_stims/objects/alexander-andrews-JYGnB9gTCls-unsplash.jpg,Stimuli/Experimental_stims/outdoor_scenes/jarrett-kow-1ZOyYPOBn7I-unsplash.jpg,1,NaN,,NaN,unchosen,NaN,NaN,NaN,NaN,1100,0,6,1
47,53808,0,48,1,1,0,no_gain5,gain6,K,G,25,44,body_parts,objects,100,100,Stimuli/Experimental_stims/body_parts/engin-akyurt-Q2rfH3GW39c-unsplash.jpg,Stimuli/Experimental_stims/objects/kuiye-chen-NuOGFo4PudE-unsplash.jpg,0,1,453,0,chosen,25,44,body_parts,objects,3200,1,6,1
48,53808,0,49,1,1,0,no_gain2,gain6,J,G,41,4,objects,outdoor_scenes,100,100,Stimuli/Experimental_stims/objects/insung-yoon-w2JtIQQXoRU-unsplash.jpg,Stimuli/Experimental_stims/outdoor_scenes/jarrett-kow-1ZOyYPOBn7I-unsplash.jpg,0,1,423,0,unchosen,41,4,objects,outdoor_scenes,1900,0,6,1
49,53808,0,50,1,1,1,gain4,no_gain4,B,E,17,34,faces,body_parts,99,100,Stimuli/Experimental_stims/faces/good-faces-xmSWVeGEnJw-unsplash.jpg,Stimuli/Experimental_stims/body_parts/wagner-santos-mBWMvIuVnso-unsplash.jpg,0,1,915,1,unchosen,17,34,faces,body_parts,2300,0,6,1
50,53808,0,51,1,1,1,gain6,no_gain4,G,E,4,34,outdoor_scenes,body_parts,100,100,Stimuli/Experimental_stims/outdoor_scenes/jarrett-kow-1ZOyYPOBn7I-unsplash.jpg,Stimuli/Experimental_stims/body_parts/wagner-santos-mBWMvIuVnso-unsplash.jpg,0,1,377,1,unchosen,4,34,outdoor_scenes,body_parts,1200,0,6,1
51,53808,0,52,1,1,0,no_gain6,gain1,F,D,19,43,faces,objects,100,99,Stimuli/Experimental_stims/faces/joel-mott-LaK153ghdig-unsplash.jpg,Stimuli/Experimental_stims/objects/jonathan-greenaway-Y4hGgeiFn3s-unsplash.jpg,0,1,169,0,chosen,19,43,faces,objects,2400,0,6,1
52,53808,0,53,1,1,1,gain2,no_gain1,H,C,21,3,faces,outdoor_scenes,100,100,Stimuli/Experimental_stims/faces/leilani-angel-K84vnnzxmTQ-unsplash.jpg,Stimuli/Experimental_stims/outdoor_scenes/henry-be-NLF6hTe4PAg-unsplash.jpg,0,1,527,1,chosen,21,3,faces,outdoor_scenes,1600,0,6,1
53,53808,0,54,1,1,1,gain5,no_gain6,L,F,26,19,body_parts,faces,100,100,Stimuli/Experimental_stims/body_parts/engin-akyurt-x_3gyC42btc-unsplash.jpg,Stimuli/Experimental_stims/faces/joel-mott-LaK153ghdig-unsplash.jpg,0,1,226,1,chosen,26,19,body_parts,faces,3100,1,6,1
54,53808,0,55,1,1,0,no_gain5,gain1,K,D,36,14,objects,faces,100,100,Stimuli/Experimental_stims/objects/alexander-andrews-JYGnB9gTCls-unsplash.jpg,Stimuli/Experimental_stims/faces/david-siglin-UuW4psOb388-unsplash.jpg,0,1,390,0,unchosen,36,14,objects,faces,2300,0,6,1
55,53808,0,56,1,1,1,gain2,no_gain2,H,J,21,22,faces,faces,100,100,Stimuli/Experimental_stims/faces/leilani-angel-K84vnnzxmTQ-unsplash.jpg,Stimuli/Experimental_stims/faces/ravi-patel-VMGAbeeJTKo-unsplash.jpg,0,1,587,1,chosen,21,22,faces,faces,2600,0,6,1
56,53808,0,57,1,1,1,gain3,no_gain2,I,J,1,41,outdoor_scenes,objects,100,100,Stimuli/Experimental_stims/outdoor_scenes/ashim-d-silva-S2Q5mdOrrVc-unsplash.jpg,Stimuli/Experimental_stims/objects/insung-yoon-w2JtIQQXoRU-unsplash.jpg,0,1,301,1,unchosen,1,41,outdoor_scenes,objects,1700,0,6,1
57,53808,0,58,1,1,0,no_gain1,gain3,C,I,33,1,body_parts,outdoor_scenes,99,100,Stimuli/Experimental_stims/body_parts/tucker-good-36skLT5jZcc-unsplash.jpg,Stimuli/Experimental_stims/outdoor_scenes/ashim-d-silva-S2Q5mdOrrVc-unsplash.jpg,0,1,76,0,unchosen,33,1,body_parts,outdoor_scenes,1100,0,6,1
58,53808,0,59,1,1,1,gain6,no_gain4,G,E,44,46,objects,objects,100,99,Stimuli/Experimental_stims/objects/kuiye-chen-NuOGFo4PudE-unsplash.jpg,Stimuli/Experimental_stims/objects/mockup-graphics-PNsj6RiHAF4-unsplash.jpg,0,1,316,1,chosen,44,46,objects,objects,2600,0,6,1
59,53808,0,60,1,1,1,gain6,no_gain1,G,C,4,33,outdoor_scenes,body_parts,100,99,Stimuli/Experimental_stims/outdoor_scenes/jarrett-kow-1ZOyYPOBn7I-unsplash.jpg,Stimuli/Experimental_stims/body_parts/tucker-good-36skLT5jZcc-unsplash.jpg,0,1,614,1,unchosen,4,33,outdoor_scenes,body_parts,1000,0,6,1
60,53808,0,61,1,1,1,gain1,no_gain3,D,A,14,42,faces,objects,100,99,Stimuli/Experimental_stims/faces/david-siglin-UuW4psOb388-unsplash.jpg,Stimuli/Experimental_stims/objects/jess-bailey-nOeVi8DsN8U-unsplash.jpg,0,1,653,1,unchosen,14,42,faces,objects,2400,0,6,1
61,53808,0,62,1,1,0,no_gain6,gain4,F,B,31,17,body_parts,faces,100,99,Stimuli/Experimental_stims/body_parts/sincerely-media-VN6DbKajo5s-unsplash.jpg,Stimuli/Experimental_stims/faces/good-faces-xmSWVeGEnJw-unsplash.jpg,0,1,159,0,unchosen,31,17,body_parts,faces,3500,1,6,1
62,53808,0,63,1,1,1,gain6,no_gain3,G,A,44,8,objects,outdoor_scenes,100,100,Stimuli/Experimental_stims/objects/kuiye-chen-NuOGFo4PudE-unsplash.jpg,Stimuli/Experimental_stims/outdoor_scenes/samsommer-vddccTqwal8-unsplash.jpg,0,1,371,1,chosen,44,8,objects,outdoor_scenes,1700,0,6,1
63,53808,0,64,1,1,1,gain2,no_gain4,H,E,21,46,faces,objects,100,99,Stimuli/Experimental_stims/faces/leilani-angel-K84vnnzxmTQ-unsplash.jpg,Stimuli/Experimental_stims/objects/mockup-graphics-PNsj6RiHAF4-unsplash.jpg,0,1,50,1,chosen,21,46,faces,objects,1200,0,6,1
64,53808,0,65,1,1,0,no_gain6,gain1,F,D,31,14,body_parts,faces,100,100,Stimuli/Experimental_stims/body_parts/sincerely-media-VN6DbKajo5s-unsplash.jpg,Stimuli/Experimental_stims/faces/david-siglin-UuW4psOb388-unsplash.jpg,0,1,407,0,unchosen,31,14,body_parts,faces,1600,0,6,1
65,53808,0,66,1,1,0,no_gain4,gain1,E,D,34,14,body_parts,faces,100,100,Stimuli/Experimental_stims/body_parts/wagner-santos-mBWMvIuVnso-unsplash.jpg,Stimuli/Experimental_stims/faces/david-siglin-UuW4psOb388-unsplash.jpg,0,1,144,0,unchosen,34,14,body_parts,faces,1200,0,6,1
66,53808,0,67,1,1,1,gain5,no_gain2,L,J,23,41,faces,objects,100,100,Stimuli/Experimental_stims/faces/rikonavt-HQjfrvdTfak-unsplash.jpg,Stimuli/Experimental_stims/objects/insung-yoon-w2JtIQQXoRU-unsplash.jpg,0,1,76,1,unchosen,23,41,faces,objects,3400,1,6,1
67,53808,0,68,1,1,0,no_gain1,gain4,C,B,3,0,outdoor_scenes,outdoor_scenes,100,100,Stimuli/Experimental_stims/outdoor_scenes/henry-be-NLF6hTe4PAg-unsplash.jpg,Stimuli/Experimental_stims/outdoor_scenes/aleksandra-boguslawska-MS7KD9Ti7FQ-unsplash.jpg,0,1,87,0,chosen,3,0,outdoor_scenes,outdoor_scenes,1900,0,6,1
68,53808,0,69,1,1,1,gain6,no_gain2,G,J,44,22,objects,faces,100,100,Stimuli/Experimental_stims/objects/kuiye-chen-NuOGFo4PudE-unsplash.jpg,Stimuli/Experimental_stims/faces/ravi-patel-VMGAbeeJTKo-unsplash.jpg,0,1,291,1,chosen,44,22,objects,faces,2200,0,6,1
69,53808,0,70,1,1,1,gain5,no_gain3,L,A,26,8,body_parts,outdoor_scenes,100,100,Stimuli/Experimental_stims/body_parts/engin-akyurt-x_3gyC42btc-unsplash.jpg,Stimuli/Experimental_stims/outdoor_scenes/samsommer-vddccTqwal8-unsplash.jpg,0,1,342,1,chosen,26,8,body_parts,outdoor_scenes,1100,0,6,1
70,53808,0,71,1,1,0,no_gain1,gain1,C,D,33,14,body_parts,faces,99,100,Stimuli/Experimental_stims/body_parts/tucker-good-36skLT5jZcc-unsplash.jpg,Stimuli/Experimental_stims/faces/david-siglin-UuW4psOb388-unsplash.jpg,0,1,336,0,unchosen,33,14,body_parts,faces,2600,0,6,1
71,53808,0,72,1,1,1,gain1,no_gain2,D,J,14,41,faces,objects,100,100,Stimuli/Experimental_stims/faces/david-siglin-UuW4psOb388-unsplash.jpg,Stimuli/Experimental_stims/objects/insung-yoon-w2JtIQQXoRU-unsplash.jpg,0,1,258,1,unchosen,14,41,faces,objects,2100,0,6,1
72,53808,0,73,1,1,0,no_gain3,gain3,A,I,42,1,objects,outdoor_scenes,99,100,Stimuli/Experimental_stims/objects/jess-bailey-nOeVi8DsN8U-unsplash.jpg,Stimuli/Experimental_stims/outdoor_scenes/ashim-d-silva-S2Q5mdOrrVc-unsplash.jpg,0,1,79,0,unchosen,42,1,objects,outdoor_scenes,1600,0,6,1
73,53808,0,74,1,1,0,no_gain4,gain1,E,D,46,43,objects,objects,99,99,Stimuli/Experimental_stims/objects/mockup-graphics-PNsj6RiHAF4-unsplash.jpg,Stimuli/Experimental_stims/objects/jonathan-greenaway-Y4hGgeiFn3s-unsplash.jpg,0,1,439,0,chosen,46,43,objects,objects,1200,0,6,1
74,53808,0,75,1,1,1,gain3,no_gain5,I,K,1,36,outdoor_scenes,objects,100,100,Stimuli/Experimental_stims/outdoor_scenes/ashim-d-silva-S2Q5mdOrrVc-unsplash.jpg,Stimuli/Experimental_stims/objects/alexander-andrews-JYGnB9gTCls-unsplash.jpg,0,1,250,1,unchosen,1,36,outdoor_scenes,objects,2600,0,6,1
75,53808,0,76,1,1,0,no_gain4,gain3,E,I,46,30,objects,body_parts,99,100,Stimuli/Experimental_stims/objects/mockup-graphics-PNsj6RiHAF4-unsplash.jpg,Stimuli/Experimental_stims/body_parts/mika-korhonen-Xodzxosar18-unsplash.jpg,0,1,956,0,chosen,46,30,objects,body_parts,3600,1,6,1
76,53808,0,77,2,2,1,gain4,no_gain6,B,F,17,31,faces,body_parts,99,100,Stimuli/Experimental_stims/faces/good-faces-xmSWVeGEnJw-unsplash.jpg,Stimuli/Experimental_stims/body_parts/sincerely-media-VN6DbKajo5s-unsplash.jpg,0,1,645,1,unchosen,17,31,faces,body_parts,3100,1,4,1
77,53808,0,78,2,2,1,gain3,no_gain1,I,C,30,3,body_parts,outdoor_scenes,100,100,Stimuli/Experimental_stims/body_parts/mika-korhonen-Xodzxosar18-unsplash.jpg,Stimuli/Experimental_stims/outdoor_scenes/henry-be-NLF6hTe4PAg-unsplash.jpg,0,1,147,1,chosen,30,3,body_parts,outdoor_scenes,2600,0,4,1
78,53808,0,79,2,2,0,no_gain5,gain5,K,L,25,26,body_parts,body_parts,100,100,Stimuli/Experimental_stims/body_parts/engin-akyurt-Q2rfH3GW39c-unsplash.jpg,Stimuli/Experimental_stims/body_parts/engin-akyurt-x_3gyC42btc-unsplash.jpg,0,1,414,0,chosen,25,26,body_parts,body_parts,1800,0,4,1
79,53808,0,80,2,2,0,no_gain5,gain2,K,H,36,7,objects,outdoor_scenes,100,100,Stimuli/Experimental_stims/objects/alexander-andrews-JYGnB9gTCls-unsplash.jpg,Stimuli/Experimental_stims/outdoor_scenes/petr-vysohlid-9fqwGqGLUxc-unsplash.jpg,0,1,152,0,unchosen,36,7,objects,outdoor_scenes,1000,0,4,1
80,53808,0,81,2,2,0,no_gain5,gain6,K,G,25,44,body_parts,objects,100,100,Stimuli/Experimental_stims/body_parts/engin-akyurt-Q2rfH3GW39c-unsplash.jpg,Stimuli/Experimental_stims/objects/kuiye-chen-NuOGFo4PudE-unsplash.jpg,0,1,565,0,chosen,25,44,body_parts,objects,2300,0,4,1
81,53808,0,82,2,2,1,gain2,no_gain1,H,C,21,3,faces,outdoor_scenes,100,100,Stimuli/Experimental_stims/faces/leilani-angel-K84vnnzxmTQ-unsplash.jpg,Stimuli/Experimental_stims/outdoor_scenes/henry-be-NLF6hTe4PAg-unsplash.jpg,0,1,365,1,chosen,21,3,faces,outdoor_scenes,1100,0,4,1
82,53808,0,83,2,2,1,gain6,no_gain4,G,E,44,46,objects,objects,100,99,Stimuli/Experimental_stims/objects/kuiye-chen-NuOGFo4PudE-unsplash.jpg,Stimuli/Experimental_stims/objects/mockup-graphics-PNsj6RiHAF4-unsplash.jpg,0,1,182,1,chosen,44,46,objects,objects,1500,0,4,1
83,53808,0,84,2,2,1,gain1,no_gain4,D,E,14,34,faces,body_parts,100,100,Stimuli/Experimental_stims/faces/david-siglin-UuW4psOb388-unsplash.jpg,Stimuli/Experimental_stims/body_parts/wagner-santos-mBWMvIuVnso-unsplash.jpg,0,1,413,1,unchosen,14,34,faces,body_parts,2400,0,4,1
84,53808,0,85,2,2,0,no_gain2,gain2,J,H,41,7,objects,outdoor_scenes,100,100,Stimuli/Experimental_stims/objects/insung-yoon-w2JtIQQXoRU-unsplash.jpg,Stimuli/Experimental_stims/outdoor_scenes/petr-vysohlid-9fqwGqGLUxc-unsplash.jpg,0,1,556,0,unchosen,41,7,objects,outdoor_scenes,2300,0,4,1
85,53808,0,86,2,2,1,gain6,no_gain3,G,A,44,8,objects,outdoor_scenes,100,100,Stimuli/Experimental_stims/objects/kuiye-chen-NuOGFo4PudE-unsplash.jpg,Stimuli/Experimental_stims/outdoor_scenes/samsommer-vddccTqwal8-unsplash.jpg,0,1,182,1,chosen,44,8,objects,outdoor_scenes,1200,0,4,1
86,53808,0,87,2,2,0,no_gain5,gain4,K,B,36,17,objects,faces,100,99,Stimuli/Experimental_stims/objects/alexander-andrews-JYGnB9gTCls-unsplash.jpg,Stimuli/Experimental_stims/faces/good-faces-xmSWVeGEnJw-unsplash.jpg,0,1,167,0,unchosen,36,17,objects,faces,1300,0,4,1
87,53808,0,88,2,2,1,gain2,no_gain2,H,J,21,22,faces,faces,100,100,Stimuli/Experimental_stims/faces/leilani-angel-K84vnnzxmTQ-unsplash.jpg,Stimuli/Experimental_stims/faces/ravi-patel-VMGAbeeJTKo-unsplash.jpg,0,1,161,1,chosen,21,22,faces,faces,3700,1,4,1
88,53808,0,89,2,2,1,gain5,no_gain3,L,A,26,8,body_parts,outdoor_scenes,100,100,Stimuli/Experimental_stims/body_parts/engin-akyurt-x_3gyC42btc-unsplash.jpg,Stimuli/Experimental_stims/outdoor_scenes/samsommer-vddccTqwal8-unsplash.jpg,0,1,93,1,chosen,26,8,body_parts,outdoor_scenes,1600,0,4,1
89,53808,0,90,2,2,0,no_gain3,gain1,A,D,8,43,outdoor_scenes,objects,100,99,Stimuli/Experimental_stims/outdoor_scenes/samsommer-vddccTqwal8-unsplash.jpg,Stimuli/Experimental_stims/objects/jonathan-greenaway-Y4hGgeiFn3s-unsplash.jpg,0,1,701,0,chosen,8,43,outdoor_scenes,objects,1700,0,4,1
90,53808,0,91,2,2,0,no_gain2,gain1,J,D,41,14,objects,faces,100,100,Stimuli/Experimental_stims/objects/insung-yoon-w2JtIQQXoRU-unsplash.jpg,Stimuli/Experimental_stims/faces/david-siglin-UuW4psOb388-unsplash.jpg,0,1,57,0,unchosen,41,14,objects,faces,1200,0,4,1
91,53808,0,92,2,2,0,no_gain6,gain5,F,L,19,26,faces,body_parts,100,100,Stimuli/Experimental_stims/faces/joel-mott-LaK153ghdig-unsplash.jpg,Stimuli/Experimental_stims/body_parts/engin-akyurt-x_3gyC42btc-unsplash.jpg,0,1,982,0,chosen,19,26,faces,body_parts,1100,0,4,1
92,53808,0,93,2,2,0,no_gain4,gain3,E,I,46,30,objects,body_parts,99,100,Stimuli/Experimental_stims/objects/mockup-graphics-PNsj6RiHAF4-unsplash.jpg,Stimuli/Experimental_stims/body_parts/mika-korhonen-Xodzxosar18-unsplash.jpg,0,1,360,0,chosen,46,30,objects,body_parts,1300,0,4,1
93,53808,0,94,2,2,1,gain4,no_gain5,B,K,0,25,outdoor_scenes,body_parts,100,100,Stimuli/Experimental_stims/outdoor_scenes/aleksandra-boguslawska-MS7KD9Ti7FQ-unsplash.jpg,Stimuli/Experimental_stims/body_parts/engin-akyurt-Q2rfH3GW39c-unsplash.jpg,1,NaN,,NaN,chosen,NaN,NaN,NaN,NaN,4500,1,4,1
94,53808,0,95,2,2,0,no_gain5,gain1,K,D,36,14,objects,faces,100,100,Stimuli/Experimental_stims/objects/alexander-andrews-JYGnB9gTCls-unsplash.jpg,Stimuli/Experimental_stims/faces/david-siglin-UuW4psOb388-unsplash.jpg,0,1,262,0,unchosen,36,14,objects,faces,1900,0,4,1
95,53808,0,96,2,2,1,gain1,no_gain3,D,A,14,42,faces,objects,100,99,Stimuli/Experimental_stims/faces/david-siglin-UuW4psOb388-unsplash.jpg,Stimuli/Experimental_stims/objects/jess-bailey-nOeVi8DsN8U-unsplash.jpg,0,1,792,1,unchosen,14,42,faces,objects,1100,0,4,1
96,53808,0,97,2,2,1,gain3,no_gain3,I,A,1,42,outdoor_scenes,objects,100,99,Stimuli/Experimental_stims/outdoor_scenes/ashim-d-silva-S2Q5mdOrrVc-unsplash.jpg,Stimuli/Experimental_stims/objects/jess-bailey-nOeVi8DsN8U-unsplash.jpg,0,1,400,1,unchosen,1,42,outdoor_scenes,objects,2300,0,4,1
97,53808,0,98,2,2,0,no_gain5,gain1,K,D,25,43,body_parts,objects,100,99,Stimuli/Experimental_stims/body_parts/engin-akyurt-Q2rfH3GW39c-unsplash.jpg,Stimuli/Experimental_stims/objects/jonathan-greenaway-Y4hGgeiFn3s-unsplash.jpg,0,1,237,0,chosen,25,43,body_parts,objects,2800,0,4,1
98,53808,0,99,2,2,0,no_gain5,gain5,K,L,36,23,objects,faces,100,100,Stimuli/Experimental_stims/objects/alexander-andrews-JYGnB9gTCls-unsplash.jpg,Stimuli/Experimental_stims/faces/rikonavt-HQjfrvdTfak-unsplash.jpg,0,1,376,0,unchosen,36,23,objects,faces,3200,1,4,1
99,53808,0,100,2,2,1,gain5,no_gain1,L,C,26,3,body_parts,outdoor_scenes,100,100,Stimuli/Experimental_stims/body_parts/engin-akyurt-x_3gyC42btc-unsplash.jpg,Stimuli/Experimental_stims/outdoor_scenes/henry-be-NLF6hTe4PAg-unsplash.jpg,0,1,750,1,chosen,26,3,body_parts,outdoor_scenes,2000,0,4,1
100,53808,0,101,2,2,0,no_gain2,gain6,J,G,22,44,faces,objects,100,100,Stimuli/Experimental_stims/faces/ravi-patel-VMGAbeeJTKo-unsplash.jpg,Stimuli/Experimental_stims/objects/kuiye-chen-NuOGFo4PudE-unsplash.jpg,0,1,415,0,chosen,22,44,faces,objects,2500,0,4,1
101,53808,0,102,2,2,1,gain3,no_gain5,I,K,1,36,outdoor_scenes,objects,100,100,Stimuli/Experimental_stims/outdoor_scenes/ashim-d-silva-S2Q5mdOrrVc-unsplash.jpg,Stimuli/Experimental_stims/objects/alexander-andrews-JYGnB9gTCls-unsplash.jpg,0,1,1006,1,unchosen,1,36,outdoor_scenes,objects,1300,0,4,1
102,53808,0,103,2,2,1,gain6,no_gain3,G,A,4,42,outdoor_scenes,objects,100,99,Stimuli/Experimental_stims/outdoor_scenes/jarrett-kow-1ZOyYPOBn7I-unsplash.jpg,Stimuli/Experimental_stims/objects/jess-bailey-nOeVi8DsN8U-unsplash.jpg,0,1,239,1,unchosen,4,42,outdoor_scenes,objects,1300,0,4,1
103,53808,0,104,2,2,1,gain4,no_gain4,B,E,17,34,faces,body_parts,99,100,Stimuli/Experimental_stims/faces/good-faces-xmSWVeGEnJw-unsplash.jpg,Stimuli/Experimental_stims/body_parts/wagner-santos-mBWMvIuVnso-unsplash.jpg,0,1,67,1,unchosen,17,34,faces,body_parts,4500,1,4,1
104,53808,0,105,2,2,1,gain6,no_gain1,G,C,44,3,objects,outdoor_scenes,100,100,Stimuli/Experimental_stims/objects/kuiye-chen-NuOGFo4PudE-unsplash.jpg,Stimuli/Experimental_stims/outdoor_scenes/henry-be-NLF6hTe4PAg-unsplash.jpg,0,1,197,1,chosen,44,3,objects,outdoor_scenes,1400,0,4,1
105,53808,0,106,2,2,1,gain2,no_gain6,H,F,7,31,outdoor_scenes,body_parts,100,100,Stimuli/Experimental_stims/outdoor_scenes/petr-vysohlid-9fqwGqGLUxc-unsplash.jpg,Stimuli/Experimental_stims/body_parts/sincerely-media-VN6DbKajo5s-unsplash.jpg,0,1,139,1,unchosen,7,31,outdoor_scenes,body_parts,2600,0,4,1
106,53808,0,107,2,2,1,gain4,no_gain4,B,E,0,46,outdoor_scenes,objects,100,99,Stimuli/Experimental_stims/outdoor_scenes/aleksandra-boguslawska-MS7KD9Ti7FQ-unsplash.jpg,Stimuli/Experimental_stims/objects/mockup-graphics-PNsj6RiHAF4-unsplash.jpg,0,1,324,1,chosen,0,46,outdoor_scenes,objects,2100,0,4,1
107,53808,0,108,2,2,0,no_gain6,gain6,F,G,31,4,body_parts,outdoor_scenes,100,100,Stimuli/Experimental_stims/body_parts/sincerely-media-VN6DbKajo5s-unsplash.jpg,Stimuli/Experimental_stims/outdoor_scenes/jarrett-kow-1ZOyYPOBn7I-unsplash.jpg,0,1,47,0,unchosen,31,4,body_parts,outdoor_scenes,2100,0,4,1
108,53808,0,109,2,2,1,gain4,no_gain3,B,A,17,42,faces,objects,99,99,Stimuli/Experimental_stims/faces/good-faces-xmSWVeGEnJw-unsplash.jpg,Stimuli/Experimental_stims/objects/jess-bailey-nOeVi8DsN8U-unsplash.jpg,0,1,43,1,unchosen,17,42,faces,objects,2600,0,4,1
109,53808,0,110,2,2,0,no_gain1,gain1,C,D,3,43,outdoor_scenes,objects,100,99,Stimuli/Experimental_stims/outdoor_scenes/henry-be-NLF6hTe4PAg-unsplash.jpg,Stimuli/Experimental_stims/objects/jonathan-greenaway-Y4hGgeiFn3s-unsplash.jpg,0,1,109,0,chosen,3,43,outdoor_scenes,objects,3000,1,4,1
110,53808,0,111,2,2,1,gain2,no_gain4,H,E,21,46,faces,objects,100,99,Stimuli/Experimental_stims/faces/leilani-angel-K84vnnzxmTQ-unsplash.jpg,Stimuli/Experimental_stims/objects/mockup-graphics-PNsj6RiHAF4-unsplash.jpg,0,1,308,1,chosen,21,46,faces,objects,1100,0,4,1
111,53808,0,112,2,2,0,no_gain1,gain3,C,I,33,1,body_parts,outdoor_scenes,99,100,Stimuli/Experimental_stims/body_parts/tucker-good-36skLT5jZcc-unsplash.jpg,Stimuli/Experimental_stims/outdoor_scenes/ashim-d-silva-S2Q5mdOrrVc-unsplash.jpg,0,1,50,0,unchosen,33,1,body_parts,outdoor_scenes,1000,0,4,1
112,53808,0,113,2,2,1,gain5,no_gain1,L,C,23,33,faces,body_parts,100,99,Stimuli/Experimental_stims/faces/rikonavt-HQjfrvdTfak-unsplash.jpg,Stimuli/Experimental_stims/body_parts/tucker-good-36skLT5jZcc-unsplash.jpg,0,1,504,1,unchosen,23,33,faces,body_parts,1300,0,4,1
113,53808,0,114,2,2,1,gain3,no_gain6,I,F,30,19,body_parts,faces,100,100,Stimuli/Experimental_stims/body_parts/mika-korhonen-Xodzxosar18-unsplash.jpg,Stimuli/Experimental_stims/faces/joel-mott-LaK153ghdig-unsplash.jpg,0,1,504,1,chosen,30,19,body_parts,faces,1000,0,4,1
114,53808,0,115,2,2,0,no_gain1,gain1,C,D,33,14,body_parts,faces,99,100,Stimuli/Experimental_stims/body_parts/tucker-good-36skLT5jZcc-unsplash.jpg,Stimuli/Experimental_stims/faces/david-siglin-UuW4psOb388-unsplash.jpg,0,1,327,0,unchosen,33,14,body_parts,faces,1200,0,4,1
115,53808,0,116,2,2,0,no_gain5,gain3,K,I,25,30,body_parts,body_parts,100,100,Stimuli/Experimental_stims/body_parts/engin-akyurt-Q2rfH3GW39c-unsplash.jpg,Stimuli/Experimental_stims/body_parts/mika-korhonen-Xodzxosar18-unsplash.jpg,0,1,545,0,chosen,25,30,body_parts,body_parts,1800,0,4,1
116,53808,0,117,2,2,1,gain5,no_gain2,L,J,23,41,faces,objects,100,100,Stimuli/Experimental_stims/faces/rikonavt-HQjfrvdTfak-unsplash.jpg,Stimuli/Experimental_stims/objects/insung-yoon-w2JtIQQXoRU-unsplash.jpg,0,1,131,1,unchosen,23,41,faces,objects,2300,0,4,1
117,53808,0,118,2,2,1,gain4,no_gain1,B,C,0,3,outdoor_scenes,outdoor_scenes,100,100,Stimuli/Experimental_stims/outdoor_scenes/aleksandra-boguslawska-MS7KD9Ti7FQ-unsplash.jpg,Stimuli/Experimental_stims/outdoor_scenes/henry-be-NLF6hTe4PAg-unsplash.jpg,0,1,482,1,chosen,0,3,outdoor_scenes,outdoor_scenes,3500,1,4,1
118,53808,0,119,2,2,0,no_gain2,gain6,J,G,41,4,objects,outdoor_scenes,100,100,Stimuli/Experimental_stims/objects/insung-yoon-w2JtIQQXoRU-unsplash.jpg,Stimuli/Experimental_stims/outdoor_scenes/jarrett-kow-1ZOyYPOBn7I-unsplash.jpg,0,1,426,0,unchosen,41,4,objects,outdoor_scenes,1300,0,4,1
119,53808,0,120,2,2,0,no_gain2,gain5,J,L,22,26,faces,body_parts,100,100,Stimuli/Experimental_stims/faces/ravi-patel-VMGAbeeJTKo-unsplash.jpg,Stimuli/Experimental_stims/body_parts/engin-akyurt-x_3gyC42btc-unsplash.jpg,0,1,345,0,chosen,22,26,faces,body_parts,1400,0,4,1
120,53808,0,121,2,2,1,gain3,no_gain3,I,A,30,8,body_parts,outdoor_scenes,100,100,Stimuli/Experimental_stims/body_parts/mika-korhonen-Xodzxosar18-unsplash.jpg,Stimuli/Experimental_stims/outdoor_scenes/samsommer-vddccTqwal8-unsplash.jpg,0,1,1192,1,chosen,30,8,body_parts,outdoor_scenes,1300,0,4,1
121,53808,0,122,2,2,1,gain6,no_gain1,G,C,4,33,outdoor_scenes,body_parts,100,99,Stimuli/Experimental_stims/outdoor_scenes/jarrett-kow-1ZOyYPOBn7I-unsplash.jpg,Stimuli/Experimental_stims/body_parts/tucker-good-36skLT5jZcc-unsplash.jpg,0,1,504,1,unchosen,4,33,outdoor_scenes,body_parts,2800,0,4,1
122,53808,0,123,2,2,1,gain5,no_gain6,L,F,23,31,faces,body_parts,100,100,Stimuli/Experimental_stims/faces/rikonavt-HQjfrvdTfak-unsplash.jpg,Stimuli/Experimental_stims/body_parts/sincerely-media-VN6DbKajo5s-unsplash.jpg,0,1,167,1,unchosen,23,31,faces,body_parts,1800,0,4,1
123,53808,0,124,2,2,0,no_gain2,gain4,J,B,41,17,objects,faces,100,99,Stimuli/Experimental_stims/objects/insung-yoon-w2JtIQQXoRU-unsplash.jpg,Stimuli/Experimental_stims/faces/good-faces-xmSWVeGEnJw-unsplash.jpg,0,1,270,0,unchosen,41,17,objects,faces,1200,0,4,1
124,53808,0,125,2,2,0,no_gain3,gain4,A,B,8,0,outdoor_scenes,outdoor_scenes,100,100,Stimuli/Experimental_stims/outdoor_scenes/samsommer-vddccTqwal8-unsplash.jpg,Stimuli/Experimental_stims/outdoor_scenes/aleksandra-boguslawska-MS7KD9Ti7FQ-unsplash.jpg,0,1,1,0,chosen,8,0,outdoor_scenes,outdoor_scenes,1000,0,4,1
125,53808,0,126,2,2,1,gain3,no_gain4,I,E,1,34,outdoor_scenes,body_parts,100,100,Stimuli/Experimental_stims/outdoor_scenes/ashim-d-silva-S2Q5mdOrrVc-unsplash.jpg,Stimuli/Experimental_stims/body_parts/wagner-santos-mBWMvIuVnso-unsplash.jpg,0,1,331,1,unchosen,1,34,outdoor_scenes,body_parts,1600,0,4,1
126,53808,0,127,2,2,0,no_gain2,gain4,J,B,22,0,faces,outdoor_scenes,100,100,Stimuli/Experimental_stims/faces/ravi-patel-VMGAbeeJTKo-unsplash.jpg,Stimuli/Experimental_stims/outdoor_scenes/aleksandra-boguslawska-MS7KD9Ti7FQ-unsplash.jpg,0,1,190,0,chosen,22,0,faces,outdoor_scenes,1500,0,4,1
127,53808,0,128,2,2,0,no_gain5,gain2,K,H,25,21,body_parts,faces,100,100,Stimuli/Experimental_stims/body_parts/engin-akyurt-Q2rfH3GW39c-unsplash.jpg,Stimuli/Experimental_stims/faces/leilani-angel-K84vnnzxmTQ-unsplash.jpg,1,NaN,,NaN,chosen,NaN,NaN,NaN,NaN,3300,1,4,1
128,53808,0,129,2,2,0,no_gain4,gain1,E,D,46,43,objects,objects,99,99,Stimuli/Experimental_stims/objects/mockup-graphics-PNsj6RiHAF4-unsplash.jpg,Stimuli/Experimental_stims/objects/jonathan-greenaway-Y4hGgeiFn3s-unsplash.jpg,0,1,263,0,chosen,46,43,objects,objects,2200,0,4,1
129,53808,0,130,2,2,0,no_gain5,gain6,K,G,36,4,objects,outdoor_scenes,100,100,Stimuli/Experimental_stims/objects/alexander-andrews-JYGnB9gTCls-unsplash.jpg,Stimuli/Experimental_stims/outdoor_scenes/jarrett-kow-1ZOyYPOBn7I-unsplash.jpg,0,1,369,0,unchosen,36,4,objects,outdoor_scenes,2400,0,4,1
130,53808,0,131,2,2,1,gain2,no_gain3,H,A,21,8,faces,outdoor_scenes,100,100,Stimuli/Experimental_stims/faces/leilani-angel-K84vnnzxmTQ-unsplash.jpg,Stimuli/Experimental_stims/outdoor_scenes/samsommer-vddccTqwal8-unsplash.jpg,0,1,10,1,chosen,21,8,faces,outdoor_scenes,1300,0,4,1
131,53808,0,132,2,2,1,gain6,no_gain4,G,E,4,34,outdoor_scenes,body_parts,100,100,Stimuli/Experimental_stims/outdoor_scenes/jarrett-kow-1ZOyYPOBn7I-unsplash.jpg,Stimuli/Experimental_stims/body_parts/wagner-santos-mBWMvIuVnso-unsplash.jpg,0,1,434,1,unchosen,4,34,outdoor_scenes,body_parts,2400,0,4,1
132,53808,0,133,2,2,0,no_gain1,gain4,C,B,33,17,body_parts,faces,99,99,Stimuli/Experimental_stims/body_parts/tucker-good-36skLT5jZcc-unsplash.jpg,Stimuli/Experimental_stims/faces/good-faces-xmSWVeGEnJw-unsplash.jpg,0,1,476,0,unchosen,33,17,body_parts,faces,2200,0,4,1
133,53808,0,134,2,2,0,no_gain6,gain4,F,B,19,0,faces,outdoor_scenes,100,100,Stimuli/Experimental_stims/faces/joel-mott-LaK153ghdig-unsplash.jpg,Stimuli/Experimental_stims/outdoor_scenes/aleksandra-boguslawska-MS7KD9Ti7FQ-unsplash.jpg,1,NaN,,NaN,chosen,NaN,NaN,NaN,NaN,2900,1,4,1
134,53808,0,135,2,2,1,gain1,no_gain6,D,F,43,19,objects,faces,99,100,Stimuli/Experimental_stims/objects/jonathan-greenaway-Y4hGgeiFn3s-unsplash.jpg,Stimuli/Experimental_stims/faces/joel-mott-LaK153ghdig-unsplash.jpg,0,1,540,1,chosen,43,19,objects,faces,1900,0,4,1
135,53808,0,136,2,2,0,no_gain1,gain2,C,H,33,7,body_parts,outdoor_scenes,99,100,Stimuli/Experimental_stims/body_parts/tucker-good-36skLT5jZcc-unsplash.jpg,Stimuli/Experimental_stims/outdoor_scenes/petr-vysohlid-9fqwGqGLUxc-unsplash.jpg,0,1,92,0,unchosen,33,7,body_parts,outdoor_scenes,1700,0,4,1
136,53808,0,137,2,2,0,no_gain4,gain2,E,H,34,7,body_parts,outdoor_scenes,100,100,Stimuli/Experimental_stims/body_parts/wagner-santos-mBWMvIuVnso-unsplash.jpg,Stimuli/Experimental_stims/outdoor_scenes/petr-vysohlid-9fqwGqGLUxc-unsplash.jpg,0,1,203,0,unchosen,34,7,body_parts,outdoor_scenes,1900,0,4,1
137,53808,0,138,2,2,1,gain6,no_gain6,G,F,44,19,objects,faces,100,100,Stimuli/Experimental_stims/objects/kuiye-chen-NuOGFo4PudE-unsplash.jpg,Stimuli/Experimental_stims/faces/joel-mott-LaK153ghdig-unsplash.jpg,0,1,603,1,chosen,44,19,objects,faces,1700,0,4,1
138,53808,0,139,2,2,0,no_gain3,gain2,A,H,42,7,objects,outdoor_scenes,99,100,Stimuli/Experimental_stims/objects/jess-bailey-nOeVi8DsN8U-unsplash.jpg,Stimuli/Experimental_stims/outdoor_scenes/petr-vysohlid-9fqwGqGLUxc-unsplash.jpg,0,1,98,0,unchosen,42,7,objects,outdoor_scenes,1300,0,4,1
139,53808,0,140,2,2,1,gain5,no_gain4,L,E,23,34,faces,body_parts,100,100,Stimuli/Experimental_stims/faces/rikonavt-HQjfrvdTfak-unsplash.jpg,Stimuli/Experimental_stims/body_parts/wagner-santos-mBWMvIuVnso-unsplash.jpg,0,1,72,1,unchosen,23,34,faces,body_parts,3600,1,4,1
140,53808,0,141,2,2,1,gain5,no_gain4,L,E,26,46,body_parts,objects,100,99,Stimuli/Experimental_stims/body_parts/engin-akyurt-x_3gyC42btc-unsplash.jpg,Stimuli/Experimental_stims/objects/mockup-graphics-PNsj6RiHAF4-unsplash.jpg,0,1,70,1,chosen,26,46,body_parts,objects,1700,0,4,1
141,53808,0,142,2,2,0,no_gain6,gain2,F,H,19,21,faces,faces,100,100,Stimuli/Experimental_stims/faces/joel-mott-LaK153ghdig-unsplash.jpg,Stimuli/Experimental_stims/faces/leilani-angel-K84vnnzxmTQ-unsplash.jpg,0,1,500,0,chosen,19,21,faces,faces,1900,0,4,1
142,53808,0,143,2,2,0,no_gain2,gain1,J,D,22,43,faces,objects,100,99,Stimuli/Experimental_stims/faces/ravi-patel-VMGAbeeJTKo-unsplash.jpg,Stimuli/Experimental_stims/objects/jonathan-greenaway-Y4hGgeiFn3s-unsplash.jpg,0,1,194,0,chosen,22,43,faces,objects,2200,0,4,1
143,53808,0,144,2,2,0,no_gain3,gain5,A,L,42,23,objects,faces,99,100,Stimuli/Experimental_stims/objects/jess-bailey-nOeVi8DsN8U-unsplash.jpg,Stimuli/Experimental_stims/faces/rikonavt-HQjfrvdTfak-unsplash.jpg,0,1,331,0,unchosen,42,23,objects,faces,1800,0,4,1
144,53808,0,145,2,2,0,no_gain6,gain3,F,I,31,1,body_parts,outdoor_scenes,100,100,Stimuli/Experimental_stims/body_parts/sincerely-media-VN6DbKajo5s-unsplash.jpg,Stimuli/Experimental_stims/outdoor_scenes/ashim-d-silva-S2Q5mdOrrVc-unsplash.jpg,0,1,61,0,unchosen,31,1,body_parts,outdoor_scenes,1400,0,4,1
145,53808,0,146,2,2,0,no_gain2,gain3,J,I,22,30,faces,body_parts,100,100,Stimuli/Experimental_stims/faces/ravi-patel-VMGAbeeJTKo-unsplash.jpg,Stimuli/Experimental_stims/body_parts/mika-korhonen-Xodzxosar18-unsplash.jpg,0,1,185,0,chosen,22,30,faces,body_parts,1800,0,4,1
146,53808,0,147,2,2,1,gain3,no_gain2,I,J,1,41,outdoor_scenes,objects,100,100,Stimuli/Experimental_stims/outdoor_scenes/ashim-d-silva-S2Q5mdOrrVc-unsplash.jpg,Stimuli/Experimental_stims/objects/insung-yoon-w2JtIQQXoRU-unsplash.jpg,0,1,128,1,unchosen,1,41,outdoor_scenes,objects,1300,0,4,1
147,53808,0,148,2,2,1,gain1,no_gain6,D,F,14,31,faces,body_parts,100,100,Stimuli/Experimental_stims/faces/david-siglin-UuW4psOb388-unsplash.jpg,Stimuli/Experimental_stims/body_parts/sincerely-media-VN6DbKajo5s-unsplash.jpg,0,1,410,1,unchosen,14,31,faces,body_parts,3600,1,4,1
148,53808,0,149,3,3,1,gain3,no_gain6,I,F,1,31,outdoor_scenes,body_parts,100,100,Stimuli/Experimental_stims/outdoor_scenes/ashim-d-silva-S2Q5mdOrrVc-unsplash.jpg,Stimuli/Experimental_stims/body_parts/sincerely-media-VN6DbKajo5s-unsplash.jpg,0,1,1006,1,unchosen,1,31,outdoor_scenes,body_parts,1200,0,5,1
149,53808,0,150,3,3,1,gain3,no_gain3,I,A,30,8,body_parts,outdoor_scenes,100,100,Stimuli/Experimental_stims/body_parts/mika-korhonen-Xodzxosar18-unsplash.jpg,Stimuli/Experimental_stims/outdoor_scenes/samsommer-vddccTqwal8-unsplash.jpg,0,1,943,1,chosen,30,8,body_parts,outdoor_scenes,1100,0,5,1
150,53808,0,151,3,3,1,gain1,no_gain4,D,E,43,46,objects,objects,99,99,Stimuli/Experimental_stims/objects/jonathan-greenaway-Y4hGgeiFn3s-unsplash.jpg,Stimuli/Experimental_stims/objects/mockup-graphics-PNsj6RiHAF4-unsplash.jpg,1,NaN,,NaN,chosen,NaN,NaN,NaN,NaN,1100,0,5,1
151,53808,0,152,3,3,1,gain5,no_gain6,L,F,23,31,faces,body_parts,100,100,Stimuli/Experimental_stims/faces/rikonavt-HQjfrvdTfak-unsplash.jpg,Stimuli/Experimental_stims/body_parts/sincerely-media-VN6DbKajo5s-unsplash.jpg,1,NaN,,NaN,unchosen,NaN,NaN,NaN,NaN,1300,0,5,1
152,53808,0,153,3,3,1,gain2,no_gain6,H,F,21,19,faces,faces,100,100,Stimuli/Experimental_stims/faces/leilani-angel-K84vnnzxmTQ-unsplash.jpg,Stimuli/Experimental_stims/faces/joel-mott-LaK153ghdig-unsplash.jpg,0,1,739,1,chosen,21,19,faces,faces,3300,1,5,1
153,53808,0,154,3,3,1,gain6,no_gain6,G,F,44,19,objects,faces,100,100,Stimuli/Experimental_stims/objects/kuiye-chen-NuOGFo4PudE-unsplash.jpg,Stimuli/Experimental_stims/faces/joel-mott-LaK153ghdig-unsplash.jpg,0,1,243,1,chosen,44,19,objects,faces,1000,0,5,1
154,53808,0,155,3,3,1,gain1,no_gain2,D,J,14,41,faces,objects,100,100,Stimuli/Experimental_stims/faces/david-siglin-UuW4psOb388-unsplash.jpg,Stimuli/Experimental_stims/objects/insung-yoon-w2JtIQQXoRU-unsplash.jpg,0,1,114,1,unchosen,14,41,faces,objects,1300,0,5,1
155,53808,0,156,3,3,0,no_gain4,gain3,E,I,46,30,objects,body_parts,99,100,Stimuli/Experimental_stims/objects/mockup-graphics-PNsj6RiHAF4-unsplash.jpg,Stimuli/Experimental_stims/body_parts/mika-korhonen-Xodzxosar18-unsplash.jpg,0,1,243,0,chosen,46,30,objects,body_parts,1300,0,5,1
156,53808,0,157,3,3,0,no_gain4,gain4,E,B,46,0,objects,outdoor_scenes,99,100,Stimuli/Experimental_stims/objects/mockup-graphics-PNsj6RiHAF4-unsplash.jpg,Stimuli/Experimental_stims/outdoor_scenes/aleksandra-boguslawska-MS7KD9Ti7FQ-unsplash.jpg,0,1,283,0,chosen,46,0,objects,outdoor_scenes,1600,0,5,1
157,53808,0,158,3,3,1,gain6,no_gain3,G,A,44,8,objects,outdoor_scenes,100,100,Stimuli/Experimental_stims/objects/kuiye-chen-NuOGFo4PudE-unsplash.jpg,Stimuli/Experimental_stims/outdoor_scenes/samsommer-vddccTqwal8-unsplash.jpg,0,1,109,1,chosen,44,8,objects,outdoor_scenes,1400,0,5,1
158,53808,0,159,3,3,0,no_gain1,gain2,C,H,33,7,body_parts,outdoor_scenes,99,100,Stimuli/Experimental_stims/body_parts/tucker-good-36skLT5jZcc-unsplash.jpg,Stimuli/Experimental_stims/outdoor_scenes/petr-vysohlid-9fqwGqGLUxc-unsplash.jpg,0,1,227,0,unchosen,33,7,body_parts,outdoor_scenes,2100,0,5,1
159,53808,0,160,3,3,0,no_gain4,gain3,E,I,34,1,body_parts,outdoor_scenes,100,100,Stimuli/Experimental_stims/body_parts/wagner-santos-mBWMvIuVnso-unsplash.jpg,Stimuli/Experimental_stims/outdoor_scenes/ashim-d-silva-S2Q5mdOrrVc-unsplash.jpg,0,1,188,0,unchosen,34,1,body_parts,outdoor_scenes,1200,0,5,1
160,53808,0,161,3,3,0,no_gain1,gain3,C,I,3,30,outdoor_scenes,body_parts,100,100,Stimuli/Experimental_stims/outdoor_scenes/henry-be-NLF6hTe4PAg-unsplash.jpg,Stimuli/Experimental_stims/body_parts/mika-korhonen-Xodzxosar18-unsplash.jpg,0,1,239,0,chosen,3,30,outdoor_scenes,body_parts,4100,1,5,1
161,53808,0,162,3,3,0,no_gain1,gain4,C,B,33,17,body_parts,faces,99,99,Stimuli/Experimental_stims/body_parts/tucker-good-36skLT5jZcc-unsplash.jpg,Stimuli/Experimental_stims/faces/good-faces-xmSWVeGEnJw-unsplash.jpg,0,1,16,0,unchosen,33,17,body_parts,faces,1900,0,5,1
162,53808,0,163,3,3,1,gain5,no_gain5,L,K,26,25,body_parts,body_parts,100,100,Stimuli/Experimental_stims/body_parts/engin-akyurt-x_3gyC42btc-unsplash.jpg,Stimuli/Experimental_stims/body_parts/engin-akyurt-Q2rfH3GW39c-unsplash.jpg,0,1,2,1,chosen,26,25,body_parts,body_parts,2000,0,5,1
163,53808,0,164,3,3,0,no_gain2,gain5,J,L,41,23,objects,faces,100,100,Stimuli/Experimental_stims/objects/insung-yoon-w2JtIQQXoRU-unsplash.jpg,Stimuli/Experimental_stims/faces/rikonavt-HQjfrvdTfak-unsplash.jpg,0,1,498,0,unchosen,41,23,objects,faces,2600,0,5,1
164,53808,0,165,3,3,1,gain1,no_gain4,D,E,14,34,faces,body_parts,100,100,Stimuli/Experimental_stims/faces/david-siglin-UuW4psOb388-unsplash.jpg,Stimuli/Experimental_stims/body_parts/wagner-santos-mBWMvIuVnso-unsplash.jpg,0,1,244,1,unchosen,14,34,faces,body_parts,1100,0,5,1
165,53808,0,166,3,3,0,no_gain4,gain5,E,L,46,26,objects,body_parts,99,100,Stimuli/Experimental_stims/objects/mockup-graphics-PNsj6RiHAF4-unsplash.jpg,Stimuli/Experimental_stims/body_parts/engin-akyurt-x_3gyC42btc-unsplash.jpg,0,1,337,0,chosen,46,26,objects,body_parts,4400,1,5,1
166,53808,0,167,3,3,0,no_gain5,gain4,K,B,36,17,objects,faces,100,99,Stimuli/Experimental_stims/objects/alexander-andrews-JYGnB9gTCls-unsplash.jpg,Stimuli/Experimental_stims/faces/good-faces-xmSWVeGEnJw-unsplash.jpg,0,1,432,0,unchosen,36,17,objects,faces,1200,0,5,1
167,53808,0,168,3,3,0,no_gain5,gain6,K,G,25,44,body_parts,objects,100,100,Stimuli/Experimental_stims/body_parts/engin-akyurt-Q2rfH3GW39c-unsplash.jpg,Stimuli/Experimental_stims/objects/kuiye-chen-NuOGFo4PudE-unsplash.jpg,0,1,358,0,chosen,25,44,body_parts,objects,1100,0,5,1
168,53808,0,169,3,3,1,gain1,no_gain6,D,F,14,31,faces,body_parts,100,100,Stimuli/Experimental_stims/faces/david-siglin-UuW4psOb388-unsplash.jpg,Stimuli/Experimental_stims/body_parts/sincerely-media-VN6DbKajo5s-unsplash.jpg,0,1,71,1,unchosen,14,31,faces,body_parts,1700,0,5,1
169,53808,0,170,3,3,1,gain2,no_gain2,H,J,21,22,faces,faces,100,100,Stimuli/Experimental_stims/faces/leilani-angel-K84vnnzxmTQ-unsplash.jpg,Stimuli/Experimental_stims/faces/ravi-patel-VMGAbeeJTKo-unsplash.jpg,0,1,222,1,chosen,21,22,faces,faces,1100,0,5,1
170,53808,0,171,3,3,0,no_gain2,gain4,J,B,41,17,objects,faces,100,99,Stimuli/Experimental_stims/objects/insung-yoon-w2JtIQQXoRU-unsplash.jpg,Stimuli/Experimental_stims/faces/good-faces-xmSWVeGEnJw-unsplash.jpg,0,1,853,0,unchosen,41,17,objects,faces,3300,1,5,1
171,53808,0,172,3,3,0,no_gain3,gain2,A,H,8,21,outdoor_scenes,faces,100,100,Stimuli/Experimental_stims/outdoor_scenes/samsommer-vddccTqwal8-unsplash.jpg,Stimuli/Experimental_stims/faces/leilani-angel-K84vnnzxmTQ-unsplash.jpg,1,NaN,,NaN,chosen,NaN,NaN,NaN,NaN,2800,0,5,1
172,53808,0,173,3,3,0,no_gain4,gain2,E,H,46,21,objects,faces,99,100,Stimuli/Experimental_stims/objects/mockup-graphics-PNsj6RiHAF4-unsplash.jpg,Stimuli/Experimental_stims/faces/leilani-angel-K84vnnzxmTQ-unsplash.jpg,0,1,151,0,chosen,46,21,objects,faces,1000,0,5,1
173,53808,0,174,3,3,0,no_gain1,gain6,C,G,33,4,body_parts,outdoor_scenes,99,100,Stimuli/Experimental_stims/body_parts/tucker-good-36skLT5jZcc-unsplash.jpg,Stimuli/Experimental_stims/outdoor_scenes/jarrett-kow-1ZOyYPOBn7I-unsplash.jpg,0,1,578,0,unchosen,33,4,body_parts,outdoor_scenes,3100,0,5,1
174,53808,0,175,3,3,1,gain4,no_gain1,B,C,0,3,outdoor_scenes,outdoor_scenes,100,100,Stimuli/Experimental_stims/outdoor_scenes/aleksandra-boguslawska-MS7KD9Ti7FQ-unsplash.jpg,Stimuli/Experimental_stims/outdoor_scenes/henry-be-NLF6hTe4PAg-unsplash.jpg,0,1,260,1,chosen,0,3,outdoor_scenes,outdoor_scenes,2000,0,5,1
175,53808,0,176,3,3,0,no_gain6,gain6,F,G,31,4,body_parts,outdoor_scenes,100,100,Stimuli/Experimental_stims/body_parts/sincerely-media-VN6DbKajo5s-unsplash.jpg,Stimuli/Experimental_stims/outdoor_scenes/jarrett-kow-1ZOyYPOBn7I-unsplash.jpg,0,1,80,0,unchosen,31,4,body_parts,outdoor_scenes,2300,0,5,1
176,53808,0,177,3,3,0,no_gain2,gain5,J,L,22,26,faces,body_parts,100,100,Stimuli/Experimental_stims/faces/ravi-patel-VMGAbeeJTKo-unsplash.jpg,Stimuli/Experimental_stims/body_parts/engin-akyurt-x_3gyC42btc-unsplash.jpg,0,1,25,0,chosen,22,26,faces,body_parts,1500,0,5,1
177,53808,0,178,3,3,0,no_gain5,gain2,K,H,36,7,objects,outdoor_scenes,100,100,Stimuli/Experimental_stims/objects/alexander-andrews-JYGnB9gTCls-unsplash.jpg,Stimuli/Experimental_stims/outdoor_scenes/petr-vysohlid-9fqwGqGLUxc-unsplash.jpg,0,1,131,0,unchosen,36,7,objects,outdoor_scenes,1600,0,5,1
178,53808,0,179,3,3,1,gain6,no_gain1,G,C,44,3,objects,outdoor_scenes,100,100,Stimuli/Experimental_stims/objects/kuiye-chen-NuOGFo4PudE-unsplash.jpg,Stimuli/Experimental_stims/outdoor_scenes/henry-be-NLF6hTe4PAg-unsplash.jpg,0,1,978,1,chosen,44,3,objects,outdoor_scenes,4200,1,5,1
179,53808,0,180,3,3,0,no_gain5,gain4,K,B,25,0,body_parts,outdoor_scenes,100,100,Stimuli/Experimental_stims/body_parts/engin-akyurt-Q2rfH3GW39c-unsplash.jpg,Stimuli/Experimental_stims/outdoor_scenes/aleksandra-boguslawska-MS7KD9Ti7FQ-unsplash.jpg,0,1,637,0,chosen,25,0,body_parts,outdoor_scenes,1000,0,5,1
180,53808,0,181,3,3,0,no_gain6,gain3,F,I,19,30,faces,body_parts,100,100,Stimuli/Experimental_stims/faces/joel-mott-LaK153ghdig-unsplash.jpg,Stimuli/Experimental_stims/body_parts/mika-korhonen-Xodzxosar18-unsplash.jpg,0,1,84,0,chosen,19,30,faces,body_parts,2000,0,5,1
181,53808,0,182,3,3,1,gain4,no_gain3,B,A,17,42,faces,objects,99,99,Stimuli/Experimental_stims/faces/good-faces-xmSWVeGEnJw-unsplash.jpg,Stimuli/Experimental_stims/objects/jess-bailey-nOeVi8DsN8U-unsplash.jpg,0,1,254,1,unchosen,17,42,faces,objects,1700,0,5,1
182,53808,0,183,3,3,1,gain2,no_gain6,H,F,7,31,outdoor_scenes,body_parts,100,100,Stimuli/Experimental_stims/outdoor_scenes/petr-vysohlid-9fqwGqGLUxc-unsplash.jpg,Stimuli/Experimental_stims/body_parts/sincerely-media-VN6DbKajo5s-unsplash.jpg,0,1,163,1,unchosen,7,31,outdoor_scenes,body_parts,2300,0,5,1
183,53808,0,184,3,3,1,gain4,no_gain4,B,E,17,34,faces,body_parts,99,100,Stimuli/Experimental_stims/faces/good-faces-xmSWVeGEnJw-unsplash.jpg,Stimuli/Experimental_stims/body_parts/wagner-santos-mBWMvIuVnso-unsplash.jpg,0,1,254,1,unchosen,17,34,faces,body_parts,3300,1,5,1
184,53808,0,185,3,3,0,no_gain1,gain2,C,H,3,21,outdoor_scenes,faces,100,100,Stimuli/Experimental_stims/outdoor_scenes/henry-be-NLF6hTe4PAg-unsplash.jpg,Stimuli/Experimental_stims/faces/leilani-angel-K84vnnzxmTQ-unsplash.jpg,0,1,1,0,chosen,3,21,outdoor_scenes,faces,1100,0,5,1
185,53808,0,186,3,3,0,no_gain4,gain6,E,G,46,44,objects,objects,99,100,Stimuli/Experimental_stims/objects/mockup-graphics-PNsj6RiHAF4-unsplash.jpg,Stimuli/Experimental_stims/objects/kuiye-chen-NuOGFo4PudE-unsplash.jpg,0,1,534,0,chosen,46,44,objects,objects,1900,0,5,1
186,53808,0,187,3,3,1,gain3,no_gain5,I,K,30,25,body_parts,body_parts,100,100,Stimuli/Experimental_stims/body_parts/mika-korhonen-Xodzxosar18-unsplash.jpg,Stimuli/Experimental_stims/body_parts/engin-akyurt-Q2rfH3GW39c-unsplash.jpg,0,1,114,1,chosen,30,25,body_parts,body_parts,2400,0,5,1
187,53808,0,188,3,3,0,no_gain2,gain6,J,G,41,4,objects,outdoor_scenes,100,100,Stimuli/Experimental_stims/objects/insung-yoon-w2JtIQQXoRU-unsplash.jpg,Stimuli/Experimental_stims/outdoor_scenes/jarrett-kow-1ZOyYPOBn7I-unsplash.jpg,0,1,72,0,unchosen,41,4,objects,outdoor_scenes,1900,0,5,1
188,53808,0,189,3,3,0,no_gain1,gain1,C,D,33,14,body_parts,faces,99,100,Stimuli/Experimental_stims/body_parts/tucker-good-36skLT5jZcc-unsplash.jpg,Stimuli/Experimental_stims/faces/david-siglin-UuW4psOb388-unsplash.jpg,0,1,210,0,unchosen,33,14,body_parts,faces,3300,1,5,1
189,53808,0,190,3,3,0,no_gain3,gain5,A,L,42,23,objects,faces,99,100,Stimuli/Experimental_stims/objects/jess-bailey-nOeVi8DsN8U-unsplash.jpg,Stimuli/Experimental_stims/faces/rikonavt-HQjfrvdTfak-unsplash.jpg,0,1,139,0,unchosen,42,23,objects,faces,1200,0,5,1
190,53808,0,191,3,3,1,gain1,no_gain1,D,C,43,3,objects,outdoor_scenes,99,100,Stimuli/Experimental_stims/objects/jonathan-greenaway-Y4hGgeiFn3s-unsplash.jpg,Stimuli/Experimental_stims/outdoor_scenes/henry-be-NLF6hTe4PAg-unsplash.jpg,0,1,452,1,chosen,43,3,objects,outdoor_scenes,1100,0,5,1
191,53808,0,192,3,3,0,no_gain4,gain5,E,L,34,23,body_parts,faces,100,100,Stimuli/Experimental_stims/body_parts/wagner-santos-mBWMvIuVnso-unsplash.jpg,Stimuli/Experimental_stims/faces/rikonavt-HQjfrvdTfak-unsplash.jpg,0,1,1,0,unchosen,34,23,body_parts,faces,1400,0,5,1
192,53808,0,193,3,3,1,gain3,no_gain1,I,C,1,33,outdoor_scenes,body_parts,100,99,Stimuli/Experimental_stims/outdoor_scenes/ashim-d-silva-S2Q5mdOrrVc-unsplash.jpg,Stimuli/Experimental_stims/body_parts/tucker-good-36skLT5jZcc-unsplash.jpg,0,1,226,1,unchosen,1,33,outdoor_scenes,body_parts,2600,0,5,1
193,53808,0,194,3,3,1,gain6,no_gain4,G,E,4,34,outdoor_scenes,body_parts,100,100,Stimuli/Experimental_stims/outdoor_scenes/jarrett-kow-1ZOyYPOBn7I-unsplash.jpg,Stimuli/Experimental_stims/body_parts/wagner-santos-mBWMvIuVnso-unsplash.jpg,0,1,110,1,unchosen,4,34,outdoor_scenes,body_parts,1100,0,5,1
194,53808,0,195,3,3,1,gain1,no_gain3,D,A,43,8,objects,outdoor_scenes,99,100,Stimuli/Experimental_stims/objects/jonathan-greenaway-Y4hGgeiFn3s-unsplash.jpg,Stimuli/Experimental_stims/outdoor_scenes/samsommer-vddccTqwal8-unsplash.jpg,0,1,313,1,chosen,43,8,objects,outdoor_scenes,4100,1,5,1
195,53808,0,196,3,3,1,gain6,no_gain3,G,A,4,42,outdoor_scenes,objects,100,99,Stimuli/Experimental_stims/outdoor_scenes/jarrett-kow-1ZOyYPOBn7I-unsplash.jpg,Stimuli/Experimental_stims/objects/jess-bailey-nOeVi8DsN8U-unsplash.jpg,0,1,39,1,unchosen,4,42,outdoor_scenes,objects,1000,0,5,1
196,53808,0,197,3,3,0,no_gain3,gain4,A,B,8,0,outdoor_scenes,outdoor_scenes,100,100,Stimuli/Experimental_stims/outdoor_scenes/samsommer-vddccTqwal8-unsplash.jpg,Stimuli/Experimental_stims/outdoor_scenes/aleksandra-boguslawska-MS7KD9Ti7FQ-unsplash.jpg,0,1,122,0,chosen,8,0,outdoor_scenes,outdoor_scenes,1800,0,5,1
197,53808,0,198,3,3,1,gain1,no_gain3,D,A,14,42,faces,objects,100,99,Stimuli/Experimental_stims/faces/david-siglin-UuW4psOb388-unsplash.jpg,Stimuli/Experimental_stims/objects/jess-bailey-nOeVi8DsN8U-unsplash.jpg,0,1,286,1,unchosen,14,42,faces,objects,1600,0,5,1
198,53808,0,199,3,3,1,gain4,no_gain6,B,F,17,31,faces,body_parts,99,100,Stimuli/Experimental_stims/faces/good-faces-xmSWVeGEnJw-unsplash.jpg,Stimuli/Experimental_stims/body_parts/sincerely-media-VN6DbKajo5s-unsplash.jpg,0,1,756,1,unchosen,17,31,faces,body_parts,2100,0,5,1
199,53808,0,200,3,3,1,gain2,no_gain4,H,E,7,34,outdoor_scenes,body_parts,100,100,Stimuli/Experimental_stims/outdoor_scenes/petr-vysohlid-9fqwGqGLUxc-unsplash.jpg,Stimuli/Experimental_stims/body_parts/wagner-santos-mBWMvIuVnso-unsplash.jpg,0,1,340,1,unchosen,7,34,outdoor_scenes,body_parts,1700,0,5,1
200,53808,0,201,3,3,1,gain5,no_gain3,L,A,26,8,body_parts,outdoor_scenes,100,100,Stimuli/Experimental_stims/body_parts/engin-akyurt-x_3gyC42btc-unsplash.jpg,Stimuli/Experimental_stims/outdoor_scenes/samsommer-vddccTqwal8-unsplash.jpg,0,1,72,1,chosen,26,8,body_parts,outdoor_scenes,3200,1,5,1
201,53808,0,202,3,3,0,no_gain6,gain4,F,B,19,0,faces,outdoor_scenes,100,100,Stimuli/Experimental_stims/faces/joel-mott-LaK153ghdig-unsplash.jpg,Stimuli/Experimental_stims/outdoor_scenes/aleksandra-boguslawska-MS7KD9Ti7FQ-unsplash.jpg,0,1,221,0,chosen,19,0,faces,outdoor_scenes,1100,0,5,1
202,53808,0,203,3,3,1,gain2,no_gain2,H,J,7,41,outdoor_scenes,objects,100,100,Stimuli/Experimental_stims/outdoor_scenes/petr-vysohlid-9fqwGqGLUxc-unsplash.jpg,Stimuli/Experimental_stims/objects/insung-yoon-w2JtIQQXoRU-unsplash.jpg,0,1,9,1,unchosen,7,41,outdoor_scenes,objects,2800,0,5,1
203,53808,0,204,3,3,1,gain2,no_gain5,H,K,21,25,faces,body_parts,100,100,Stimuli/Experimental_stims/faces/leilani-angel-K84vnnzxmTQ-unsplash.jpg,Stimuli/Experimental_stims/body_parts/engin-akyurt-Q2rfH3GW39c-unsplash.jpg,0,1,346,1,chosen,21,25,faces,body_parts,1400,0,5,1
204,53808,0,205,3,3,1,gain1,no_gain2,D,J,43,22,objects,faces,99,100,Stimuli/Experimental_stims/objects/jonathan-greenaway-Y4hGgeiFn3s-unsplash.jpg,Stimuli/Experimental_stims/faces/ravi-patel-VMGAbeeJTKo-unsplash.jpg,0,1,157,1,chosen,43,22,objects,faces,2200,0,5,1
205,53808,0,206,3,3,1,gain3,no_gain3,I,A,1,42,outdoor_scenes,objects,100,99,Stimuli/Experimental_stims/outdoor_scenes/ashim-d-silva-S2Q5mdOrrVc-unsplash.jpg,Stimuli/Experimental_stims/objects/jess-bailey-nOeVi8DsN8U-unsplash.jpg,0,1,207,1,unchosen,1,42,outdoor_scenes,objects,1200,0,5,1
206,53808,0,207,3,3,0,no_gain6,gain5,F,L,19,26,faces,body_parts,100,100,Stimuli/Experimental_stims/faces/joel-mott-LaK153ghdig-unsplash.jpg,Stimuli/Experimental_stims/body_parts/engin-akyurt-x_3gyC42btc-unsplash.jpg,0,1,377,0,chosen,19,26,faces,body_parts,2100,0,5,1
207,53808,0,208,3,3,1,gain1,no_gain5,D,K,43,25,objects,body_parts,99,100,Stimuli/Experimental_stims/objects/jonathan-greenaway-Y4hGgeiFn3s-unsplash.jpg,Stimuli/Experimental_stims/body_parts/engin-akyurt-Q2rfH3GW39c-unsplash.jpg,0,1,31,1,chosen,43,25,objects,body_parts,2600,0,5,1
208,53808,0,209,3,3,0,no_gain2,gain3,J,I,41,1,objects,outdoor_scenes,100,100,Stimuli/Experimental_stims/objects/insung-yoon-w2JtIQQXoRU-unsplash.jpg,Stimuli/Experimental_stims/outdoor_scenes/ashim-d-silva-S2Q5mdOrrVc-unsplash.jpg,0,1,149,0,unchosen,41,1,objects,outdoor_scenes,3800,1,5,1
209,53808,0,210,3,3,0,no_gain6,gain1,F,D,19,43,faces,objects,100,99,Stimuli/Experimental_stims/faces/joel-mott-LaK153ghdig-unsplash.jpg,Stimuli/Experimental_stims/objects/jonathan-greenaway-Y4hGgeiFn3s-unsplash.jpg,0,1,14,0,chosen,19,43,faces,objects,2300,0,5,1
210,53808,0,211,3,3,1,gain3,no_gain2,I,J,30,22,body_parts,faces,100,100,Stimuli/Experimental_stims/body_parts/mika-korhonen-Xodzxosar18-unsplash.jpg,Stimuli/Experimental_stims/faces/ravi-patel-VMGAbeeJTKo-unsplash.jpg,0,1,357,1,chosen,30,22,body_parts,faces,1500,0,5,1
211,53808,0,212,3,3,0,no_gain3,gain2,A,H,42,7,objects,outdoor_scenes,99,100,Stimuli/Experimental_stims/objects/jess-bailey-nOeVi8DsN8U-unsplash.jpg,Stimuli/Experimental_stims/outdoor_scenes/petr-vysohlid-9fqwGqGLUxc-unsplash.jpg,0,1,402,0,unchosen,42,7,objects,outdoor_scenes,1700,0,5,1
212,53808,0,213,3,3,1,gain5,no_gain5,L,K,23,36,faces,objects,100,100,Stimuli/Experimental_stims/faces/rikonavt-HQjfrvdTfak-unsplash.jpg,Stimuli/Experimental_stims/objects/alexander-andrews-JYGnB9gTCls-unsplash.jpg,0,1,158,1,unchosen,23,36,faces,objects,1000,0,5,1
213,53808,0,214,3,3,1,gain6,no_gain5,G,K,4,36,outdoor_scenes,objects,100,100,Stimuli/Experimental_stims/outdoor_scenes/jarrett-kow-1ZOyYPOBn7I-unsplash.jpg,Stimuli/Experimental_stims/objects/alexander-andrews-JYGnB9gTCls-unsplash.jpg,0,1,815,1,unchosen,4,36,outdoor_scenes,objects,2800,0,5,1
214,53808,0,215,3,3,0,no_gain1,gain5,C,L,3,26,outdoor_scenes,body_parts,100,100,Stimuli/Experimental_stims/outdoor_scenes/henry-be-NLF6hTe4PAg-unsplash.jpg,Stimuli/Experimental_stims/body_parts/engin-akyurt-x_3gyC42btc-unsplash.jpg,0,1,81,0,chosen,3,26,outdoor_scenes,body_parts,2400,0,5,1
215,53808,0,216,3,3,0,no_gain1,gain5,C,L,33,23,body_parts,faces,99,100,Stimuli/Experimental_stims/body_parts/tucker-good-36skLT5jZcc-unsplash.jpg,Stimuli/Experimental_stims/faces/rikonavt-HQjfrvdTfak-unsplash.jpg,0,1,274,0,unchosen,33,23,body_parts,faces,3800,1,5,1
216,53808,0,217,3,3,0,no_gain5,gain3,K,I,36,1,objects,outdoor_scenes,100,100,Stimuli/Experimental_stims/objects/alexander-andrews-JYGnB9gTCls-unsplash.jpg,Stimuli/Experimental_stims/outdoor_scenes/ashim-d-silva-S2Q5mdOrrVc-unsplash.jpg,0,1,298,0,unchosen,36,1,objects,outdoor_scenes,1500,0,5,1
217,53808,0,218,3,3,0,no_gain5,gain1,K,D,36,14,objects,faces,100,100,Stimuli/Experimental_stims/objects/alexander-andrews-JYGnB9gTCls-unsplash.jpg,Stimuli/Experimental_stims/faces/david-siglin-UuW4psOb388-unsplash.jpg,0,1,364,0,unchosen,36,14,objects,faces,1100,0,5,1
218,53808,0,219,3,3,1,gain4,no_gain2,B,J,0,22,outdoor_scenes,faces,100,100,Stimuli/Experimental_stims/outdoor_scenes/aleksandra-boguslawska-MS7KD9Ti7FQ-unsplash.jpg,Stimuli/Experimental_stims/faces/ravi-patel-VMGAbeeJTKo-unsplash.jpg,0,1,381,1,chosen,0,22,outdoor_scenes,faces,1500,0,5,1
219,53808,0,220,3,3,0,no_gain2,gain6,J,G,22,44,faces,objects,100,100,Stimuli/Experimental_stims/faces/ravi-patel-VMGAbeeJTKo-unsplash.jpg,Stimuli/Experimental_stims/objects/kuiye-chen-NuOGFo4PudE-unsplash.jpg,0,1,138,0,chosen,22,44,faces,objects,2500,0,5,1
220,53808,0,221,4,4,0,no_gain5,gain1,K,D,36,14,objects,faces,100,100,Stimuli/Experimental_stims/objects/alexander-andrews-JYGnB9gTCls-unsplash.jpg,Stimuli/Experimental_stims/faces/david-siglin-UuW4psOb388-unsplash.jpg,0,1,571,0,unchosen,36,14,objects,faces,3400,1,3,1
221,53808,0,222,4,4,0,no_gain5,gain4,K,B,25,0,body_parts,outdoor_scenes,100,100,Stimuli/Experimental_stims/body_parts/engin-akyurt-Q2rfH3GW39c-unsplash.jpg,Stimuli/Experimental_stims/outdoor_scenes/aleksandra-boguslawska-MS7KD9Ti7FQ-unsplash.jpg,0,1,437,0,chosen,25,0,body_parts,outdoor_scenes,1500,0,3,1
222,53808,0,223,4,4,0,no_gain2,gain3,J,I,41,1,objects,outdoor_scenes,100,100,Stimuli/Experimental_stims/objects/insung-yoon-w2JtIQQXoRU-unsplash.jpg,Stimuli/Experimental_stims/outdoor_scenes/ashim-d-silva-S2Q5mdOrrVc-unsplash.jpg,0,1,89,0,unchosen,41,1,objects,outdoor_scenes,2000,0,3,1
223,53808,0,224,4,4,0,no_gain4,gain3,E,I,34,1,body_parts,outdoor_scenes,100,100,Stimuli/Experimental_stims/body_parts/wagner-santos-mBWMvIuVnso-unsplash.jpg,Stimuli/Experimental_stims/outdoor_scenes/ashim-d-silva-S2Q5mdOrrVc-unsplash.jpg,0,1,276,0,unchosen,34,1,body_parts,outdoor_scenes,1100,0,3,1
224,53808,0,225,4,4,0,no_gain1,gain6,C,G,33,4,body_parts,outdoor_scenes,99,100,Stimuli/Experimental_stims/body_parts/tucker-good-36skLT5jZcc-unsplash.jpg,Stimuli/Experimental_stims/outdoor_scenes/jarrett-kow-1ZOyYPOBn7I-unsplash.jpg,0,1,444,0,unchosen,33,4,body_parts,outdoor_scenes,2700,0,3,1
225,53808,0,226,4,4,0,no_gain4,gain2,E,H,46,21,objects,faces,99,100,Stimuli/Experimental_stims/objects/mockup-graphics-PNsj6RiHAF4-unsplash.jpg,Stimuli/Experimental_stims/faces/leilani-angel-K84vnnzxmTQ-unsplash.jpg,0,1,658,0,chosen,46,21,objects,faces,1700,0,3,1
226,53808,0,227,4,4,0,no_gain1,gain1,C,D,3,43,outdoor_scenes,objects,100,99,Stimuli/Experimental_stims/outdoor_scenes/henry-be-NLF6hTe4PAg-unsplash.jpg,Stimuli/Experimental_stims/objects/jonathan-greenaway-Y4hGgeiFn3s-unsplash.jpg,0,1,1271,0,chosen,3,43,outdoor_scenes,objects,3500,1,3,1
227,53808,0,228,4,4,0,no_gain3,gain3,A,I,42,1,objects,outdoor_scenes,99,100,Stimuli/Experimental_stims/objects/jess-bailey-nOeVi8DsN8U-unsplash.jpg,Stimuli/Experimental_stims/outdoor_scenes/ashim-d-silva-S2Q5mdOrrVc-unsplash.jpg,0,1,576,0,unchosen,42,1,objects,outdoor_scenes,2700,0,3,1
228,53808,0,229,4,4,1,gain4,no_gain5,B,K,17,36,faces,objects,99,100,Stimuli/Experimental_stims/faces/good-faces-xmSWVeGEnJw-unsplash.jpg,Stimuli/Experimental_stims/objects/alexander-andrews-JYGnB9gTCls-unsplash.jpg,0,1,83,1,unchosen,17,36,faces,objects,1500,0,3,1
229,53808,0,230,4,4,0,no_gain6,gain1,F,D,19,43,faces,objects,100,99,Stimuli/Experimental_stims/faces/joel-mott-LaK153ghdig-unsplash.jpg,Stimuli/Experimental_stims/objects/jonathan-greenaway-Y4hGgeiFn3s-unsplash.jpg,0,1,55,0,chosen,19,43,faces,objects,1700,0,3,1
230,53808,0,231,4,4,0,no_gain1,gain2,C,H,33,7,body_parts,outdoor_scenes,99,100,Stimuli/Experimental_stims/body_parts/tucker-good-36skLT5jZcc-unsplash.jpg,Stimuli/Experimental_stims/outdoor_scenes/petr-vysohlid-9fqwGqGLUxc-unsplash.jpg,0,1,441,0,unchosen,33,7,body_parts,outdoor_scenes,2300,0,3,1
231,53808,0,232,4,4,0,no_gain4,gain6,E,G,46,44,objects,objects,99,100,Stimuli/Experimental_stims/objects/mockup-graphics-PNsj6RiHAF4-unsplash.jpg,Stimuli/Experimental_stims/objects/kuiye-chen-NuOGFo4PudE-unsplash.jpg,0,1,382,0,chosen,46,44,objects,objects,3100,1,3,1
232,53808,0,233,4,4,1,gain5,no_gain3,L,A,26,8,body_parts,outdoor_scenes,100,100,Stimuli/Experimental_stims/body_parts/engin-akyurt-x_3gyC42btc-unsplash.jpg,Stimuli/Experimental_stims/outdoor_scenes/samsommer-vddccTqwal8-unsplash.jpg,0,1,256,1,chosen,26,8,body_parts,outdoor_scenes,1300,0,3,1
233,53808,0,234,4,4,1,gain1,no_gain3,D,A,43,8,objects,outdoor_scenes,99,100,Stimuli/Experimental_stims/objects/jonathan-greenaway-Y4hGgeiFn3s-unsplash.jpg,Stimuli/Experimental_stims/outdoor_scenes/samsommer-vddccTqwal8-unsplash.jpg,0,1,288,1,chosen,43,8,objects,outdoor_scenes,1400,0,3,1
234,53808,0,235,4,4,1,gain2,no_gain4,H,E,7,34,outdoor_scenes,body_parts,100,100,Stimuli/Experimental_stims/outdoor_scenes/petr-vysohlid-9fqwGqGLUxc-unsplash.jpg,Stimuli/Experimental_stims/body_parts/wagner-santos-mBWMvIuVnso-unsplash.jpg,0,1,1475,1,unchosen,7,34,outdoor_scenes,body_parts,2500,0,3,1
235,53808,0,236,4,4,1,gain2,no_gain5,H,K,7,36,outdoor_scenes,objects,100,100,Stimuli/Experimental_stims/outdoor_scenes/petr-vysohlid-9fqwGqGLUxc-unsplash.jpg,Stimuli/Experimental_stims/objects/alexander-andrews-JYGnB9gTCls-unsplash.jpg,0,1,65,1,unchosen,7,36,outdoor_scenes,objects,1500,0,3,1
236,53808,0,237,4,4,1,gain4,no_gain1,B,C,17,33,faces,body_parts,99,99,Stimuli/Experimental_stims/faces/good-faces-xmSWVeGEnJw-unsplash.jpg,Stimuli/Experimental_stims/body_parts/tucker-good-36skLT5jZcc-unsplash.jpg,0,1,336,1,unchosen,17,33,faces,body_parts,1900,0,3,1
237,53808,0,238,4,4,1,gain6,no_gain3,G,A,44,8,objects,outdoor_scenes,100,100,Stimuli/Experimental_stims/objects/kuiye-chen-NuOGFo4PudE-unsplash.jpg,Stimuli/Experimental_stims/outdoor_scenes/samsommer-vddccTqwal8-unsplash.jpg,0,1,2,1,chosen,44,8,objects,outdoor_scenes,1200,0,3,1
238,53808,0,239,4,4,1,gain2,no_gain5,H,K,21,25,faces,body_parts,100,100,Stimuli/Experimental_stims/faces/leilani-angel-K84vnnzxmTQ-unsplash.jpg,Stimuli/Experimental_stims/body_parts/engin-akyurt-Q2rfH3GW39c-unsplash.jpg,0,1,56,1,chosen,21,25,faces,body_parts,3500,1,3,1
239,53808,0,240,4,4,0,no_gain2,gain6,J,G,41,4,objects,outdoor_scenes,100,100,Stimuli/Experimental_stims/objects/insung-yoon-w2JtIQQXoRU-unsplash.jpg,Stimuli/Experimental_stims/outdoor_scenes/jarrett-kow-1ZOyYPOBn7I-unsplash.jpg,0,1,68,0,unchosen,41,4,objects,outdoor_scenes,1500,0,3,1
240,53808,0,241,4,4,1,gain5,no_gain6,L,F,26,19,body_parts,faces,100,100,Stimuli/Experimental_stims/body_parts/engin-akyurt-x_3gyC42btc-unsplash.jpg,Stimuli/Experimental_stims/faces/joel-mott-LaK153ghdig-unsplash.jpg,0,1,512,1,chosen,26,19,body_parts,faces,2200,0,3,1
241,53808,0,242,4,4,1,gain6,no_gain2,G,J,44,22,objects,faces,100,100,Stimuli/Experimental_stims/objects/kuiye-chen-NuOGFo4PudE-unsplash.jpg,Stimuli/Experimental_stims/faces/ravi-patel-VMGAbeeJTKo-unsplash.jpg,0,1,170,1,chosen,44,22,objects,faces,1100,0,3,1
242,53808,0,243,4,4,0,no_gain3,gain2,A,H,8,21,outdoor_scenes,faces,100,100,Stimuli/Experimental_stims/outdoor_scenes/samsommer-vddccTqwal8-unsplash.jpg,Stimuli/Experimental_stims/faces/leilani-angel-K84vnnzxmTQ-unsplash.jpg,0,1,204,0,chosen,8,21,outdoor_scenes,faces,1300,0,3,1
243,53808,0,244,4,4,0,no_gain3,gain5,A,L,42,23,objects,faces,99,100,Stimuli/Experimental_stims/objects/jess-bailey-nOeVi8DsN8U-unsplash.jpg,Stimuli/Experimental_stims/faces/rikonavt-HQjfrvdTfak-unsplash.jpg,0,1,383,0,unchosen,42,23,objects,faces,1500,0,3,1
244,53808,0,245,4,4,0,no_gain6,gain6,F,G,19,44,faces,objects,100,100,Stimuli/Experimental_stims/faces/joel-mott-LaK153ghdig-unsplash.jpg,Stimuli/Experimental_stims/objects/kuiye-chen-NuOGFo4PudE-unsplash.jpg,0,1,418,0,chosen,19,44,faces,objects,1100,0,3,1
245,53808,0,246,4,4,1,gain3,no_gain6,I,F,30,19,body_parts,faces,100,100,Stimuli/Experimental_stims/body_parts/mika-korhonen-Xodzxosar18-unsplash.jpg,Stimuli/Experimental_stims/faces/joel-mott-LaK153ghdig-unsplash.jpg,0,1,119,1,chosen,30,19,body_parts,faces,2000,0,3,1
246,53808,0,247,4,4,0,no_gain2,gain5,J,L,41,23,objects,faces,100,100,Stimuli/Experimental_stims/objects/insung-yoon-w2JtIQQXoRU-unsplash.jpg,Stimuli/Experimental_stims/faces/rikonavt-HQjfrvdTfak-unsplash.jpg,0,1,391,0,unchosen,41,23,objects,faces,4700,1,3,1
247,53808,0,248,4,4,0,no_gain1,gain3,C,I,3,30,outdoor_scenes,body_parts,100,100,Stimuli/Experimental_stims/outdoor_scenes/henry-be-NLF6hTe4PAg-unsplash.jpg,Stimuli/Experimental_stims/body_parts/mika-korhonen-Xodzxosar18-unsplash.jpg,0,1,220,0,chosen,3,30,outdoor_scenes,body_parts,2400,0,3,1
248,53808,0,249,4,4,1,gain4,no_gain2,B,J,17,41,faces,objects,99,100,Stimuli/Experimental_stims/faces/good-faces-xmSWVeGEnJw-unsplash.jpg,Stimuli/Experimental_stims/objects/insung-yoon-w2JtIQQXoRU-unsplash.jpg,0,1,353,1,unchosen,17,41,faces,objects,1100,0,3,1
249,53808,0,250,4,4,1,gain6,no_gain5,G,K,44,25,objects,body_parts,100,100,Stimuli/Experimental_stims/objects/kuiye-chen-NuOGFo4PudE-unsplash.jpg,Stimuli/Experimental_stims/body_parts/engin-akyurt-Q2rfH3GW39c-unsplash.jpg,0,1,1019,1,chosen,44,25,objects,body_parts,2400,0,3,1
250,53808,0,251,4,4,1,gain4,no_gain6,B,F,17,31,faces,body_parts,99,100,Stimuli/Experimental_stims/faces/good-faces-xmSWVeGEnJw-unsplash.jpg,Stimuli/Experimental_stims/body_parts/sincerely-media-VN6DbKajo5s-unsplash.jpg,0,1,232,1,unchosen,17,31,faces,body_parts,1600,0,3,1
251,53808,0,252,4,4,0,no_gain1,gain1,C,D,33,14,body_parts,faces,99,100,Stimuli/Experimental_stims/body_parts/tucker-good-36skLT5jZcc-unsplash.jpg,Stimuli/Experimental_stims/faces/david-siglin-UuW4psOb388-unsplash.jpg,0,1,479,0,unchosen,33,14,body_parts,faces,2300,0,3,1
252,53808,0,253,4,4,0,no_gain3,gain4,A,B,8,0,outdoor_scenes,outdoor_scenes,100,100,Stimuli/Experimental_stims/outdoor_scenes/samsommer-vddccTqwal8-unsplash.jpg,Stimuli/Experimental_stims/outdoor_scenes/aleksandra-boguslawska-MS7KD9Ti7FQ-unsplash.jpg,0,1,233,0,chosen,8,0,outdoor_scenes,outdoor_scenes,2500,0,3,1
253,53808,0,254,4,4,1,gain3,no_gain5,I,K,30,25,body_parts,body_parts,100,100,Stimuli/Experimental_stims/body_parts/mika-korhonen-Xodzxosar18-unsplash.jpg,Stimuli/Experimental_stims/body_parts/engin-akyurt-Q2rfH3GW39c-unsplash.jpg,0,1,489,1,chosen,30,25,body_parts,body_parts,3700,1,3,1
254,53808,0,255,4,4,1,gain2,no_gain1,H,C,21,3,faces,outdoor_scenes,100,100,Stimuli/Experimental_stims/faces/leilani-angel-K84vnnzxmTQ-unsplash.jpg,Stimuli/Experimental_stims/outdoor_scenes/henry-be-NLF6hTe4PAg-unsplash.jpg,0,1,38,1,chosen,21,3,faces,outdoor_scenes,2100,0,3,1
255,53808,0,256,4,4,1,gain6,no_gain3,G,A,4,42,outdoor_scenes,objects,100,99,Stimuli/Experimental_stims/outdoor_scenes/jarrett-kow-1ZOyYPOBn7I-unsplash.jpg,Stimuli/Experimental_stims/objects/jess-bailey-nOeVi8DsN8U-unsplash.jpg,0,1,392,1,unchosen,4,42,outdoor_scenes,objects,2300,0,3,1
256,53808,0,257,4,4,0,no_gain6,gain1,F,D,31,14,body_parts,faces,100,100,Stimuli/Experimental_stims/body_parts/sincerely-media-VN6DbKajo5s-unsplash.jpg,Stimuli/Experimental_stims/faces/david-siglin-UuW4psOb388-unsplash.jpg,0,1,262,0,unchosen,31,14,body_parts,faces,1700,0,3,1
257,53808,0,258,4,4,0,no_gain4,gain6,E,G,34,4,body_parts,outdoor_scenes,100,100,Stimuli/Experimental_stims/body_parts/wagner-santos-mBWMvIuVnso-unsplash.jpg,Stimuli/Experimental_stims/outdoor_scenes/jarrett-kow-1ZOyYPOBn7I-unsplash.jpg,0,1,39,0,unchosen,34,4,body_parts,outdoor_scenes,2900,0,3,1
258,53808,0,259,4,4,0,no_gain4,gain1,E,D,46,43,objects,objects,99,99,Stimuli/Experimental_stims/objects/mockup-graphics-PNsj6RiHAF4-unsplash.jpg,Stimuli/Experimental_stims/objects/jonathan-greenaway-Y4hGgeiFn3s-unsplash.jpg,0,1,264,0,chosen,46,43,objects,objects,3000,1,3,1
259,53808,0,260,4,4,1,gain2,no_gain3,H,A,7,42,outdoor_scenes,objects,100,99,Stimuli/Experimental_stims/outdoor_scenes/petr-vysohlid-9fqwGqGLUxc-unsplash.jpg,Stimuli/Experimental_stims/objects/jess-bailey-nOeVi8DsN8U-unsplash.jpg,0,1,393,1,unchosen,7,42,outdoor_scenes,objects,2600,0,3,1
260,53808,0,261,4,4,0,no_gain6,gain5,F,L,31,23,body_parts,faces,100,100,Stimuli/Experimental_stims/body_parts/sincerely-media-VN6DbKajo5s-unsplash.jpg,Stimuli/Experimental_stims/faces/rikonavt-HQjfrvdTfak-unsplash.jpg,0,1,33,0,unchosen,31,23,body_parts,faces,1700,0,3,1
261,53808,0,262,4,4,0,no_gain3,gain1,A,D,42,14,objects,faces,99,100,Stimuli/Experimental_stims/objects/jess-bailey-nOeVi8DsN8U-unsplash.jpg,Stimuli/Experimental_stims/faces/david-siglin-UuW4psOb388-unsplash.jpg,0,1,135,0,unchosen,42,14,objects,faces,1800,0,3,1
262,53808,0,263,4,4,1,gain5,no_gain5,L,K,26,25,body_parts,body_parts,100,100,Stimuli/Experimental_stims/body_parts/engin-akyurt-x_3gyC42btc-unsplash.jpg,Stimuli/Experimental_stims/body_parts/engin-akyurt-Q2rfH3GW39c-unsplash.jpg,0,1,191,1,chosen,26,25,body_parts,body_parts,1400,0,3,1
263,53808,0,264,4,4,0,no_gain2,gain1,J,D,22,43,faces,objects,100,99,Stimuli/Experimental_stims/faces/ravi-patel-VMGAbeeJTKo-unsplash.jpg,Stimuli/Experimental_stims/objects/jonathan-greenaway-Y4hGgeiFn3s-unsplash.jpg,0,1,240,0,chosen,22,43,faces,objects,2200,0,3,1
264,53808,0,265,4,4,0,no_gain2,gain1,J,D,41,14,objects,faces,100,100,Stimuli/Experimental_stims/objects/insung-yoon-w2JtIQQXoRU-unsplash.jpg,Stimuli/Experimental_stims/faces/david-siglin-UuW4psOb388-unsplash.jpg,0,1,339,0,unchosen,41,14,objects,faces,3500,1,3,1
265,53808,0,266,4,4,1,gain3,no_gain3,I,A,30,8,body_parts,outdoor_scenes,100,100,Stimuli/Experimental_stims/body_parts/mika-korhonen-Xodzxosar18-unsplash.jpg,Stimuli/Experimental_stims/outdoor_scenes/samsommer-vddccTqwal8-unsplash.jpg,0,1,179,1,chosen,30,8,body_parts,outdoor_scenes,1400,0,3,1
266,53808,0,267,4,4,0,no_gain2,gain4,J,B,22,0,faces,outdoor_scenes,100,100,Stimuli/Experimental_stims/faces/ravi-patel-VMGAbeeJTKo-unsplash.jpg,Stimuli/Experimental_stims/outdoor_scenes/aleksandra-boguslawska-MS7KD9Ti7FQ-unsplash.jpg,0,1,45,0,chosen,22,0,faces,outdoor_scenes,1100,0,3,1
267,53808,0,268,4,4,1,gain6,no_gain1,G,C,44,3,objects,outdoor_scenes,100,100,Stimuli/Experimental_stims/objects/kuiye-chen-NuOGFo4PudE-unsplash.jpg,Stimuli/Experimental_stims/outdoor_scenes/henry-be-NLF6hTe4PAg-unsplash.jpg,0,1,291,1,chosen,44,3,objects,outdoor_scenes,1300,0,3,1
268,53808,0,269,4,4,0,no_gain1,gain3,C,I,33,1,body_parts,outdoor_scenes,99,100,Stimuli/Experimental_stims/body_parts/tucker-good-36skLT5jZcc-unsplash.jpg,Stimuli/Experimental_stims/outdoor_scenes/ashim-d-silva-S2Q5mdOrrVc-unsplash.jpg,0,1,14,0,unchosen,33,1,body_parts,outdoor_scenes,2600,0,3,1
269,53808,0,270,4,4,0,no_gain4,gain4,E,B,46,0,objects,outdoor_scenes,99,100,Stimuli/Experimental_stims/objects/mockup-graphics-PNsj6RiHAF4-unsplash.jpg,Stimuli/Experimental_stims/outdoor_scenes/aleksandra-boguslawska-MS7KD9Ti7FQ-unsplash.jpg,0,1,69,0,chosen,46,0,objects,outdoor_scenes,1100,0,3,1
270,53808,0,271,4,4,1,gain1,no_gain4,D,E,14,34,faces,body_parts,100,100,Stimuli/Experimental_stims/faces/david-siglin-UuW4psOb388-unsplash.jpg,Stimuli/Experimental_stims/body_parts/wagner-santos-mBWMvIuVnso-unsplash.jpg,0,1,229,1,unchosen,14,34,faces,body_parts,1400,0,3,1
271,53808,0,272,4,4,1,gain4,no_gain3,B,A,17,42,faces,objects,99,99,Stimuli/Experimental_stims/faces/good-faces-xmSWVeGEnJw-unsplash.jpg,Stimuli/Experimental_stims/objects/jess-bailey-nOeVi8DsN8U-unsplash.jpg,0,1,399,1,unchosen,17,42,faces,objects,3200,1,3,1
272,53808,0,273,4,4,0,no_gain6,gain2,F,H,19,21,faces,faces,100,100,Stimuli/Experimental_stims/faces/joel-mott-LaK153ghdig-unsplash.jpg,Stimuli/Experimental_stims/faces/leilani-angel-K84vnnzxmTQ-unsplash.jpg,0,1,14,0,chosen,19,21,faces,faces,1600,0,3,1
273,53808,0,274,4,4,0,no_gain2,gain5,J,L,22,26,faces,body_parts,100,100,Stimuli/Experimental_stims/faces/ravi-patel-VMGAbeeJTKo-unsplash.jpg,Stimuli/Experimental_stims/body_parts/engin-akyurt-x_3gyC42btc-unsplash.jpg,0,1,135,0,chosen,22,26,faces,body_parts,1000,0,3,1
274,53808,0,275,4,4,1,gain1,no_gain5,D,K,43,25,objects,body_parts,99,100,Stimuli/Experimental_stims/objects/jonathan-greenaway-Y4hGgeiFn3s-unsplash.jpg,Stimuli/Experimental_stims/body_parts/engin-akyurt-Q2rfH3GW39c-unsplash.jpg,0,1,442,1,chosen,43,25,objects,body_parts,1700,0,3,1
275,53808,0,276,4,4,1,gain4,no_gain4,B,E,17,34,faces,body_parts,99,100,Stimuli/Experimental_stims/faces/good-faces-xmSWVeGEnJw-unsplash.jpg,Stimuli/Experimental_stims/body_parts/wagner-santos-mBWMvIuVnso-unsplash.jpg,0,1,632,1,unchosen,17,34,faces,body_parts,1200,0,3,1
276,53808,0,277,4,4,1,gain3,no_gain5,I,K,1,36,outdoor_scenes,objects,100,100,Stimuli/Experimental_stims/outdoor_scenes/ashim-d-silva-S2Q5mdOrrVc-unsplash.jpg,Stimuli/Experimental_stims/objects/alexander-andrews-JYGnB9gTCls-unsplash.jpg,1,NaN,,NaN,unchosen,NaN,NaN,NaN,NaN,2200,0,3,1
277,53808,0,278,4,4,0,no_gain5,gain6,K,G,36,4,objects,outdoor_scenes,100,100,Stimuli/Experimental_stims/objects/alexander-andrews-JYGnB9gTCls-unsplash.jpg,Stimuli/Experimental_stims/outdoor_scenes/jarrett-kow-1ZOyYPOBn7I-unsplash.jpg,0,1,129,0,unchosen,36,4,objects,outdoor_scenes,2000,0,3,1
278,53808,0,279,4,4,1,gain3,no_gain4,I,E,30,46,body_parts,objects,100,99,Stimuli/Experimental_stims/body_parts/mika-korhonen-Xodzxosar18-unsplash.jpg,Stimuli/Experimental_stims/objects/mockup-graphics-PNsj6RiHAF4-unsplash.jpg,0,1,324,1,chosen,30,46,body_parts,objects,3100,1,3,1
279,53808,0,280,4,4,1,gain5,no_gain5,L,K,23,36,faces,objects,100,100,Stimuli/Experimental_stims/faces/rikonavt-HQjfrvdTfak-unsplash.jpg,Stimuli/Experimental_stims/objects/alexander-andrews-JYGnB9gTCls-unsplash.jpg,0,1,99,1,unchosen,23,36,faces,objects,2400,0,3,1
280,53808,0,281,4,4,1,gain4,no_gain1,B,C,0,3,outdoor_scenes,outdoor_scenes,100,100,Stimuli/Experimental_stims/outdoor_scenes/aleksandra-boguslawska-MS7KD9Ti7FQ-unsplash.jpg,Stimuli/Experimental_stims/outdoor_scenes/henry-be-NLF6hTe4PAg-unsplash.jpg,0,1,321,1,chosen,0,3,outdoor_scenes,outdoor_scenes,1000,0,3,1
281,53808,0,282,4,4,0,no_gain1,gain5,C,L,3,26,outdoor_scenes,body_parts,100,100,Stimuli/Experimental_stims/outdoor_scenes/henry-be-NLF6hTe4PAg-unsplash.jpg,Stimuli/Experimental_stims/body_parts/engin-akyurt-x_3gyC42btc-unsplash.jpg,0,1,604,0,chosen,3,26,outdoor_scenes,body_parts,1900,0,3,1
282,53808,0,283,4,4,0,no_gain4,gain5,E,L,34,23,body_parts,faces,100,100,Stimuli/Experimental_stims/body_parts/wagner-santos-mBWMvIuVnso-unsplash.jpg,Stimuli/Experimental_stims/faces/rikonavt-HQjfrvdTfak-unsplash.jpg,0,1,361,0,unchosen,34,23,body_parts,faces,2400,0,3,1
283,53808,0,284,4,4,1,gain2,no_gain2,H,J,21,22,faces,faces,100,100,Stimuli/Experimental_stims/faces/leilani-angel-K84vnnzxmTQ-unsplash.jpg,Stimuli/Experimental_stims/faces/ravi-patel-VMGAbeeJTKo-unsplash.jpg,0,1,716,1,chosen,21,22,faces,faces,1300,0,3,1
284,53808,0,285,4,4,0,no_gain4,gain5,E,L,46,26,objects,body_parts,99,100,Stimuli/Experimental_stims/objects/mockup-graphics-PNsj6RiHAF4-unsplash.jpg,Stimuli/Experimental_stims/body_parts/engin-akyurt-x_3gyC42btc-unsplash.jpg,0,1,365,0,chosen,46,26,objects,body_parts,1600,0,3,1
285,53808,0,286,4,4,1,gain6,no_gain6,G,F,4,31,outdoor_scenes,body_parts,100,100,Stimuli/Experimental_stims/outdoor_scenes/jarrett-kow-1ZOyYPOBn7I-unsplash.jpg,Stimuli/Experimental_stims/body_parts/sincerely-media-VN6DbKajo5s-unsplash.jpg,0,1,243,1,unchosen,4,31,outdoor_scenes,body_parts,1000,0,3,1
286,53808,0,287,4,4,0,no_gain6,gain4,F,B,19,0,faces,outdoor_scenes,100,100,Stimuli/Experimental_stims/faces/joel-mott-LaK153ghdig-unsplash.jpg,Stimuli/Experimental_stims/outdoor_scenes/aleksandra-boguslawska-MS7KD9Ti7FQ-unsplash.jpg,0,1,501,0,chosen,19,0,faces,outdoor_scenes,1500,0,3,1
287,53808,0,288,4,4,1,gain5,no_gain1,L,C,23,33,faces,body_parts,100,99,Stimuli/Experimental_stims/faces/rikonavt-HQjfrvdTfak-unsplash.jpg,Stimuli/Experimental_stims/body_parts/tucker-good-36skLT5jZcc-unsplash.jpg,0,1,87,1,unchosen,23,33,faces,body_parts,1900,0,3,1
288,53808,0,289,4,4,1,gain3,no_gain2,I,J,30,22,body_parts,faces,100,100,Stimuli/Experimental_stims/body_parts/mika-korhonen-Xodzxosar18-unsplash.jpg,Stimuli/Experimental_stims/faces/ravi-patel-VMGAbeeJTKo-unsplash.jpg,0,1,14,1,chosen,30,22,body_parts,faces,1600,0,3,1
289,53808,0,290,4,4,1,gain3,no_gain6,I,F,1,31,outdoor_scenes,body_parts,100,100,Stimuli/Experimental_stims/outdoor_scenes/ashim-d-silva-S2Q5mdOrrVc-unsplash.jpg,Stimuli/Experimental_stims/body_parts/sincerely-media-VN6DbKajo5s-unsplash.jpg,0,1,120,1,unchosen,1,31,outdoor_scenes,body_parts,1200,0,3,1
290,53808,0,291,4,4,1,gain2,no_gain2,H,J,7,41,outdoor_scenes,objects,100,100,Stimuli/Experimental_stims/outdoor_scenes/petr-vysohlid-9fqwGqGLUxc-unsplash.jpg,Stimuli/Experimental_stims/objects/insung-yoon-w2JtIQQXoRU-unsplash.jpg,0,1,505,1,unchosen,7,41,outdoor_scenes,objects,1000,0,3,1
291,53808,0,292,4,4,1,gain2,no_gain6,H,F,7,31,outdoor_scenes,body_parts,100,100,Stimuli/Experimental_stims/outdoor_scenes/petr-vysohlid-9fqwGqGLUxc-unsplash.jpg,Stimuli/Experimental_stims/body_parts/sincerely-media-VN6DbKajo5s-unsplash.jpg,0,1,98,1,unchosen,7,31,outdoor_scenes,body_parts,3200,1,3,1