,PID,practice,trial,block,run,gain_left,left_item_id,right_item_id,left_pair_id,right_pair_id,left_stimulus,right_stimulus,left_category,left_rating,right_rating,right_category,left_path,right_path,no_response,left_chosen,rt,higher_outcome_chosen,choice_type,chosen_stimulus,unchosen_stimulus,chosen_category,unchosen_category,iti,long_iti,simulation,version
0,15837,1,1,0,0,0,,,,,,,,,,,Stimuli/Practice_stims/Final_decisions/debby-hudson-FmCSSSGge-0-unsplash.jpg,Stimuli/Practice_stims/Final_decisions/yassine-khalfalli-adsQ9d_Cx0c-unsplash.jpg,0,1,774,0,,,,,,3000,0,7,2
1,15837,1,2,0,0,0,,,,,,,,,,,Stimuli/Practice_stims/Final_decisions/florian-wehde-iVW7mZPwd4g-unsplash.jpg,Stimuli/Practice_stims/Final_decisions/patrick-perkins-3wylDrjxH-E-unsplash.jpg,0,1,1295,0,,,,,,1500,0,7,2
2,15837,1,3,0,0,0,,,,,,,,,,,Stimuli/Practice_stims/Final_decisions/debby-hudson-FmCSSSGge-0-unsplash.jpg,Stimuli/Practice_stims/Final_decisions/florian-wehde-iVW7mZPwd4g-unsplash.jpg,0,0,876,1,,,,,,2000,0,7,2
3,15837,1,4,0,0,0,,,,,,,,,,,Stimuli/Practice_stims/Final_decisions/yassine-khalfalli-adsQ9d_Cx0c-unsplash.jpg,Stimuli/Practice_stims/Final_decisions/debby-hudson-FmCSSSGge-0-unsplash.jpg,0,0,1434,1,,,,,,1000,0,7,2
4,15837,0,5,1,1,1,gain2,no_gain3,J,B,13,16,faces,85,76,faces,Stimuli/Experimental_stims/faces/daniel-rigdon-dXmXKPP2L4E-unsplash.jpg,Stimuli/Experimental_stims/faces/freddy-kearney-o-ioeoATbIM-unsplash.jpg,0,0,1432,0,unchosen,16,13,faces,faces,4100,1,7,2
5,15837,0,6,1,1,1,gain3,no_gain5,H,L,10,24,outdoor_scenes,75,78,body_parts,Stimuli/Experimental_stims/outdoor_scenes/shannon-kunkle-dM8INmkyDas-unsplash.jpg,Stimuli/Experimental_stims/body_parts/clay-banks-LjqARJaJotc-unsplash.jpg,1,NaN,,NaN,chosen,NaN,NaN,NaN,NaN,1200,0,7,2
6,15837,0,7,1,1,1,gain1,no_gain3,C,B,9,11,outdoor_scenes,68,76,outdoor_scenes,Stimuli/Experimental_stims/outdoor_scenes/sergey-pesterev-y-b_FOmJXdg-unsplash.jpg,Stimuli/Experimental_stims/outdoor_scenes/stephen-leonardi-gyIRjKPXupE-unsplash.jpg,1,NaN,,NaN,chosen,NaN,NaN,NaN,NaN,2600,0,7,2
7,15837,0,8,1,1,1,gain2,no_gain4,J,K,44,38,objects,68,75,objects,Stimuli/Experimental_stims/objects/kuiye-chen-NuOGFo4PudE-unsplash.jpg,Stimuli/Experimental_stims/objects/art-lasovsky-8XddFc6NkBY-unsplash.jpg,0,1,768,1,chosen,44,38,objects,objects,2000,0,7,2
8,15837,0,9,1,1,0,no_gain5,gain1,L,C,17,26,faces,78,79,body_parts,Stimuli/Experimental_stims/faces/good-faces-xmSWVeGEnJw-unsplash.jpg,Stimuli/Experimental_stims/body_parts/engin-akyurt-x_3gyC42btc-unsplash.jpg,0,0,757,1,unchosen,26,17,body_parts,faces,1200,0,7,2
9,15837,0,10,1,1,0,no_gain4,gain3,K,H,38,10,objects,75,75,outdoor_scenes,Stimuli/Experimental_stims/objects/art-lasovsky-8XddFc6NkBY-unsplash.jpg,Stimuli/Experimental_stims/outdoor_scenes/shannon-kunkle-dM8INmkyDas-unsplash.jpg,0,0,622,1,chosen,10,38,outdoor_scenes,objects,3200,1,7,2
10,15837,0,11,1,1,0,no_gain1,gain3,G,H,8,10,outdoor_scenes,77,75,outdoor_scenes,Stimuli/Experimental_stims/outdoor_scenes/samsommer-vddccTqwal8-unsplash.jpg,Stimuli/Experimental_stims/outdoor_scenes/shannon-kunkle-dM8INmkyDas-unsplash.jpg,0,0,743,1,chosen,10,8,outdoor_scenes,outdoor_scenes,1200,0,7,2
11,15837,0,12,1,1,0,no_gain2,gain1,I,C,6,9,outdoor_scenes,78,68,outdoor_scenes,Stimuli/Experimental_stims/outdoor_scenes/meng-ji-8BH_M-53CyA-unsplash.jpg,Stimuli/Experimental_stims/outdoor_scenes/sergey-pesterev-y-b_FOmJXdg-unsplash.jpg,0,0,815,1,chosen,9,6,outdoor_scenes,outdoor_scenes,1800,0,7,2
12,15837,0,13,1,1,1,gain2,no_gain1,J,G,13,41,faces,85,83,objects,Stimuli/Experimental_stims/faces/daniel-rigdon-dXmXKPP2L4E-unsplash.jpg,Stimuli/Experimental_stims/objects/insung-yoon-w2JtIQQXoRU-unsplash.jpg,0,0,733,0,unchosen,41,13,objects,faces,1600,0,7,2
13,15837,0,14,1,1,0,no_gain6,gain6,E,F,32,15,body_parts,77,78,faces,Stimuli/Experimental_stims/body_parts/towfiqu-barbhuiya-3AsiVDsZnHg-unsplash.jpg,Stimuli/Experimental_stims/faces/erik-lucatero-d2MSDujJl2g-unsplash.jpg,0,1,921,0,unchosen,32,15,body_parts,faces,1300,0,7,2
14,15837,0,15,1,1,0,no_gain1,gain5,G,A,41,39,objects,83,75,objects,Stimuli/Experimental_stims/objects/insung-yoon-w2JtIQQXoRU-unsplash.jpg,Stimuli/Experimental_stims/objects/charlesdeluvio-1-nx1QR5dTE-unsplash.jpg,0,0,701,1,unchosen,39,41,objects,objects,1900,0,7,2
15,15837,0,16,1,1,0,no_gain3,gain2,B,J,11,44,outdoor_scenes,76,68,objects,Stimuli/Experimental_stims/outdoor_scenes/stephen-leonardi-gyIRjKPXupE-unsplash.jpg,Stimuli/Experimental_stims/objects/kuiye-chen-NuOGFo4PudE-unsplash.jpg,0,0,735,1,chosen,44,11,objects,outdoor_scenes,4100,1,7,2
16,15837,0,17,1,1,1,gain4,no_gain2,D,I,22,31,faces,80,68,body_parts,Stimuli/Experimental_stims/faces/ravi-patel-VMGAbeeJTKo-unsplash.jpg,Stimuli/Experimental_stims/body_parts/sincerely-media-VN6DbKajo5s-unsplash.jpg,0,0,769,0,unchosen,31,22,body_parts,faces,1100,0,7,2
17,15837,0,18,1,1,1,gain6,no_gain2,F,I,25,6,body_parts,80,78,outdoor_scenes,Stimuli/Experimental_stims/body_parts/engin-akyurt-Q2rfH3GW39c-unsplash.jpg,Stimuli/Experimental_stims/outdoor_scenes/meng-ji-8BH_M-53CyA-unsplash.jpg,0,1,1002,1,chosen,25,6,body_parts,outdoor_scenes,1200,0,7,2
18,15837,0,19,1,1,1,gain5,no_gain4,A,K,39,29,objects,75,71,body_parts,Stimuli/Experimental_stims/objects/charlesdeluvio-1-nx1QR5dTE-unsplash.jpg,Stimuli/Experimental_stims/body_parts/manuel-schinner-ZwjFuJ7ebpk-unsplash.jpg,0,1,779,1,unchosen,39,29,objects,body_parts,1400,0,7,2
19,15837,0,20,1,1,0,no_gain4,gain1,K,C,38,9,objects,75,68,outdoor_scenes,Stimuli/Experimental_stims/objects/art-lasovsky-8XddFc6NkBY-unsplash.jpg,Stimuli/Experimental_stims/outdoor_scenes/sergey-pesterev-y-b_FOmJXdg-unsplash.jpg,0,0,691,1,chosen,9,38,outdoor_scenes,objects,1300,0,7,2
20,15837,0,21,1,1,1,gain6,no_gain6,F,E,25,40,body_parts,80,78,objects,Stimuli/Experimental_stims/body_parts/engin-akyurt-Q2rfH3GW39c-unsplash.jpg,Stimuli/Experimental_stims/objects/fabian-blank-pElSkGRA2NU-unsplash.jpg,0,1,648,1,chosen,25,40,body_parts,objects,4600,1,7,2
21,15837,0,22,1,1,0,no_gain1,gain3,G,H,41,19,objects,83,80,faces,Stimuli/Experimental_stims/objects/insung-yoon-w2JtIQQXoRU-unsplash.jpg,Stimuli/Experimental_stims/faces/joel-mott-LaK153ghdig-unsplash.jpg,0,1,634,0,unchosen,41,19,objects,faces,1000,0,7,2
22,15837,0,23,1,1,1,gain4,no_gain4,D,K,46,38,objects,74,75,objects,Stimuli/Experimental_stims/objects/mockup-graphics-PNsj6RiHAF4-unsplash.jpg,Stimuli/Experimental_stims/objects/art-lasovsky-8XddFc6NkBY-unsplash.jpg,0,1,792,1,chosen,46,38,objects,objects,1100,0,7,2
23,15837,0,24,1,1,0,no_gain1,gain4,G,D,41,22,objects,83,80,faces,Stimuli/Experimental_stims/objects/insung-yoon-w2JtIQQXoRU-unsplash.jpg,Stimuli/Experimental_stims/faces/ravi-patel-VMGAbeeJTKo-unsplash.jpg,0,1,705,0,unchosen,41,22,objects,faces,1700,0,7,2
24,15837,0,25,1,1,0,no_gain3,gain5,B,A,16,39,faces,76,75,objects,Stimuli/Experimental_stims/faces/freddy-kearney-o-ioeoATbIM-unsplash.jpg,Stimuli/Experimental_stims/objects/charlesdeluvio-1-nx1QR5dTE-unsplash.jpg,0,0,772,1,unchosen,39,16,objects,faces,2800,0,7,2
25,15837,0,26,1,1,1,gain4,no_gain3,D,B,46,11,objects,74,76,outdoor_scenes,Stimuli/Experimental_stims/objects/mockup-graphics-PNsj6RiHAF4-unsplash.jpg,Stimuli/Experimental_stims/outdoor_scenes/stephen-leonardi-gyIRjKPXupE-unsplash.jpg,0,1,561,1,chosen,46,11,objects,outdoor_scenes,3200,1,7,2
26,15837,0,27,1,1,1,gain5,no_gain6,A,E,4,40,outdoor_scenes,69,78,objects,Stimuli/Experimental_stims/outdoor_scenes/jarrett-kow-1ZOyYPOBn7I-unsplash.jpg,Stimuli/Experimental_stims/objects/fabian-blank-pElSkGRA2NU-unsplash.jpg,0,1,751,1,chosen,4,40,outdoor_scenes,objects,2000,0,7,2
27,15837,0,28,1,1,0,no_gain3,gain3,B,H,16,19,faces,76,80,faces,Stimuli/Experimental_stims/faces/freddy-kearney-o-ioeoATbIM-unsplash.jpg,Stimuli/Experimental_stims/faces/joel-mott-LaK153ghdig-unsplash.jpg,0,1,744,0,unchosen,16,19,faces,faces,1600,0,7,2
28,15837,0,29,1,1,1,gain6,no_gain3,F,B,25,11,body_parts,80,76,outdoor_scenes,Stimuli/Experimental_stims/body_parts/engin-akyurt-Q2rfH3GW39c-unsplash.jpg,Stimuli/Experimental_stims/outdoor_scenes/stephen-leonardi-gyIRjKPXupE-unsplash.jpg,0,1,884,1,chosen,25,11,body_parts,outdoor_scenes,1300,0,7,2
29,15837,0,30,1,1,1,gain5,no_gain5,A,L,39,17,objects,75,78,faces,Stimuli/Experimental_stims/objects/charlesdeluvio-1-nx1QR5dTE-unsplash.jpg,Stimuli/Experimental_stims/faces/good-faces-xmSWVeGEnJw-unsplash.jpg,0,1,627,1,unchosen,39,17,objects,faces,1200,0,7,2
30,15837,0,31,1,1,0,no_gain6,gain3,E,H,32,19,body_parts,77,80,faces,Stimuli/Experimental_stims/body_parts/towfiqu-barbhuiya-3AsiVDsZnHg-unsplash.jpg,Stimuli/Experimental_stims/faces/joel-mott-LaK153ghdig-unsplash.jpg,0,1,594,0,unchosen,32,19,body_parts,faces,3500,1,7,2
31,15837,0,32,1,1,0,no_gain1,gain1,G,C,8,9,outdoor_scenes,77,68,outdoor_scenes,Stimuli/Experimental_stims/outdoor_scenes/samsommer-vddccTqwal8-unsplash.jpg,Stimuli/Experimental_stims/outdoor_scenes/sergey-pesterev-y-b_FOmJXdg-unsplash.jpg,0,0,886,1,chosen,9,8,outdoor_scenes,outdoor_scenes,1800,0,7,2
32,15837,0,33,1,1,0,no_gain5,gain6,L,F,17,15,faces,78,78,faces,Stimuli/Experimental_stims/faces/good-faces-xmSWVeGEnJw-unsplash.jpg,Stimuli/Experimental_stims/faces/erik-lucatero-d2MSDujJl2g-unsplash.jpg,0,1,542,0,unchosen,17,15,faces,faces,1600,0,7,2
33,15837,0,34,1,1,0,no_gain1,gain5,G,A,8,4,outdoor_scenes,77,69,outdoor_scenes,Stimuli/Experimental_stims/outdoor_scenes/samsommer-vddccTqwal8-unsplash.jpg,Stimuli/Experimental_stims/outdoor_scenes/jarrett-kow-1ZOyYPOBn7I-unsplash.jpg,0,0,626,1,chosen,4,8,outdoor_scenes,outdoor_scenes,2000,0,7,2
34,15837,0,35,1,1,0,no_gain5,gain5,L,A,24,4,body_parts,78,69,outdoor_scenes,Stimuli/Experimental_stims/body_parts/clay-banks-LjqARJaJotc-unsplash.jpg,Stimuli/Experimental_stims/outdoor_scenes/jarrett-kow-1ZOyYPOBn7I-unsplash.jpg,0,0,510,1,chosen,4,24,outdoor_scenes,body_parts,1100,0,7,2
35,15837,0,36,1,1,1,gain1,no_gain2,C,I,26,31,body_parts,79,68,body_parts,Stimuli/Experimental_stims/body_parts/engin-akyurt-x_3gyC42btc-unsplash.jpg,Stimuli/Experimental_stims/body_parts/sincerely-media-VN6DbKajo5s-unsplash.jpg,0,0,896,0,unchosen,31,26,body_parts,body_parts,2800,0,7,2
36,15837,0,37,1,1,0,no_gain2,gain5,I,A,6,4,outdoor_scenes,78,69,outdoor_scenes,Stimuli/Experimental_stims/outdoor_scenes/meng-ji-8BH_M-53CyA-unsplash.jpg,Stimuli/Experimental_stims/outdoor_scenes/jarrett-kow-1ZOyYPOBn7I-unsplash.jpg,0,0,725,1,chosen,4,6,outdoor_scenes,outdoor_scenes,3100,1,7,2
37,15837,0,38,1,1,0,no_gain4,gain2,K,J,29,13,body_parts,71,85,faces,Stimuli/Experimental_stims/body_parts/manuel-schinner-ZwjFuJ7ebpk-unsplash.jpg,Stimuli/Experimental_stims/faces/daniel-rigdon-dXmXKPP2L4E-unsplash.jpg,0,1,565,0,unchosen,29,13,body_parts,faces,1100,0,7,2
38,15837,0,39,1,1,0,no_gain4,gain1,K,C,29,26,body_parts,71,79,body_parts,Stimuli/Experimental_stims/body_parts/manuel-schinner-ZwjFuJ7ebpk-unsplash.jpg,Stimuli/Experimental_stims/body_parts/engin-akyurt-x_3gyC42btc-unsplash.jpg,0,1,576,0,unchosen,29,26,body_parts,body_parts,1100,0,7,2
39,15837,0,40,1,1,1,gain2,no_gain1,J,G,44,8,objects,68,77,outdoor_scenes,Stimuli/Experimental_stims/objects/kuiye-chen-NuOGFo4PudE-unsplash.jpg,Stimuli/Experimental_stims/outdoor_scenes/samsommer-vddccTqwal8-unsplash.jpg,0,1,621,1,chosen,44,8,objects,outdoor_scenes,1100,0,7,2
40,15837,0,41,1,1,1,gain2,no_gain5,J,L,13,17,faces,85,78,faces,Stimuli/Experimental_stims/faces/daniel-rigdon-dXmXKPP2L4E-unsplash.jpg,Stimuli/Experimental_stims/faces/good-faces-xmSWVeGEnJw-unsplash.jpg,0,0,730,0,unchosen,17,13,faces,faces,2300,0,7,2
41,15837,0,42,1,1,1,gain6,no_gain3,F,B,15,16,faces,78,76,faces,Stimuli/Experimental_stims/faces/erik-lucatero-d2MSDujJl2g-unsplash.jpg,Stimuli/Experimental_stims/faces/freddy-kearney-o-ioeoATbIM-unsplash.jpg,0,0,723,0,unchosen,16,15,faces,faces,3700,1,7,2
42,15837,0,43,1,1,0,no_gain6,gain5,E,A,32,39,body_parts,77,75,objects,Stimuli/Experimental_stims/body_parts/towfiqu-barbhuiya-3AsiVDsZnHg-unsplash.jpg,Stimuli/Experimental_stims/objects/charlesdeluvio-1-nx1QR5dTE-unsplash.jpg,0,0,742,1,unchosen,39,32,objects,body_parts,2400,0,7,2
43,15837,0,44,1,1,0,no_gain5,gain6,L,F,24,25,body_parts,78,80,body_parts,Stimuli/Experimental_stims/body_parts/clay-banks-LjqARJaJotc-unsplash.jpg,Stimuli/Experimental_stims/body_parts/engin-akyurt-Q2rfH3GW39c-unsplash.jpg,0,0,736,1,chosen,25,24,body_parts,body_parts,1400,0,7,2
44,15837,0,45,1,1,0,no_gain2,gain6,I,F,31,15,body_parts,68,78,faces,Stimuli/Experimental_stims/body_parts/sincerely-media-VN6DbKajo5s-unsplash.jpg,Stimuli/Experimental_stims/faces/erik-lucatero-d2MSDujJl2g-unsplash.jpg,0,0,634,1,unchosen,15,31,faces,body_parts,2500,0,7,2
45,15837,0,46,1,1,1,gain6,no_gain1,F,G,25,8,body_parts,80,77,outdoor_scenes,Stimuli/Experimental_stims/body_parts/engin-akyurt-Q2rfH3GW39c-unsplash.jpg,Stimuli/Experimental_stims/outdoor_scenes/samsommer-vddccTqwal8-unsplash.jpg,0,1,620,1,chosen,25,8,body_parts,outdoor_scenes,2600,0,7,2
46,15837,0,47,1,1,1,gain2,no_gain2,J,I,44,6,objects,68,78,outdoor_scenes,Stimuli/Experimental_stims/objects/kuiye-chen-NuOGFo4PudE-unsplash.jpg,Stimuli/Experimental_stims/outdoor_scenes/meng-ji-8BH_M-53CyA-unsplash.jpg,0,1,868,1,chosen,44,6,objects,outdoor_scenes,1100,0,7,2
47,15837,0,48,1,1,0,no_gain6,gain1,E,C,32,26,body_parts,77,79,body_parts,Stimuli/Experimental_stims/body_parts/towfiqu-barbhuiya-3AsiVDsZnHg-unsplash.jpg,Stimuli/Experimental_stims/body_parts/engin-akyurt-x_3gyC42btc-unsplash.jpg,0,1,1050,0,unchosen,32,26,body_parts,body_parts,4800,1,7,2
48,15837,0,49,1,1,1,gain4,no_gain3,D,B,22,16,faces,80,76,faces,Stimuli/Experimental_stims/faces/ravi-patel-VMGAbeeJTKo-unsplash.jpg,Stimuli/Experimental_stims/faces/freddy-kearney-o-ioeoATbIM-unsplash.jpg,0,0,661,0,unchosen,16,22,faces,faces,1600,0,7,2
49,15837,0,50,1,1,1,gain6,no_gain4,F,K,25,38,body_parts,80,75,objects,Stimuli/Experimental_stims/body_parts/engin-akyurt-Q2rfH3GW39c-unsplash.jpg,Stimuli/Experimental_stims/objects/art-lasovsky-8XddFc6NkBY-unsplash.jpg,0,1,574,1,chosen,25,38,body_parts,objects,2800,0,7,2
50,15837,0,51,1,1,1,gain1,no_gain3,C,B,26,16,body_parts,79,76,faces,Stimuli/Experimental_stims/body_parts/engin-akyurt-x_3gyC42btc-unsplash.jpg,Stimuli/Experimental_stims/faces/freddy-kearney-o-ioeoATbIM-unsplash.jpg,0,0,845,0,unchosen,16,26,faces,body_parts,2300,0,7,2
51,15837,0,52,1,1,1,gain3,no_gain5,H,L,19,17,faces,80,78,faces,Stimuli/Experimental_stims/faces/joel-mott-LaK153ghdig-unsplash.jpg,Stimuli/Experimental_stims/faces/good-faces-xmSWVeGEnJw-unsplash.jpg,0,0,520,0,unchosen,17,19,faces,faces,2400,0,7,2
52,15837,0,53,1,1,1,gain4,no_gain4,D,K,22,29,faces,80,71,body_parts,Stimuli/Experimental_stims/faces/ravi-patel-VMGAbeeJTKo-unsplash.jpg,Stimuli/Experimental_stims/body_parts/manuel-schinner-ZwjFuJ7ebpk-unsplash.jpg,0,0,862,0,unchosen,29,22,body_parts,faces,1800,0,7,2
53,15837,0,54,1,1,0,no_gain6,gain1,E,C,40,9,objects,78,68,outdoor_scenes,Stimuli/Experimental_stims/objects/fabian-blank-pElSkGRA2NU-unsplash.jpg,Stimuli/Experimental_stims/outdoor_scenes/sergey-pesterev-y-b_FOmJXdg-unsplash.jpg,0,0,608,1,chosen,9,40,outdoor_scenes,objects,1500,0,7,2
54,15837,0,55,1,1,1,gain6,no_gain4,F,K,15,29,faces,78,71,body_parts,Stimuli/Experimental_stims/faces/erik-lucatero-d2MSDujJl2g-unsplash.jpg,Stimuli/Experimental_stims/body_parts/manuel-schinner-ZwjFuJ7ebpk-unsplash.jpg,0,0,574,0,unchosen,29,15,body_parts,faces,1900,0,7,2
55,15837,0,56,1,1,1,gain3,no_gain2,H,I,19,31,faces,80,68,body_parts,Stimuli/Experimental_stims/faces/joel-mott-LaK153ghdig-unsplash.jpg,Stimuli/Experimental_stims/body_parts/sincerely-media-VN6DbKajo5s-unsplash.jpg,0,0,631,0,unchosen,31,19,body_parts,faces,1100,0,7,2
56,15837,0,57,1,1,0,no_gain2,gain2,I,J,31,13,body_parts,68,85,faces,Stimuli/Experimental_stims/body_parts/sincerely-media-VN6DbKajo5s-unsplash.jpg,Stimuli/Experimental_stims/faces/daniel-rigdon-dXmXKPP2L4E-unsplash.jpg,0,1,696,0,unchosen,31,13,body_parts,faces,1700,0,7,2
57,15837,0,58,1,1,1,gain5,no_gain3,A,B,4,11,outdoor_scenes,69,76,outdoor_scenes,Stimuli/Experimental_stims/outdoor_scenes/jarrett-kow-1ZOyYPOBn7I-unsplash.jpg,Stimuli/Experimental_stims/outdoor_scenes/stephen-leonardi-gyIRjKPXupE-unsplash.jpg,0,1,561,1,chosen,4,11,outdoor_scenes,outdoor_scenes,1600,0,7,2
58,15837,0,59,1,1,1,gain6,no_gain1,F,G,15,41,faces,78,83,objects,Stimuli/Experimental_stims/faces/erik-lucatero-d2MSDujJl2g-unsplash.jpg,Stimuli/Experimental_stims/objects/insung-yoon-w2JtIQQXoRU-unsplash.jpg,0,0,654,0,unchosen,41,15,objects,faces,1700,0,7,2
59,15837,0,60,1,1,0,no_gain5,gain4,L,D,24,46,body_parts,78,74,objects,Stimuli/Experimental_stims/body_parts/clay-banks-LjqARJaJotc-unsplash.jpg,Stimuli/Experimental_stims/objects/mockup-graphics-PNsj6RiHAF4-unsplash.jpg,0,0,615,1,chosen,46,24,objects,body_parts,3000,0,7,2
60,15837,0,61,1,1,1,gain3,no_gain6,H,E,10,40,outdoor_scenes,75,78,objects,Stimuli/Experimental_stims/outdoor_scenes/shannon-kunkle-dM8INmkyDas-unsplash.jpg,Stimuli/Experimental_stims/objects/fabian-blank-pElSkGRA2NU-unsplash.jpg,0,1,804,1,chosen,10,40,outdoor_scenes,objects,2100,0,7,2
61,15837,0,62,1,1,1,gain5,no_gain2,A,I,39,31,objects,75,68,body_parts,Stimuli/Experimental_stims/objects/charlesdeluvio-1-nx1QR5dTE-unsplash.jpg,Stimuli/Experimental_stims/body_parts/sincerely-media-VN6DbKajo5s-unsplash.jpg,0,1,890,1,unchosen,39,31,objects,body_parts,3200,1,7,2
62,15837,0,63,1,1,1,gain1,no_gain5,C,L,9,24,outdoor_scenes,68,78,body_parts,Stimuli/Experimental_stims/outdoor_scenes/sergey-pesterev-y-b_FOmJXdg-unsplash.jpg,Stimuli/Experimental_stims/body_parts/clay-banks-LjqARJaJotc-unsplash.jpg,0,1,709,1,chosen,9,24,outdoor_scenes,body_parts,1600,0,7,2
63,15837,0,64,1,1,0,no_gain2,gain4,I,D,6,46,outdoor_scenes,78,74,objects,Stimuli/Experimental_stims/outdoor_scenes/meng-ji-8BH_M-53CyA-unsplash.jpg,Stimuli/Experimental_stims/objects/mockup-graphics-PNsj6RiHAF4-unsplash.jpg,0,0,618,1,chosen,46,6,objects,outdoor_scenes,1300,0,7,2
64,15837,0,65,1,1,0,no_gain1,gain1,G,C,41,26,objects,83,79,body_parts,Stimuli/Experimental_stims/objects/insung-yoon-w2JtIQQXoRU-unsplash.jpg,Stimuli/Experimental_stims/body_parts/engin-akyurt-x_3gyC42btc-unsplash.jpg,0,0,599,1,unchosen,26,41,body_parts,objects,1800,0,7,2
65,15837,0,66,1,1,0,no_gain1,gain4,G,D,8,46,outdoor_scenes,77,74,objects,Stimuli/Experimental_stims/outdoor_scenes/samsommer-vddccTqwal8-unsplash.jpg,Stimuli/Experimental_stims/objects/mockup-graphics-PNsj6RiHAF4-unsplash.jpg,0,0,474,1,chosen,46,8,objects,outdoor_scenes,1400,0,7,2
66,15837,0,67,1,1,0,no_gain3,gain3,B,H,11,10,outdoor_scenes,76,75,outdoor_scenes,Stimuli/Experimental_stims/outdoor_scenes/stephen-leonardi-gyIRjKPXupE-unsplash.jpg,Stimuli/Experimental_stims/outdoor_scenes/shannon-kunkle-dM8INmkyDas-unsplash.jpg,0,1,920,0,chosen,11,10,outdoor_scenes,outdoor_scenes,1500,0,7,2
67,15837,0,68,1,1,0,no_gain6,gain2,E,J,40,44,objects,78,68,objects,Stimuli/Experimental_stims/objects/fabian-blank-pElSkGRA2NU-unsplash.jpg,Stimuli/Experimental_stims/objects/kuiye-chen-NuOGFo4PudE-unsplash.jpg,0,0,517,1,chosen,44,40,objects,objects,1100,0,7,2
68,15837,0,69,1,1,0,no_gain6,gain4,E,D,32,22,body_parts,77,80,faces,Stimuli/Experimental_stims/body_parts/towfiqu-barbhuiya-3AsiVDsZnHg-unsplash.jpg,Stimuli/Experimental_stims/faces/ravi-patel-VMGAbeeJTKo-unsplash.jpg,0,1,664,0,unchosen,32,22,body_parts,faces,4300,1,7,2
69,15837,0,70,1,1,0,no_gain2,gain3,I,H,6,10,outdoor_scenes,78,75,outdoor_scenes,Stimuli/Experimental_stims/outdoor_scenes/meng-ji-8BH_M-53CyA-unsplash.jpg,Stimuli/Experimental_stims/outdoor_scenes/shannon-kunkle-dM8INmkyDas-unsplash.jpg,0,0,1003,1,chosen,10,6,outdoor_scenes,outdoor_scenes,1100,0,7,2
70,15837,0,71,1,1,1,gain2,no_gain5,J,L,44,24,objects,68,78,body_parts,Stimuli/Experimental_stims/objects/kuiye-chen-NuOGFo4PudE-unsplash.jpg,Stimuli/Experimental_stims/body_parts/clay-banks-LjqARJaJotc-unsplash.jpg,0,1,1002,1,chosen,44,24,objects,body_parts,1300,0,7,2
71,15837,0,72,1,1,1,gain2,no_gain6,J,E,13,32,faces,85,77,body_parts,Stimuli/Experimental_stims/faces/daniel-rigdon-dXmXKPP2L4E-unsplash.jpg,Stimuli/Experimental_stims/body_parts/towfiqu-barbhuiya-3AsiVDsZnHg-unsplash.jpg,0,0,600,0,unchosen,32,13,body_parts,faces,2000,0,7,2
72,15837,0,73,1,1,0,no_gain4,gain3,K,H,29,19,body_parts,71,80,faces,Stimuli/Experimental_stims/body_parts/manuel-schinner-ZwjFuJ7ebpk-unsplash.jpg,Stimuli/Experimental_stims/faces/joel-mott-LaK153ghdig-unsplash.jpg,0,1,635,0,unchosen,29,19,body_parts,faces,1900,0,7,2
73,15837,0,74,1,1,0,no_gain4,gain5,K,A,38,4,objects,75,69,outdoor_scenes,Stimuli/Experimental_stims/objects/art-lasovsky-8XddFc6NkBY-unsplash.jpg,Stimuli/Experimental_stims/outdoor_scenes/jarrett-kow-1ZOyYPOBn7I-unsplash.jpg,0,0,599,1,chosen,4,38,outdoor_scenes,objects,2200,0,7,2
74,15837,0,75,1,1,1,gain4,no_gain6,D,E,46,40,objects,74,78,objects,Stimuli/Experimental_stims/objects/mockup-graphics-PNsj6RiHAF4-unsplash.jpg,Stimuli/Experimental_stims/objects/fabian-blank-pElSkGRA2NU-unsplash.jpg,0,1,586,1,chosen,46,40,objects,objects,1000,0,7,2
75,15837,0,76,1,1,1,gain4,no_gain5,D,L,22,17,faces,80,78,faces,Stimuli/Experimental_stims/faces/ravi-patel-VMGAbeeJTKo-unsplash.jpg,Stimuli/Experimental_stims/faces/good-faces-xmSWVeGEnJw-unsplash.jpg,0,0,972,0,unchosen,17,22,faces,faces,1100,0,7,2
76,15837,0,77,2,2,1,gain6,no_gain3,F,B,15,16,faces,78,76,faces,Stimuli/Experimental_stims/faces/erik-lucatero-d2MSDujJl2g-unsplash.jpg,Stimuli/Experimental_stims/faces/freddy-kearney-o-ioeoATbIM-unsplash.jpg,0,0,783,0,unchosen,16,15,faces,faces,3800,1,10,2
77,15837,0,78,2,2,1,gain6,no_gain4,F,K,25,38,body_parts,80,75,objects,Stimuli/Experimental_stims/body_parts/engin-akyurt-Q2rfH3GW39c-unsplash.jpg,Stimuli/Experimental_stims/objects/art-lasovsky-8XddFc6NkBY-unsplash.jpg,0,1,565,1,chosen,25,38,body_parts,objects,2000,0,10,2
78,15837,0,79,2,2,1,gain3,no_gain1,H,G,10,8,outdoor_scenes,75,77,outdoor_scenes,Stimuli/Experimental_stims/outdoor_scenes/shannon-kunkle-dM8INmkyDas-unsplash.jpg,Stimuli/Experimental_stims/outdoor_scenes/samsommer-vddccTqwal8-unsplash.jpg,0,1,846,1,chosen,10,8,outdoor_scenes,outdoor_scenes,3000,0,10,2
79,15837,0,80,2,2,1,gain4,no_gain3,D,B,22,16,faces,80,76,faces,Stimuli/Experimental_stims/faces/ravi-patel-VMGAbeeJTKo-unsplash.jpg,Stimuli/Experimental_stims/faces/freddy-kearney-o-ioeoATbIM-unsplash.jpg,0,1,1051,1,unchosen,22,16,faces,faces,1400,0,10,2
80,15837,0,81,2,2,1,gain6,no_gain6,F,E,25,40,body_parts,80,78,objects,Stimuli/Experimental_stims/body_parts/engin-akyurt-Q2rfH3GW39c-unsplash.jpg,Stimuli/Experimental_stims/objects/fabian-blank-pElSkGRA2NU-unsplash.jpg,0,1,566,1,chosen,25,40,body_parts,objects,2900,0,10,2
81,15837,0,82,2,2,1,gain2,no_gain1,J,G,44,8,objects,68,77,outdoor_scenes,Stimuli/Experimental_stims/objects/kuiye-chen-NuOGFo4PudE-unsplash.jpg,Stimuli/Experimental_stims/outdoor_scenes/samsommer-vddccTqwal8-unsplash.jpg,0,1,666,1,chosen,44,8,objects,outdoor_scenes,2000,0,10,2
82,15837,0,83,2,2,0,no_gain1,gain3,G,H,41,19,objects,83,80,faces,Stimuli/Experimental_stims/objects/insung-yoon-w2JtIQQXoRU-unsplash.jpg,Stimuli/Experimental_stims/faces/joel-mott-LaK153ghdig-unsplash.jpg,1,NaN,,NaN,unchosen,NaN,NaN,NaN,NaN,2700,0,10,2
83,15837,0,84,2,2,0,no_gain6,gain2,E,J,40,44,objects,78,68,objects,Stimuli/Experimental_stims/objects/fabian-blank-pElSkGRA2NU-unsplash.jpg,Stimuli/Experimental_stims/objects/kuiye-chen-NuOGFo4PudE-unsplash.jpg,0,0,0,1,chosen,44,40,objects,objects,3600,1,10,2
84,15837,0,85,2,2,0,no_gain3,gain2,B,J,16,13,faces,76,85,faces,Stimuli/Experimental_stims/faces/freddy-kearney-o-ioeoATbIM-unsplash.jpg,Stimuli/Experimental_stims/faces/daniel-rigdon-dXmXKPP2L4E-unsplash.jpg,0,0,1,1,unchosen,13,16,faces,faces,1300,0,10,2
85,15837,0,86,2,2,1,gain6,no_gain1,F,G,15,41,faces,78,83,objects,Stimuli/Experimental_stims/faces/erik-lucatero-d2MSDujJl2g-unsplash.jpg,Stimuli/Experimental_stims/objects/insung-yoon-w2JtIQQXoRU-unsplash.jpg,0,1,24,1,unchosen,15,41,faces,objects,3000,0,10,2
86,15837,0,87,2,2,0,no_gain5,gain4,L,D,17,22,faces,78,80,faces,Stimuli/Experimental_stims/faces/good-faces-xmSWVeGEnJw-unsplash.jpg,Stimuli/Experimental_stims/faces/ravi-patel-VMGAbeeJTKo-unsplash.jpg,0,0,276,1,unchosen,22,17,faces,faces,2600,0,10,2
87,15837,0,88,2,2,0,no_gain2,gain3,I,H,6,10,outdoor_scenes,78,75,outdoor_scenes,Stimuli/Experimental_stims/outdoor_scenes/meng-ji-8BH_M-53CyA-unsplash.jpg,Stimuli/Experimental_stims/outdoor_scenes/shannon-kunkle-dM8INmkyDas-unsplash.jpg,0,1,235,0,chosen,6,10,outdoor_scenes,outdoor_scenes,1100,0,10,2
88,15837,0,89,2,2,0,no_gain1,gain1,G,C,8,9,outdoor_scenes,77,68,outdoor_scenes,Stimuli/Experimental_stims/outdoor_scenes/samsommer-vddccTqwal8-unsplash.jpg,Stimuli/Experimental_stims/outdoor_scenes/sergey-pesterev-y-b_FOmJXdg-unsplash.jpg,0,0,11,1,chosen,9,8,outdoor_scenes,outdoor_scenes,1400,0,10,2
89,15837,0,90,2,2,0,no_gain5,gain2,L,J,17,13,faces,78,85,faces,Stimuli/Experimental_stims/faces/good-faces-xmSWVeGEnJw-unsplash.jpg,Stimuli/Experimental_stims/faces/daniel-rigdon-dXmXKPP2L4E-unsplash.jpg,0,0,291,1,unchosen,13,17,faces,faces,1100,0,10,2
90,15837,0,91,2,2,1,gain3,no_gain3,H,B,19,16,faces,80,76,faces,Stimuli/Experimental_stims/faces/joel-mott-LaK153ghdig-unsplash.jpg,Stimuli/Experimental_stims/faces/freddy-kearney-o-ioeoATbIM-unsplash.jpg,0,0,96,0,unchosen,16,19,faces,faces,2900,0,10,2
91,15837,0,92,2,2,1,gain5,no_gain4,A,K,4,38,outdoor_scenes,69,75,objects,Stimuli/Experimental_stims/outdoor_scenes/jarrett-kow-1ZOyYPOBn7I-unsplash.jpg,Stimuli/Experimental_stims/objects/art-lasovsky-8XddFc6NkBY-unsplash.jpg,0,0,251,0,chosen,38,4,objects,outdoor_scenes,1600,0,10,2
92,15837,0,93,2,2,1,gain2,no_gain6,J,E,13,32,faces,85,77,body_parts,Stimuli/Experimental_stims/faces/daniel-rigdon-dXmXKPP2L4E-unsplash.jpg,Stimuli/Experimental_stims/body_parts/towfiqu-barbhuiya-3AsiVDsZnHg-unsplash.jpg,0,1,195,1,unchosen,13,32,faces,body_parts,1500,0,10,2
93,15837,0,94,2,2,0,no_gain5,gain6,L,F,17,15,faces,78,78,faces,Stimuli/Experimental_stims/faces/good-faces-xmSWVeGEnJw-unsplash.jpg,Stimuli/Experimental_stims/faces/erik-lucatero-d2MSDujJl2g-unsplash.jpg,0,0,13,1,unchosen,15,17,faces,faces,3800,1,10,2
94,15837,0,95,2,2,0,no_gain6,gain4,E,D,40,46,objects,78,74,objects,Stimuli/Experimental_stims/objects/fabian-blank-pElSkGRA2NU-unsplash.jpg,Stimuli/Experimental_stims/objects/mockup-graphics-PNsj6RiHAF4-unsplash.jpg,0,1,219,0,chosen,40,46,objects,objects,1500,0,10,2
95,15837,0,96,2,2,1,gain5,no_gain2,A,I,39,31,objects,75,68,body_parts,Stimuli/Experimental_stims/objects/charlesdeluvio-1-nx1QR5dTE-unsplash.jpg,Stimuli/Experimental_stims/body_parts/sincerely-media-VN6DbKajo5s-unsplash.jpg,0,0,122,0,unchosen,31,39,body_parts,objects,1000,0,10,2
96,15837,0,97,2,2,1,gain4,no_gain4,D,K,22,29,faces,80,71,body_parts,Stimuli/Experimental_stims/faces/ravi-patel-VMGAbeeJTKo-unsplash.jpg,Stimuli/Experimental_stims/body_parts/manuel-schinner-ZwjFuJ7ebpk-unsplash.jpg,0,0,0,0,unchosen,29,22,body_parts,faces,1600,0,10,2
97,15837,0,98,2,2,0,no_gain5,gain3,L,H,24,10,body_parts,78,75,outdoor_scenes,Stimuli/Experimental_stims/body_parts/clay-banks-LjqARJaJotc-unsplash.jpg,Stimuli/Experimental_stims/outdoor_scenes/shannon-kunkle-dM8INmkyDas-unsplash.jpg,0,0,0,1,chosen,10,24,outdoor_scenes,body_parts,1300,0,10,2
98,15837,0,99,2,2,1,gain2,no_gain4,J,K,44,38,objects,68,75,objects,Stimuli/Experimental_stims/objects/kuiye-chen-NuOGFo4PudE-unsplash.jpg,Stimuli/Experimental_stims/objects/art-lasovsky-8XddFc6NkBY-unsplash.jpg,0,0,114,0,chosen,38,44,objects,objects,3500,1,10,2
99,15837,0,100,2,2,0,no_gain2,gain4,I,D,6,46,outdoor_scenes,78,74,objects,Stimuli/Experimental_stims/outdoor_scenes/meng-ji-8BH_M-53CyA-unsplash.jpg,Stimuli/Experimental_stims/objects/mockup-graphics-PNsj6RiHAF4-unsplash.jpg,0,0,199,1,chosen,46,6,objects,outdoor_scenes,2500,0,10,2
100,15837,0,101,2,2,1,gain5,no_gain6,A,E,39,32,objects,75,77,body_parts,Stimuli/Experimental_stims/objects/charlesdeluvio-1-nx1QR5dTE-unsplash.jpg,Stimuli/Experimental_stims/body_parts/towfiqu-barbhuiya-3AsiVDsZnHg-unsplash.jpg,0,0,1,0,unchosen,32,39,body_parts,objects,1100,0,10,2
101,15837,0,102,2,2,1,gain3,no_gain3,H,B,10,11,outdoor_scenes,75,76,outdoor_scenes,Stimuli/Experimental_stims/outdoor_scenes/shannon-kunkle-dM8INmkyDas-unsplash.jpg,Stimuli/Experimental_stims/outdoor_scenes/stephen-leonardi-gyIRjKPXupE-unsplash.jpg,0,0,278,0,chosen,11,10,outdoor_scenes,outdoor_scenes,1000,0,10,2
102,15837,0,103,2,2,0,no_gain2,gain1,I,C,31,26,body_parts,68,79,body_parts,Stimuli/Experimental_stims/body_parts/sincerely-media-VN6DbKajo5s-unsplash.jpg,Stimuli/Experimental_stims/body_parts/engin-akyurt-x_3gyC42btc-unsplash.jpg,0,1,227,0,unchosen,31,26,body_parts,body_parts,2100,0,10,2
103,15837,0,104,2,2,1,gain4,no_gain4,D,K,46,38,objects,74,75,objects,Stimuli/Experimental_stims/objects/mockup-graphics-PNsj6RiHAF4-unsplash.jpg,Stimuli/Experimental_stims/objects/art-lasovsky-8XddFc6NkBY-unsplash.jpg,0,0,126,0,chosen,38,46,objects,objects,1300,0,10,2
104,15837,0,105,2,2,0,no_gain2,gain4,I,D,31,22,body_parts,68,80,faces,Stimuli/Experimental_stims/body_parts/sincerely-media-VN6DbKajo5s-unsplash.jpg,Stimuli/Experimental_stims/faces/ravi-patel-VMGAbeeJTKo-unsplash.jpg,0,0,0,1,unchosen,22,31,faces,body_parts,2000,0,10,2
105,15837,0,106,2,2,1,gain5,no_gain1,A,G,4,8,outdoor_scenes,69,77,outdoor_scenes,Stimuli/Experimental_stims/outdoor_scenes/jarrett-kow-1ZOyYPOBn7I-unsplash.jpg,Stimuli/Experimental_stims/outdoor_scenes/samsommer-vddccTqwal8-unsplash.jpg,0,1,295,1,chosen,4,8,outdoor_scenes,outdoor_scenes,3100,1,10,2
106,15837,0,107,2,2,0,no_gain6,gain3,E,H,32,19,body_parts,77,80,faces,Stimuli/Experimental_stims/body_parts/towfiqu-barbhuiya-3AsiVDsZnHg-unsplash.jpg,Stimuli/Experimental_stims/faces/joel-mott-LaK153ghdig-unsplash.jpg,0,0,246,1,unchosen,19,32,faces,body_parts,1400,0,10,2
107,15837,0,108,2,2,1,gain6,no_gain1,F,G,25,8,body_parts,80,77,outdoor_scenes,Stimuli/Experimental_stims/body_parts/engin-akyurt-Q2rfH3GW39c-unsplash.jpg,Stimuli/Experimental_stims/outdoor_scenes/samsommer-vddccTqwal8-unsplash.jpg,0,1,140,1,chosen,25,8,body_parts,outdoor_scenes,1300,0,10,2
108,15837,0,109,2,2,0,no_gain2,gain5,I,A,6,4,outdoor_scenes,78,69,outdoor_scenes,Stimuli/Experimental_stims/outdoor_scenes/meng-ji-8BH_M-53CyA-unsplash.jpg,Stimuli/Experimental_stims/outdoor_scenes/jarrett-kow-1ZOyYPOBn7I-unsplash.jpg,0,1,273,0,chosen,6,4,outdoor_scenes,outdoor_scenes,1300,0,10,2
109,15837,0,110,2,2,0,no_gain5,gain5,L,A,17,39,faces,78,75,objects,Stimuli/Experimental_stims/faces/good-faces-xmSWVeGEnJw-unsplash.jpg,Stimuli/Experimental_stims/objects/charlesdeluvio-1-nx1QR5dTE-unsplash.jpg,0,1,439,0,unchosen,17,39,faces,objects,1200,0,10,2
110,15837,0,111,2,2,0,no_gain5,gain1,L,C,17,26,faces,78,79,body_parts,Stimuli/Experimental_stims/faces/good-faces-xmSWVeGEnJw-unsplash.jpg,Stimuli/Experimental_stims/body_parts/engin-akyurt-x_3gyC42btc-unsplash.jpg,0,0,409,1,unchosen,26,17,body_parts,faces,1300,0,10,2
111,15837,0,112,2,2,0,no_gain6,gain5,E,A,40,4,objects,78,69,outdoor_scenes,Stimuli/Experimental_stims/objects/fabian-blank-pElSkGRA2NU-unsplash.jpg,Stimuli/Experimental_stims/outdoor_scenes/jarrett-kow-1ZOyYPOBn7I-unsplash.jpg,0,0,284,1,chosen,4,40,outdoor_scenes,objects,1100,0,10,2
112,15837,0,113,2,2,1,gain2,no_gain2,J,I,44,6,objects,68,78,outdoor_scenes,Stimuli/Experimental_stims/objects/kuiye-chen-NuOGFo4PudE-unsplash.jpg,Stimuli/Experimental_stims/outdoor_scenes/meng-ji-8BH_M-53CyA-unsplash.jpg,0,0,392,0,chosen,6,44,outdoor_scenes,objects,1900,0,10,2
113,15837,0,114,2,2,1,gain1,no_gain6,C,E,26,32,body_parts,79,77,body_parts,Stimuli/Experimental_stims/body_parts/engin-akyurt-x_3gyC42btc-unsplash.jpg,Stimuli/Experimental_stims/body_parts/towfiqu-barbhuiya-3AsiVDsZnHg-unsplash.jpg,0,1,305,1,unchosen,26,32,body_parts,body_parts,2100,0,10,2
114,15837,0,115,2,2,0,no_gain3,gain5,B,A,16,39,faces,76,75,objects,Stimuli/Experimental_stims/faces/freddy-kearney-o-ioeoATbIM-unsplash.jpg,Stimuli/Experimental_stims/objects/charlesdeluvio-1-nx1QR5dTE-unsplash.jpg,0,0,411,1,unchosen,39,16,objects,faces,1400,0,10,2
115,15837,0,116,2,2,1,gain3,no_gain6,H,E,10,40,outdoor_scenes,75,78,objects,Stimuli/Experimental_stims/outdoor_scenes/shannon-kunkle-dM8INmkyDas-unsplash.jpg,Stimuli/Experimental_stims/objects/fabian-blank-pElSkGRA2NU-unsplash.jpg,0,1,278,1,chosen,10,40,outdoor_scenes,objects,1100,0,10,2
116,15837,0,117,2,2,0,no_gain5,gain5,L,A,24,4,body_parts,78,69,outdoor_scenes,Stimuli/Experimental_stims/body_parts/clay-banks-LjqARJaJotc-unsplash.jpg,Stimuli/Experimental_stims/outdoor_scenes/jarrett-kow-1ZOyYPOBn7I-unsplash.jpg,0,0,247,1,chosen,4,24,outdoor_scenes,body_parts,1600,0,10,2
117,15837,0,118,2,2,1,gain3,no_gain4,H,K,19,29,faces,80,71,body_parts,Stimuli/Experimental_stims/faces/joel-mott-LaK153ghdig-unsplash.jpg,Stimuli/Experimental_stims/body_parts/manuel-schinner-ZwjFuJ7ebpk-unsplash.jpg,0,1,205,1,unchosen,19,29,faces,body_parts,1300,0,10,2
118,15837,0,119,2,2,1,gain4,no_gain1,D,G,46,8,objects,74,77,outdoor_scenes,Stimuli/Experimental_stims/objects/mockup-graphics-PNsj6RiHAF4-unsplash.jpg,Stimuli/Experimental_stims/outdoor_scenes/samsommer-vddccTqwal8-unsplash.jpg,0,0,482,0,chosen,8,46,outdoor_scenes,objects,2500,0,10,2
119,15837,0,120,2,2,0,no_gain4,gain2,K,J,29,13,body_parts,71,85,faces,Stimuli/Experimental_stims/body_parts/manuel-schinner-ZwjFuJ7ebpk-unsplash.jpg,Stimuli/Experimental_stims/faces/daniel-rigdon-dXmXKPP2L4E-unsplash.jpg,0,1,1,0,unchosen,29,13,body_parts,faces,4300,1,10,2
120,15837,0,121,2,2,0,no_gain3,gain4,B,D,11,46,outdoor_scenes,76,74,objects,Stimuli/Experimental_stims/outdoor_scenes/stephen-leonardi-gyIRjKPXupE-unsplash.jpg,Stimuli/Experimental_stims/objects/mockup-graphics-PNsj6RiHAF4-unsplash.jpg,0,0,67,1,chosen,46,11,objects,outdoor_scenes,2400,0,10,2
121,15837,0,122,2,2,1,gain1,no_gain4,C,K,26,29,body_parts,79,71,body_parts,Stimuli/Experimental_stims/body_parts/engin-akyurt-x_3gyC42btc-unsplash.jpg,Stimuli/Experimental_stims/body_parts/manuel-schinner-ZwjFuJ7ebpk-unsplash.jpg,0,1,293,1,unchosen,26,29,body_parts,body_parts,1800,0,10,2
122,15837,0,123,2,2,1,gain6,no_gain3,F,B,25,11,body_parts,80,76,outdoor_scenes,Stimuli/Experimental_stims/body_parts/engin-akyurt-Q2rfH3GW39c-unsplash.jpg,Stimuli/Experimental_stims/outdoor_scenes/stephen-leonardi-gyIRjKPXupE-unsplash.jpg,0,0,293,0,chosen,11,25,outdoor_scenes,body_parts,1000,0,10,2
123,15837,0,124,2,2,1,gain5,no_gain1,A,G,39,41,objects,75,83,objects,Stimuli/Experimental_stims/objects/charlesdeluvio-1-nx1QR5dTE-unsplash.jpg,Stimuli/Experimental_stims/objects/insung-yoon-w2JtIQQXoRU-unsplash.jpg,0,0,223,0,unchosen,41,39,objects,objects,2000,0,10,2
124,15837,0,125,2,2,1,gain3,no_gain2,H,I,19,31,faces,80,68,body_parts,Stimuli/Experimental_stims/faces/joel-mott-LaK153ghdig-unsplash.jpg,Stimuli/Experimental_stims/body_parts/sincerely-media-VN6DbKajo5s-unsplash.jpg,0,0,179,0,unchosen,31,19,body_parts,faces,2700,0,10,2
125,15837,0,126,2,2,0,no_gain2,gain2,I,J,31,13,body_parts,68,85,faces,Stimuli/Experimental_stims/body_parts/sincerely-media-VN6DbKajo5s-unsplash.jpg,Stimuli/Experimental_stims/faces/daniel-rigdon-dXmXKPP2L4E-unsplash.jpg,0,1,211,0,unchosen,31,13,body_parts,faces,2500,0,10,2
126,15837,0,127,2,2,0,no_gain4,gain1,K,C,38,9,objects,75,68,outdoor_scenes,Stimuli/Experimental_stims/objects/art-lasovsky-8XddFc6NkBY-unsplash.jpg,Stimuli/Experimental_stims/outdoor_scenes/sergey-pesterev-y-b_FOmJXdg-unsplash.jpg,0,0,167,1,chosen,9,38,outdoor_scenes,objects,1800,0,10,2
127,15837,0,128,2,2,1,gain4,no_gain6,D,E,22,32,faces,80,77,body_parts,Stimuli/Experimental_stims/faces/ravi-patel-VMGAbeeJTKo-unsplash.jpg,Stimuli/Experimental_stims/body_parts/towfiqu-barbhuiya-3AsiVDsZnHg-unsplash.jpg,0,0,1433,0,unchosen,32,22,body_parts,faces,1200,0,10,2
128,15837,0,129,2,2,0,no_gain1,gain2,G,J,41,13,objects,83,85,faces,Stimuli/Experimental_stims/objects/insung-yoon-w2JtIQQXoRU-unsplash.jpg,Stimuli/Experimental_stims/faces/daniel-rigdon-dXmXKPP2L4E-unsplash.jpg,0,0,50,1,unchosen,13,41,faces,objects,3800,1,10,2
129,15837,0,130,2,2,1,gain1,no_gain6,C,E,9,40,outdoor_scenes,68,78,objects,Stimuli/Experimental_stims/outdoor_scenes/sergey-pesterev-y-b_FOmJXdg-unsplash.jpg,Stimuli/Experimental_stims/objects/fabian-blank-pElSkGRA2NU-unsplash.jpg,0,0,344,0,chosen,40,9,objects,outdoor_scenes,1300,0,10,2
130,15837,0,131,2,2,1,gain6,no_gain4,F,K,15,29,faces,78,71,body_parts,Stimuli/Experimental_stims/faces/erik-lucatero-d2MSDujJl2g-unsplash.jpg,Stimuli/Experimental_stims/body_parts/manuel-schinner-ZwjFuJ7ebpk-unsplash.jpg,0,1,160,1,unchosen,15,29,faces,body_parts,2900,0,10,2
131,15837,0,132,2,2,0,no_gain5,gain2,L,J,24,44,body_parts,78,68,objects,Stimuli/Experimental_stims/body_parts/clay-banks-LjqARJaJotc-unsplash.jpg,Stimuli/Experimental_stims/objects/kuiye-chen-NuOGFo4PudE-unsplash.jpg,0,1,1,0,chosen,24,44,body_parts,objects,1200,0,10,2
132,15837,0,133,2,2,0,no_gain5,gain6,L,F,24,25,body_parts,78,80,body_parts,Stimuli/Experimental_stims/body_parts/clay-banks-LjqARJaJotc-unsplash.jpg,Stimuli/Experimental_stims/body_parts/engin-akyurt-Q2rfH3GW39c-unsplash.jpg,0,1,142,0,chosen,24,25,body_parts,body_parts,1300,0,10,2
133,15837,0,134,2,2,0,no_gain2,gain6,I,F,31,15,body_parts,68,78,faces,Stimuli/Experimental_stims/body_parts/sincerely-media-VN6DbKajo5s-unsplash.jpg,Stimuli/Experimental_stims/faces/erik-lucatero-d2MSDujJl2g-unsplash.jpg,0,0,31,1,unchosen,15,31,faces,body_parts,2500,0,10,2
134,15837,0,135,2,2,1,gain5,no_gain3,A,B,4,11,outdoor_scenes,69,76,outdoor_scenes,Stimuli/Experimental_stims/outdoor_scenes/jarrett-kow-1ZOyYPOBn7I-unsplash.jpg,Stimuli/Experimental_stims/outdoor_scenes/stephen-leonardi-gyIRjKPXupE-unsplash.jpg,0,1,471,1,chosen,4,11,outdoor_scenes,outdoor_scenes,3000,0,10,2
135,15837,0,136,2,2,1,gain4,no_gain5,D,L,46,24,objects,74,78,body_parts,Stimuli/Experimental_stims/objects/mockup-graphics-PNsj6RiHAF4-unsplash.jpg,Stimuli/Experimental_stims/body_parts/clay-banks-LjqARJaJotc-unsplash.jpg,0,0,248,0,chosen,24,46,body_parts,objects,4200,1,10,2
136,15837,0,137,2,2,0,no_gain6,gain6,E,F,32,15,body_parts,77,78,faces,Stimuli/Experimental_stims/body_parts/towfiqu-barbhuiya-3AsiVDsZnHg-unsplash.jpg,Stimuli/Experimental_stims/faces/erik-lucatero-d2MSDujJl2g-unsplash.jpg,0,1,235,0,unchosen,32,15,body_parts,faces,1700,0,10,2
137,15837,0,138,2,2,0,no_gain3,gain1,B,C,11,9,outdoor_scenes,76,68,outdoor_scenes,Stimuli/Experimental_stims/outdoor_scenes/stephen-leonardi-gyIRjKPXupE-unsplash.jpg,Stimuli/Experimental_stims/outdoor_scenes/sergey-pesterev-y-b_FOmJXdg-unsplash.jpg,0,1,35,0,chosen,11,9,outdoor_scenes,outdoor_scenes,1300,0,10,2
138,15837,0,139,2,2,0,no_gain2,gain1,I,C,6,9,outdoor_scenes,78,68,outdoor_scenes,Stimuli/Experimental_stims/outdoor_scenes/meng-ji-8BH_M-53CyA-unsplash.jpg,Stimuli/Experimental_stims/outdoor_scenes/sergey-pesterev-y-b_FOmJXdg-unsplash.jpg,0,0,27,1,chosen,9,6,outdoor_scenes,outdoor_scenes,1100,0,10,2
139,15837,0,140,2,2,0,no_gain2,gain6,I,F,6,25,outdoor_scenes,78,80,body_parts,Stimuli/Experimental_stims/outdoor_scenes/meng-ji-8BH_M-53CyA-unsplash.jpg,Stimuli/Experimental_stims/body_parts/engin-akyurt-Q2rfH3GW39c-unsplash.jpg,0,0,88,1,chosen,25,6,body_parts,outdoor_scenes,1300,0,10,2
140,15837,0,141,2,2,1,gain5,no_gain4,A,K,39,29,objects,75,71,body_parts,Stimuli/Experimental_stims/objects/charlesdeluvio-1-nx1QR5dTE-unsplash.jpg,Stimuli/Experimental_stims/body_parts/manuel-schinner-ZwjFuJ7ebpk-unsplash.jpg,0,0,640,0,unchosen,29,39,body_parts,objects,1500,0,10,2
141,15837,0,142,2,2,0,no_gain5,gain1,L,C,24,9,body_parts,78,68,outdoor_scenes,Stimuli/Experimental_stims/body_parts/clay-banks-LjqARJaJotc-unsplash.jpg,Stimuli/Experimental_stims/outdoor_scenes/sergey-pesterev-y-b_FOmJXdg-unsplash.jpg,0,0,444,1,chosen,9,24,outdoor_scenes,body_parts,1800,0,10,2
142,15837,0,143,2,2,0,no_gain1,gain4,G,D,41,22,objects,83,80,faces,Stimuli/Experimental_stims/objects/insung-yoon-w2JtIQQXoRU-unsplash.jpg,Stimuli/Experimental_stims/faces/ravi-patel-VMGAbeeJTKo-unsplash.jpg,0,1,310,0,unchosen,41,22,objects,faces,1400,0,10,2
143,15837,0,144,2,2,1,gain3,no_gain5,H,L,19,17,faces,80,78,faces,Stimuli/Experimental_stims/faces/joel-mott-LaK153ghdig-unsplash.jpg,Stimuli/Experimental_stims/faces/good-faces-xmSWVeGEnJw-unsplash.jpg,0,0,350,0,unchosen,17,19,faces,faces,1400,0,10,2
144,15837,0,145,2,2,0,no_gain4,gain3,K,H,38,10,objects,75,75,outdoor_scenes,Stimuli/Experimental_stims/objects/art-lasovsky-8XddFc6NkBY-unsplash.jpg,Stimuli/Experimental_stims/outdoor_scenes/shannon-kunkle-dM8INmkyDas-unsplash.jpg,0,1,365,0,chosen,38,10,objects,outdoor_scenes,1600,0,10,2
145,15837,0,146,2,2,1,gain1,no_gain3,C,B,26,16,body_parts,79,76,faces,Stimuli/Experimental_stims/body_parts/engin-akyurt-x_3gyC42btc-unsplash.jpg,Stimuli/Experimental_stims/faces/freddy-kearney-o-ioeoATbIM-unsplash.jpg,0,0,119,0,unchosen,16,26,faces,body_parts,2000,0,10,2
146,15837,0,147,2,2,0,no_gain1,gain1,G,C,41,26,objects,83,79,body_parts,Stimuli/Experimental_stims/objects/insung-yoon-w2JtIQQXoRU-unsplash.jpg,Stimuli/Experimental_stims/body_parts/engin-akyurt-x_3gyC42btc-unsplash.jpg,0,1,198,0,unchosen,41,26,objects,body_parts,2500,0,10,2
147,15837,0,148,2,2,1,gain2,no_gain3,J,B,44,11,objects,68,76,outdoor_scenes,Stimuli/Experimental_stims/objects/kuiye-chen-NuOGFo4PudE-unsplash.jpg,Stimuli/Experimental_stims/outdoor_scenes/stephen-leonardi-gyIRjKPXupE-unsplash.jpg,0,0,43,0,chosen,11,44,outdoor_scenes,objects,3300,1,10,2
148,15837,0,149,3,3,0,no_gain1,gain2,G,J,41,13,objects,83,85,faces,Stimuli/Experimental_stims/objects/insung-yoon-w2JtIQQXoRU-unsplash.jpg,Stimuli/Experimental_stims/faces/daniel-rigdon-dXmXKPP2L4E-unsplash.jpg,0,0,672,1,unchosen,13,41,faces,objects,2200,0,10,2
149,15837,0,150,3,3,1,gain2,no_gain4,J,K,13,29,faces,85,71,body_parts,Stimuli/Experimental_stims/faces/daniel-rigdon-dXmXKPP2L4E-unsplash.jpg,Stimuli/Experimental_stims/body_parts/manuel-schinner-ZwjFuJ7ebpk-unsplash.jpg,0,1,519,1,unchosen,13,29,faces,body_parts,1200,0,10,2
150,15837,0,151,3,3,0,no_gain5,gain1,L,C,17,26,faces,78,79,body_parts,Stimuli/Experimental_stims/faces/good-faces-xmSWVeGEnJw-unsplash.jpg,Stimuli/Experimental_stims/body_parts/engin-akyurt-x_3gyC42btc-unsplash.jpg,0,1,97,0,unchosen,17,26,faces,body_parts,1700,0,10,2
151,15837,0,152,3,3,0,no_gain6,gain4,E,D,40,46,objects,78,74,objects,Stimuli/Experimental_stims/objects/fabian-blank-pElSkGRA2NU-unsplash.jpg,Stimuli/Experimental_stims/objects/mockup-graphics-PNsj6RiHAF4-unsplash.jpg,0,1,472,0,chosen,40,46,objects,objects,1100,0,10,2
152,15837,0,153,3,3,0,no_gain1,gain3,G,H,8,10,outdoor_scenes,77,75,outdoor_scenes,Stimuli/Experimental_stims/outdoor_scenes/samsommer-vddccTqwal8-unsplash.jpg,Stimuli/Experimental_stims/outdoor_scenes/shannon-kunkle-dM8INmkyDas-unsplash.jpg,0,1,409,0,chosen,8,10,outdoor_scenes,outdoor_scenes,1000,0,10,2
153,15837,0,154,3,3,1,gain4,no_gain3,D,B,22,16,faces,80,76,faces,Stimuli/Experimental_stims/faces/ravi-patel-VMGAbeeJTKo-unsplash.jpg,Stimuli/Experimental_stims/faces/freddy-kearney-o-ioeoATbIM-unsplash.jpg,0,1,169,1,unchosen,22,16,faces,faces,1900,0,10,2
154,15837,0,155,3,3,1,gain3,no_gain3,H,B,19,16,faces,80,76,faces,Stimuli/Experimental_stims/faces/joel-mott-LaK153ghdig-unsplash.jpg,Stimuli/Experimental_stims/faces/freddy-kearney-o-ioeoATbIM-unsplash.jpg,0,0,18,0,unchosen,16,19,faces,faces,4700,1,10,2
155,15837,0,156,3,3,1,gain5,no_gain5,A,L,4,24,outdoor_scenes,69,78,body_parts,Stimuli/Experimental_stims/outdoor_scenes/jarrett-kow-1ZOyYPOBn7I-unsplash.jpg,Stimuli/Experimental_stims/body_parts/clay-banks-LjqARJaJotc-unsplash.jpg,0,1,430,1,chosen,4,24,outdoor_scenes,body_parts,2400,0,10,2
156,15837,0,157,3,3,1,gain6,no_gain3,F,B,15,16,faces,78,76,faces,Stimuli/Experimental_stims/faces/erik-lucatero-d2MSDujJl2g-unsplash.jpg,Stimuli/Experimental_stims/faces/freddy-kearney-o-ioeoATbIM-unsplash.jpg,0,1,327,1,unchosen,15,16,faces,faces,1900,0,10,2
157,15837,0,158,3,3,1,gain1,no_gain4,C,K,9,38,outdoor_scenes,68,75,objects,Stimuli/Experimental_stims/outdoor_scenes/sergey-pesterev-y-b_FOmJXdg-unsplash.jpg,Stimuli/Experimental_stims/objects/art-lasovsky-8XddFc6NkBY-unsplash.jpg,0,1,369,1,chosen,9,38,outdoor_scenes,objects,1000,0,10,2
158,15837,0,159,3,3,0,no_gain2,gain6,I,F,6,25,outdoor_scenes,78,80,body_parts,Stimuli/Experimental_stims/outdoor_scenes/meng-ji-8BH_M-53CyA-unsplash.jpg,Stimuli/Experimental_stims/body_parts/engin-akyurt-Q2rfH3GW39c-unsplash.jpg,0,0,186,1,chosen,25,6,body_parts,outdoor_scenes,1800,0,10,2
159,15837,0,160,3,3,1,gain4,no_gain4,D,K,22,29,faces,80,71,body_parts,Stimuli/Experimental_stims/faces/ravi-patel-VMGAbeeJTKo-unsplash.jpg,Stimuli/Experimental_stims/body_parts/manuel-schinner-ZwjFuJ7ebpk-unsplash.jpg,0,0,450,0,unchosen,29,22,body_parts,faces,1800,0,10,2
160,15837,0,161,3,3,0,no_gain4,gain3,K,H,29,19,body_parts,71,80,faces,Stimuli/Experimental_stims/body_parts/manuel-schinner-ZwjFuJ7ebpk-unsplash.jpg,Stimuli/Experimental_stims/faces/joel-mott-LaK153ghdig-unsplash.jpg,0,0,75,1,unchosen,19,29,faces,body_parts,4700,1,10,2
161,15837,0,162,3,3,0,no_gain1,gain4,G,D,41,22,objects,83,80,faces,Stimuli/Experimental_stims/objects/insung-yoon-w2JtIQQXoRU-unsplash.jpg,Stimuli/Experimental_stims/faces/ravi-patel-VMGAbeeJTKo-unsplash.jpg,0,0,209,1,unchosen,22,41,faces,objects,1300,0,10,2
162,15837,0,163,3,3,1,gain2,no_gain5,J,L,44,24,objects,68,78,body_parts,Stimuli/Experimental_stims/objects/kuiye-chen-NuOGFo4PudE-unsplash.jpg,Stimuli/Experimental_stims/body_parts/clay-banks-LjqARJaJotc-unsplash.jpg,0,0,61,0,chosen,24,44,body_parts,objects,1200,0,10,2
163,15837,0,164,3,3,0,no_gain3,gain4,B,D,11,46,outdoor_scenes,76,74,objects,Stimuli/Experimental_stims/outdoor_scenes/stephen-leonardi-gyIRjKPXupE-unsplash.jpg,Stimuli/Experimental_stims/objects/mockup-graphics-PNsj6RiHAF4-unsplash.jpg,0,1,1,0,chosen,11,46,outdoor_scenes,objects,1600,0,10,2
164,15837,0,165,3,3,0,no_gain2,gain5,I,A,31,39,body_parts,68,75,objects,Stimuli/Experimental_stims/body_parts/sincerely-media-VN6DbKajo5s-unsplash.jpg,Stimuli/Experimental_stims/objects/charlesdeluvio-1-nx1QR5dTE-unsplash.jpg,0,0,209,1,unchosen,39,31,objects,body_parts,1200,0,10,2
165,15837,0,166,3,3,1,gain6,no_gain5,F,L,15,17,faces,78,78,faces,Stimuli/Experimental_stims/faces/erik-lucatero-d2MSDujJl2g-unsplash.jpg,Stimuli/Experimental_stims/faces/good-faces-xmSWVeGEnJw-unsplash.jpg,0,1,344,1,unchosen,15,17,faces,faces,1100,0,10,2
166,15837,0,167,3,3,0,no_gain6,gain3,E,H,40,10,objects,78,75,outdoor_scenes,Stimuli/Experimental_stims/objects/fabian-blank-pElSkGRA2NU-unsplash.jpg,Stimuli/Experimental_stims/outdoor_scenes/shannon-kunkle-dM8INmkyDas-unsplash.jpg,0,0,235,1,chosen,10,40,outdoor_scenes,objects,3100,1,10,2
167,15837,0,168,3,3,0,no_gain5,gain3,L,H,17,19,faces,78,80,faces,Stimuli/Experimental_stims/faces/good-faces-xmSWVeGEnJw-unsplash.jpg,Stimuli/Experimental_stims/faces/joel-mott-LaK153ghdig-unsplash.jpg,0,0,357,1,unchosen,19,17,faces,faces,1500,0,10,2
168,15837,0,169,3,3,0,no_gain4,gain3,K,H,38,10,objects,75,75,outdoor_scenes,Stimuli/Experimental_stims/objects/art-lasovsky-8XddFc6NkBY-unsplash.jpg,Stimuli/Experimental_stims/outdoor_scenes/shannon-kunkle-dM8INmkyDas-unsplash.jpg,0,0,69,1,chosen,10,38,outdoor_scenes,objects,1000,0,10,2
169,15837,0,170,3,3,0,no_gain5,gain2,L,J,17,13,faces,78,85,faces,Stimuli/Experimental_stims/faces/good-faces-xmSWVeGEnJw-unsplash.jpg,Stimuli/Experimental_stims/faces/daniel-rigdon-dXmXKPP2L4E-unsplash.jpg,0,0,468,1,unchosen,13,17,faces,faces,1500,0,10,2
170,15837,0,171,3,3,0,no_gain3,gain2,B,J,11,44,outdoor_scenes,76,68,objects,Stimuli/Experimental_stims/outdoor_scenes/stephen-leonardi-gyIRjKPXupE-unsplash.jpg,Stimuli/Experimental_stims/objects/kuiye-chen-NuOGFo4PudE-unsplash.jpg,0,1,219,0,chosen,11,44,outdoor_scenes,objects,1400,0,10,2
171,15837,0,172,3,3,1,gain1,no_gain2,C,I,9,6,outdoor_scenes,68,78,outdoor_scenes,Stimuli/Experimental_stims/outdoor_scenes/sergey-pesterev-y-b_FOmJXdg-unsplash.jpg,Stimuli/Experimental_stims/outdoor_scenes/meng-ji-8BH_M-53CyA-unsplash.jpg,0,0,446,0,chosen,6,9,outdoor_scenes,outdoor_scenes,3500,1,10,2
172,15837,0,173,3,3,0,no_gain4,gain2,K,J,38,44,objects,75,68,objects,Stimuli/Experimental_stims/objects/art-lasovsky-8XddFc6NkBY-unsplash.jpg,Stimuli/Experimental_stims/objects/kuiye-chen-NuOGFo4PudE-unsplash.jpg,0,1,481,0,chosen,38,44,objects,objects,1600,0,10,2
173,15837,0,174,3,3,0,no_gain4,gain5,K,A,29,39,body_parts,71,75,objects,Stimuli/Experimental_stims/body_parts/manuel-schinner-ZwjFuJ7ebpk-unsplash.jpg,Stimuli/Experimental_stims/objects/charlesdeluvio-1-nx1QR5dTE-unsplash.jpg,0,0,249,1,unchosen,39,29,objects,body_parts,2200,0,10,2
174,15837,0,175,3,3,0,no_gain3,gain2,B,J,16,13,faces,76,85,faces,Stimuli/Experimental_stims/faces/freddy-kearney-o-ioeoATbIM-unsplash.jpg,Stimuli/Experimental_stims/faces/daniel-rigdon-dXmXKPP2L4E-unsplash.jpg,0,0,0,1,unchosen,13,16,faces,faces,1200,0,10,2
175,15837,0,176,3,3,1,gain2,no_gain2,J,I,13,31,faces,85,68,body_parts,Stimuli/Experimental_stims/faces/daniel-rigdon-dXmXKPP2L4E-unsplash.jpg,Stimuli/Experimental_stims/body_parts/sincerely-media-VN6DbKajo5s-unsplash.jpg,0,0,470,0,unchosen,31,13,body_parts,faces,1900,0,10,2
176,15837,0,177,3,3,0,no_gain6,gain5,E,A,40,4,objects,78,69,outdoor_scenes,Stimuli/Experimental_stims/objects/fabian-blank-pElSkGRA2NU-unsplash.jpg,Stimuli/Experimental_stims/outdoor_scenes/jarrett-kow-1ZOyYPOBn7I-unsplash.jpg,0,1,61,0,chosen,40,4,objects,outdoor_scenes,2000,0,10,2
177,15837,0,178,3,3,1,gain6,no_gain1,F,G,25,8,body_parts,80,77,outdoor_scenes,Stimuli/Experimental_stims/body_parts/engin-akyurt-Q2rfH3GW39c-unsplash.jpg,Stimuli/Experimental_stims/outdoor_scenes/samsommer-vddccTqwal8-unsplash.jpg,0,0,321,0,chosen,8,25,outdoor_scenes,body_parts,1800,0,10,2
178,15837,0,179,3,3,0,no_gain1,gain2,G,J,8,44,outdoor_scenes,77,68,objects,Stimuli/Experimental_stims/outdoor_scenes/samsommer-vddccTqwal8-unsplash.jpg,Stimuli/Experimental_stims/objects/kuiye-chen-NuOGFo4PudE-unsplash.jpg,0,0,332,1,chosen,44,8,objects,outdoor_scenes,2200,0,10,2
179,15837,0,180,3,3,0,no_gain2,gain3,I,H,31,19,body_parts,68,80,faces,Stimuli/Experimental_stims/body_parts/sincerely-media-VN6DbKajo5s-unsplash.jpg,Stimuli/Experimental_stims/faces/joel-mott-LaK153ghdig-unsplash.jpg,0,1,241,0,unchosen,31,19,body_parts,faces,2300,0,10,2
180,15837,0,181,3,3,1,gain6,no_gain3,F,B,25,11,body_parts,80,76,outdoor_scenes,Stimuli/Experimental_stims/body_parts/engin-akyurt-Q2rfH3GW39c-unsplash.jpg,Stimuli/Experimental_stims/outdoor_scenes/stephen-leonardi-gyIRjKPXupE-unsplash.jpg,0,0,660,0,chosen,11,25,outdoor_scenes,body_parts,4300,1,10,2
181,15837,0,182,3,3,1,gain5,no_gain3,A,B,4,11,outdoor_scenes,69,76,outdoor_scenes,Stimuli/Experimental_stims/outdoor_scenes/jarrett-kow-1ZOyYPOBn7I-unsplash.jpg,Stimuli/Experimental_stims/outdoor_scenes/stephen-leonardi-gyIRjKPXupE-unsplash.jpg,0,0,224,0,chosen,11,4,outdoor_scenes,outdoor_scenes,1600,0,10,2
182,15837,0,183,3,3,0,no_gain2,gain4,I,D,31,22,body_parts,68,80,faces,Stimuli/Experimental_stims/body_parts/sincerely-media-VN6DbKajo5s-unsplash.jpg,Stimuli/Experimental_stims/faces/ravi-patel-VMGAbeeJTKo-unsplash.jpg,0,1,402,0,unchosen,31,22,body_parts,faces,1600,0,10,2
183,15837,0,184,3,3,1,gain3,no_gain1,H,G,19,41,faces,80,83,objects,Stimuli/Experimental_stims/faces/joel-mott-LaK153ghdig-unsplash.jpg,Stimuli/Experimental_stims/objects/insung-yoon-w2JtIQQXoRU-unsplash.jpg,0,0,323,0,unchosen,41,19,objects,faces,1100,0,10,2
184,15837,0,185,3,3,1,gain6,no_gain6,F,E,25,40,body_parts,80,78,objects,Stimuli/Experimental_stims/body_parts/engin-akyurt-Q2rfH3GW39c-unsplash.jpg,Stimuli/Experimental_stims/objects/fabian-blank-pElSkGRA2NU-unsplash.jpg,0,0,483,0,chosen,40,25,objects,body_parts,1000,0,10,2
185,15837,0,186,3,3,0,no_gain1,gain5,G,A,8,4,outdoor_scenes,77,69,outdoor_scenes,Stimuli/Experimental_stims/outdoor_scenes/samsommer-vddccTqwal8-unsplash.jpg,Stimuli/Experimental_stims/outdoor_scenes/jarrett-kow-1ZOyYPOBn7I-unsplash.jpg,0,0,85,1,chosen,4,8,outdoor_scenes,outdoor_scenes,1000,0,10,2
186,15837,0,187,3,3,0,no_gain1,gain5,G,A,41,39,objects,83,75,objects,Stimuli/Experimental_stims/objects/insung-yoon-w2JtIQQXoRU-unsplash.jpg,Stimuli/Experimental_stims/objects/charlesdeluvio-1-nx1QR5dTE-unsplash.jpg,0,0,130,1,unchosen,39,41,objects,objects,3000,1,10,2
187,15837,0,188,3,3,1,gain4,no_gain1,D,G,46,8,objects,74,77,outdoor_scenes,Stimuli/Experimental_stims/objects/mockup-graphics-PNsj6RiHAF4-unsplash.jpg,Stimuli/Experimental_stims/outdoor_scenes/samsommer-vddccTqwal8-unsplash.jpg,0,0,288,0,chosen,8,46,outdoor_scenes,objects,1000,0,10,2
188,15837,0,189,3,3,1,gain3,no_gain3,H,B,10,11,outdoor_scenes,75,76,outdoor_scenes,Stimuli/Experimental_stims/outdoor_scenes/shannon-kunkle-dM8INmkyDas-unsplash.jpg,Stimuli/Experimental_stims/outdoor_scenes/stephen-leonardi-gyIRjKPXupE-unsplash.jpg,0,0,177,0,chosen,11,10,outdoor_scenes,outdoor_scenes,1600,0,10,2
189,15837,0,190,3,3,0,no_gain2,gain5,I,A,6,4,outdoor_scenes,78,69,outdoor_scenes,Stimuli/Experimental_stims/outdoor_scenes/meng-ji-8BH_M-53CyA-unsplash.jpg,Stimuli/Experimental_stims/outdoor_scenes/jarrett-kow-1ZOyYPOBn7I-unsplash.jpg,0,0,455,1,chosen,4,6,outdoor_scenes,outdoor_scenes,1500,0,10,2
190,15837,0,191,3,3,0,no_gain1,gain6,G,F,41,15,objects,83,78,faces,Stimuli/Experimental_stims/objects/insung-yoon-w2JtIQQXoRU-unsplash.jpg,Stimuli/Experimental_stims/faces/erik-lucatero-d2MSDujJl2g-unsplash.jpg,0,0,232,1,unchosen,15,41,faces,objects,1700,0,10,2
191,15837,0,192,3,3,1,gain5,no_gain6,A,E,39,32,objects,75,77,body_parts,Stimuli/Experimental_stims/objects/charlesdeluvio-1-nx1QR5dTE-unsplash.jpg,Stimuli/Experimental_stims/body_parts/towfiqu-barbhuiya-3AsiVDsZnHg-unsplash.jpg,0,1,319,1,unchosen,39,32,objects,body_parts,1300,0,10,2
192,15837,0,193,3,3,0,no_gain5,gain4,L,D,17,22,faces,78,80,faces,Stimuli/Experimental_stims/faces/good-faces-xmSWVeGEnJw-unsplash.jpg,Stimuli/Experimental_stims/faces/ravi-patel-VMGAbeeJTKo-unsplash.jpg,0,1,282,0,unchosen,17,22,faces,faces,1300,0,10,2
193,15837,0,194,3,3,1,gain1,no_gain5,C,L,9,24,outdoor_scenes,68,78,body_parts,Stimuli/Experimental_stims/outdoor_scenes/sergey-pesterev-y-b_FOmJXdg-unsplash.jpg,Stimuli/Experimental_stims/body_parts/clay-banks-LjqARJaJotc-unsplash.jpg,0,1,136,1,chosen,9,24,outdoor_scenes,body_parts,3600,1,10,2
194,15837,0,195,3,3,1,gain6,no_gain4,F,K,15,29,faces,78,71,body_parts,Stimuli/Experimental_stims/faces/erik-lucatero-d2MSDujJl2g-unsplash.jpg,Stimuli/Experimental_stims/body_parts/manuel-schinner-ZwjFuJ7ebpk-unsplash.jpg,0,0,242,0,unchosen,29,15,body_parts,faces,2100,0,10,2
195,15837,0,196,3,3,1,gain1,no_gain1,C,G,9,8,outdoor_scenes,68,77,outdoor_scenes,Stimuli/Experimental_stims/outdoor_scenes/sergey-pesterev-y-b_FOmJXdg-unsplash.jpg,Stimuli/Experimental_stims/outdoor_scenes/samsommer-vddccTqwal8-unsplash.jpg,0,1,621,1,chosen,9,8,outdoor_scenes,outdoor_scenes,1600,0,10,2
196,15837,0,197,3,3,1,gain4,no_gain6,D,E,22,32,faces,80,77,body_parts,Stimuli/Experimental_stims/faces/ravi-patel-VMGAbeeJTKo-unsplash.jpg,Stimuli/Experimental_stims/body_parts/towfiqu-barbhuiya-3AsiVDsZnHg-unsplash.jpg,0,1,1381,1,unchosen,22,32,faces,body_parts,1800,0,10,2
197,15837,0,198,3,3,1,gain3,no_gain6,H,E,19,32,faces,80,77,body_parts,Stimuli/Experimental_stims/faces/joel-mott-LaK153ghdig-unsplash.jpg,Stimuli/Experimental_stims/body_parts/towfiqu-barbhuiya-3AsiVDsZnHg-unsplash.jpg,0,1,28,1,unchosen,19,32,faces,body_parts,1600,0,10,2
198,15837,0,199,3,3,1,gain1,no_gain3,C,B,9,11,outdoor_scenes,68,76,outdoor_scenes,Stimuli/Experimental_stims/outdoor_scenes/sergey-pesterev-y-b_FOmJXdg-unsplash.jpg,Stimuli/Experimental_stims/outdoor_scenes/stephen-leonardi-gyIRjKPXupE-unsplash.jpg,0,1,402,1,chosen,9,11,outdoor_scenes,outdoor_scenes,3100,1,10,2
199,15837,0,200,3,3,0,no_gain5,gain4,L,D,24,46,body_parts,78,74,objects,Stimuli/Experimental_stims/body_parts/clay-banks-LjqARJaJotc-unsplash.jpg,Stimuli/Experimental_stims/objects/mockup-graphics-PNsj6RiHAF4-unsplash.jpg,0,1,511,0,chosen,24,46,body_parts,objects,2500,0,10,2
200,15837,0,201,3,3,0,no_gain1,gain1,G,C,41,26,objects,83,79,body_parts,Stimuli/Experimental_stims/objects/insung-yoon-w2JtIQQXoRU-unsplash.jpg,Stimuli/Experimental_stims/body_parts/engin-akyurt-x_3gyC42btc-unsplash.jpg,0,0,117,1,unchosen,26,41,body_parts,objects,2000,0,10,2
201,15837,0,202,3,3,0,no_gain4,gain4,K,D,38,46,objects,75,74,objects,Stimuli/Experimental_stims/objects/art-lasovsky-8XddFc6NkBY-unsplash.jpg,Stimuli/Experimental_stims/objects/mockup-graphics-PNsj6RiHAF4-unsplash.jpg,0,0,153,1,chosen,46,38,objects,objects,2100,0,10,2
202,15837,0,203,3,3,1,gain3,no_gain5,H,L,10,24,outdoor_scenes,75,78,body_parts,Stimuli/Experimental_stims/outdoor_scenes/shannon-kunkle-dM8INmkyDas-unsplash.jpg,Stimuli/Experimental_stims/body_parts/clay-banks-LjqARJaJotc-unsplash.jpg,0,0,12,0,chosen,24,10,body_parts,outdoor_scenes,1200,0,10,2
203,15837,0,204,3,3,1,gain1,no_gain6,C,E,26,32,body_parts,79,77,body_parts,Stimuli/Experimental_stims/body_parts/engin-akyurt-x_3gyC42btc-unsplash.jpg,Stimuli/Experimental_stims/body_parts/towfiqu-barbhuiya-3AsiVDsZnHg-unsplash.jpg,0,1,183,1,unchosen,26,32,body_parts,body_parts,3300,1,10,2
204,15837,0,205,3,3,1,gain3,no_gain2,H,I,10,6,outdoor_scenes,75,78,outdoor_scenes,Stimuli/Experimental_stims/outdoor_scenes/shannon-kunkle-dM8INmkyDas-unsplash.jpg,Stimuli/Experimental_stims/outdoor_scenes/meng-ji-8BH_M-53CyA-unsplash.jpg,0,0,636,0,chosen,6,10,outdoor_scenes,outdoor_scenes,2100,0,10,2
205,15837,0,206,3,3,0,no_gain4,gain5,K,A,38,4,objects,75,69,outdoor_scenes,Stimuli/Experimental_stims/objects/art-lasovsky-8XddFc6NkBY-unsplash.jpg,Stimuli/Experimental_stims/outdoor_scenes/jarrett-kow-1ZOyYPOBn7I-unsplash.jpg,0,0,275,1,chosen,4,38,outdoor_scenes,objects,2100,0,10,2
206,15837,0,207,3,3,1,gain2,no_gain6,J,E,44,40,objects,68,78,objects,Stimuli/Experimental_stims/objects/kuiye-chen-NuOGFo4PudE-unsplash.jpg,Stimuli/Experimental_stims/objects/fabian-blank-pElSkGRA2NU-unsplash.jpg,0,0,4,0,chosen,40,44,objects,objects,2600,0,10,2
207,15837,0,208,3,3,1,gain1,no_gain2,C,I,26,31,body_parts,79,68,body_parts,Stimuli/Experimental_stims/body_parts/engin-akyurt-x_3gyC42btc-unsplash.jpg,Stimuli/Experimental_stims/body_parts/sincerely-media-VN6DbKajo5s-unsplash.jpg,0,0,462,0,unchosen,31,26,body_parts,body_parts,2800,0,10,2
208,15837,0,209,3,3,1,gain1,no_gain4,C,K,26,29,body_parts,79,71,body_parts,Stimuli/Experimental_stims/body_parts/engin-akyurt-x_3gyC42btc-unsplash.jpg,Stimuli/Experimental_stims/body_parts/manuel-schinner-ZwjFuJ7ebpk-unsplash.jpg,0,1,495,1,unchosen,26,29,body_parts,body_parts,2100,0,10,2
209,15837,0,210,3,3,0,no_gain6,gain1,E,C,40,9,objects,78,68,outdoor_scenes,Stimuli/Experimental_stims/objects/fabian-blank-pElSkGRA2NU-unsplash.jpg,Stimuli/Experimental_stims/outdoor_scenes/sergey-pesterev-y-b_FOmJXdg-unsplash.jpg,0,0,529,1,chosen,9,40,outdoor_scenes,objects,1300,0,10,2
210,15837,0,211,3,3,0,no_gain5,gain6,L,F,24,25,body_parts,78,80,body_parts,Stimuli/Experimental_stims/body_parts/clay-banks-LjqARJaJotc-unsplash.jpg,Stimuli/Experimental_stims/body_parts/engin-akyurt-Q2rfH3GW39c-unsplash.jpg,0,0,780,1,chosen,25,24,body_parts,body_parts,3900,1,10,2
211,15837,0,212,3,3,0,no_gain2,gain6,I,F,31,15,body_parts,68,78,faces,Stimuli/Experimental_stims/body_parts/sincerely-media-VN6DbKajo5s-unsplash.jpg,Stimuli/Experimental_stims/faces/erik-lucatero-d2MSDujJl2g-unsplash.jpg,0,1,773,0,unchosen,31,15,body_parts,faces,1600,0,10,2
212,15837,0,213,3,3,1,gain4,no_gain2,D,I,46,6,objects,74,78,outdoor_scenes,Stimuli/Experimental_stims/objects/mockup-graphics-PNsj6RiHAF4-unsplash.jpg,Stimuli/Experimental_stims/outdoor_scenes/meng-ji-8BH_M-53CyA-unsplash.jpg,0,1,556,1,chosen,46,6,objects,outdoor_scenes,1300,0,10,2
213,15837,0,214,3,3,0,no_gain3,gain5,B,A,16,39,faces,76,75,objects,Stimuli/Experimental_stims/faces/freddy-kearney-o-ioeoATbIM-unsplash.jpg,Stimuli/Experimental_stims/objects/charlesdeluvio-1-nx1QR5dTE-unsplash.jpg,0,1,352,0,unchosen,16,39,faces,objects,1700,0,10,2
214,15837,0,215,3,3,1,gain2,no_gain6,J,E,13,32,faces,85,77,body_parts,Stimuli/Experimental_stims/faces/daniel-rigdon-dXmXKPP2L4E-unsplash.jpg,Stimuli/Experimental_stims/body_parts/towfiqu-barbhuiya-3AsiVDsZnHg-unsplash.jpg,0,1,418,1,unchosen,13,32,faces,body_parts,1600,0,10,2
215,15837,0,216,3,3,0,no_gain4,gain6,K,F,38,25,objects,75,80,body_parts,Stimuli/Experimental_stims/objects/art-lasovsky-8XddFc6NkBY-unsplash.jpg,Stimuli/Experimental_stims/body_parts/engin-akyurt-Q2rfH3GW39c-unsplash.jpg,0,1,365,0,chosen,38,25,objects,body_parts,3600,1,10,2
216,15837,0,217,3,3,1,gain5,no_gain5,A,L,39,17,objects,75,78,faces,Stimuli/Experimental_stims/objects/charlesdeluvio-1-nx1QR5dTE-unsplash.jpg,Stimuli/Experimental_stims/faces/good-faces-xmSWVeGEnJw-unsplash.jpg,0,0,936,0,unchosen,17,39,faces,objects,2700,0,10,2
217,15837,0,218,3,3,1,gain2,no_gain2,J,I,44,6,objects,68,78,outdoor_scenes,Stimuli/Experimental_stims/objects/kuiye-chen-NuOGFo4PudE-unsplash.jpg,Stimuli/Experimental_stims/outdoor_scenes/meng-ji-8BH_M-53CyA-unsplash.jpg,0,0,263,0,chosen,6,44,outdoor_scenes,objects,2800,0,10,2
218,15837,0,219,3,3,0,no_gain6,gain6,E,F,32,15,body_parts,77,78,faces,Stimuli/Experimental_stims/body_parts/towfiqu-barbhuiya-3AsiVDsZnHg-unsplash.jpg,Stimuli/Experimental_stims/faces/erik-lucatero-d2MSDujJl2g-unsplash.jpg,0,0,163,1,unchosen,15,32,faces,body_parts,2800,0,10,2
219,15837,0,220,3,3,1,gain1,no_gain3,C,B,26,16,body_parts,79,76,faces,Stimuli/Experimental_stims/body_parts/engin-akyurt-x_3gyC42btc-unsplash.jpg,Stimuli/Experimental_stims/faces/freddy-kearney-o-ioeoATbIM-unsplash.jpg,0,1,311,1,unchosen,26,16,body_parts,faces,1100,0,10,2
220,15837,0,221,4,4,0,no_gain6,gain2,E,J,40,44,objects,78,68,objects,Stimuli/Experimental_stims/objects/fabian-blank-pElSkGRA2NU-unsplash.jpg,Stimuli/Experimental_stims/objects/kuiye-chen-NuOGFo4PudE-unsplash.jpg,1,NaN,,NaN,chosen,NaN,NaN,NaN,NaN,4200,1,9,2
221,15837,0,222,4,4,1,gain4,no_gain2,D,I,22,31,faces,80,68,body_parts,Stimuli/Experimental_stims/faces/ravi-patel-VMGAbeeJTKo-unsplash.jpg,Stimuli/Experimental_stims/body_parts/sincerely-media-VN6DbKajo5s-unsplash.jpg,0,0,333,0,unchosen,31,22,body_parts,faces,2400,0,9,2
222,15837,0,223,4,4,1,gain2,no_gain1,J,G,44,8,objects,68,77,outdoor_scenes,Stimuli/Experimental_stims/objects/kuiye-chen-NuOGFo4PudE-unsplash.jpg,Stimuli/Experimental_stims/outdoor_scenes/samsommer-vddccTqwal8-unsplash.jpg,0,0,11,0,chosen,8,44,outdoor_scenes,objects,1200,0,9,2
223,15837,0,224,4,4,0,no_gain4,gain4,K,D,38,46,objects,75,74,objects,Stimuli/Experimental_stims/objects/art-lasovsky-8XddFc6NkBY-unsplash.jpg,Stimuli/Experimental_stims/objects/mockup-graphics-PNsj6RiHAF4-unsplash.jpg,0,1,113,0,chosen,38,46,objects,objects,1400,0,9,2
224,15837,0,225,4,4,0,no_gain4,gain6,K,F,29,15,body_parts,71,78,faces,Stimuli/Experimental_stims/body_parts/manuel-schinner-ZwjFuJ7ebpk-unsplash.jpg,Stimuli/Experimental_stims/faces/erik-lucatero-d2MSDujJl2g-unsplash.jpg,0,0,92,1,unchosen,15,29,faces,body_parts,1800,0,9,2
225,15837,0,226,4,4,0,no_gain4,gain5,K,A,29,39,body_parts,71,75,objects,Stimuli/Experimental_stims/body_parts/manuel-schinner-ZwjFuJ7ebpk-unsplash.jpg,Stimuli/Experimental_stims/objects/charlesdeluvio-1-nx1QR5dTE-unsplash.jpg,0,1,399,0,unchosen,29,39,body_parts,objects,2200,0,9,2
226,15837,0,227,4,4,1,gain4,no_gain1,D,G,46,8,objects,74,77,outdoor_scenes,Stimuli/Experimental_stims/objects/mockup-graphics-PNsj6RiHAF4-unsplash.jpg,Stimuli/Experimental_stims/outdoor_scenes/samsommer-vddccTqwal8-unsplash.jpg,0,1,361,1,chosen,46,8,objects,outdoor_scenes,4000,1,9,2
227,15837,0,228,4,4,1,gain3,no_gain2,H,I,10,6,outdoor_scenes,75,78,outdoor_scenes,Stimuli/Experimental_stims/outdoor_scenes/shannon-kunkle-dM8INmkyDas-unsplash.jpg,Stimuli/Experimental_stims/outdoor_scenes/meng-ji-8BH_M-53CyA-unsplash.jpg,1,NaN,,NaN,chosen,NaN,NaN,NaN,NaN,1900,0,9,2
228,15837,0,229,4,4,0,no_gain5,gain4,L,D,24,46,body_parts,78,74,objects,Stimuli/Experimental_stims/body_parts/clay-banks-LjqARJaJotc-unsplash.jpg,Stimuli/Experimental_stims/objects/mockup-graphics-PNsj6RiHAF4-unsplash.jpg,0,1,0,0,chosen,24,46,body_parts,objects,1800,0,9,2
229,15837,0,230,4,4,0,no_gain4,gain3,K,H,29,19,body_parts,71,80,faces,Stimuli/Experimental_stims/body_parts/manuel-schinner-ZwjFuJ7ebpk-unsplash.jpg,Stimuli/Experimental_stims/faces/joel-mott-LaK153ghdig-unsplash.jpg,0,0,314,1,unchosen,19,29,faces,body_parts,1200,0,9,2
230,15837,0,231,4,4,0,no_gain3,gain5,B,A,16,39,faces,76,75,objects,Stimuli/Experimental_stims/faces/freddy-kearney-o-ioeoATbIM-unsplash.jpg,Stimuli/Experimental_stims/objects/charlesdeluvio-1-nx1QR5dTE-unsplash.jpg,0,1,304,0,unchosen,16,39,faces,objects,1700,0,9,2
231,15837,0,232,4,4,0,no_gain2,gain5,I,A,31,39,body_parts,68,75,objects,Stimuli/Experimental_stims/body_parts/sincerely-media-VN6DbKajo5s-unsplash.jpg,Stimuli/Experimental_stims/objects/charlesdeluvio-1-nx1QR5dTE-unsplash.jpg,0,1,9,0,unchosen,31,39,body_parts,objects,3500,1,9,2
232,15837,0,233,4,4,1,gain3,no_gain3,H,B,10,11,outdoor_scenes,75,76,outdoor_scenes,Stimuli/Experimental_stims/outdoor_scenes/shannon-kunkle-dM8INmkyDas-unsplash.jpg,Stimuli/Experimental_stims/outdoor_scenes/stephen-leonardi-gyIRjKPXupE-unsplash.jpg,0,1,0,1,chosen,10,11,outdoor_scenes,outdoor_scenes,1700,0,9,2
233,15837,0,234,4,4,1,gain2,no_gain2,J,I,13,31,faces,85,68,body_parts,Stimuli/Experimental_stims/faces/daniel-rigdon-dXmXKPP2L4E-unsplash.jpg,Stimuli/Experimental_stims/body_parts/sincerely-media-VN6DbKajo5s-unsplash.jpg,0,0,280,0,unchosen,31,13,body_parts,faces,2000,0,9,2
234,15837,0,235,4,4,0,no_gain6,gain5,E,A,32,39,body_parts,77,75,objects,Stimuli/Experimental_stims/body_parts/towfiqu-barbhuiya-3AsiVDsZnHg-unsplash.jpg,Stimuli/Experimental_stims/objects/charlesdeluvio-1-nx1QR5dTE-unsplash.jpg,0,0,688,1,unchosen,39,32,objects,body_parts,1300,0,9,2
235,15837,0,236,4,4,1,gain6,no_gain1,F,G,25,8,body_parts,80,77,outdoor_scenes,Stimuli/Experimental_stims/body_parts/engin-akyurt-Q2rfH3GW39c-unsplash.jpg,Stimuli/Experimental_stims/outdoor_scenes/samsommer-vddccTqwal8-unsplash.jpg,0,0,680,0,chosen,8,25,outdoor_scenes,body_parts,1400,0,9,2
236,15837,0,237,4,4,1,gain1,no_gain4,C,K,26,29,body_parts,79,71,body_parts,Stimuli/Experimental_stims/body_parts/engin-akyurt-x_3gyC42btc-unsplash.jpg,Stimuli/Experimental_stims/body_parts/manuel-schinner-ZwjFuJ7ebpk-unsplash.jpg,0,0,496,0,unchosen,29,26,body_parts,body_parts,3600,1,9,2
237,15837,0,238,4,4,0,no_gain3,gain4,B,D,11,46,outdoor_scenes,76,74,objects,Stimuli/Experimental_stims/outdoor_scenes/stephen-leonardi-gyIRjKPXupE-unsplash.jpg,Stimuli/Experimental_stims/objects/mockup-graphics-PNsj6RiHAF4-unsplash.jpg,0,0,63,1,chosen,46,11,objects,outdoor_scenes,2700,0,9,2
238,15837,0,239,4,4,0,no_gain5,gain1,L,C,17,26,faces,78,79,body_parts,Stimuli/Experimental_stims/faces/good-faces-xmSWVeGEnJw-unsplash.jpg,Stimuli/Experimental_stims/body_parts/engin-akyurt-x_3gyC42btc-unsplash.jpg,0,0,149,1,unchosen,26,17,body_parts,faces,1900,0,9,2
239,15837,0,240,4,4,0,no_gain1,gain3,G,H,41,19,objects,83,80,faces,Stimuli/Experimental_stims/objects/insung-yoon-w2JtIQQXoRU-unsplash.jpg,Stimuli/Experimental_stims/faces/joel-mott-LaK153ghdig-unsplash.jpg,1,NaN,,NaN,unchosen,NaN,NaN,NaN,NaN,1200,0,9,2
240,15837,0,241,4,4,0,no_gain2,gain1,I,C,31,26,body_parts,68,79,body_parts,Stimuli/Experimental_stims/body_parts/sincerely-media-VN6DbKajo5s-unsplash.jpg,Stimuli/Experimental_stims/body_parts/engin-akyurt-x_3gyC42btc-unsplash.jpg,0,1,297,0,unchosen,31,26,body_parts,body_parts,1000,0,9,2
241,15837,0,242,4,4,1,gain3,no_gain4,H,K,10,38,outdoor_scenes,75,75,objects,Stimuli/Experimental_stims/outdoor_scenes/shannon-kunkle-dM8INmkyDas-unsplash.jpg,Stimuli/Experimental_stims/objects/art-lasovsky-8XddFc6NkBY-unsplash.jpg,0,1,656,1,chosen,10,38,outdoor_scenes,objects,3700,1,9,2
242,15837,0,243,4,4,0,no_gain4,gain1,K,C,38,9,objects,75,68,outdoor_scenes,Stimuli/Experimental_stims/objects/art-lasovsky-8XddFc6NkBY-unsplash.jpg,Stimuli/Experimental_stims/outdoor_scenes/sergey-pesterev-y-b_FOmJXdg-unsplash.jpg,0,0,566,1,chosen,9,38,outdoor_scenes,objects,1200,0,9,2
243,15837,0,244,4,4,1,gain2,no_gain3,J,B,13,16,faces,85,76,faces,Stimuli/Experimental_stims/faces/daniel-rigdon-dXmXKPP2L4E-unsplash.jpg,Stimuli/Experimental_stims/faces/freddy-kearney-o-ioeoATbIM-unsplash.jpg,0,0,256,0,unchosen,16,13,faces,faces,2600,0,9,2
244,15837,0,245,4,4,1,gain4,no_gain4,D,K,22,29,faces,80,71,body_parts,Stimuli/Experimental_stims/faces/ravi-patel-VMGAbeeJTKo-unsplash.jpg,Stimuli/Experimental_stims/body_parts/manuel-schinner-ZwjFuJ7ebpk-unsplash.jpg,0,0,1211,0,unchosen,29,22,body_parts,faces,2400,0,9,2
245,15837,0,246,4,4,1,gain2,no_gain6,J,E,13,32,faces,85,77,body_parts,Stimuli/Experimental_stims/faces/daniel-rigdon-dXmXKPP2L4E-unsplash.jpg,Stimuli/Experimental_stims/body_parts/towfiqu-barbhuiya-3AsiVDsZnHg-unsplash.jpg,0,0,265,0,unchosen,32,13,body_parts,faces,1200,0,9,2
246,15837,0,247,4,4,0,no_gain6,gain6,E,F,40,25,objects,78,80,body_parts,Stimuli/Experimental_stims/objects/fabian-blank-pElSkGRA2NU-unsplash.jpg,Stimuli/Experimental_stims/body_parts/engin-akyurt-Q2rfH3GW39c-unsplash.jpg,0,0,37,1,chosen,25,40,body_parts,objects,2500,0,9,2
247,15837,0,248,4,4,1,gain2,no_gain5,J,L,13,17,faces,85,78,faces,Stimuli/Experimental_stims/faces/daniel-rigdon-dXmXKPP2L4E-unsplash.jpg,Stimuli/Experimental_stims/faces/good-faces-xmSWVeGEnJw-unsplash.jpg,0,0,210,0,unchosen,17,13,faces,faces,2200,0,9,2
248,15837,0,249,4,4,0,no_gain1,gain3,G,H,8,10,outdoor_scenes,77,75,outdoor_scenes,Stimuli/Experimental_stims/outdoor_scenes/samsommer-vddccTqwal8-unsplash.jpg,Stimuli/Experimental_stims/outdoor_scenes/shannon-kunkle-dM8INmkyDas-unsplash.jpg,0,1,218,0,chosen,8,10,outdoor_scenes,outdoor_scenes,1100,0,9,2
249,15837,0,250,4,4,0,no_gain6,gain1,E,C,40,9,objects,78,68,outdoor_scenes,Stimuli/Experimental_stims/objects/fabian-blank-pElSkGRA2NU-unsplash.jpg,Stimuli/Experimental_stims/outdoor_scenes/sergey-pesterev-y-b_FOmJXdg-unsplash.jpg,0,1,100,0,chosen,40,9,objects,outdoor_scenes,1700,0,9,2
250,15837,0,251,4,4,0,no_gain1,gain2,G,J,41,13,objects,83,85,faces,Stimuli/Experimental_stims/objects/insung-yoon-w2JtIQQXoRU-unsplash.jpg,Stimuli/Experimental_stims/faces/daniel-rigdon-dXmXKPP2L4E-unsplash.jpg,0,0,202,1,unchosen,13,41,faces,objects,1100,0,9,2
251,15837,0,252,4,4,1,gain6,no_gain3,F,B,25,11,body_parts,80,76,outdoor_scenes,Stimuli/Experimental_stims/body_parts/engin-akyurt-Q2rfH3GW39c-unsplash.jpg,Stimuli/Experimental_stims/outdoor_scenes/stephen-leonardi-gyIRjKPXupE-unsplash.jpg,0,0,243,0,chosen,11,25,outdoor_scenes,body_parts,1900,0,9,2
252,15837,0,253,4,4,1,gain4,no_gain1,D,G,22,41,faces,80,83,objects,Stimuli/Experimental_stims/faces/ravi-patel-VMGAbeeJTKo-unsplash.jpg,Stimuli/Experimental_stims/objects/insung-yoon-w2JtIQQXoRU-unsplash.jpg,0,1,58,1,unchosen,22,41,faces,objects,1100,0,9,2
253,15837,0,254,4,4,1,gain4,no_gain5,D,L,22,17,faces,80,78,faces,Stimuli/Experimental_stims/faces/ravi-patel-VMGAbeeJTKo-unsplash.jpg,Stimuli/Experimental_stims/faces/good-faces-xmSWVeGEnJw-unsplash.jpg,0,0,233,0,unchosen,17,22,faces,faces,1000,0,9,2
254,15837,0,255,4,4,1,gain6,no_gain6,F,E,15,32,faces,78,77,body_parts,Stimuli/Experimental_stims/faces/erik-lucatero-d2MSDujJl2g-unsplash.jpg,Stimuli/Experimental_stims/body_parts/towfiqu-barbhuiya-3AsiVDsZnHg-unsplash.jpg,0,0,31,0,unchosen,32,15,body_parts,faces,1600,0,9,2
255,15837,0,256,4,4,0,no_gain4,gain5,K,A,38,4,objects,75,69,outdoor_scenes,Stimuli/Experimental_stims/objects/art-lasovsky-8XddFc6NkBY-unsplash.jpg,Stimuli/Experimental_stims/outdoor_scenes/jarrett-kow-1ZOyYPOBn7I-unsplash.jpg,0,0,306,1,chosen,4,38,outdoor_scenes,objects,2700,0,9,2
256,15837,0,257,4,4,1,gain4,no_gain6,D,E,22,32,faces,80,77,body_parts,Stimuli/Experimental_stims/faces/ravi-patel-VMGAbeeJTKo-unsplash.jpg,Stimuli/Experimental_stims/body_parts/towfiqu-barbhuiya-3AsiVDsZnHg-unsplash.jpg,0,0,434,0,unchosen,32,22,body_parts,faces,3500,1,9,2
257,15837,0,258,4,4,0,no_gain2,gain6,I,F,31,15,body_parts,68,78,faces,Stimuli/Experimental_stims/body_parts/sincerely-media-VN6DbKajo5s-unsplash.jpg,Stimuli/Experimental_stims/faces/erik-lucatero-d2MSDujJl2g-unsplash.jpg,0,1,1030,0,unchosen,31,15,body_parts,faces,1000,0,9,2
258,15837,0,259,4,4,0,no_gain2,gain3,I,H,31,19,body_parts,68,80,faces,Stimuli/Experimental_stims/body_parts/sincerely-media-VN6DbKajo5s-unsplash.jpg,Stimuli/Experimental_stims/faces/joel-mott-LaK153ghdig-unsplash.jpg,0,1,267,0,unchosen,31,19,body_parts,faces,1700,0,9,2
259,15837,0,260,4,4,1,gain2,no_gain5,J,L,44,24,objects,68,78,body_parts,Stimuli/Experimental_stims/objects/kuiye-chen-NuOGFo4PudE-unsplash.jpg,Stimuli/Experimental_stims/body_parts/clay-banks-LjqARJaJotc-unsplash.jpg,0,0,110,0,chosen,24,44,body_parts,objects,1500,0,9,2
260,15837,0,261,4,4,1,gain3,no_gain5,H,L,10,24,outdoor_scenes,75,78,body_parts,Stimuli/Experimental_stims/outdoor_scenes/shannon-kunkle-dM8INmkyDas-unsplash.jpg,Stimuli/Experimental_stims/body_parts/clay-banks-LjqARJaJotc-unsplash.jpg,0,0,114,0,chosen,24,10,body_parts,outdoor_scenes,1400,0,9,2
261,15837,0,262,4,4,1,gain5,no_gain3,A,B,4,11,outdoor_scenes,69,76,outdoor_scenes,Stimuli/Experimental_stims/outdoor_scenes/jarrett-kow-1ZOyYPOBn7I-unsplash.jpg,Stimuli/Experimental_stims/outdoor_scenes/stephen-leonardi-gyIRjKPXupE-unsplash.jpg,0,0,249,0,chosen,11,4,outdoor_scenes,outdoor_scenes,1300,0,9,2
262,15837,0,263,4,4,1,gain5,no_gain5,A,L,39,17,objects,75,78,faces,Stimuli/Experimental_stims/objects/charlesdeluvio-1-nx1QR5dTE-unsplash.jpg,Stimuli/Experimental_stims/faces/good-faces-xmSWVeGEnJw-unsplash.jpg,0,0,154,0,unchosen,17,39,faces,objects,4500,1,9,2
263,15837,0,264,4,4,0,no_gain5,gain6,L,F,17,15,faces,78,78,faces,Stimuli/Experimental_stims/faces/good-faces-xmSWVeGEnJw-unsplash.jpg,Stimuli/Experimental_stims/faces/erik-lucatero-d2MSDujJl2g-unsplash.jpg,0,0,376,1,unchosen,15,17,faces,faces,1900,0,9,2
264,15837,0,265,4,4,0,no_gain6,gain1,E,C,32,26,body_parts,77,79,body_parts,Stimuli/Experimental_stims/body_parts/towfiqu-barbhuiya-3AsiVDsZnHg-unsplash.jpg,Stimuli/Experimental_stims/body_parts/engin-akyurt-x_3gyC42btc-unsplash.jpg,0,0,169,1,unchosen,26,32,body_parts,body_parts,1900,0,9,2
265,15837,0,266,4,4,1,gain5,no_gain5,A,L,4,24,outdoor_scenes,69,78,body_parts,Stimuli/Experimental_stims/outdoor_scenes/jarrett-kow-1ZOyYPOBn7I-unsplash.jpg,Stimuli/Experimental_stims/body_parts/clay-banks-LjqARJaJotc-unsplash.jpg,0,1,627,1,chosen,4,24,outdoor_scenes,body_parts,1600,0,9,2
266,15837,0,267,4,4,0,no_gain2,gain4,I,D,6,46,outdoor_scenes,78,74,objects,Stimuli/Experimental_stims/outdoor_scenes/meng-ji-8BH_M-53CyA-unsplash.jpg,Stimuli/Experimental_stims/objects/mockup-graphics-PNsj6RiHAF4-unsplash.jpg,0,0,569,1,chosen,46,6,objects,outdoor_scenes,2300,0,9,2
267,15837,0,268,4,4,1,gain6,no_gain2,F,I,25,6,body_parts,80,78,outdoor_scenes,Stimuli/Experimental_stims/body_parts/engin-akyurt-Q2rfH3GW39c-unsplash.jpg,Stimuli/Experimental_stims/outdoor_scenes/meng-ji-8BH_M-53CyA-unsplash.jpg,0,1,631,1,chosen,25,6,body_parts,outdoor_scenes,3700,1,9,2
268,15837,0,269,4,4,0,no_gain3,gain3,B,H,16,19,faces,76,80,faces,Stimuli/Experimental_stims/faces/freddy-kearney-o-ioeoATbIM-unsplash.jpg,Stimuli/Experimental_stims/faces/joel-mott-LaK153ghdig-unsplash.jpg,0,0,612,1,unchosen,19,16,faces,faces,1200,0,9,2
269,15837,0,270,4,4,1,gain4,no_gain3,D,B,22,16,faces,80,76,faces,Stimuli/Experimental_stims/faces/ravi-patel-VMGAbeeJTKo-unsplash.jpg,Stimuli/Experimental_stims/faces/freddy-kearney-o-ioeoATbIM-unsplash.jpg,1,NaN,,NaN,unchosen,NaN,NaN,NaN,NaN,1900,0,9,2
270,15837,0,271,4,4,0,no_gain3,gain1,B,C,16,26,faces,76,79,body_parts,Stimuli/Experimental_stims/faces/freddy-kearney-o-ioeoATbIM-unsplash.jpg,Stimuli/Experimental_stims/body_parts/engin-akyurt-x_3gyC42btc-unsplash.jpg,0,1,39,0,unchosen,16,26,faces,body_parts,2000,0,9,2
271,15837,0,272,4,4,1,gain1,no_gain3,C,B,9,11,outdoor_scenes,68,76,outdoor_scenes,Stimuli/Experimental_stims/outdoor_scenes/sergey-pesterev-y-b_FOmJXdg-unsplash.jpg,Stimuli/Experimental_stims/outdoor_scenes/stephen-leonardi-gyIRjKPXupE-unsplash.jpg,0,0,259,0,chosen,11,9,outdoor_scenes,outdoor_scenes,2700,0,9,2
272,15837,0,273,4,4,1,gain6,no_gain5,F,L,25,24,body_parts,80,78,body_parts,Stimuli/Experimental_stims/body_parts/engin-akyurt-Q2rfH3GW39c-unsplash.jpg,Stimuli/Experimental_stims/body_parts/clay-banks-LjqARJaJotc-unsplash.jpg,0,0,161,0,chosen,24,25,body_parts,body_parts,1100,0,9,2
273,15837,0,274,4,4,0,no_gain2,gain1,I,C,6,9,outdoor_scenes,78,68,outdoor_scenes,Stimuli/Experimental_stims/outdoor_scenes/meng-ji-8BH_M-53CyA-unsplash.jpg,Stimuli/Experimental_stims/outdoor_scenes/sergey-pesterev-y-b_FOmJXdg-unsplash.jpg,0,0,82,1,chosen,9,6,outdoor_scenes,outdoor_scenes,4200,1,9,2
274,15837,0,275,4,4,1,gain3,no_gain6,H,E,19,32,faces,80,77,body_parts,Stimuli/Experimental_stims/faces/joel-mott-LaK153ghdig-unsplash.jpg,Stimuli/Experimental_stims/body_parts/towfiqu-barbhuiya-3AsiVDsZnHg-unsplash.jpg,0,0,5,0,unchosen,32,19,body_parts,faces,1300,0,9,2
275,15837,0,276,4,4,1,gain1,no_gain5,C,L,9,24,outdoor_scenes,68,78,body_parts,Stimuli/Experimental_stims/outdoor_scenes/sergey-pesterev-y-b_FOmJXdg-unsplash.jpg,Stimuli/Experimental_stims/body_parts/clay-banks-LjqARJaJotc-unsplash.jpg,0,0,160,0,chosen,24,9,body_parts,outdoor_scenes,2000,0,9,2
276,15837,0,277,4,4,0,no_gain3,gain2,B,J,11,44,outdoor_scenes,76,68,objects,Stimuli/Experimental_stims/outdoor_scenes/stephen-leonardi-gyIRjKPXupE-unsplash.jpg,Stimuli/Experimental_stims/objects/kuiye-chen-NuOGFo4PudE-unsplash.jpg,0,1,122,0,chosen,11,44,outdoor_scenes,objects,1100,0,9,2
277,15837,0,278,4,4,1,gain5,no_gain1,A,G,39,41,objects,75,83,objects,Stimuli/Experimental_stims/objects/charlesdeluvio-1-nx1QR5dTE-unsplash.jpg,Stimuli/Experimental_stims/objects/insung-yoon-w2JtIQQXoRU-unsplash.jpg,0,0,431,0,unchosen,41,39,objects,objects,2300,0,9,2
278,15837,0,279,4,4,1,gain2,no_gain2,J,I,44,6,objects,68,78,outdoor_scenes,Stimuli/Experimental_stims/objects/kuiye-chen-NuOGFo4PudE-unsplash.jpg,Stimuli/Experimental_stims/outdoor_scenes/meng-ji-8BH_M-53CyA-unsplash.jpg,0,0,382,0,chosen,6,44,outdoor_scenes,objects,2900,0,9,2
279,15837,0,280,4,4,0,no_gain2,gain5,I,A,6,4,outdoor_scenes,78,69,outdoor_scenes,Stimuli/Experimental_stims/outdoor_scenes/meng-ji-8BH_M-53CyA-unsplash.jpg,Stimuli/Experimental_stims/outdoor_scenes/jarrett-kow-1ZOyYPOBn7I-unsplash.jpg,0,1,315,0,chosen,6,4,outdoor_scenes,outdoor_scenes,1200,0,9,2
280,15837,0,281,4,4,1,gain5,no_gain6,A,E,4,40,outdoor_scenes,69,78,objects,Stimuli/Experimental_stims/outdoor_scenes/jarrett-kow-1ZOyYPOBn7I-unsplash.jpg,Stimuli/Experimental_stims/objects/fabian-blank-pElSkGRA2NU-unsplash.jpg,0,0,280,0,chosen,40,4,objects,outdoor_scenes,1500,0,9,2
281,15837,0,282,4,4,1,gain6,no_gain3,F,B,15,16,faces,78,76,faces,Stimuli/Experimental_stims/faces/erik-lucatero-d2MSDujJl2g-unsplash.jpg,Stimuli/Experimental_stims/faces/freddy-kearney-o-ioeoATbIM-unsplash.jpg,0,0,339,0,unchosen,16,15,faces,faces,1100,0,9,2
282,15837,0,283,4,4,0,no_gain6,gain4,E,D,40,46,objects,78,74,objects,Stimuli/Experimental_stims/objects/fabian-blank-pElSkGRA2NU-unsplash.jpg,Stimuli/Experimental_stims/objects/mockup-graphics-PNsj6RiHAF4-unsplash.jpg,0,0,709,1,chosen,46,40,objects,objects,1200,0,9,2
283,15837,0,284,4,4,0,no_gain4,gain2,K,J,38,44,objects,75,68,objects,Stimuli/Experimental_stims/objects/art-lasovsky-8XddFc6NkBY-unsplash.jpg,Stimuli/Experimental_stims/objects/kuiye-chen-NuOGFo4PudE-unsplash.jpg,0,0,433,1,chosen,44,38,objects,objects,1400,0,9,2
284,15837,0,285,4,4,1,gain2,no_gain4,J,K,13,29,faces,85,71,body_parts,Stimuli/Experimental_stims/faces/daniel-rigdon-dXmXKPP2L4E-unsplash.jpg,Stimuli/Experimental_stims/body_parts/manuel-schinner-ZwjFuJ7ebpk-unsplash.jpg,0,0,1030,0,unchosen,29,13,body_parts,faces,1100,0,9,2
285,15837,0,286,4,4,1,gain3,no_gain6,H,E,10,40,outdoor_scenes,75,78,objects,Stimuli/Experimental_stims/outdoor_scenes/shannon-kunkle-dM8INmkyDas-unsplash.jpg,Stimuli/Experimental_stims/objects/fabian-blank-pElSkGRA2NU-unsplash.jpg,1,NaN,,NaN,chosen,NaN,NaN,NaN,NaN,2100,0,9,2
286,15837,0,287,4,4,0,no_gain1,gain1,G,C,41,26,objects,83,79,body_parts,Stimuli/Experimental_stims/objects/insung-yoon-w2JtIQQXoRU-unsplash.jpg,Stimuli/Experimental_stims/body_parts/engin-akyurt-x_3gyC42btc-unsplash.jpg,0,0,5,1,unchosen,26,41,body_parts,objects,3300,1,9,2
287,15837,0,288,4,4,0,no_gain1,gain6,G,F,41,15,objects,83,78,faces,Stimuli/Experimental_stims/objects/insung-yoon-w2JtIQQXoRU-unsplash.jpg,Stimuli/Experimental_stims/faces/erik-lucatero-d2MSDujJl2g-unsplash.jpg,0,0,2,1,unchosen,15,41,faces,objects,1900,0,9,2
288,15837,0,289,4,4,0,no_gain1,gain5,G,A,8,4,outdoor_scenes,77,69,outdoor_scenes,Stimuli/Experimental_stims/outdoor_scenes/samsommer-vddccTqwal8-unsplash.jpg,Stimuli/Experimental_stims/outdoor_scenes/jarrett-kow-1ZOyYPOBn7I-unsplash.jpg,0,0,287,1,chosen,4,8,outdoor_scenes,outdoor_scenes,2000,0,9,2
289,15837,0,290,4,4,0,no_gain4,gain6,K,F,38,25,objects,75,80,body_parts,Stimuli/Experimental_stims/objects/art-lasovsky-8XddFc6NkBY-unsplash.jpg,Stimuli/Experimental_stims/body_parts/engin-akyurt-Q2rfH3GW39c-unsplash.jpg,0,0,197,1,chosen,25,38,body_parts,objects,1100,0,9,2
290,15837,0,291,4,4,1,gain3,no_gain5,H,L,19,17,faces,80,78,faces,Stimuli/Experimental_stims/faces/joel-mott-LaK153ghdig-unsplash.jpg,Stimuli/Experimental_stims/faces/good-faces-xmSWVeGEnJw-unsplash.jpg,0,0,429,0,unchosen,17,19,faces,faces,1800,0,9,2
291,15837,0,292,4,4,0,no_gain1,gain1,G,C,8,9,outdoor_scenes,77,68,outdoor_scenes,Stimuli/Experimental_stims/outdoor_scenes/samsommer-vddccTqwal8-unsplash.jpg,Stimuli/Experimental_stims/outdoor_scenes/sergey-pesterev-y-b_FOmJXdg-unsplash.jpg,0,0,95,1,chosen,9,8,outdoor_scenes,outdoor_scenes,3200,1,9,2