,PID,practice,trial,block,run,gain_left,left_item_id,right_item_id,left_pair_id,right_pair_id,left_stimulus,right_stimulus,left_category,left_rating,right_rating,right_category,left_path,right_path,no_response,left_chosen,rt,higher_outcome_chosen,choice_type,chosen_stimulus,unchosen_stimulus,chosen_category,unchosen_category,iti,long_iti,simulation,version
0,70197,1,1,0,0,0,,,,,,,,,,,Stimuli/Practice_stims/Final_decisions/debby-hudson-FmCSSSGge-0-unsplash.jpg,Stimuli/Practice_stims/Final_decisions/yassine-khalfalli-adsQ9d_Cx0c-unsplash.jpg,0,1,615,0,,,,,,3000,0,7,2
1,70197,1,2,0,0,0,,,,,,,,,,,Stimuli/Practice_stims/Final_decisions/florian-wehde-iVW7mZPwd4g-unsplash.jpg,Stimuli/Practice_stims/Final_decisions/patrick-perkins-3wylDrjxH-E-unsplash.jpg,0,0,1226,1,,,,,,1500,0,7,2
2,70197,1,3,0,0,0,,,,,,,,,,,Stimuli/Practice_stims/Final_decisions/debby-hudson-FmCSSSGge-0-unsplash.jpg,Stimuli/Practice_stims/Final_decisions/florian-wehde-iVW7mZPwd4g-unsplash.jpg,0,1,1507,0,,,,,,2000,0,7,2
3,70197,1,4,0,0,0,,,,,,,,,,,Stimuli/Practice_stims/Final_decisions/yassine-khalfalli-adsQ9d_Cx0c-unsplash.jpg,Stimuli/Practice_stims/Final_decisions/debby-hudson-FmCSSSGge-0-unsplash.jpg,0,0,930,1,,,,,,1000,0,7,2
4,70197,0,5,1,1,1,gain2,no_gain3,K,L,30,33,body_parts,25,62,body_parts,Stimuli/Experimental_stims/body_parts/mika-korhonen-Xodzxosar18-unsplash.jpg,Stimuli/Experimental_stims/body_parts/tucker-good-36skLT5jZcc-unsplash.jpg,1,NaN,,NaN,unchosen,NaN,NaN,NaN,NaN,4100,1,7,2
5,70197,0,6,1,1,1,gain3,no_gain5,B,D,14,21,faces,84,55,faces,Stimuli/Experimental_stims/faces/david-siglin-UuW4psOb388-unsplash.jpg,Stimuli/Experimental_stims/faces/leilani-angel-K84vnnzxmTQ-unsplash.jpg,0,0,573,0,chosen,21,14,faces,faces,1200,0,7,2
6,70197,0,7,1,1,1,gain1,no_gain3,F,L,23,17,faces,73,78,faces,Stimuli/Experimental_stims/faces/rikonavt-HQjfrvdTfak-unsplash.jpg,Stimuli/Experimental_stims/faces/good-faces-xmSWVeGEnJw-unsplash.jpg,0,1,974,1,chosen,23,17,faces,faces,2600,0,7,2
7,70197,0,8,1,1,1,gain2,no_gain4,K,G,40,10,objects,45,68,outdoor_scenes,Stimuli/Experimental_stims/objects/fabian-blank-pElSkGRA2NU-unsplash.jpg,Stimuli/Experimental_stims/outdoor_scenes/shannon-kunkle-dM8INmkyDas-unsplash.jpg,0,0,1252,0,chosen,10,40,outdoor_scenes,objects,2000,0,7,2
8,70197,0,9,1,1,0,no_gain5,gain1,D,F,37,35,objects,58,16,body_parts,Stimuli/Experimental_stims/objects/alexander-andrews-VLGWE_SumrA-unsplash.jpg,Stimuli/Experimental_stims/body_parts/wc-so-KH4AAPjb-tI-unsplash.jpg,0,1,1210,0,unchosen,37,35,objects,body_parts,1200,0,7,2
9,70197,0,10,1,1,0,no_gain4,gain3,G,B,10,14,outdoor_scenes,68,84,faces,Stimuli/Experimental_stims/outdoor_scenes/shannon-kunkle-dM8INmkyDas-unsplash.jpg,Stimuli/Experimental_stims/faces/david-siglin-UuW4psOb388-unsplash.jpg,0,1,1066,0,chosen,10,14,outdoor_scenes,faces,3200,1,7,2
10,70197,0,11,1,1,0,no_gain1,gain3,J,B,39,14,objects,66,84,faces,Stimuli/Experimental_stims/objects/charlesdeluvio-1-nx1QR5dTE-unsplash.jpg,Stimuli/Experimental_stims/faces/david-siglin-UuW4psOb388-unsplash.jpg,0,0,1013,1,chosen,14,39,faces,objects,1200,0,7,2
11,70197,0,12,1,1,0,no_gain2,gain1,A,F,3,23,outdoor_scenes,86,73,faces,Stimuli/Experimental_stims/outdoor_scenes/henry-be-NLF6hTe4PAg-unsplash.jpg,Stimuli/Experimental_stims/faces/rikonavt-HQjfrvdTfak-unsplash.jpg,1,NaN,,NaN,chosen,NaN,NaN,NaN,NaN,1800,0,7,2
12,70197,0,13,1,1,1,gain2,no_gain1,K,J,30,13,body_parts,25,62,faces,Stimuli/Experimental_stims/body_parts/mika-korhonen-Xodzxosar18-unsplash.jpg,Stimuli/Experimental_stims/faces/daniel-rigdon-dXmXKPP2L4E-unsplash.jpg,0,0,1138,0,unchosen,13,30,faces,body_parts,1600,0,7,2
13,70197,0,14,1,1,0,no_gain6,gain6,I,E,28,26,body_parts,61,54,body_parts,Stimuli/Experimental_stims/body_parts/ira-vishnevskaya-8DQAvdCby1I-unsplash.jpg,Stimuli/Experimental_stims/body_parts/engin-akyurt-x_3gyC42btc-unsplash.jpg,1,NaN,,NaN,unchosen,NaN,NaN,NaN,NaN,1300,0,7,2
14,70197,0,15,1,1,0,no_gain1,gain5,J,H,13,15,faces,62,40,faces,Stimuli/Experimental_stims/faces/daniel-rigdon-dXmXKPP2L4E-unsplash.jpg,Stimuli/Experimental_stims/faces/erik-lucatero-d2MSDujJl2g-unsplash.jpg,0,1,773,0,unchosen,13,15,faces,faces,1900,0,7,2
15,70197,0,16,1,1,0,no_gain3,gain2,L,K,17,40,faces,78,45,objects,Stimuli/Experimental_stims/faces/good-faces-xmSWVeGEnJw-unsplash.jpg,Stimuli/Experimental_stims/objects/fabian-blank-pElSkGRA2NU-unsplash.jpg,0,0,878,1,chosen,40,17,objects,faces,4100,1,7,2
16,70197,0,17,1,1,1,gain4,no_gain2,C,A,25,38,body_parts,9,34,objects,Stimuli/Experimental_stims/body_parts/engin-akyurt-Q2rfH3GW39c-unsplash.jpg,Stimuli/Experimental_stims/objects/art-lasovsky-8XddFc6NkBY-unsplash.jpg,0,0,825,0,unchosen,38,25,objects,body_parts,1100,0,7,2
17,70197,0,18,1,1,1,gain6,no_gain2,E,A,47,3,objects,24,86,outdoor_scenes,Stimuli/Experimental_stims/objects/ronaldo-arthur-vidal-Cdz_lvnl37k-unsplash.jpg,Stimuli/Experimental_stims/outdoor_scenes/henry-be-NLF6hTe4PAg-unsplash.jpg,0,0,948,0,chosen,3,47,outdoor_scenes,objects,1200,0,7,2
18,70197,0,19,1,1,1,gain5,no_gain4,H,G,15,46,faces,40,63,objects,Stimuli/Experimental_stims/faces/erik-lucatero-d2MSDujJl2g-unsplash.jpg,Stimuli/Experimental_stims/objects/mockup-graphics-PNsj6RiHAF4-unsplash.jpg,1,NaN,,NaN,unchosen,NaN,NaN,NaN,NaN,1400,0,7,2
19,70197,0,20,1,1,0,no_gain4,gain1,G,F,10,23,outdoor_scenes,68,73,faces,Stimuli/Experimental_stims/outdoor_scenes/shannon-kunkle-dM8INmkyDas-unsplash.jpg,Stimuli/Experimental_stims/faces/rikonavt-HQjfrvdTfak-unsplash.jpg,0,0,697,1,chosen,23,10,faces,outdoor_scenes,1300,0,7,2
20,70197,0,21,1,1,1,gain6,no_gain6,E,I,47,6,objects,24,63,outdoor_scenes,Stimuli/Experimental_stims/objects/ronaldo-arthur-vidal-Cdz_lvnl37k-unsplash.jpg,Stimuli/Experimental_stims/outdoor_scenes/meng-ji-8BH_M-53CyA-unsplash.jpg,0,0,759,0,chosen,6,47,outdoor_scenes,objects,4600,1,7,2
21,70197,0,22,1,1,0,no_gain1,gain3,J,B,13,11,faces,62,67,outdoor_scenes,Stimuli/Experimental_stims/faces/daniel-rigdon-dXmXKPP2L4E-unsplash.jpg,Stimuli/Experimental_stims/outdoor_scenes/stephen-leonardi-gyIRjKPXupE-unsplash.jpg,0,0,984,1,unchosen,11,13,outdoor_scenes,faces,1000,0,7,2
22,70197,0,23,1,1,1,gain4,no_gain4,C,G,5,10,outdoor_scenes,87,68,outdoor_scenes,Stimuli/Experimental_stims/outdoor_scenes/jeff-king-bJHWJeiHfHc-unsplash.jpg,Stimuli/Experimental_stims/outdoor_scenes/shannon-kunkle-dM8INmkyDas-unsplash.jpg,0,0,700,0,chosen,10,5,outdoor_scenes,outdoor_scenes,1100,0,7,2
23,70197,0,24,1,1,0,no_gain1,gain4,J,C,13,25,faces,62,9,body_parts,Stimuli/Experimental_stims/faces/daniel-rigdon-dXmXKPP2L4E-unsplash.jpg,Stimuli/Experimental_stims/body_parts/engin-akyurt-Q2rfH3GW39c-unsplash.jpg,0,1,917,0,unchosen,13,25,faces,body_parts,1700,0,7,2
24,70197,0,25,1,1,0,no_gain3,gain5,L,H,33,15,body_parts,62,40,faces,Stimuli/Experimental_stims/body_parts/tucker-good-36skLT5jZcc-unsplash.jpg,Stimuli/Experimental_stims/faces/erik-lucatero-d2MSDujJl2g-unsplash.jpg,0,1,1268,0,unchosen,33,15,body_parts,faces,2800,0,7,2
25,70197,0,26,1,1,1,gain4,no_gain3,C,L,5,17,outdoor_scenes,87,78,faces,Stimuli/Experimental_stims/outdoor_scenes/jeff-king-bJHWJeiHfHc-unsplash.jpg,Stimuli/Experimental_stims/faces/good-faces-xmSWVeGEnJw-unsplash.jpg,0,1,718,1,chosen,5,17,outdoor_scenes,faces,3200,1,7,2
26,70197,0,27,1,1,1,gain5,no_gain6,H,I,4,6,outdoor_scenes,74,63,outdoor_scenes,Stimuli/Experimental_stims/outdoor_scenes/jarrett-kow-1ZOyYPOBn7I-unsplash.jpg,Stimuli/Experimental_stims/outdoor_scenes/meng-ji-8BH_M-53CyA-unsplash.jpg,0,1,739,1,chosen,4,6,outdoor_scenes,outdoor_scenes,2000,0,7,2
27,70197,0,28,1,1,0,no_gain3,gain3,L,B,33,11,body_parts,62,67,outdoor_scenes,Stimuli/Experimental_stims/body_parts/tucker-good-36skLT5jZcc-unsplash.jpg,Stimuli/Experimental_stims/outdoor_scenes/stephen-leonardi-gyIRjKPXupE-unsplash.jpg,1,NaN,,NaN,unchosen,NaN,NaN,NaN,NaN,1600,0,7,2
28,70197,0,29,1,1,1,gain6,no_gain3,E,L,47,17,objects,24,78,faces,Stimuli/Experimental_stims/objects/ronaldo-arthur-vidal-Cdz_lvnl37k-unsplash.jpg,Stimuli/Experimental_stims/faces/good-faces-xmSWVeGEnJw-unsplash.jpg,0,1,740,1,chosen,47,17,objects,faces,1300,0,7,2
29,70197,0,30,1,1,1,gain5,no_gain5,H,D,15,37,faces,40,58,objects,Stimuli/Experimental_stims/faces/erik-lucatero-d2MSDujJl2g-unsplash.jpg,Stimuli/Experimental_stims/objects/alexander-andrews-VLGWE_SumrA-unsplash.jpg,1,NaN,,NaN,unchosen,NaN,NaN,NaN,NaN,1200,0,7,2
30,70197,0,31,1,1,0,no_gain6,gain3,I,B,28,11,body_parts,61,67,outdoor_scenes,Stimuli/Experimental_stims/body_parts/ira-vishnevskaya-8DQAvdCby1I-unsplash.jpg,Stimuli/Experimental_stims/outdoor_scenes/stephen-leonardi-gyIRjKPXupE-unsplash.jpg,0,0,897,1,unchosen,11,28,outdoor_scenes,body_parts,3500,1,7,2
31,70197,0,32,1,1,0,no_gain1,gain1,J,F,39,23,objects,66,73,faces,Stimuli/Experimental_stims/objects/charlesdeluvio-1-nx1QR5dTE-unsplash.jpg,Stimuli/Experimental_stims/faces/rikonavt-HQjfrvdTfak-unsplash.jpg,0,0,645,1,chosen,23,39,faces,objects,1800,0,7,2
32,70197,0,33,1,1,0,no_gain5,gain6,D,E,37,26,objects,58,54,body_parts,Stimuli/Experimental_stims/objects/alexander-andrews-VLGWE_SumrA-unsplash.jpg,Stimuli/Experimental_stims/body_parts/engin-akyurt-x_3gyC42btc-unsplash.jpg,0,1,969,0,unchosen,37,26,objects,body_parts,1600,0,7,2
33,70197,0,34,1,1,0,no_gain1,gain5,J,H,39,4,objects,66,74,outdoor_scenes,Stimuli/Experimental_stims/objects/charlesdeluvio-1-nx1QR5dTE-unsplash.jpg,Stimuli/Experimental_stims/outdoor_scenes/jarrett-kow-1ZOyYPOBn7I-unsplash.jpg,1,NaN,,NaN,chosen,NaN,NaN,NaN,NaN,2000,0,7,2
34,70197,0,35,1,1,0,no_gain5,gain5,D,H,21,4,faces,55,74,outdoor_scenes,Stimuli/Experimental_stims/faces/leilani-angel-K84vnnzxmTQ-unsplash.jpg,Stimuli/Experimental_stims/outdoor_scenes/jarrett-kow-1ZOyYPOBn7I-unsplash.jpg,0,0,1099,1,chosen,4,21,outdoor_scenes,faces,1100,0,7,2
35,70197,0,36,1,1,1,gain1,no_gain2,F,A,35,38,body_parts,16,34,objects,Stimuli/Experimental_stims/body_parts/wc-so-KH4AAPjb-tI-unsplash.jpg,Stimuli/Experimental_stims/objects/art-lasovsky-8XddFc6NkBY-unsplash.jpg,0,0,803,0,unchosen,38,35,objects,body_parts,2800,0,7,2
36,70197,0,37,1,1,0,no_gain2,gain5,A,H,3,4,outdoor_scenes,86,74,outdoor_scenes,Stimuli/Experimental_stims/outdoor_scenes/henry-be-NLF6hTe4PAg-unsplash.jpg,Stimuli/Experimental_stims/outdoor_scenes/jarrett-kow-1ZOyYPOBn7I-unsplash.jpg,1,NaN,,NaN,chosen,NaN,NaN,NaN,NaN,3100,1,7,2
37,70197,0,38,1,1,0,no_gain4,gain2,G,K,46,30,objects,63,25,body_parts,Stimuli/Experimental_stims/objects/mockup-graphics-PNsj6RiHAF4-unsplash.jpg,Stimuli/Experimental_stims/body_parts/mika-korhonen-Xodzxosar18-unsplash.jpg,0,1,1103,0,unchosen,46,30,objects,body_parts,1100,0,7,2
38,70197,0,39,1,1,0,no_gain4,gain1,G,F,46,35,objects,63,16,body_parts,Stimuli/Experimental_stims/objects/mockup-graphics-PNsj6RiHAF4-unsplash.jpg,Stimuli/Experimental_stims/body_parts/wc-so-KH4AAPjb-tI-unsplash.jpg,0,1,1069,0,unchosen,46,35,objects,body_parts,1100,0,7,2
39,70197,0,40,1,1,1,gain2,no_gain1,K,J,40,39,objects,45,66,objects,Stimuli/Experimental_stims/objects/fabian-blank-pElSkGRA2NU-unsplash.jpg,Stimuli/Experimental_stims/objects/charlesdeluvio-1-nx1QR5dTE-unsplash.jpg,1,NaN,,NaN,chosen,NaN,NaN,NaN,NaN,1100,0,7,2
40,70197,0,41,1,1,1,gain2,no_gain5,K,D,30,37,body_parts,25,58,objects,Stimuli/Experimental_stims/body_parts/mika-korhonen-Xodzxosar18-unsplash.jpg,Stimuli/Experimental_stims/objects/alexander-andrews-VLGWE_SumrA-unsplash.jpg,0,1,891,1,unchosen,30,37,body_parts,objects,2300,0,7,2
41,70197,0,42,1,1,1,gain6,no_gain3,E,L,26,33,body_parts,54,62,body_parts,Stimuli/Experimental_stims/body_parts/engin-akyurt-x_3gyC42btc-unsplash.jpg,Stimuli/Experimental_stims/body_parts/tucker-good-36skLT5jZcc-unsplash.jpg,0,1,802,1,unchosen,26,33,body_parts,body_parts,3700,1,7,2
42,70197,0,43,1,1,0,no_gain6,gain5,I,H,28,15,body_parts,61,40,faces,Stimuli/Experimental_stims/body_parts/ira-vishnevskaya-8DQAvdCby1I-unsplash.jpg,Stimuli/Experimental_stims/faces/erik-lucatero-d2MSDujJl2g-unsplash.jpg,0,0,857,1,unchosen,15,28,faces,body_parts,2400,0,7,2
43,70197,0,44,1,1,0,no_gain5,gain6,D,E,21,47,faces,55,24,objects,Stimuli/Experimental_stims/faces/leilani-angel-K84vnnzxmTQ-unsplash.jpg,Stimuli/Experimental_stims/objects/ronaldo-arthur-vidal-Cdz_lvnl37k-unsplash.jpg,0,0,1033,1,chosen,47,21,objects,faces,1400,0,7,2
44,70197,0,45,1,1,0,no_gain2,gain6,A,E,38,26,objects,34,54,body_parts,Stimuli/Experimental_stims/objects/art-lasovsky-8XddFc6NkBY-unsplash.jpg,Stimuli/Experimental_stims/body_parts/engin-akyurt-x_3gyC42btc-unsplash.jpg,0,1,1085,0,unchosen,38,26,objects,body_parts,2500,0,7,2
45,70197,0,46,1,1,1,gain6,no_gain1,E,J,47,39,objects,24,66,objects,Stimuli/Experimental_stims/objects/ronaldo-arthur-vidal-Cdz_lvnl37k-unsplash.jpg,Stimuli/Experimental_stims/objects/charlesdeluvio-1-nx1QR5dTE-unsplash.jpg,0,1,945,1,chosen,47,39,objects,objects,2600,0,7,2
46,70197,0,47,1,1,1,gain2,no_gain2,K,A,40,3,objects,45,86,outdoor_scenes,Stimuli/Experimental_stims/objects/fabian-blank-pElSkGRA2NU-unsplash.jpg,Stimuli/Experimental_stims/outdoor_scenes/henry-be-NLF6hTe4PAg-unsplash.jpg,0,0,887,0,chosen,3,40,outdoor_scenes,objects,1100,0,7,2
47,70197,0,48,1,1,0,no_gain6,gain1,I,F,28,35,body_parts,61,16,body_parts,Stimuli/Experimental_stims/body_parts/ira-vishnevskaya-8DQAvdCby1I-unsplash.jpg,Stimuli/Experimental_stims/body_parts/wc-so-KH4AAPjb-tI-unsplash.jpg,0,1,1407,0,unchosen,28,35,body_parts,body_parts,4800,1,7,2
48,70197,0,49,1,1,1,gain4,no_gain3,C,L,25,33,body_parts,9,62,body_parts,Stimuli/Experimental_stims/body_parts/engin-akyurt-Q2rfH3GW39c-unsplash.jpg,Stimuli/Experimental_stims/body_parts/tucker-good-36skLT5jZcc-unsplash.jpg,1,NaN,,NaN,unchosen,NaN,NaN,NaN,NaN,1600,0,7,2
49,70197,0,50,1,1,1,gain6,no_gain4,E,G,47,10,objects,24,68,outdoor_scenes,Stimuli/Experimental_stims/objects/ronaldo-arthur-vidal-Cdz_lvnl37k-unsplash.jpg,Stimuli/Experimental_stims/outdoor_scenes/shannon-kunkle-dM8INmkyDas-unsplash.jpg,0,0,574,0,chosen,10,47,outdoor_scenes,objects,2800,0,7,2
50,70197,0,51,1,1,1,gain1,no_gain3,F,L,35,33,body_parts,16,62,body_parts,Stimuli/Experimental_stims/body_parts/wc-so-KH4AAPjb-tI-unsplash.jpg,Stimuli/Experimental_stims/body_parts/tucker-good-36skLT5jZcc-unsplash.jpg,0,0,785,0,unchosen,33,35,body_parts,body_parts,2300,0,7,2
51,70197,0,52,1,1,1,gain3,no_gain5,B,D,11,37,outdoor_scenes,67,58,objects,Stimuli/Experimental_stims/outdoor_scenes/stephen-leonardi-gyIRjKPXupE-unsplash.jpg,Stimuli/Experimental_stims/objects/alexander-andrews-VLGWE_SumrA-unsplash.jpg,1,NaN,,NaN,unchosen,NaN,NaN,NaN,NaN,2400,0,7,2
52,70197,0,53,1,1,1,gain4,no_gain4,C,G,25,46,body_parts,9,63,objects,Stimuli/Experimental_stims/body_parts/engin-akyurt-Q2rfH3GW39c-unsplash.jpg,Stimuli/Experimental_stims/objects/mockup-graphics-PNsj6RiHAF4-unsplash.jpg,0,0,666,0,unchosen,46,25,objects,body_parts,1800,0,7,2
53,70197,0,54,1,1,0,no_gain6,gain1,I,F,6,23,outdoor_scenes,63,73,faces,Stimuli/Experimental_stims/outdoor_scenes/meng-ji-8BH_M-53CyA-unsplash.jpg,Stimuli/Experimental_stims/faces/rikonavt-HQjfrvdTfak-unsplash.jpg,0,0,857,1,chosen,23,6,faces,outdoor_scenes,1500,0,7,2
54,70197,0,55,1,1,1,gain6,no_gain4,E,G,26,46,body_parts,54,63,objects,Stimuli/Experimental_stims/body_parts/engin-akyurt-x_3gyC42btc-unsplash.jpg,Stimuli/Experimental_stims/objects/mockup-graphics-PNsj6RiHAF4-unsplash.jpg,0,0,1277,0,unchosen,46,26,objects,body_parts,1900,0,7,2
55,70197,0,56,1,1,1,gain3,no_gain2,B,A,11,38,outdoor_scenes,67,34,objects,Stimuli/Experimental_stims/outdoor_scenes/stephen-leonardi-gyIRjKPXupE-unsplash.jpg,Stimuli/Experimental_stims/objects/art-lasovsky-8XddFc6NkBY-unsplash.jpg,0,0,870,0,unchosen,38,11,objects,outdoor_scenes,1100,0,7,2
56,70197,0,57,1,1,0,no_gain2,gain2,A,K,38,30,objects,34,25,body_parts,Stimuli/Experimental_stims/objects/art-lasovsky-8XddFc6NkBY-unsplash.jpg,Stimuli/Experimental_stims/body_parts/mika-korhonen-Xodzxosar18-unsplash.jpg,1,NaN,,NaN,unchosen,NaN,NaN,NaN,NaN,1700,0,7,2
57,70197,0,58,1,1,1,gain5,no_gain3,H,L,4,17,outdoor_scenes,74,78,faces,Stimuli/Experimental_stims/outdoor_scenes/jarrett-kow-1ZOyYPOBn7I-unsplash.jpg,Stimuli/Experimental_stims/faces/good-faces-xmSWVeGEnJw-unsplash.jpg,0,1,1118,1,chosen,4,17,outdoor_scenes,faces,1600,0,7,2
58,70197,0,59,1,1,1,gain6,no_gain1,E,J,26,13,body_parts,54,62,faces,Stimuli/Experimental_stims/body_parts/engin-akyurt-x_3gyC42btc-unsplash.jpg,Stimuli/Experimental_stims/faces/daniel-rigdon-dXmXKPP2L4E-unsplash.jpg,0,0,937,0,unchosen,13,26,faces,body_parts,1700,0,7,2
59,70197,0,60,1,1,0,no_gain5,gain4,D,C,21,5,faces,55,87,outdoor_scenes,Stimuli/Experimental_stims/faces/leilani-angel-K84vnnzxmTQ-unsplash.jpg,Stimuli/Experimental_stims/outdoor_scenes/jeff-king-bJHWJeiHfHc-unsplash.jpg,0,0,989,1,chosen,5,21,outdoor_scenes,faces,3000,0,7,2
60,70197,0,61,1,1,1,gain3,no_gain6,B,I,14,6,faces,84,63,outdoor_scenes,Stimuli/Experimental_stims/faces/david-siglin-UuW4psOb388-unsplash.jpg,Stimuli/Experimental_stims/outdoor_scenes/meng-ji-8BH_M-53CyA-unsplash.jpg,0,0,714,0,chosen,6,14,outdoor_scenes,faces,2100,0,7,2
61,70197,0,62,1,1,1,gain5,no_gain2,H,A,15,38,faces,40,34,objects,Stimuli/Experimental_stims/faces/erik-lucatero-d2MSDujJl2g-unsplash.jpg,Stimuli/Experimental_stims/objects/art-lasovsky-8XddFc6NkBY-unsplash.jpg,1,NaN,,NaN,unchosen,NaN,NaN,NaN,NaN,3200,1,7,2
62,70197,0,63,1,1,1,gain1,no_gain5,F,D,23,21,faces,73,55,faces,Stimuli/Experimental_stims/faces/rikonavt-HQjfrvdTfak-unsplash.jpg,Stimuli/Experimental_stims/faces/leilani-angel-K84vnnzxmTQ-unsplash.jpg,0,0,684,0,chosen,21,23,faces,faces,1600,0,7,2
63,70197,0,64,1,1,0,no_gain2,gain4,A,C,3,5,outdoor_scenes,86,87,outdoor_scenes,Stimuli/Experimental_stims/outdoor_scenes/henry-be-NLF6hTe4PAg-unsplash.jpg,Stimuli/Experimental_stims/outdoor_scenes/jeff-king-bJHWJeiHfHc-unsplash.jpg,0,0,934,1,chosen,5,3,outdoor_scenes,outdoor_scenes,1300,0,7,2
64,70197,0,65,1,1,0,no_gain1,gain1,J,F,13,35,faces,62,16,body_parts,Stimuli/Experimental_stims/faces/daniel-rigdon-dXmXKPP2L4E-unsplash.jpg,Stimuli/Experimental_stims/body_parts/wc-so-KH4AAPjb-tI-unsplash.jpg,1,NaN,,NaN,unchosen,NaN,NaN,NaN,NaN,1800,0,7,2
65,70197,0,66,1,1,0,no_gain1,gain4,J,C,39,5,objects,66,87,outdoor_scenes,Stimuli/Experimental_stims/objects/charlesdeluvio-1-nx1QR5dTE-unsplash.jpg,Stimuli/Experimental_stims/outdoor_scenes/jeff-king-bJHWJeiHfHc-unsplash.jpg,0,0,580,1,chosen,5,39,outdoor_scenes,objects,1400,0,7,2
66,70197,0,67,1,1,0,no_gain3,gain3,L,B,17,14,faces,78,84,faces,Stimuli/Experimental_stims/faces/good-faces-xmSWVeGEnJw-unsplash.jpg,Stimuli/Experimental_stims/faces/david-siglin-UuW4psOb388-unsplash.jpg,0,0,973,1,chosen,14,17,faces,faces,1500,0,7,2
67,70197,0,68,1,1,0,no_gain6,gain2,I,K,6,40,outdoor_scenes,63,45,objects,Stimuli/Experimental_stims/outdoor_scenes/meng-ji-8BH_M-53CyA-unsplash.jpg,Stimuli/Experimental_stims/objects/fabian-blank-pElSkGRA2NU-unsplash.jpg,0,0,700,1,chosen,40,6,objects,outdoor_scenes,1100,0,7,2
68,70197,0,69,1,1,0,no_gain6,gain4,I,C,28,25,body_parts,61,9,body_parts,Stimuli/Experimental_stims/body_parts/ira-vishnevskaya-8DQAvdCby1I-unsplash.jpg,Stimuli/Experimental_stims/body_parts/engin-akyurt-Q2rfH3GW39c-unsplash.jpg,0,1,961,0,unchosen,28,25,body_parts,body_parts,4300,1,7,2
69,70197,0,70,1,1,0,no_gain2,gain3,A,B,3,14,outdoor_scenes,86,84,faces,Stimuli/Experimental_stims/outdoor_scenes/henry-be-NLF6hTe4PAg-unsplash.jpg,Stimuli/Experimental_stims/faces/david-siglin-UuW4psOb388-unsplash.jpg,0,0,787,1,chosen,14,3,faces,outdoor_scenes,1100,0,7,2
70,70197,0,71,1,1,1,gain2,no_gain5,K,D,40,21,objects,45,55,faces,Stimuli/Experimental_stims/objects/fabian-blank-pElSkGRA2NU-unsplash.jpg,Stimuli/Experimental_stims/faces/leilani-angel-K84vnnzxmTQ-unsplash.jpg,0,1,885,1,chosen,40,21,objects,faces,1300,0,7,2
71,70197,0,72,1,1,1,gain2,no_gain6,K,I,30,28,body_parts,25,61,body_parts,Stimuli/Experimental_stims/body_parts/mika-korhonen-Xodzxosar18-unsplash.jpg,Stimuli/Experimental_stims/body_parts/ira-vishnevskaya-8DQAvdCby1I-unsplash.jpg,0,1,931,1,unchosen,30,28,body_parts,body_parts,2000,0,7,2
72,70197,0,73,1,1,0,no_gain4,gain3,G,B,46,11,objects,63,67,outdoor_scenes,Stimuli/Experimental_stims/objects/mockup-graphics-PNsj6RiHAF4-unsplash.jpg,Stimuli/Experimental_stims/outdoor_scenes/stephen-leonardi-gyIRjKPXupE-unsplash.jpg,0,0,921,1,unchosen,11,46,outdoor_scenes,objects,1900,0,7,2
73,70197,0,74,1,1,0,no_gain4,gain5,G,H,10,4,outdoor_scenes,68,74,outdoor_scenes,Stimuli/Experimental_stims/outdoor_scenes/shannon-kunkle-dM8INmkyDas-unsplash.jpg,Stimuli/Experimental_stims/outdoor_scenes/jarrett-kow-1ZOyYPOBn7I-unsplash.jpg,0,0,814,1,chosen,4,10,outdoor_scenes,outdoor_scenes,2200,0,7,2
74,70197,0,75,1,1,1,gain4,no_gain6,C,I,5,6,outdoor_scenes,87,63,outdoor_scenes,Stimuli/Experimental_stims/outdoor_scenes/jeff-king-bJHWJeiHfHc-unsplash.jpg,Stimuli/Experimental_stims/outdoor_scenes/meng-ji-8BH_M-53CyA-unsplash.jpg,0,0,895,0,chosen,6,5,outdoor_scenes,outdoor_scenes,1000,0,7,2
75,70197,0,76,1,1,1,gain4,no_gain5,C,D,25,37,body_parts,9,58,objects,Stimuli/Experimental_stims/body_parts/engin-akyurt-Q2rfH3GW39c-unsplash.jpg,Stimuli/Experimental_stims/objects/alexander-andrews-VLGWE_SumrA-unsplash.jpg,0,0,801,0,unchosen,37,25,objects,body_parts,1100,0,7,2
76,70197,0,77,2,2,1,gain6,no_gain3,E,L,26,33,body_parts,54,62,body_parts,Stimuli/Experimental_stims/body_parts/engin-akyurt-x_3gyC42btc-unsplash.jpg,Stimuli/Experimental_stims/body_parts/tucker-good-36skLT5jZcc-unsplash.jpg,0,0,671,0,unchosen,33,26,body_parts,body_parts,3800,1,10,2
77,70197,0,78,2,2,1,gain6,no_gain4,E,G,47,10,objects,24,68,outdoor_scenes,Stimuli/Experimental_stims/objects/ronaldo-arthur-vidal-Cdz_lvnl37k-unsplash.jpg,Stimuli/Experimental_stims/outdoor_scenes/shannon-kunkle-dM8INmkyDas-unsplash.jpg,0,1,788,1,chosen,47,10,objects,outdoor_scenes,2000,0,10,2
78,70197,0,79,2,2,1,gain3,no_gain1,B,J,14,39,faces,84,66,objects,Stimuli/Experimental_stims/faces/david-siglin-UuW4psOb388-unsplash.jpg,Stimuli/Experimental_stims/objects/charlesdeluvio-1-nx1QR5dTE-unsplash.jpg,1,NaN,,NaN,chosen,NaN,NaN,NaN,NaN,3000,0,10,2
79,70197,0,80,2,2,1,gain4,no_gain3,C,L,25,33,body_parts,9,62,body_parts,Stimuli/Experimental_stims/body_parts/engin-akyurt-Q2rfH3GW39c-unsplash.jpg,Stimuli/Experimental_stims/body_parts/tucker-good-36skLT5jZcc-unsplash.jpg,0,0,1447,0,unchosen,33,25,body_parts,body_parts,1400,0,10,2
80,70197,0,81,2,2,1,gain6,no_gain6,E,I,47,6,objects,24,63,outdoor_scenes,Stimuli/Experimental_stims/objects/ronaldo-arthur-vidal-Cdz_lvnl37k-unsplash.jpg,Stimuli/Experimental_stims/outdoor_scenes/meng-ji-8BH_M-53CyA-unsplash.jpg,0,0,814,0,chosen,6,47,outdoor_scenes,objects,2900,0,10,2
81,70197,0,82,2,2,1,gain2,no_gain1,K,J,40,39,objects,45,66,objects,Stimuli/Experimental_stims/objects/fabian-blank-pElSkGRA2NU-unsplash.jpg,Stimuli/Experimental_stims/objects/charlesdeluvio-1-nx1QR5dTE-unsplash.jpg,1,NaN,,NaN,chosen,NaN,NaN,NaN,NaN,2000,0,10,2
82,70197,0,83,2,2,0,no_gain1,gain3,J,B,13,11,faces,62,67,outdoor_scenes,Stimuli/Experimental_stims/faces/daniel-rigdon-dXmXKPP2L4E-unsplash.jpg,Stimuli/Experimental_stims/outdoor_scenes/stephen-leonardi-gyIRjKPXupE-unsplash.jpg,0,0,860,1,unchosen,11,13,outdoor_scenes,faces,2700,0,10,2
83,70197,0,84,2,2,0,no_gain6,gain2,I,K,6,40,outdoor_scenes,63,45,objects,Stimuli/Experimental_stims/outdoor_scenes/meng-ji-8BH_M-53CyA-unsplash.jpg,Stimuli/Experimental_stims/objects/fabian-blank-pElSkGRA2NU-unsplash.jpg,0,0,580,1,chosen,40,6,objects,outdoor_scenes,3600,1,10,2
84,70197,0,85,2,2,0,no_gain3,gain2,L,K,33,30,body_parts,62,25,body_parts,Stimuli/Experimental_stims/body_parts/tucker-good-36skLT5jZcc-unsplash.jpg,Stimuli/Experimental_stims/body_parts/mika-korhonen-Xodzxosar18-unsplash.jpg,0,0,1173,1,unchosen,30,33,body_parts,body_parts,1300,0,10,2
85,70197,0,86,2,2,1,gain6,no_gain1,E,J,26,13,body_parts,54,62,faces,Stimuli/Experimental_stims/body_parts/engin-akyurt-x_3gyC42btc-unsplash.jpg,Stimuli/Experimental_stims/faces/daniel-rigdon-dXmXKPP2L4E-unsplash.jpg,0,1,730,1,unchosen,26,13,body_parts,faces,3000,0,10,2
86,70197,0,87,2,2,0,no_gain5,gain4,D,C,37,25,objects,58,9,body_parts,Stimuli/Experimental_stims/objects/alexander-andrews-VLGWE_SumrA-unsplash.jpg,Stimuli/Experimental_stims/body_parts/engin-akyurt-Q2rfH3GW39c-unsplash.jpg,0,1,780,0,unchosen,37,25,objects,body_parts,2600,0,10,2
87,70197,0,88,2,2,0,no_gain2,gain3,A,B,3,14,outdoor_scenes,86,84,faces,Stimuli/Experimental_stims/outdoor_scenes/henry-be-NLF6hTe4PAg-unsplash.jpg,Stimuli/Experimental_stims/faces/david-siglin-UuW4psOb388-unsplash.jpg,0,0,680,1,chosen,14,3,faces,outdoor_scenes,1100,0,10,2
88,70197,0,89,2,2,0,no_gain1,gain1,J,F,39,23,objects,66,73,faces,Stimuli/Experimental_stims/objects/charlesdeluvio-1-nx1QR5dTE-unsplash.jpg,Stimuli/Experimental_stims/faces/rikonavt-HQjfrvdTfak-unsplash.jpg,0,0,704,1,chosen,23,39,faces,objects,1400,0,10,2
89,70197,0,90,2,2,0,no_gain5,gain2,D,K,37,30,objects,58,25,body_parts,Stimuli/Experimental_stims/objects/alexander-andrews-VLGWE_SumrA-unsplash.jpg,Stimuli/Experimental_stims/body_parts/mika-korhonen-Xodzxosar18-unsplash.jpg,0,1,935,0,unchosen,37,30,objects,body_parts,1100,0,10,2
90,70197,0,91,2,2,1,gain3,no_gain3,B,L,11,33,outdoor_scenes,67,62,body_parts,Stimuli/Experimental_stims/outdoor_scenes/stephen-leonardi-gyIRjKPXupE-unsplash.jpg,Stimuli/Experimental_stims/body_parts/tucker-good-36skLT5jZcc-unsplash.jpg,0,1,741,1,unchosen,11,33,outdoor_scenes,body_parts,2900,0,10,2
91,70197,0,92,2,2,1,gain5,no_gain4,H,G,4,10,outdoor_scenes,74,68,outdoor_scenes,Stimuli/Experimental_stims/outdoor_scenes/jarrett-kow-1ZOyYPOBn7I-unsplash.jpg,Stimuli/Experimental_stims/outdoor_scenes/shannon-kunkle-dM8INmkyDas-unsplash.jpg,0,0,720,0,chosen,10,4,outdoor_scenes,outdoor_scenes,1600,0,10,2
92,70197,0,93,2,2,1,gain2,no_gain6,K,I,30,28,body_parts,25,61,body_parts,Stimuli/Experimental_stims/body_parts/mika-korhonen-Xodzxosar18-unsplash.jpg,Stimuli/Experimental_stims/body_parts/ira-vishnevskaya-8DQAvdCby1I-unsplash.jpg,0,0,592,0,unchosen,28,30,body_parts,body_parts,1500,0,10,2
93,70197,0,94,2,2,0,no_gain5,gain6,D,E,37,26,objects,58,54,body_parts,Stimuli/Experimental_stims/objects/alexander-andrews-VLGWE_SumrA-unsplash.jpg,Stimuli/Experimental_stims/body_parts/engin-akyurt-x_3gyC42btc-unsplash.jpg,0,0,555,1,unchosen,26,37,body_parts,objects,3800,1,10,2
94,70197,0,95,2,2,0,no_gain6,gain4,I,C,6,5,outdoor_scenes,63,87,outdoor_scenes,Stimuli/Experimental_stims/outdoor_scenes/meng-ji-8BH_M-53CyA-unsplash.jpg,Stimuli/Experimental_stims/outdoor_scenes/jeff-king-bJHWJeiHfHc-unsplash.jpg,0,1,531,0,chosen,6,5,outdoor_scenes,outdoor_scenes,1500,0,10,2
95,70197,0,96,2,2,1,gain5,no_gain2,H,A,15,38,faces,40,34,objects,Stimuli/Experimental_stims/faces/erik-lucatero-d2MSDujJl2g-unsplash.jpg,Stimuli/Experimental_stims/objects/art-lasovsky-8XddFc6NkBY-unsplash.jpg,0,0,699,0,unchosen,38,15,objects,faces,1000,0,10,2
96,70197,0,97,2,2,1,gain4,no_gain4,C,G,25,46,body_parts,9,63,objects,Stimuli/Experimental_stims/body_parts/engin-akyurt-Q2rfH3GW39c-unsplash.jpg,Stimuli/Experimental_stims/objects/mockup-graphics-PNsj6RiHAF4-unsplash.jpg,0,0,671,0,unchosen,46,25,objects,body_parts,1600,0,10,2
97,70197,0,98,2,2,0,no_gain5,gain3,D,B,21,14,faces,55,84,faces,Stimuli/Experimental_stims/faces/leilani-angel-K84vnnzxmTQ-unsplash.jpg,Stimuli/Experimental_stims/faces/david-siglin-UuW4psOb388-unsplash.jpg,0,0,592,1,chosen,14,21,faces,faces,1300,0,10,2
98,70197,0,99,2,2,1,gain2,no_gain4,K,G,40,10,objects,45,68,outdoor_scenes,Stimuli/Experimental_stims/objects/fabian-blank-pElSkGRA2NU-unsplash.jpg,Stimuli/Experimental_stims/outdoor_scenes/shannon-kunkle-dM8INmkyDas-unsplash.jpg,0,0,480,0,chosen,10,40,outdoor_scenes,objects,3500,1,10,2
99,70197,0,100,2,2,0,no_gain2,gain4,A,C,3,5,outdoor_scenes,86,87,outdoor_scenes,Stimuli/Experimental_stims/outdoor_scenes/henry-be-NLF6hTe4PAg-unsplash.jpg,Stimuli/Experimental_stims/outdoor_scenes/jeff-king-bJHWJeiHfHc-unsplash.jpg,0,0,545,1,chosen,5,3,outdoor_scenes,outdoor_scenes,2500,0,10,2
100,70197,0,101,2,2,1,gain5,no_gain6,H,I,15,28,faces,40,61,body_parts,Stimuli/Experimental_stims/faces/erik-lucatero-d2MSDujJl2g-unsplash.jpg,Stimuli/Experimental_stims/body_parts/ira-vishnevskaya-8DQAvdCby1I-unsplash.jpg,0,0,766,0,unchosen,28,15,body_parts,faces,1100,0,10,2
101,70197,0,102,2,2,1,gain3,no_gain3,B,L,14,17,faces,84,78,faces,Stimuli/Experimental_stims/faces/david-siglin-UuW4psOb388-unsplash.jpg,Stimuli/Experimental_stims/faces/good-faces-xmSWVeGEnJw-unsplash.jpg,1,NaN,,NaN,chosen,NaN,NaN,NaN,NaN,1000,0,10,2
102,70197,0,103,2,2,0,no_gain2,gain1,A,F,38,35,objects,34,16,body_parts,Stimuli/Experimental_stims/objects/art-lasovsky-8XddFc6NkBY-unsplash.jpg,Stimuli/Experimental_stims/body_parts/wc-so-KH4AAPjb-tI-unsplash.jpg,0,1,1311,0,unchosen,38,35,objects,body_parts,2100,0,10,2
103,70197,0,104,2,2,1,gain4,no_gain4,C,G,5,10,outdoor_scenes,87,68,outdoor_scenes,Stimuli/Experimental_stims/outdoor_scenes/jeff-king-bJHWJeiHfHc-unsplash.jpg,Stimuli/Experimental_stims/outdoor_scenes/shannon-kunkle-dM8INmkyDas-unsplash.jpg,0,1,615,1,chosen,5,10,outdoor_scenes,outdoor_scenes,1300,0,10,2
104,70197,0,105,2,2,0,no_gain2,gain4,A,C,38,25,objects,34,9,body_parts,Stimuli/Experimental_stims/objects/art-lasovsky-8XddFc6NkBY-unsplash.jpg,Stimuli/Experimental_stims/body_parts/engin-akyurt-Q2rfH3GW39c-unsplash.jpg,0,1,784,0,unchosen,38,25,objects,body_parts,2000,0,10,2
105,70197,0,106,2,2,1,gain5,no_gain1,H,J,4,39,outdoor_scenes,74,66,objects,Stimuli/Experimental_stims/outdoor_scenes/jarrett-kow-1ZOyYPOBn7I-unsplash.jpg,Stimuli/Experimental_stims/objects/charlesdeluvio-1-nx1QR5dTE-unsplash.jpg,0,1,533,1,chosen,4,39,outdoor_scenes,objects,3100,1,10,2
106,70197,0,107,2,2,0,no_gain6,gain3,I,B,28,11,body_parts,61,67,outdoor_scenes,Stimuli/Experimental_stims/body_parts/ira-vishnevskaya-8DQAvdCby1I-unsplash.jpg,Stimuli/Experimental_stims/outdoor_scenes/stephen-leonardi-gyIRjKPXupE-unsplash.jpg,0,0,785,1,unchosen,11,28,outdoor_scenes,body_parts,1400,0,10,2
107,70197,0,108,2,2,1,gain6,no_gain1,E,J,47,39,objects,24,66,objects,Stimuli/Experimental_stims/objects/ronaldo-arthur-vidal-Cdz_lvnl37k-unsplash.jpg,Stimuli/Experimental_stims/objects/charlesdeluvio-1-nx1QR5dTE-unsplash.jpg,0,1,924,1,chosen,47,39,objects,objects,1300,0,10,2
108,70197,0,109,2,2,0,no_gain2,gain5,A,H,3,4,outdoor_scenes,86,74,outdoor_scenes,Stimuli/Experimental_stims/outdoor_scenes/henry-be-NLF6hTe4PAg-unsplash.jpg,Stimuli/Experimental_stims/outdoor_scenes/jarrett-kow-1ZOyYPOBn7I-unsplash.jpg,0,0,1002,1,chosen,4,3,outdoor_scenes,outdoor_scenes,1300,0,10,2
109,70197,0,110,2,2,0,no_gain5,gain5,D,H,37,15,objects,58,40,faces,Stimuli/Experimental_stims/objects/alexander-andrews-VLGWE_SumrA-unsplash.jpg,Stimuli/Experimental_stims/faces/erik-lucatero-d2MSDujJl2g-unsplash.jpg,0,1,827,0,unchosen,37,15,objects,faces,1200,0,10,2
110,70197,0,111,2,2,0,no_gain5,gain1,D,F,37,35,objects,58,16,body_parts,Stimuli/Experimental_stims/objects/alexander-andrews-VLGWE_SumrA-unsplash.jpg,Stimuli/Experimental_stims/body_parts/wc-so-KH4AAPjb-tI-unsplash.jpg,0,1,1100,0,unchosen,37,35,objects,body_parts,1300,0,10,2
111,70197,0,112,2,2,0,no_gain6,gain5,I,H,6,4,outdoor_scenes,63,74,outdoor_scenes,Stimuli/Experimental_stims/outdoor_scenes/meng-ji-8BH_M-53CyA-unsplash.jpg,Stimuli/Experimental_stims/outdoor_scenes/jarrett-kow-1ZOyYPOBn7I-unsplash.jpg,0,0,1180,1,chosen,4,6,outdoor_scenes,outdoor_scenes,1100,0,10,2
112,70197,0,113,2,2,1,gain2,no_gain2,K,A,40,3,objects,45,86,outdoor_scenes,Stimuli/Experimental_stims/objects/fabian-blank-pElSkGRA2NU-unsplash.jpg,Stimuli/Experimental_stims/outdoor_scenes/henry-be-NLF6hTe4PAg-unsplash.jpg,0,0,1202,0,chosen,3,40,outdoor_scenes,objects,1900,0,10,2
113,70197,0,114,2,2,1,gain1,no_gain6,F,I,35,28,body_parts,16,61,body_parts,Stimuli/Experimental_stims/body_parts/wc-so-KH4AAPjb-tI-unsplash.jpg,Stimuli/Experimental_stims/body_parts/ira-vishnevskaya-8DQAvdCby1I-unsplash.jpg,0,0,810,0,unchosen,28,35,body_parts,body_parts,2100,0,10,2
114,70197,0,115,2,2,0,no_gain3,gain5,L,H,33,15,body_parts,62,40,faces,Stimuli/Experimental_stims/body_parts/tucker-good-36skLT5jZcc-unsplash.jpg,Stimuli/Experimental_stims/faces/erik-lucatero-d2MSDujJl2g-unsplash.jpg,0,1,1090,0,unchosen,33,15,body_parts,faces,1400,0,10,2
115,70197,0,116,2,2,1,gain3,no_gain6,B,I,14,6,faces,84,63,outdoor_scenes,Stimuli/Experimental_stims/faces/david-siglin-UuW4psOb388-unsplash.jpg,Stimuli/Experimental_stims/outdoor_scenes/meng-ji-8BH_M-53CyA-unsplash.jpg,0,1,913,1,chosen,14,6,faces,outdoor_scenes,1100,0,10,2
116,70197,0,117,2,2,0,no_gain5,gain5,D,H,21,4,faces,55,74,outdoor_scenes,Stimuli/Experimental_stims/faces/leilani-angel-K84vnnzxmTQ-unsplash.jpg,Stimuli/Experimental_stims/outdoor_scenes/jarrett-kow-1ZOyYPOBn7I-unsplash.jpg,0,0,759,1,chosen,4,21,outdoor_scenes,faces,1600,0,10,2
117,70197,0,118,2,2,1,gain3,no_gain4,B,G,11,46,outdoor_scenes,67,63,objects,Stimuli/Experimental_stims/outdoor_scenes/stephen-leonardi-gyIRjKPXupE-unsplash.jpg,Stimuli/Experimental_stims/objects/mockup-graphics-PNsj6RiHAF4-unsplash.jpg,0,0,666,0,unchosen,46,11,objects,outdoor_scenes,1300,0,10,2
118,70197,0,119,2,2,1,gain4,no_gain1,C,J,5,39,outdoor_scenes,87,66,objects,Stimuli/Experimental_stims/outdoor_scenes/jeff-king-bJHWJeiHfHc-unsplash.jpg,Stimuli/Experimental_stims/objects/charlesdeluvio-1-nx1QR5dTE-unsplash.jpg,0,1,1330,1,chosen,5,39,outdoor_scenes,objects,2500,0,10,2
119,70197,0,120,2,2,0,no_gain4,gain2,G,K,46,30,objects,63,25,body_parts,Stimuli/Experimental_stims/objects/mockup-graphics-PNsj6RiHAF4-unsplash.jpg,Stimuli/Experimental_stims/body_parts/mika-korhonen-Xodzxosar18-unsplash.jpg,0,1,1007,0,unchosen,46,30,objects,body_parts,4300,1,10,2
120,70197,0,121,2,2,0,no_gain3,gain4,L,C,17,5,faces,78,87,outdoor_scenes,Stimuli/Experimental_stims/faces/good-faces-xmSWVeGEnJw-unsplash.jpg,Stimuli/Experimental_stims/outdoor_scenes/jeff-king-bJHWJeiHfHc-unsplash.jpg,0,0,808,1,chosen,5,17,outdoor_scenes,faces,2400,0,10,2
121,70197,0,122,2,2,1,gain1,no_gain4,F,G,35,46,body_parts,16,63,objects,Stimuli/Experimental_stims/body_parts/wc-so-KH4AAPjb-tI-unsplash.jpg,Stimuli/Experimental_stims/objects/mockup-graphics-PNsj6RiHAF4-unsplash.jpg,0,0,593,0,unchosen,46,35,objects,body_parts,1800,0,10,2
122,70197,0,123,2,2,1,gain6,no_gain3,E,L,47,17,objects,24,78,faces,Stimuli/Experimental_stims/objects/ronaldo-arthur-vidal-Cdz_lvnl37k-unsplash.jpg,Stimuli/Experimental_stims/faces/good-faces-xmSWVeGEnJw-unsplash.jpg,0,1,869,1,chosen,47,17,objects,faces,1000,0,10,2
123,70197,0,124,2,2,1,gain5,no_gain1,H,J,15,13,faces,40,62,faces,Stimuli/Experimental_stims/faces/erik-lucatero-d2MSDujJl2g-unsplash.jpg,Stimuli/Experimental_stims/faces/daniel-rigdon-dXmXKPP2L4E-unsplash.jpg,1,NaN,,NaN,unchosen,NaN,NaN,NaN,NaN,2000,0,10,2
124,70197,0,125,2,2,1,gain3,no_gain2,B,A,11,38,outdoor_scenes,67,34,objects,Stimuli/Experimental_stims/outdoor_scenes/stephen-leonardi-gyIRjKPXupE-unsplash.jpg,Stimuli/Experimental_stims/objects/art-lasovsky-8XddFc6NkBY-unsplash.jpg,0,0,1023,0,unchosen,38,11,objects,outdoor_scenes,2700,0,10,2
125,70197,0,126,2,2,0,no_gain2,gain2,A,K,38,30,objects,34,25,body_parts,Stimuli/Experimental_stims/objects/art-lasovsky-8XddFc6NkBY-unsplash.jpg,Stimuli/Experimental_stims/body_parts/mika-korhonen-Xodzxosar18-unsplash.jpg,1,NaN,,NaN,unchosen,NaN,NaN,NaN,NaN,2500,0,10,2
126,70197,0,127,2,2,0,no_gain4,gain1,G,F,10,23,outdoor_scenes,68,73,faces,Stimuli/Experimental_stims/outdoor_scenes/shannon-kunkle-dM8INmkyDas-unsplash.jpg,Stimuli/Experimental_stims/faces/rikonavt-HQjfrvdTfak-unsplash.jpg,1,NaN,,NaN,chosen,NaN,NaN,NaN,NaN,1800,0,10,2
127,70197,0,128,2,2,1,gain4,no_gain6,C,I,25,28,body_parts,9,61,body_parts,Stimuli/Experimental_stims/body_parts/engin-akyurt-Q2rfH3GW39c-unsplash.jpg,Stimuli/Experimental_stims/body_parts/ira-vishnevskaya-8DQAvdCby1I-unsplash.jpg,0,0,1001,0,unchosen,28,25,body_parts,body_parts,1200,0,10,2
128,70197,0,129,2,2,0,no_gain1,gain2,J,K,13,30,faces,62,25,body_parts,Stimuli/Experimental_stims/faces/daniel-rigdon-dXmXKPP2L4E-unsplash.jpg,Stimuli/Experimental_stims/body_parts/mika-korhonen-Xodzxosar18-unsplash.jpg,0,1,1265,0,unchosen,13,30,faces,body_parts,3800,1,10,2
129,70197,0,130,2,2,1,gain1,no_gain6,F,I,23,6,faces,73,63,outdoor_scenes,Stimuli/Experimental_stims/faces/rikonavt-HQjfrvdTfak-unsplash.jpg,Stimuli/Experimental_stims/outdoor_scenes/meng-ji-8BH_M-53CyA-unsplash.jpg,0,0,652,0,chosen,6,23,outdoor_scenes,faces,1300,0,10,2
130,70197,0,131,2,2,1,gain6,no_gain4,E,G,26,46,body_parts,54,63,objects,Stimuli/Experimental_stims/body_parts/engin-akyurt-x_3gyC42btc-unsplash.jpg,Stimuli/Experimental_stims/objects/mockup-graphics-PNsj6RiHAF4-unsplash.jpg,1,NaN,,NaN,unchosen,NaN,NaN,NaN,NaN,2900,0,10,2
131,70197,0,132,2,2,0,no_gain5,gain2,D,K,21,40,faces,55,45,objects,Stimuli/Experimental_stims/faces/leilani-angel-K84vnnzxmTQ-unsplash.jpg,Stimuli/Experimental_stims/objects/fabian-blank-pElSkGRA2NU-unsplash.jpg,0,0,609,1,chosen,40,21,objects,faces,1200,0,10,2
132,70197,0,133,2,2,0,no_gain5,gain6,D,E,21,47,faces,55,24,objects,Stimuli/Experimental_stims/faces/leilani-angel-K84vnnzxmTQ-unsplash.jpg,Stimuli/Experimental_stims/objects/ronaldo-arthur-vidal-Cdz_lvnl37k-unsplash.jpg,0,0,951,1,chosen,47,21,objects,faces,1300,0,10,2
133,70197,0,134,2,2,0,no_gain2,gain6,A,E,38,26,objects,34,54,body_parts,Stimuli/Experimental_stims/objects/art-lasovsky-8XddFc6NkBY-unsplash.jpg,Stimuli/Experimental_stims/body_parts/engin-akyurt-x_3gyC42btc-unsplash.jpg,0,0,756,1,unchosen,26,38,body_parts,objects,2500,0,10,2
134,70197,0,135,2,2,1,gain5,no_gain3,H,L,4,17,outdoor_scenes,74,78,faces,Stimuli/Experimental_stims/outdoor_scenes/jarrett-kow-1ZOyYPOBn7I-unsplash.jpg,Stimuli/Experimental_stims/faces/good-faces-xmSWVeGEnJw-unsplash.jpg,0,1,666,1,chosen,4,17,outdoor_scenes,faces,3000,0,10,2
135,70197,0,136,2,2,1,gain4,no_gain5,C,D,5,21,outdoor_scenes,87,55,faces,Stimuli/Experimental_stims/outdoor_scenes/jeff-king-bJHWJeiHfHc-unsplash.jpg,Stimuli/Experimental_stims/faces/leilani-angel-K84vnnzxmTQ-unsplash.jpg,0,1,615,1,chosen,5,21,outdoor_scenes,faces,4200,1,10,2
136,70197,0,137,2,2,0,no_gain6,gain6,I,E,28,26,body_parts,61,54,body_parts,Stimuli/Experimental_stims/body_parts/ira-vishnevskaya-8DQAvdCby1I-unsplash.jpg,Stimuli/Experimental_stims/body_parts/engin-akyurt-x_3gyC42btc-unsplash.jpg,0,0,797,1,unchosen,26,28,body_parts,body_parts,1700,0,10,2
137,70197,0,138,2,2,0,no_gain3,gain1,L,F,17,23,faces,78,73,faces,Stimuli/Experimental_stims/faces/good-faces-xmSWVeGEnJw-unsplash.jpg,Stimuli/Experimental_stims/faces/rikonavt-HQjfrvdTfak-unsplash.jpg,0,0,771,1,chosen,23,17,faces,faces,1300,0,10,2
138,70197,0,139,2,2,0,no_gain2,gain1,A,F,3,23,outdoor_scenes,86,73,faces,Stimuli/Experimental_stims/outdoor_scenes/henry-be-NLF6hTe4PAg-unsplash.jpg,Stimuli/Experimental_stims/faces/rikonavt-HQjfrvdTfak-unsplash.jpg,0,0,848,1,chosen,23,3,faces,outdoor_scenes,1100,0,10,2
139,70197,0,140,2,2,0,no_gain2,gain6,A,E,3,47,outdoor_scenes,86,24,objects,Stimuli/Experimental_stims/outdoor_scenes/henry-be-NLF6hTe4PAg-unsplash.jpg,Stimuli/Experimental_stims/objects/ronaldo-arthur-vidal-Cdz_lvnl37k-unsplash.jpg,0,0,660,1,chosen,47,3,objects,outdoor_scenes,1300,0,10,2
140,70197,0,141,2,2,1,gain5,no_gain4,H,G,15,46,faces,40,63,objects,Stimuli/Experimental_stims/faces/erik-lucatero-d2MSDujJl2g-unsplash.jpg,Stimuli/Experimental_stims/objects/mockup-graphics-PNsj6RiHAF4-unsplash.jpg,0,0,658,0,unchosen,46,15,objects,faces,1500,0,10,2
141,70197,0,142,2,2,0,no_gain5,gain1,D,F,21,23,faces,55,73,faces,Stimuli/Experimental_stims/faces/leilani-angel-K84vnnzxmTQ-unsplash.jpg,Stimuli/Experimental_stims/faces/rikonavt-HQjfrvdTfak-unsplash.jpg,0,0,529,1,chosen,23,21,faces,faces,1800,0,10,2
142,70197,0,143,2,2,0,no_gain1,gain4,J,C,13,25,faces,62,9,body_parts,Stimuli/Experimental_stims/faces/daniel-rigdon-dXmXKPP2L4E-unsplash.jpg,Stimuli/Experimental_stims/body_parts/engin-akyurt-Q2rfH3GW39c-unsplash.jpg,0,1,797,0,unchosen,13,25,faces,body_parts,1400,0,10,2
143,70197,0,144,2,2,1,gain3,no_gain5,B,D,11,37,outdoor_scenes,67,58,objects,Stimuli/Experimental_stims/outdoor_scenes/stephen-leonardi-gyIRjKPXupE-unsplash.jpg,Stimuli/Experimental_stims/objects/alexander-andrews-VLGWE_SumrA-unsplash.jpg,1,NaN,,NaN,unchosen,NaN,NaN,NaN,NaN,1400,0,10,2
144,70197,0,145,2,2,0,no_gain4,gain3,G,B,10,14,outdoor_scenes,68,84,faces,Stimuli/Experimental_stims/outdoor_scenes/shannon-kunkle-dM8INmkyDas-unsplash.jpg,Stimuli/Experimental_stims/faces/david-siglin-UuW4psOb388-unsplash.jpg,0,0,615,1,chosen,14,10,faces,outdoor_scenes,1600,0,10,2
145,70197,0,146,2,2,1,gain1,no_gain3,F,L,35,33,body_parts,16,62,body_parts,Stimuli/Experimental_stims/body_parts/wc-so-KH4AAPjb-tI-unsplash.jpg,Stimuli/Experimental_stims/body_parts/tucker-good-36skLT5jZcc-unsplash.jpg,0,0,616,0,unchosen,33,35,body_parts,body_parts,2000,0,10,2
146,70197,0,147,2,2,0,no_gain1,gain1,J,F,13,35,faces,62,16,body_parts,Stimuli/Experimental_stims/faces/daniel-rigdon-dXmXKPP2L4E-unsplash.jpg,Stimuli/Experimental_stims/body_parts/wc-so-KH4AAPjb-tI-unsplash.jpg,0,1,747,0,unchosen,13,35,faces,body_parts,2500,0,10,2
147,70197,0,148,2,2,1,gain2,no_gain3,K,L,40,17,objects,45,78,faces,Stimuli/Experimental_stims/objects/fabian-blank-pElSkGRA2NU-unsplash.jpg,Stimuli/Experimental_stims/faces/good-faces-xmSWVeGEnJw-unsplash.jpg,0,1,725,1,chosen,40,17,objects,faces,3300,1,10,2
148,70197,0,149,3,3,0,no_gain1,gain2,J,K,13,30,faces,62,25,body_parts,Stimuli/Experimental_stims/faces/daniel-rigdon-dXmXKPP2L4E-unsplash.jpg,Stimuli/Experimental_stims/body_parts/mika-korhonen-Xodzxosar18-unsplash.jpg,0,0,1385,1,unchosen,30,13,body_parts,faces,2200,0,10,2
149,70197,0,150,3,3,1,gain2,no_gain4,K,G,30,46,body_parts,25,63,objects,Stimuli/Experimental_stims/body_parts/mika-korhonen-Xodzxosar18-unsplash.jpg,Stimuli/Experimental_stims/objects/mockup-graphics-PNsj6RiHAF4-unsplash.jpg,0,0,1048,0,unchosen,46,30,objects,body_parts,1200,0,10,2
150,70197,0,151,3,3,0,no_gain5,gain1,D,F,37,35,objects,58,16,body_parts,Stimuli/Experimental_stims/objects/alexander-andrews-VLGWE_SumrA-unsplash.jpg,Stimuli/Experimental_stims/body_parts/wc-so-KH4AAPjb-tI-unsplash.jpg,0,0,1335,1,unchosen,35,37,body_parts,objects,1700,0,10,2
151,70197,0,152,3,3,0,no_gain6,gain4,I,C,6,5,outdoor_scenes,63,87,outdoor_scenes,Stimuli/Experimental_stims/outdoor_scenes/meng-ji-8BH_M-53CyA-unsplash.jpg,Stimuli/Experimental_stims/outdoor_scenes/jeff-king-bJHWJeiHfHc-unsplash.jpg,0,0,573,1,chosen,5,6,outdoor_scenes,outdoor_scenes,1100,0,10,2
152,70197,0,153,3,3,0,no_gain1,gain3,J,B,39,14,objects,66,84,faces,Stimuli/Experimental_stims/objects/charlesdeluvio-1-nx1QR5dTE-unsplash.jpg,Stimuli/Experimental_stims/faces/david-siglin-UuW4psOb388-unsplash.jpg,0,0,669,1,chosen,14,39,faces,objects,1000,0,10,2
153,70197,0,154,3,3,1,gain4,no_gain3,C,L,25,33,body_parts,9,62,body_parts,Stimuli/Experimental_stims/body_parts/engin-akyurt-Q2rfH3GW39c-unsplash.jpg,Stimuli/Experimental_stims/body_parts/tucker-good-36skLT5jZcc-unsplash.jpg,0,0,1268,0,unchosen,33,25,body_parts,body_parts,1900,0,10,2
154,70197,0,155,3,3,1,gain3,no_gain3,B,L,11,33,outdoor_scenes,67,62,body_parts,Stimuli/Experimental_stims/outdoor_scenes/stephen-leonardi-gyIRjKPXupE-unsplash.jpg,Stimuli/Experimental_stims/body_parts/tucker-good-36skLT5jZcc-unsplash.jpg,0,0,941,0,unchosen,33,11,body_parts,outdoor_scenes,4700,1,10,2
155,70197,0,156,3,3,1,gain5,no_gain5,H,D,4,21,outdoor_scenes,74,55,faces,Stimuli/Experimental_stims/outdoor_scenes/jarrett-kow-1ZOyYPOBn7I-unsplash.jpg,Stimuli/Experimental_stims/faces/leilani-angel-K84vnnzxmTQ-unsplash.jpg,1,NaN,,NaN,chosen,NaN,NaN,NaN,NaN,2400,0,10,2
156,70197,0,157,3,3,1,gain6,no_gain3,E,L,26,33,body_parts,54,62,body_parts,Stimuli/Experimental_stims/body_parts/engin-akyurt-x_3gyC42btc-unsplash.jpg,Stimuli/Experimental_stims/body_parts/tucker-good-36skLT5jZcc-unsplash.jpg,0,1,821,1,unchosen,26,33,body_parts,body_parts,1900,0,10,2
157,70197,0,158,3,3,1,gain1,no_gain4,F,G,23,10,faces,73,68,outdoor_scenes,Stimuli/Experimental_stims/faces/rikonavt-HQjfrvdTfak-unsplash.jpg,Stimuli/Experimental_stims/outdoor_scenes/shannon-kunkle-dM8INmkyDas-unsplash.jpg,0,1,844,1,chosen,23,10,faces,outdoor_scenes,1000,0,10,2
158,70197,0,159,3,3,0,no_gain2,gain6,A,E,3,47,outdoor_scenes,86,24,objects,Stimuli/Experimental_stims/outdoor_scenes/henry-be-NLF6hTe4PAg-unsplash.jpg,Stimuli/Experimental_stims/objects/ronaldo-arthur-vidal-Cdz_lvnl37k-unsplash.jpg,0,1,988,0,chosen,3,47,outdoor_scenes,objects,1800,0,10,2
159,70197,0,160,3,3,1,gain4,no_gain4,C,G,25,46,body_parts,9,63,objects,Stimuli/Experimental_stims/body_parts/engin-akyurt-Q2rfH3GW39c-unsplash.jpg,Stimuli/Experimental_stims/objects/mockup-graphics-PNsj6RiHAF4-unsplash.jpg,0,0,706,0,unchosen,46,25,objects,body_parts,1800,0,10,2
160,70197,0,161,3,3,0,no_gain4,gain3,G,B,46,11,objects,63,67,outdoor_scenes,Stimuli/Experimental_stims/objects/mockup-graphics-PNsj6RiHAF4-unsplash.jpg,Stimuli/Experimental_stims/outdoor_scenes/stephen-leonardi-gyIRjKPXupE-unsplash.jpg,0,0,855,1,unchosen,11,46,outdoor_scenes,objects,4700,1,10,2
161,70197,0,162,3,3,0,no_gain1,gain4,J,C,13,25,faces,62,9,body_parts,Stimuli/Experimental_stims/faces/daniel-rigdon-dXmXKPP2L4E-unsplash.jpg,Stimuli/Experimental_stims/body_parts/engin-akyurt-Q2rfH3GW39c-unsplash.jpg,0,1,666,0,unchosen,13,25,faces,body_parts,1300,0,10,2
162,70197,0,163,3,3,1,gain2,no_gain5,K,D,40,21,objects,45,55,faces,Stimuli/Experimental_stims/objects/fabian-blank-pElSkGRA2NU-unsplash.jpg,Stimuli/Experimental_stims/faces/leilani-angel-K84vnnzxmTQ-unsplash.jpg,0,1,1306,1,chosen,40,21,objects,faces,1200,0,10,2
163,70197,0,164,3,3,0,no_gain3,gain4,L,C,17,5,faces,78,87,outdoor_scenes,Stimuli/Experimental_stims/faces/good-faces-xmSWVeGEnJw-unsplash.jpg,Stimuli/Experimental_stims/outdoor_scenes/jeff-king-bJHWJeiHfHc-unsplash.jpg,0,0,923,1,chosen,5,17,outdoor_scenes,faces,1600,0,10,2
164,70197,0,165,3,3,0,no_gain2,gain5,A,H,38,15,objects,34,40,faces,Stimuli/Experimental_stims/objects/art-lasovsky-8XddFc6NkBY-unsplash.jpg,Stimuli/Experimental_stims/faces/erik-lucatero-d2MSDujJl2g-unsplash.jpg,0,1,789,0,unchosen,38,15,objects,faces,1200,0,10,2
165,70197,0,166,3,3,1,gain6,no_gain5,E,D,26,37,body_parts,54,58,objects,Stimuli/Experimental_stims/body_parts/engin-akyurt-x_3gyC42btc-unsplash.jpg,Stimuli/Experimental_stims/objects/alexander-andrews-VLGWE_SumrA-unsplash.jpg,0,1,1116,1,unchosen,26,37,body_parts,objects,1100,0,10,2
166,70197,0,167,3,3,0,no_gain6,gain3,I,B,6,14,outdoor_scenes,63,84,faces,Stimuli/Experimental_stims/outdoor_scenes/meng-ji-8BH_M-53CyA-unsplash.jpg,Stimuli/Experimental_stims/faces/david-siglin-UuW4psOb388-unsplash.jpg,1,NaN,,NaN,chosen,NaN,NaN,NaN,NaN,3100,1,10,2
167,70197,0,168,3,3,0,no_gain5,gain3,D,B,37,11,objects,58,67,outdoor_scenes,Stimuli/Experimental_stims/objects/alexander-andrews-VLGWE_SumrA-unsplash.jpg,Stimuli/Experimental_stims/outdoor_scenes/stephen-leonardi-gyIRjKPXupE-unsplash.jpg,0,0,1370,1,unchosen,11,37,outdoor_scenes,objects,1500,0,10,2
168,70197,0,169,3,3,0,no_gain4,gain3,G,B,10,14,outdoor_scenes,68,84,faces,Stimuli/Experimental_stims/outdoor_scenes/shannon-kunkle-dM8INmkyDas-unsplash.jpg,Stimuli/Experimental_stims/faces/david-siglin-UuW4psOb388-unsplash.jpg,0,0,957,1,chosen,14,10,faces,outdoor_scenes,1000,0,10,2
169,70197,0,170,3,3,0,no_gain5,gain2,D,K,37,30,objects,58,25,body_parts,Stimuli/Experimental_stims/objects/alexander-andrews-VLGWE_SumrA-unsplash.jpg,Stimuli/Experimental_stims/body_parts/mika-korhonen-Xodzxosar18-unsplash.jpg,0,0,1397,1,unchosen,30,37,body_parts,objects,1500,0,10,2
170,70197,0,171,3,3,0,no_gain3,gain2,L,K,17,40,faces,78,45,objects,Stimuli/Experimental_stims/faces/good-faces-xmSWVeGEnJw-unsplash.jpg,Stimuli/Experimental_stims/objects/fabian-blank-pElSkGRA2NU-unsplash.jpg,0,0,1138,1,chosen,40,17,objects,faces,1400,0,10,2
171,70197,0,172,3,3,1,gain1,no_gain2,F,A,23,3,faces,73,86,outdoor_scenes,Stimuli/Experimental_stims/faces/rikonavt-HQjfrvdTfak-unsplash.jpg,Stimuli/Experimental_stims/outdoor_scenes/henry-be-NLF6hTe4PAg-unsplash.jpg,1,NaN,,NaN,chosen,NaN,NaN,NaN,NaN,3500,1,10,2
172,70197,0,173,3,3,0,no_gain4,gain2,G,K,10,40,outdoor_scenes,68,45,objects,Stimuli/Experimental_stims/outdoor_scenes/shannon-kunkle-dM8INmkyDas-unsplash.jpg,Stimuli/Experimental_stims/objects/fabian-blank-pElSkGRA2NU-unsplash.jpg,0,0,950,1,chosen,40,10,objects,outdoor_scenes,1600,0,10,2
173,70197,0,174,3,3,0,no_gain4,gain5,G,H,46,15,objects,63,40,faces,Stimuli/Experimental_stims/objects/mockup-graphics-PNsj6RiHAF4-unsplash.jpg,Stimuli/Experimental_stims/faces/erik-lucatero-d2MSDujJl2g-unsplash.jpg,1,NaN,,NaN,unchosen,NaN,NaN,NaN,NaN,2200,0,10,2
174,70197,0,175,3,3,0,no_gain3,gain2,L,K,33,30,body_parts,62,25,body_parts,Stimuli/Experimental_stims/body_parts/tucker-good-36skLT5jZcc-unsplash.jpg,Stimuli/Experimental_stims/body_parts/mika-korhonen-Xodzxosar18-unsplash.jpg,0,0,1371,1,unchosen,30,33,body_parts,body_parts,1200,0,10,2
175,70197,0,176,3,3,1,gain2,no_gain2,K,A,30,38,body_parts,25,34,objects,Stimuli/Experimental_stims/body_parts/mika-korhonen-Xodzxosar18-unsplash.jpg,Stimuli/Experimental_stims/objects/art-lasovsky-8XddFc6NkBY-unsplash.jpg,1,NaN,,NaN,unchosen,NaN,NaN,NaN,NaN,1900,0,10,2
176,70197,0,177,3,3,0,no_gain6,gain5,I,H,6,4,outdoor_scenes,63,74,outdoor_scenes,Stimuli/Experimental_stims/outdoor_scenes/meng-ji-8BH_M-53CyA-unsplash.jpg,Stimuli/Experimental_stims/outdoor_scenes/jarrett-kow-1ZOyYPOBn7I-unsplash.jpg,0,0,574,1,chosen,4,6,outdoor_scenes,outdoor_scenes,2000,0,10,2
177,70197,0,178,3,3,1,gain6,no_gain1,E,J,47,39,objects,24,66,objects,Stimuli/Experimental_stims/objects/ronaldo-arthur-vidal-Cdz_lvnl37k-unsplash.jpg,Stimuli/Experimental_stims/objects/charlesdeluvio-1-nx1QR5dTE-unsplash.jpg,1,NaN,,NaN,chosen,NaN,NaN,NaN,NaN,1800,0,10,2
178,70197,0,179,3,3,0,no_gain1,gain2,J,K,39,40,objects,66,45,objects,Stimuli/Experimental_stims/objects/charlesdeluvio-1-nx1QR5dTE-unsplash.jpg,Stimuli/Experimental_stims/objects/fabian-blank-pElSkGRA2NU-unsplash.jpg,0,0,1083,1,chosen,40,39,objects,objects,2200,0,10,2
179,70197,0,180,3,3,0,no_gain2,gain3,A,B,38,11,objects,34,67,outdoor_scenes,Stimuli/Experimental_stims/objects/art-lasovsky-8XddFc6NkBY-unsplash.jpg,Stimuli/Experimental_stims/outdoor_scenes/stephen-leonardi-gyIRjKPXupE-unsplash.jpg,0,0,1363,1,unchosen,11,38,outdoor_scenes,objects,2300,0,10,2
180,70197,0,181,3,3,1,gain6,no_gain3,E,L,47,17,objects,24,78,faces,Stimuli/Experimental_stims/objects/ronaldo-arthur-vidal-Cdz_lvnl37k-unsplash.jpg,Stimuli/Experimental_stims/faces/good-faces-xmSWVeGEnJw-unsplash.jpg,1,NaN,,NaN,chosen,NaN,NaN,NaN,NaN,4300,1,10,2
181,70197,0,182,3,3,1,gain5,no_gain3,H,L,4,17,outdoor_scenes,74,78,faces,Stimuli/Experimental_stims/outdoor_scenes/jarrett-kow-1ZOyYPOBn7I-unsplash.jpg,Stimuli/Experimental_stims/faces/good-faces-xmSWVeGEnJw-unsplash.jpg,0,1,1391,1,chosen,4,17,outdoor_scenes,faces,1600,0,10,2
182,70197,0,183,3,3,0,no_gain2,gain4,A,C,38,25,objects,34,9,body_parts,Stimuli/Experimental_stims/objects/art-lasovsky-8XddFc6NkBY-unsplash.jpg,Stimuli/Experimental_stims/body_parts/engin-akyurt-Q2rfH3GW39c-unsplash.jpg,0,1,1239,0,unchosen,38,25,objects,body_parts,1600,0,10,2
183,70197,0,184,3,3,1,gain3,no_gain1,B,J,11,13,outdoor_scenes,67,62,faces,Stimuli/Experimental_stims/outdoor_scenes/stephen-leonardi-gyIRjKPXupE-unsplash.jpg,Stimuli/Experimental_stims/faces/daniel-rigdon-dXmXKPP2L4E-unsplash.jpg,1,NaN,,NaN,unchosen,NaN,NaN,NaN,NaN,1100,0,10,2
184,70197,0,185,3,3,1,gain6,no_gain6,E,I,47,6,objects,24,63,outdoor_scenes,Stimuli/Experimental_stims/objects/ronaldo-arthur-vidal-Cdz_lvnl37k-unsplash.jpg,Stimuli/Experimental_stims/outdoor_scenes/meng-ji-8BH_M-53CyA-unsplash.jpg,0,1,1208,1,chosen,47,6,objects,outdoor_scenes,1000,0,10,2
185,70197,0,186,3,3,0,no_gain1,gain5,J,H,39,4,objects,66,74,outdoor_scenes,Stimuli/Experimental_stims/objects/charlesdeluvio-1-nx1QR5dTE-unsplash.jpg,Stimuli/Experimental_stims/outdoor_scenes/jarrett-kow-1ZOyYPOBn7I-unsplash.jpg,1,NaN,,NaN,chosen,NaN,NaN,NaN,NaN,1000,0,10,2
186,70197,0,187,3,3,0,no_gain1,gain5,J,H,13,15,faces,62,40,faces,Stimuli/Experimental_stims/faces/daniel-rigdon-dXmXKPP2L4E-unsplash.jpg,Stimuli/Experimental_stims/faces/erik-lucatero-d2MSDujJl2g-unsplash.jpg,1,NaN,,NaN,unchosen,NaN,NaN,NaN,NaN,3000,1,10,2
187,70197,0,188,3,3,1,gain4,no_gain1,C,J,5,39,outdoor_scenes,87,66,objects,Stimuli/Experimental_stims/outdoor_scenes/jeff-king-bJHWJeiHfHc-unsplash.jpg,Stimuli/Experimental_stims/objects/charlesdeluvio-1-nx1QR5dTE-unsplash.jpg,0,0,532,0,chosen,39,5,objects,outdoor_scenes,1000,0,10,2
188,70197,0,189,3,3,1,gain3,no_gain3,B,L,14,17,faces,84,78,faces,Stimuli/Experimental_stims/faces/david-siglin-UuW4psOb388-unsplash.jpg,Stimuli/Experimental_stims/faces/good-faces-xmSWVeGEnJw-unsplash.jpg,0,1,824,1,chosen,14,17,faces,faces,1600,0,10,2
189,70197,0,190,3,3,0,no_gain2,gain5,A,H,3,4,outdoor_scenes,86,74,outdoor_scenes,Stimuli/Experimental_stims/outdoor_scenes/henry-be-NLF6hTe4PAg-unsplash.jpg,Stimuli/Experimental_stims/outdoor_scenes/jarrett-kow-1ZOyYPOBn7I-unsplash.jpg,0,1,872,0,chosen,3,4,outdoor_scenes,outdoor_scenes,1500,0,10,2
190,70197,0,191,3,3,0,no_gain1,gain6,J,E,13,26,faces,62,54,body_parts,Stimuli/Experimental_stims/faces/daniel-rigdon-dXmXKPP2L4E-unsplash.jpg,Stimuli/Experimental_stims/body_parts/engin-akyurt-x_3gyC42btc-unsplash.jpg,0,1,587,0,unchosen,13,26,faces,body_parts,1700,0,10,2
191,70197,0,192,3,3,1,gain5,no_gain6,H,I,15,28,faces,40,61,body_parts,Stimuli/Experimental_stims/faces/erik-lucatero-d2MSDujJl2g-unsplash.jpg,Stimuli/Experimental_stims/body_parts/ira-vishnevskaya-8DQAvdCby1I-unsplash.jpg,0,1,690,1,unchosen,15,28,faces,body_parts,1300,0,10,2
192,70197,0,193,3,3,0,no_gain5,gain4,D,C,37,25,objects,58,9,body_parts,Stimuli/Experimental_stims/objects/alexander-andrews-VLGWE_SumrA-unsplash.jpg,Stimuli/Experimental_stims/body_parts/engin-akyurt-Q2rfH3GW39c-unsplash.jpg,0,1,662,0,unchosen,37,25,objects,body_parts,1300,0,10,2
193,70197,0,194,3,3,1,gain1,no_gain5,F,D,23,21,faces,73,55,faces,Stimuli/Experimental_stims/faces/rikonavt-HQjfrvdTfak-unsplash.jpg,Stimuli/Experimental_stims/faces/leilani-angel-K84vnnzxmTQ-unsplash.jpg,0,1,562,1,chosen,23,21,faces,faces,3600,1,10,2
194,70197,0,195,3,3,1,gain6,no_gain4,E,G,26,46,body_parts,54,63,objects,Stimuli/Experimental_stims/body_parts/engin-akyurt-x_3gyC42btc-unsplash.jpg,Stimuli/Experimental_stims/objects/mockup-graphics-PNsj6RiHAF4-unsplash.jpg,0,1,764,1,unchosen,26,46,body_parts,objects,2100,0,10,2
195,70197,0,196,3,3,1,gain1,no_gain1,F,J,23,39,faces,73,66,objects,Stimuli/Experimental_stims/faces/rikonavt-HQjfrvdTfak-unsplash.jpg,Stimuli/Experimental_stims/objects/charlesdeluvio-1-nx1QR5dTE-unsplash.jpg,0,1,684,1,chosen,23,39,faces,objects,1600,0,10,2
196,70197,0,197,3,3,1,gain4,no_gain6,C,I,25,28,body_parts,9,61,body_parts,Stimuli/Experimental_stims/body_parts/engin-akyurt-Q2rfH3GW39c-unsplash.jpg,Stimuli/Experimental_stims/body_parts/ira-vishnevskaya-8DQAvdCby1I-unsplash.jpg,0,1,654,1,unchosen,25,28,body_parts,body_parts,1800,0,10,2
197,70197,0,198,3,3,1,gain3,no_gain6,B,I,11,28,outdoor_scenes,67,61,body_parts,Stimuli/Experimental_stims/outdoor_scenes/stephen-leonardi-gyIRjKPXupE-unsplash.jpg,Stimuli/Experimental_stims/body_parts/ira-vishnevskaya-8DQAvdCby1I-unsplash.jpg,0,0,894,0,unchosen,28,11,body_parts,outdoor_scenes,1600,0,10,2
198,70197,0,199,3,3,1,gain1,no_gain3,F,L,23,17,faces,73,78,faces,Stimuli/Experimental_stims/faces/rikonavt-HQjfrvdTfak-unsplash.jpg,Stimuli/Experimental_stims/faces/good-faces-xmSWVeGEnJw-unsplash.jpg,0,1,1245,1,chosen,23,17,faces,faces,3100,1,10,2
199,70197,0,200,3,3,0,no_gain5,gain4,D,C,21,5,faces,55,87,outdoor_scenes,Stimuli/Experimental_stims/faces/leilani-angel-K84vnnzxmTQ-unsplash.jpg,Stimuli/Experimental_stims/outdoor_scenes/jeff-king-bJHWJeiHfHc-unsplash.jpg,0,0,592,1,chosen,5,21,outdoor_scenes,faces,2500,0,10,2
200,70197,0,201,3,3,0,no_gain1,gain1,J,F,13,35,faces,62,16,body_parts,Stimuli/Experimental_stims/faces/daniel-rigdon-dXmXKPP2L4E-unsplash.jpg,Stimuli/Experimental_stims/body_parts/wc-so-KH4AAPjb-tI-unsplash.jpg,0,0,910,1,unchosen,35,13,body_parts,faces,2000,0,10,2
201,70197,0,202,3,3,0,no_gain4,gain4,G,C,10,5,outdoor_scenes,68,87,outdoor_scenes,Stimuli/Experimental_stims/outdoor_scenes/shannon-kunkle-dM8INmkyDas-unsplash.jpg,Stimuli/Experimental_stims/outdoor_scenes/jeff-king-bJHWJeiHfHc-unsplash.jpg,0,0,703,1,chosen,5,10,outdoor_scenes,outdoor_scenes,2100,0,10,2
202,70197,0,203,3,3,1,gain3,no_gain5,B,D,14,21,faces,84,55,faces,Stimuli/Experimental_stims/faces/david-siglin-UuW4psOb388-unsplash.jpg,Stimuli/Experimental_stims/faces/leilani-angel-K84vnnzxmTQ-unsplash.jpg,0,1,1328,1,chosen,14,21,faces,faces,1200,0,10,2
203,70197,0,204,3,3,1,gain1,no_gain6,F,I,35,28,body_parts,16,61,body_parts,Stimuli/Experimental_stims/body_parts/wc-so-KH4AAPjb-tI-unsplash.jpg,Stimuli/Experimental_stims/body_parts/ira-vishnevskaya-8DQAvdCby1I-unsplash.jpg,0,0,1309,0,unchosen,28,35,body_parts,body_parts,3300,1,10,2
204,70197,0,205,3,3,1,gain3,no_gain2,B,A,14,3,faces,84,86,outdoor_scenes,Stimuli/Experimental_stims/faces/david-siglin-UuW4psOb388-unsplash.jpg,Stimuli/Experimental_stims/outdoor_scenes/henry-be-NLF6hTe4PAg-unsplash.jpg,0,1,442,1,chosen,14,3,faces,outdoor_scenes,2100,0,10,2
205,70197,0,206,3,3,0,no_gain4,gain5,G,H,10,4,outdoor_scenes,68,74,outdoor_scenes,Stimuli/Experimental_stims/outdoor_scenes/shannon-kunkle-dM8INmkyDas-unsplash.jpg,Stimuli/Experimental_stims/outdoor_scenes/jarrett-kow-1ZOyYPOBn7I-unsplash.jpg,0,0,433,1,chosen,4,10,outdoor_scenes,outdoor_scenes,2100,0,10,2
206,70197,0,207,3,3,1,gain2,no_gain6,K,I,40,6,objects,45,63,outdoor_scenes,Stimuli/Experimental_stims/objects/fabian-blank-pElSkGRA2NU-unsplash.jpg,Stimuli/Experimental_stims/outdoor_scenes/meng-ji-8BH_M-53CyA-unsplash.jpg,0,1,488,1,chosen,40,6,objects,outdoor_scenes,2600,0,10,2
207,70197,0,208,3,3,1,gain1,no_gain2,F,A,35,38,body_parts,16,34,objects,Stimuli/Experimental_stims/body_parts/wc-so-KH4AAPjb-tI-unsplash.jpg,Stimuli/Experimental_stims/objects/art-lasovsky-8XddFc6NkBY-unsplash.jpg,0,0,547,0,unchosen,38,35,objects,body_parts,2800,0,10,2
208,70197,0,209,3,3,1,gain1,no_gain4,F,G,35,46,body_parts,16,63,objects,Stimuli/Experimental_stims/body_parts/wc-so-KH4AAPjb-tI-unsplash.jpg,Stimuli/Experimental_stims/objects/mockup-graphics-PNsj6RiHAF4-unsplash.jpg,0,0,625,0,unchosen,46,35,objects,body_parts,2100,0,10,2
209,70197,0,210,3,3,0,no_gain6,gain1,I,F,6,23,outdoor_scenes,63,73,faces,Stimuli/Experimental_stims/outdoor_scenes/meng-ji-8BH_M-53CyA-unsplash.jpg,Stimuli/Experimental_stims/faces/rikonavt-HQjfrvdTfak-unsplash.jpg,0,0,522,1,chosen,23,6,faces,outdoor_scenes,1300,0,10,2
210,70197,0,211,3,3,0,no_gain5,gain6,D,E,21,47,faces,55,24,objects,Stimuli/Experimental_stims/faces/leilani-angel-K84vnnzxmTQ-unsplash.jpg,Stimuli/Experimental_stims/objects/ronaldo-arthur-vidal-Cdz_lvnl37k-unsplash.jpg,0,0,804,1,chosen,47,21,objects,faces,3900,1,10,2
211,70197,0,212,3,3,0,no_gain2,gain6,A,E,38,26,objects,34,54,body_parts,Stimuli/Experimental_stims/objects/art-lasovsky-8XddFc6NkBY-unsplash.jpg,Stimuli/Experimental_stims/body_parts/engin-akyurt-x_3gyC42btc-unsplash.jpg,0,0,522,1,unchosen,26,38,body_parts,objects,1600,0,10,2
212,70197,0,213,3,3,1,gain4,no_gain2,C,A,5,3,outdoor_scenes,87,86,outdoor_scenes,Stimuli/Experimental_stims/outdoor_scenes/jeff-king-bJHWJeiHfHc-unsplash.jpg,Stimuli/Experimental_stims/outdoor_scenes/henry-be-NLF6hTe4PAg-unsplash.jpg,0,0,565,0,chosen,3,5,outdoor_scenes,outdoor_scenes,1300,0,10,2
213,70197,0,214,3,3,0,no_gain3,gain5,L,H,33,15,body_parts,62,40,faces,Stimuli/Experimental_stims/body_parts/tucker-good-36skLT5jZcc-unsplash.jpg,Stimuli/Experimental_stims/faces/erik-lucatero-d2MSDujJl2g-unsplash.jpg,0,0,611,1,unchosen,15,33,faces,body_parts,1700,0,10,2
214,70197,0,215,3,3,1,gain2,no_gain6,K,I,30,28,body_parts,25,61,body_parts,Stimuli/Experimental_stims/body_parts/mika-korhonen-Xodzxosar18-unsplash.jpg,Stimuli/Experimental_stims/body_parts/ira-vishnevskaya-8DQAvdCby1I-unsplash.jpg,0,0,527,0,unchosen,28,30,body_parts,body_parts,1600,0,10,2
215,70197,0,216,3,3,0,no_gain4,gain6,G,E,10,47,outdoor_scenes,68,24,objects,Stimuli/Experimental_stims/outdoor_scenes/shannon-kunkle-dM8INmkyDas-unsplash.jpg,Stimuli/Experimental_stims/objects/ronaldo-arthur-vidal-Cdz_lvnl37k-unsplash.jpg,0,0,555,1,chosen,47,10,objects,outdoor_scenes,3600,1,10,2
216,70197,0,217,3,3,1,gain5,no_gain5,H,D,15,37,faces,40,58,objects,Stimuli/Experimental_stims/faces/erik-lucatero-d2MSDujJl2g-unsplash.jpg,Stimuli/Experimental_stims/objects/alexander-andrews-VLGWE_SumrA-unsplash.jpg,0,0,532,0,unchosen,37,15,objects,faces,2700,0,10,2
217,70197,0,218,3,3,1,gain2,no_gain2,K,A,40,3,objects,45,86,outdoor_scenes,Stimuli/Experimental_stims/objects/fabian-blank-pElSkGRA2NU-unsplash.jpg,Stimuli/Experimental_stims/outdoor_scenes/henry-be-NLF6hTe4PAg-unsplash.jpg,0,0,557,0,chosen,3,40,outdoor_scenes,objects,2800,0,10,2
218,70197,0,219,3,3,0,no_gain6,gain6,I,E,28,26,body_parts,61,54,body_parts,Stimuli/Experimental_stims/body_parts/ira-vishnevskaya-8DQAvdCby1I-unsplash.jpg,Stimuli/Experimental_stims/body_parts/engin-akyurt-x_3gyC42btc-unsplash.jpg,0,0,672,1,unchosen,26,28,body_parts,body_parts,2800,0,10,2
219,70197,0,220,3,3,1,gain1,no_gain3,F,L,35,33,body_parts,16,62,body_parts,Stimuli/Experimental_stims/body_parts/wc-so-KH4AAPjb-tI-unsplash.jpg,Stimuli/Experimental_stims/body_parts/tucker-good-36skLT5jZcc-unsplash.jpg,0,0,533,0,unchosen,33,35,body_parts,body_parts,1100,0,10,2
220,70197,0,221,4,4,0,no_gain6,gain2,I,K,6,40,outdoor_scenes,63,45,objects,Stimuli/Experimental_stims/outdoor_scenes/meng-ji-8BH_M-53CyA-unsplash.jpg,Stimuli/Experimental_stims/objects/fabian-blank-pElSkGRA2NU-unsplash.jpg,0,0,923,1,chosen,40,6,objects,outdoor_scenes,4200,1,9,2
221,70197,0,222,4,4,1,gain4,no_gain2,C,A,25,38,body_parts,9,34,objects,Stimuli/Experimental_stims/body_parts/engin-akyurt-Q2rfH3GW39c-unsplash.jpg,Stimuli/Experimental_stims/objects/art-lasovsky-8XddFc6NkBY-unsplash.jpg,0,0,595,0,unchosen,38,25,objects,body_parts,2400,0,9,2
222,70197,0,223,4,4,1,gain2,no_gain1,K,J,40,39,objects,45,66,objects,Stimuli/Experimental_stims/objects/fabian-blank-pElSkGRA2NU-unsplash.jpg,Stimuli/Experimental_stims/objects/charlesdeluvio-1-nx1QR5dTE-unsplash.jpg,1,NaN,,NaN,chosen,NaN,NaN,NaN,NaN,1200,0,9,2
223,70197,0,224,4,4,0,no_gain4,gain4,G,C,10,5,outdoor_scenes,68,87,outdoor_scenes,Stimuli/Experimental_stims/outdoor_scenes/shannon-kunkle-dM8INmkyDas-unsplash.jpg,Stimuli/Experimental_stims/outdoor_scenes/jeff-king-bJHWJeiHfHc-unsplash.jpg,0,1,655,0,chosen,10,5,outdoor_scenes,outdoor_scenes,1400,0,9,2
224,70197,0,225,4,4,0,no_gain4,gain6,G,E,46,26,objects,63,54,body_parts,Stimuli/Experimental_stims/objects/mockup-graphics-PNsj6RiHAF4-unsplash.jpg,Stimuli/Experimental_stims/body_parts/engin-akyurt-x_3gyC42btc-unsplash.jpg,0,0,613,1,unchosen,26,46,body_parts,objects,1800,0,9,2
225,70197,0,226,4,4,0,no_gain4,gain5,G,H,46,15,objects,63,40,faces,Stimuli/Experimental_stims/objects/mockup-graphics-PNsj6RiHAF4-unsplash.jpg,Stimuli/Experimental_stims/faces/erik-lucatero-d2MSDujJl2g-unsplash.jpg,0,1,554,0,unchosen,46,15,objects,faces,2200,0,9,2
226,70197,0,227,4,4,1,gain4,no_gain1,C,J,5,39,outdoor_scenes,87,66,objects,Stimuli/Experimental_stims/outdoor_scenes/jeff-king-bJHWJeiHfHc-unsplash.jpg,Stimuli/Experimental_stims/objects/charlesdeluvio-1-nx1QR5dTE-unsplash.jpg,0,1,616,1,chosen,5,39,outdoor_scenes,objects,4000,1,9,2
227,70197,0,228,4,4,1,gain3,no_gain2,B,A,14,3,faces,84,86,outdoor_scenes,Stimuli/Experimental_stims/faces/david-siglin-UuW4psOb388-unsplash.jpg,Stimuli/Experimental_stims/outdoor_scenes/henry-be-NLF6hTe4PAg-unsplash.jpg,0,1,716,1,chosen,14,3,faces,outdoor_scenes,1900,0,9,2
228,70197,0,229,4,4,0,no_gain5,gain4,D,C,21,5,faces,55,87,outdoor_scenes,Stimuli/Experimental_stims/faces/leilani-angel-K84vnnzxmTQ-unsplash.jpg,Stimuli/Experimental_stims/outdoor_scenes/jeff-king-bJHWJeiHfHc-unsplash.jpg,0,0,795,1,chosen,5,21,outdoor_scenes,faces,1800,0,9,2
229,70197,0,230,4,4,0,no_gain4,gain3,G,B,46,11,objects,63,67,outdoor_scenes,Stimuli/Experimental_stims/objects/mockup-graphics-PNsj6RiHAF4-unsplash.jpg,Stimuli/Experimental_stims/outdoor_scenes/stephen-leonardi-gyIRjKPXupE-unsplash.jpg,0,0,572,1,unchosen,11,46,outdoor_scenes,objects,1200,0,9,2
230,70197,0,231,4,4,0,no_gain3,gain5,L,H,33,15,body_parts,62,40,faces,Stimuli/Experimental_stims/body_parts/tucker-good-36skLT5jZcc-unsplash.jpg,Stimuli/Experimental_stims/faces/erik-lucatero-d2MSDujJl2g-unsplash.jpg,0,0,686,1,unchosen,15,33,faces,body_parts,1700,0,9,2
231,70197,0,232,4,4,0,no_gain2,gain5,A,H,38,15,objects,34,40,faces,Stimuli/Experimental_stims/objects/art-lasovsky-8XddFc6NkBY-unsplash.jpg,Stimuli/Experimental_stims/faces/erik-lucatero-d2MSDujJl2g-unsplash.jpg,0,0,554,1,unchosen,15,38,faces,objects,3500,1,9,2
232,70197,0,233,4,4,1,gain3,no_gain3,B,L,14,17,faces,84,78,faces,Stimuli/Experimental_stims/faces/david-siglin-UuW4psOb388-unsplash.jpg,Stimuli/Experimental_stims/faces/good-faces-xmSWVeGEnJw-unsplash.jpg,0,1,879,1,chosen,14,17,faces,faces,1700,0,9,2
233,70197,0,234,4,4,1,gain2,no_gain2,K,A,30,38,body_parts,25,34,objects,Stimuli/Experimental_stims/body_parts/mika-korhonen-Xodzxosar18-unsplash.jpg,Stimuli/Experimental_stims/objects/art-lasovsky-8XddFc6NkBY-unsplash.jpg,0,0,812,0,unchosen,38,30,objects,body_parts,2000,0,9,2
234,70197,0,235,4,4,0,no_gain6,gain5,I,H,28,15,body_parts,61,40,faces,Stimuli/Experimental_stims/body_parts/ira-vishnevskaya-8DQAvdCby1I-unsplash.jpg,Stimuli/Experimental_stims/faces/erik-lucatero-d2MSDujJl2g-unsplash.jpg,0,0,882,1,unchosen,15,28,faces,body_parts,1300,0,9,2
235,70197,0,236,4,4,1,gain6,no_gain1,E,J,47,39,objects,24,66,objects,Stimuli/Experimental_stims/objects/ronaldo-arthur-vidal-Cdz_lvnl37k-unsplash.jpg,Stimuli/Experimental_stims/objects/charlesdeluvio-1-nx1QR5dTE-unsplash.jpg,0,1,845,1,chosen,47,39,objects,objects,1400,0,9,2
236,70197,0,237,4,4,1,gain1,no_gain4,F,G,35,46,body_parts,16,63,objects,Stimuli/Experimental_stims/body_parts/wc-so-KH4AAPjb-tI-unsplash.jpg,Stimuli/Experimental_stims/objects/mockup-graphics-PNsj6RiHAF4-unsplash.jpg,0,0,737,0,unchosen,46,35,objects,body_parts,3600,1,9,2
237,70197,0,238,4,4,0,no_gain3,gain4,L,C,17,5,faces,78,87,outdoor_scenes,Stimuli/Experimental_stims/faces/good-faces-xmSWVeGEnJw-unsplash.jpg,Stimuli/Experimental_stims/outdoor_scenes/jeff-king-bJHWJeiHfHc-unsplash.jpg,0,0,751,1,chosen,5,17,outdoor_scenes,faces,2700,0,9,2
238,70197,0,239,4,4,0,no_gain5,gain1,D,F,37,35,objects,58,16,body_parts,Stimuli/Experimental_stims/objects/alexander-andrews-VLGWE_SumrA-unsplash.jpg,Stimuli/Experimental_stims/body_parts/wc-so-KH4AAPjb-tI-unsplash.jpg,0,1,828,0,unchosen,37,35,objects,body_parts,1900,0,9,2
239,70197,0,240,4,4,0,no_gain1,gain3,J,B,13,11,faces,62,67,outdoor_scenes,Stimuli/Experimental_stims/faces/daniel-rigdon-dXmXKPP2L4E-unsplash.jpg,Stimuli/Experimental_stims/outdoor_scenes/stephen-leonardi-gyIRjKPXupE-unsplash.jpg,0,0,932,1,unchosen,11,13,outdoor_scenes,faces,1200,0,9,2
240,70197,0,241,4,4,0,no_gain2,gain1,A,F,38,35,objects,34,16,body_parts,Stimuli/Experimental_stims/objects/art-lasovsky-8XddFc6NkBY-unsplash.jpg,Stimuli/Experimental_stims/body_parts/wc-so-KH4AAPjb-tI-unsplash.jpg,0,1,693,0,unchosen,38,35,objects,body_parts,1000,0,9,2
241,70197,0,242,4,4,1,gain3,no_gain4,B,G,14,10,faces,84,68,outdoor_scenes,Stimuli/Experimental_stims/faces/david-siglin-UuW4psOb388-unsplash.jpg,Stimuli/Experimental_stims/outdoor_scenes/shannon-kunkle-dM8INmkyDas-unsplash.jpg,0,1,756,1,chosen,14,10,faces,outdoor_scenes,3700,1,9,2
242,70197,0,243,4,4,0,no_gain4,gain1,G,F,10,23,outdoor_scenes,68,73,faces,Stimuli/Experimental_stims/outdoor_scenes/shannon-kunkle-dM8INmkyDas-unsplash.jpg,Stimuli/Experimental_stims/faces/rikonavt-HQjfrvdTfak-unsplash.jpg,0,0,850,1,chosen,23,10,faces,outdoor_scenes,1200,0,9,2
243,70197,0,244,4,4,1,gain2,no_gain3,K,L,30,33,body_parts,25,62,body_parts,Stimuli/Experimental_stims/body_parts/mika-korhonen-Xodzxosar18-unsplash.jpg,Stimuli/Experimental_stims/body_parts/tucker-good-36skLT5jZcc-unsplash.jpg,0,0,1102,0,unchosen,33,30,body_parts,body_parts,2600,0,9,2
244,70197,0,245,4,4,1,gain4,no_gain4,C,G,25,46,body_parts,9,63,objects,Stimuli/Experimental_stims/body_parts/engin-akyurt-Q2rfH3GW39c-unsplash.jpg,Stimuli/Experimental_stims/objects/mockup-graphics-PNsj6RiHAF4-unsplash.jpg,0,0,639,0,unchosen,46,25,objects,body_parts,2400,0,9,2
245,70197,0,246,4,4,1,gain2,no_gain6,K,I,30,28,body_parts,25,61,body_parts,Stimuli/Experimental_stims/body_parts/mika-korhonen-Xodzxosar18-unsplash.jpg,Stimuli/Experimental_stims/body_parts/ira-vishnevskaya-8DQAvdCby1I-unsplash.jpg,0,0,875,0,unchosen,28,30,body_parts,body_parts,1200,0,9,2
246,70197,0,247,4,4,0,no_gain6,gain6,I,E,6,47,outdoor_scenes,63,24,objects,Stimuli/Experimental_stims/outdoor_scenes/meng-ji-8BH_M-53CyA-unsplash.jpg,Stimuli/Experimental_stims/objects/ronaldo-arthur-vidal-Cdz_lvnl37k-unsplash.jpg,0,0,883,1,chosen,47,6,objects,outdoor_scenes,2500,0,9,2
247,70197,0,248,4,4,1,gain2,no_gain5,K,D,30,37,body_parts,25,58,objects,Stimuli/Experimental_stims/body_parts/mika-korhonen-Xodzxosar18-unsplash.jpg,Stimuli/Experimental_stims/objects/alexander-andrews-VLGWE_SumrA-unsplash.jpg,0,0,804,0,unchosen,37,30,objects,body_parts,2200,0,9,2
248,70197,0,249,4,4,0,no_gain1,gain3,J,B,39,14,objects,66,84,faces,Stimuli/Experimental_stims/objects/charlesdeluvio-1-nx1QR5dTE-unsplash.jpg,Stimuli/Experimental_stims/faces/david-siglin-UuW4psOb388-unsplash.jpg,0,0,598,1,chosen,14,39,faces,objects,1100,0,9,2
249,70197,0,250,4,4,0,no_gain6,gain1,I,F,6,23,outdoor_scenes,63,73,faces,Stimuli/Experimental_stims/outdoor_scenes/meng-ji-8BH_M-53CyA-unsplash.jpg,Stimuli/Experimental_stims/faces/rikonavt-HQjfrvdTfak-unsplash.jpg,0,0,627,1,chosen,23,6,faces,outdoor_scenes,1700,0,9,2
250,70197,0,251,4,4,0,no_gain1,gain2,J,K,13,30,faces,62,25,body_parts,Stimuli/Experimental_stims/faces/daniel-rigdon-dXmXKPP2L4E-unsplash.jpg,Stimuli/Experimental_stims/body_parts/mika-korhonen-Xodzxosar18-unsplash.jpg,0,0,763,1,unchosen,30,13,body_parts,faces,1100,0,9,2
251,70197,0,252,4,4,1,gain6,no_gain3,E,L,47,17,objects,24,78,faces,Stimuli/Experimental_stims/objects/ronaldo-arthur-vidal-Cdz_lvnl37k-unsplash.jpg,Stimuli/Experimental_stims/faces/good-faces-xmSWVeGEnJw-unsplash.jpg,0,1,964,1,chosen,47,17,objects,faces,1900,0,9,2
252,70197,0,253,4,4,1,gain4,no_gain1,C,J,25,13,body_parts,9,62,faces,Stimuli/Experimental_stims/body_parts/engin-akyurt-Q2rfH3GW39c-unsplash.jpg,Stimuli/Experimental_stims/faces/daniel-rigdon-dXmXKPP2L4E-unsplash.jpg,0,0,779,0,unchosen,13,25,faces,body_parts,1100,0,9,2
253,70197,0,254,4,4,1,gain4,no_gain5,C,D,25,37,body_parts,9,58,objects,Stimuli/Experimental_stims/body_parts/engin-akyurt-Q2rfH3GW39c-unsplash.jpg,Stimuli/Experimental_stims/objects/alexander-andrews-VLGWE_SumrA-unsplash.jpg,0,0,699,0,unchosen,37,25,objects,body_parts,1000,0,9,2
254,70197,0,255,4,4,1,gain6,no_gain6,E,I,26,28,body_parts,54,61,body_parts,Stimuli/Experimental_stims/body_parts/engin-akyurt-x_3gyC42btc-unsplash.jpg,Stimuli/Experimental_stims/body_parts/ira-vishnevskaya-8DQAvdCby1I-unsplash.jpg,0,0,1383,0,unchosen,28,26,body_parts,body_parts,1600,0,9,2
255,70197,0,256,4,4,0,no_gain4,gain5,G,H,10,4,outdoor_scenes,68,74,outdoor_scenes,Stimuli/Experimental_stims/outdoor_scenes/shannon-kunkle-dM8INmkyDas-unsplash.jpg,Stimuli/Experimental_stims/outdoor_scenes/jarrett-kow-1ZOyYPOBn7I-unsplash.jpg,0,0,857,1,chosen,4,10,outdoor_scenes,outdoor_scenes,2700,0,9,2
256,70197,0,257,4,4,1,gain4,no_gain6,C,I,25,28,body_parts,9,61,body_parts,Stimuli/Experimental_stims/body_parts/engin-akyurt-Q2rfH3GW39c-unsplash.jpg,Stimuli/Experimental_stims/body_parts/ira-vishnevskaya-8DQAvdCby1I-unsplash.jpg,0,0,498,0,unchosen,28,25,body_parts,body_parts,3500,1,9,2
257,70197,0,258,4,4,0,no_gain2,gain6,A,E,38,26,objects,34,54,body_parts,Stimuli/Experimental_stims/objects/art-lasovsky-8XddFc6NkBY-unsplash.jpg,Stimuli/Experimental_stims/body_parts/engin-akyurt-x_3gyC42btc-unsplash.jpg,0,0,709,1,unchosen,26,38,body_parts,objects,1000,0,9,2
258,70197,0,259,4,4,0,no_gain2,gain3,A,B,38,11,objects,34,67,outdoor_scenes,Stimuli/Experimental_stims/objects/art-lasovsky-8XddFc6NkBY-unsplash.jpg,Stimuli/Experimental_stims/outdoor_scenes/stephen-leonardi-gyIRjKPXupE-unsplash.jpg,0,0,632,1,unchosen,11,38,outdoor_scenes,objects,1700,0,9,2
259,70197,0,260,4,4,1,gain2,no_gain5,K,D,40,21,objects,45,55,faces,Stimuli/Experimental_stims/objects/fabian-blank-pElSkGRA2NU-unsplash.jpg,Stimuli/Experimental_stims/faces/leilani-angel-K84vnnzxmTQ-unsplash.jpg,1,NaN,,NaN,chosen,NaN,NaN,NaN,NaN,1500,0,9,2
260,70197,0,261,4,4,1,gain3,no_gain5,B,D,14,21,faces,84,55,faces,Stimuli/Experimental_stims/faces/david-siglin-UuW4psOb388-unsplash.jpg,Stimuli/Experimental_stims/faces/leilani-angel-K84vnnzxmTQ-unsplash.jpg,0,1,749,1,chosen,14,21,faces,faces,1400,0,9,2
261,70197,0,262,4,4,1,gain5,no_gain3,H,L,4,17,outdoor_scenes,74,78,faces,Stimuli/Experimental_stims/outdoor_scenes/jarrett-kow-1ZOyYPOBn7I-unsplash.jpg,Stimuli/Experimental_stims/faces/good-faces-xmSWVeGEnJw-unsplash.jpg,0,1,935,1,chosen,4,17,outdoor_scenes,faces,1300,0,9,2
262,70197,0,263,4,4,1,gain5,no_gain5,H,D,15,37,faces,40,58,objects,Stimuli/Experimental_stims/faces/erik-lucatero-d2MSDujJl2g-unsplash.jpg,Stimuli/Experimental_stims/objects/alexander-andrews-VLGWE_SumrA-unsplash.jpg,0,0,1495,0,unchosen,37,15,objects,faces,4500,1,9,2
263,70197,0,264,4,4,0,no_gain5,gain6,D,E,37,26,objects,58,54,body_parts,Stimuli/Experimental_stims/objects/alexander-andrews-VLGWE_SumrA-unsplash.jpg,Stimuli/Experimental_stims/body_parts/engin-akyurt-x_3gyC42btc-unsplash.jpg,0,0,1191,1,unchosen,26,37,body_parts,objects,1900,0,9,2
264,70197,0,265,4,4,0,no_gain6,gain1,I,F,28,35,body_parts,61,16,body_parts,Stimuli/Experimental_stims/body_parts/ira-vishnevskaya-8DQAvdCby1I-unsplash.jpg,Stimuli/Experimental_stims/body_parts/wc-so-KH4AAPjb-tI-unsplash.jpg,0,1,1057,0,unchosen,28,35,body_parts,body_parts,1900,0,9,2
265,70197,0,266,4,4,1,gain5,no_gain5,H,D,4,21,outdoor_scenes,74,55,faces,Stimuli/Experimental_stims/outdoor_scenes/jarrett-kow-1ZOyYPOBn7I-unsplash.jpg,Stimuli/Experimental_stims/faces/leilani-angel-K84vnnzxmTQ-unsplash.jpg,0,1,495,1,chosen,4,21,outdoor_scenes,faces,1600,0,9,2
266,70197,0,267,4,4,0,no_gain2,gain4,A,C,3,5,outdoor_scenes,86,87,outdoor_scenes,Stimuli/Experimental_stims/outdoor_scenes/henry-be-NLF6hTe4PAg-unsplash.jpg,Stimuli/Experimental_stims/outdoor_scenes/jeff-king-bJHWJeiHfHc-unsplash.jpg,0,0,860,1,chosen,5,3,outdoor_scenes,outdoor_scenes,2300,0,9,2
267,70197,0,268,4,4,1,gain6,no_gain2,E,A,47,3,objects,24,86,outdoor_scenes,Stimuli/Experimental_stims/objects/ronaldo-arthur-vidal-Cdz_lvnl37k-unsplash.jpg,Stimuli/Experimental_stims/outdoor_scenes/henry-be-NLF6hTe4PAg-unsplash.jpg,0,0,583,0,chosen,3,47,outdoor_scenes,objects,3700,1,9,2
268,70197,0,269,4,4,0,no_gain3,gain3,L,B,33,11,body_parts,62,67,outdoor_scenes,Stimuli/Experimental_stims/body_parts/tucker-good-36skLT5jZcc-unsplash.jpg,Stimuli/Experimental_stims/outdoor_scenes/stephen-leonardi-gyIRjKPXupE-unsplash.jpg,0,0,854,1,unchosen,11,33,outdoor_scenes,body_parts,1200,0,9,2
269,70197,0,270,4,4,1,gain4,no_gain3,C,L,25,33,body_parts,9,62,body_parts,Stimuli/Experimental_stims/body_parts/engin-akyurt-Q2rfH3GW39c-unsplash.jpg,Stimuli/Experimental_stims/body_parts/tucker-good-36skLT5jZcc-unsplash.jpg,0,0,759,0,unchosen,33,25,body_parts,body_parts,1900,0,9,2
270,70197,0,271,4,4,0,no_gain3,gain1,L,F,33,35,body_parts,62,16,body_parts,Stimuli/Experimental_stims/body_parts/tucker-good-36skLT5jZcc-unsplash.jpg,Stimuli/Experimental_stims/body_parts/wc-so-KH4AAPjb-tI-unsplash.jpg,0,1,878,0,unchosen,33,35,body_parts,body_parts,2000,0,9,2
271,70197,0,272,4,4,1,gain1,no_gain3,F,L,23,17,faces,73,78,faces,Stimuli/Experimental_stims/faces/rikonavt-HQjfrvdTfak-unsplash.jpg,Stimuli/Experimental_stims/faces/good-faces-xmSWVeGEnJw-unsplash.jpg,0,1,631,1,chosen,23,17,faces,faces,2700,0,9,2
272,70197,0,273,4,4,1,gain6,no_gain5,E,D,47,21,objects,24,55,faces,Stimuli/Experimental_stims/objects/ronaldo-arthur-vidal-Cdz_lvnl37k-unsplash.jpg,Stimuli/Experimental_stims/faces/leilani-angel-K84vnnzxmTQ-unsplash.jpg,0,1,599,1,chosen,47,21,objects,faces,1100,0,9,2
273,70197,0,274,4,4,0,no_gain2,gain1,A,F,3,23,outdoor_scenes,86,73,faces,Stimuli/Experimental_stims/outdoor_scenes/henry-be-NLF6hTe4PAg-unsplash.jpg,Stimuli/Experimental_stims/faces/rikonavt-HQjfrvdTfak-unsplash.jpg,0,0,1409,1,chosen,23,3,faces,outdoor_scenes,4200,1,9,2
274,70197,0,275,4,4,1,gain3,no_gain6,B,I,11,28,outdoor_scenes,67,61,body_parts,Stimuli/Experimental_stims/outdoor_scenes/stephen-leonardi-gyIRjKPXupE-unsplash.jpg,Stimuli/Experimental_stims/body_parts/ira-vishnevskaya-8DQAvdCby1I-unsplash.jpg,1,NaN,,NaN,unchosen,NaN,NaN,NaN,NaN,1300,0,9,2
275,70197,0,276,4,4,1,gain1,no_gain5,F,D,23,21,faces,73,55,faces,Stimuli/Experimental_stims/faces/rikonavt-HQjfrvdTfak-unsplash.jpg,Stimuli/Experimental_stims/faces/leilani-angel-K84vnnzxmTQ-unsplash.jpg,1,NaN,,NaN,chosen,NaN,NaN,NaN,NaN,2000,0,9,2
276,70197,0,277,4,4,0,no_gain3,gain2,L,K,17,40,faces,78,45,objects,Stimuli/Experimental_stims/faces/good-faces-xmSWVeGEnJw-unsplash.jpg,Stimuli/Experimental_stims/objects/fabian-blank-pElSkGRA2NU-unsplash.jpg,0,0,743,1,chosen,40,17,objects,faces,1100,0,9,2
277,70197,0,278,4,4,1,gain5,no_gain1,H,J,15,13,faces,40,62,faces,Stimuli/Experimental_stims/faces/erik-lucatero-d2MSDujJl2g-unsplash.jpg,Stimuli/Experimental_stims/faces/daniel-rigdon-dXmXKPP2L4E-unsplash.jpg,0,0,703,0,unchosen,13,15,faces,faces,2300,0,9,2
278,70197,0,279,4,4,1,gain2,no_gain2,K,A,40,3,objects,45,86,outdoor_scenes,Stimuli/Experimental_stims/objects/fabian-blank-pElSkGRA2NU-unsplash.jpg,Stimuli/Experimental_stims/outdoor_scenes/henry-be-NLF6hTe4PAg-unsplash.jpg,0,1,1099,1,chosen,40,3,objects,outdoor_scenes,2900,0,9,2
279,70197,0,280,4,4,0,no_gain2,gain5,A,H,3,4,outdoor_scenes,86,74,outdoor_scenes,Stimuli/Experimental_stims/outdoor_scenes/henry-be-NLF6hTe4PAg-unsplash.jpg,Stimuli/Experimental_stims/outdoor_scenes/jarrett-kow-1ZOyYPOBn7I-unsplash.jpg,0,0,978,1,chosen,4,3,outdoor_scenes,outdoor_scenes,1200,0,9,2
280,70197,0,281,4,4,1,gain5,no_gain6,H,I,4,6,outdoor_scenes,74,63,outdoor_scenes,Stimuli/Experimental_stims/outdoor_scenes/jarrett-kow-1ZOyYPOBn7I-unsplash.jpg,Stimuli/Experimental_stims/outdoor_scenes/meng-ji-8BH_M-53CyA-unsplash.jpg,0,1,1034,1,chosen,4,6,outdoor_scenes,outdoor_scenes,1500,0,9,2
281,70197,0,282,4,4,1,gain6,no_gain3,E,L,26,33,body_parts,54,62,body_parts,Stimuli/Experimental_stims/body_parts/engin-akyurt-x_3gyC42btc-unsplash.jpg,Stimuli/Experimental_stims/body_parts/tucker-good-36skLT5jZcc-unsplash.jpg,0,1,746,1,unchosen,26,33,body_parts,body_parts,1100,0,9,2
282,70197,0,283,4,4,0,no_gain6,gain4,I,C,6,5,outdoor_scenes,63,87,outdoor_scenes,Stimuli/Experimental_stims/outdoor_scenes/meng-ji-8BH_M-53CyA-unsplash.jpg,Stimuli/Experimental_stims/outdoor_scenes/jeff-king-bJHWJeiHfHc-unsplash.jpg,0,0,690,1,chosen,5,6,outdoor_scenes,outdoor_scenes,1200,0,9,2
283,70197,0,284,4,4,0,no_gain4,gain2,G,K,10,40,outdoor_scenes,68,45,objects,Stimuli/Experimental_stims/outdoor_scenes/shannon-kunkle-dM8INmkyDas-unsplash.jpg,Stimuli/Experimental_stims/objects/fabian-blank-pElSkGRA2NU-unsplash.jpg,0,0,886,1,chosen,40,10,objects,outdoor_scenes,1400,0,9,2
284,70197,0,285,4,4,1,gain2,no_gain4,K,G,30,46,body_parts,25,63,objects,Stimuli/Experimental_stims/body_parts/mika-korhonen-Xodzxosar18-unsplash.jpg,Stimuli/Experimental_stims/objects/mockup-graphics-PNsj6RiHAF4-unsplash.jpg,0,0,621,0,unchosen,46,30,objects,body_parts,1100,0,9,2
285,70197,0,286,4,4,1,gain3,no_gain6,B,I,14,6,faces,84,63,outdoor_scenes,Stimuli/Experimental_stims/faces/david-siglin-UuW4psOb388-unsplash.jpg,Stimuli/Experimental_stims/outdoor_scenes/meng-ji-8BH_M-53CyA-unsplash.jpg,1,NaN,,NaN,chosen,NaN,NaN,NaN,NaN,2100,0,9,2
286,70197,0,287,4,4,0,no_gain1,gain1,J,F,13,35,faces,62,16,body_parts,Stimuli/Experimental_stims/faces/daniel-rigdon-dXmXKPP2L4E-unsplash.jpg,Stimuli/Experimental_stims/body_parts/wc-so-KH4AAPjb-tI-unsplash.jpg,1,NaN,,NaN,unchosen,NaN,NaN,NaN,NaN,3300,1,9,2
287,70197,0,288,4,4,0,no_gain1,gain6,J,E,13,26,faces,62,54,body_parts,Stimuli/Experimental_stims/faces/daniel-rigdon-dXmXKPP2L4E-unsplash.jpg,Stimuli/Experimental_stims/body_parts/engin-akyurt-x_3gyC42btc-unsplash.jpg,0,1,641,0,unchosen,13,26,faces,body_parts,1900,0,9,2
288,70197,0,289,4,4,0,no_gain1,gain5,J,H,39,4,objects,66,74,outdoor_scenes,Stimuli/Experimental_stims/objects/charlesdeluvio-1-nx1QR5dTE-unsplash.jpg,Stimuli/Experimental_stims/outdoor_scenes/jarrett-kow-1ZOyYPOBn7I-unsplash.jpg,0,0,1081,1,chosen,4,39,outdoor_scenes,objects,2000,0,9,2
289,70197,0,290,4,4,0,no_gain4,gain6,G,E,10,47,outdoor_scenes,68,24,objects,Stimuli/Experimental_stims/outdoor_scenes/shannon-kunkle-dM8INmkyDas-unsplash.jpg,Stimuli/Experimental_stims/objects/ronaldo-arthur-vidal-Cdz_lvnl37k-unsplash.jpg,0,0,568,1,chosen,47,10,objects,outdoor_scenes,1100,0,9,2
290,70197,0,291,4,4,1,gain3,no_gain5,B,D,11,37,outdoor_scenes,67,58,objects,Stimuli/Experimental_stims/outdoor_scenes/stephen-leonardi-gyIRjKPXupE-unsplash.jpg,Stimuli/Experimental_stims/objects/alexander-andrews-VLGWE_SumrA-unsplash.jpg,0,0,832,0,unchosen,37,11,objects,outdoor_scenes,1800,0,9,2
291,70197,0,292,4,4,0,no_gain1,gain1,J,F,39,23,objects,66,73,faces,Stimuli/Experimental_stims/objects/charlesdeluvio-1-nx1QR5dTE-unsplash.jpg,Stimuli/Experimental_stims/faces/rikonavt-HQjfrvdTfak-unsplash.jpg,0,0,501,1,chosen,23,39,faces,objects,3200,1,9,2