,PID,practice,trial,block,run,gain_left,left_item_id,right_item_id,left_pair_id,right_pair_id,left_stimulus,right_stimulus,left_category,right_category,left_rating,right_rating,left_path,right_path,no_response,left_chosen,rt,higher_outcome_chosen,choice_type,chosen_stimulus,unchosen_stimulus,chosen_category,unchosen_category,iti,long_iti,simulation,version
0,53286,1,1,0,0,0,,,,,,,,,,,Stimuli/Practice_stims/Final_decisions/debby-hudson-FmCSSSGge-0-unsplash.jpg,Stimuli/Practice_stims/Final_decisions/yassine-khalfalli-adsQ9d_Cx0c-unsplash.jpg,0,1,374,0,,,,,,3000,0,9,3
1,53286,1,2,0,0,0,,,,,,,,,,,Stimuli/Practice_stims/Final_decisions/florian-wehde-iVW7mZPwd4g-unsplash.jpg,Stimuli/Practice_stims/Final_decisions/patrick-perkins-3wylDrjxH-E-unsplash.jpg,0,1,486,0,,,,,,1500,0,9,3
2,53286,1,3,0,0,0,,,,,,,,,,,Stimuli/Practice_stims/Final_decisions/debby-hudson-FmCSSSGge-0-unsplash.jpg,Stimuli/Practice_stims/Final_decisions/florian-wehde-iVW7mZPwd4g-unsplash.jpg,0,1,553,0,,,,,,2000,0,9,3
3,53286,1,4,0,0,0,,,,,,,,,,,Stimuli/Practice_stims/Final_decisions/yassine-khalfalli-adsQ9d_Cx0c-unsplash.jpg,Stimuli/Practice_stims/Final_decisions/debby-hudson-FmCSSSGge-0-unsplash.jpg,0,1,510,0,,,,,,1000,0,9,3
4,53286,0,5,1,1,1,gain5,no_gain5,D,C,15,30,faces,body_parts,50,50,Stimuli/Experimental_stims/faces/erik-lucatero-d2MSDujJl2g-unsplash.jpg,Stimuli/Experimental_stims/body_parts/mika-korhonen-Xodzxosar18-unsplash.jpg,1,NaN,,NaN,unchosen,NaN,NaN,NaN,NaN,4700,1,9,3
5,53286,0,6,1,1,1,gain3,no_gain2,L,A,20,38,faces,objects,50,50,Stimuli/Experimental_stims/faces/justin-chen-J7Cf1Gch49E-unsplash.jpg,Stimuli/Experimental_stims/objects/art-lasovsky-8XddFc6NkBY-unsplash.jpg,0,1,316,1,unchosen,20,38,faces,objects,2300,0,9,3
6,53286,0,7,1,1,1,gain1,no_gain2,H,A,11,38,outdoor_scenes,objects,50,50,Stimuli/Experimental_stims/outdoor_scenes/stephen-leonardi-gyIRjKPXupE-unsplash.jpg,Stimuli/Experimental_stims/objects/art-lasovsky-8XddFc6NkBY-unsplash.jpg,1,NaN,,NaN,unchosen,NaN,NaN,NaN,NaN,1100,0,9,3
7,53286,0,8,1,1,0,no_gain4,gain5,J,D,17,41,faces,objects,50,50,Stimuli/Experimental_stims/faces/good-faces-xmSWVeGEnJw-unsplash.jpg,Stimuli/Experimental_stims/objects/insung-yoon-w2JtIQQXoRU-unsplash.jpg,1,NaN,,NaN,chosen,NaN,NaN,NaN,NaN,1600,0,9,3
8,53286,0,9,1,1,0,no_gain5,gain1,C,H,30,11,body_parts,outdoor_scenes,50,50,Stimuli/Experimental_stims/body_parts/mika-korhonen-Xodzxosar18-unsplash.jpg,Stimuli/Experimental_stims/outdoor_scenes/stephen-leonardi-gyIRjKPXupE-unsplash.jpg,1,NaN,,NaN,unchosen,NaN,NaN,NaN,NaN,2300,0,9,3
9,53286,0,10,1,1,0,no_gain4,gain1,J,H,17,16,faces,faces,50,50,Stimuli/Experimental_stims/faces/good-faces-xmSWVeGEnJw-unsplash.jpg,Stimuli/Experimental_stims/faces/freddy-kearney-o-ioeoATbIM-unsplash.jpg,1,NaN,,NaN,chosen,NaN,NaN,NaN,NaN,1500,0,9,3
10,53286,0,11,1,1,1,gain1,no_gain3,H,E,16,44,faces,objects,50,50,Stimuli/Experimental_stims/faces/freddy-kearney-o-ioeoATbIM-unsplash.jpg,Stimuli/Experimental_stims/objects/kuiye-chen-NuOGFo4PudE-unsplash.jpg,1,NaN,,NaN,chosen,NaN,NaN,NaN,NaN,1500,0,9,3
11,53286,0,12,1,1,0,no_gain1,gain1,F,H,14,16,faces,faces,50,50,Stimuli/Experimental_stims/faces/david-siglin-UuW4psOb388-unsplash.jpg,Stimuli/Experimental_stims/faces/freddy-kearney-o-ioeoATbIM-unsplash.jpg,1,NaN,,NaN,chosen,NaN,NaN,NaN,NaN,1200,0,9,3
12,53286,0,13,1,1,1,gain6,no_gain1,G,F,3,25,outdoor_scenes,body_parts,50,50,Stimuli/Experimental_stims/outdoor_scenes/henry-be-NLF6hTe4PAg-unsplash.jpg,Stimuli/Experimental_stims/body_parts/engin-akyurt-Q2rfH3GW39c-unsplash.jpg,1,NaN,,NaN,unchosen,NaN,NaN,NaN,NaN,1300,0,9,3
13,53286,0,14,1,1,0,no_gain1,gain4,F,I,14,31,faces,body_parts,50,50,Stimuli/Experimental_stims/faces/david-siglin-UuW4psOb388-unsplash.jpg,Stimuli/Experimental_stims/body_parts/sincerely-media-VN6DbKajo5s-unsplash.jpg,1,NaN,,NaN,chosen,NaN,NaN,NaN,NaN,1200,0,9,3
14,53286,0,15,1,1,1,gain6,no_gain4,G,J,3,42,outdoor_scenes,objects,50,50,Stimuli/Experimental_stims/outdoor_scenes/henry-be-NLF6hTe4PAg-unsplash.jpg,Stimuli/Experimental_stims/objects/jess-bailey-nOeVi8DsN8U-unsplash.jpg,1,NaN,,NaN,unchosen,NaN,NaN,NaN,NaN,4100,1,9,3
15,53286,0,16,1,1,1,gain4,no_gain4,I,J,1,42,outdoor_scenes,objects,50,50,Stimuli/Experimental_stims/outdoor_scenes/ashim-d-silva-S2Q5mdOrrVc-unsplash.jpg,Stimuli/Experimental_stims/objects/jess-bailey-nOeVi8DsN8U-unsplash.jpg,1,NaN,,NaN,unchosen,NaN,NaN,NaN,NaN,1200,0,9,3
16,53286,0,17,1,1,1,gain5,no_gain6,D,K,41,35,objects,body_parts,50,50,Stimuli/Experimental_stims/objects/insung-yoon-w2JtIQQXoRU-unsplash.jpg,Stimuli/Experimental_stims/body_parts/wc-so-KH4AAPjb-tI-unsplash.jpg,1,NaN,,NaN,chosen,NaN,NaN,NaN,NaN,1200,0,9,3
17,53286,0,18,1,1,0,no_gain3,gain3,E,L,24,20,body_parts,faces,50,50,Stimuli/Experimental_stims/body_parts/clay-banks-LjqARJaJotc-unsplash.jpg,Stimuli/Experimental_stims/faces/justin-chen-J7Cf1Gch49E-unsplash.jpg,1,NaN,,NaN,unchosen,NaN,NaN,NaN,NaN,1600,0,9,3
18,53286,0,19,1,1,0,no_gain4,gain3,J,L,17,28,faces,body_parts,50,50,Stimuli/Experimental_stims/faces/good-faces-xmSWVeGEnJw-unsplash.jpg,Stimuli/Experimental_stims/body_parts/ira-vishnevskaya-8DQAvdCby1I-unsplash.jpg,1,NaN,,NaN,chosen,NaN,NaN,NaN,NaN,1400,0,9,3
19,53286,0,20,1,1,0,no_gain2,gain2,A,B,38,12,objects,faces,50,50,Stimuli/Experimental_stims/objects/art-lasovsky-8XddFc6NkBY-unsplash.jpg,Stimuli/Experimental_stims/faces/aiony-haust-jmATI5Q_YgY-unsplash.jpg,1,NaN,,NaN,unchosen,NaN,NaN,NaN,NaN,4300,1,9,3
20,53286,0,21,1,1,1,gain2,no_gain4,B,J,4,17,outdoor_scenes,faces,50,50,Stimuli/Experimental_stims/outdoor_scenes/jarrett-kow-1ZOyYPOBn7I-unsplash.jpg,Stimuli/Experimental_stims/faces/good-faces-xmSWVeGEnJw-unsplash.jpg,1,NaN,,NaN,chosen,NaN,NaN,NaN,NaN,1500,0,9,3
21,53286,0,22,1,1,1,gain2,no_gain5,B,C,4,7,outdoor_scenes,outdoor_scenes,50,50,Stimuli/Experimental_stims/outdoor_scenes/jarrett-kow-1ZOyYPOBn7I-unsplash.jpg,Stimuli/Experimental_stims/outdoor_scenes/petr-vysohlid-9fqwGqGLUxc-unsplash.jpg,1,NaN,,NaN,chosen,NaN,NaN,NaN,NaN,1400,0,9,3
22,53286,0,23,1,1,1,gain4,no_gain2,I,A,1,38,outdoor_scenes,objects,50,50,Stimuli/Experimental_stims/outdoor_scenes/ashim-d-silva-S2Q5mdOrrVc-unsplash.jpg,Stimuli/Experimental_stims/objects/art-lasovsky-8XddFc6NkBY-unsplash.jpg,1,NaN,,NaN,unchosen,NaN,NaN,NaN,NaN,1300,0,9,3
23,53286,0,24,1,1,1,gain2,no_gain6,B,K,12,36,faces,objects,50,50,Stimuli/Experimental_stims/faces/aiony-haust-jmATI5Q_YgY-unsplash.jpg,Stimuli/Experimental_stims/objects/alexander-andrews-JYGnB9gTCls-unsplash.jpg,1,NaN,,NaN,unchosen,NaN,NaN,NaN,NaN,1000,0,9,3
24,53286,0,25,1,1,0,no_gain1,gain5,F,D,14,41,faces,objects,50,50,Stimuli/Experimental_stims/faces/david-siglin-UuW4psOb388-unsplash.jpg,Stimuli/Experimental_stims/objects/insung-yoon-w2JtIQQXoRU-unsplash.jpg,1,NaN,,NaN,chosen,NaN,NaN,NaN,NaN,3100,1,9,3
25,53286,0,26,1,1,1,gain2,no_gain1,B,F,4,14,outdoor_scenes,faces,50,50,Stimuli/Experimental_stims/outdoor_scenes/jarrett-kow-1ZOyYPOBn7I-unsplash.jpg,Stimuli/Experimental_stims/faces/david-siglin-UuW4psOb388-unsplash.jpg,1,NaN,,NaN,chosen,NaN,NaN,NaN,NaN,2700,0,9,3
26,53286,0,27,1,1,1,gain2,no_gain2,B,A,4,0,outdoor_scenes,outdoor_scenes,50,50,Stimuli/Experimental_stims/outdoor_scenes/jarrett-kow-1ZOyYPOBn7I-unsplash.jpg,Stimuli/Experimental_stims/outdoor_scenes/aleksandra-boguslawska-MS7KD9Ti7FQ-unsplash.jpg,1,NaN,,NaN,chosen,NaN,NaN,NaN,NaN,1400,0,9,3
27,53286,0,28,1,1,1,gain4,no_gain3,I,E,1,24,outdoor_scenes,body_parts,50,50,Stimuli/Experimental_stims/outdoor_scenes/ashim-d-silva-S2Q5mdOrrVc-unsplash.jpg,Stimuli/Experimental_stims/body_parts/clay-banks-LjqARJaJotc-unsplash.jpg,1,NaN,,NaN,unchosen,NaN,NaN,NaN,NaN,1100,0,9,3
28,53286,0,29,1,1,0,no_gain1,gain3,F,L,25,20,body_parts,faces,50,50,Stimuli/Experimental_stims/body_parts/engin-akyurt-Q2rfH3GW39c-unsplash.jpg,Stimuli/Experimental_stims/faces/justin-chen-J7Cf1Gch49E-unsplash.jpg,1,NaN,,NaN,unchosen,NaN,NaN,NaN,NaN,1900,0,9,3
29,53286,0,30,1,1,1,gain6,no_gain4,G,J,39,17,objects,faces,50,50,Stimuli/Experimental_stims/objects/charlesdeluvio-1-nx1QR5dTE-unsplash.jpg,Stimuli/Experimental_stims/faces/good-faces-xmSWVeGEnJw-unsplash.jpg,1,NaN,,NaN,chosen,NaN,NaN,NaN,NaN,1200,0,9,3
30,53286,0,31,1,1,1,gain5,no_gain3,D,E,41,44,objects,objects,50,50,Stimuli/Experimental_stims/objects/insung-yoon-w2JtIQQXoRU-unsplash.jpg,Stimuli/Experimental_stims/objects/kuiye-chen-NuOGFo4PudE-unsplash.jpg,1,NaN,,NaN,chosen,NaN,NaN,NaN,NaN,2300,0,9,3
31,53286,0,32,1,1,0,no_gain3,gain5,E,D,24,15,body_parts,faces,50,50,Stimuli/Experimental_stims/body_parts/clay-banks-LjqARJaJotc-unsplash.jpg,Stimuli/Experimental_stims/faces/erik-lucatero-d2MSDujJl2g-unsplash.jpg,1,NaN,,NaN,unchosen,NaN,NaN,NaN,NaN,2000,0,9,3
32,53286,0,33,1,1,1,gain6,no_gain6,G,K,39,35,objects,body_parts,50,50,Stimuli/Experimental_stims/objects/charlesdeluvio-1-nx1QR5dTE-unsplash.jpg,Stimuli/Experimental_stims/body_parts/wc-so-KH4AAPjb-tI-unsplash.jpg,1,NaN,,NaN,chosen,NaN,NaN,NaN,NaN,2000,0,9,3
33,53286,0,34,1,1,0,no_gain6,gain6,K,G,36,3,objects,outdoor_scenes,50,50,Stimuli/Experimental_stims/objects/alexander-andrews-JYGnB9gTCls-unsplash.jpg,Stimuli/Experimental_stims/outdoor_scenes/henry-be-NLF6hTe4PAg-unsplash.jpg,1,NaN,,NaN,unchosen,NaN,NaN,NaN,NaN,1300,0,9,3
34,53286,0,35,1,1,0,no_gain6,gain1,K,H,36,11,objects,outdoor_scenes,50,50,Stimuli/Experimental_stims/objects/alexander-andrews-JYGnB9gTCls-unsplash.jpg,Stimuli/Experimental_stims/outdoor_scenes/stephen-leonardi-gyIRjKPXupE-unsplash.jpg,1,NaN,,NaN,unchosen,NaN,NaN,NaN,NaN,3100,1,9,3
35,53286,0,36,1,1,0,no_gain3,gain2,E,B,44,4,objects,outdoor_scenes,50,50,Stimuli/Experimental_stims/objects/kuiye-chen-NuOGFo4PudE-unsplash.jpg,Stimuli/Experimental_stims/outdoor_scenes/jarrett-kow-1ZOyYPOBn7I-unsplash.jpg,1,NaN,,NaN,chosen,NaN,NaN,NaN,NaN,2600,0,9,3
36,53286,0,37,1,1,0,no_gain6,gain4,K,I,36,1,objects,outdoor_scenes,50,50,Stimuli/Experimental_stims/objects/alexander-andrews-JYGnB9gTCls-unsplash.jpg,Stimuli/Experimental_stims/outdoor_scenes/ashim-d-silva-S2Q5mdOrrVc-unsplash.jpg,1,NaN,,NaN,unchosen,NaN,NaN,NaN,NaN,1200,0,9,3
37,53286,0,38,1,1,1,gain4,no_gain5,I,C,1,30,outdoor_scenes,body_parts,50,50,Stimuli/Experimental_stims/outdoor_scenes/ashim-d-silva-S2Q5mdOrrVc-unsplash.jpg,Stimuli/Experimental_stims/body_parts/mika-korhonen-Xodzxosar18-unsplash.jpg,1,NaN,,NaN,unchosen,NaN,NaN,NaN,NaN,1700,0,9,3
38,53286,0,39,1,1,1,gain2,no_gain5,B,C,12,30,faces,body_parts,50,50,Stimuli/Experimental_stims/faces/aiony-haust-jmATI5Q_YgY-unsplash.jpg,Stimuli/Experimental_stims/body_parts/mika-korhonen-Xodzxosar18-unsplash.jpg,1,NaN,,NaN,unchosen,NaN,NaN,NaN,NaN,1600,0,9,3
39,53286,0,40,1,1,0,no_gain1,gain3,F,L,14,28,faces,body_parts,50,50,Stimuli/Experimental_stims/faces/david-siglin-UuW4psOb388-unsplash.jpg,Stimuli/Experimental_stims/body_parts/ira-vishnevskaya-8DQAvdCby1I-unsplash.jpg,1,NaN,,NaN,chosen,NaN,NaN,NaN,NaN,4400,1,9,3
40,53286,0,41,1,1,1,gain1,no_gain5,H,C,16,7,faces,outdoor_scenes,50,50,Stimuli/Experimental_stims/faces/freddy-kearney-o-ioeoATbIM-unsplash.jpg,Stimuli/Experimental_stims/outdoor_scenes/petr-vysohlid-9fqwGqGLUxc-unsplash.jpg,1,NaN,,NaN,chosen,NaN,NaN,NaN,NaN,1600,0,9,3
41,53286,0,42,1,1,0,no_gain4,gain3,J,L,42,20,objects,faces,50,50,Stimuli/Experimental_stims/objects/jess-bailey-nOeVi8DsN8U-unsplash.jpg,Stimuli/Experimental_stims/faces/justin-chen-J7Cf1Gch49E-unsplash.jpg,1,NaN,,NaN,unchosen,NaN,NaN,NaN,NaN,1700,0,9,3
42,53286,0,43,1,1,1,gain6,no_gain2,G,A,39,0,objects,outdoor_scenes,50,50,Stimuli/Experimental_stims/objects/charlesdeluvio-1-nx1QR5dTE-unsplash.jpg,Stimuli/Experimental_stims/outdoor_scenes/aleksandra-boguslawska-MS7KD9Ti7FQ-unsplash.jpg,1,NaN,,NaN,chosen,NaN,NaN,NaN,NaN,1900,0,9,3
43,53286,0,44,1,1,1,gain4,no_gain4,I,J,31,17,body_parts,faces,50,50,Stimuli/Experimental_stims/body_parts/sincerely-media-VN6DbKajo5s-unsplash.jpg,Stimuli/Experimental_stims/faces/good-faces-xmSWVeGEnJw-unsplash.jpg,1,NaN,,NaN,chosen,NaN,NaN,NaN,NaN,1900,0,9,3
44,53286,0,45,1,1,0,no_gain4,gain1,J,H,42,11,objects,outdoor_scenes,50,50,Stimuli/Experimental_stims/objects/jess-bailey-nOeVi8DsN8U-unsplash.jpg,Stimuli/Experimental_stims/outdoor_scenes/stephen-leonardi-gyIRjKPXupE-unsplash.jpg,1,NaN,,NaN,unchosen,NaN,NaN,NaN,NaN,2000,0,9,3
45,53286,0,46,1,1,0,no_gain2,gain1,A,H,0,16,outdoor_scenes,faces,50,50,Stimuli/Experimental_stims/outdoor_scenes/aleksandra-boguslawska-MS7KD9Ti7FQ-unsplash.jpg,Stimuli/Experimental_stims/faces/freddy-kearney-o-ioeoATbIM-unsplash.jpg,1,NaN,,NaN,chosen,NaN,NaN,NaN,NaN,2200,0,9,3
46,53286,0,47,1,1,0,no_gain5,gain5,C,D,7,41,outdoor_scenes,objects,50,50,Stimuli/Experimental_stims/outdoor_scenes/petr-vysohlid-9fqwGqGLUxc-unsplash.jpg,Stimuli/Experimental_stims/objects/insung-yoon-w2JtIQQXoRU-unsplash.jpg,1,NaN,,NaN,chosen,NaN,NaN,NaN,NaN,3000,0,9,3
47,53286,0,48,1,1,0,no_gain2,gain3,A,L,0,28,outdoor_scenes,body_parts,50,50,Stimuli/Experimental_stims/outdoor_scenes/aleksandra-boguslawska-MS7KD9Ti7FQ-unsplash.jpg,Stimuli/Experimental_stims/body_parts/ira-vishnevskaya-8DQAvdCby1I-unsplash.jpg,1,NaN,,NaN,chosen,NaN,NaN,NaN,NaN,4200,1,9,3
48,53286,0,49,1,1,0,no_gain6,gain3,K,L,36,20,objects,faces,50,50,Stimuli/Experimental_stims/objects/alexander-andrews-JYGnB9gTCls-unsplash.jpg,Stimuli/Experimental_stims/faces/justin-chen-J7Cf1Gch49E-unsplash.jpg,1,NaN,,NaN,unchosen,NaN,NaN,NaN,NaN,2100,0,9,3
49,53286,0,50,1,1,0,no_gain5,gain4,C,I,7,31,outdoor_scenes,body_parts,50,50,Stimuli/Experimental_stims/outdoor_scenes/petr-vysohlid-9fqwGqGLUxc-unsplash.jpg,Stimuli/Experimental_stims/body_parts/sincerely-media-VN6DbKajo5s-unsplash.jpg,1,NaN,,NaN,chosen,NaN,NaN,NaN,NaN,1800,0,9,3
50,53286,0,51,1,1,1,gain3,no_gain5,L,C,28,7,body_parts,outdoor_scenes,50,50,Stimuli/Experimental_stims/body_parts/ira-vishnevskaya-8DQAvdCby1I-unsplash.jpg,Stimuli/Experimental_stims/outdoor_scenes/petr-vysohlid-9fqwGqGLUxc-unsplash.jpg,1,NaN,,NaN,chosen,NaN,NaN,NaN,NaN,2400,0,9,3
51,53286,0,52,1,1,0,no_gain4,gain2,J,B,42,12,objects,faces,50,50,Stimuli/Experimental_stims/objects/jess-bailey-nOeVi8DsN8U-unsplash.jpg,Stimuli/Experimental_stims/faces/aiony-haust-jmATI5Q_YgY-unsplash.jpg,1,NaN,,NaN,unchosen,NaN,NaN,NaN,NaN,1100,0,9,3
52,53286,0,53,1,1,0,no_gain2,gain5,A,D,0,41,outdoor_scenes,objects,50,50,Stimuli/Experimental_stims/outdoor_scenes/aleksandra-boguslawska-MS7KD9Ti7FQ-unsplash.jpg,Stimuli/Experimental_stims/objects/insung-yoon-w2JtIQQXoRU-unsplash.jpg,1,NaN,,NaN,chosen,NaN,NaN,NaN,NaN,1100,0,9,3
53,53286,0,54,1,1,0,no_gain2,gain6,A,G,38,3,objects,outdoor_scenes,50,50,Stimuli/Experimental_stims/objects/art-lasovsky-8XddFc6NkBY-unsplash.jpg,Stimuli/Experimental_stims/outdoor_scenes/henry-be-NLF6hTe4PAg-unsplash.jpg,1,NaN,,NaN,unchosen,NaN,NaN,NaN,NaN,1100,0,9,3
54,53286,0,55,1,1,1,gain6,no_gain3,G,E,39,44,objects,objects,50,50,Stimuli/Experimental_stims/objects/charlesdeluvio-1-nx1QR5dTE-unsplash.jpg,Stimuli/Experimental_stims/objects/kuiye-chen-NuOGFo4PudE-unsplash.jpg,1,NaN,,NaN,chosen,NaN,NaN,NaN,NaN,3900,1,9,3
55,53286,0,56,1,1,0,no_gain1,gain5,F,D,25,15,body_parts,faces,50,50,Stimuli/Experimental_stims/body_parts/engin-akyurt-Q2rfH3GW39c-unsplash.jpg,Stimuli/Experimental_stims/faces/erik-lucatero-d2MSDujJl2g-unsplash.jpg,1,NaN,,NaN,unchosen,NaN,NaN,NaN,NaN,2100,0,9,3
56,53286,0,57,1,1,1,gain5,no_gain4,D,J,15,42,faces,objects,50,50,Stimuli/Experimental_stims/faces/erik-lucatero-d2MSDujJl2g-unsplash.jpg,Stimuli/Experimental_stims/objects/jess-bailey-nOeVi8DsN8U-unsplash.jpg,1,NaN,,NaN,unchosen,NaN,NaN,NaN,NaN,1000,0,9,3
57,53286,0,58,1,1,0,no_gain1,gain4,F,I,25,1,body_parts,outdoor_scenes,50,50,Stimuli/Experimental_stims/body_parts/engin-akyurt-Q2rfH3GW39c-unsplash.jpg,Stimuli/Experimental_stims/outdoor_scenes/ashim-d-silva-S2Q5mdOrrVc-unsplash.jpg,1,NaN,,NaN,unchosen,NaN,NaN,NaN,NaN,1200,0,9,3
58,53286,0,59,1,1,1,gain3,no_gain6,L,K,28,35,body_parts,body_parts,50,50,Stimuli/Experimental_stims/body_parts/ira-vishnevskaya-8DQAvdCby1I-unsplash.jpg,Stimuli/Experimental_stims/body_parts/wc-so-KH4AAPjb-tI-unsplash.jpg,1,NaN,,NaN,chosen,NaN,NaN,NaN,NaN,1300,0,9,3
59,53286,0,60,1,1,1,gain4,no_gain6,I,K,31,35,body_parts,body_parts,50,50,Stimuli/Experimental_stims/body_parts/sincerely-media-VN6DbKajo5s-unsplash.jpg,Stimuli/Experimental_stims/body_parts/wc-so-KH4AAPjb-tI-unsplash.jpg,1,NaN,,NaN,chosen,NaN,NaN,NaN,NaN,1300,0,9,3
60,53286,0,61,1,1,1,gain2,no_gain1,B,F,12,25,faces,body_parts,50,50,Stimuli/Experimental_stims/faces/aiony-haust-jmATI5Q_YgY-unsplash.jpg,Stimuli/Experimental_stims/body_parts/engin-akyurt-Q2rfH3GW39c-unsplash.jpg,1,NaN,,NaN,unchosen,NaN,NaN,NaN,NaN,3300,1,9,3
61,53286,0,62,1,1,1,gain2,no_gain3,B,E,12,24,faces,body_parts,50,50,Stimuli/Experimental_stims/faces/aiony-haust-jmATI5Q_YgY-unsplash.jpg,Stimuli/Experimental_stims/body_parts/clay-banks-LjqARJaJotc-unsplash.jpg,1,NaN,,NaN,unchosen,NaN,NaN,NaN,NaN,1100,0,9,3
62,53286,0,63,1,1,0,no_gain5,gain6,C,G,7,39,outdoor_scenes,objects,50,50,Stimuli/Experimental_stims/outdoor_scenes/petr-vysohlid-9fqwGqGLUxc-unsplash.jpg,Stimuli/Experimental_stims/objects/charlesdeluvio-1-nx1QR5dTE-unsplash.jpg,1,NaN,,NaN,chosen,NaN,NaN,NaN,NaN,1400,0,9,3
63,53286,0,64,1,1,0,no_gain2,gain4,A,I,0,31,outdoor_scenes,body_parts,50,50,Stimuli/Experimental_stims/outdoor_scenes/aleksandra-boguslawska-MS7KD9Ti7FQ-unsplash.jpg,Stimuli/Experimental_stims/body_parts/sincerely-media-VN6DbKajo5s-unsplash.jpg,1,NaN,,NaN,chosen,NaN,NaN,NaN,NaN,1400,0,9,3
64,53286,0,65,1,1,0,no_gain3,gain3,E,L,44,28,objects,body_parts,50,50,Stimuli/Experimental_stims/objects/kuiye-chen-NuOGFo4PudE-unsplash.jpg,Stimuli/Experimental_stims/body_parts/ira-vishnevskaya-8DQAvdCby1I-unsplash.jpg,1,NaN,,NaN,chosen,NaN,NaN,NaN,NaN,2700,0,9,3
65,53286,0,66,1,1,0,no_gain6,gain5,K,D,36,15,objects,faces,50,50,Stimuli/Experimental_stims/objects/alexander-andrews-JYGnB9gTCls-unsplash.jpg,Stimuli/Experimental_stims/faces/erik-lucatero-d2MSDujJl2g-unsplash.jpg,1,NaN,,NaN,unchosen,NaN,NaN,NaN,NaN,1500,0,9,3
66,53286,0,67,1,1,1,gain3,no_gain5,L,C,20,30,faces,body_parts,50,50,Stimuli/Experimental_stims/faces/justin-chen-J7Cf1Gch49E-unsplash.jpg,Stimuli/Experimental_stims/body_parts/mika-korhonen-Xodzxosar18-unsplash.jpg,1,NaN,,NaN,unchosen,NaN,NaN,NaN,NaN,3700,1,9,3
67,53286,0,68,1,1,0,no_gain1,gain1,F,H,25,11,body_parts,outdoor_scenes,50,50,Stimuli/Experimental_stims/body_parts/engin-akyurt-Q2rfH3GW39c-unsplash.jpg,Stimuli/Experimental_stims/outdoor_scenes/stephen-leonardi-gyIRjKPXupE-unsplash.jpg,1,NaN,,NaN,unchosen,NaN,NaN,NaN,NaN,2600,0,9,3
68,53286,0,69,1,1,1,gain4,no_gain3,I,E,31,44,body_parts,objects,50,50,Stimuli/Experimental_stims/body_parts/sincerely-media-VN6DbKajo5s-unsplash.jpg,Stimuli/Experimental_stims/objects/kuiye-chen-NuOGFo4PudE-unsplash.jpg,1,NaN,,NaN,chosen,NaN,NaN,NaN,NaN,1600,0,9,3
69,53286,0,70,1,1,1,gain6,no_gain3,G,E,3,24,outdoor_scenes,body_parts,50,50,Stimuli/Experimental_stims/outdoor_scenes/henry-be-NLF6hTe4PAg-unsplash.jpg,Stimuli/Experimental_stims/body_parts/clay-banks-LjqARJaJotc-unsplash.jpg,1,NaN,,NaN,unchosen,NaN,NaN,NaN,NaN,1100,0,9,3
70,53286,0,71,1,1,0,no_gain6,gain2,K,B,35,4,body_parts,outdoor_scenes,50,50,Stimuli/Experimental_stims/body_parts/wc-so-KH4AAPjb-tI-unsplash.jpg,Stimuli/Experimental_stims/outdoor_scenes/jarrett-kow-1ZOyYPOBn7I-unsplash.jpg,1,NaN,,NaN,chosen,NaN,NaN,NaN,NaN,1600,0,9,3
71,53286,0,72,1,1,0,no_gain6,gain1,K,H,35,16,body_parts,faces,50,50,Stimuli/Experimental_stims/body_parts/wc-so-KH4AAPjb-tI-unsplash.jpg,Stimuli/Experimental_stims/faces/freddy-kearney-o-ioeoATbIM-unsplash.jpg,1,NaN,,NaN,chosen,NaN,NaN,NaN,NaN,4400,1,9,3
72,53286,0,73,1,1,1,gain6,no_gain1,G,F,39,14,objects,faces,50,50,Stimuli/Experimental_stims/objects/charlesdeluvio-1-nx1QR5dTE-unsplash.jpg,Stimuli/Experimental_stims/faces/david-siglin-UuW4psOb388-unsplash.jpg,1,NaN,,NaN,chosen,NaN,NaN,NaN,NaN,1100,0,9,3
73,53286,0,74,1,1,0,no_gain5,gain6,C,G,30,3,body_parts,outdoor_scenes,50,50,Stimuli/Experimental_stims/body_parts/mika-korhonen-Xodzxosar18-unsplash.jpg,Stimuli/Experimental_stims/outdoor_scenes/henry-be-NLF6hTe4PAg-unsplash.jpg,1,NaN,,NaN,unchosen,NaN,NaN,NaN,NaN,1700,0,9,3
74,53286,0,75,1,1,1,gain5,no_gain2,D,A,15,38,faces,objects,50,50,Stimuli/Experimental_stims/faces/erik-lucatero-d2MSDujJl2g-unsplash.jpg,Stimuli/Experimental_stims/objects/art-lasovsky-8XddFc6NkBY-unsplash.jpg,1,NaN,,NaN,unchosen,NaN,NaN,NaN,NaN,2500,0,9,3
75,53286,0,76,1,1,1,gain1,no_gain3,H,E,11,24,outdoor_scenes,body_parts,50,50,Stimuli/Experimental_stims/outdoor_scenes/stephen-leonardi-gyIRjKPXupE-unsplash.jpg,Stimuli/Experimental_stims/body_parts/clay-banks-LjqARJaJotc-unsplash.jpg,1,NaN,,NaN,unchosen,NaN,NaN,NaN,NaN,2100,0,9,3
76,53286,0,77,2,2,0,no_gain2,gain4,A,I,38,1,objects,outdoor_scenes,50,50,Stimuli/Experimental_stims/objects/art-lasovsky-8XddFc6NkBY-unsplash.jpg,Stimuli/Experimental_stims/outdoor_scenes/ashim-d-silva-S2Q5mdOrrVc-unsplash.jpg,1,NaN,,NaN,unchosen,NaN,NaN,NaN,NaN,3800,1,9,3
77,53286,0,78,2,2,0,no_gain6,gain5,K,D,35,41,body_parts,objects,50,50,Stimuli/Experimental_stims/body_parts/wc-so-KH4AAPjb-tI-unsplash.jpg,Stimuli/Experimental_stims/objects/insung-yoon-w2JtIQQXoRU-unsplash.jpg,1,NaN,,NaN,chosen,NaN,NaN,NaN,NaN,1200,0,9,3
78,53286,0,79,2,2,0,no_gain5,gain5,C,D,7,41,outdoor_scenes,objects,50,50,Stimuli/Experimental_stims/outdoor_scenes/petr-vysohlid-9fqwGqGLUxc-unsplash.jpg,Stimuli/Experimental_stims/objects/insung-yoon-w2JtIQQXoRU-unsplash.jpg,1,NaN,,NaN,chosen,NaN,NaN,NaN,NaN,1200,0,9,3
79,53286,0,80,2,2,0,no_gain6,gain3,K,L,36,20,objects,faces,50,50,Stimuli/Experimental_stims/objects/alexander-andrews-JYGnB9gTCls-unsplash.jpg,Stimuli/Experimental_stims/faces/justin-chen-J7Cf1Gch49E-unsplash.jpg,1,NaN,,NaN,unchosen,NaN,NaN,NaN,NaN,2700,0,9,3
80,53286,0,81,2,2,0,no_gain2,gain6,A,G,0,39,outdoor_scenes,objects,50,50,Stimuli/Experimental_stims/outdoor_scenes/aleksandra-boguslawska-MS7KD9Ti7FQ-unsplash.jpg,Stimuli/Experimental_stims/objects/charlesdeluvio-1-nx1QR5dTE-unsplash.jpg,1,NaN,,NaN,chosen,NaN,NaN,NaN,NaN,2900,0,9,3
81,53286,0,82,2,2,1,gain6,no_gain4,G,J,3,42,outdoor_scenes,objects,50,50,Stimuli/Experimental_stims/outdoor_scenes/henry-be-NLF6hTe4PAg-unsplash.jpg,Stimuli/Experimental_stims/objects/jess-bailey-nOeVi8DsN8U-unsplash.jpg,1,NaN,,NaN,unchosen,NaN,NaN,NaN,NaN,1400,0,9,3
82,53286,0,83,2,2,1,gain2,no_gain1,B,F,4,14,outdoor_scenes,faces,50,50,Stimuli/Experimental_stims/outdoor_scenes/jarrett-kow-1ZOyYPOBn7I-unsplash.jpg,Stimuli/Experimental_stims/faces/david-siglin-UuW4psOb388-unsplash.jpg,1,NaN,,NaN,chosen,NaN,NaN,NaN,NaN,1100,0,9,3
83,53286,0,84,2,2,0,no_gain5,gain3,C,L,7,28,outdoor_scenes,body_parts,50,50,Stimuli/Experimental_stims/outdoor_scenes/petr-vysohlid-9fqwGqGLUxc-unsplash.jpg,Stimuli/Experimental_stims/body_parts/ira-vishnevskaya-8DQAvdCby1I-unsplash.jpg,1,NaN,,NaN,chosen,NaN,NaN,NaN,NaN,2400,0,9,3
84,53286,0,85,2,2,1,gain6,no_gain3,G,E,3,24,outdoor_scenes,body_parts,50,50,Stimuli/Experimental_stims/outdoor_scenes/henry-be-NLF6hTe4PAg-unsplash.jpg,Stimuli/Experimental_stims/body_parts/clay-banks-LjqARJaJotc-unsplash.jpg,1,NaN,,NaN,unchosen,NaN,NaN,NaN,NaN,2400,0,9,3
85,53286,0,86,2,2,1,gain5,no_gain1,D,F,41,14,objects,faces,50,50,Stimuli/Experimental_stims/objects/insung-yoon-w2JtIQQXoRU-unsplash.jpg,Stimuli/Experimental_stims/faces/david-siglin-UuW4psOb388-unsplash.jpg,1,NaN,,NaN,chosen,NaN,NaN,NaN,NaN,1400,0,9,3
86,53286,0,87,2,2,0,no_gain3,gain1,E,H,44,16,objects,faces,50,50,Stimuli/Experimental_stims/objects/kuiye-chen-NuOGFo4PudE-unsplash.jpg,Stimuli/Experimental_stims/faces/freddy-kearney-o-ioeoATbIM-unsplash.jpg,1,NaN,,NaN,chosen,NaN,NaN,NaN,NaN,3000,1,9,3
87,53286,0,88,2,2,0,no_gain5,gain1,C,H,30,11,body_parts,outdoor_scenes,50,50,Stimuli/Experimental_stims/body_parts/mika-korhonen-Xodzxosar18-unsplash.jpg,Stimuli/Experimental_stims/outdoor_scenes/stephen-leonardi-gyIRjKPXupE-unsplash.jpg,1,NaN,,NaN,unchosen,NaN,NaN,NaN,NaN,1000,0,9,3
88,53286,0,89,2,2,0,no_gain5,gain4,C,I,30,1,body_parts,outdoor_scenes,50,50,Stimuli/Experimental_stims/body_parts/mika-korhonen-Xodzxosar18-unsplash.jpg,Stimuli/Experimental_stims/outdoor_scenes/ashim-d-silva-S2Q5mdOrrVc-unsplash.jpg,1,NaN,,NaN,unchosen,NaN,NaN,NaN,NaN,1100,0,9,3
89,53286,0,90,2,2,0,no_gain3,gain2,E,B,24,12,body_parts,faces,50,50,Stimuli/Experimental_stims/body_parts/clay-banks-LjqARJaJotc-unsplash.jpg,Stimuli/Experimental_stims/faces/aiony-haust-jmATI5Q_YgY-unsplash.jpg,1,NaN,,NaN,unchosen,NaN,NaN,NaN,NaN,2200,0,9,3
90,53286,0,91,2,2,1,gain1,no_gain6,H,K,16,35,faces,body_parts,50,50,Stimuli/Experimental_stims/faces/freddy-kearney-o-ioeoATbIM-unsplash.jpg,Stimuli/Experimental_stims/body_parts/wc-so-KH4AAPjb-tI-unsplash.jpg,1,NaN,,NaN,chosen,NaN,NaN,NaN,NaN,1600,0,9,3
91,53286,0,92,2,2,1,gain2,no_gain6,B,K,12,36,faces,objects,50,50,Stimuli/Experimental_stims/faces/aiony-haust-jmATI5Q_YgY-unsplash.jpg,Stimuli/Experimental_stims/objects/alexander-andrews-JYGnB9gTCls-unsplash.jpg,1,NaN,,NaN,unchosen,NaN,NaN,NaN,NaN,3200,1,9,3
92,53286,0,93,2,2,0,no_gain5,gain6,C,G,30,3,body_parts,outdoor_scenes,50,50,Stimuli/Experimental_stims/body_parts/mika-korhonen-Xodzxosar18-unsplash.jpg,Stimuli/Experimental_stims/outdoor_scenes/henry-be-NLF6hTe4PAg-unsplash.jpg,1,NaN,,NaN,unchosen,NaN,NaN,NaN,NaN,2100,0,9,3
93,53286,0,94,2,2,1,gain3,no_gain3,L,E,20,24,faces,body_parts,50,50,Stimuli/Experimental_stims/faces/justin-chen-J7Cf1Gch49E-unsplash.jpg,Stimuli/Experimental_stims/body_parts/clay-banks-LjqARJaJotc-unsplash.jpg,1,NaN,,NaN,unchosen,NaN,NaN,NaN,NaN,1100,0,9,3
94,53286,0,95,2,2,0,no_gain2,gain3,A,L,0,28,outdoor_scenes,body_parts,50,50,Stimuli/Experimental_stims/outdoor_scenes/aleksandra-boguslawska-MS7KD9Ti7FQ-unsplash.jpg,Stimuli/Experimental_stims/body_parts/ira-vishnevskaya-8DQAvdCby1I-unsplash.jpg,1,NaN,,NaN,chosen,NaN,NaN,NaN,NaN,2800,0,9,3
95,53286,0,96,2,2,1,gain1,no_gain4,H,J,11,42,outdoor_scenes,objects,50,50,Stimuli/Experimental_stims/outdoor_scenes/stephen-leonardi-gyIRjKPXupE-unsplash.jpg,Stimuli/Experimental_stims/objects/jess-bailey-nOeVi8DsN8U-unsplash.jpg,1,NaN,,NaN,unchosen,NaN,NaN,NaN,NaN,1100,0,9,3
96,53286,0,97,2,2,0,no_gain3,gain4,E,I,44,31,objects,body_parts,50,50,Stimuli/Experimental_stims/objects/kuiye-chen-NuOGFo4PudE-unsplash.jpg,Stimuli/Experimental_stims/body_parts/sincerely-media-VN6DbKajo5s-unsplash.jpg,1,NaN,,NaN,chosen,NaN,NaN,NaN,NaN,4900,1,9,3
97,53286,0,98,2,2,1,gain3,no_gain3,L,E,28,44,body_parts,objects,50,50,Stimuli/Experimental_stims/body_parts/ira-vishnevskaya-8DQAvdCby1I-unsplash.jpg,Stimuli/Experimental_stims/objects/kuiye-chen-NuOGFo4PudE-unsplash.jpg,1,NaN,,NaN,chosen,NaN,NaN,NaN,NaN,1200,0,9,3
98,53286,0,99,2,2,0,no_gain5,gain5,C,D,30,15,body_parts,faces,50,50,Stimuli/Experimental_stims/body_parts/mika-korhonen-Xodzxosar18-unsplash.jpg,Stimuli/Experimental_stims/faces/erik-lucatero-d2MSDujJl2g-unsplash.jpg,1,NaN,,NaN,unchosen,NaN,NaN,NaN,NaN,1200,0,9,3
99,53286,0,100,2,2,1,gain4,no_gain5,I,C,31,7,body_parts,outdoor_scenes,50,50,Stimuli/Experimental_stims/body_parts/sincerely-media-VN6DbKajo5s-unsplash.jpg,Stimuli/Experimental_stims/outdoor_scenes/petr-vysohlid-9fqwGqGLUxc-unsplash.jpg,1,NaN,,NaN,chosen,NaN,NaN,NaN,NaN,1900,0,9,3
100,53286,0,101,2,2,0,no_gain6,gain4,K,I,35,31,body_parts,body_parts,50,50,Stimuli/Experimental_stims/body_parts/wc-so-KH4AAPjb-tI-unsplash.jpg,Stimuli/Experimental_stims/body_parts/sincerely-media-VN6DbKajo5s-unsplash.jpg,1,NaN,,NaN,chosen,NaN,NaN,NaN,NaN,1500,0,9,3
101,53286,0,102,2,2,0,no_gain5,gain2,C,B,30,12,body_parts,faces,50,50,Stimuli/Experimental_stims/body_parts/mika-korhonen-Xodzxosar18-unsplash.jpg,Stimuli/Experimental_stims/faces/aiony-haust-jmATI5Q_YgY-unsplash.jpg,1,NaN,,NaN,unchosen,NaN,NaN,NaN,NaN,1600,0,9,3
102,53286,0,103,2,2,0,no_gain5,gain6,C,G,7,39,outdoor_scenes,objects,50,50,Stimuli/Experimental_stims/outdoor_scenes/petr-vysohlid-9fqwGqGLUxc-unsplash.jpg,Stimuli/Experimental_stims/objects/charlesdeluvio-1-nx1QR5dTE-unsplash.jpg,1,NaN,,NaN,chosen,NaN,NaN,NaN,NaN,1500,0,9,3
103,53286,0,104,2,2,1,gain4,no_gain3,I,E,1,24,outdoor_scenes,body_parts,50,50,Stimuli/Experimental_stims/outdoor_scenes/ashim-d-silva-S2Q5mdOrrVc-unsplash.jpg,Stimuli/Experimental_stims/body_parts/clay-banks-LjqARJaJotc-unsplash.jpg,1,NaN,,NaN,unchosen,NaN,NaN,NaN,NaN,2000,0,9,3
104,53286,0,105,2,2,1,gain2,no_gain4,B,J,4,17,outdoor_scenes,faces,50,50,Stimuli/Experimental_stims/outdoor_scenes/jarrett-kow-1ZOyYPOBn7I-unsplash.jpg,Stimuli/Experimental_stims/faces/good-faces-xmSWVeGEnJw-unsplash.jpg,1,NaN,,NaN,chosen,NaN,NaN,NaN,NaN,2000,0,9,3
105,53286,0,106,2,2,0,no_gain2,gain1,A,H,0,16,outdoor_scenes,faces,50,50,Stimuli/Experimental_stims/outdoor_scenes/aleksandra-boguslawska-MS7KD9Ti7FQ-unsplash.jpg,Stimuli/Experimental_stims/faces/freddy-kearney-o-ioeoATbIM-unsplash.jpg,1,NaN,,NaN,chosen,NaN,NaN,NaN,NaN,3400,1,9,3
106,53286,0,107,2,2,1,gain1,no_gain6,H,K,11,36,outdoor_scenes,objects,50,50,Stimuli/Experimental_stims/outdoor_scenes/stephen-leonardi-gyIRjKPXupE-unsplash.jpg,Stimuli/Experimental_stims/objects/alexander-andrews-JYGnB9gTCls-unsplash.jpg,1,NaN,,NaN,unchosen,NaN,NaN,NaN,NaN,1600,0,9,3
107,53286,0,108,2,2,0,no_gain1,gain3,F,L,25,20,body_parts,faces,50,50,Stimuli/Experimental_stims/body_parts/engin-akyurt-Q2rfH3GW39c-unsplash.jpg,Stimuli/Experimental_stims/faces/justin-chen-J7Cf1Gch49E-unsplash.jpg,1,NaN,,NaN,unchosen,NaN,NaN,NaN,NaN,2400,0,9,3
108,53286,0,109,2,2,0,no_gain5,gain2,C,B,7,4,outdoor_scenes,outdoor_scenes,50,50,Stimuli/Experimental_stims/outdoor_scenes/petr-vysohlid-9fqwGqGLUxc-unsplash.jpg,Stimuli/Experimental_stims/outdoor_scenes/jarrett-kow-1ZOyYPOBn7I-unsplash.jpg,1,NaN,,NaN,chosen,NaN,NaN,NaN,NaN,2900,0,9,3
109,53286,0,110,2,2,1,gain2,no_gain2,B,A,4,0,outdoor_scenes,outdoor_scenes,50,50,Stimuli/Experimental_stims/outdoor_scenes/jarrett-kow-1ZOyYPOBn7I-unsplash.jpg,Stimuli/Experimental_stims/outdoor_scenes/aleksandra-boguslawska-MS7KD9Ti7FQ-unsplash.jpg,1,NaN,,NaN,chosen,NaN,NaN,NaN,NaN,2100,0,9,3
110,53286,0,111,2,2,1,gain5,no_gain6,D,K,15,36,faces,objects,50,50,Stimuli/Experimental_stims/faces/erik-lucatero-d2MSDujJl2g-unsplash.jpg,Stimuli/Experimental_stims/objects/alexander-andrews-JYGnB9gTCls-unsplash.jpg,1,NaN,,NaN,unchosen,NaN,NaN,NaN,NaN,3600,1,9,3
111,53286,0,112,2,2,1,gain6,no_gain4,G,J,39,17,objects,faces,50,50,Stimuli/Experimental_stims/objects/charlesdeluvio-1-nx1QR5dTE-unsplash.jpg,Stimuli/Experimental_stims/faces/good-faces-xmSWVeGEnJw-unsplash.jpg,1,NaN,,NaN,chosen,NaN,NaN,NaN,NaN,1900,0,9,3
112,53286,0,113,2,2,1,gain3,no_gain1,L,F,28,14,body_parts,faces,50,50,Stimuli/Experimental_stims/body_parts/ira-vishnevskaya-8DQAvdCby1I-unsplash.jpg,Stimuli/Experimental_stims/faces/david-siglin-UuW4psOb388-unsplash.jpg,1,NaN,,NaN,chosen,NaN,NaN,NaN,NaN,1000,0,9,3
113,53286,0,114,2,2,0,no_gain6,gain2,K,B,35,4,body_parts,outdoor_scenes,50,50,Stimuli/Experimental_stims/body_parts/wc-so-KH4AAPjb-tI-unsplash.jpg,Stimuli/Experimental_stims/outdoor_scenes/jarrett-kow-1ZOyYPOBn7I-unsplash.jpg,1,NaN,,NaN,chosen,NaN,NaN,NaN,NaN,1500,0,9,3
114,53286,0,115,2,2,1,gain1,no_gain3,H,E,11,24,outdoor_scenes,body_parts,50,50,Stimuli/Experimental_stims/outdoor_scenes/stephen-leonardi-gyIRjKPXupE-unsplash.jpg,Stimuli/Experimental_stims/body_parts/clay-banks-LjqARJaJotc-unsplash.jpg,1,NaN,,NaN,unchosen,NaN,NaN,NaN,NaN,1600,0,9,3
115,53286,0,116,2,2,0,no_gain1,gain1,F,H,25,11,body_parts,outdoor_scenes,50,50,Stimuli/Experimental_stims/body_parts/engin-akyurt-Q2rfH3GW39c-unsplash.jpg,Stimuli/Experimental_stims/outdoor_scenes/stephen-leonardi-gyIRjKPXupE-unsplash.jpg,1,NaN,,NaN,unchosen,NaN,NaN,NaN,NaN,1100,0,9,3
116,53286,0,117,2,2,1,gain6,no_gain1,G,F,39,14,objects,faces,50,50,Stimuli/Experimental_stims/objects/charlesdeluvio-1-nx1QR5dTE-unsplash.jpg,Stimuli/Experimental_stims/faces/david-siglin-UuW4psOb388-unsplash.jpg,1,NaN,,NaN,chosen,NaN,NaN,NaN,NaN,4400,1,9,3
117,53286,0,118,2,2,1,gain3,no_gain6,L,K,28,35,body_parts,body_parts,50,50,Stimuli/Experimental_stims/body_parts/ira-vishnevskaya-8DQAvdCby1I-unsplash.jpg,Stimuli/Experimental_stims/body_parts/wc-so-KH4AAPjb-tI-unsplash.jpg,1,NaN,,NaN,chosen,NaN,NaN,NaN,NaN,1100,0,9,3
118,53286,0,119,2,2,1,gain3,no_gain4,L,J,20,42,faces,objects,50,50,Stimuli/Experimental_stims/faces/justin-chen-J7Cf1Gch49E-unsplash.jpg,Stimuli/Experimental_stims/objects/jess-bailey-nOeVi8DsN8U-unsplash.jpg,1,NaN,,NaN,unchosen,NaN,NaN,NaN,NaN,1200,0,9,3
119,53286,0,120,2,2,0,no_gain4,gain1,J,H,17,16,faces,faces,50,50,Stimuli/Experimental_stims/faces/good-faces-xmSWVeGEnJw-unsplash.jpg,Stimuli/Experimental_stims/faces/freddy-kearney-o-ioeoATbIM-unsplash.jpg,1,NaN,,NaN,chosen,NaN,NaN,NaN,NaN,1000,0,9,3
120,53286,0,121,2,2,0,no_gain3,gain5,E,D,24,15,body_parts,faces,50,50,Stimuli/Experimental_stims/body_parts/clay-banks-LjqARJaJotc-unsplash.jpg,Stimuli/Experimental_stims/faces/erik-lucatero-d2MSDujJl2g-unsplash.jpg,1,NaN,,NaN,unchosen,NaN,NaN,NaN,NaN,1500,0,9,3
121,53286,0,122,2,2,0,no_gain1,gain4,F,I,25,1,body_parts,outdoor_scenes,50,50,Stimuli/Experimental_stims/body_parts/engin-akyurt-Q2rfH3GW39c-unsplash.jpg,Stimuli/Experimental_stims/outdoor_scenes/ashim-d-silva-S2Q5mdOrrVc-unsplash.jpg,1,NaN,,NaN,unchosen,NaN,NaN,NaN,NaN,2000,0,9,3
122,53286,0,123,2,2,0,no_gain4,gain3,J,L,17,28,faces,body_parts,50,50,Stimuli/Experimental_stims/faces/good-faces-xmSWVeGEnJw-unsplash.jpg,Stimuli/Experimental_stims/body_parts/ira-vishnevskaya-8DQAvdCby1I-unsplash.jpg,1,NaN,,NaN,chosen,NaN,NaN,NaN,NaN,3700,1,9,3
123,53286,0,124,2,2,0,no_gain1,gain2,F,B,25,12,body_parts,faces,50,50,Stimuli/Experimental_stims/body_parts/engin-akyurt-Q2rfH3GW39c-unsplash.jpg,Stimuli/Experimental_stims/faces/aiony-haust-jmATI5Q_YgY-unsplash.jpg,1,NaN,,NaN,unchosen,NaN,NaN,NaN,NaN,2100,0,9,3
124,53286,0,125,2,2,1,gain5,no_gain1,D,F,15,25,faces,body_parts,50,50,Stimuli/Experimental_stims/faces/erik-lucatero-d2MSDujJl2g-unsplash.jpg,Stimuli/Experimental_stims/body_parts/engin-akyurt-Q2rfH3GW39c-unsplash.jpg,1,NaN,,NaN,unchosen,NaN,NaN,NaN,NaN,1100,0,9,3
125,53286,0,126,2,2,1,gain5,no_gain3,D,E,41,44,objects,objects,50,50,Stimuli/Experimental_stims/objects/insung-yoon-w2JtIQQXoRU-unsplash.jpg,Stimuli/Experimental_stims/objects/kuiye-chen-NuOGFo4PudE-unsplash.jpg,1,NaN,,NaN,chosen,NaN,NaN,NaN,NaN,1500,0,9,3
126,53286,0,127,2,2,0,no_gain5,gain1,C,H,7,16,outdoor_scenes,faces,50,50,Stimuli/Experimental_stims/outdoor_scenes/petr-vysohlid-9fqwGqGLUxc-unsplash.jpg,Stimuli/Experimental_stims/faces/freddy-kearney-o-ioeoATbIM-unsplash.jpg,1,NaN,,NaN,chosen,NaN,NaN,NaN,NaN,1900,0,9,3
127,53286,0,128,2,2,0,no_gain2,gain6,A,G,38,3,objects,outdoor_scenes,50,50,Stimuli/Experimental_stims/objects/art-lasovsky-8XddFc6NkBY-unsplash.jpg,Stimuli/Experimental_stims/outdoor_scenes/henry-be-NLF6hTe4PAg-unsplash.jpg,1,NaN,,NaN,unchosen,NaN,NaN,NaN,NaN,1600,0,9,3
128,53286,0,129,2,2,1,gain5,no_gain4,D,J,15,42,faces,objects,50,50,Stimuli/Experimental_stims/faces/erik-lucatero-d2MSDujJl2g-unsplash.jpg,Stimuli/Experimental_stims/objects/jess-bailey-nOeVi8DsN8U-unsplash.jpg,1,NaN,,NaN,unchosen,NaN,NaN,NaN,NaN,3100,1,9,3
129,53286,0,130,2,2,0,no_gain1,gain1,F,H,14,16,faces,faces,50,50,Stimuli/Experimental_stims/faces/david-siglin-UuW4psOb388-unsplash.jpg,Stimuli/Experimental_stims/faces/freddy-kearney-o-ioeoATbIM-unsplash.jpg,1,NaN,,NaN,chosen,NaN,NaN,NaN,NaN,2800,0,9,3
130,53286,0,131,2,2,1,gain5,no_gain4,D,J,41,17,objects,faces,50,50,Stimuli/Experimental_stims/objects/insung-yoon-w2JtIQQXoRU-unsplash.jpg,Stimuli/Experimental_stims/faces/good-faces-xmSWVeGEnJw-unsplash.jpg,1,NaN,,NaN,chosen,NaN,NaN,NaN,NaN,1800,0,9,3
131,53286,0,132,2,2,0,no_gain6,gain6,K,G,36,3,objects,outdoor_scenes,50,50,Stimuli/Experimental_stims/objects/alexander-andrews-JYGnB9gTCls-unsplash.jpg,Stimuli/Experimental_stims/outdoor_scenes/henry-be-NLF6hTe4PAg-unsplash.jpg,1,NaN,,NaN,unchosen,NaN,NaN,NaN,NaN,2100,0,9,3
132,53286,0,133,2,2,1,gain6,no_gain3,G,E,39,44,objects,objects,50,50,Stimuli/Experimental_stims/objects/charlesdeluvio-1-nx1QR5dTE-unsplash.jpg,Stimuli/Experimental_stims/objects/kuiye-chen-NuOGFo4PudE-unsplash.jpg,1,NaN,,NaN,chosen,NaN,NaN,NaN,NaN,2100,0,9,3
133,53286,0,134,2,2,0,no_gain2,gain5,A,D,0,41,outdoor_scenes,objects,50,50,Stimuli/Experimental_stims/outdoor_scenes/aleksandra-boguslawska-MS7KD9Ti7FQ-unsplash.jpg,Stimuli/Experimental_stims/objects/insung-yoon-w2JtIQQXoRU-unsplash.jpg,1,NaN,,NaN,chosen,NaN,NaN,NaN,NaN,1600,0,9,3
134,53286,0,135,2,2,0,no_gain4,gain2,J,B,42,12,objects,faces,50,50,Stimuli/Experimental_stims/objects/jess-bailey-nOeVi8DsN8U-unsplash.jpg,Stimuli/Experimental_stims/faces/aiony-haust-jmATI5Q_YgY-unsplash.jpg,1,NaN,,NaN,unchosen,NaN,NaN,NaN,NaN,2600,0,9,3
135,53286,0,136,2,2,1,gain4,no_gain4,I,J,31,17,body_parts,faces,50,50,Stimuli/Experimental_stims/body_parts/sincerely-media-VN6DbKajo5s-unsplash.jpg,Stimuli/Experimental_stims/faces/good-faces-xmSWVeGEnJw-unsplash.jpg,1,NaN,,NaN,chosen,NaN,NaN,NaN,NaN,1100,0,9,3
136,53286,0,137,2,2,0,no_gain2,gain2,A,B,38,12,objects,faces,50,50,Stimuli/Experimental_stims/objects/art-lasovsky-8XddFc6NkBY-unsplash.jpg,Stimuli/Experimental_stims/faces/aiony-haust-jmATI5Q_YgY-unsplash.jpg,1,NaN,,NaN,unchosen,NaN,NaN,NaN,NaN,2700,0,9,3
137,53286,0,138,2,2,1,gain4,no_gain6,I,K,1,36,outdoor_scenes,objects,50,50,Stimuli/Experimental_stims/outdoor_scenes/ashim-d-silva-S2Q5mdOrrVc-unsplash.jpg,Stimuli/Experimental_stims/objects/alexander-andrews-JYGnB9gTCls-unsplash.jpg,1,NaN,,NaN,unchosen,NaN,NaN,NaN,NaN,1500,0,9,3
138,53286,0,139,2,2,1,gain3,no_gain5,L,C,20,30,faces,body_parts,50,50,Stimuli/Experimental_stims/faces/justin-chen-J7Cf1Gch49E-unsplash.jpg,Stimuli/Experimental_stims/body_parts/mika-korhonen-Xodzxosar18-unsplash.jpg,1,NaN,,NaN,unchosen,NaN,NaN,NaN,NaN,1100,0,9,3
139,53286,0,140,2,2,1,gain4,no_gain1,I,F,31,14,body_parts,faces,50,50,Stimuli/Experimental_stims/body_parts/sincerely-media-VN6DbKajo5s-unsplash.jpg,Stimuli/Experimental_stims/faces/david-siglin-UuW4psOb388-unsplash.jpg,1,NaN,,NaN,chosen,NaN,NaN,NaN,NaN,1200,0,9,3
140,53286,0,141,2,2,1,gain3,no_gain2,L,A,20,38,faces,objects,50,50,Stimuli/Experimental_stims/faces/justin-chen-J7Cf1Gch49E-unsplash.jpg,Stimuli/Experimental_stims/objects/art-lasovsky-8XddFc6NkBY-unsplash.jpg,1,NaN,,NaN,unchosen,NaN,NaN,NaN,NaN,1200,0,9,3
141,53286,0,142,2,2,0,no_gain2,gain1,A,H,38,11,objects,outdoor_scenes,50,50,Stimuli/Experimental_stims/objects/art-lasovsky-8XddFc6NkBY-unsplash.jpg,Stimuli/Experimental_stims/outdoor_scenes/stephen-leonardi-gyIRjKPXupE-unsplash.jpg,1,NaN,,NaN,unchosen,NaN,NaN,NaN,NaN,4600,1,9,3
142,53286,0,143,2,2,1,gain6,no_gain6,G,K,39,35,objects,body_parts,50,50,Stimuli/Experimental_stims/objects/charlesdeluvio-1-nx1QR5dTE-unsplash.jpg,Stimuli/Experimental_stims/body_parts/wc-so-KH4AAPjb-tI-unsplash.jpg,1,NaN,,NaN,chosen,NaN,NaN,NaN,NaN,2000,0,9,3
143,53286,0,144,2,2,1,gain4,no_gain4,I,J,1,42,outdoor_scenes,objects,50,50,Stimuli/Experimental_stims/outdoor_scenes/ashim-d-silva-S2Q5mdOrrVc-unsplash.jpg,Stimuli/Experimental_stims/objects/jess-bailey-nOeVi8DsN8U-unsplash.jpg,1,NaN,,NaN,unchosen,NaN,NaN,NaN,NaN,1700,0,9,3
144,53286,0,145,2,2,1,gain6,no_gain1,G,F,3,25,outdoor_scenes,body_parts,50,50,Stimuli/Experimental_stims/outdoor_scenes/henry-be-NLF6hTe4PAg-unsplash.jpg,Stimuli/Experimental_stims/body_parts/engin-akyurt-Q2rfH3GW39c-unsplash.jpg,1,NaN,,NaN,unchosen,NaN,NaN,NaN,NaN,1300,0,9,3
145,53286,0,146,2,2,0,no_gain2,gain4,A,I,0,31,outdoor_scenes,body_parts,50,50,Stimuli/Experimental_stims/outdoor_scenes/aleksandra-boguslawska-MS7KD9Ti7FQ-unsplash.jpg,Stimuli/Experimental_stims/body_parts/sincerely-media-VN6DbKajo5s-unsplash.jpg,1,NaN,,NaN,chosen,NaN,NaN,NaN,NaN,1300,0,9,3
146,53286,0,147,2,2,1,gain5,no_gain2,D,A,15,38,faces,objects,50,50,Stimuli/Experimental_stims/faces/erik-lucatero-d2MSDujJl2g-unsplash.jpg,Stimuli/Experimental_stims/objects/art-lasovsky-8XddFc6NkBY-unsplash.jpg,1,NaN,,NaN,unchosen,NaN,NaN,NaN,NaN,1600,0,9,3
147,53286,0,148,2,2,1,gain2,no_gain3,B,E,4,44,outdoor_scenes,objects,50,50,Stimuli/Experimental_stims/outdoor_scenes/jarrett-kow-1ZOyYPOBn7I-unsplash.jpg,Stimuli/Experimental_stims/objects/kuiye-chen-NuOGFo4PudE-unsplash.jpg,1,NaN,,NaN,chosen,NaN,NaN,NaN,NaN,2900,0,9,3
148,53286,0,149,3,3,0,no_gain1,gain2,F,B,25,12,body_parts,faces,50,50,Stimuli/Experimental_stims/body_parts/engin-akyurt-Q2rfH3GW39c-unsplash.jpg,Stimuli/Experimental_stims/faces/aiony-haust-jmATI5Q_YgY-unsplash.jpg,0,1,410,0,unchosen,25,12,body_parts,faces,2500,0,3,3
149,53286,0,150,3,3,0,no_gain2,gain5,A,D,0,41,outdoor_scenes,objects,50,50,Stimuli/Experimental_stims/outdoor_scenes/aleksandra-boguslawska-MS7KD9Ti7FQ-unsplash.jpg,Stimuli/Experimental_stims/objects/insung-yoon-w2JtIQQXoRU-unsplash.jpg,0,1,114,0,chosen,0,41,outdoor_scenes,objects,1500,0,3,3
150,53286,0,151,3,3,0,no_gain5,gain1,C,H,30,11,body_parts,outdoor_scenes,50,50,Stimuli/Experimental_stims/body_parts/mika-korhonen-Xodzxosar18-unsplash.jpg,Stimuli/Experimental_stims/outdoor_scenes/stephen-leonardi-gyIRjKPXupE-unsplash.jpg,1,NaN,,NaN,unchosen,NaN,NaN,NaN,NaN,1000,0,3,3
151,53286,0,152,3,3,1,gain3,no_gain3,L,E,20,24,faces,body_parts,50,50,Stimuli/Experimental_stims/faces/justin-chen-J7Cf1Gch49E-unsplash.jpg,Stimuli/Experimental_stims/body_parts/clay-banks-LjqARJaJotc-unsplash.jpg,1,NaN,,NaN,unchosen,NaN,NaN,NaN,NaN,2000,0,3,3
152,53286,0,153,3,3,0,no_gain4,gain3,J,L,42,20,objects,faces,50,50,Stimuli/Experimental_stims/objects/jess-bailey-nOeVi8DsN8U-unsplash.jpg,Stimuli/Experimental_stims/faces/justin-chen-J7Cf1Gch49E-unsplash.jpg,1,NaN,,NaN,unchosen,NaN,NaN,NaN,NaN,1600,0,3,3
153,53286,0,154,3,3,0,no_gain6,gain5,K,D,35,41,body_parts,objects,50,50,Stimuli/Experimental_stims/body_parts/wc-so-KH4AAPjb-tI-unsplash.jpg,Stimuli/Experimental_stims/objects/insung-yoon-w2JtIQQXoRU-unsplash.jpg,1,NaN,,NaN,chosen,NaN,NaN,NaN,NaN,5000,1,3,3
154,53286,0,155,3,3,1,gain5,no_gain5,D,C,15,30,faces,body_parts,50,50,Stimuli/Experimental_stims/faces/erik-lucatero-d2MSDujJl2g-unsplash.jpg,Stimuli/Experimental_stims/body_parts/mika-korhonen-Xodzxosar18-unsplash.jpg,1,NaN,,NaN,unchosen,NaN,NaN,NaN,NaN,1500,0,3,3
155,53286,0,156,3,3,0,no_gain4,gain4,J,I,17,31,faces,body_parts,50,50,Stimuli/Experimental_stims/faces/good-faces-xmSWVeGEnJw-unsplash.jpg,Stimuli/Experimental_stims/body_parts/sincerely-media-VN6DbKajo5s-unsplash.jpg,1,NaN,,NaN,chosen,NaN,NaN,NaN,NaN,1800,0,3,3
156,53286,0,157,3,3,0,no_gain6,gain1,K,H,35,16,body_parts,faces,50,50,Stimuli/Experimental_stims/body_parts/wc-so-KH4AAPjb-tI-unsplash.jpg,Stimuli/Experimental_stims/faces/freddy-kearney-o-ioeoATbIM-unsplash.jpg,1,NaN,,NaN,chosen,NaN,NaN,NaN,NaN,1900,0,3,3
157,53286,0,158,3,3,1,gain6,no_gain5,G,C,3,30,outdoor_scenes,body_parts,50,50,Stimuli/Experimental_stims/outdoor_scenes/henry-be-NLF6hTe4PAg-unsplash.jpg,Stimuli/Experimental_stims/body_parts/mika-korhonen-Xodzxosar18-unsplash.jpg,1,NaN,,NaN,unchosen,NaN,NaN,NaN,NaN,2000,0,3,3
158,53286,0,159,3,3,1,gain1,no_gain5,H,C,16,7,faces,outdoor_scenes,50,50,Stimuli/Experimental_stims/faces/freddy-kearney-o-ioeoATbIM-unsplash.jpg,Stimuli/Experimental_stims/outdoor_scenes/petr-vysohlid-9fqwGqGLUxc-unsplash.jpg,1,NaN,,NaN,chosen,NaN,NaN,NaN,NaN,1300,0,3,3
159,53286,0,160,3,3,0,no_gain5,gain4,C,I,7,31,outdoor_scenes,body_parts,50,50,Stimuli/Experimental_stims/outdoor_scenes/petr-vysohlid-9fqwGqGLUxc-unsplash.jpg,Stimuli/Experimental_stims/body_parts/sincerely-media-VN6DbKajo5s-unsplash.jpg,1,NaN,,NaN,chosen,NaN,NaN,NaN,NaN,2700,0,3,3
160,53286,0,161,3,3,0,no_gain3,gain4,E,I,44,31,objects,body_parts,50,50,Stimuli/Experimental_stims/objects/kuiye-chen-NuOGFo4PudE-unsplash.jpg,Stimuli/Experimental_stims/body_parts/sincerely-media-VN6DbKajo5s-unsplash.jpg,1,NaN,,NaN,chosen,NaN,NaN,NaN,NaN,1600,0,3,3
161,53286,0,162,3,3,1,gain4,no_gain3,I,E,1,24,outdoor_scenes,body_parts,50,50,Stimuli/Experimental_stims/outdoor_scenes/ashim-d-silva-S2Q5mdOrrVc-unsplash.jpg,Stimuli/Experimental_stims/body_parts/clay-banks-LjqARJaJotc-unsplash.jpg,1,NaN,,NaN,unchosen,NaN,NaN,NaN,NaN,4000,1,3,3
162,53286,0,163,3,3,0,no_gain1,gain3,F,L,14,28,faces,body_parts,50,50,Stimuli/Experimental_stims/faces/david-siglin-UuW4psOb388-unsplash.jpg,Stimuli/Experimental_stims/body_parts/ira-vishnevskaya-8DQAvdCby1I-unsplash.jpg,1,NaN,,NaN,chosen,NaN,NaN,NaN,NaN,1900,0,3,3
163,53286,0,164,3,3,0,no_gain4,gain5,J,D,42,15,objects,faces,50,50,Stimuli/Experimental_stims/objects/jess-bailey-nOeVi8DsN8U-unsplash.jpg,Stimuli/Experimental_stims/faces/erik-lucatero-d2MSDujJl2g-unsplash.jpg,1,NaN,,NaN,unchosen,NaN,NaN,NaN,NaN,1700,0,3,3
164,53286,0,165,3,3,0,no_gain6,gain4,K,I,35,31,body_parts,body_parts,50,50,Stimuli/Experimental_stims/body_parts/wc-so-KH4AAPjb-tI-unsplash.jpg,Stimuli/Experimental_stims/body_parts/sincerely-media-VN6DbKajo5s-unsplash.jpg,1,NaN,,NaN,chosen,NaN,NaN,NaN,NaN,1800,0,3,3
165,53286,0,166,3,3,1,gain5,no_gain3,D,E,41,44,objects,objects,50,50,Stimuli/Experimental_stims/objects/insung-yoon-w2JtIQQXoRU-unsplash.jpg,Stimuli/Experimental_stims/objects/kuiye-chen-NuOGFo4PudE-unsplash.jpg,1,NaN,,NaN,chosen,NaN,NaN,NaN,NaN,1500,0,3,3
166,53286,0,167,3,3,1,gain4,no_gain2,I,A,31,0,body_parts,outdoor_scenes,50,50,Stimuli/Experimental_stims/body_parts/sincerely-media-VN6DbKajo5s-unsplash.jpg,Stimuli/Experimental_stims/outdoor_scenes/aleksandra-boguslawska-MS7KD9Ti7FQ-unsplash.jpg,1,NaN,,NaN,chosen,NaN,NaN,NaN,NaN,2700,0,3,3
167,53286,0,168,3,3,0,no_gain6,gain6,K,G,36,3,objects,outdoor_scenes,50,50,Stimuli/Experimental_stims/objects/alexander-andrews-JYGnB9gTCls-unsplash.jpg,Stimuli/Experimental_stims/outdoor_scenes/henry-be-NLF6hTe4PAg-unsplash.jpg,1,NaN,,NaN,unchosen,NaN,NaN,NaN,NaN,3600,1,3,3
168,53286,0,169,3,3,0,no_gain2,gain6,A,G,0,39,outdoor_scenes,objects,50,50,Stimuli/Experimental_stims/outdoor_scenes/aleksandra-boguslawska-MS7KD9Ti7FQ-unsplash.jpg,Stimuli/Experimental_stims/objects/charlesdeluvio-1-nx1QR5dTE-unsplash.jpg,1,NaN,,NaN,chosen,NaN,NaN,NaN,NaN,2100,0,3,3
169,53286,0,170,3,3,1,gain5,no_gain6,D,K,15,36,faces,objects,50,50,Stimuli/Experimental_stims/faces/erik-lucatero-d2MSDujJl2g-unsplash.jpg,Stimuli/Experimental_stims/objects/alexander-andrews-JYGnB9gTCls-unsplash.jpg,1,NaN,,NaN,unchosen,NaN,NaN,NaN,NaN,2300,0,3,3
170,53286,0,171,3,3,1,gain1,no_gain3,H,E,11,24,outdoor_scenes,body_parts,50,50,Stimuli/Experimental_stims/outdoor_scenes/stephen-leonardi-gyIRjKPXupE-unsplash.jpg,Stimuli/Experimental_stims/body_parts/clay-banks-LjqARJaJotc-unsplash.jpg,1,NaN,,NaN,unchosen,NaN,NaN,NaN,NaN,1400,0,3,3
171,53286,0,172,3,3,1,gain3,no_gain3,L,E,28,44,body_parts,objects,50,50,Stimuli/Experimental_stims/body_parts/ira-vishnevskaya-8DQAvdCby1I-unsplash.jpg,Stimuli/Experimental_stims/objects/kuiye-chen-NuOGFo4PudE-unsplash.jpg,1,NaN,,NaN,chosen,NaN,NaN,NaN,NaN,1200,0,3,3
172,53286,0,173,3,3,1,gain2,no_gain6,B,K,4,35,outdoor_scenes,body_parts,50,50,Stimuli/Experimental_stims/outdoor_scenes/jarrett-kow-1ZOyYPOBn7I-unsplash.jpg,Stimuli/Experimental_stims/body_parts/wc-so-KH4AAPjb-tI-unsplash.jpg,1,NaN,,NaN,chosen,NaN,NaN,NaN,NaN,1900,0,3,3
173,53286,0,174,3,3,0,no_gain2,gain4,A,I,38,1,objects,outdoor_scenes,50,50,Stimuli/Experimental_stims/objects/art-lasovsky-8XddFc6NkBY-unsplash.jpg,Stimuli/Experimental_stims/outdoor_scenes/ashim-d-silva-S2Q5mdOrrVc-unsplash.jpg,1,NaN,,NaN,unchosen,NaN,NaN,NaN,NaN,1800,0,3,3
174,53286,0,175,3,3,1,gain6,no_gain6,G,K,39,35,objects,body_parts,50,50,Stimuli/Experimental_stims/objects/charlesdeluvio-1-nx1QR5dTE-unsplash.jpg,Stimuli/Experimental_stims/body_parts/wc-so-KH4AAPjb-tI-unsplash.jpg,1,NaN,,NaN,chosen,NaN,NaN,NaN,NaN,4100,1,3,3
175,53286,0,176,3,3,0,no_gain5,gain6,C,G,7,39,outdoor_scenes,objects,50,50,Stimuli/Experimental_stims/outdoor_scenes/petr-vysohlid-9fqwGqGLUxc-unsplash.jpg,Stimuli/Experimental_stims/objects/charlesdeluvio-1-nx1QR5dTE-unsplash.jpg,1,NaN,,NaN,chosen,NaN,NaN,NaN,NaN,1400,0,3,3
176,53286,0,177,3,3,0,no_gain2,gain6,A,G,38,3,objects,outdoor_scenes,50,50,Stimuli/Experimental_stims/objects/art-lasovsky-8XddFc6NkBY-unsplash.jpg,Stimuli/Experimental_stims/outdoor_scenes/henry-be-NLF6hTe4PAg-unsplash.jpg,1,NaN,,NaN,unchosen,NaN,NaN,NaN,NaN,2200,0,3,3
177,53286,0,178,3,3,1,gain1,no_gain2,H,A,11,38,outdoor_scenes,objects,50,50,Stimuli/Experimental_stims/outdoor_scenes/stephen-leonardi-gyIRjKPXupE-unsplash.jpg,Stimuli/Experimental_stims/objects/art-lasovsky-8XddFc6NkBY-unsplash.jpg,1,NaN,,NaN,unchosen,NaN,NaN,NaN,NaN,1400,0,3,3
178,53286,0,179,3,3,1,gain3,no_gain2,L,A,28,0,body_parts,outdoor_scenes,50,50,Stimuli/Experimental_stims/body_parts/ira-vishnevskaya-8DQAvdCby1I-unsplash.jpg,Stimuli/Experimental_stims/outdoor_scenes/aleksandra-boguslawska-MS7KD9Ti7FQ-unsplash.jpg,1,NaN,,NaN,chosen,NaN,NaN,NaN,NaN,1100,0,3,3
179,53286,0,180,3,3,1,gain4,no_gain1,I,F,31,14,body_parts,faces,50,50,Stimuli/Experimental_stims/body_parts/sincerely-media-VN6DbKajo5s-unsplash.jpg,Stimuli/Experimental_stims/faces/david-siglin-UuW4psOb388-unsplash.jpg,1,NaN,,NaN,chosen,NaN,NaN,NaN,NaN,1400,0,3,3
180,53286,0,181,3,3,1,gain1,no_gain4,H,J,11,42,outdoor_scenes,objects,50,50,Stimuli/Experimental_stims/outdoor_scenes/stephen-leonardi-gyIRjKPXupE-unsplash.jpg,Stimuli/Experimental_stims/objects/jess-bailey-nOeVi8DsN8U-unsplash.jpg,1,NaN,,NaN,unchosen,NaN,NaN,NaN,NaN,1700,0,3,3
181,53286,0,182,3,3,1,gain1,no_gain4,H,J,16,17,faces,faces,50,50,Stimuli/Experimental_stims/faces/freddy-kearney-o-ioeoATbIM-unsplash.jpg,Stimuli/Experimental_stims/faces/good-faces-xmSWVeGEnJw-unsplash.jpg,1,NaN,,NaN,chosen,NaN,NaN,NaN,NaN,3400,1,3,3
182,53286,0,183,3,3,1,gain3,no_gain5,L,C,28,7,body_parts,outdoor_scenes,50,50,Stimuli/Experimental_stims/body_parts/ira-vishnevskaya-8DQAvdCby1I-unsplash.jpg,Stimuli/Experimental_stims/outdoor_scenes/petr-vysohlid-9fqwGqGLUxc-unsplash.jpg,1,NaN,,NaN,chosen,NaN,NaN,NaN,NaN,1000,0,3,3
183,53286,0,184,3,3,1,gain1,no_gain6,H,K,11,36,outdoor_scenes,objects,50,50,Stimuli/Experimental_stims/outdoor_scenes/stephen-leonardi-gyIRjKPXupE-unsplash.jpg,Stimuli/Experimental_stims/objects/alexander-andrews-JYGnB9gTCls-unsplash.jpg,1,NaN,,NaN,unchosen,NaN,NaN,NaN,NaN,1200,0,3,3
184,53286,0,185,3,3,0,no_gain5,gain4,C,I,30,1,body_parts,outdoor_scenes,50,50,Stimuli/Experimental_stims/body_parts/mika-korhonen-Xodzxosar18-unsplash.jpg,Stimuli/Experimental_stims/outdoor_scenes/ashim-d-silva-S2Q5mdOrrVc-unsplash.jpg,1,NaN,,NaN,unchosen,NaN,NaN,NaN,NaN,1200,0,3,3
185,53286,0,186,3,3,0,no_gain1,gain2,F,B,14,4,faces,outdoor_scenes,50,50,Stimuli/Experimental_stims/faces/david-siglin-UuW4psOb388-unsplash.jpg,Stimuli/Experimental_stims/outdoor_scenes/jarrett-kow-1ZOyYPOBn7I-unsplash.jpg,1,NaN,,NaN,chosen,NaN,NaN,NaN,NaN,2800,0,3,3
186,53286,0,187,3,3,0,no_gain1,gain4,F,I,25,1,body_parts,outdoor_scenes,50,50,Stimuli/Experimental_stims/body_parts/engin-akyurt-Q2rfH3GW39c-unsplash.jpg,Stimuli/Experimental_stims/outdoor_scenes/ashim-d-silva-S2Q5mdOrrVc-unsplash.jpg,1,NaN,,NaN,unchosen,NaN,NaN,NaN,NaN,1200,0,3,3
187,53286,0,188,3,3,0,no_gain6,gain3,K,L,35,28,body_parts,body_parts,50,50,Stimuli/Experimental_stims/body_parts/wc-so-KH4AAPjb-tI-unsplash.jpg,Stimuli/Experimental_stims/body_parts/ira-vishnevskaya-8DQAvdCby1I-unsplash.jpg,1,NaN,,NaN,chosen,NaN,NaN,NaN,NaN,1200,0,3,3
188,53286,0,189,3,3,1,gain2,no_gain2,B,A,4,0,outdoor_scenes,outdoor_scenes,50,50,Stimuli/Experimental_stims/outdoor_scenes/jarrett-kow-1ZOyYPOBn7I-unsplash.jpg,Stimuli/Experimental_stims/outdoor_scenes/aleksandra-boguslawska-MS7KD9Ti7FQ-unsplash.jpg,1,NaN,,NaN,chosen,NaN,NaN,NaN,NaN,2100,0,3,3
189,53286,0,190,3,3,1,gain2,no_gain6,B,K,12,36,faces,objects,50,50,Stimuli/Experimental_stims/faces/aiony-haust-jmATI5Q_YgY-unsplash.jpg,Stimuli/Experimental_stims/objects/alexander-andrews-JYGnB9gTCls-unsplash.jpg,1,NaN,,NaN,unchosen,NaN,NaN,NaN,NaN,3800,1,3,3
190,53286,0,191,3,3,0,no_gain3,gain2,E,B,44,4,objects,outdoor_scenes,50,50,Stimuli/Experimental_stims/objects/kuiye-chen-NuOGFo4PudE-unsplash.jpg,Stimuli/Experimental_stims/outdoor_scenes/jarrett-kow-1ZOyYPOBn7I-unsplash.jpg,1,NaN,,NaN,chosen,NaN,NaN,NaN,NaN,2200,0,3,3
191,53286,0,192,3,3,1,gain4,no_gain4,I,J,1,42,outdoor_scenes,objects,50,50,Stimuli/Experimental_stims/outdoor_scenes/ashim-d-silva-S2Q5mdOrrVc-unsplash.jpg,Stimuli/Experimental_stims/objects/jess-bailey-nOeVi8DsN8U-unsplash.jpg,1,NaN,,NaN,unchosen,NaN,NaN,NaN,NaN,2500,0,3,3
192,53286,0,193,3,3,1,gain2,no_gain5,B,C,4,7,outdoor_scenes,outdoor_scenes,50,50,Stimuli/Experimental_stims/outdoor_scenes/jarrett-kow-1ZOyYPOBn7I-unsplash.jpg,Stimuli/Experimental_stims/outdoor_scenes/petr-vysohlid-9fqwGqGLUxc-unsplash.jpg,1,NaN,,NaN,chosen,NaN,NaN,NaN,NaN,1100,0,3,3
193,53286,0,194,3,3,1,gain3,no_gain1,L,F,20,25,faces,body_parts,50,50,Stimuli/Experimental_stims/faces/justin-chen-J7Cf1Gch49E-unsplash.jpg,Stimuli/Experimental_stims/body_parts/engin-akyurt-Q2rfH3GW39c-unsplash.jpg,1,NaN,,NaN,unchosen,NaN,NaN,NaN,NaN,1800,0,3,3
194,53286,0,195,3,3,1,gain3,no_gain6,L,K,20,36,faces,objects,50,50,Stimuli/Experimental_stims/faces/justin-chen-J7Cf1Gch49E-unsplash.jpg,Stimuli/Experimental_stims/objects/alexander-andrews-JYGnB9gTCls-unsplash.jpg,1,NaN,,NaN,unchosen,NaN,NaN,NaN,NaN,3600,1,3,3
195,53286,0,196,3,3,1,gain4,no_gain6,I,K,1,36,outdoor_scenes,objects,50,50,Stimuli/Experimental_stims/outdoor_scenes/ashim-d-silva-S2Q5mdOrrVc-unsplash.jpg,Stimuli/Experimental_stims/objects/alexander-andrews-JYGnB9gTCls-unsplash.jpg,1,NaN,,NaN,unchosen,NaN,NaN,NaN,NaN,2400,0,3,3
196,53286,0,197,3,3,1,gain1,no_gain1,H,F,16,14,faces,faces,50,50,Stimuli/Experimental_stims/faces/freddy-kearney-o-ioeoATbIM-unsplash.jpg,Stimuli/Experimental_stims/faces/david-siglin-UuW4psOb388-unsplash.jpg,1,NaN,,NaN,chosen,NaN,NaN,NaN,NaN,2400,0,3,3
197,53286,0,198,3,3,0,no_gain3,gain2,E,B,24,12,body_parts,faces,50,50,Stimuli/Experimental_stims/body_parts/clay-banks-LjqARJaJotc-unsplash.jpg,Stimuli/Experimental_stims/faces/aiony-haust-jmATI5Q_YgY-unsplash.jpg,1,NaN,,NaN,unchosen,NaN,NaN,NaN,NaN,2200,0,3,3
198,53286,0,199,3,3,1,gain1,no_gain2,H,A,16,0,faces,outdoor_scenes,50,50,Stimuli/Experimental_stims/faces/freddy-kearney-o-ioeoATbIM-unsplash.jpg,Stimuli/Experimental_stims/outdoor_scenes/aleksandra-boguslawska-MS7KD9Ti7FQ-unsplash.jpg,1,NaN,,NaN,chosen,NaN,NaN,NaN,NaN,2800,0,3,3
199,53286,0,200,3,3,0,no_gain2,gain3,A,L,38,20,objects,faces,50,50,Stimuli/Experimental_stims/objects/art-lasovsky-8XddFc6NkBY-unsplash.jpg,Stimuli/Experimental_stims/faces/justin-chen-J7Cf1Gch49E-unsplash.jpg,1,NaN,,NaN,unchosen,NaN,NaN,NaN,NaN,1700,0,3,3
200,53286,0,201,3,3,0,no_gain1,gain6,F,G,25,3,body_parts,outdoor_scenes,50,50,Stimuli/Experimental_stims/body_parts/engin-akyurt-Q2rfH3GW39c-unsplash.jpg,Stimuli/Experimental_stims/outdoor_scenes/henry-be-NLF6hTe4PAg-unsplash.jpg,1,NaN,,NaN,unchosen,NaN,NaN,NaN,NaN,1100,0,3,3
201,53286,0,202,3,3,0,no_gain4,gain3,J,L,17,28,faces,body_parts,50,50,Stimuli/Experimental_stims/faces/good-faces-xmSWVeGEnJw-unsplash.jpg,Stimuli/Experimental_stims/body_parts/ira-vishnevskaya-8DQAvdCby1I-unsplash.jpg,1,NaN,,NaN,chosen,NaN,NaN,NaN,NaN,1200,0,3,3
202,53286,0,203,3,3,0,no_gain3,gain5,E,D,24,15,body_parts,faces,50,50,Stimuli/Experimental_stims/body_parts/clay-banks-LjqARJaJotc-unsplash.jpg,Stimuli/Experimental_stims/faces/erik-lucatero-d2MSDujJl2g-unsplash.jpg,1,NaN,,NaN,unchosen,NaN,NaN,NaN,NaN,2700,0,3,3
203,53286,0,204,3,3,0,no_gain1,gain1,F,H,25,11,body_parts,outdoor_scenes,50,50,Stimuli/Experimental_stims/body_parts/engin-akyurt-Q2rfH3GW39c-unsplash.jpg,Stimuli/Experimental_stims/outdoor_scenes/stephen-leonardi-gyIRjKPXupE-unsplash.jpg,1,NaN,,NaN,unchosen,NaN,NaN,NaN,NaN,1100,0,3,3
204,53286,0,205,3,3,1,gain5,no_gain5,D,C,41,7,objects,outdoor_scenes,50,50,Stimuli/Experimental_stims/objects/insung-yoon-w2JtIQQXoRU-unsplash.jpg,Stimuli/Experimental_stims/outdoor_scenes/petr-vysohlid-9fqwGqGLUxc-unsplash.jpg,1,NaN,,NaN,chosen,NaN,NaN,NaN,NaN,1100,0,3,3
205,53286,0,206,3,3,0,no_gain4,gain6,J,G,17,39,faces,objects,50,50,Stimuli/Experimental_stims/faces/good-faces-xmSWVeGEnJw-unsplash.jpg,Stimuli/Experimental_stims/objects/charlesdeluvio-1-nx1QR5dTE-unsplash.jpg,1,NaN,,NaN,chosen,NaN,NaN,NaN,NaN,1500,0,3,3
206,53286,0,207,3,3,0,no_gain5,gain3,C,L,30,20,body_parts,faces,50,50,Stimuli/Experimental_stims/body_parts/mika-korhonen-Xodzxosar18-unsplash.jpg,Stimuli/Experimental_stims/faces/justin-chen-J7Cf1Gch49E-unsplash.jpg,1,NaN,,NaN,unchosen,NaN,NaN,NaN,NaN,1600,0,3,3
207,53286,0,208,3,3,0,no_gain1,gain5,F,D,14,41,faces,objects,50,50,Stimuli/Experimental_stims/faces/david-siglin-UuW4psOb388-unsplash.jpg,Stimuli/Experimental_stims/objects/insung-yoon-w2JtIQQXoRU-unsplash.jpg,1,NaN,,NaN,chosen,NaN,NaN,NaN,NaN,1500,0,3,3
208,53286,0,209,3,3,1,gain1,no_gain3,H,E,16,44,faces,objects,50,50,Stimuli/Experimental_stims/faces/freddy-kearney-o-ioeoATbIM-unsplash.jpg,Stimuli/Experimental_stims/objects/kuiye-chen-NuOGFo4PudE-unsplash.jpg,1,NaN,,NaN,chosen,NaN,NaN,NaN,NaN,2800,0,3,3
209,53286,0,210,3,3,1,gain6,no_gain3,G,E,39,44,objects,objects,50,50,Stimuli/Experimental_stims/objects/charlesdeluvio-1-nx1QR5dTE-unsplash.jpg,Stimuli/Experimental_stims/objects/kuiye-chen-NuOGFo4PudE-unsplash.jpg,1,NaN,,NaN,chosen,NaN,NaN,NaN,NaN,3400,1,3,3
210,53286,0,211,3,3,1,gain2,no_gain4,B,J,12,42,faces,objects,50,50,Stimuli/Experimental_stims/faces/aiony-haust-jmATI5Q_YgY-unsplash.jpg,Stimuli/Experimental_stims/objects/jess-bailey-nOeVi8DsN8U-unsplash.jpg,0,0,355,0,unchosen,42,12,objects,faces,1500,0,3,3
211,53286,0,212,3,3,1,gain2,no_gain2,B,A,12,38,faces,objects,50,50,Stimuli/Experimental_stims/faces/aiony-haust-jmATI5Q_YgY-unsplash.jpg,Stimuli/Experimental_stims/objects/art-lasovsky-8XddFc6NkBY-unsplash.jpg,0,0,391,0,unchosen,38,12,objects,faces,1500,0,3,3
212,53286,0,213,3,3,1,gain6,no_gain1,G,F,39,14,objects,faces,50,50,Stimuli/Experimental_stims/objects/charlesdeluvio-1-nx1QR5dTE-unsplash.jpg,Stimuli/Experimental_stims/faces/david-siglin-UuW4psOb388-unsplash.jpg,1,NaN,,NaN,chosen,NaN,NaN,NaN,NaN,1500,0,3,3
213,53286,0,214,3,3,0,no_gain5,gain2,C,B,30,12,body_parts,faces,50,50,Stimuli/Experimental_stims/body_parts/mika-korhonen-Xodzxosar18-unsplash.jpg,Stimuli/Experimental_stims/faces/aiony-haust-jmATI5Q_YgY-unsplash.jpg,1,NaN,,NaN,unchosen,NaN,NaN,NaN,NaN,1200,0,3,3
214,53286,0,215,3,3,0,no_gain4,gain5,J,D,17,41,faces,objects,50,50,Stimuli/Experimental_stims/faces/good-faces-xmSWVeGEnJw-unsplash.jpg,Stimuli/Experimental_stims/objects/insung-yoon-w2JtIQQXoRU-unsplash.jpg,1,NaN,,NaN,chosen,NaN,NaN,NaN,NaN,1900,0,3,3
215,53286,0,216,3,3,1,gain6,no_gain4,G,J,3,42,outdoor_scenes,objects,50,50,Stimuli/Experimental_stims/outdoor_scenes/henry-be-NLF6hTe4PAg-unsplash.jpg,Stimuli/Experimental_stims/objects/jess-bailey-nOeVi8DsN8U-unsplash.jpg,0,1,408,1,unchosen,3,42,outdoor_scenes,objects,3600,1,3,3
216,53286,0,217,3,3,0,no_gain2,gain5,A,D,38,15,objects,faces,50,50,Stimuli/Experimental_stims/objects/art-lasovsky-8XddFc6NkBY-unsplash.jpg,Stimuli/Experimental_stims/faces/erik-lucatero-d2MSDujJl2g-unsplash.jpg,0,1,217,0,unchosen,38,15,objects,faces,2500,0,3,3
217,53286,0,218,3,3,0,no_gain4,gain2,J,B,17,4,faces,outdoor_scenes,50,50,Stimuli/Experimental_stims/faces/good-faces-xmSWVeGEnJw-unsplash.jpg,Stimuli/Experimental_stims/outdoor_scenes/jarrett-kow-1ZOyYPOBn7I-unsplash.jpg,0,1,441,0,chosen,17,4,faces,outdoor_scenes,1600,0,3,3
218,53286,0,219,3,3,1,gain6,no_gain3,G,E,3,24,outdoor_scenes,body_parts,50,50,Stimuli/Experimental_stims/outdoor_scenes/henry-be-NLF6hTe4PAg-unsplash.jpg,Stimuli/Experimental_stims/body_parts/clay-banks-LjqARJaJotc-unsplash.jpg,0,1,352,1,unchosen,3,24,outdoor_scenes,body_parts,1200,0,3,3
219,53286,0,220,3,3,0,no_gain1,gain5,F,D,25,15,body_parts,faces,50,50,Stimuli/Experimental_stims/body_parts/engin-akyurt-Q2rfH3GW39c-unsplash.jpg,Stimuli/Experimental_stims/faces/erik-lucatero-d2MSDujJl2g-unsplash.jpg,1,NaN,,NaN,unchosen,NaN,NaN,NaN,NaN,1300,0,3,3
220,53286,0,221,4,4,0,no_gain6,gain5,K,D,36,15,objects,faces,50,50,Stimuli/Experimental_stims/objects/alexander-andrews-JYGnB9gTCls-unsplash.jpg,Stimuli/Experimental_stims/faces/erik-lucatero-d2MSDujJl2g-unsplash.jpg,0,1,1182,0,unchosen,36,15,objects,faces,3300,1,1,3
221,53286,0,222,4,4,0,no_gain4,gain5,J,D,42,15,objects,faces,50,50,Stimuli/Experimental_stims/objects/jess-bailey-nOeVi8DsN8U-unsplash.jpg,Stimuli/Experimental_stims/faces/erik-lucatero-d2MSDujJl2g-unsplash.jpg,0,1,68,0,unchosen,42,15,objects,faces,1400,0,1,3
222,53286,0,223,4,4,1,gain5,no_gain5,D,C,41,7,objects,outdoor_scenes,50,50,Stimuli/Experimental_stims/objects/insung-yoon-w2JtIQQXoRU-unsplash.jpg,Stimuli/Experimental_stims/outdoor_scenes/petr-vysohlid-9fqwGqGLUxc-unsplash.jpg,1,NaN,,NaN,chosen,NaN,NaN,NaN,NaN,2400,0,1,3
223,53286,0,224,4,4,0,no_gain3,gain4,E,I,44,31,objects,body_parts,50,50,Stimuli/Experimental_stims/objects/kuiye-chen-NuOGFo4PudE-unsplash.jpg,Stimuli/Experimental_stims/body_parts/sincerely-media-VN6DbKajo5s-unsplash.jpg,1,NaN,,NaN,chosen,NaN,NaN,NaN,NaN,1200,0,1,3
224,53286,0,225,4,4,1,gain4,no_gain1,I,F,1,25,outdoor_scenes,body_parts,50,50,Stimuli/Experimental_stims/outdoor_scenes/ashim-d-silva-S2Q5mdOrrVc-unsplash.jpg,Stimuli/Experimental_stims/body_parts/engin-akyurt-Q2rfH3GW39c-unsplash.jpg,1,NaN,,NaN,unchosen,NaN,NaN,NaN,NaN,1100,0,1,3
225,53286,0,226,4,4,0,no_gain1,gain1,F,H,25,11,body_parts,outdoor_scenes,50,50,Stimuli/Experimental_stims/body_parts/engin-akyurt-Q2rfH3GW39c-unsplash.jpg,Stimuli/Experimental_stims/outdoor_scenes/stephen-leonardi-gyIRjKPXupE-unsplash.jpg,1,NaN,,NaN,unchosen,NaN,NaN,NaN,NaN,1600,0,1,3
226,53286,0,227,4,4,1,gain6,no_gain3,G,E,3,24,outdoor_scenes,body_parts,50,50,Stimuli/Experimental_stims/outdoor_scenes/henry-be-NLF6hTe4PAg-unsplash.jpg,Stimuli/Experimental_stims/body_parts/clay-banks-LjqARJaJotc-unsplash.jpg,1,NaN,,NaN,unchosen,NaN,NaN,NaN,NaN,3100,1,1,3
227,53286,0,228,4,4,0,no_gain2,gain4,A,I,0,31,outdoor_scenes,body_parts,50,50,Stimuli/Experimental_stims/outdoor_scenes/aleksandra-boguslawska-MS7KD9Ti7FQ-unsplash.jpg,Stimuli/Experimental_stims/body_parts/sincerely-media-VN6DbKajo5s-unsplash.jpg,1,NaN,,NaN,chosen,NaN,NaN,NaN,NaN,1000,0,1,3
228,53286,0,229,4,4,1,gain6,no_gain5,G,C,39,7,objects,outdoor_scenes,50,50,Stimuli/Experimental_stims/objects/charlesdeluvio-1-nx1QR5dTE-unsplash.jpg,Stimuli/Experimental_stims/outdoor_scenes/petr-vysohlid-9fqwGqGLUxc-unsplash.jpg,1,NaN,,NaN,chosen,NaN,NaN,NaN,NaN,3000,0,1,3
229,53286,0,230,4,4,0,no_gain4,gain5,J,D,17,41,faces,objects,50,50,Stimuli/Experimental_stims/faces/good-faces-xmSWVeGEnJw-unsplash.jpg,Stimuli/Experimental_stims/objects/insung-yoon-w2JtIQQXoRU-unsplash.jpg,1,NaN,,NaN,chosen,NaN,NaN,NaN,NaN,1700,0,1,3
230,53286,0,231,4,4,1,gain1,no_gain4,H,J,11,42,outdoor_scenes,objects,50,50,Stimuli/Experimental_stims/outdoor_scenes/stephen-leonardi-gyIRjKPXupE-unsplash.jpg,Stimuli/Experimental_stims/objects/jess-bailey-nOeVi8DsN8U-unsplash.jpg,1,NaN,,NaN,unchosen,NaN,NaN,NaN,NaN,2400,0,1,3
231,53286,0,232,4,4,0,no_gain6,gain2,K,B,35,4,body_parts,outdoor_scenes,50,50,Stimuli/Experimental_stims/body_parts/wc-so-KH4AAPjb-tI-unsplash.jpg,Stimuli/Experimental_stims/outdoor_scenes/jarrett-kow-1ZOyYPOBn7I-unsplash.jpg,1,NaN,,NaN,chosen,NaN,NaN,NaN,NaN,4000,1,1,3
232,53286,0,233,4,4,0,no_gain6,gain1,K,H,36,11,objects,outdoor_scenes,50,50,Stimuli/Experimental_stims/objects/alexander-andrews-JYGnB9gTCls-unsplash.jpg,Stimuli/Experimental_stims/outdoor_scenes/stephen-leonardi-gyIRjKPXupE-unsplash.jpg,1,NaN,,NaN,unchosen,NaN,NaN,NaN,NaN,1900,0,1,3
233,53286,0,234,4,4,1,gain3,no_gain4,L,J,28,17,body_parts,faces,50,50,Stimuli/Experimental_stims/body_parts/ira-vishnevskaya-8DQAvdCby1I-unsplash.jpg,Stimuli/Experimental_stims/faces/good-faces-xmSWVeGEnJw-unsplash.jpg,1,NaN,,NaN,chosen,NaN,NaN,NaN,NaN,1100,0,1,3
234,53286,0,235,4,4,1,gain5,no_gain1,D,F,15,25,faces,body_parts,50,50,Stimuli/Experimental_stims/faces/erik-lucatero-d2MSDujJl2g-unsplash.jpg,Stimuli/Experimental_stims/body_parts/engin-akyurt-Q2rfH3GW39c-unsplash.jpg,1,NaN,,NaN,unchosen,NaN,NaN,NaN,NaN,1300,0,1,3
235,53286,0,236,4,4,0,no_gain4,gain4,J,I,17,31,faces,body_parts,50,50,Stimuli/Experimental_stims/faces/good-faces-xmSWVeGEnJw-unsplash.jpg,Stimuli/Experimental_stims/body_parts/sincerely-media-VN6DbKajo5s-unsplash.jpg,1,NaN,,NaN,chosen,NaN,NaN,NaN,NaN,1900,0,1,3
236,53286,0,237,4,4,1,gain4,no_gain4,I,J,1,42,outdoor_scenes,objects,50,50,Stimuli/Experimental_stims/outdoor_scenes/ashim-d-silva-S2Q5mdOrrVc-unsplash.jpg,Stimuli/Experimental_stims/objects/jess-bailey-nOeVi8DsN8U-unsplash.jpg,1,NaN,,NaN,unchosen,NaN,NaN,NaN,NaN,1800,0,1,3
237,53286,0,238,4,4,1,gain4,no_gain5,I,C,1,30,outdoor_scenes,body_parts,50,50,Stimuli/Experimental_stims/outdoor_scenes/ashim-d-silva-S2Q5mdOrrVc-unsplash.jpg,Stimuli/Experimental_stims/body_parts/mika-korhonen-Xodzxosar18-unsplash.jpg,1,NaN,,NaN,unchosen,NaN,NaN,NaN,NaN,4300,1,1,3
238,53286,0,239,4,4,1,gain5,no_gain5,D,C,15,30,faces,body_parts,50,50,Stimuli/Experimental_stims/faces/erik-lucatero-d2MSDujJl2g-unsplash.jpg,Stimuli/Experimental_stims/body_parts/mika-korhonen-Xodzxosar18-unsplash.jpg,1,NaN,,NaN,unchosen,NaN,NaN,NaN,NaN,2300,0,1,3
239,53286,0,240,4,4,1,gain3,no_gain2,L,A,28,0,body_parts,outdoor_scenes,50,50,Stimuli/Experimental_stims/body_parts/ira-vishnevskaya-8DQAvdCby1I-unsplash.jpg,Stimuli/Experimental_stims/outdoor_scenes/aleksandra-boguslawska-MS7KD9Ti7FQ-unsplash.jpg,1,NaN,,NaN,chosen,NaN,NaN,NaN,NaN,1200,0,1,3
240,53286,0,241,4,4,0,no_gain4,gain2,J,B,17,4,faces,outdoor_scenes,50,50,Stimuli/Experimental_stims/faces/good-faces-xmSWVeGEnJw-unsplash.jpg,Stimuli/Experimental_stims/outdoor_scenes/jarrett-kow-1ZOyYPOBn7I-unsplash.jpg,1,NaN,,NaN,chosen,NaN,NaN,NaN,NaN,1300,0,1,3
241,53286,0,242,4,4,0,no_gain3,gain1,E,H,24,11,body_parts,outdoor_scenes,50,50,Stimuli/Experimental_stims/body_parts/clay-banks-LjqARJaJotc-unsplash.jpg,Stimuli/Experimental_stims/outdoor_scenes/stephen-leonardi-gyIRjKPXupE-unsplash.jpg,1,NaN,,NaN,unchosen,NaN,NaN,NaN,NaN,1900,0,1,3
242,53286,0,243,4,4,1,gain3,no_gain6,L,K,20,36,faces,objects,50,50,Stimuli/Experimental_stims/faces/justin-chen-J7Cf1Gch49E-unsplash.jpg,Stimuli/Experimental_stims/objects/alexander-andrews-JYGnB9gTCls-unsplash.jpg,1,NaN,,NaN,unchosen,NaN,NaN,NaN,NaN,1300,0,1,3
243,53286,0,244,4,4,1,gain4,no_gain1,I,F,31,14,body_parts,faces,50,50,Stimuli/Experimental_stims/body_parts/sincerely-media-VN6DbKajo5s-unsplash.jpg,Stimuli/Experimental_stims/faces/david-siglin-UuW4psOb388-unsplash.jpg,1,NaN,,NaN,chosen,NaN,NaN,NaN,NaN,4200,1,1,3
244,53286,0,245,4,4,0,no_gain2,gain5,A,D,38,15,objects,faces,50,50,Stimuli/Experimental_stims/objects/art-lasovsky-8XddFc6NkBY-unsplash.jpg,Stimuli/Experimental_stims/faces/erik-lucatero-d2MSDujJl2g-unsplash.jpg,1,NaN,,NaN,unchosen,NaN,NaN,NaN,NaN,2400,0,1,3
245,53286,0,246,4,4,1,gain2,no_gain2,B,A,4,0,outdoor_scenes,outdoor_scenes,50,50,Stimuli/Experimental_stims/outdoor_scenes/jarrett-kow-1ZOyYPOBn7I-unsplash.jpg,Stimuli/Experimental_stims/outdoor_scenes/aleksandra-boguslawska-MS7KD9Ti7FQ-unsplash.jpg,1,NaN,,NaN,chosen,NaN,NaN,NaN,NaN,1700,0,1,3
246,53286,0,247,4,4,0,no_gain1,gain5,F,D,14,41,faces,objects,50,50,Stimuli/Experimental_stims/faces/david-siglin-UuW4psOb388-unsplash.jpg,Stimuli/Experimental_stims/objects/insung-yoon-w2JtIQQXoRU-unsplash.jpg,1,NaN,,NaN,chosen,NaN,NaN,NaN,NaN,1600,0,1,3
247,53286,0,248,4,4,1,gain3,no_gain5,L,C,20,30,faces,body_parts,50,50,Stimuli/Experimental_stims/faces/justin-chen-J7Cf1Gch49E-unsplash.jpg,Stimuli/Experimental_stims/body_parts/mika-korhonen-Xodzxosar18-unsplash.jpg,1,NaN,,NaN,unchosen,NaN,NaN,NaN,NaN,1100,0,1,3
248,53286,0,249,4,4,0,no_gain2,gain1,A,H,38,11,objects,outdoor_scenes,50,50,Stimuli/Experimental_stims/objects/art-lasovsky-8XddFc6NkBY-unsplash.jpg,Stimuli/Experimental_stims/outdoor_scenes/stephen-leonardi-gyIRjKPXupE-unsplash.jpg,1,NaN,,NaN,unchosen,NaN,NaN,NaN,NaN,1200,0,1,3
249,53286,0,250,4,4,1,gain6,no_gain3,G,E,39,44,objects,objects,50,50,Stimuli/Experimental_stims/objects/charlesdeluvio-1-nx1QR5dTE-unsplash.jpg,Stimuli/Experimental_stims/objects/kuiye-chen-NuOGFo4PudE-unsplash.jpg,1,NaN,,NaN,chosen,NaN,NaN,NaN,NaN,3100,1,1,3
250,53286,0,251,4,4,1,gain3,no_gain6,L,K,28,35,body_parts,body_parts,50,50,Stimuli/Experimental_stims/body_parts/ira-vishnevskaya-8DQAvdCby1I-unsplash.jpg,Stimuli/Experimental_stims/body_parts/wc-so-KH4AAPjb-tI-unsplash.jpg,1,NaN,,NaN,chosen,NaN,NaN,NaN,NaN,2600,0,1,3
251,53286,0,252,4,4,0,no_gain1,gain6,F,G,25,3,body_parts,outdoor_scenes,50,50,Stimuli/Experimental_stims/body_parts/engin-akyurt-Q2rfH3GW39c-unsplash.jpg,Stimuli/Experimental_stims/outdoor_scenes/henry-be-NLF6hTe4PAg-unsplash.jpg,1,NaN,,NaN,unchosen,NaN,NaN,NaN,NaN,2400,0,1,3
252,53286,0,253,4,4,1,gain2,no_gain3,B,E,12,24,faces,body_parts,50,50,Stimuli/Experimental_stims/faces/aiony-haust-jmATI5Q_YgY-unsplash.jpg,Stimuli/Experimental_stims/body_parts/clay-banks-LjqARJaJotc-unsplash.jpg,1,NaN,,NaN,unchosen,NaN,NaN,NaN,NaN,1000,0,1,3
253,53286,0,254,4,4,0,no_gain6,gain4,K,I,35,31,body_parts,body_parts,50,50,Stimuli/Experimental_stims/body_parts/wc-so-KH4AAPjb-tI-unsplash.jpg,Stimuli/Experimental_stims/body_parts/sincerely-media-VN6DbKajo5s-unsplash.jpg,1,NaN,,NaN,chosen,NaN,NaN,NaN,NaN,3000,0,1,3
254,53286,0,255,4,4,0,no_gain4,gain1,J,H,17,16,faces,faces,50,50,Stimuli/Experimental_stims/faces/good-faces-xmSWVeGEnJw-unsplash.jpg,Stimuli/Experimental_stims/faces/freddy-kearney-o-ioeoATbIM-unsplash.jpg,1,NaN,,NaN,chosen,NaN,NaN,NaN,NaN,2400,0,1,3
255,53286,0,256,4,4,0,no_gain2,gain3,A,L,38,20,objects,faces,50,50,Stimuli/Experimental_stims/objects/art-lasovsky-8XddFc6NkBY-unsplash.jpg,Stimuli/Experimental_stims/faces/justin-chen-J7Cf1Gch49E-unsplash.jpg,1,NaN,,NaN,unchosen,NaN,NaN,NaN,NaN,2300,0,1,3
256,53286,0,257,4,4,1,gain3,no_gain3,L,E,28,44,body_parts,objects,50,50,Stimuli/Experimental_stims/body_parts/ira-vishnevskaya-8DQAvdCby1I-unsplash.jpg,Stimuli/Experimental_stims/objects/kuiye-chen-NuOGFo4PudE-unsplash.jpg,1,NaN,,NaN,chosen,NaN,NaN,NaN,NaN,1900,0,1,3
257,53286,0,258,4,4,1,gain4,no_gain2,I,A,1,38,outdoor_scenes,objects,50,50,Stimuli/Experimental_stims/outdoor_scenes/ashim-d-silva-S2Q5mdOrrVc-unsplash.jpg,Stimuli/Experimental_stims/objects/art-lasovsky-8XddFc6NkBY-unsplash.jpg,1,NaN,,NaN,unchosen,NaN,NaN,NaN,NaN,3200,1,1,3
258,53286,0,259,4,4,0,no_gain4,gain6,J,G,42,3,objects,outdoor_scenes,50,50,Stimuli/Experimental_stims/objects/jess-bailey-nOeVi8DsN8U-unsplash.jpg,Stimuli/Experimental_stims/outdoor_scenes/henry-be-NLF6hTe4PAg-unsplash.jpg,1,NaN,,NaN,unchosen,NaN,NaN,NaN,NaN,1000,0,1,3
259,53286,0,260,4,4,1,gain5,no_gain3,D,E,41,44,objects,objects,50,50,Stimuli/Experimental_stims/objects/insung-yoon-w2JtIQQXoRU-unsplash.jpg,Stimuli/Experimental_stims/objects/kuiye-chen-NuOGFo4PudE-unsplash.jpg,1,NaN,,NaN,chosen,NaN,NaN,NaN,NaN,1200,0,1,3
260,53286,0,261,4,4,0,no_gain5,gain4,C,I,7,31,outdoor_scenes,body_parts,50,50,Stimuli/Experimental_stims/outdoor_scenes/petr-vysohlid-9fqwGqGLUxc-unsplash.jpg,Stimuli/Experimental_stims/body_parts/sincerely-media-VN6DbKajo5s-unsplash.jpg,1,NaN,,NaN,chosen,NaN,NaN,NaN,NaN,2700,0,1,3
261,53286,0,262,4,4,0,no_gain1,gain1,F,H,14,16,faces,faces,50,50,Stimuli/Experimental_stims/faces/david-siglin-UuW4psOb388-unsplash.jpg,Stimuli/Experimental_stims/faces/freddy-kearney-o-ioeoATbIM-unsplash.jpg,1,NaN,,NaN,chosen,NaN,NaN,NaN,NaN,1300,0,1,3
262,53286,0,263,4,4,0,no_gain1,gain2,F,B,25,12,body_parts,faces,50,50,Stimuli/Experimental_stims/body_parts/engin-akyurt-Q2rfH3GW39c-unsplash.jpg,Stimuli/Experimental_stims/faces/aiony-haust-jmATI5Q_YgY-unsplash.jpg,1,NaN,,NaN,unchosen,NaN,NaN,NaN,NaN,1500,0,1,3
263,53286,0,264,4,4,1,gain3,no_gain5,L,C,28,7,body_parts,outdoor_scenes,50,50,Stimuli/Experimental_stims/body_parts/ira-vishnevskaya-8DQAvdCby1I-unsplash.jpg,Stimuli/Experimental_stims/outdoor_scenes/petr-vysohlid-9fqwGqGLUxc-unsplash.jpg,1,NaN,,NaN,chosen,NaN,NaN,NaN,NaN,3700,1,1,3
264,53286,0,265,4,4,0,no_gain2,gain5,A,D,0,41,outdoor_scenes,objects,50,50,Stimuli/Experimental_stims/outdoor_scenes/aleksandra-boguslawska-MS7KD9Ti7FQ-unsplash.jpg,Stimuli/Experimental_stims/objects/insung-yoon-w2JtIQQXoRU-unsplash.jpg,1,NaN,,NaN,chosen,NaN,NaN,NaN,NaN,1000,0,1,3
265,53286,0,266,4,4,1,gain4,no_gain6,I,K,1,36,outdoor_scenes,objects,50,50,Stimuli/Experimental_stims/outdoor_scenes/ashim-d-silva-S2Q5mdOrrVc-unsplash.jpg,Stimuli/Experimental_stims/objects/alexander-andrews-JYGnB9gTCls-unsplash.jpg,1,NaN,,NaN,unchosen,NaN,NaN,NaN,NaN,1700,0,1,3
266,53286,0,267,4,4,1,gain4,no_gain3,I,E,1,24,outdoor_scenes,body_parts,50,50,Stimuli/Experimental_stims/outdoor_scenes/ashim-d-silva-S2Q5mdOrrVc-unsplash.jpg,Stimuli/Experimental_stims/body_parts/clay-banks-LjqARJaJotc-unsplash.jpg,1,NaN,,NaN,unchosen,NaN,NaN,NaN,NaN,1100,0,1,3
267,53286,0,268,4,4,0,no_gain4,gain3,J,L,42,20,objects,faces,50,50,Stimuli/Experimental_stims/objects/jess-bailey-nOeVi8DsN8U-unsplash.jpg,Stimuli/Experimental_stims/faces/justin-chen-J7Cf1Gch49E-unsplash.jpg,1,NaN,,NaN,unchosen,NaN,NaN,NaN,NaN,1200,0,1,3
268,53286,0,269,4,4,1,gain5,no_gain6,D,K,41,35,objects,body_parts,50,50,Stimuli/Experimental_stims/objects/insung-yoon-w2JtIQQXoRU-unsplash.jpg,Stimuli/Experimental_stims/body_parts/wc-so-KH4AAPjb-tI-unsplash.jpg,1,NaN,,NaN,chosen,NaN,NaN,NaN,NaN,1300,0,1,3
269,53286,0,270,4,4,1,gain6,no_gain1,G,F,39,14,objects,faces,50,50,Stimuli/Experimental_stims/objects/charlesdeluvio-1-nx1QR5dTE-unsplash.jpg,Stimuli/Experimental_stims/faces/david-siglin-UuW4psOb388-unsplash.jpg,1,NaN,,NaN,chosen,NaN,NaN,NaN,NaN,1700,0,1,3
270,53286,0,271,4,4,1,gain2,no_gain2,B,A,12,38,faces,objects,50,50,Stimuli/Experimental_stims/faces/aiony-haust-jmATI5Q_YgY-unsplash.jpg,Stimuli/Experimental_stims/objects/art-lasovsky-8XddFc6NkBY-unsplash.jpg,1,NaN,,NaN,unchosen,NaN,NaN,NaN,NaN,3400,1,1,3
271,53286,0,272,4,4,0,no_gain5,gain6,C,G,30,3,body_parts,outdoor_scenes,50,50,Stimuli/Experimental_stims/body_parts/mika-korhonen-Xodzxosar18-unsplash.jpg,Stimuli/Experimental_stims/outdoor_scenes/henry-be-NLF6hTe4PAg-unsplash.jpg,1,NaN,,NaN,unchosen,NaN,NaN,NaN,NaN,2500,0,1,3
272,53286,0,273,4,4,1,gain2,no_gain1,B,F,4,14,outdoor_scenes,faces,50,50,Stimuli/Experimental_stims/outdoor_scenes/jarrett-kow-1ZOyYPOBn7I-unsplash.jpg,Stimuli/Experimental_stims/faces/david-siglin-UuW4psOb388-unsplash.jpg,1,NaN,,NaN,chosen,NaN,NaN,NaN,NaN,2600,0,1,3
273,53286,0,274,4,4,1,gain2,no_gain6,B,K,12,36,faces,objects,50,50,Stimuli/Experimental_stims/faces/aiony-haust-jmATI5Q_YgY-unsplash.jpg,Stimuli/Experimental_stims/objects/alexander-andrews-JYGnB9gTCls-unsplash.jpg,1,NaN,,NaN,unchosen,NaN,NaN,NaN,NaN,2000,0,1,3
274,53286,0,275,4,4,0,no_gain1,gain3,F,L,14,28,faces,body_parts,50,50,Stimuli/Experimental_stims/faces/david-siglin-UuW4psOb388-unsplash.jpg,Stimuli/Experimental_stims/body_parts/ira-vishnevskaya-8DQAvdCby1I-unsplash.jpg,1,NaN,,NaN,chosen,NaN,NaN,NaN,NaN,1900,0,1,3
275,53286,0,276,4,4,0,no_gain2,gain6,A,G,38,3,objects,outdoor_scenes,50,50,Stimuli/Experimental_stims/objects/art-lasovsky-8XddFc6NkBY-unsplash.jpg,Stimuli/Experimental_stims/outdoor_scenes/henry-be-NLF6hTe4PAg-unsplash.jpg,1,NaN,,NaN,unchosen,NaN,NaN,NaN,NaN,1500,0,1,3
276,53286,0,277,4,4,1,gain2,no_gain5,B,C,12,30,faces,body_parts,50,50,Stimuli/Experimental_stims/faces/aiony-haust-jmATI5Q_YgY-unsplash.jpg,Stimuli/Experimental_stims/body_parts/mika-korhonen-Xodzxosar18-unsplash.jpg,1,NaN,,NaN,unchosen,NaN,NaN,NaN,NaN,2500,0,1,3
277,53286,0,278,4,4,0,no_gain6,gain6,K,G,35,39,body_parts,objects,50,50,Stimuli/Experimental_stims/body_parts/wc-so-KH4AAPjb-tI-unsplash.jpg,Stimuli/Experimental_stims/objects/charlesdeluvio-1-nx1QR5dTE-unsplash.jpg,1,NaN,,NaN,chosen,NaN,NaN,NaN,NaN,1400,0,1,3
278,53286,0,279,4,4,0,no_gain3,gain2,E,B,44,4,objects,outdoor_scenes,50,50,Stimuli/Experimental_stims/objects/kuiye-chen-NuOGFo4PudE-unsplash.jpg,Stimuli/Experimental_stims/outdoor_scenes/jarrett-kow-1ZOyYPOBn7I-unsplash.jpg,1,NaN,,NaN,chosen,NaN,NaN,NaN,NaN,1300,0,1,3
279,53286,0,280,4,4,1,gain6,no_gain6,G,K,3,36,outdoor_scenes,objects,50,50,Stimuli/Experimental_stims/outdoor_scenes/henry-be-NLF6hTe4PAg-unsplash.jpg,Stimuli/Experimental_stims/objects/alexander-andrews-JYGnB9gTCls-unsplash.jpg,1,NaN,,NaN,unchosen,NaN,NaN,NaN,NaN,1100,0,1,3
280,53286,0,281,4,4,1,gain6,no_gain2,G,A,39,0,objects,outdoor_scenes,50,50,Stimuli/Experimental_stims/objects/charlesdeluvio-1-nx1QR5dTE-unsplash.jpg,Stimuli/Experimental_stims/outdoor_scenes/aleksandra-boguslawska-MS7KD9Ti7FQ-unsplash.jpg,1,NaN,,NaN,chosen,NaN,NaN,NaN,NaN,1100,0,1,3
281,53286,0,282,4,4,1,gain2,no_gain5,B,C,4,7,outdoor_scenes,outdoor_scenes,50,50,Stimuli/Experimental_stims/outdoor_scenes/jarrett-kow-1ZOyYPOBn7I-unsplash.jpg,Stimuli/Experimental_stims/outdoor_scenes/petr-vysohlid-9fqwGqGLUxc-unsplash.jpg,1,NaN,,NaN,chosen,NaN,NaN,NaN,NaN,3900,1,1,3
282,53286,0,283,4,4,1,gain2,no_gain4,B,J,12,42,faces,objects,50,50,Stimuli/Experimental_stims/faces/aiony-haust-jmATI5Q_YgY-unsplash.jpg,Stimuli/Experimental_stims/objects/jess-bailey-nOeVi8DsN8U-unsplash.jpg,1,NaN,,NaN,unchosen,NaN,NaN,NaN,NaN,1200,0,1,3
283,53286,0,284,4,4,0,no_gain4,gain6,J,G,17,39,faces,objects,50,50,Stimuli/Experimental_stims/faces/good-faces-xmSWVeGEnJw-unsplash.jpg,Stimuli/Experimental_stims/objects/charlesdeluvio-1-nx1QR5dTE-unsplash.jpg,1,NaN,,NaN,chosen,NaN,NaN,NaN,NaN,1800,0,1,3
284,53286,0,285,4,4,0,no_gain1,gain3,F,L,25,20,body_parts,faces,50,50,Stimuli/Experimental_stims/body_parts/engin-akyurt-Q2rfH3GW39c-unsplash.jpg,Stimuli/Experimental_stims/faces/justin-chen-J7Cf1Gch49E-unsplash.jpg,1,NaN,,NaN,unchosen,NaN,NaN,NaN,NaN,1900,0,1,3
285,53286,0,286,4,4,1,gain1,no_gain3,H,E,16,44,faces,objects,50,50,Stimuli/Experimental_stims/faces/freddy-kearney-o-ioeoATbIM-unsplash.jpg,Stimuli/Experimental_stims/objects/kuiye-chen-NuOGFo4PudE-unsplash.jpg,1,NaN,,NaN,chosen,NaN,NaN,NaN,NaN,1100,0,1,3
286,53286,0,287,4,4,0,no_gain3,gain3,E,L,24,20,body_parts,faces,50,50,Stimuli/Experimental_stims/body_parts/clay-banks-LjqARJaJotc-unsplash.jpg,Stimuli/Experimental_stims/faces/justin-chen-J7Cf1Gch49E-unsplash.jpg,1,NaN,,NaN,unchosen,NaN,NaN,NaN,NaN,3000,0,1,3
287,53286,0,288,4,4,0,no_gain5,gain1,C,H,30,11,body_parts,outdoor_scenes,50,50,Stimuli/Experimental_stims/body_parts/mika-korhonen-Xodzxosar18-unsplash.jpg,Stimuli/Experimental_stims/outdoor_scenes/stephen-leonardi-gyIRjKPXupE-unsplash.jpg,1,NaN,,NaN,unchosen,NaN,NaN,NaN,NaN,2800,0,1,3
288,53286,0,289,4,4,0,no_gain3,gain5,E,D,24,15,body_parts,faces,50,50,Stimuli/Experimental_stims/body_parts/clay-banks-LjqARJaJotc-unsplash.jpg,Stimuli/Experimental_stims/faces/erik-lucatero-d2MSDujJl2g-unsplash.jpg,1,NaN,,NaN,unchosen,NaN,NaN,NaN,NaN,1600,0,1,3
289,53286,0,290,4,4,0,no_gain6,gain1,K,H,35,16,body_parts,faces,50,50,Stimuli/Experimental_stims/body_parts/wc-so-KH4AAPjb-tI-unsplash.jpg,Stimuli/Experimental_stims/faces/freddy-kearney-o-ioeoATbIM-unsplash.jpg,1,NaN,,NaN,chosen,NaN,NaN,NaN,NaN,1800,0,1,3
290,53286,0,291,4,4,0,no_gain2,gain1,A,H,0,16,outdoor_scenes,faces,50,50,Stimuli/Experimental_stims/outdoor_scenes/aleksandra-boguslawska-MS7KD9Ti7FQ-unsplash.jpg,Stimuli/Experimental_stims/faces/freddy-kearney-o-ioeoATbIM-unsplash.jpg,1,NaN,,NaN,chosen,NaN,NaN,NaN,NaN,1900,0,1,3
291,53286,0,292,4,4,1,gain1,no_gain5,H,C,16,7,faces,outdoor_scenes,50,50,Stimuli/Experimental_stims/faces/freddy-kearney-o-ioeoATbIM-unsplash.jpg,Stimuli/Experimental_stims/outdoor_scenes/petr-vysohlid-9fqwGqGLUxc-unsplash.jpg,1,NaN,,NaN,chosen,NaN,NaN,NaN,NaN,1700,0,1,3