,PID,practice,trial,block,run,gain_left,left_item_id,right_item_id,left_pair_id,right_pair_id,left_stimulus,right_stimulus,left_category,right_category,left_rating,right_rating,left_path,right_path,no_response,left_chosen,rt,higher_outcome_chosen,choice_type,chosen_stimulus,unchosen_stimulus,chosen_category,unchosen_category,iti,long_iti,simulation,version
0,65907,1,1,0,0,0,,,,,,,,,,,Stimuli/Practice_stims/Final_decisions/debby-hudson-FmCSSSGge-0-unsplash.jpg,Stimuli/Practice_stims/Final_decisions/yassine-khalfalli-adsQ9d_Cx0c-unsplash.jpg,0,NaN,NaN,NaN,,NaN,NaN,NaN,NaN,3000,0,5,4
1,65907,1,2,0,0,0,,,,,,,,,,,Stimuli/Practice_stims/Final_decisions/florian-wehde-iVW7mZPwd4g-unsplash.jpg,Stimuli/Practice_stims/Final_decisions/patrick-perkins-3wylDrjxH-E-unsplash.jpg,0,NaN,NaN,NaN,,NaN,NaN,NaN,NaN,1500,0,5,4
2,65907,1,3,0,0,0,,,,,,,,,,,Stimuli/Practice_stims/Final_decisions/debby-hudson-FmCSSSGge-0-unsplash.jpg,Stimuli/Practice_stims/Final_decisions/florian-wehde-iVW7mZPwd4g-unsplash.jpg,0,NaN,NaN,NaN,,NaN,NaN,NaN,NaN,2000,0,5,4
3,65907,1,4,0,0,0,,,,,,,,,,,Stimuli/Practice_stims/Final_decisions/yassine-khalfalli-adsQ9d_Cx0c-unsplash.jpg,Stimuli/Practice_stims/Final_decisions/debby-hudson-FmCSSSGge-0-unsplash.jpg,0,NaN,NaN,NaN,,NaN,NaN,NaN,NaN,1000,0,5,4
4,65907,0,5,1,1,0,no_gain2,gain4,K,B,43,7,objects,outdoor_scenes,37,66,Stimuli/Experimental_stims/objects/jonathan-greenaway-Y4hGgeiFn3s-unsplash.jpg,Stimuli/Experimental_stims/outdoor_scenes/petr-vysohlid-9fqwGqGLUxc-unsplash.jpg,0,NaN,NaN,NaN,chosen,NaN,NaN,NaN,NaN,5000,1,5,4
5,65907,0,6,1,1,0,no_gain1,gain4,H,B,12,22,faces,faces,65,42,Stimuli/Experimental_stims/faces/aiony-haust-jmATI5Q_YgY-unsplash.jpg,Stimuli/Experimental_stims/faces/ravi-patel-VMGAbeeJTKo-unsplash.jpg,0,NaN,NaN,NaN,unchosen,NaN,NaN,NaN,NaN,1700,0,5,4
6,65907,0,7,1,1,1,gain2,no_gain4,F,J,20,18,faces,faces,61,42,Stimuli/Experimental_stims/faces/justin-chen-J7Cf1Gch49E-unsplash.jpg,Stimuli/Experimental_stims/faces/jessica-radanavong-mrYkTuAesKE-unsplash.jpg,0,NaN,NaN,NaN,chosen,NaN,NaN,NaN,NaN,1600,0,5,4
7,65907,0,8,1,1,1,gain1,no_gain2,A,K,6,28,outdoor_scenes,body_parts,66,39,Stimuli/Experimental_stims/outdoor_scenes/meng-ji-8BH_M-53CyA-unsplash.jpg,Stimuli/Experimental_stims/body_parts/ira-vishnevskaya-8DQAvdCby1I-unsplash.jpg,0,NaN,NaN,NaN,unchosen,NaN,NaN,NaN,NaN,1800,0,5,4
8,65907,0,9,1,1,0,no_gain6,gain6,D,I,16,10,faces,outdoor_scenes,32,81,Stimuli/Experimental_stims/faces/freddy-kearney-o-ioeoATbIM-unsplash.jpg,Stimuli/Experimental_stims/outdoor_scenes/shannon-kunkle-dM8INmkyDas-unsplash.jpg,0,NaN,NaN,NaN,unchosen,NaN,NaN,NaN,NaN,1300,0,5,4
9,65907,0,10,1,1,1,gain6,no_gain1,I,H,10,12,outdoor_scenes,faces,81,65,Stimuli/Experimental_stims/outdoor_scenes/shannon-kunkle-dM8INmkyDas-unsplash.jpg,Stimuli/Experimental_stims/faces/aiony-haust-jmATI5Q_YgY-unsplash.jpg,0,NaN,NaN,NaN,unchosen,NaN,NaN,NaN,NaN,1200,0,5,4
10,65907,0,11,1,1,0,no_gain4,gain5,J,G,18,1,faces,outdoor_scenes,42,30,Stimuli/Experimental_stims/faces/jessica-radanavong-mrYkTuAesKE-unsplash.jpg,Stimuli/Experimental_stims/outdoor_scenes/ashim-d-silva-S2Q5mdOrrVc-unsplash.jpg,0,NaN,NaN,NaN,chosen,NaN,NaN,NaN,NaN,3800,1,5,4
11,65907,0,12,1,1,0,no_gain3,gain2,C,F,8,20,outdoor_scenes,faces,29,61,Stimuli/Experimental_stims/outdoor_scenes/samsommer-vddccTqwal8-unsplash.jpg,Stimuli/Experimental_stims/faces/justin-chen-J7Cf1Gch49E-unsplash.jpg,0,NaN,NaN,NaN,chosen,NaN,NaN,NaN,NaN,1100,0,5,4
12,65907,0,13,1,1,1,gain5,no_gain4,G,J,37,44,objects,objects,61,59,Stimuli/Experimental_stims/objects/alexander-andrews-VLGWE_SumrA-unsplash.jpg,Stimuli/Experimental_stims/objects/kuiye-chen-NuOGFo4PudE-unsplash.jpg,0,NaN,NaN,NaN,unchosen,NaN,NaN,NaN,NaN,2500,0,5,4
13,65907,0,14,1,1,0,no_gain3,gain3,C,E,8,41,outdoor_scenes,objects,29,72,Stimuli/Experimental_stims/outdoor_scenes/samsommer-vddccTqwal8-unsplash.jpg,Stimuli/Experimental_stims/objects/insung-yoon-w2JtIQQXoRU-unsplash.jpg,0,NaN,NaN,NaN,chosen,NaN,NaN,NaN,NaN,1500,0,5,4
14,65907,0,15,1,1,0,no_gain6,gain1,D,A,16,6,faces,outdoor_scenes,32,66,Stimuli/Experimental_stims/faces/freddy-kearney-o-ioeoATbIM-unsplash.jpg,Stimuli/Experimental_stims/outdoor_scenes/meng-ji-8BH_M-53CyA-unsplash.jpg,0,NaN,NaN,NaN,unchosen,NaN,NaN,NaN,NaN,1400,0,5,4
15,65907,0,16,1,1,0,no_gain2,gain3,K,E,43,41,objects,objects,37,72,Stimuli/Experimental_stims/objects/jonathan-greenaway-Y4hGgeiFn3s-unsplash.jpg,Stimuli/Experimental_stims/objects/insung-yoon-w2JtIQQXoRU-unsplash.jpg,0,NaN,NaN,NaN,chosen,NaN,NaN,NaN,NaN,3300,1,5,4
16,65907,0,17,1,1,0,no_gain3,gain3,C,E,27,26,body_parts,body_parts,76,38,Stimuli/Experimental_stims/body_parts/heike-mintel-i_Gns0ELnLw-unsplash.jpg,Stimuli/Experimental_stims/body_parts/engin-akyurt-x_3gyC42btc-unsplash.jpg,0,NaN,NaN,NaN,unchosen,NaN,NaN,NaN,NaN,1800,0,5,4
17,65907,0,18,1,1,0,no_gain1,gain3,H,E,12,26,faces,body_parts,65,38,Stimuli/Experimental_stims/faces/aiony-haust-jmATI5Q_YgY-unsplash.jpg,Stimuli/Experimental_stims/body_parts/engin-akyurt-x_3gyC42btc-unsplash.jpg,0,NaN,NaN,NaN,unchosen,NaN,NaN,NaN,NaN,1900,0,5,4
18,65907,0,19,1,1,0,no_gain6,gain4,D,B,16,22,faces,faces,32,42,Stimuli/Experimental_stims/faces/freddy-kearney-o-ioeoATbIM-unsplash.jpg,Stimuli/Experimental_stims/faces/ravi-patel-VMGAbeeJTKo-unsplash.jpg,0,NaN,NaN,NaN,unchosen,NaN,NaN,NaN,NaN,1100,0,5,4
19,65907,0,20,1,1,0,no_gain2,gain1,K,A,43,39,objects,objects,37,31,Stimuli/Experimental_stims/objects/jonathan-greenaway-Y4hGgeiFn3s-unsplash.jpg,Stimuli/Experimental_stims/objects/charlesdeluvio-1-nx1QR5dTE-unsplash.jpg,0,NaN,NaN,NaN,chosen,NaN,NaN,NaN,NaN,1200,0,5,4
20,65907,0,21,1,1,1,gain4,no_gain4,B,J,22,44,faces,objects,42,59,Stimuli/Experimental_stims/faces/ravi-patel-VMGAbeeJTKo-unsplash.jpg,Stimuli/Experimental_stims/objects/kuiye-chen-NuOGFo4PudE-unsplash.jpg,0,NaN,NaN,NaN,unchosen,NaN,NaN,NaN,NaN,1400,0,5,4
21,65907,0,22,1,1,0,no_gain4,gain3,J,E,18,41,faces,objects,42,72,Stimuli/Experimental_stims/faces/jessica-radanavong-mrYkTuAesKE-unsplash.jpg,Stimuli/Experimental_stims/objects/insung-yoon-w2JtIQQXoRU-unsplash.jpg,0,NaN,NaN,NaN,chosen,NaN,NaN,NaN,NaN,1100,0,5,4
22,65907,0,23,1,1,0,no_gain3,gain5,C,G,27,37,body_parts,objects,76,61,Stimuli/Experimental_stims/body_parts/heike-mintel-i_Gns0ELnLw-unsplash.jpg,Stimuli/Experimental_stims/objects/alexander-andrews-VLGWE_SumrA-unsplash.jpg,0,NaN,NaN,NaN,unchosen,NaN,NaN,NaN,NaN,1500,0,5,4
23,65907,0,24,1,1,1,gain1,no_gain3,A,C,39,8,objects,outdoor_scenes,31,29,Stimuli/Experimental_stims/objects/charlesdeluvio-1-nx1QR5dTE-unsplash.jpg,Stimuli/Experimental_stims/outdoor_scenes/samsommer-vddccTqwal8-unsplash.jpg,0,NaN,NaN,NaN,chosen,NaN,NaN,NaN,NaN,1600,0,5,4
24,65907,0,25,1,1,1,gain2,no_gain1,F,H,30,12,body_parts,faces,38,65,Stimuli/Experimental_stims/body_parts/mika-korhonen-Xodzxosar18-unsplash.jpg,Stimuli/Experimental_stims/faces/aiony-haust-jmATI5Q_YgY-unsplash.jpg,0,NaN,NaN,NaN,unchosen,NaN,NaN,NaN,NaN,3000,1,5,4
25,65907,0,26,1,1,1,gain6,no_gain4,I,J,35,18,body_parts,faces,31,42,Stimuli/Experimental_stims/body_parts/wc-so-KH4AAPjb-tI-unsplash.jpg,Stimuli/Experimental_stims/faces/jessica-radanavong-mrYkTuAesKE-unsplash.jpg,0,NaN,NaN,NaN,chosen,NaN,NaN,NaN,NaN,1600,0,5,4
26,65907,0,27,1,1,0,no_gain1,gain1,H,A,12,6,faces,outdoor_scenes,65,66,Stimuli/Experimental_stims/faces/aiony-haust-jmATI5Q_YgY-unsplash.jpg,Stimuli/Experimental_stims/outdoor_scenes/meng-ji-8BH_M-53CyA-unsplash.jpg,0,NaN,NaN,NaN,unchosen,NaN,NaN,NaN,NaN,2900,0,5,4
27,65907,0,28,1,1,0,no_gain1,gain3,H,E,0,41,outdoor_scenes,objects,68,72,Stimuli/Experimental_stims/outdoor_scenes/aleksandra-boguslawska-MS7KD9Ti7FQ-unsplash.jpg,Stimuli/Experimental_stims/objects/insung-yoon-w2JtIQQXoRU-unsplash.jpg,0,NaN,NaN,NaN,chosen,NaN,NaN,NaN,NaN,2700,0,5,4
28,65907,0,29,1,1,1,gain5,no_gain3,G,C,1,8,outdoor_scenes,outdoor_scenes,30,29,Stimuli/Experimental_stims/outdoor_scenes/ashim-d-silva-S2Q5mdOrrVc-unsplash.jpg,Stimuli/Experimental_stims/outdoor_scenes/samsommer-vddccTqwal8-unsplash.jpg,0,NaN,NaN,NaN,chosen,NaN,NaN,NaN,NaN,1800,0,5,4
29,65907,0,30,1,1,1,gain5,no_gain5,G,L,37,19,objects,faces,61,69,Stimuli/Experimental_stims/objects/alexander-andrews-VLGWE_SumrA-unsplash.jpg,Stimuli/Experimental_stims/faces/joel-mott-LaK153ghdig-unsplash.jpg,0,NaN,NaN,NaN,unchosen,NaN,NaN,NaN,NaN,2300,0,5,4
30,65907,0,31,1,1,0,no_gain1,gain4,H,B,0,7,outdoor_scenes,outdoor_scenes,68,66,Stimuli/Experimental_stims/outdoor_scenes/aleksandra-boguslawska-MS7KD9Ti7FQ-unsplash.jpg,Stimuli/Experimental_stims/outdoor_scenes/petr-vysohlid-9fqwGqGLUxc-unsplash.jpg,0,NaN,NaN,NaN,chosen,NaN,NaN,NaN,NaN,2000,0,5,4
31,65907,0,32,1,1,1,gain6,no_gain2,I,K,35,43,body_parts,objects,31,37,Stimuli/Experimental_stims/body_parts/wc-so-KH4AAPjb-tI-unsplash.jpg,Stimuli/Experimental_stims/objects/jonathan-greenaway-Y4hGgeiFn3s-unsplash.jpg,0,NaN,NaN,NaN,chosen,NaN,NaN,NaN,NaN,2600,0,5,4
32,65907,0,33,1,1,1,gain4,no_gain3,B,C,22,27,faces,body_parts,42,76,Stimuli/Experimental_stims/faces/ravi-patel-VMGAbeeJTKo-unsplash.jpg,Stimuli/Experimental_stims/body_parts/heike-mintel-i_Gns0ELnLw-unsplash.jpg,0,NaN,NaN,NaN,unchosen,NaN,NaN,NaN,NaN,3500,1,5,4
33,65907,0,34,1,1,1,gain4,no_gain5,B,L,22,19,faces,faces,42,69,Stimuli/Experimental_stims/faces/ravi-patel-VMGAbeeJTKo-unsplash.jpg,Stimuli/Experimental_stims/faces/joel-mott-LaK153ghdig-unsplash.jpg,0,NaN,NaN,NaN,unchosen,NaN,NaN,NaN,NaN,1000,0,5,4
34,65907,0,35,1,1,0,no_gain5,gain6,L,I,29,35,body_parts,body_parts,96,31,Stimuli/Experimental_stims/body_parts/manuel-schinner-ZwjFuJ7ebpk-unsplash.jpg,Stimuli/Experimental_stims/body_parts/wc-so-KH4AAPjb-tI-unsplash.jpg,0,NaN,NaN,NaN,chosen,NaN,NaN,NaN,NaN,1600,0,5,4
35,65907,0,36,1,1,1,gain1,no_gain5,A,L,39,29,objects,body_parts,31,96,Stimuli/Experimental_stims/objects/charlesdeluvio-1-nx1QR5dTE-unsplash.jpg,Stimuli/Experimental_stims/body_parts/manuel-schinner-ZwjFuJ7ebpk-unsplash.jpg,0,NaN,NaN,NaN,chosen,NaN,NaN,NaN,NaN,1200,0,5,4
36,65907,0,37,1,1,0,no_gain6,gain2,D,F,40,20,objects,faces,67,61,Stimuli/Experimental_stims/objects/fabian-blank-pElSkGRA2NU-unsplash.jpg,Stimuli/Experimental_stims/faces/justin-chen-J7Cf1Gch49E-unsplash.jpg,0,NaN,NaN,NaN,chosen,NaN,NaN,NaN,NaN,1500,0,5,4
37,65907,0,38,1,1,1,gain2,no_gain6,F,D,30,16,body_parts,faces,38,32,Stimuli/Experimental_stims/body_parts/mika-korhonen-Xodzxosar18-unsplash.jpg,Stimuli/Experimental_stims/faces/freddy-kearney-o-ioeoATbIM-unsplash.jpg,0,NaN,NaN,NaN,unchosen,NaN,NaN,NaN,NaN,4800,1,5,4
38,65907,0,39,1,1,1,gain2,no_gain2,F,K,20,43,faces,objects,61,37,Stimuli/Experimental_stims/faces/justin-chen-J7Cf1Gch49E-unsplash.jpg,Stimuli/Experimental_stims/objects/jonathan-greenaway-Y4hGgeiFn3s-unsplash.jpg,0,NaN,NaN,NaN,chosen,NaN,NaN,NaN,NaN,1500,0,5,4
39,65907,0,40,1,1,0,no_gain5,gain1,L,A,19,6,faces,outdoor_scenes,69,66,Stimuli/Experimental_stims/faces/joel-mott-LaK153ghdig-unsplash.jpg,Stimuli/Experimental_stims/outdoor_scenes/meng-ji-8BH_M-53CyA-unsplash.jpg,0,NaN,NaN,NaN,unchosen,NaN,NaN,NaN,NaN,1700,0,5,4
40,65907,0,41,1,1,0,no_gain4,gain1,J,A,44,6,objects,outdoor_scenes,59,66,Stimuli/Experimental_stims/objects/kuiye-chen-NuOGFo4PudE-unsplash.jpg,Stimuli/Experimental_stims/outdoor_scenes/meng-ji-8BH_M-53CyA-unsplash.jpg,0,NaN,NaN,NaN,unchosen,NaN,NaN,NaN,NaN,1200,0,5,4
41,65907,0,42,1,1,1,gain5,no_gain2,G,K,37,28,objects,body_parts,61,39,Stimuli/Experimental_stims/objects/alexander-andrews-VLGWE_SumrA-unsplash.jpg,Stimuli/Experimental_stims/body_parts/ira-vishnevskaya-8DQAvdCby1I-unsplash.jpg,0,NaN,NaN,NaN,unchosen,NaN,NaN,NaN,NaN,1400,0,5,4
42,65907,0,43,1,1,1,gain6,no_gain6,I,D,35,40,body_parts,objects,31,67,Stimuli/Experimental_stims/body_parts/wc-so-KH4AAPjb-tI-unsplash.jpg,Stimuli/Experimental_stims/objects/fabian-blank-pElSkGRA2NU-unsplash.jpg,0,NaN,NaN,NaN,chosen,NaN,NaN,NaN,NaN,1800,0,5,4
43,65907,0,44,1,1,1,gain1,no_gain3,A,C,6,27,outdoor_scenes,body_parts,66,76,Stimuli/Experimental_stims/outdoor_scenes/meng-ji-8BH_M-53CyA-unsplash.jpg,Stimuli/Experimental_stims/body_parts/heike-mintel-i_Gns0ELnLw-unsplash.jpg,0,NaN,NaN,NaN,unchosen,NaN,NaN,NaN,NaN,3600,1,5,4
44,65907,0,45,1,1,1,gain2,no_gain5,F,L,20,29,faces,body_parts,61,96,Stimuli/Experimental_stims/faces/justin-chen-J7Cf1Gch49E-unsplash.jpg,Stimuli/Experimental_stims/body_parts/manuel-schinner-ZwjFuJ7ebpk-unsplash.jpg,0,NaN,NaN,NaN,chosen,NaN,NaN,NaN,NaN,1200,0,5,4
45,65907,0,46,1,1,0,no_gain2,gain5,K,G,43,1,objects,outdoor_scenes,37,30,Stimuli/Experimental_stims/objects/jonathan-greenaway-Y4hGgeiFn3s-unsplash.jpg,Stimuli/Experimental_stims/outdoor_scenes/ashim-d-silva-S2Q5mdOrrVc-unsplash.jpg,0,NaN,NaN,NaN,chosen,NaN,NaN,NaN,NaN,2700,0,5,4
46,65907,0,47,1,1,0,no_gain4,gain3,J,E,44,26,objects,body_parts,59,38,Stimuli/Experimental_stims/objects/kuiye-chen-NuOGFo4PudE-unsplash.jpg,Stimuli/Experimental_stims/body_parts/engin-akyurt-x_3gyC42btc-unsplash.jpg,0,NaN,NaN,NaN,unchosen,NaN,NaN,NaN,NaN,2100,0,5,4
47,65907,0,48,1,1,1,gain6,no_gain4,I,J,10,44,outdoor_scenes,objects,81,59,Stimuli/Experimental_stims/outdoor_scenes/shannon-kunkle-dM8INmkyDas-unsplash.jpg,Stimuli/Experimental_stims/objects/kuiye-chen-NuOGFo4PudE-unsplash.jpg,0,NaN,NaN,NaN,unchosen,NaN,NaN,NaN,NaN,2500,0,5,4
48,65907,0,49,1,1,1,gain3,no_gain6,E,D,41,40,objects,objects,72,67,Stimuli/Experimental_stims/objects/insung-yoon-w2JtIQQXoRU-unsplash.jpg,Stimuli/Experimental_stims/objects/fabian-blank-pElSkGRA2NU-unsplash.jpg,0,NaN,NaN,NaN,chosen,NaN,NaN,NaN,NaN,1500,0,5,4
49,65907,0,50,1,1,1,gain2,no_gain1,F,H,20,0,faces,outdoor_scenes,61,68,Stimuli/Experimental_stims/faces/justin-chen-J7Cf1Gch49E-unsplash.jpg,Stimuli/Experimental_stims/outdoor_scenes/aleksandra-boguslawska-MS7KD9Ti7FQ-unsplash.jpg,0,NaN,NaN,NaN,chosen,NaN,NaN,NaN,NaN,1300,0,5,4
50,65907,0,51,1,1,1,gain6,no_gain3,I,C,35,8,body_parts,outdoor_scenes,31,29,Stimuli/Experimental_stims/body_parts/wc-so-KH4AAPjb-tI-unsplash.jpg,Stimuli/Experimental_stims/outdoor_scenes/samsommer-vddccTqwal8-unsplash.jpg,0,NaN,NaN,NaN,chosen,NaN,NaN,NaN,NaN,1000,0,5,4
51,65907,0,52,1,1,1,gain6,no_gain3,I,C,10,27,outdoor_scenes,body_parts,81,76,Stimuli/Experimental_stims/outdoor_scenes/shannon-kunkle-dM8INmkyDas-unsplash.jpg,Stimuli/Experimental_stims/body_parts/heike-mintel-i_Gns0ELnLw-unsplash.jpg,0,NaN,NaN,NaN,unchosen,NaN,NaN,NaN,NaN,1500,0,5,4
52,65907,0,53,1,1,0,no_gain6,gain3,D,E,16,26,faces,body_parts,32,38,Stimuli/Experimental_stims/faces/freddy-kearney-o-ioeoATbIM-unsplash.jpg,Stimuli/Experimental_stims/body_parts/engin-akyurt-x_3gyC42btc-unsplash.jpg,0,NaN,NaN,NaN,unchosen,NaN,NaN,NaN,NaN,2200,0,5,4
53,65907,0,54,1,1,1,gain2,no_gain5,F,L,30,19,body_parts,faces,38,69,Stimuli/Experimental_stims/body_parts/mika-korhonen-Xodzxosar18-unsplash.jpg,Stimuli/Experimental_stims/faces/joel-mott-LaK153ghdig-unsplash.jpg,0,NaN,NaN,NaN,unchosen,NaN,NaN,NaN,NaN,1300,0,5,4
54,65907,0,55,1,1,1,gain4,no_gain6,B,D,7,40,outdoor_scenes,objects,66,67,Stimuli/Experimental_stims/outdoor_scenes/petr-vysohlid-9fqwGqGLUxc-unsplash.jpg,Stimuli/Experimental_stims/objects/fabian-blank-pElSkGRA2NU-unsplash.jpg,0,NaN,NaN,NaN,chosen,NaN,NaN,NaN,NaN,3000,1,5,4
55,65907,0,56,1,1,1,gain4,no_gain2,B,K,22,28,faces,body_parts,42,39,Stimuli/Experimental_stims/faces/ravi-patel-VMGAbeeJTKo-unsplash.jpg,Stimuli/Experimental_stims/body_parts/ira-vishnevskaya-8DQAvdCby1I-unsplash.jpg,0,NaN,NaN,NaN,unchosen,NaN,NaN,NaN,NaN,1400,0,5,4
56,65907,0,57,1,1,1,gain3,no_gain2,E,K,26,28,body_parts,body_parts,38,39,Stimuli/Experimental_stims/body_parts/engin-akyurt-x_3gyC42btc-unsplash.jpg,Stimuli/Experimental_stims/body_parts/ira-vishnevskaya-8DQAvdCby1I-unsplash.jpg,0,NaN,NaN,NaN,unchosen,NaN,NaN,NaN,NaN,1500,0,5,4
57,65907,0,58,1,1,0,no_gain4,gain1,J,A,18,39,faces,objects,42,31,Stimuli/Experimental_stims/faces/jessica-radanavong-mrYkTuAesKE-unsplash.jpg,Stimuli/Experimental_stims/objects/charlesdeluvio-1-nx1QR5dTE-unsplash.jpg,0,NaN,NaN,NaN,chosen,NaN,NaN,NaN,NaN,1200,0,5,4
58,65907,0,59,1,1,0,no_gain2,gain2,K,F,28,30,body_parts,body_parts,39,38,Stimuli/Experimental_stims/body_parts/ira-vishnevskaya-8DQAvdCby1I-unsplash.jpg,Stimuli/Experimental_stims/body_parts/mika-korhonen-Xodzxosar18-unsplash.jpg,0,NaN,NaN,NaN,unchosen,NaN,NaN,NaN,NaN,1600,0,5,4
59,65907,0,60,1,1,0,no_gain6,gain1,D,A,40,39,objects,objects,67,31,Stimuli/Experimental_stims/objects/fabian-blank-pElSkGRA2NU-unsplash.jpg,Stimuli/Experimental_stims/objects/charlesdeluvio-1-nx1QR5dTE-unsplash.jpg,0,NaN,NaN,NaN,chosen,NaN,NaN,NaN,NaN,2300,0,5,4
60,65907,0,61,1,1,1,gain2,no_gain3,F,C,30,27,body_parts,body_parts,38,76,Stimuli/Experimental_stims/body_parts/mika-korhonen-Xodzxosar18-unsplash.jpg,Stimuli/Experimental_stims/body_parts/heike-mintel-i_Gns0ELnLw-unsplash.jpg,0,NaN,NaN,NaN,unchosen,NaN,NaN,NaN,NaN,1400,0,5,4
61,65907,0,62,1,1,0,no_gain5,gain4,L,B,29,7,body_parts,outdoor_scenes,96,66,Stimuli/Experimental_stims/body_parts/manuel-schinner-ZwjFuJ7ebpk-unsplash.jpg,Stimuli/Experimental_stims/outdoor_scenes/petr-vysohlid-9fqwGqGLUxc-unsplash.jpg,0,NaN,NaN,NaN,chosen,NaN,NaN,NaN,NaN,4400,1,5,4
62,65907,0,63,1,1,1,gain3,no_gain5,E,L,41,29,objects,body_parts,72,96,Stimuli/Experimental_stims/objects/insung-yoon-w2JtIQQXoRU-unsplash.jpg,Stimuli/Experimental_stims/body_parts/manuel-schinner-ZwjFuJ7ebpk-unsplash.jpg,0,NaN,NaN,NaN,chosen,NaN,NaN,NaN,NaN,1900,0,5,4
63,65907,0,64,1,1,0,no_gain6,gain5,D,G,16,37,faces,objects,32,61,Stimuli/Experimental_stims/faces/freddy-kearney-o-ioeoATbIM-unsplash.jpg,Stimuli/Experimental_stims/objects/alexander-andrews-VLGWE_SumrA-unsplash.jpg,0,NaN,NaN,NaN,unchosen,NaN,NaN,NaN,NaN,2000,0,5,4
64,65907,0,65,1,1,0,no_gain5,gain6,L,I,19,10,faces,outdoor_scenes,69,81,Stimuli/Experimental_stims/faces/joel-mott-LaK153ghdig-unsplash.jpg,Stimuli/Experimental_stims/outdoor_scenes/shannon-kunkle-dM8INmkyDas-unsplash.jpg,0,NaN,NaN,NaN,unchosen,NaN,NaN,NaN,NaN,1500,0,5,4
65,65907,0,66,1,1,1,gain5,no_gain6,G,D,1,40,outdoor_scenes,objects,30,67,Stimuli/Experimental_stims/outdoor_scenes/ashim-d-silva-S2Q5mdOrrVc-unsplash.jpg,Stimuli/Experimental_stims/objects/fabian-blank-pElSkGRA2NU-unsplash.jpg,0,NaN,NaN,NaN,chosen,NaN,NaN,NaN,NaN,1600,0,5,4
66,65907,0,67,1,1,0,no_gain2,gain6,K,I,28,10,body_parts,outdoor_scenes,39,81,Stimuli/Experimental_stims/body_parts/ira-vishnevskaya-8DQAvdCby1I-unsplash.jpg,Stimuli/Experimental_stims/outdoor_scenes/shannon-kunkle-dM8INmkyDas-unsplash.jpg,0,NaN,NaN,NaN,unchosen,NaN,NaN,NaN,NaN,3000,1,5,4
67,65907,0,68,1,1,0,no_gain1,gain1,H,A,0,39,outdoor_scenes,objects,68,31,Stimuli/Experimental_stims/outdoor_scenes/aleksandra-boguslawska-MS7KD9Ti7FQ-unsplash.jpg,Stimuli/Experimental_stims/objects/charlesdeluvio-1-nx1QR5dTE-unsplash.jpg,0,NaN,NaN,NaN,chosen,NaN,NaN,NaN,NaN,1900,0,5,4
68,65907,0,69,1,1,0,no_gain4,gain2,J,F,44,30,objects,body_parts,59,38,Stimuli/Experimental_stims/objects/kuiye-chen-NuOGFo4PudE-unsplash.jpg,Stimuli/Experimental_stims/body_parts/mika-korhonen-Xodzxosar18-unsplash.jpg,0,NaN,NaN,NaN,unchosen,NaN,NaN,NaN,NaN,1100,0,5,4
69,65907,0,70,1,1,1,gain4,no_gain3,B,C,7,8,outdoor_scenes,outdoor_scenes,66,29,Stimuli/Experimental_stims/outdoor_scenes/petr-vysohlid-9fqwGqGLUxc-unsplash.jpg,Stimuli/Experimental_stims/outdoor_scenes/samsommer-vddccTqwal8-unsplash.jpg,0,NaN,NaN,NaN,chosen,NaN,NaN,NaN,NaN,1300,0,5,4
70,65907,0,71,1,1,1,gain6,no_gain1,I,H,35,0,body_parts,outdoor_scenes,31,68,Stimuli/Experimental_stims/body_parts/wc-so-KH4AAPjb-tI-unsplash.jpg,Stimuli/Experimental_stims/outdoor_scenes/aleksandra-boguslawska-MS7KD9Ti7FQ-unsplash.jpg,0,NaN,NaN,NaN,chosen,NaN,NaN,NaN,NaN,2600,0,5,4
71,65907,0,72,1,1,0,no_gain5,gain5,L,G,29,1,body_parts,outdoor_scenes,96,30,Stimuli/Experimental_stims/body_parts/manuel-schinner-ZwjFuJ7ebpk-unsplash.jpg,Stimuli/Experimental_stims/outdoor_scenes/ashim-d-silva-S2Q5mdOrrVc-unsplash.jpg,0,NaN,NaN,NaN,chosen,NaN,NaN,NaN,NaN,1100,0,5,4
72,65907,0,73,1,1,0,no_gain1,gain5,H,G,12,37,faces,objects,65,61,Stimuli/Experimental_stims/faces/aiony-haust-jmATI5Q_YgY-unsplash.jpg,Stimuli/Experimental_stims/objects/alexander-andrews-VLGWE_SumrA-unsplash.jpg,0,NaN,NaN,NaN,unchosen,NaN,NaN,NaN,NaN,2500,0,5,4
73,65907,0,74,1,1,1,gain4,no_gain4,B,J,7,18,outdoor_scenes,faces,66,42,Stimuli/Experimental_stims/outdoor_scenes/petr-vysohlid-9fqwGqGLUxc-unsplash.jpg,Stimuli/Experimental_stims/faces/jessica-radanavong-mrYkTuAesKE-unsplash.jpg,0,NaN,NaN,NaN,chosen,NaN,NaN,NaN,NaN,2600,0,5,4
74,65907,0,75,1,1,0,no_gain1,gain5,H,G,0,1,outdoor_scenes,outdoor_scenes,68,30,Stimuli/Experimental_stims/outdoor_scenes/aleksandra-boguslawska-MS7KD9Ti7FQ-unsplash.jpg,Stimuli/Experimental_stims/outdoor_scenes/ashim-d-silva-S2Q5mdOrrVc-unsplash.jpg,0,NaN,NaN,NaN,chosen,NaN,NaN,NaN,NaN,1100,0,5,4
75,65907,0,76,1,1,1,gain3,no_gain5,E,L,26,19,body_parts,faces,38,69,Stimuli/Experimental_stims/body_parts/engin-akyurt-x_3gyC42btc-unsplash.jpg,Stimuli/Experimental_stims/faces/joel-mott-LaK153ghdig-unsplash.jpg,0,NaN,NaN,NaN,unchosen,NaN,NaN,NaN,NaN,4200,1,5,4
76,65907,0,77,2,2,1,gain4,no_gain6,B,D,22,16,faces,faces,42,32,Stimuli/Experimental_stims/faces/ravi-patel-VMGAbeeJTKo-unsplash.jpg,Stimuli/Experimental_stims/faces/freddy-kearney-o-ioeoATbIM-unsplash.jpg,0,NaN,NaN,NaN,unchosen,NaN,NaN,NaN,NaN,1200,0,8,4
77,65907,0,78,2,2,1,gain4,no_gain3,B,C,22,27,faces,body_parts,42,76,Stimuli/Experimental_stims/faces/ravi-patel-VMGAbeeJTKo-unsplash.jpg,Stimuli/Experimental_stims/body_parts/heike-mintel-i_Gns0ELnLw-unsplash.jpg,0,NaN,NaN,NaN,unchosen,NaN,NaN,NaN,NaN,1400,0,8,4
78,65907,0,79,2,2,1,gain5,no_gain2,G,K,37,28,objects,body_parts,61,39,Stimuli/Experimental_stims/objects/alexander-andrews-VLGWE_SumrA-unsplash.jpg,Stimuli/Experimental_stims/body_parts/ira-vishnevskaya-8DQAvdCby1I-unsplash.jpg,0,NaN,NaN,NaN,unchosen,NaN,NaN,NaN,NaN,2800,0,8,4
79,65907,0,80,2,2,0,no_gain3,gain1,C,A,8,39,outdoor_scenes,objects,29,31,Stimuli/Experimental_stims/outdoor_scenes/samsommer-vddccTqwal8-unsplash.jpg,Stimuli/Experimental_stims/objects/charlesdeluvio-1-nx1QR5dTE-unsplash.jpg,0,NaN,NaN,NaN,chosen,NaN,NaN,NaN,NaN,1700,0,8,4
80,65907,0,81,2,2,0,no_gain5,gain6,L,I,19,10,faces,outdoor_scenes,69,81,Stimuli/Experimental_stims/faces/joel-mott-LaK153ghdig-unsplash.jpg,Stimuli/Experimental_stims/outdoor_scenes/shannon-kunkle-dM8INmkyDas-unsplash.jpg,0,NaN,NaN,NaN,unchosen,NaN,NaN,NaN,NaN,3700,1,8,4
81,65907,0,82,2,2,1,gain1,no_gain4,A,J,6,44,outdoor_scenes,objects,66,59,Stimuli/Experimental_stims/outdoor_scenes/meng-ji-8BH_M-53CyA-unsplash.jpg,Stimuli/Experimental_stims/objects/kuiye-chen-NuOGFo4PudE-unsplash.jpg,0,NaN,NaN,NaN,unchosen,NaN,NaN,NaN,NaN,2300,0,8,4
82,65907,0,83,2,2,0,no_gain1,gain1,H,A,0,39,outdoor_scenes,objects,68,31,Stimuli/Experimental_stims/outdoor_scenes/aleksandra-boguslawska-MS7KD9Ti7FQ-unsplash.jpg,Stimuli/Experimental_stims/objects/charlesdeluvio-1-nx1QR5dTE-unsplash.jpg,0,NaN,NaN,NaN,chosen,NaN,NaN,NaN,NaN,2900,0,8,4
83,65907,0,84,2,2,0,no_gain3,gain5,C,G,27,37,body_parts,objects,76,61,Stimuli/Experimental_stims/body_parts/heike-mintel-i_Gns0ELnLw-unsplash.jpg,Stimuli/Experimental_stims/objects/alexander-andrews-VLGWE_SumrA-unsplash.jpg,0,NaN,NaN,NaN,unchosen,NaN,NaN,NaN,NaN,2300,0,8,4
84,65907,0,85,2,2,0,no_gain2,gain1,K,A,43,39,objects,objects,37,31,Stimuli/Experimental_stims/objects/jonathan-greenaway-Y4hGgeiFn3s-unsplash.jpg,Stimuli/Experimental_stims/objects/charlesdeluvio-1-nx1QR5dTE-unsplash.jpg,0,NaN,NaN,NaN,chosen,NaN,NaN,NaN,NaN,1200,0,8,4
85,65907,0,86,2,2,0,no_gain1,gain1,H,A,12,6,faces,outdoor_scenes,65,66,Stimuli/Experimental_stims/faces/aiony-haust-jmATI5Q_YgY-unsplash.jpg,Stimuli/Experimental_stims/outdoor_scenes/meng-ji-8BH_M-53CyA-unsplash.jpg,0,NaN,NaN,NaN,unchosen,NaN,NaN,NaN,NaN,3100,1,8,4
86,65907,0,87,2,2,0,no_gain2,gain4,K,B,43,7,objects,outdoor_scenes,37,66,Stimuli/Experimental_stims/objects/jonathan-greenaway-Y4hGgeiFn3s-unsplash.jpg,Stimuli/Experimental_stims/outdoor_scenes/petr-vysohlid-9fqwGqGLUxc-unsplash.jpg,0,NaN,NaN,NaN,chosen,NaN,NaN,NaN,NaN,1200,0,8,4
87,65907,0,88,2,2,0,no_gain5,gain2,L,F,19,30,faces,body_parts,69,38,Stimuli/Experimental_stims/faces/joel-mott-LaK153ghdig-unsplash.jpg,Stimuli/Experimental_stims/body_parts/mika-korhonen-Xodzxosar18-unsplash.jpg,0,NaN,NaN,NaN,unchosen,NaN,NaN,NaN,NaN,1900,0,8,4
88,65907,0,89,2,2,1,gain6,no_gain1,I,H,35,0,body_parts,outdoor_scenes,31,68,Stimuli/Experimental_stims/body_parts/wc-so-KH4AAPjb-tI-unsplash.jpg,Stimuli/Experimental_stims/outdoor_scenes/aleksandra-boguslawska-MS7KD9Ti7FQ-unsplash.jpg,0,NaN,NaN,NaN,chosen,NaN,NaN,NaN,NaN,2800,0,8,4
89,65907,0,90,2,2,1,gain5,no_gain3,G,C,1,8,outdoor_scenes,outdoor_scenes,30,29,Stimuli/Experimental_stims/outdoor_scenes/ashim-d-silva-S2Q5mdOrrVc-unsplash.jpg,Stimuli/Experimental_stims/outdoor_scenes/samsommer-vddccTqwal8-unsplash.jpg,0,NaN,NaN,NaN,chosen,NaN,NaN,NaN,NaN,1200,0,8,4
90,65907,0,91,2,2,1,gain4,no_gain4,B,J,22,44,faces,objects,42,59,Stimuli/Experimental_stims/faces/ravi-patel-VMGAbeeJTKo-unsplash.jpg,Stimuli/Experimental_stims/objects/kuiye-chen-NuOGFo4PudE-unsplash.jpg,0,NaN,NaN,NaN,unchosen,NaN,NaN,NaN,NaN,3800,1,8,4
91,65907,0,92,2,2,0,no_gain1,gain2,H,F,12,30,faces,body_parts,65,38,Stimuli/Experimental_stims/faces/aiony-haust-jmATI5Q_YgY-unsplash.jpg,Stimuli/Experimental_stims/body_parts/mika-korhonen-Xodzxosar18-unsplash.jpg,0,NaN,NaN,NaN,unchosen,NaN,NaN,NaN,NaN,1800,0,8,4
92,65907,0,93,2,2,0,no_gain3,gain4,C,B,8,7,outdoor_scenes,outdoor_scenes,29,66,Stimuli/Experimental_stims/outdoor_scenes/samsommer-vddccTqwal8-unsplash.jpg,Stimuli/Experimental_stims/outdoor_scenes/petr-vysohlid-9fqwGqGLUxc-unsplash.jpg,0,NaN,NaN,NaN,chosen,NaN,NaN,NaN,NaN,2300,0,8,4
93,65907,0,94,2,2,1,gain5,no_gain1,G,H,1,0,outdoor_scenes,outdoor_scenes,30,68,Stimuli/Experimental_stims/outdoor_scenes/ashim-d-silva-S2Q5mdOrrVc-unsplash.jpg,Stimuli/Experimental_stims/outdoor_scenes/aleksandra-boguslawska-MS7KD9Ti7FQ-unsplash.jpg,0,NaN,NaN,NaN,chosen,NaN,NaN,NaN,NaN,1400,0,8,4
94,65907,0,95,2,2,0,no_gain5,gain4,L,B,19,22,faces,faces,69,42,Stimuli/Experimental_stims/faces/joel-mott-LaK153ghdig-unsplash.jpg,Stimuli/Experimental_stims/faces/ravi-patel-VMGAbeeJTKo-unsplash.jpg,0,NaN,NaN,NaN,unchosen,NaN,NaN,NaN,NaN,1300,0,8,4
95,65907,0,96,2,2,1,gain4,no_gain5,B,L,7,29,outdoor_scenes,body_parts,66,96,Stimuli/Experimental_stims/outdoor_scenes/petr-vysohlid-9fqwGqGLUxc-unsplash.jpg,Stimuli/Experimental_stims/body_parts/manuel-schinner-ZwjFuJ7ebpk-unsplash.jpg,0,NaN,NaN,NaN,chosen,NaN,NaN,NaN,NaN,1700,0,8,4
96,65907,0,97,2,2,1,gain5,no_gain1,G,H,37,12,objects,faces,61,65,Stimuli/Experimental_stims/objects/alexander-andrews-VLGWE_SumrA-unsplash.jpg,Stimuli/Experimental_stims/faces/aiony-haust-jmATI5Q_YgY-unsplash.jpg,0,NaN,NaN,NaN,unchosen,NaN,NaN,NaN,NaN,3100,1,8,4
97,65907,0,98,2,2,1,gain1,no_gain6,A,D,39,40,objects,objects,31,67,Stimuli/Experimental_stims/objects/charlesdeluvio-1-nx1QR5dTE-unsplash.jpg,Stimuli/Experimental_stims/objects/fabian-blank-pElSkGRA2NU-unsplash.jpg,0,NaN,NaN,NaN,chosen,NaN,NaN,NaN,NaN,1300,0,8,4
98,65907,0,99,2,2,0,no_gain2,gain1,K,A,28,6,body_parts,outdoor_scenes,39,66,Stimuli/Experimental_stims/body_parts/ira-vishnevskaya-8DQAvdCby1I-unsplash.jpg,Stimuli/Experimental_stims/outdoor_scenes/meng-ji-8BH_M-53CyA-unsplash.jpg,0,NaN,NaN,NaN,unchosen,NaN,NaN,NaN,NaN,2100,0,8,4
99,65907,0,100,2,2,1,gain2,no_gain3,F,C,20,8,faces,outdoor_scenes,61,29,Stimuli/Experimental_stims/faces/justin-chen-J7Cf1Gch49E-unsplash.jpg,Stimuli/Experimental_stims/outdoor_scenes/samsommer-vddccTqwal8-unsplash.jpg,0,NaN,NaN,NaN,chosen,NaN,NaN,NaN,NaN,1000,0,8,4
100,65907,0,101,2,2,1,gain2,no_gain2,F,K,20,43,faces,objects,61,37,Stimuli/Experimental_stims/faces/justin-chen-J7Cf1Gch49E-unsplash.jpg,Stimuli/Experimental_stims/objects/jonathan-greenaway-Y4hGgeiFn3s-unsplash.jpg,0,NaN,NaN,NaN,chosen,NaN,NaN,NaN,NaN,1200,0,8,4
101,65907,0,102,2,2,1,gain3,no_gain1,E,H,41,0,objects,outdoor_scenes,72,68,Stimuli/Experimental_stims/objects/insung-yoon-w2JtIQQXoRU-unsplash.jpg,Stimuli/Experimental_stims/outdoor_scenes/aleksandra-boguslawska-MS7KD9Ti7FQ-unsplash.jpg,0,NaN,NaN,NaN,chosen,NaN,NaN,NaN,NaN,1700,0,8,4
102,65907,0,103,2,2,0,no_gain5,gain5,L,G,19,37,faces,objects,69,61,Stimuli/Experimental_stims/faces/joel-mott-LaK153ghdig-unsplash.jpg,Stimuli/Experimental_stims/objects/alexander-andrews-VLGWE_SumrA-unsplash.jpg,0,NaN,NaN,NaN,unchosen,NaN,NaN,NaN,NaN,1100,0,8,4
103,65907,0,104,2,2,0,no_gain6,gain5,D,G,40,1,objects,outdoor_scenes,67,30,Stimuli/Experimental_stims/objects/fabian-blank-pElSkGRA2NU-unsplash.jpg,Stimuli/Experimental_stims/outdoor_scenes/ashim-d-silva-S2Q5mdOrrVc-unsplash.jpg,0,NaN,NaN,NaN,chosen,NaN,NaN,NaN,NaN,1900,0,8,4
104,65907,0,105,2,2,0,no_gain2,gain3,K,E,43,41,objects,objects,37,72,Stimuli/Experimental_stims/objects/jonathan-greenaway-Y4hGgeiFn3s-unsplash.jpg,Stimuli/Experimental_stims/objects/insung-yoon-w2JtIQQXoRU-unsplash.jpg,0,NaN,NaN,NaN,chosen,NaN,NaN,NaN,NaN,4100,1,8,4
105,65907,0,106,2,2,0,no_gain1,gain4,H,B,12,22,faces,faces,65,42,Stimuli/Experimental_stims/faces/aiony-haust-jmATI5Q_YgY-unsplash.jpg,Stimuli/Experimental_stims/faces/ravi-patel-VMGAbeeJTKo-unsplash.jpg,0,NaN,NaN,NaN,unchosen,NaN,NaN,NaN,NaN,1400,0,8,4
106,65907,0,107,2,2,0,no_gain4,gain2,J,F,44,30,objects,body_parts,59,38,Stimuli/Experimental_stims/objects/kuiye-chen-NuOGFo4PudE-unsplash.jpg,Stimuli/Experimental_stims/body_parts/mika-korhonen-Xodzxosar18-unsplash.jpg,0,NaN,NaN,NaN,unchosen,NaN,NaN,NaN,NaN,2400,0,8,4
107,65907,0,108,2,2,0,no_gain5,gain1,L,A,29,39,body_parts,objects,96,31,Stimuli/Experimental_stims/body_parts/manuel-schinner-ZwjFuJ7ebpk-unsplash.jpg,Stimuli/Experimental_stims/objects/charlesdeluvio-1-nx1QR5dTE-unsplash.jpg,0,NaN,NaN,NaN,chosen,NaN,NaN,NaN,NaN,1200,0,8,4
108,65907,0,109,2,2,1,gain6,no_gain1,I,H,10,12,outdoor_scenes,faces,81,65,Stimuli/Experimental_stims/outdoor_scenes/shannon-kunkle-dM8INmkyDas-unsplash.jpg,Stimuli/Experimental_stims/faces/aiony-haust-jmATI5Q_YgY-unsplash.jpg,0,NaN,NaN,NaN,unchosen,NaN,NaN,NaN,NaN,1500,0,8,4
109,65907,0,110,2,2,1,gain1,no_gain6,A,D,6,16,outdoor_scenes,faces,66,32,Stimuli/Experimental_stims/outdoor_scenes/meng-ji-8BH_M-53CyA-unsplash.jpg,Stimuli/Experimental_stims/faces/freddy-kearney-o-ioeoATbIM-unsplash.jpg,0,NaN,NaN,NaN,unchosen,NaN,NaN,NaN,NaN,3200,1,8,4
110,65907,0,111,2,2,0,no_gain5,gain2,L,F,29,20,body_parts,faces,96,61,Stimuli/Experimental_stims/body_parts/manuel-schinner-ZwjFuJ7ebpk-unsplash.jpg,Stimuli/Experimental_stims/faces/justin-chen-J7Cf1Gch49E-unsplash.jpg,0,NaN,NaN,NaN,chosen,NaN,NaN,NaN,NaN,1800,0,8,4
111,65907,0,112,2,2,0,no_gain5,gain1,L,A,19,6,faces,outdoor_scenes,69,66,Stimuli/Experimental_stims/faces/joel-mott-LaK153ghdig-unsplash.jpg,Stimuli/Experimental_stims/outdoor_scenes/meng-ji-8BH_M-53CyA-unsplash.jpg,0,NaN,NaN,NaN,unchosen,NaN,NaN,NaN,NaN,1100,0,8,4
112,65907,0,113,2,2,1,gain2,no_gain6,F,D,30,16,body_parts,faces,38,32,Stimuli/Experimental_stims/body_parts/mika-korhonen-Xodzxosar18-unsplash.jpg,Stimuli/Experimental_stims/faces/freddy-kearney-o-ioeoATbIM-unsplash.jpg,0,NaN,NaN,NaN,unchosen,NaN,NaN,NaN,NaN,1700,0,8,4
113,65907,0,114,2,2,1,gain6,no_gain4,I,J,35,18,body_parts,faces,31,42,Stimuli/Experimental_stims/body_parts/wc-so-KH4AAPjb-tI-unsplash.jpg,Stimuli/Experimental_stims/faces/jessica-radanavong-mrYkTuAesKE-unsplash.jpg,0,NaN,NaN,NaN,chosen,NaN,NaN,NaN,NaN,2700,0,8,4
114,65907,0,115,2,2,1,gain6,no_gain3,I,C,10,27,outdoor_scenes,body_parts,81,76,Stimuli/Experimental_stims/outdoor_scenes/shannon-kunkle-dM8INmkyDas-unsplash.jpg,Stimuli/Experimental_stims/body_parts/heike-mintel-i_Gns0ELnLw-unsplash.jpg,0,NaN,NaN,NaN,unchosen,NaN,NaN,NaN,NaN,1100,0,8,4
115,65907,0,116,2,2,0,no_gain6,gain4,D,B,40,7,objects,outdoor_scenes,67,66,Stimuli/Experimental_stims/objects/fabian-blank-pElSkGRA2NU-unsplash.jpg,Stimuli/Experimental_stims/outdoor_scenes/petr-vysohlid-9fqwGqGLUxc-unsplash.jpg,0,NaN,NaN,NaN,chosen,NaN,NaN,NaN,NaN,1100,0,8,4
116,65907,0,117,2,2,0,no_gain1,gain3,H,E,12,26,faces,body_parts,65,38,Stimuli/Experimental_stims/faces/aiony-haust-jmATI5Q_YgY-unsplash.jpg,Stimuli/Experimental_stims/body_parts/engin-akyurt-x_3gyC42btc-unsplash.jpg,0,NaN,NaN,NaN,unchosen,NaN,NaN,NaN,NaN,2400,0,8,4
117,65907,0,118,2,2,1,gain3,no_gain6,E,D,41,40,objects,objects,72,67,Stimuli/Experimental_stims/objects/insung-yoon-w2JtIQQXoRU-unsplash.jpg,Stimuli/Experimental_stims/objects/fabian-blank-pElSkGRA2NU-unsplash.jpg,0,NaN,NaN,NaN,chosen,NaN,NaN,NaN,NaN,3400,1,8,4
118,65907,0,119,2,2,1,gain3,no_gain3,E,C,41,8,objects,outdoor_scenes,72,29,Stimuli/Experimental_stims/objects/insung-yoon-w2JtIQQXoRU-unsplash.jpg,Stimuli/Experimental_stims/outdoor_scenes/samsommer-vddccTqwal8-unsplash.jpg,0,NaN,NaN,NaN,chosen,NaN,NaN,NaN,NaN,2000,0,8,4
119,65907,0,120,2,2,0,no_gain6,gain3,D,E,16,26,faces,body_parts,32,38,Stimuli/Experimental_stims/faces/freddy-kearney-o-ioeoATbIM-unsplash.jpg,Stimuli/Experimental_stims/body_parts/engin-akyurt-x_3gyC42btc-unsplash.jpg,0,NaN,NaN,NaN,unchosen,NaN,NaN,NaN,NaN,2100,0,8,4
120,65907,0,121,2,2,0,no_gain2,gain6,K,I,28,10,body_parts,outdoor_scenes,39,81,Stimuli/Experimental_stims/body_parts/ira-vishnevskaya-8DQAvdCby1I-unsplash.jpg,Stimuli/Experimental_stims/outdoor_scenes/shannon-kunkle-dM8INmkyDas-unsplash.jpg,0,NaN,NaN,NaN,unchosen,NaN,NaN,NaN,NaN,2500,0,8,4
121,65907,0,122,2,2,1,gain5,no_gain4,G,J,37,44,objects,objects,61,59,Stimuli/Experimental_stims/objects/alexander-andrews-VLGWE_SumrA-unsplash.jpg,Stimuli/Experimental_stims/objects/kuiye-chen-NuOGFo4PudE-unsplash.jpg,0,NaN,NaN,NaN,unchosen,NaN,NaN,NaN,NaN,1600,0,8,4
122,65907,0,123,2,2,1,gain2,no_gain4,F,J,20,18,faces,faces,61,42,Stimuli/Experimental_stims/faces/justin-chen-J7Cf1Gch49E-unsplash.jpg,Stimuli/Experimental_stims/faces/jessica-radanavong-mrYkTuAesKE-unsplash.jpg,0,NaN,NaN,NaN,chosen,NaN,NaN,NaN,NaN,2400,0,8,4
123,65907,0,124,2,2,1,gain4,no_gain1,B,H,7,0,outdoor_scenes,outdoor_scenes,66,68,Stimuli/Experimental_stims/outdoor_scenes/petr-vysohlid-9fqwGqGLUxc-unsplash.jpg,Stimuli/Experimental_stims/outdoor_scenes/aleksandra-boguslawska-MS7KD9Ti7FQ-unsplash.jpg,0,NaN,NaN,NaN,chosen,NaN,NaN,NaN,NaN,1300,0,8,4
124,65907,0,125,2,2,1,gain3,no_gain4,E,J,26,44,body_parts,objects,38,59,Stimuli/Experimental_stims/body_parts/engin-akyurt-x_3gyC42btc-unsplash.jpg,Stimuli/Experimental_stims/objects/kuiye-chen-NuOGFo4PudE-unsplash.jpg,0,NaN,NaN,NaN,unchosen,NaN,NaN,NaN,NaN,1900,0,8,4
125,65907,0,126,2,2,1,gain2,no_gain1,F,H,20,0,faces,outdoor_scenes,61,68,Stimuli/Experimental_stims/faces/justin-chen-J7Cf1Gch49E-unsplash.jpg,Stimuli/Experimental_stims/outdoor_scenes/aleksandra-boguslawska-MS7KD9Ti7FQ-unsplash.jpg,0,NaN,NaN,NaN,chosen,NaN,NaN,NaN,NaN,1600,0,8,4
126,65907,0,127,2,2,0,no_gain2,gain5,K,G,43,1,objects,outdoor_scenes,37,30,Stimuli/Experimental_stims/objects/jonathan-greenaway-Y4hGgeiFn3s-unsplash.jpg,Stimuli/Experimental_stims/outdoor_scenes/ashim-d-silva-S2Q5mdOrrVc-unsplash.jpg,0,NaN,NaN,NaN,chosen,NaN,NaN,NaN,NaN,1100,0,8,4
127,65907,0,128,2,2,1,gain3,no_gain2,E,K,26,28,body_parts,body_parts,38,39,Stimuli/Experimental_stims/body_parts/engin-akyurt-x_3gyC42btc-unsplash.jpg,Stimuli/Experimental_stims/body_parts/ira-vishnevskaya-8DQAvdCby1I-unsplash.jpg,0,NaN,NaN,NaN,unchosen,NaN,NaN,NaN,NaN,1200,0,8,4
128,65907,0,129,2,2,1,gain3,no_gain3,E,C,26,27,body_parts,body_parts,38,76,Stimuli/Experimental_stims/body_parts/engin-akyurt-x_3gyC42btc-unsplash.jpg,Stimuli/Experimental_stims/body_parts/heike-mintel-i_Gns0ELnLw-unsplash.jpg,0,NaN,NaN,NaN,unchosen,NaN,NaN,NaN,NaN,1300,0,8,4
129,65907,0,130,2,2,1,gain4,no_gain4,B,J,7,18,outdoor_scenes,faces,66,42,Stimuli/Experimental_stims/outdoor_scenes/petr-vysohlid-9fqwGqGLUxc-unsplash.jpg,Stimuli/Experimental_stims/faces/jessica-radanavong-mrYkTuAesKE-unsplash.jpg,0,NaN,NaN,NaN,chosen,NaN,NaN,NaN,NaN,1000,0,8,4
130,65907,0,131,2,2,0,no_gain4,gain1,J,A,18,39,faces,objects,42,31,Stimuli/Experimental_stims/faces/jessica-radanavong-mrYkTuAesKE-unsplash.jpg,Stimuli/Experimental_stims/objects/charlesdeluvio-1-nx1QR5dTE-unsplash.jpg,0,NaN,NaN,NaN,chosen,NaN,NaN,NaN,NaN,2900,0,8,4
131,65907,0,132,2,2,0,no_gain2,gain6,K,I,43,35,objects,body_parts,37,31,Stimuli/Experimental_stims/objects/jonathan-greenaway-Y4hGgeiFn3s-unsplash.jpg,Stimuli/Experimental_stims/body_parts/wc-so-KH4AAPjb-tI-unsplash.jpg,0,NaN,NaN,NaN,chosen,NaN,NaN,NaN,NaN,2200,0,8,4
132,65907,0,133,2,2,0,no_gain3,gain2,C,F,27,30,body_parts,body_parts,76,38,Stimuli/Experimental_stims/body_parts/heike-mintel-i_Gns0ELnLw-unsplash.jpg,Stimuli/Experimental_stims/body_parts/mika-korhonen-Xodzxosar18-unsplash.jpg,0,NaN,NaN,NaN,unchosen,NaN,NaN,NaN,NaN,3200,1,8,4
133,65907,0,134,2,2,1,gain1,no_gain3,A,C,6,27,outdoor_scenes,body_parts,66,76,Stimuli/Experimental_stims/outdoor_scenes/meng-ji-8BH_M-53CyA-unsplash.jpg,Stimuli/Experimental_stims/body_parts/heike-mintel-i_Gns0ELnLw-unsplash.jpg,0,NaN,NaN,NaN,unchosen,NaN,NaN,NaN,NaN,2600,0,8,4
134,65907,0,135,2,2,0,no_gain6,gain6,D,I,16,10,faces,outdoor_scenes,32,81,Stimuli/Experimental_stims/faces/freddy-kearney-o-ioeoATbIM-unsplash.jpg,Stimuli/Experimental_stims/outdoor_scenes/shannon-kunkle-dM8INmkyDas-unsplash.jpg,0,NaN,NaN,NaN,unchosen,NaN,NaN,NaN,NaN,1200,0,8,4
135,65907,0,136,2,2,0,no_gain4,gain3,J,E,18,41,faces,objects,42,72,Stimuli/Experimental_stims/faces/jessica-radanavong-mrYkTuAesKE-unsplash.jpg,Stimuli/Experimental_stims/objects/insung-yoon-w2JtIQQXoRU-unsplash.jpg,0,NaN,NaN,NaN,chosen,NaN,NaN,NaN,NaN,1100,0,8,4
136,65907,0,137,2,2,1,gain5,no_gain6,G,D,37,16,objects,faces,61,32,Stimuli/Experimental_stims/objects/alexander-andrews-VLGWE_SumrA-unsplash.jpg,Stimuli/Experimental_stims/faces/freddy-kearney-o-ioeoATbIM-unsplash.jpg,0,NaN,NaN,NaN,unchosen,NaN,NaN,NaN,NaN,2000,0,8,4
137,65907,0,138,2,2,0,no_gain6,gain2,D,F,40,20,objects,faces,67,61,Stimuli/Experimental_stims/objects/fabian-blank-pElSkGRA2NU-unsplash.jpg,Stimuli/Experimental_stims/faces/justin-chen-J7Cf1Gch49E-unsplash.jpg,0,NaN,NaN,NaN,chosen,NaN,NaN,NaN,NaN,4100,1,8,4
138,65907,0,139,2,2,0,no_gain2,gain4,K,B,28,22,body_parts,faces,39,42,Stimuli/Experimental_stims/body_parts/ira-vishnevskaya-8DQAvdCby1I-unsplash.jpg,Stimuli/Experimental_stims/faces/ravi-patel-VMGAbeeJTKo-unsplash.jpg,0,NaN,NaN,NaN,unchosen,NaN,NaN,NaN,NaN,1700,0,8,4
139,65907,0,140,2,2,0,no_gain2,gain2,K,F,28,30,body_parts,body_parts,39,38,Stimuli/Experimental_stims/body_parts/ira-vishnevskaya-8DQAvdCby1I-unsplash.jpg,Stimuli/Experimental_stims/body_parts/mika-korhonen-Xodzxosar18-unsplash.jpg,0,NaN,NaN,NaN,unchosen,NaN,NaN,NaN,NaN,1200,0,8,4
140,65907,0,141,2,2,1,gain6,no_gain3,I,C,35,8,body_parts,outdoor_scenes,31,29,Stimuli/Experimental_stims/body_parts/wc-so-KH4AAPjb-tI-unsplash.jpg,Stimuli/Experimental_stims/outdoor_scenes/samsommer-vddccTqwal8-unsplash.jpg,0,NaN,NaN,NaN,chosen,NaN,NaN,NaN,NaN,1000,0,8,4
141,65907,0,142,2,2,0,no_gain5,gain5,L,G,29,1,body_parts,outdoor_scenes,96,30,Stimuli/Experimental_stims/body_parts/manuel-schinner-ZwjFuJ7ebpk-unsplash.jpg,Stimuli/Experimental_stims/outdoor_scenes/ashim-d-silva-S2Q5mdOrrVc-unsplash.jpg,0,NaN,NaN,NaN,chosen,NaN,NaN,NaN,NaN,1800,0,8,4
142,65907,0,143,2,2,0,no_gain5,gain6,L,I,29,35,body_parts,body_parts,96,31,Stimuli/Experimental_stims/body_parts/manuel-schinner-ZwjFuJ7ebpk-unsplash.jpg,Stimuli/Experimental_stims/body_parts/wc-so-KH4AAPjb-tI-unsplash.jpg,0,NaN,NaN,NaN,chosen,NaN,NaN,NaN,NaN,3500,1,8,4
143,65907,0,144,2,2,1,gain6,no_gain4,I,J,10,44,outdoor_scenes,objects,81,59,Stimuli/Experimental_stims/outdoor_scenes/shannon-kunkle-dM8INmkyDas-unsplash.jpg,Stimuli/Experimental_stims/objects/kuiye-chen-NuOGFo4PudE-unsplash.jpg,0,NaN,NaN,NaN,unchosen,NaN,NaN,NaN,NaN,2700,0,8,4
144,65907,0,145,2,2,1,gain6,no_gain6,I,D,35,40,body_parts,objects,31,67,Stimuli/Experimental_stims/body_parts/wc-so-KH4AAPjb-tI-unsplash.jpg,Stimuli/Experimental_stims/objects/fabian-blank-pElSkGRA2NU-unsplash.jpg,0,NaN,NaN,NaN,chosen,NaN,NaN,NaN,NaN,2400,0,8,4
145,65907,0,146,2,2,1,gain3,no_gain5,E,L,26,19,body_parts,faces,38,69,Stimuli/Experimental_stims/body_parts/engin-akyurt-x_3gyC42btc-unsplash.jpg,Stimuli/Experimental_stims/faces/joel-mott-LaK153ghdig-unsplash.jpg,0,NaN,NaN,NaN,unchosen,NaN,NaN,NaN,NaN,1400,0,8,4
146,65907,0,147,2,2,1,gain5,no_gain4,G,J,1,18,outdoor_scenes,faces,30,42,Stimuli/Experimental_stims/outdoor_scenes/ashim-d-silva-S2Q5mdOrrVc-unsplash.jpg,Stimuli/Experimental_stims/faces/jessica-radanavong-mrYkTuAesKE-unsplash.jpg,0,NaN,NaN,NaN,chosen,NaN,NaN,NaN,NaN,1200,0,8,4
147,65907,0,148,2,2,0,no_gain5,gain3,L,E,29,41,body_parts,objects,96,72,Stimuli/Experimental_stims/body_parts/manuel-schinner-ZwjFuJ7ebpk-unsplash.jpg,Stimuli/Experimental_stims/objects/insung-yoon-w2JtIQQXoRU-unsplash.jpg,0,NaN,NaN,NaN,chosen,NaN,NaN,NaN,NaN,3300,1,8,4
148,65907,0,149,3,3,1,gain5,no_gain3,G,C,1,8,outdoor_scenes,outdoor_scenes,30,29,Stimuli/Experimental_stims/outdoor_scenes/ashim-d-silva-S2Q5mdOrrVc-unsplash.jpg,Stimuli/Experimental_stims/outdoor_scenes/samsommer-vddccTqwal8-unsplash.jpg,0,NaN,NaN,NaN,chosen,NaN,NaN,NaN,NaN,3900,1,7,4
149,65907,0,150,3,3,0,no_gain3,gain4,C,B,8,7,outdoor_scenes,outdoor_scenes,29,66,Stimuli/Experimental_stims/outdoor_scenes/samsommer-vddccTqwal8-unsplash.jpg,Stimuli/Experimental_stims/outdoor_scenes/petr-vysohlid-9fqwGqGLUxc-unsplash.jpg,0,NaN,NaN,NaN,chosen,NaN,NaN,NaN,NaN,1200,0,7,4
150,65907,0,151,3,3,1,gain6,no_gain3,I,C,35,8,body_parts,outdoor_scenes,31,29,Stimuli/Experimental_stims/body_parts/wc-so-KH4AAPjb-tI-unsplash.jpg,Stimuli/Experimental_stims/outdoor_scenes/samsommer-vddccTqwal8-unsplash.jpg,0,NaN,NaN,NaN,chosen,NaN,NaN,NaN,NaN,1500,0,7,4
151,65907,0,152,3,3,1,gain4,no_gain4,B,J,22,44,faces,objects,42,59,Stimuli/Experimental_stims/faces/ravi-patel-VMGAbeeJTKo-unsplash.jpg,Stimuli/Experimental_stims/objects/kuiye-chen-NuOGFo4PudE-unsplash.jpg,0,NaN,NaN,NaN,unchosen,NaN,NaN,NaN,NaN,2700,0,7,4
152,65907,0,153,3,3,1,gain5,no_gain5,G,L,37,19,objects,faces,61,69,Stimuli/Experimental_stims/objects/alexander-andrews-VLGWE_SumrA-unsplash.jpg,Stimuli/Experimental_stims/faces/joel-mott-LaK153ghdig-unsplash.jpg,0,NaN,NaN,NaN,unchosen,NaN,NaN,NaN,NaN,1300,0,7,4
153,65907,0,154,3,3,0,no_gain6,gain1,D,A,40,39,objects,objects,67,31,Stimuli/Experimental_stims/objects/fabian-blank-pElSkGRA2NU-unsplash.jpg,Stimuli/Experimental_stims/objects/charlesdeluvio-1-nx1QR5dTE-unsplash.jpg,0,NaN,NaN,NaN,chosen,NaN,NaN,NaN,NaN,1000,0,7,4
154,65907,0,155,3,3,1,gain1,no_gain3,A,C,39,8,objects,outdoor_scenes,31,29,Stimuli/Experimental_stims/objects/charlesdeluvio-1-nx1QR5dTE-unsplash.jpg,Stimuli/Experimental_stims/outdoor_scenes/samsommer-vddccTqwal8-unsplash.jpg,0,NaN,NaN,NaN,chosen,NaN,NaN,NaN,NaN,3000,1,7,4
155,65907,0,156,3,3,0,no_gain2,gain3,K,E,28,26,body_parts,body_parts,39,38,Stimuli/Experimental_stims/body_parts/ira-vishnevskaya-8DQAvdCby1I-unsplash.jpg,Stimuli/Experimental_stims/body_parts/engin-akyurt-x_3gyC42btc-unsplash.jpg,0,NaN,NaN,NaN,unchosen,NaN,NaN,NaN,NaN,2800,0,7,4
156,65907,0,157,3,3,1,gain3,no_gain5,E,L,41,29,objects,body_parts,72,96,Stimuli/Experimental_stims/objects/insung-yoon-w2JtIQQXoRU-unsplash.jpg,Stimuli/Experimental_stims/body_parts/manuel-schinner-ZwjFuJ7ebpk-unsplash.jpg,0,NaN,NaN,NaN,chosen,NaN,NaN,NaN,NaN,1400,0,7,4
157,65907,0,158,3,3,1,gain1,no_gain1,A,H,39,0,objects,outdoor_scenes,31,68,Stimuli/Experimental_stims/objects/charlesdeluvio-1-nx1QR5dTE-unsplash.jpg,Stimuli/Experimental_stims/outdoor_scenes/aleksandra-boguslawska-MS7KD9Ti7FQ-unsplash.jpg,0,NaN,NaN,NaN,chosen,NaN,NaN,NaN,NaN,2500,0,7,4
158,65907,0,159,3,3,0,no_gain3,gain2,C,F,27,30,body_parts,body_parts,76,38,Stimuli/Experimental_stims/body_parts/heike-mintel-i_Gns0ELnLw-unsplash.jpg,Stimuli/Experimental_stims/body_parts/mika-korhonen-Xodzxosar18-unsplash.jpg,0,NaN,NaN,NaN,unchosen,NaN,NaN,NaN,NaN,1600,0,7,4
159,65907,0,160,3,3,1,gain2,no_gain4,F,J,30,44,body_parts,objects,38,59,Stimuli/Experimental_stims/body_parts/mika-korhonen-Xodzxosar18-unsplash.jpg,Stimuli/Experimental_stims/objects/kuiye-chen-NuOGFo4PudE-unsplash.jpg,0,NaN,NaN,NaN,unchosen,NaN,NaN,NaN,NaN,3600,1,7,4
160,65907,0,161,3,3,0,no_gain4,gain5,J,G,44,37,objects,objects,59,61,Stimuli/Experimental_stims/objects/kuiye-chen-NuOGFo4PudE-unsplash.jpg,Stimuli/Experimental_stims/objects/alexander-andrews-VLGWE_SumrA-unsplash.jpg,0,NaN,NaN,NaN,unchosen,NaN,NaN,NaN,NaN,1200,0,7,4
161,65907,0,162,3,3,0,no_gain5,gain4,L,B,29,7,body_parts,outdoor_scenes,96,66,Stimuli/Experimental_stims/body_parts/manuel-schinner-ZwjFuJ7ebpk-unsplash.jpg,Stimuli/Experimental_stims/outdoor_scenes/petr-vysohlid-9fqwGqGLUxc-unsplash.jpg,0,NaN,NaN,NaN,chosen,NaN,NaN,NaN,NaN,1800,0,7,4
162,65907,0,163,3,3,1,gain2,no_gain5,F,L,20,29,faces,body_parts,61,96,Stimuli/Experimental_stims/faces/justin-chen-J7Cf1Gch49E-unsplash.jpg,Stimuli/Experimental_stims/body_parts/manuel-schinner-ZwjFuJ7ebpk-unsplash.jpg,0,NaN,NaN,NaN,chosen,NaN,NaN,NaN,NaN,2800,0,7,4
163,65907,0,164,3,3,1,gain5,no_gain6,G,D,37,16,objects,faces,61,32,Stimuli/Experimental_stims/objects/alexander-andrews-VLGWE_SumrA-unsplash.jpg,Stimuli/Experimental_stims/faces/freddy-kearney-o-ioeoATbIM-unsplash.jpg,0,NaN,NaN,NaN,unchosen,NaN,NaN,NaN,NaN,2100,0,7,4
164,65907,0,165,3,3,0,no_gain4,gain3,J,E,18,41,faces,objects,42,72,Stimuli/Experimental_stims/faces/jessica-radanavong-mrYkTuAesKE-unsplash.jpg,Stimuli/Experimental_stims/objects/insung-yoon-w2JtIQQXoRU-unsplash.jpg,0,NaN,NaN,NaN,chosen,NaN,NaN,NaN,NaN,1500,0,7,4
165,65907,0,166,3,3,0,no_gain1,gain5,H,G,0,1,outdoor_scenes,outdoor_scenes,68,30,Stimuli/Experimental_stims/outdoor_scenes/aleksandra-boguslawska-MS7KD9Ti7FQ-unsplash.jpg,Stimuli/Experimental_stims/outdoor_scenes/ashim-d-silva-S2Q5mdOrrVc-unsplash.jpg,0,NaN,NaN,NaN,chosen,NaN,NaN,NaN,NaN,2100,0,7,4
166,65907,0,167,3,3,0,no_gain3,gain2,C,F,8,20,outdoor_scenes,faces,29,61,Stimuli/Experimental_stims/outdoor_scenes/samsommer-vddccTqwal8-unsplash.jpg,Stimuli/Experimental_stims/faces/justin-chen-J7Cf1Gch49E-unsplash.jpg,0,NaN,NaN,NaN,chosen,NaN,NaN,NaN,NaN,3600,1,7,4
167,65907,0,168,3,3,1,gain6,no_gain4,I,J,10,44,outdoor_scenes,objects,81,59,Stimuli/Experimental_stims/outdoor_scenes/shannon-kunkle-dM8INmkyDas-unsplash.jpg,Stimuli/Experimental_stims/objects/kuiye-chen-NuOGFo4PudE-unsplash.jpg,0,NaN,NaN,NaN,unchosen,NaN,NaN,NaN,NaN,1300,0,7,4
168,65907,0,169,3,3,0,no_gain4,gain2,J,F,18,20,faces,faces,42,61,Stimuli/Experimental_stims/faces/jessica-radanavong-mrYkTuAesKE-unsplash.jpg,Stimuli/Experimental_stims/faces/justin-chen-J7Cf1Gch49E-unsplash.jpg,0,NaN,NaN,NaN,chosen,NaN,NaN,NaN,NaN,2700,0,7,4
169,65907,0,170,3,3,1,gain1,no_gain4,A,J,6,44,outdoor_scenes,objects,66,59,Stimuli/Experimental_stims/outdoor_scenes/meng-ji-8BH_M-53CyA-unsplash.jpg,Stimuli/Experimental_stims/objects/kuiye-chen-NuOGFo4PudE-unsplash.jpg,0,NaN,NaN,NaN,unchosen,NaN,NaN,NaN,NaN,1400,0,7,4
170,65907,0,171,3,3,0,no_gain2,gain4,K,B,28,22,body_parts,faces,39,42,Stimuli/Experimental_stims/body_parts/ira-vishnevskaya-8DQAvdCby1I-unsplash.jpg,Stimuli/Experimental_stims/faces/ravi-patel-VMGAbeeJTKo-unsplash.jpg,0,NaN,NaN,NaN,unchosen,NaN,NaN,NaN,NaN,2300,0,7,4
171,65907,0,172,3,3,0,no_gain1,gain1,H,A,12,6,faces,outdoor_scenes,65,66,Stimuli/Experimental_stims/faces/aiony-haust-jmATI5Q_YgY-unsplash.jpg,Stimuli/Experimental_stims/outdoor_scenes/meng-ji-8BH_M-53CyA-unsplash.jpg,0,NaN,NaN,NaN,unchosen,NaN,NaN,NaN,NaN,3400,1,7,4
172,65907,0,173,3,3,1,gain4,no_gain2,B,K,7,43,outdoor_scenes,objects,66,37,Stimuli/Experimental_stims/outdoor_scenes/petr-vysohlid-9fqwGqGLUxc-unsplash.jpg,Stimuli/Experimental_stims/objects/jonathan-greenaway-Y4hGgeiFn3s-unsplash.jpg,0,NaN,NaN,NaN,chosen,NaN,NaN,NaN,NaN,1200,0,7,4
173,65907,0,174,3,3,0,no_gain6,gain6,D,I,16,10,faces,outdoor_scenes,32,81,Stimuli/Experimental_stims/faces/freddy-kearney-o-ioeoATbIM-unsplash.jpg,Stimuli/Experimental_stims/outdoor_scenes/shannon-kunkle-dM8INmkyDas-unsplash.jpg,0,NaN,NaN,NaN,unchosen,NaN,NaN,NaN,NaN,2500,0,7,4
174,65907,0,175,3,3,1,gain3,no_gain3,E,C,41,8,objects,outdoor_scenes,72,29,Stimuli/Experimental_stims/objects/insung-yoon-w2JtIQQXoRU-unsplash.jpg,Stimuli/Experimental_stims/outdoor_scenes/samsommer-vddccTqwal8-unsplash.jpg,0,NaN,NaN,NaN,chosen,NaN,NaN,NaN,NaN,2600,0,7,4
175,65907,0,176,3,3,0,no_gain2,gain6,K,I,28,10,body_parts,outdoor_scenes,39,81,Stimuli/Experimental_stims/body_parts/ira-vishnevskaya-8DQAvdCby1I-unsplash.jpg,Stimuli/Experimental_stims/outdoor_scenes/shannon-kunkle-dM8INmkyDas-unsplash.jpg,0,NaN,NaN,NaN,unchosen,NaN,NaN,NaN,NaN,2100,0,7,4
176,65907,0,177,3,3,1,gain1,no_gain5,A,L,39,29,objects,body_parts,31,96,Stimuli/Experimental_stims/objects/charlesdeluvio-1-nx1QR5dTE-unsplash.jpg,Stimuli/Experimental_stims/body_parts/manuel-schinner-ZwjFuJ7ebpk-unsplash.jpg,0,NaN,NaN,NaN,chosen,NaN,NaN,NaN,NaN,3300,1,7,4
177,65907,0,178,3,3,0,no_gain1,gain5,H,G,12,37,faces,objects,65,61,Stimuli/Experimental_stims/faces/aiony-haust-jmATI5Q_YgY-unsplash.jpg,Stimuli/Experimental_stims/objects/alexander-andrews-VLGWE_SumrA-unsplash.jpg,0,NaN,NaN,NaN,unchosen,NaN,NaN,NaN,NaN,1200,0,7,4
178,65907,0,179,3,3,1,gain2,no_gain6,F,D,20,40,faces,objects,61,67,Stimuli/Experimental_stims/faces/justin-chen-J7Cf1Gch49E-unsplash.jpg,Stimuli/Experimental_stims/objects/fabian-blank-pElSkGRA2NU-unsplash.jpg,0,NaN,NaN,NaN,chosen,NaN,NaN,NaN,NaN,1500,0,7,4
179,65907,0,180,3,3,1,gain3,no_gain6,E,D,26,16,body_parts,faces,38,32,Stimuli/Experimental_stims/body_parts/engin-akyurt-x_3gyC42btc-unsplash.jpg,Stimuli/Experimental_stims/faces/freddy-kearney-o-ioeoATbIM-unsplash.jpg,0,NaN,NaN,NaN,unchosen,NaN,NaN,NaN,NaN,1700,0,7,4
180,65907,0,181,3,3,0,no_gain5,gain1,L,A,19,6,faces,outdoor_scenes,69,66,Stimuli/Experimental_stims/faces/joel-mott-LaK153ghdig-unsplash.jpg,Stimuli/Experimental_stims/outdoor_scenes/meng-ji-8BH_M-53CyA-unsplash.jpg,0,NaN,NaN,NaN,unchosen,NaN,NaN,NaN,NaN,1500,0,7,4
181,65907,0,182,3,3,1,gain2,no_gain6,F,D,30,16,body_parts,faces,38,32,Stimuli/Experimental_stims/body_parts/mika-korhonen-Xodzxosar18-unsplash.jpg,Stimuli/Experimental_stims/faces/freddy-kearney-o-ioeoATbIM-unsplash.jpg,0,NaN,NaN,NaN,unchosen,NaN,NaN,NaN,NaN,1300,0,7,4
182,65907,0,183,3,3,1,gain1,no_gain4,A,J,39,18,objects,faces,31,42,Stimuli/Experimental_stims/objects/charlesdeluvio-1-nx1QR5dTE-unsplash.jpg,Stimuli/Experimental_stims/faces/jessica-radanavong-mrYkTuAesKE-unsplash.jpg,0,NaN,NaN,NaN,chosen,NaN,NaN,NaN,NaN,2000,0,7,4
183,65907,0,184,3,3,0,no_gain1,gain6,H,I,12,10,faces,outdoor_scenes,65,81,Stimuli/Experimental_stims/faces/aiony-haust-jmATI5Q_YgY-unsplash.jpg,Stimuli/Experimental_stims/outdoor_scenes/shannon-kunkle-dM8INmkyDas-unsplash.jpg,0,NaN,NaN,NaN,unchosen,NaN,NaN,NaN,NaN,1500,0,7,4
184,65907,0,185,3,3,1,gain5,no_gain5,G,L,1,29,outdoor_scenes,body_parts,30,96,Stimuli/Experimental_stims/outdoor_scenes/ashim-d-silva-S2Q5mdOrrVc-unsplash.jpg,Stimuli/Experimental_stims/body_parts/manuel-schinner-ZwjFuJ7ebpk-unsplash.jpg,0,NaN,NaN,NaN,chosen,NaN,NaN,NaN,NaN,2200,0,7,4
185,65907,0,186,3,3,1,gain6,no_gain1,I,H,35,0,body_parts,outdoor_scenes,31,68,Stimuli/Experimental_stims/body_parts/wc-so-KH4AAPjb-tI-unsplash.jpg,Stimuli/Experimental_stims/outdoor_scenes/aleksandra-boguslawska-MS7KD9Ti7FQ-unsplash.jpg,0,NaN,NaN,NaN,chosen,NaN,NaN,NaN,NaN,1300,0,7,4
186,65907,0,187,3,3,0,no_gain6,gain4,D,B,40,7,objects,outdoor_scenes,67,66,Stimuli/Experimental_stims/objects/fabian-blank-pElSkGRA2NU-unsplash.jpg,Stimuli/Experimental_stims/outdoor_scenes/petr-vysohlid-9fqwGqGLUxc-unsplash.jpg,0,NaN,NaN,NaN,chosen,NaN,NaN,NaN,NaN,1000,0,7,4
187,65907,0,188,3,3,1,gain1,no_gain2,A,K,6,28,outdoor_scenes,body_parts,66,39,Stimuli/Experimental_stims/outdoor_scenes/meng-ji-8BH_M-53CyA-unsplash.jpg,Stimuli/Experimental_stims/body_parts/ira-vishnevskaya-8DQAvdCby1I-unsplash.jpg,0,NaN,NaN,NaN,unchosen,NaN,NaN,NaN,NaN,3000,1,7,4
188,65907,0,189,3,3,0,no_gain2,gain5,K,G,28,37,body_parts,objects,39,61,Stimuli/Experimental_stims/body_parts/ira-vishnevskaya-8DQAvdCby1I-unsplash.jpg,Stimuli/Experimental_stims/objects/alexander-andrews-VLGWE_SumrA-unsplash.jpg,0,NaN,NaN,NaN,unchosen,NaN,NaN,NaN,NaN,1300,0,7,4
189,65907,0,190,3,3,1,gain1,no_gain3,A,C,6,27,outdoor_scenes,body_parts,66,76,Stimuli/Experimental_stims/outdoor_scenes/meng-ji-8BH_M-53CyA-unsplash.jpg,Stimuli/Experimental_stims/body_parts/heike-mintel-i_Gns0ELnLw-unsplash.jpg,0,NaN,NaN,NaN,unchosen,NaN,NaN,NaN,NaN,2200,0,7,4
190,65907,0,191,3,3,0,no_gain1,gain2,H,F,0,20,outdoor_scenes,faces,68,61,Stimuli/Experimental_stims/outdoor_scenes/aleksandra-boguslawska-MS7KD9Ti7FQ-unsplash.jpg,Stimuli/Experimental_stims/faces/justin-chen-J7Cf1Gch49E-unsplash.jpg,0,NaN,NaN,NaN,chosen,NaN,NaN,NaN,NaN,1100,0,7,4
191,65907,0,192,3,3,0,no_gain3,gain5,C,G,27,37,body_parts,objects,76,61,Stimuli/Experimental_stims/body_parts/heike-mintel-i_Gns0ELnLw-unsplash.jpg,Stimuli/Experimental_stims/objects/alexander-andrews-VLGWE_SumrA-unsplash.jpg,0,NaN,NaN,NaN,unchosen,NaN,NaN,NaN,NaN,2100,0,7,4
192,65907,0,193,3,3,0,no_gain2,gain6,K,I,43,35,objects,body_parts,37,31,Stimuli/Experimental_stims/objects/jonathan-greenaway-Y4hGgeiFn3s-unsplash.jpg,Stimuli/Experimental_stims/body_parts/wc-so-KH4AAPjb-tI-unsplash.jpg,0,NaN,NaN,NaN,chosen,NaN,NaN,NaN,NaN,2300,0,7,4
193,65907,0,194,3,3,0,no_gain4,gain5,J,G,18,1,faces,outdoor_scenes,42,30,Stimuli/Experimental_stims/faces/jessica-radanavong-mrYkTuAesKE-unsplash.jpg,Stimuli/Experimental_stims/outdoor_scenes/ashim-d-silva-S2Q5mdOrrVc-unsplash.jpg,0,NaN,NaN,NaN,chosen,NaN,NaN,NaN,NaN,3900,1,7,4
194,65907,0,195,3,3,0,no_gain4,gain6,J,I,18,35,faces,body_parts,42,31,Stimuli/Experimental_stims/faces/jessica-radanavong-mrYkTuAesKE-unsplash.jpg,Stimuli/Experimental_stims/body_parts/wc-so-KH4AAPjb-tI-unsplash.jpg,0,NaN,NaN,NaN,chosen,NaN,NaN,NaN,NaN,1700,0,7,4
195,65907,0,196,3,3,1,gain4,no_gain3,B,C,22,27,faces,body_parts,42,76,Stimuli/Experimental_stims/faces/ravi-patel-VMGAbeeJTKo-unsplash.jpg,Stimuli/Experimental_stims/body_parts/heike-mintel-i_Gns0ELnLw-unsplash.jpg,0,NaN,NaN,NaN,unchosen,NaN,NaN,NaN,NaN,1200,0,7,4
196,65907,0,197,3,3,0,no_gain1,gain4,H,B,12,22,faces,faces,65,42,Stimuli/Experimental_stims/faces/aiony-haust-jmATI5Q_YgY-unsplash.jpg,Stimuli/Experimental_stims/faces/ravi-patel-VMGAbeeJTKo-unsplash.jpg,0,NaN,NaN,NaN,unchosen,NaN,NaN,NaN,NaN,1200,0,7,4
197,65907,0,198,3,3,1,gain2,no_gain2,F,K,30,28,body_parts,body_parts,38,39,Stimuli/Experimental_stims/body_parts/mika-korhonen-Xodzxosar18-unsplash.jpg,Stimuli/Experimental_stims/body_parts/ira-vishnevskaya-8DQAvdCby1I-unsplash.jpg,0,NaN,NaN,NaN,unchosen,NaN,NaN,NaN,NaN,1900,0,7,4
198,65907,0,199,3,3,0,no_gain6,gain3,D,E,40,41,objects,objects,67,72,Stimuli/Experimental_stims/objects/fabian-blank-pElSkGRA2NU-unsplash.jpg,Stimuli/Experimental_stims/objects/insung-yoon-w2JtIQQXoRU-unsplash.jpg,0,NaN,NaN,NaN,chosen,NaN,NaN,NaN,NaN,1000,0,7,4
199,65907,0,200,3,3,0,no_gain4,gain4,J,B,18,7,faces,outdoor_scenes,42,66,Stimuli/Experimental_stims/faces/jessica-radanavong-mrYkTuAesKE-unsplash.jpg,Stimuli/Experimental_stims/outdoor_scenes/petr-vysohlid-9fqwGqGLUxc-unsplash.jpg,0,NaN,NaN,NaN,chosen,NaN,NaN,NaN,NaN,3900,1,7,4
200,65907,0,201,3,3,0,no_gain6,gain5,D,G,40,1,objects,outdoor_scenes,67,30,Stimuli/Experimental_stims/objects/fabian-blank-pElSkGRA2NU-unsplash.jpg,Stimuli/Experimental_stims/outdoor_scenes/ashim-d-silva-S2Q5mdOrrVc-unsplash.jpg,0,NaN,NaN,NaN,chosen,NaN,NaN,NaN,NaN,2100,0,7,4
201,65907,0,202,3,3,1,gain6,no_gain5,I,L,10,19,outdoor_scenes,faces,81,69,Stimuli/Experimental_stims/outdoor_scenes/shannon-kunkle-dM8INmkyDas-unsplash.jpg,Stimuli/Experimental_stims/faces/joel-mott-LaK153ghdig-unsplash.jpg,0,NaN,NaN,NaN,unchosen,NaN,NaN,NaN,NaN,1300,0,7,4
202,65907,0,203,3,3,0,no_gain2,gain5,K,G,43,1,objects,outdoor_scenes,37,30,Stimuli/Experimental_stims/objects/jonathan-greenaway-Y4hGgeiFn3s-unsplash.jpg,Stimuli/Experimental_stims/outdoor_scenes/ashim-d-silva-S2Q5mdOrrVc-unsplash.jpg,0,NaN,NaN,NaN,chosen,NaN,NaN,NaN,NaN,1800,0,7,4
203,65907,0,204,3,3,1,gain4,no_gain1,B,H,7,0,outdoor_scenes,outdoor_scenes,66,68,Stimuli/Experimental_stims/outdoor_scenes/petr-vysohlid-9fqwGqGLUxc-unsplash.jpg,Stimuli/Experimental_stims/outdoor_scenes/aleksandra-boguslawska-MS7KD9Ti7FQ-unsplash.jpg,0,NaN,NaN,NaN,chosen,NaN,NaN,NaN,NaN,1900,0,7,4
204,65907,0,205,3,3,1,gain6,no_gain3,I,C,10,27,outdoor_scenes,body_parts,81,76,Stimuli/Experimental_stims/outdoor_scenes/shannon-kunkle-dM8INmkyDas-unsplash.jpg,Stimuli/Experimental_stims/body_parts/heike-mintel-i_Gns0ELnLw-unsplash.jpg,0,NaN,NaN,NaN,unchosen,NaN,NaN,NaN,NaN,2600,0,7,4
205,65907,0,206,3,3,1,gain4,no_gain6,B,D,22,16,faces,faces,42,32,Stimuli/Experimental_stims/faces/ravi-patel-VMGAbeeJTKo-unsplash.jpg,Stimuli/Experimental_stims/faces/freddy-kearney-o-ioeoATbIM-unsplash.jpg,0,NaN,NaN,NaN,unchosen,NaN,NaN,NaN,NaN,2400,0,7,4
206,65907,0,207,3,3,0,no_gain5,gain4,L,B,19,22,faces,faces,69,42,Stimuli/Experimental_stims/faces/joel-mott-LaK153ghdig-unsplash.jpg,Stimuli/Experimental_stims/faces/ravi-patel-VMGAbeeJTKo-unsplash.jpg,0,NaN,NaN,NaN,unchosen,NaN,NaN,NaN,NaN,2500,0,7,4
207,65907,0,208,3,3,0,no_gain5,gain6,L,I,29,35,body_parts,body_parts,96,31,Stimuli/Experimental_stims/body_parts/manuel-schinner-ZwjFuJ7ebpk-unsplash.jpg,Stimuli/Experimental_stims/body_parts/wc-so-KH4AAPjb-tI-unsplash.jpg,0,NaN,NaN,NaN,chosen,NaN,NaN,NaN,NaN,2900,1,7,4
208,65907,0,209,3,3,0,no_gain4,gain3,J,E,44,26,objects,body_parts,59,38,Stimuli/Experimental_stims/objects/kuiye-chen-NuOGFo4PudE-unsplash.jpg,Stimuli/Experimental_stims/body_parts/engin-akyurt-x_3gyC42btc-unsplash.jpg,0,NaN,NaN,NaN,unchosen,NaN,NaN,NaN,NaN,1000,0,7,4
209,65907,0,210,3,3,0,no_gain1,gain3,H,E,0,41,outdoor_scenes,objects,68,72,Stimuli/Experimental_stims/outdoor_scenes/aleksandra-boguslawska-MS7KD9Ti7FQ-unsplash.jpg,Stimuli/Experimental_stims/objects/insung-yoon-w2JtIQQXoRU-unsplash.jpg,0,NaN,NaN,NaN,chosen,NaN,NaN,NaN,NaN,1500,0,7,4
210,65907,0,211,3,3,1,gain3,no_gain3,E,C,26,27,body_parts,body_parts,38,76,Stimuli/Experimental_stims/body_parts/engin-akyurt-x_3gyC42btc-unsplash.jpg,Stimuli/Experimental_stims/body_parts/heike-mintel-i_Gns0ELnLw-unsplash.jpg,0,NaN,NaN,NaN,unchosen,NaN,NaN,NaN,NaN,2000,0,7,4
211,65907,0,212,3,3,1,gain1,no_gain6,A,D,6,16,outdoor_scenes,faces,66,32,Stimuli/Experimental_stims/outdoor_scenes/meng-ji-8BH_M-53CyA-unsplash.jpg,Stimuli/Experimental_stims/faces/freddy-kearney-o-ioeoATbIM-unsplash.jpg,0,NaN,NaN,NaN,unchosen,NaN,NaN,NaN,NaN,1400,0,7,4
212,65907,0,213,3,3,0,no_gain5,gain2,L,F,19,30,faces,body_parts,69,38,Stimuli/Experimental_stims/faces/joel-mott-LaK153ghdig-unsplash.jpg,Stimuli/Experimental_stims/body_parts/mika-korhonen-Xodzxosar18-unsplash.jpg,0,NaN,NaN,NaN,unchosen,NaN,NaN,NaN,NaN,1800,0,7,4
213,65907,0,214,3,3,1,gain6,no_gain6,I,D,35,40,body_parts,objects,31,67,Stimuli/Experimental_stims/body_parts/wc-so-KH4AAPjb-tI-unsplash.jpg,Stimuli/Experimental_stims/objects/fabian-blank-pElSkGRA2NU-unsplash.jpg,0,NaN,NaN,NaN,chosen,NaN,NaN,NaN,NaN,2500,0,7,4
214,65907,0,215,3,3,1,gain1,no_gain2,A,K,39,43,objects,objects,31,37,Stimuli/Experimental_stims/objects/charlesdeluvio-1-nx1QR5dTE-unsplash.jpg,Stimuli/Experimental_stims/objects/jonathan-greenaway-Y4hGgeiFn3s-unsplash.jpg,0,NaN,NaN,NaN,chosen,NaN,NaN,NaN,NaN,1600,0,7,4
215,65907,0,216,3,3,0,no_gain1,gain2,H,F,12,30,faces,body_parts,65,38,Stimuli/Experimental_stims/faces/aiony-haust-jmATI5Q_YgY-unsplash.jpg,Stimuli/Experimental_stims/body_parts/mika-korhonen-Xodzxosar18-unsplash.jpg,0,NaN,NaN,NaN,unchosen,NaN,NaN,NaN,NaN,3700,1,7,4
216,65907,0,217,3,3,0,no_gain5,gain3,L,E,19,26,faces,body_parts,69,38,Stimuli/Experimental_stims/faces/joel-mott-LaK153ghdig-unsplash.jpg,Stimuli/Experimental_stims/body_parts/engin-akyurt-x_3gyC42btc-unsplash.jpg,0,NaN,NaN,NaN,unchosen,NaN,NaN,NaN,NaN,1200,0,7,4
217,65907,0,218,3,3,1,gain3,no_gain2,E,K,41,43,objects,objects,72,37,Stimuli/Experimental_stims/objects/insung-yoon-w2JtIQQXoRU-unsplash.jpg,Stimuli/Experimental_stims/objects/jonathan-greenaway-Y4hGgeiFn3s-unsplash.jpg,0,NaN,NaN,NaN,chosen,NaN,NaN,NaN,NaN,1200,0,7,4
218,65907,0,219,3,3,1,gain3,no_gain1,E,H,26,12,body_parts,faces,38,65,Stimuli/Experimental_stims/body_parts/engin-akyurt-x_3gyC42btc-unsplash.jpg,Stimuli/Experimental_stims/faces/aiony-haust-jmATI5Q_YgY-unsplash.jpg,0,NaN,NaN,NaN,unchosen,NaN,NaN,NaN,NaN,1100,0,7,4
219,65907,0,220,3,3,1,gain2,no_gain2,F,K,20,43,faces,objects,61,37,Stimuli/Experimental_stims/faces/justin-chen-J7Cf1Gch49E-unsplash.jpg,Stimuli/Experimental_stims/objects/jonathan-greenaway-Y4hGgeiFn3s-unsplash.jpg,0,NaN,NaN,NaN,chosen,NaN,NaN,NaN,NaN,1100,0,7,4
220,65907,0,221,4,4,1,gain4,no_gain1,B,H,22,12,faces,faces,42,65,Stimuli/Experimental_stims/faces/ravi-patel-VMGAbeeJTKo-unsplash.jpg,Stimuli/Experimental_stims/faces/aiony-haust-jmATI5Q_YgY-unsplash.jpg,0,NaN,NaN,NaN,unchosen,NaN,NaN,NaN,NaN,4000,1,8,4
221,65907,0,222,4,4,0,no_gain1,gain5,H,G,0,1,outdoor_scenes,outdoor_scenes,68,30,Stimuli/Experimental_stims/outdoor_scenes/aleksandra-boguslawska-MS7KD9Ti7FQ-unsplash.jpg,Stimuli/Experimental_stims/outdoor_scenes/ashim-d-silva-S2Q5mdOrrVc-unsplash.jpg,0,NaN,NaN,NaN,chosen,NaN,NaN,NaN,NaN,1900,0,8,4
222,65907,0,223,4,4,1,gain2,no_gain1,F,H,20,0,faces,outdoor_scenes,61,68,Stimuli/Experimental_stims/faces/justin-chen-J7Cf1Gch49E-unsplash.jpg,Stimuli/Experimental_stims/outdoor_scenes/aleksandra-boguslawska-MS7KD9Ti7FQ-unsplash.jpg,0,NaN,NaN,NaN,chosen,NaN,NaN,NaN,NaN,1200,0,8,4
223,65907,0,224,4,4,1,gain4,no_gain6,B,D,22,16,faces,faces,42,32,Stimuli/Experimental_stims/faces/ravi-patel-VMGAbeeJTKo-unsplash.jpg,Stimuli/Experimental_stims/faces/freddy-kearney-o-ioeoATbIM-unsplash.jpg,0,NaN,NaN,NaN,unchosen,NaN,NaN,NaN,NaN,1200,0,8,4
224,65907,0,225,4,4,1,gain4,no_gain3,B,C,22,27,faces,body_parts,42,76,Stimuli/Experimental_stims/faces/ravi-patel-VMGAbeeJTKo-unsplash.jpg,Stimuli/Experimental_stims/body_parts/heike-mintel-i_Gns0ELnLw-unsplash.jpg,0,NaN,NaN,NaN,unchosen,NaN,NaN,NaN,NaN,2900,0,8,4
225,65907,0,226,4,4,1,gain2,no_gain3,F,C,30,27,body_parts,body_parts,38,76,Stimuli/Experimental_stims/body_parts/mika-korhonen-Xodzxosar18-unsplash.jpg,Stimuli/Experimental_stims/body_parts/heike-mintel-i_Gns0ELnLw-unsplash.jpg,0,NaN,NaN,NaN,unchosen,NaN,NaN,NaN,NaN,1800,0,8,4
226,65907,0,227,4,4,1,gain1,no_gain3,A,C,39,8,objects,outdoor_scenes,31,29,Stimuli/Experimental_stims/objects/charlesdeluvio-1-nx1QR5dTE-unsplash.jpg,Stimuli/Experimental_stims/outdoor_scenes/samsommer-vddccTqwal8-unsplash.jpg,0,NaN,NaN,NaN,chosen,NaN,NaN,NaN,NaN,4700,1,8,4
227,65907,0,228,4,4,0,no_gain2,gain5,K,G,43,1,objects,outdoor_scenes,37,30,Stimuli/Experimental_stims/objects/jonathan-greenaway-Y4hGgeiFn3s-unsplash.jpg,Stimuli/Experimental_stims/outdoor_scenes/ashim-d-silva-S2Q5mdOrrVc-unsplash.jpg,0,NaN,NaN,NaN,chosen,NaN,NaN,NaN,NaN,2800,0,8,4
228,65907,0,229,4,4,1,gain5,no_gain1,G,H,37,12,objects,faces,61,65,Stimuli/Experimental_stims/objects/alexander-andrews-VLGWE_SumrA-unsplash.jpg,Stimuli/Experimental_stims/faces/aiony-haust-jmATI5Q_YgY-unsplash.jpg,0,NaN,NaN,NaN,unchosen,NaN,NaN,NaN,NaN,1100,0,8,4
229,65907,0,230,4,4,0,no_gain4,gain5,J,G,18,1,faces,outdoor_scenes,42,30,Stimuli/Experimental_stims/faces/jessica-radanavong-mrYkTuAesKE-unsplash.jpg,Stimuli/Experimental_stims/outdoor_scenes/ashim-d-silva-S2Q5mdOrrVc-unsplash.jpg,0,NaN,NaN,NaN,chosen,NaN,NaN,NaN,NaN,2200,0,8,4
230,65907,0,231,4,4,0,no_gain1,gain6,H,I,12,10,faces,outdoor_scenes,65,81,Stimuli/Experimental_stims/faces/aiony-haust-jmATI5Q_YgY-unsplash.jpg,Stimuli/Experimental_stims/outdoor_scenes/shannon-kunkle-dM8INmkyDas-unsplash.jpg,0,NaN,NaN,NaN,unchosen,NaN,NaN,NaN,NaN,2000,0,8,4
231,65907,0,232,4,4,1,gain3,no_gain5,E,L,26,19,body_parts,faces,38,69,Stimuli/Experimental_stims/body_parts/engin-akyurt-x_3gyC42btc-unsplash.jpg,Stimuli/Experimental_stims/faces/joel-mott-LaK153ghdig-unsplash.jpg,0,NaN,NaN,NaN,unchosen,NaN,NaN,NaN,NaN,1100,0,8,4
232,65907,0,233,4,4,0,no_gain6,gain1,D,A,16,6,faces,outdoor_scenes,32,66,Stimuli/Experimental_stims/faces/freddy-kearney-o-ioeoATbIM-unsplash.jpg,Stimuli/Experimental_stims/outdoor_scenes/meng-ji-8BH_M-53CyA-unsplash.jpg,0,NaN,NaN,NaN,unchosen,NaN,NaN,NaN,NaN,3000,1,8,4
233,65907,0,234,4,4,1,gain3,no_gain5,E,L,41,29,objects,body_parts,72,96,Stimuli/Experimental_stims/objects/insung-yoon-w2JtIQQXoRU-unsplash.jpg,Stimuli/Experimental_stims/body_parts/manuel-schinner-ZwjFuJ7ebpk-unsplash.jpg,0,NaN,NaN,NaN,chosen,NaN,NaN,NaN,NaN,1800,0,8,4
234,65907,0,235,4,4,0,no_gain3,gain1,C,A,27,6,body_parts,outdoor_scenes,76,66,Stimuli/Experimental_stims/body_parts/heike-mintel-i_Gns0ELnLw-unsplash.jpg,Stimuli/Experimental_stims/outdoor_scenes/meng-ji-8BH_M-53CyA-unsplash.jpg,0,NaN,NaN,NaN,unchosen,NaN,NaN,NaN,NaN,1700,0,8,4
235,65907,0,236,4,4,0,no_gain2,gain5,K,G,28,37,body_parts,objects,39,61,Stimuli/Experimental_stims/body_parts/ira-vishnevskaya-8DQAvdCby1I-unsplash.jpg,Stimuli/Experimental_stims/objects/alexander-andrews-VLGWE_SumrA-unsplash.jpg,0,NaN,NaN,NaN,unchosen,NaN,NaN,NaN,NaN,1500,0,8,4
236,65907,0,237,4,4,0,no_gain2,gain1,K,A,28,6,body_parts,outdoor_scenes,39,66,Stimuli/Experimental_stims/body_parts/ira-vishnevskaya-8DQAvdCby1I-unsplash.jpg,Stimuli/Experimental_stims/outdoor_scenes/meng-ji-8BH_M-53CyA-unsplash.jpg,0,NaN,NaN,NaN,unchosen,NaN,NaN,NaN,NaN,1400,0,8,4
237,65907,0,238,4,4,1,gain6,no_gain2,I,K,35,43,body_parts,objects,31,37,Stimuli/Experimental_stims/body_parts/wc-so-KH4AAPjb-tI-unsplash.jpg,Stimuli/Experimental_stims/objects/jonathan-greenaway-Y4hGgeiFn3s-unsplash.jpg,0,NaN,NaN,NaN,chosen,NaN,NaN,NaN,NaN,3000,1,8,4
238,65907,0,239,4,4,1,gain4,no_gain2,B,K,22,28,faces,body_parts,42,39,Stimuli/Experimental_stims/faces/ravi-patel-VMGAbeeJTKo-unsplash.jpg,Stimuli/Experimental_stims/body_parts/ira-vishnevskaya-8DQAvdCby1I-unsplash.jpg,0,NaN,NaN,NaN,unchosen,NaN,NaN,NaN,NaN,1000,0,8,4
239,65907,0,240,4,4,0,no_gain1,gain2,H,F,12,30,faces,body_parts,65,38,Stimuli/Experimental_stims/faces/aiony-haust-jmATI5Q_YgY-unsplash.jpg,Stimuli/Experimental_stims/body_parts/mika-korhonen-Xodzxosar18-unsplash.jpg,0,NaN,NaN,NaN,unchosen,NaN,NaN,NaN,NaN,1100,0,8,4
240,65907,0,241,4,4,0,no_gain4,gain3,J,E,44,26,objects,body_parts,59,38,Stimuli/Experimental_stims/objects/kuiye-chen-NuOGFo4PudE-unsplash.jpg,Stimuli/Experimental_stims/body_parts/engin-akyurt-x_3gyC42btc-unsplash.jpg,0,NaN,NaN,NaN,unchosen,NaN,NaN,NaN,NaN,1600,0,8,4
241,65907,0,242,4,4,0,no_gain5,gain4,L,B,29,7,body_parts,outdoor_scenes,96,66,Stimuli/Experimental_stims/body_parts/manuel-schinner-ZwjFuJ7ebpk-unsplash.jpg,Stimuli/Experimental_stims/outdoor_scenes/petr-vysohlid-9fqwGqGLUxc-unsplash.jpg,0,NaN,NaN,NaN,chosen,NaN,NaN,NaN,NaN,1100,0,8,4
242,65907,0,243,4,4,1,gain6,no_gain6,I,D,10,16,outdoor_scenes,faces,81,32,Stimuli/Experimental_stims/outdoor_scenes/shannon-kunkle-dM8INmkyDas-unsplash.jpg,Stimuli/Experimental_stims/faces/freddy-kearney-o-ioeoATbIM-unsplash.jpg,0,NaN,NaN,NaN,unchosen,NaN,NaN,NaN,NaN,1100,0,8,4
243,65907,0,244,4,4,1,gain3,no_gain2,E,K,41,43,objects,objects,72,37,Stimuli/Experimental_stims/objects/insung-yoon-w2JtIQQXoRU-unsplash.jpg,Stimuli/Experimental_stims/objects/jonathan-greenaway-Y4hGgeiFn3s-unsplash.jpg,0,NaN,NaN,NaN,chosen,NaN,NaN,NaN,NaN,1800,0,8,4
244,65907,0,245,4,4,0,no_gain1,gain1,H,A,0,39,outdoor_scenes,objects,68,31,Stimuli/Experimental_stims/outdoor_scenes/aleksandra-boguslawska-MS7KD9Ti7FQ-unsplash.jpg,Stimuli/Experimental_stims/objects/charlesdeluvio-1-nx1QR5dTE-unsplash.jpg,0,NaN,NaN,NaN,chosen,NaN,NaN,NaN,NaN,1400,0,8,4
245,65907,0,246,4,4,0,no_gain4,gain5,J,G,44,37,objects,objects,59,61,Stimuli/Experimental_stims/objects/kuiye-chen-NuOGFo4PudE-unsplash.jpg,Stimuli/Experimental_stims/objects/alexander-andrews-VLGWE_SumrA-unsplash.jpg,0,NaN,NaN,NaN,unchosen,NaN,NaN,NaN,NaN,1600,0,8,4
246,65907,0,247,4,4,1,gain2,no_gain2,F,K,20,43,faces,objects,61,37,Stimuli/Experimental_stims/faces/justin-chen-J7Cf1Gch49E-unsplash.jpg,Stimuli/Experimental_stims/objects/jonathan-greenaway-Y4hGgeiFn3s-unsplash.jpg,0,NaN,NaN,NaN,chosen,NaN,NaN,NaN,NaN,2000,0,8,4
247,65907,0,248,4,4,0,no_gain1,gain3,H,E,12,26,faces,body_parts,65,38,Stimuli/Experimental_stims/faces/aiony-haust-jmATI5Q_YgY-unsplash.jpg,Stimuli/Experimental_stims/body_parts/engin-akyurt-x_3gyC42btc-unsplash.jpg,0,NaN,NaN,NaN,unchosen,NaN,NaN,NaN,NaN,2200,0,8,4
248,65907,0,249,4,4,0,no_gain4,gain2,J,F,18,20,faces,faces,42,61,Stimuli/Experimental_stims/faces/jessica-radanavong-mrYkTuAesKE-unsplash.jpg,Stimuli/Experimental_stims/faces/justin-chen-J7Cf1Gch49E-unsplash.jpg,0,NaN,NaN,NaN,chosen,NaN,NaN,NaN,NaN,2100,0,8,4
249,65907,0,250,4,4,0,no_gain3,gain2,C,F,8,20,outdoor_scenes,faces,29,61,Stimuli/Experimental_stims/outdoor_scenes/samsommer-vddccTqwal8-unsplash.jpg,Stimuli/Experimental_stims/faces/justin-chen-J7Cf1Gch49E-unsplash.jpg,0,NaN,NaN,NaN,chosen,NaN,NaN,NaN,NaN,2900,0,8,4
250,65907,0,251,4,4,0,no_gain6,gain5,D,G,16,37,faces,objects,32,61,Stimuli/Experimental_stims/faces/freddy-kearney-o-ioeoATbIM-unsplash.jpg,Stimuli/Experimental_stims/objects/alexander-andrews-VLGWE_SumrA-unsplash.jpg,0,NaN,NaN,NaN,unchosen,NaN,NaN,NaN,NaN,1600,0,8,4
251,65907,0,252,4,4,1,gain3,no_gain4,E,J,41,18,objects,faces,72,42,Stimuli/Experimental_stims/objects/insung-yoon-w2JtIQQXoRU-unsplash.jpg,Stimuli/Experimental_stims/faces/jessica-radanavong-mrYkTuAesKE-unsplash.jpg,0,NaN,NaN,NaN,chosen,NaN,NaN,NaN,NaN,1600,0,8,4
252,65907,0,253,4,4,0,no_gain1,gain1,H,A,12,6,faces,outdoor_scenes,65,66,Stimuli/Experimental_stims/faces/aiony-haust-jmATI5Q_YgY-unsplash.jpg,Stimuli/Experimental_stims/outdoor_scenes/meng-ji-8BH_M-53CyA-unsplash.jpg,0,NaN,NaN,NaN,unchosen,NaN,NaN,NaN,NaN,4900,1,8,4
253,65907,0,254,4,4,0,no_gain5,gain1,L,A,19,6,faces,outdoor_scenes,69,66,Stimuli/Experimental_stims/faces/joel-mott-LaK153ghdig-unsplash.jpg,Stimuli/Experimental_stims/outdoor_scenes/meng-ji-8BH_M-53CyA-unsplash.jpg,0,NaN,NaN,NaN,unchosen,NaN,NaN,NaN,NaN,2600,0,8,4
254,65907,0,255,4,4,1,gain5,no_gain5,G,L,1,29,outdoor_scenes,body_parts,30,96,Stimuli/Experimental_stims/outdoor_scenes/ashim-d-silva-S2Q5mdOrrVc-unsplash.jpg,Stimuli/Experimental_stims/body_parts/manuel-schinner-ZwjFuJ7ebpk-unsplash.jpg,0,NaN,NaN,NaN,chosen,NaN,NaN,NaN,NaN,1800,0,8,4
255,65907,0,256,4,4,0,no_gain1,gain3,H,E,0,41,outdoor_scenes,objects,68,72,Stimuli/Experimental_stims/outdoor_scenes/aleksandra-boguslawska-MS7KD9Ti7FQ-unsplash.jpg,Stimuli/Experimental_stims/objects/insung-yoon-w2JtIQQXoRU-unsplash.jpg,0,NaN,NaN,NaN,chosen,NaN,NaN,NaN,NaN,1500,0,8,4
256,65907,0,257,4,4,1,gain5,no_gain3,G,C,1,8,outdoor_scenes,outdoor_scenes,30,29,Stimuli/Experimental_stims/outdoor_scenes/ashim-d-silva-S2Q5mdOrrVc-unsplash.jpg,Stimuli/Experimental_stims/outdoor_scenes/samsommer-vddccTqwal8-unsplash.jpg,0,NaN,NaN,NaN,chosen,NaN,NaN,NaN,NaN,1700,0,8,4
257,65907,0,258,4,4,1,gain2,no_gain4,F,J,30,44,body_parts,objects,38,59,Stimuli/Experimental_stims/body_parts/mika-korhonen-Xodzxosar18-unsplash.jpg,Stimuli/Experimental_stims/objects/kuiye-chen-NuOGFo4PudE-unsplash.jpg,0,NaN,NaN,NaN,unchosen,NaN,NaN,NaN,NaN,3200,1,8,4
258,65907,0,259,4,4,1,gain3,no_gain3,E,C,41,8,objects,outdoor_scenes,72,29,Stimuli/Experimental_stims/objects/insung-yoon-w2JtIQQXoRU-unsplash.jpg,Stimuli/Experimental_stims/outdoor_scenes/samsommer-vddccTqwal8-unsplash.jpg,0,NaN,NaN,NaN,chosen,NaN,NaN,NaN,NaN,2100,0,8,4
259,65907,0,260,4,4,0,no_gain6,gain1,D,A,40,39,objects,objects,67,31,Stimuli/Experimental_stims/objects/fabian-blank-pElSkGRA2NU-unsplash.jpg,Stimuli/Experimental_stims/objects/charlesdeluvio-1-nx1QR5dTE-unsplash.jpg,0,NaN,NaN,NaN,chosen,NaN,NaN,NaN,NaN,1600,0,8,4
260,65907,0,261,4,4,0,no_gain2,gain3,K,E,28,26,body_parts,body_parts,39,38,Stimuli/Experimental_stims/body_parts/ira-vishnevskaya-8DQAvdCby1I-unsplash.jpg,Stimuli/Experimental_stims/body_parts/engin-akyurt-x_3gyC42btc-unsplash.jpg,0,NaN,NaN,NaN,unchosen,NaN,NaN,NaN,NaN,1700,0,8,4
261,65907,0,262,4,4,0,no_gain4,gain4,J,B,18,7,faces,outdoor_scenes,42,66,Stimuli/Experimental_stims/faces/jessica-radanavong-mrYkTuAesKE-unsplash.jpg,Stimuli/Experimental_stims/outdoor_scenes/petr-vysohlid-9fqwGqGLUxc-unsplash.jpg,0,NaN,NaN,NaN,chosen,NaN,NaN,NaN,NaN,1300,0,8,4
262,65907,0,263,4,4,1,gain6,no_gain1,I,H,35,0,body_parts,outdoor_scenes,31,68,Stimuli/Experimental_stims/body_parts/wc-so-KH4AAPjb-tI-unsplash.jpg,Stimuli/Experimental_stims/outdoor_scenes/aleksandra-boguslawska-MS7KD9Ti7FQ-unsplash.jpg,0,NaN,NaN,NaN,chosen,NaN,NaN,NaN,NaN,3700,1,8,4
263,65907,0,264,4,4,1,gain1,no_gain4,A,J,6,44,outdoor_scenes,objects,66,59,Stimuli/Experimental_stims/outdoor_scenes/meng-ji-8BH_M-53CyA-unsplash.jpg,Stimuli/Experimental_stims/objects/kuiye-chen-NuOGFo4PudE-unsplash.jpg,0,NaN,NaN,NaN,unchosen,NaN,NaN,NaN,NaN,1500,0,8,4
264,65907,0,265,4,4,1,gain4,no_gain1,B,H,7,0,outdoor_scenes,outdoor_scenes,66,68,Stimuli/Experimental_stims/outdoor_scenes/petr-vysohlid-9fqwGqGLUxc-unsplash.jpg,Stimuli/Experimental_stims/outdoor_scenes/aleksandra-boguslawska-MS7KD9Ti7FQ-unsplash.jpg,0,NaN,NaN,NaN,chosen,NaN,NaN,NaN,NaN,1500,0,8,4
265,65907,0,266,4,4,1,gain2,no_gain5,F,L,30,19,body_parts,faces,38,69,Stimuli/Experimental_stims/body_parts/mika-korhonen-Xodzxosar18-unsplash.jpg,Stimuli/Experimental_stims/faces/joel-mott-LaK153ghdig-unsplash.jpg,0,NaN,NaN,NaN,unchosen,NaN,NaN,NaN,NaN,1400,0,8,4
266,65907,0,267,4,4,0,no_gain2,gain4,K,B,43,7,objects,outdoor_scenes,37,66,Stimuli/Experimental_stims/objects/jonathan-greenaway-Y4hGgeiFn3s-unsplash.jpg,Stimuli/Experimental_stims/outdoor_scenes/petr-vysohlid-9fqwGqGLUxc-unsplash.jpg,0,NaN,NaN,NaN,chosen,NaN,NaN,NaN,NaN,1700,0,8,4
267,65907,0,268,4,4,0,no_gain4,gain6,J,I,18,35,faces,body_parts,42,31,Stimuli/Experimental_stims/faces/jessica-radanavong-mrYkTuAesKE-unsplash.jpg,Stimuli/Experimental_stims/body_parts/wc-so-KH4AAPjb-tI-unsplash.jpg,0,NaN,NaN,NaN,chosen,NaN,NaN,NaN,NaN,2500,0,8,4
268,65907,0,269,4,4,0,no_gain6,gain6,D,I,40,35,objects,body_parts,67,31,Stimuli/Experimental_stims/objects/fabian-blank-pElSkGRA2NU-unsplash.jpg,Stimuli/Experimental_stims/body_parts/wc-so-KH4AAPjb-tI-unsplash.jpg,0,NaN,NaN,NaN,chosen,NaN,NaN,NaN,NaN,1800,0,8,4
269,65907,0,270,4,4,0,no_gain2,gain6,K,I,28,10,body_parts,outdoor_scenes,39,81,Stimuli/Experimental_stims/body_parts/ira-vishnevskaya-8DQAvdCby1I-unsplash.jpg,Stimuli/Experimental_stims/outdoor_scenes/shannon-kunkle-dM8INmkyDas-unsplash.jpg,0,NaN,NaN,NaN,unchosen,NaN,NaN,NaN,NaN,2200,0,8,4
270,65907,0,271,4,4,0,no_gain5,gain6,L,I,19,10,faces,outdoor_scenes,69,81,Stimuli/Experimental_stims/faces/joel-mott-LaK153ghdig-unsplash.jpg,Stimuli/Experimental_stims/outdoor_scenes/shannon-kunkle-dM8INmkyDas-unsplash.jpg,0,NaN,NaN,NaN,unchosen,NaN,NaN,NaN,NaN,1400,0,8,4
271,65907,0,272,4,4,1,gain3,no_gain6,E,D,41,40,objects,objects,72,67,Stimuli/Experimental_stims/objects/insung-yoon-w2JtIQQXoRU-unsplash.jpg,Stimuli/Experimental_stims/objects/fabian-blank-pElSkGRA2NU-unsplash.jpg,0,NaN,NaN,NaN,chosen,NaN,NaN,NaN,NaN,4200,1,8,4
272,65907,0,273,4,4,1,gain5,no_gain5,G,L,37,19,objects,faces,61,69,Stimuli/Experimental_stims/objects/alexander-andrews-VLGWE_SumrA-unsplash.jpg,Stimuli/Experimental_stims/faces/joel-mott-LaK153ghdig-unsplash.jpg,0,NaN,NaN,NaN,unchosen,NaN,NaN,NaN,NaN,2400,0,8,4
273,65907,0,274,4,4,0,no_gain4,gain6,J,I,44,10,objects,outdoor_scenes,59,81,Stimuli/Experimental_stims/objects/kuiye-chen-NuOGFo4PudE-unsplash.jpg,Stimuli/Experimental_stims/outdoor_scenes/shannon-kunkle-dM8INmkyDas-unsplash.jpg,0,NaN,NaN,NaN,unchosen,NaN,NaN,NaN,NaN,1100,0,8,4
274,65907,0,275,4,4,0,no_gain2,gain1,K,A,43,39,objects,objects,37,31,Stimuli/Experimental_stims/objects/jonathan-greenaway-Y4hGgeiFn3s-unsplash.jpg,Stimuli/Experimental_stims/objects/charlesdeluvio-1-nx1QR5dTE-unsplash.jpg,0,NaN,NaN,NaN,chosen,NaN,NaN,NaN,NaN,1400,0,8,4
275,65907,0,276,4,4,0,no_gain3,gain3,C,E,27,26,body_parts,body_parts,76,38,Stimuli/Experimental_stims/body_parts/heike-mintel-i_Gns0ELnLw-unsplash.jpg,Stimuli/Experimental_stims/body_parts/engin-akyurt-x_3gyC42btc-unsplash.jpg,0,NaN,NaN,NaN,unchosen,NaN,NaN,NaN,NaN,1400,0,8,4
276,65907,0,277,4,4,1,gain5,no_gain6,G,D,1,40,outdoor_scenes,objects,30,67,Stimuli/Experimental_stims/outdoor_scenes/ashim-d-silva-S2Q5mdOrrVc-unsplash.jpg,Stimuli/Experimental_stims/objects/fabian-blank-pElSkGRA2NU-unsplash.jpg,0,NaN,NaN,NaN,chosen,NaN,NaN,NaN,NaN,1000,0,8,4
277,65907,0,278,4,4,1,gain1,no_gain5,A,L,39,29,objects,body_parts,31,96,Stimuli/Experimental_stims/objects/charlesdeluvio-1-nx1QR5dTE-unsplash.jpg,Stimuli/Experimental_stims/body_parts/manuel-schinner-ZwjFuJ7ebpk-unsplash.jpg,0,NaN,NaN,NaN,chosen,NaN,NaN,NaN,NaN,1900,0,8,4
278,65907,0,279,4,4,1,gain2,no_gain6,F,D,30,16,body_parts,faces,38,32,Stimuli/Experimental_stims/body_parts/mika-korhonen-Xodzxosar18-unsplash.jpg,Stimuli/Experimental_stims/faces/freddy-kearney-o-ioeoATbIM-unsplash.jpg,0,NaN,NaN,NaN,unchosen,NaN,NaN,NaN,NaN,2100,0,8,4
279,65907,0,280,4,4,1,gain2,no_gain2,F,K,30,28,body_parts,body_parts,38,39,Stimuli/Experimental_stims/body_parts/mika-korhonen-Xodzxosar18-unsplash.jpg,Stimuli/Experimental_stims/body_parts/ira-vishnevskaya-8DQAvdCby1I-unsplash.jpg,0,NaN,NaN,NaN,unchosen,NaN,NaN,NaN,NaN,1100,0,8,4
280,65907,0,281,4,4,1,gain3,no_gain6,E,D,26,16,body_parts,faces,38,32,Stimuli/Experimental_stims/body_parts/engin-akyurt-x_3gyC42btc-unsplash.jpg,Stimuli/Experimental_stims/faces/freddy-kearney-o-ioeoATbIM-unsplash.jpg,0,NaN,NaN,NaN,unchosen,NaN,NaN,NaN,NaN,3800,1,8,4
281,65907,0,282,4,4,0,no_gain6,gain2,D,F,40,20,objects,faces,67,61,Stimuli/Experimental_stims/objects/fabian-blank-pElSkGRA2NU-unsplash.jpg,Stimuli/Experimental_stims/faces/justin-chen-J7Cf1Gch49E-unsplash.jpg,0,NaN,NaN,NaN,chosen,NaN,NaN,NaN,NaN,1200,0,8,4
282,65907,0,283,4,4,0,no_gain3,gain4,C,B,8,7,outdoor_scenes,outdoor_scenes,29,66,Stimuli/Experimental_stims/outdoor_scenes/samsommer-vddccTqwal8-unsplash.jpg,Stimuli/Experimental_stims/outdoor_scenes/petr-vysohlid-9fqwGqGLUxc-unsplash.jpg,0,NaN,NaN,NaN,chosen,NaN,NaN,NaN,NaN,2500,0,8,4
283,65907,0,284,4,4,0,no_gain6,gain4,D,B,40,7,objects,outdoor_scenes,67,66,Stimuli/Experimental_stims/objects/fabian-blank-pElSkGRA2NU-unsplash.jpg,Stimuli/Experimental_stims/outdoor_scenes/petr-vysohlid-9fqwGqGLUxc-unsplash.jpg,0,NaN,NaN,NaN,chosen,NaN,NaN,NaN,NaN,1200,0,8,4
284,65907,0,285,4,4,1,gain4,no_gain5,B,L,22,19,faces,faces,42,69,Stimuli/Experimental_stims/faces/ravi-patel-VMGAbeeJTKo-unsplash.jpg,Stimuli/Experimental_stims/faces/joel-mott-LaK153ghdig-unsplash.jpg,0,NaN,NaN,NaN,unchosen,NaN,NaN,NaN,NaN,1600,0,8,4
285,65907,0,286,4,4,1,gain6,no_gain5,I,L,35,29,body_parts,body_parts,31,96,Stimuli/Experimental_stims/body_parts/wc-so-KH4AAPjb-tI-unsplash.jpg,Stimuli/Experimental_stims/body_parts/manuel-schinner-ZwjFuJ7ebpk-unsplash.jpg,0,NaN,NaN,NaN,chosen,NaN,NaN,NaN,NaN,1900,0,8,4
286,65907,0,287,4,4,1,gain2,no_gain5,F,L,20,29,faces,body_parts,61,96,Stimuli/Experimental_stims/faces/justin-chen-J7Cf1Gch49E-unsplash.jpg,Stimuli/Experimental_stims/body_parts/manuel-schinner-ZwjFuJ7ebpk-unsplash.jpg,0,NaN,NaN,NaN,chosen,NaN,NaN,NaN,NaN,1000,0,8,4
287,65907,0,288,4,4,1,gain6,no_gain3,I,C,10,27,outdoor_scenes,body_parts,81,76,Stimuli/Experimental_stims/outdoor_scenes/shannon-kunkle-dM8INmkyDas-unsplash.jpg,Stimuli/Experimental_stims/body_parts/heike-mintel-i_Gns0ELnLw-unsplash.jpg,0,NaN,NaN,NaN,unchosen,NaN,NaN,NaN,NaN,5000,1,8,4
288,65907,0,289,4,4,0,no_gain4,gain1,J,A,18,39,faces,objects,42,31,Stimuli/Experimental_stims/faces/jessica-radanavong-mrYkTuAesKE-unsplash.jpg,Stimuli/Experimental_stims/objects/charlesdeluvio-1-nx1QR5dTE-unsplash.jpg,0,NaN,NaN,NaN,chosen,NaN,NaN,NaN,NaN,2400,0,8,4
289,65907,0,290,4,4,0,no_gain3,gain5,C,G,27,37,body_parts,objects,76,61,Stimuli/Experimental_stims/body_parts/heike-mintel-i_Gns0ELnLw-unsplash.jpg,Stimuli/Experimental_stims/objects/alexander-andrews-VLGWE_SumrA-unsplash.jpg,0,NaN,NaN,NaN,unchosen,NaN,NaN,NaN,NaN,1500,0,8,4
290,65907,0,291,4,4,1,gain6,no_gain3,I,C,35,8,body_parts,outdoor_scenes,31,29,Stimuli/Experimental_stims/body_parts/wc-so-KH4AAPjb-tI-unsplash.jpg,Stimuli/Experimental_stims/outdoor_scenes/samsommer-vddccTqwal8-unsplash.jpg,0,NaN,NaN,NaN,chosen,NaN,NaN,NaN,NaN,1500,0,8,4
291,65907,0,292,4,4,1,gain4,no_gain4,B,J,22,44,faces,objects,42,59,Stimuli/Experimental_stims/faces/ravi-patel-VMGAbeeJTKo-unsplash.jpg,Stimuli/Experimental_stims/objects/kuiye-chen-NuOGFo4PudE-unsplash.jpg,0,NaN,NaN,NaN,unchosen,NaN,NaN,NaN,NaN,1300,0,8,4