,PID,practice,trial,block,run,gain_left,left_item_id,right_item_id,left_pair_id,right_pair_id,left_stimulus,right_stimulus,left_category,right_category,left_path,right_path,no_response,left_chosen,rt,higher_outcome_chosen,choice_type,iti,long_iti,simulation,version,chosen_stimulus,unchosen_stimulus,chosen_category
0,1,1,1,0,0,0,,,,,,,,,Stimuli/Practice_stims/Final_decisions/debby-hudson-FmCSSSGge-0-unsplash.jpg,Stimuli/Practice_stims/Final_decisions/yassine-khalfalli-adsQ9d_Cx0c-unsplash.jpg,0,1,873,0,,3000,0,7,2,,,
1,1,1,2,0,0,0,,,,,,,,,Stimuli/Practice_stims/Final_decisions/florian-wehde-iVW7mZPwd4g-unsplash.jpg,Stimuli/Practice_stims/Final_decisions/patrick-perkins-3wylDrjxH-E-unsplash.jpg,0,1,692,0,,1500,0,7,2,,,
2,1,1,3,0,0,0,,,,,,,,,Stimuli/Practice_stims/Final_decisions/debby-hudson-FmCSSSGge-0-unsplash.jpg,Stimuli/Practice_stims/Final_decisions/florian-wehde-iVW7mZPwd4g-unsplash.jpg,0,1,462,0,,2000,0,7,2,,,
3,1,1,4,0,0,0,,,,,,,,,Stimuli/Practice_stims/Final_decisions/yassine-khalfalli-adsQ9d_Cx0c-unsplash.jpg,Stimuli/Practice_stims/Final_decisions/debby-hudson-FmCSSSGge-0-unsplash.jpg,0,1,614,0,,1000,0,7,2,,,
4,1,0,5,1,1,1,gain2,no_gain3,I,D,5,18,outdoor_scenes,faces,Stimuli/Experimental_stims/outdoor_scenes/jeff-king-bJHWJeiHfHc-unsplash.jpg,Stimuli/Experimental_stims/faces/good-faces-xmSWVeGEnJw-unsplash.jpg,0,1,434,1,unchosen,4100,1,7,2,50,50,5,faces,outdoor_scenes
5,1,0,6,1,1,1,gain3,no_gain5,J,H,17,15,faces,faces,Stimuli/Experimental_stims/faces/freddy-kearney-o-ioeoATbIM-unsplash.jpg,Stimuli/Experimental_stims/faces/daniel-rigdon-dXmXKPP2L4E-unsplash.jpg,0,1,284,1,chosen,1200,0,7,2,50,50,17,faces,faces
6,1,0,7,1,1,1,gain1,no_gain3,F,D,13,37,faces,objects,Stimuli/Experimental_stims/faces/aiony-haust-jmATI5Q_YgY-unsplash.jpg,Stimuli/Experimental_stims/objects/alexander-andrews-VLGWE_SumrA-unsplash.jpg,1,NaN,,NaN,chosen,2600,0,7,2,50,50,NaN,NaN,NaN
7,1,0,8,1,1,1,gain2,no_gain4,I,A,27,3,body_parts,outdoor_scenes,Stimuli/Experimental_stims/body_parts/jonathan-borba-hTwH8QFkPMs-unsplash.jpg,Stimuli/Experimental_stims/outdoor_scenes/henry-be-NLF6hTe4PAg-unsplash.jpg,1,NaN,,NaN,chosen,2000,0,7,2,50,50,NaN,NaN,NaN
8,1,0,9,1,1,0,no_gain5,gain1,H,F,6,30,outdoor_scenes,body_parts,Stimuli/Experimental_stims/outdoor_scenes/meng-ji-8BH_M-53CyA-unsplash.jpg,Stimuli/Experimental_stims/body_parts/lucrezia-carnelos-kn6QrWtnAtY-unsplash.jpg,1,NaN,,NaN,unchosen,1200,0,7,2,50,50,NaN,NaN,NaN
9,1,0,10,1,1,0,no_gain4,gain3,A,J,3,17,outdoor_scenes,faces,Stimuli/Experimental_stims/outdoor_scenes/henry-be-NLF6hTe4PAg-unsplash.jpg,Stimuli/Experimental_stims/faces/freddy-kearney-o-ioeoATbIM-unsplash.jpg,1,NaN,,NaN,chosen,3200,1,7,2,50,50,NaN,NaN,NaN
10,1,0,11,1,1,0,no_gain1,gain3,L,J,29,17,body_parts,faces,Stimuli/Experimental_stims/body_parts/lucaxx-freire-CacZwMexYdk-unsplash.jpg,Stimuli/Experimental_stims/faces/freddy-kearney-o-ioeoATbIM-unsplash.jpg,1,NaN,,NaN,chosen,1200,0,7,2,50,50,NaN,NaN,NaN
11,1,0,12,1,1,0,no_gain2,gain1,C,F,0,13,outdoor_scenes,faces,Stimuli/Experimental_stims/outdoor_scenes/aleksandra-boguslawska-MS7KD9Ti7FQ-unsplash.jpg,Stimuli/Experimental_stims/faces/aiony-haust-jmATI5Q_YgY-unsplash.jpg,1,NaN,,NaN,chosen,1800,0,7,2,50,50,NaN,NaN,NaN
12,1,0,13,1,1,1,gain2,no_gain1,I,L,5,16,outdoor_scenes,faces,Stimuli/Experimental_stims/outdoor_scenes/jeff-king-bJHWJeiHfHc-unsplash.jpg,Stimuli/Experimental_stims/faces/erik-lucatero-d2MSDujJl2g-unsplash.jpg,1,NaN,,NaN,unchosen,1600,0,7,2,50,50,NaN,NaN,NaN
13,1,0,14,1,1,0,no_gain6,gain6,G,K,9,26,outdoor_scenes,body_parts,Stimuli/Experimental_stims/outdoor_scenes/sergey-pesterev-y-b_FOmJXdg-unsplash.jpg,Stimuli/Experimental_stims/body_parts/engin-akyurt-x_3gyC42btc-unsplash.jpg,1,NaN,,NaN,unchosen,1300,0,7,2,50,50,NaN,NaN,NaN
14,1,0,15,1,1,0,no_gain1,gain5,L,E,16,24,faces,body_parts,Stimuli/Experimental_stims/faces/erik-lucatero-d2MSDujJl2g-unsplash.jpg,Stimuli/Experimental_stims/body_parts/callum-skelton-3KLMq7y46nA-unsplash.jpg,1,NaN,,NaN,unchosen,1900,0,7,2,50,50,NaN,NaN,NaN
15,1,0,16,1,1,0,no_gain3,gain2,D,I,37,27,objects,body_parts,Stimuli/Experimental_stims/objects/alexander-andrews-VLGWE_SumrA-unsplash.jpg,Stimuli/Experimental_stims/body_parts/jonathan-borba-hTwH8QFkPMs-unsplash.jpg,1,NaN,,NaN,chosen,4100,1,7,2,50,50,NaN,NaN,NaN
16,1,0,17,1,1,1,gain4,no_gain2,B,C,19,34,faces,body_parts,Stimuli/Experimental_stims/faces/jessica-radanavong-mrYkTuAesKE-unsplash.jpg,Stimuli/Experimental_stims/body_parts/sincerely-media-VN6DbKajo5s-unsplash.jpg,1,NaN,,NaN,unchosen,1100,0,7,2,50,50,NaN,NaN,NaN
17,1,0,18,1,1,1,gain6,no_gain2,K,C,43,0,objects,outdoor_scenes,Stimuli/Experimental_stims/objects/jiangxulei1990-eIzzzwtkBjU-unsplash.jpg,Stimuli/Experimental_stims/outdoor_scenes/aleksandra-boguslawska-MS7KD9Ti7FQ-unsplash.jpg,1,NaN,,NaN,chosen,1200,0,7,2,50,50,NaN,NaN,NaN
18,1,0,19,1,1,1,gain5,no_gain4,E,A,24,44,body_parts,objects,Stimuli/Experimental_stims/body_parts/callum-skelton-3KLMq7y46nA-unsplash.jpg,Stimuli/Experimental_stims/objects/jonathan-greenaway-Y4hGgeiFn3s-unsplash.jpg,1,NaN,,NaN,unchosen,1400,0,7,2,50,50,NaN,NaN,NaN
19,1,0,20,1,1,0,no_gain4,gain1,A,F,3,13,outdoor_scenes,faces,Stimuli/Experimental_stims/outdoor_scenes/henry-be-NLF6hTe4PAg-unsplash.jpg,Stimuli/Experimental_stims/faces/aiony-haust-jmATI5Q_YgY-unsplash.jpg,1,NaN,,NaN,chosen,1300,0,7,2,50,50,NaN,NaN,NaN
20,1,0,21,1,1,1,gain6,no_gain6,K,G,43,42,objects,objects,Stimuli/Experimental_stims/objects/jiangxulei1990-eIzzzwtkBjU-unsplash.jpg,Stimuli/Experimental_stims/objects/jess-bailey-nOeVi8DsN8U-unsplash.jpg,1,NaN,,NaN,chosen,4600,1,7,2,50,50,NaN,NaN,NaN
21,1,0,22,1,1,0,no_gain1,gain3,L,J,16,36,faces,objects,Stimuli/Experimental_stims/faces/erik-lucatero-d2MSDujJl2g-unsplash.jpg,Stimuli/Experimental_stims/objects/alexander-andrews-JYGnB9gTCls-unsplash.jpg,1,NaN,,NaN,unchosen,1000,0,7,2,50,50,NaN,NaN,NaN
22,1,0,23,1,1,1,gain4,no_gain4,B,A,7,3,outdoor_scenes,outdoor_scenes,Stimuli/Experimental_stims/outdoor_scenes/petr-vysohlid-9fqwGqGLUxc-unsplash.jpg,Stimuli/Experimental_stims/outdoor_scenes/henry-be-NLF6hTe4PAg-unsplash.jpg,1,NaN,,NaN,chosen,1100,0,7,2,50,50,NaN,NaN,NaN
23,1,0,24,1,1,0,no_gain1,gain4,L,B,16,19,faces,faces,Stimuli/Experimental_stims/faces/erik-lucatero-d2MSDujJl2g-unsplash.jpg,Stimuli/Experimental_stims/faces/jessica-radanavong-mrYkTuAesKE-unsplash.jpg,1,NaN,,NaN,unchosen,1700,0,7,2,50,50,NaN,NaN,NaN
24,1,0,25,1,1,0,no_gain3,gain5,D,E,18,24,faces,body_parts,Stimuli/Experimental_stims/faces/good-faces-xmSWVeGEnJw-unsplash.jpg,Stimuli/Experimental_stims/body_parts/callum-skelton-3KLMq7y46nA-unsplash.jpg,1,NaN,,NaN,unchosen,2800,0,7,2,50,50,NaN,NaN,NaN
25,1,0,26,1,1,1,gain4,no_gain3,B,D,7,37,outdoor_scenes,objects,Stimuli/Experimental_stims/outdoor_scenes/petr-vysohlid-9fqwGqGLUxc-unsplash.jpg,Stimuli/Experimental_stims/objects/alexander-andrews-VLGWE_SumrA-unsplash.jpg,1,NaN,,NaN,chosen,3200,1,7,2,50,50,NaN,NaN,NaN
26,1,0,27,1,1,1,gain5,no_gain6,E,G,40,42,objects,objects,Stimuli/Experimental_stims/objects/fabian-blank-pElSkGRA2NU-unsplash.jpg,Stimuli/Experimental_stims/objects/jess-bailey-nOeVi8DsN8U-unsplash.jpg,1,NaN,,NaN,chosen,2000,0,7,2,50,50,NaN,NaN,NaN
27,1,0,28,1,1,0,no_gain3,gain3,D,J,18,36,faces,objects,Stimuli/Experimental_stims/faces/good-faces-xmSWVeGEnJw-unsplash.jpg,Stimuli/Experimental_stims/objects/alexander-andrews-JYGnB9gTCls-unsplash.jpg,1,NaN,,NaN,unchosen,1600,0,7,2,50,50,NaN,NaN,NaN
28,1,0,29,1,1,1,gain6,no_gain3,K,D,43,37,objects,objects,Stimuli/Experimental_stims/objects/jiangxulei1990-eIzzzwtkBjU-unsplash.jpg,Stimuli/Experimental_stims/objects/alexander-andrews-VLGWE_SumrA-unsplash.jpg,1,NaN,,NaN,chosen,1300,0,7,2,50,50,NaN,NaN,NaN
29,1,0,30,1,1,1,gain5,no_gain5,E,H,24,6,body_parts,outdoor_scenes,Stimuli/Experimental_stims/body_parts/callum-skelton-3KLMq7y46nA-unsplash.jpg,Stimuli/Experimental_stims/outdoor_scenes/meng-ji-8BH_M-53CyA-unsplash.jpg,1,NaN,,NaN,unchosen,1200,0,7,2,50,50,NaN,NaN,NaN
30,1,0,31,1,1,0,no_gain6,gain3,G,J,9,36,outdoor_scenes,objects,Stimuli/Experimental_stims/outdoor_scenes/sergey-pesterev-y-b_FOmJXdg-unsplash.jpg,Stimuli/Experimental_stims/objects/alexander-andrews-JYGnB9gTCls-unsplash.jpg,1,NaN,,NaN,unchosen,3500,1,7,2,50,50,NaN,NaN,NaN
31,1,0,32,1,1,0,no_gain1,gain1,L,F,29,13,body_parts,faces,Stimuli/Experimental_stims/body_parts/lucaxx-freire-CacZwMexYdk-unsplash.jpg,Stimuli/Experimental_stims/faces/aiony-haust-jmATI5Q_YgY-unsplash.jpg,1,NaN,,NaN,chosen,1800,0,7,2,50,50,NaN,NaN,NaN
32,1,0,33,1,1,0,no_gain5,gain6,H,K,6,26,outdoor_scenes,body_parts,Stimuli/Experimental_stims/outdoor_scenes/meng-ji-8BH_M-53CyA-unsplash.jpg,Stimuli/Experimental_stims/body_parts/engin-akyurt-x_3gyC42btc-unsplash.jpg,1,NaN,,NaN,unchosen,1600,0,7,2,50,50,NaN,NaN,NaN
33,1,0,34,1,1,0,no_gain1,gain5,L,E,29,40,body_parts,objects,Stimuli/Experimental_stims/body_parts/lucaxx-freire-CacZwMexYdk-unsplash.jpg,Stimuli/Experimental_stims/objects/fabian-blank-pElSkGRA2NU-unsplash.jpg,1,NaN,,NaN,chosen,2000,0,7,2,50,50,NaN,NaN,NaN
34,1,0,35,1,1,0,no_gain5,gain5,H,E,15,40,faces,objects,Stimuli/Experimental_stims/faces/daniel-rigdon-dXmXKPP2L4E-unsplash.jpg,Stimuli/Experimental_stims/objects/fabian-blank-pElSkGRA2NU-unsplash.jpg,1,NaN,,NaN,chosen,1100,0,7,2,50,50,NaN,NaN,NaN
35,1,0,36,1,1,1,gain1,no_gain2,F,C,30,34,body_parts,body_parts,Stimuli/Experimental_stims/body_parts/lucrezia-carnelos-kn6QrWtnAtY-unsplash.jpg,Stimuli/Experimental_stims/body_parts/sincerely-media-VN6DbKajo5s-unsplash.jpg,1,NaN,,NaN,unchosen,2800,0,7,2,50,50,NaN,NaN,NaN
36,1,0,37,1,1,0,no_gain2,gain5,C,E,0,40,outdoor_scenes,objects,Stimuli/Experimental_stims/outdoor_scenes/aleksandra-boguslawska-MS7KD9Ti7FQ-unsplash.jpg,Stimuli/Experimental_stims/objects/fabian-blank-pElSkGRA2NU-unsplash.jpg,1,NaN,,NaN,chosen,3100,1,7,2,50,50,NaN,NaN,NaN
37,1,0,38,1,1,0,no_gain4,gain2,A,I,44,5,objects,outdoor_scenes,Stimuli/Experimental_stims/objects/jonathan-greenaway-Y4hGgeiFn3s-unsplash.jpg,Stimuli/Experimental_stims/outdoor_scenes/jeff-king-bJHWJeiHfHc-unsplash.jpg,1,NaN,,NaN,unchosen,1100,0,7,2,50,50,NaN,NaN,NaN
38,1,0,39,1,1,0,no_gain4,gain1,A,F,44,30,objects,body_parts,Stimuli/Experimental_stims/objects/jonathan-greenaway-Y4hGgeiFn3s-unsplash.jpg,Stimuli/Experimental_stims/body_parts/lucrezia-carnelos-kn6QrWtnAtY-unsplash.jpg,1,NaN,,NaN,unchosen,1100,0,7,2,50,50,NaN,NaN,NaN
39,1,0,40,1,1,1,gain2,no_gain1,I,L,27,29,body_parts,body_parts,Stimuli/Experimental_stims/body_parts/jonathan-borba-hTwH8QFkPMs-unsplash.jpg,Stimuli/Experimental_stims/body_parts/lucaxx-freire-CacZwMexYdk-unsplash.jpg,1,NaN,,NaN,chosen,1100,0,7,2,50,50,NaN,NaN,NaN
40,1,0,41,1,1,1,gain2,no_gain5,I,H,5,6,outdoor_scenes,outdoor_scenes,Stimuli/Experimental_stims/outdoor_scenes/jeff-king-bJHWJeiHfHc-unsplash.jpg,Stimuli/Experimental_stims/outdoor_scenes/meng-ji-8BH_M-53CyA-unsplash.jpg,1,NaN,,NaN,unchosen,2300,0,7,2,50,50,NaN,NaN,NaN
41,1,0,42,1,1,1,gain6,no_gain3,K,D,26,18,body_parts,faces,Stimuli/Experimental_stims/body_parts/engin-akyurt-x_3gyC42btc-unsplash.jpg,Stimuli/Experimental_stims/faces/good-faces-xmSWVeGEnJw-unsplash.jpg,1,NaN,,NaN,unchosen,3700,1,7,2,50,50,NaN,NaN,NaN
42,1,0,43,1,1,0,no_gain6,gain5,G,E,9,24,outdoor_scenes,body_parts,Stimuli/Experimental_stims/outdoor_scenes/sergey-pesterev-y-b_FOmJXdg-unsplash.jpg,Stimuli/Experimental_stims/body_parts/callum-skelton-3KLMq7y46nA-unsplash.jpg,1,NaN,,NaN,unchosen,2400,0,7,2,50,50,NaN,NaN,NaN
43,1,0,44,1,1,0,no_gain5,gain6,H,K,15,43,faces,objects,Stimuli/Experimental_stims/faces/daniel-rigdon-dXmXKPP2L4E-unsplash.jpg,Stimuli/Experimental_stims/objects/jiangxulei1990-eIzzzwtkBjU-unsplash.jpg,1,NaN,,NaN,chosen,1400,0,7,2,50,50,NaN,NaN,NaN
44,1,0,45,1,1,0,no_gain2,gain6,C,K,34,26,body_parts,body_parts,Stimuli/Experimental_stims/body_parts/sincerely-media-VN6DbKajo5s-unsplash.jpg,Stimuli/Experimental_stims/body_parts/engin-akyurt-x_3gyC42btc-unsplash.jpg,1,NaN,,NaN,unchosen,2500,0,7,2,50,50,NaN,NaN,NaN
45,1,0,46,1,1,1,gain6,no_gain1,K,L,43,29,objects,body_parts,Stimuli/Experimental_stims/objects/jiangxulei1990-eIzzzwtkBjU-unsplash.jpg,Stimuli/Experimental_stims/body_parts/lucaxx-freire-CacZwMexYdk-unsplash.jpg,1,NaN,,NaN,chosen,2600,0,7,2,50,50,NaN,NaN,NaN
46,1,0,47,1,1,1,gain2,no_gain2,I,C,27,0,body_parts,outdoor_scenes,Stimuli/Experimental_stims/body_parts/jonathan-borba-hTwH8QFkPMs-unsplash.jpg,Stimuli/Experimental_stims/outdoor_scenes/aleksandra-boguslawska-MS7KD9Ti7FQ-unsplash.jpg,1,NaN,,NaN,chosen,1100,0,7,2,50,50,NaN,NaN,NaN
47,1,0,48,1,1,0,no_gain6,gain1,G,F,9,30,outdoor_scenes,body_parts,Stimuli/Experimental_stims/outdoor_scenes/sergey-pesterev-y-b_FOmJXdg-unsplash.jpg,Stimuli/Experimental_stims/body_parts/lucrezia-carnelos-kn6QrWtnAtY-unsplash.jpg,1,NaN,,NaN,unchosen,4800,1,7,2,50,50,NaN,NaN,NaN
48,1,0,49,1,1,1,gain4,no_gain3,B,D,19,18,faces,faces,Stimuli/Experimental_stims/faces/jessica-radanavong-mrYkTuAesKE-unsplash.jpg,Stimuli/Experimental_stims/faces/good-faces-xmSWVeGEnJw-unsplash.jpg,1,NaN,,NaN,unchosen,1600,0,7,2,50,50,NaN,NaN,NaN
49,1,0,50,1,1,1,gain6,no_gain4,K,A,43,3,objects,outdoor_scenes,Stimuli/Experimental_stims/objects/jiangxulei1990-eIzzzwtkBjU-unsplash.jpg,Stimuli/Experimental_stims/outdoor_scenes/henry-be-NLF6hTe4PAg-unsplash.jpg,1,NaN,,NaN,chosen,2800,0,7,2,50,50,NaN,NaN,NaN
50,1,0,51,1,1,1,gain1,no_gain3,F,D,30,18,body_parts,faces,Stimuli/Experimental_stims/body_parts/lucrezia-carnelos-kn6QrWtnAtY-unsplash.jpg,Stimuli/Experimental_stims/faces/good-faces-xmSWVeGEnJw-unsplash.jpg,1,NaN,,NaN,unchosen,2300,0,7,2,50,50,NaN,NaN,NaN
51,1,0,52,1,1,1,gain3,no_gain5,J,H,36,6,objects,outdoor_scenes,Stimuli/Experimental_stims/objects/alexander-andrews-JYGnB9gTCls-unsplash.jpg,Stimuli/Experimental_stims/outdoor_scenes/meng-ji-8BH_M-53CyA-unsplash.jpg,1,NaN,,NaN,unchosen,2400,0,7,2,50,50,NaN,NaN,NaN
52,1,0,53,1,1,1,gain4,no_gain4,B,A,19,44,faces,objects,Stimuli/Experimental_stims/faces/jessica-radanavong-mrYkTuAesKE-unsplash.jpg,Stimuli/Experimental_stims/objects/jonathan-greenaway-Y4hGgeiFn3s-unsplash.jpg,1,NaN,,NaN,unchosen,1800,0,7,2,50,50,NaN,NaN,NaN
53,1,0,54,1,1,0,no_gain6,gain1,G,F,42,13,objects,faces,Stimuli/Experimental_stims/objects/jess-bailey-nOeVi8DsN8U-unsplash.jpg,Stimuli/Experimental_stims/faces/aiony-haust-jmATI5Q_YgY-unsplash.jpg,1,NaN,,NaN,chosen,1500,0,7,2,50,50,NaN,NaN,NaN
54,1,0,55,1,1,1,gain6,no_gain4,K,A,26,44,body_parts,objects,Stimuli/Experimental_stims/body_parts/engin-akyurt-x_3gyC42btc-unsplash.jpg,Stimuli/Experimental_stims/objects/jonathan-greenaway-Y4hGgeiFn3s-unsplash.jpg,1,NaN,,NaN,unchosen,1900,0,7,2,50,50,NaN,NaN,NaN
55,1,0,56,1,1,1,gain3,no_gain2,J,C,36,34,objects,body_parts,Stimuli/Experimental_stims/objects/alexander-andrews-JYGnB9gTCls-unsplash.jpg,Stimuli/Experimental_stims/body_parts/sincerely-media-VN6DbKajo5s-unsplash.jpg,1,NaN,,NaN,unchosen,1100,0,7,2,50,50,NaN,NaN,NaN
56,1,0,57,1,1,0,no_gain2,gain2,C,I,34,5,body_parts,outdoor_scenes,Stimuli/Experimental_stims/body_parts/sincerely-media-VN6DbKajo5s-unsplash.jpg,Stimuli/Experimental_stims/outdoor_scenes/jeff-king-bJHWJeiHfHc-unsplash.jpg,1,NaN,,NaN,unchosen,1700,0,7,2,50,50,NaN,NaN,NaN
57,1,0,58,1,1,1,gain5,no_gain3,E,D,40,37,objects,objects,Stimuli/Experimental_stims/objects/fabian-blank-pElSkGRA2NU-unsplash.jpg,Stimuli/Experimental_stims/objects/alexander-andrews-VLGWE_SumrA-unsplash.jpg,1,NaN,,NaN,chosen,1600,0,7,2,50,50,NaN,NaN,NaN
58,1,0,59,1,1,1,gain6,no_gain1,K,L,26,16,body_parts,faces,Stimuli/Experimental_stims/body_parts/engin-akyurt-x_3gyC42btc-unsplash.jpg,Stimuli/Experimental_stims/faces/erik-lucatero-d2MSDujJl2g-unsplash.jpg,1,NaN,,NaN,unchosen,1700,0,7,2,50,50,NaN,NaN,NaN
59,1,0,60,1,1,0,no_gain5,gain4,H,B,15,7,faces,outdoor_scenes,Stimuli/Experimental_stims/faces/daniel-rigdon-dXmXKPP2L4E-unsplash.jpg,Stimuli/Experimental_stims/outdoor_scenes/petr-vysohlid-9fqwGqGLUxc-unsplash.jpg,1,NaN,,NaN,chosen,3000,0,7,2,50,50,NaN,NaN,NaN
60,1,0,61,1,1,1,gain3,no_gain6,J,G,17,42,faces,objects,Stimuli/Experimental_stims/faces/freddy-kearney-o-ioeoATbIM-unsplash.jpg,Stimuli/Experimental_stims/objects/jess-bailey-nOeVi8DsN8U-unsplash.jpg,1,NaN,,NaN,chosen,2100,0,7,2,50,50,NaN,NaN,NaN
61,1,0,62,1,1,1,gain5,no_gain2,E,C,24,34,body_parts,body_parts,Stimuli/Experimental_stims/body_parts/callum-skelton-3KLMq7y46nA-unsplash.jpg,Stimuli/Experimental_stims/body_parts/sincerely-media-VN6DbKajo5s-unsplash.jpg,1,NaN,,NaN,unchosen,3200,1,7,2,50,50,NaN,NaN,NaN
62,1,0,63,1,1,1,gain1,no_gain5,F,H,13,15,faces,faces,Stimuli/Experimental_stims/faces/aiony-haust-jmATI5Q_YgY-unsplash.jpg,Stimuli/Experimental_stims/faces/daniel-rigdon-dXmXKPP2L4E-unsplash.jpg,1,NaN,,NaN,chosen,1600,0,7,2,50,50,NaN,NaN,NaN
63,1,0,64,1,1,0,no_gain2,gain4,C,B,0,7,outdoor_scenes,outdoor_scenes,Stimuli/Experimental_stims/outdoor_scenes/aleksandra-boguslawska-MS7KD9Ti7FQ-unsplash.jpg,Stimuli/Experimental_stims/outdoor_scenes/petr-vysohlid-9fqwGqGLUxc-unsplash.jpg,0,1,1256,0,chosen,1300,0,7,2,50,50,0,outdoor_scenes,outdoor_scenes
64,1,0,65,1,1,0,no_gain1,gain1,L,F,16,30,faces,body_parts,Stimuli/Experimental_stims/faces/erik-lucatero-d2MSDujJl2g-unsplash.jpg,Stimuli/Experimental_stims/body_parts/lucrezia-carnelos-kn6QrWtnAtY-unsplash.jpg,0,1,217,0,unchosen,1800,0,7,2,50,50,16,body_parts,faces
65,1,0,66,1,1,0,no_gain1,gain4,L,B,29,7,body_parts,outdoor_scenes,Stimuli/Experimental_stims/body_parts/lucaxx-freire-CacZwMexYdk-unsplash.jpg,Stimuli/Experimental_stims/outdoor_scenes/petr-vysohlid-9fqwGqGLUxc-unsplash.jpg,0,1,194,0,chosen,1400,0,7,2,50,50,29,outdoor_scenes,body_parts
66,1,0,67,1,1,0,no_gain3,gain3,D,J,37,17,objects,faces,Stimuli/Experimental_stims/objects/alexander-andrews-VLGWE_SumrA-unsplash.jpg,Stimuli/Experimental_stims/faces/freddy-kearney-o-ioeoATbIM-unsplash.jpg,1,NaN,,NaN,chosen,1500,0,7,2,50,50,NaN,NaN,NaN
67,1,0,68,1,1,0,no_gain6,gain2,G,I,42,27,objects,body_parts,Stimuli/Experimental_stims/objects/jess-bailey-nOeVi8DsN8U-unsplash.jpg,Stimuli/Experimental_stims/body_parts/jonathan-borba-hTwH8QFkPMs-unsplash.jpg,0,1,25,0,chosen,1100,0,7,2,50,50,42,body_parts,objects
68,1,0,69,1,1,0,no_gain6,gain4,G,B,9,19,outdoor_scenes,faces,Stimuli/Experimental_stims/outdoor_scenes/sergey-pesterev-y-b_FOmJXdg-unsplash.jpg,Stimuli/Experimental_stims/faces/jessica-radanavong-mrYkTuAesKE-unsplash.jpg,0,1,195,0,unchosen,4300,1,7,2,50,50,9,faces,outdoor_scenes
69,1,0,70,1,1,0,no_gain2,gain3,C,J,0,17,outdoor_scenes,faces,Stimuli/Experimental_stims/outdoor_scenes/aleksandra-boguslawska-MS7KD9Ti7FQ-unsplash.jpg,Stimuli/Experimental_stims/faces/freddy-kearney-o-ioeoATbIM-unsplash.jpg,0,1,294,0,chosen,1100,0,7,2,50,50,0,faces,outdoor_scenes
70,1,0,71,1,1,1,gain2,no_gain5,I,H,27,15,body_parts,faces,Stimuli/Experimental_stims/body_parts/jonathan-borba-hTwH8QFkPMs-unsplash.jpg,Stimuli/Experimental_stims/faces/daniel-rigdon-dXmXKPP2L4E-unsplash.jpg,0,1,348,1,chosen,1300,0,7,2,50,50,27,faces,body_parts
71,1,0,72,1,1,1,gain2,no_gain6,I,G,5,9,outdoor_scenes,outdoor_scenes,Stimuli/Experimental_stims/outdoor_scenes/jeff-king-bJHWJeiHfHc-unsplash.jpg,Stimuli/Experimental_stims/outdoor_scenes/sergey-pesterev-y-b_FOmJXdg-unsplash.jpg,0,1,368,1,unchosen,2000,0,7,2,50,50,5,outdoor_scenes,outdoor_scenes
72,1,0,73,1,1,0,no_gain4,gain3,A,J,44,36,objects,objects,Stimuli/Experimental_stims/objects/jonathan-greenaway-Y4hGgeiFn3s-unsplash.jpg,Stimuli/Experimental_stims/objects/alexander-andrews-JYGnB9gTCls-unsplash.jpg,0,1,88,0,unchosen,1900,0,7,2,50,50,44,objects,objects
73,1,0,74,1,1,0,no_gain4,gain5,A,E,3,40,outdoor_scenes,objects,Stimuli/Experimental_stims/outdoor_scenes/henry-be-NLF6hTe4PAg-unsplash.jpg,Stimuli/Experimental_stims/objects/fabian-blank-pElSkGRA2NU-unsplash.jpg,0,1,291,0,chosen,2200,0,7,2,50,50,3,objects,outdoor_scenes
74,1,0,75,1,1,1,gain4,no_gain6,B,G,7,42,outdoor_scenes,objects,Stimuli/Experimental_stims/outdoor_scenes/petr-vysohlid-9fqwGqGLUxc-unsplash.jpg,Stimuli/Experimental_stims/objects/jess-bailey-nOeVi8DsN8U-unsplash.jpg,0,1,152,1,chosen,1000,0,7,2,50,50,7,objects,outdoor_scenes
75,1,0,76,1,1,1,gain4,no_gain5,B,H,19,6,faces,outdoor_scenes,Stimuli/Experimental_stims/faces/jessica-radanavong-mrYkTuAesKE-unsplash.jpg,Stimuli/Experimental_stims/outdoor_scenes/meng-ji-8BH_M-53CyA-unsplash.jpg,0,1,357,1,unchosen,1100,0,7,2,50,50,19,outdoor_scenes,faces
76,1,0,77,2,2,1,gain6,no_gain3,K,D,26,18,body_parts,faces,Stimuli/Experimental_stims/body_parts/engin-akyurt-x_3gyC42btc-unsplash.jpg,Stimuli/Experimental_stims/faces/good-faces-xmSWVeGEnJw-unsplash.jpg,0,1,374,1,unchosen,3800,1,10,2,50,50,26,faces,body_parts
77,1,0,78,2,2,1,gain6,no_gain4,K,A,43,3,objects,outdoor_scenes,Stimuli/Experimental_stims/objects/jiangxulei1990-eIzzzwtkBjU-unsplash.jpg,Stimuli/Experimental_stims/outdoor_scenes/henry-be-NLF6hTe4PAg-unsplash.jpg,0,1,685,1,chosen,2000,0,10,2,50,50,43,outdoor_scenes,objects
78,1,0,79,2,2,1,gain3,no_gain1,J,L,17,29,faces,body_parts,Stimuli/Experimental_stims/faces/freddy-kearney-o-ioeoATbIM-unsplash.jpg,Stimuli/Experimental_stims/body_parts/lucaxx-freire-CacZwMexYdk-unsplash.jpg,0,1,1103,1,chosen,3000,0,10,2,50,50,17,body_parts,faces
79,1,0,80,2,2,1,gain4,no_gain3,B,D,19,18,faces,faces,Stimuli/Experimental_stims/faces/jessica-radanavong-mrYkTuAesKE-unsplash.jpg,Stimuli/Experimental_stims/faces/good-faces-xmSWVeGEnJw-unsplash.jpg,0,1,72,1,unchosen,1400,0,10,2,50,50,19,faces,faces
80,1,0,81,2,2,1,gain6,no_gain6,K,G,43,42,objects,objects,Stimuli/Experimental_stims/objects/jiangxulei1990-eIzzzwtkBjU-unsplash.jpg,Stimuli/Experimental_stims/objects/jess-bailey-nOeVi8DsN8U-unsplash.jpg,0,1,963,1,chosen,2900,0,10,2,50,50,43,objects,objects
81,1,0,82,2,2,1,gain2,no_gain1,I,L,27,29,body_parts,body_parts,Stimuli/Experimental_stims/body_parts/jonathan-borba-hTwH8QFkPMs-unsplash.jpg,Stimuli/Experimental_stims/body_parts/lucaxx-freire-CacZwMexYdk-unsplash.jpg,0,1,256,1,chosen,2000,0,10,2,50,50,27,body_parts,body_parts
82,1,0,83,2,2,0,no_gain1,gain3,L,J,16,36,faces,objects,Stimuli/Experimental_stims/faces/erik-lucatero-d2MSDujJl2g-unsplash.jpg,Stimuli/Experimental_stims/objects/alexander-andrews-JYGnB9gTCls-unsplash.jpg,0,1,348,0,unchosen,2700,0,10,2,50,50,16,objects,faces
83,1,0,84,2,2,0,no_gain6,gain2,G,I,42,27,objects,body_parts,Stimuli/Experimental_stims/objects/jess-bailey-nOeVi8DsN8U-unsplash.jpg,Stimuli/Experimental_stims/body_parts/jonathan-borba-hTwH8QFkPMs-unsplash.jpg,0,1,232,0,chosen,3600,1,10,2,50,50,42,body_parts,objects
84,1,0,85,2,2,0,no_gain3,gain2,D,I,18,5,faces,outdoor_scenes,Stimuli/Experimental_stims/faces/good-faces-xmSWVeGEnJw-unsplash.jpg,Stimuli/Experimental_stims/outdoor_scenes/jeff-king-bJHWJeiHfHc-unsplash.jpg,0,1,135,0,unchosen,1300,0,10,2,50,50,18,outdoor_scenes,faces
85,1,0,86,2,2,1,gain6,no_gain1,K,L,26,16,body_parts,faces,Stimuli/Experimental_stims/body_parts/engin-akyurt-x_3gyC42btc-unsplash.jpg,Stimuli/Experimental_stims/faces/erik-lucatero-d2MSDujJl2g-unsplash.jpg,0,1,188,1,unchosen,3000,0,10,2,50,50,26,faces,body_parts
86,1,0,87,2,2,0,no_gain5,gain4,H,B,6,19,outdoor_scenes,faces,Stimuli/Experimental_stims/outdoor_scenes/meng-ji-8BH_M-53CyA-unsplash.jpg,Stimuli/Experimental_stims/faces/jessica-radanavong-mrYkTuAesKE-unsplash.jpg,0,1,749,0,unchosen,2600,0,10,2,50,50,6,faces,outdoor_scenes
87,1,0,88,2,2,0,no_gain2,gain3,C,J,0,17,outdoor_scenes,faces,Stimuli/Experimental_stims/outdoor_scenes/aleksandra-boguslawska-MS7KD9Ti7FQ-unsplash.jpg,Stimuli/Experimental_stims/faces/freddy-kearney-o-ioeoATbIM-unsplash.jpg,0,1,1405,0,chosen,1100,0,10,2,50,50,0,faces,outdoor_scenes
88,1,0,89,2,2,0,no_gain1,gain1,L,F,29,13,body_parts,faces,Stimuli/Experimental_stims/body_parts/lucaxx-freire-CacZwMexYdk-unsplash.jpg,Stimuli/Experimental_stims/faces/aiony-haust-jmATI5Q_YgY-unsplash.jpg,0,1,42,0,chosen,1400,0,10,2,50,50,29,faces,body_parts
89,1,0,90,2,2,0,no_gain5,gain2,H,I,6,5,outdoor_scenes,outdoor_scenes,Stimuli/Experimental_stims/outdoor_scenes/meng-ji-8BH_M-53CyA-unsplash.jpg,Stimuli/Experimental_stims/outdoor_scenes/jeff-king-bJHWJeiHfHc-unsplash.jpg,0,1,539,0,unchosen,1100,0,10,2,50,50,6,outdoor_scenes,outdoor_scenes
90,1,0,91,2,2,1,gain3,no_gain3,J,D,36,18,objects,faces,Stimuli/Experimental_stims/objects/alexander-andrews-JYGnB9gTCls-unsplash.jpg,Stimuli/Experimental_stims/faces/good-faces-xmSWVeGEnJw-unsplash.jpg,0,1,533,1,unchosen,2900,0,10,2,50,50,36,faces,objects
91,1,0,92,2,2,1,gain5,no_gain4,E,A,40,3,objects,outdoor_scenes,Stimuli/Experimental_stims/objects/fabian-blank-pElSkGRA2NU-unsplash.jpg,Stimuli/Experimental_stims/outdoor_scenes/henry-be-NLF6hTe4PAg-unsplash.jpg,0,1,832,1,chosen,1600,0,10,2,50,50,40,outdoor_scenes,objects
92,1,0,93,2,2,1,gain2,no_gain6,I,G,5,9,outdoor_scenes,outdoor_scenes,Stimuli/Experimental_stims/outdoor_scenes/jeff-king-bJHWJeiHfHc-unsplash.jpg,Stimuli/Experimental_stims/outdoor_scenes/sergey-pesterev-y-b_FOmJXdg-unsplash.jpg,0,1,636,1,unchosen,1500,0,10,2,50,50,5,outdoor_scenes,outdoor_scenes
93,1,0,94,2,2,0,no_gain5,gain6,H,K,6,26,outdoor_scenes,body_parts,Stimuli/Experimental_stims/outdoor_scenes/meng-ji-8BH_M-53CyA-unsplash.jpg,Stimuli/Experimental_stims/body_parts/engin-akyurt-x_3gyC42btc-unsplash.jpg,0,1,521,0,unchosen,3800,1,10,2,50,50,6,body_parts,outdoor_scenes
94,1,0,95,2,2,0,no_gain6,gain4,G,B,42,7,objects,outdoor_scenes,Stimuli/Experimental_stims/objects/jess-bailey-nOeVi8DsN8U-unsplash.jpg,Stimuli/Experimental_stims/outdoor_scenes/petr-vysohlid-9fqwGqGLUxc-unsplash.jpg,0,1,174,0,chosen,1500,0,10,2,50,50,42,outdoor_scenes,objects
95,1,0,96,2,2,1,gain5,no_gain2,E,C,24,34,body_parts,body_parts,Stimuli/Experimental_stims/body_parts/callum-skelton-3KLMq7y46nA-unsplash.jpg,Stimuli/Experimental_stims/body_parts/sincerely-media-VN6DbKajo5s-unsplash.jpg,0,1,170,1,unchosen,1000,0,10,2,50,50,24,body_parts,body_parts
96,1,0,97,2,2,1,gain4,no_gain4,B,A,19,44,faces,objects,Stimuli/Experimental_stims/faces/jessica-radanavong-mrYkTuAesKE-unsplash.jpg,Stimuli/Experimental_stims/objects/jonathan-greenaway-Y4hGgeiFn3s-unsplash.jpg,0,1,56,1,unchosen,1600,0,10,2,50,50,19,objects,faces
97,1,0,98,2,2,0,no_gain5,gain3,H,J,15,17,faces,faces,Stimuli/Experimental_stims/faces/daniel-rigdon-dXmXKPP2L4E-unsplash.jpg,Stimuli/Experimental_stims/faces/freddy-kearney-o-ioeoATbIM-unsplash.jpg,0,1,136,0,chosen,1300,0,10,2,50,50,15,faces,faces
98,1,0,99,2,2,1,gain2,no_gain4,I,A,27,3,body_parts,outdoor_scenes,Stimuli/Experimental_stims/body_parts/jonathan-borba-hTwH8QFkPMs-unsplash.jpg,Stimuli/Experimental_stims/outdoor_scenes/henry-be-NLF6hTe4PAg-unsplash.jpg,0,1,364,1,chosen,3500,1,10,2,50,50,27,outdoor_scenes,body_parts
99,1,0,100,2,2,0,no_gain2,gain4,C,B,0,7,outdoor_scenes,outdoor_scenes,Stimuli/Experimental_stims/outdoor_scenes/aleksandra-boguslawska-MS7KD9Ti7FQ-unsplash.jpg,Stimuli/Experimental_stims/outdoor_scenes/petr-vysohlid-9fqwGqGLUxc-unsplash.jpg,0,1,402,0,chosen,2500,0,10,2,50,50,0,outdoor_scenes,outdoor_scenes
100,1,0,101,2,2,1,gain5,no_gain6,E,G,24,9,body_parts,outdoor_scenes,Stimuli/Experimental_stims/body_parts/callum-skelton-3KLMq7y46nA-unsplash.jpg,Stimuli/Experimental_stims/outdoor_scenes/sergey-pesterev-y-b_FOmJXdg-unsplash.jpg,0,1,322,1,unchosen,1100,0,10,2,50,50,24,outdoor_scenes,body_parts
101,1,0,102,2,2,1,gain3,no_gain3,J,D,17,37,faces,objects,Stimuli/Experimental_stims/faces/freddy-kearney-o-ioeoATbIM-unsplash.jpg,Stimuli/Experimental_stims/objects/alexander-andrews-VLGWE_SumrA-unsplash.jpg,0,1,38,1,chosen,1000,0,10,2,50,50,17,objects,faces
102,1,0,103,2,2,0,no_gain2,gain1,C,F,34,30,body_parts,body_parts,Stimuli/Experimental_stims/body_parts/sincerely-media-VN6DbKajo5s-unsplash.jpg,Stimuli/Experimental_stims/body_parts/lucrezia-carnelos-kn6QrWtnAtY-unsplash.jpg,0,1,459,0,unchosen,2100,0,10,2,50,50,34,body_parts,body_parts
103,1,0,104,2,2,1,gain4,no_gain4,B,A,7,3,outdoor_scenes,outdoor_scenes,Stimuli/Experimental_stims/outdoor_scenes/petr-vysohlid-9fqwGqGLUxc-unsplash.jpg,Stimuli/Experimental_stims/outdoor_scenes/henry-be-NLF6hTe4PAg-unsplash.jpg,0,1,22,1,chosen,1300,0,10,2,50,50,7,outdoor_scenes,outdoor_scenes
104,1,0,105,2,2,0,no_gain2,gain4,C,B,34,19,body_parts,faces,Stimuli/Experimental_stims/body_parts/sincerely-media-VN6DbKajo5s-unsplash.jpg,Stimuli/Experimental_stims/faces/jessica-radanavong-mrYkTuAesKE-unsplash.jpg,0,1,298,0,unchosen,2000,0,10,2,50,50,34,faces,body_parts
105,1,0,106,2,2,1,gain5,no_gain1,E,L,40,29,objects,body_parts,Stimuli/Experimental_stims/objects/fabian-blank-pElSkGRA2NU-unsplash.jpg,Stimuli/Experimental_stims/body_parts/lucaxx-freire-CacZwMexYdk-unsplash.jpg,0,1,115,1,chosen,3100,1,10,2,50,50,40,body_parts,objects
106,1,0,107,2,2,0,no_gain6,gain3,G,J,9,36,outdoor_scenes,objects,Stimuli/Experimental_stims/outdoor_scenes/sergey-pesterev-y-b_FOmJXdg-unsplash.jpg,Stimuli/Experimental_stims/objects/alexander-andrews-JYGnB9gTCls-unsplash.jpg,0,1,369,0,unchosen,1400,0,10,2,50,50,9,objects,outdoor_scenes
107,1,0,108,2,2,1,gain6,no_gain1,K,L,43,29,objects,body_parts,Stimuli/Experimental_stims/objects/jiangxulei1990-eIzzzwtkBjU-unsplash.jpg,Stimuli/Experimental_stims/body_parts/lucaxx-freire-CacZwMexYdk-unsplash.jpg,0,1,575,1,chosen,1300,0,10,2,50,50,43,body_parts,objects
108,1,0,109,2,2,0,no_gain2,gain5,C,E,0,40,outdoor_scenes,objects,Stimuli/Experimental_stims/outdoor_scenes/aleksandra-boguslawska-MS7KD9Ti7FQ-unsplash.jpg,Stimuli/Experimental_stims/objects/fabian-blank-pElSkGRA2NU-unsplash.jpg,0,1,111,0,chosen,1300,0,10,2,50,50,0,objects,outdoor_scenes
109,1,0,110,2,2,0,no_gain5,gain5,H,E,6,24,outdoor_scenes,body_parts,Stimuli/Experimental_stims/outdoor_scenes/meng-ji-8BH_M-53CyA-unsplash.jpg,Stimuli/Experimental_stims/body_parts/callum-skelton-3KLMq7y46nA-unsplash.jpg,0,1,22,0,unchosen,1200,0,10,2,50,50,6,body_parts,outdoor_scenes
110,1,0,111,2,2,0,no_gain5,gain1,H,F,6,30,outdoor_scenes,body_parts,Stimuli/Experimental_stims/outdoor_scenes/meng-ji-8BH_M-53CyA-unsplash.jpg,Stimuli/Experimental_stims/body_parts/lucrezia-carnelos-kn6QrWtnAtY-unsplash.jpg,0,1,139,0,unchosen,1300,0,10,2,50,50,6,body_parts,outdoor_scenes
111,1,0,112,2,2,0,no_gain6,gain5,G,E,42,40,objects,objects,Stimuli/Experimental_stims/objects/jess-bailey-nOeVi8DsN8U-unsplash.jpg,Stimuli/Experimental_stims/objects/fabian-blank-pElSkGRA2NU-unsplash.jpg,0,1,215,0,chosen,1100,0,10,2,50,50,42,objects,objects
112,1,0,113,2,2,1,gain2,no_gain2,I,C,27,0,body_parts,outdoor_scenes,Stimuli/Experimental_stims/body_parts/jonathan-borba-hTwH8QFkPMs-unsplash.jpg,Stimuli/Experimental_stims/outdoor_scenes/aleksandra-boguslawska-MS7KD9Ti7FQ-unsplash.jpg,0,1,688,1,chosen,1900,0,10,2,50,50,27,outdoor_scenes,body_parts
113,1,0,114,2,2,1,gain1,no_gain6,F,G,30,9,body_parts,outdoor_scenes,Stimuli/Experimental_stims/body_parts/lucrezia-carnelos-kn6QrWtnAtY-unsplash.jpg,Stimuli/Experimental_stims/outdoor_scenes/sergey-pesterev-y-b_FOmJXdg-unsplash.jpg,0,1,463,1,unchosen,2100,0,10,2,50,50,30,outdoor_scenes,body_parts
114,1,0,115,2,2,0,no_gain3,gain5,D,E,18,24,faces,body_parts,Stimuli/Experimental_stims/faces/good-faces-xmSWVeGEnJw-unsplash.jpg,Stimuli/Experimental_stims/body_parts/callum-skelton-3KLMq7y46nA-unsplash.jpg,0,1,0,0,unchosen,1400,0,10,2,50,50,18,body_parts,faces
115,1,0,116,2,2,1,gain3,no_gain6,J,G,17,42,faces,objects,Stimuli/Experimental_stims/faces/freddy-kearney-o-ioeoATbIM-unsplash.jpg,Stimuli/Experimental_stims/objects/jess-bailey-nOeVi8DsN8U-unsplash.jpg,0,1,387,1,chosen,1100,0,10,2,50,50,17,objects,faces
116,1,0,117,2,2,0,no_gain5,gain5,H,E,15,40,faces,objects,Stimuli/Experimental_stims/faces/daniel-rigdon-dXmXKPP2L4E-unsplash.jpg,Stimuli/Experimental_stims/objects/fabian-blank-pElSkGRA2NU-unsplash.jpg,0,1,534,0,chosen,1600,0,10,2,50,50,15,objects,faces
117,1,0,118,2,2,1,gain3,no_gain4,J,A,36,44,objects,objects,Stimuli/Experimental_stims/objects/alexander-andrews-JYGnB9gTCls-unsplash.jpg,Stimuli/Experimental_stims/objects/jonathan-greenaway-Y4hGgeiFn3s-unsplash.jpg,0,1,25,1,unchosen,1300,0,10,2,50,50,36,objects,objects
118,1,0,119,2,2,1,gain4,no_gain1,B,L,7,29,outdoor_scenes,body_parts,Stimuli/Experimental_stims/outdoor_scenes/petr-vysohlid-9fqwGqGLUxc-unsplash.jpg,Stimuli/Experimental_stims/body_parts/lucaxx-freire-CacZwMexYdk-unsplash.jpg,0,1,681,1,chosen,2500,0,10,2,50,50,7,body_parts,outdoor_scenes
119,1,0,120,2,2,0,no_gain4,gain2,A,I,44,5,objects,outdoor_scenes,Stimuli/Experimental_stims/objects/jonathan-greenaway-Y4hGgeiFn3s-unsplash.jpg,Stimuli/Experimental_stims/outdoor_scenes/jeff-king-bJHWJeiHfHc-unsplash.jpg,0,1,76,0,unchosen,4300,1,10,2,50,50,44,outdoor_scenes,objects
120,1,0,121,2,2,0,no_gain3,gain4,D,B,37,7,objects,outdoor_scenes,Stimuli/Experimental_stims/objects/alexander-andrews-VLGWE_SumrA-unsplash.jpg,Stimuli/Experimental_stims/outdoor_scenes/petr-vysohlid-9fqwGqGLUxc-unsplash.jpg,0,1,263,0,chosen,2400,0,10,2,50,50,37,outdoor_scenes,objects
121,1,0,122,2,2,1,gain1,no_gain4,F,A,30,44,body_parts,objects,Stimuli/Experimental_stims/body_parts/lucrezia-carnelos-kn6QrWtnAtY-unsplash.jpg,Stimuli/Experimental_stims/objects/jonathan-greenaway-Y4hGgeiFn3s-unsplash.jpg,0,1,148,1,unchosen,1800,0,10,2,50,50,30,objects,body_parts
122,1,0,123,2,2,1,gain6,no_gain3,K,D,43,37,objects,objects,Stimuli/Experimental_stims/objects/jiangxulei1990-eIzzzwtkBjU-unsplash.jpg,Stimuli/Experimental_stims/objects/alexander-andrews-VLGWE_SumrA-unsplash.jpg,0,1,0,1,chosen,1000,0,10,2,50,50,43,objects,objects
123,1,0,124,2,2,1,gain5,no_gain1,E,L,24,16,body_parts,faces,Stimuli/Experimental_stims/body_parts/callum-skelton-3KLMq7y46nA-unsplash.jpg,Stimuli/Experimental_stims/faces/erik-lucatero-d2MSDujJl2g-unsplash.jpg,0,1,512,1,unchosen,2000,0,10,2,50,50,24,faces,body_parts
124,1,0,125,2,2,1,gain3,no_gain2,J,C,36,34,objects,body_parts,Stimuli/Experimental_stims/objects/alexander-andrews-JYGnB9gTCls-unsplash.jpg,Stimuli/Experimental_stims/body_parts/sincerely-media-VN6DbKajo5s-unsplash.jpg,0,1,384,1,unchosen,2700,0,10,2,50,50,36,body_parts,objects
125,1,0,126,2,2,0,no_gain2,gain2,C,I,34,5,body_parts,outdoor_scenes,Stimuli/Experimental_stims/body_parts/sincerely-media-VN6DbKajo5s-unsplash.jpg,Stimuli/Experimental_stims/outdoor_scenes/jeff-king-bJHWJeiHfHc-unsplash.jpg,0,1,1189,0,unchosen,2500,0,10,2,50,50,34,outdoor_scenes,body_parts
126,1,0,127,2,2,0,no_gain4,gain1,A,F,3,13,outdoor_scenes,faces,Stimuli/Experimental_stims/outdoor_scenes/henry-be-NLF6hTe4PAg-unsplash.jpg,Stimuli/Experimental_stims/faces/aiony-haust-jmATI5Q_YgY-unsplash.jpg,0,1,12,0,chosen,1800,0,10,2,50,50,3,faces,outdoor_scenes
127,1,0,128,2,2,1,gain4,no_gain6,B,G,19,9,faces,outdoor_scenes,Stimuli/Experimental_stims/faces/jessica-radanavong-mrYkTuAesKE-unsplash.jpg,Stimuli/Experimental_stims/outdoor_scenes/sergey-pesterev-y-b_FOmJXdg-unsplash.jpg,0,1,0,1,unchosen,1200,0,10,2,50,50,19,outdoor_scenes,faces
128,1,0,129,2,2,0,no_gain1,gain2,L,I,16,5,faces,outdoor_scenes,Stimuli/Experimental_stims/faces/erik-lucatero-d2MSDujJl2g-unsplash.jpg,Stimuli/Experimental_stims/outdoor_scenes/jeff-king-bJHWJeiHfHc-unsplash.jpg,0,1,54,0,unchosen,3800,1,10,2,50,50,16,outdoor_scenes,faces
129,1,0,130,2,2,1,gain1,no_gain6,F,G,13,42,faces,objects,Stimuli/Experimental_stims/faces/aiony-haust-jmATI5Q_YgY-unsplash.jpg,Stimuli/Experimental_stims/objects/jess-bailey-nOeVi8DsN8U-unsplash.jpg,0,1,474,1,chosen,1300,0,10,2,50,50,13,objects,faces
130,1,0,131,2,2,1,gain6,no_gain4,K,A,26,44,body_parts,objects,Stimuli/Experimental_stims/body_parts/engin-akyurt-x_3gyC42btc-unsplash.jpg,Stimuli/Experimental_stims/objects/jonathan-greenaway-Y4hGgeiFn3s-unsplash.jpg,0,1,157,1,unchosen,2900,0,10,2,50,50,26,objects,body_parts
131,1,0,132,2,2,0,no_gain5,gain2,H,I,15,27,faces,body_parts,Stimuli/Experimental_stims/faces/daniel-rigdon-dXmXKPP2L4E-unsplash.jpg,Stimuli/Experimental_stims/body_parts/jonathan-borba-hTwH8QFkPMs-unsplash.jpg,0,1,226,0,chosen,1200,0,10,2,50,50,15,body_parts,faces
132,1,0,133,2,2,0,no_gain5,gain6,H,K,15,43,faces,objects,Stimuli/Experimental_stims/faces/daniel-rigdon-dXmXKPP2L4E-unsplash.jpg,Stimuli/Experimental_stims/objects/jiangxulei1990-eIzzzwtkBjU-unsplash.jpg,0,1,322,0,chosen,1300,0,10,2,50,50,15,objects,faces
133,1,0,134,2,2,0,no_gain2,gain6,C,K,34,26,body_parts,body_parts,Stimuli/Experimental_stims/body_parts/sincerely-media-VN6DbKajo5s-unsplash.jpg,Stimuli/Experimental_stims/body_parts/engin-akyurt-x_3gyC42btc-unsplash.jpg,0,1,69,0,unchosen,2500,0,10,2,50,50,34,body_parts,body_parts
134,1,0,135,2,2,1,gain5,no_gain3,E,D,40,37,objects,objects,Stimuli/Experimental_stims/objects/fabian-blank-pElSkGRA2NU-unsplash.jpg,Stimuli/Experimental_stims/objects/alexander-andrews-VLGWE_SumrA-unsplash.jpg,0,1,351,1,chosen,3000,0,10,2,50,50,40,objects,objects
135,1,0,136,2,2,1,gain4,no_gain5,B,H,7,15,outdoor_scenes,faces,Stimuli/Experimental_stims/outdoor_scenes/petr-vysohlid-9fqwGqGLUxc-unsplash.jpg,Stimuli/Experimental_stims/faces/daniel-rigdon-dXmXKPP2L4E-unsplash.jpg,0,1,204,1,chosen,4200,1,10,2,50,50,7,faces,outdoor_scenes
136,1,0,137,2,2,0,no_gain6,gain6,G,K,9,26,outdoor_scenes,body_parts,Stimuli/Experimental_stims/outdoor_scenes/sergey-pesterev-y-b_FOmJXdg-unsplash.jpg,Stimuli/Experimental_stims/body_parts/engin-akyurt-x_3gyC42btc-unsplash.jpg,0,1,213,0,unchosen,1700,0,10,2,50,50,9,body_parts,outdoor_scenes
137,1,0,138,2,2,0,no_gain3,gain1,D,F,37,13,objects,faces,Stimuli/Experimental_stims/objects/alexander-andrews-VLGWE_SumrA-unsplash.jpg,Stimuli/Experimental_stims/faces/aiony-haust-jmATI5Q_YgY-unsplash.jpg,0,1,843,0,chosen,1300,0,10,2,50,50,37,faces,objects
138,1,0,139,2,2,0,no_gain2,gain1,C,F,0,13,outdoor_scenes,faces,Stimuli/Experimental_stims/outdoor_scenes/aleksandra-boguslawska-MS7KD9Ti7FQ-unsplash.jpg,Stimuli/Experimental_stims/faces/aiony-haust-jmATI5Q_YgY-unsplash.jpg,0,1,692,0,chosen,1100,0,10,2,50,50,0,faces,outdoor_scenes
139,1,0,140,2,2,0,no_gain2,gain6,C,K,0,43,outdoor_scenes,objects,Stimuli/Experimental_stims/outdoor_scenes/aleksandra-boguslawska-MS7KD9Ti7FQ-unsplash.jpg,Stimuli/Experimental_stims/objects/jiangxulei1990-eIzzzwtkBjU-unsplash.jpg,0,1,646,0,chosen,1300,0,10,2,50,50,0,objects,outdoor_scenes
140,1,0,141,2,2,1,gain5,no_gain4,E,A,24,44,body_parts,objects,Stimuli/Experimental_stims/body_parts/callum-skelton-3KLMq7y46nA-unsplash.jpg,Stimuli/Experimental_stims/objects/jonathan-greenaway-Y4hGgeiFn3s-unsplash.jpg,0,1,533,1,unchosen,1500,0,10,2,50,50,24,objects,body_parts
141,1,0,142,2,2,0,no_gain5,gain1,H,F,15,13,faces,faces,Stimuli/Experimental_stims/faces/daniel-rigdon-dXmXKPP2L4E-unsplash.jpg,Stimuli/Experimental_stims/faces/aiony-haust-jmATI5Q_YgY-unsplash.jpg,0,1,8,0,chosen,1800,0,10,2,50,50,15,faces,faces
142,1,0,143,2,2,0,no_gain1,gain4,L,B,16,19,faces,faces,Stimuli/Experimental_stims/faces/erik-lucatero-d2MSDujJl2g-unsplash.jpg,Stimuli/Experimental_stims/faces/jessica-radanavong-mrYkTuAesKE-unsplash.jpg,0,1,519,0,unchosen,1400,0,10,2,50,50,16,faces,faces
143,1,0,144,2,2,1,gain3,no_gain5,J,H,36,6,objects,outdoor_scenes,Stimuli/Experimental_stims/objects/alexander-andrews-JYGnB9gTCls-unsplash.jpg,Stimuli/Experimental_stims/outdoor_scenes/meng-ji-8BH_M-53CyA-unsplash.jpg,0,1,496,1,unchosen,1400,0,10,2,50,50,36,outdoor_scenes,objects
144,1,0,145,2,2,0,no_gain4,gain3,A,J,3,17,outdoor_scenes,faces,Stimuli/Experimental_stims/outdoor_scenes/henry-be-NLF6hTe4PAg-unsplash.jpg,Stimuli/Experimental_stims/faces/freddy-kearney-o-ioeoATbIM-unsplash.jpg,0,1,884,0,chosen,1600,0,10,2,50,50,3,faces,outdoor_scenes
145,1,0,146,2,2,1,gain1,no_gain3,F,D,30,18,body_parts,faces,Stimuli/Experimental_stims/body_parts/lucrezia-carnelos-kn6QrWtnAtY-unsplash.jpg,Stimuli/Experimental_stims/faces/good-faces-xmSWVeGEnJw-unsplash.jpg,0,1,217,1,unchosen,2000,0,10,2,50,50,30,faces,body_parts
146,1,0,147,2,2,0,no_gain1,gain1,L,F,16,30,faces,body_parts,Stimuli/Experimental_stims/faces/erik-lucatero-d2MSDujJl2g-unsplash.jpg,Stimuli/Experimental_stims/body_parts/lucrezia-carnelos-kn6QrWtnAtY-unsplash.jpg,0,1,62,0,unchosen,2500,0,10,2,50,50,16,body_parts,faces
147,1,0,148,2,2,1,gain2,no_gain3,I,D,27,37,body_parts,objects,Stimuli/Experimental_stims/body_parts/jonathan-borba-hTwH8QFkPMs-unsplash.jpg,Stimuli/Experimental_stims/objects/alexander-andrews-VLGWE_SumrA-unsplash.jpg,0,1,655,1,chosen,3300,1,10,2,50,50,27,objects,body_parts
148,1,0,149,3,3,0,no_gain1,gain2,L,I,16,5,faces,outdoor_scenes,Stimuli/Experimental_stims/faces/erik-lucatero-d2MSDujJl2g-unsplash.jpg,Stimuli/Experimental_stims/outdoor_scenes/jeff-king-bJHWJeiHfHc-unsplash.jpg,0,1,429,0,unchosen,2200,0,10,2,50,50,16,outdoor_scenes,faces
149,1,0,150,3,3,1,gain2,no_gain4,I,A,5,44,outdoor_scenes,objects,Stimuli/Experimental_stims/outdoor_scenes/jeff-king-bJHWJeiHfHc-unsplash.jpg,Stimuli/Experimental_stims/objects/jonathan-greenaway-Y4hGgeiFn3s-unsplash.jpg,0,1,103,1,unchosen,1200,0,10,2,50,50,5,objects,outdoor_scenes
150,1,0,151,3,3,0,no_gain5,gain1,H,F,6,30,outdoor_scenes,body_parts,Stimuli/Experimental_stims/outdoor_scenes/meng-ji-8BH_M-53CyA-unsplash.jpg,Stimuli/Experimental_stims/body_parts/lucrezia-carnelos-kn6QrWtnAtY-unsplash.jpg,1,NaN,,NaN,unchosen,1700,0,10,2,50,50,NaN,NaN,NaN
151,1,0,152,3,3,0,no_gain6,gain4,G,B,42,7,objects,outdoor_scenes,Stimuli/Experimental_stims/objects/jess-bailey-nOeVi8DsN8U-unsplash.jpg,Stimuli/Experimental_stims/outdoor_scenes/petr-vysohlid-9fqwGqGLUxc-unsplash.jpg,0,1,711,0,chosen,1100,0,10,2,50,50,42,outdoor_scenes,objects
152,1,0,153,3,3,0,no_gain1,gain3,L,J,29,17,body_parts,faces,Stimuli/Experimental_stims/body_parts/lucaxx-freire-CacZwMexYdk-unsplash.jpg,Stimuli/Experimental_stims/faces/freddy-kearney-o-ioeoATbIM-unsplash.jpg,0,1,530,0,chosen,1000,0,10,2,50,50,29,faces,body_parts
153,1,0,154,3,3,1,gain4,no_gain3,B,D,19,18,faces,faces,Stimuli/Experimental_stims/faces/jessica-radanavong-mrYkTuAesKE-unsplash.jpg,Stimuli/Experimental_stims/faces/good-faces-xmSWVeGEnJw-unsplash.jpg,0,1,452,1,unchosen,1900,0,10,2,50,50,19,faces,faces
154,1,0,155,3,3,1,gain3,no_gain3,J,D,36,18,objects,faces,Stimuli/Experimental_stims/objects/alexander-andrews-JYGnB9gTCls-unsplash.jpg,Stimuli/Experimental_stims/faces/good-faces-xmSWVeGEnJw-unsplash.jpg,0,1,98,1,unchosen,4700,1,10,2,50,50,36,faces,objects
155,1,0,156,3,3,1,gain5,no_gain5,E,H,40,15,objects,faces,Stimuli/Experimental_stims/objects/fabian-blank-pElSkGRA2NU-unsplash.jpg,Stimuli/Experimental_stims/faces/daniel-rigdon-dXmXKPP2L4E-unsplash.jpg,0,1,185,1,chosen,2400,0,10,2,50,50,40,faces,objects
156,1,0,157,3,3,1,gain6,no_gain3,K,D,26,18,body_parts,faces,Stimuli/Experimental_stims/body_parts/engin-akyurt-x_3gyC42btc-unsplash.jpg,Stimuli/Experimental_stims/faces/good-faces-xmSWVeGEnJw-unsplash.jpg,0,1,714,1,unchosen,1900,0,10,2,50,50,26,faces,body_parts
157,1,0,158,3,3,1,gain1,no_gain4,F,A,13,3,faces,outdoor_scenes,Stimuli/Experimental_stims/faces/aiony-haust-jmATI5Q_YgY-unsplash.jpg,Stimuli/Experimental_stims/outdoor_scenes/henry-be-NLF6hTe4PAg-unsplash.jpg,0,1,54,1,chosen,1000,0,10,2,50,50,13,outdoor_scenes,faces
158,1,0,159,3,3,0,no_gain2,gain6,C,K,0,43,outdoor_scenes,objects,Stimuli/Experimental_stims/outdoor_scenes/aleksandra-boguslawska-MS7KD9Ti7FQ-unsplash.jpg,Stimuli/Experimental_stims/objects/jiangxulei1990-eIzzzwtkBjU-unsplash.jpg,0,1,541,0,chosen,1800,0,10,2,50,50,0,objects,outdoor_scenes
159,1,0,160,3,3,1,gain4,no_gain4,B,A,19,44,faces,objects,Stimuli/Experimental_stims/faces/jessica-radanavong-mrYkTuAesKE-unsplash.jpg,Stimuli/Experimental_stims/objects/jonathan-greenaway-Y4hGgeiFn3s-unsplash.jpg,0,1,523,1,unchosen,1800,0,10,2,50,50,19,objects,faces
160,1,0,161,3,3,0,no_gain4,gain3,A,J,44,36,objects,objects,Stimuli/Experimental_stims/objects/jonathan-greenaway-Y4hGgeiFn3s-unsplash.jpg,Stimuli/Experimental_stims/objects/alexander-andrews-JYGnB9gTCls-unsplash.jpg,0,1,491,0,unchosen,4700,1,10,2,50,50,44,objects,objects
161,1,0,162,3,3,0,no_gain1,gain4,L,B,16,19,faces,faces,Stimuli/Experimental_stims/faces/erik-lucatero-d2MSDujJl2g-unsplash.jpg,Stimuli/Experimental_stims/faces/jessica-radanavong-mrYkTuAesKE-unsplash.jpg,0,1,608,0,unchosen,1300,0,10,2,50,50,16,faces,faces
162,1,0,163,3,3,1,gain2,no_gain5,I,H,27,15,body_parts,faces,Stimuli/Experimental_stims/body_parts/jonathan-borba-hTwH8QFkPMs-unsplash.jpg,Stimuli/Experimental_stims/faces/daniel-rigdon-dXmXKPP2L4E-unsplash.jpg,0,1,757,1,chosen,1200,0,10,2,50,50,27,faces,body_parts
163,1,0,164,3,3,0,no_gain3,gain4,D,B,37,7,objects,outdoor_scenes,Stimuli/Experimental_stims/objects/alexander-andrews-VLGWE_SumrA-unsplash.jpg,Stimuli/Experimental_stims/outdoor_scenes/petr-vysohlid-9fqwGqGLUxc-unsplash.jpg,0,1,443,0,chosen,1600,0,10,2,50,50,37,outdoor_scenes,objects
164,1,0,165,3,3,0,no_gain2,gain5,C,E,34,24,body_parts,body_parts,Stimuli/Experimental_stims/body_parts/sincerely-media-VN6DbKajo5s-unsplash.jpg,Stimuli/Experimental_stims/body_parts/callum-skelton-3KLMq7y46nA-unsplash.jpg,0,1,647,0,unchosen,1200,0,10,2,50,50,34,body_parts,body_parts
165,1,0,166,3,3,1,gain6,no_gain5,K,H,26,6,body_parts,outdoor_scenes,Stimuli/Experimental_stims/body_parts/engin-akyurt-x_3gyC42btc-unsplash.jpg,Stimuli/Experimental_stims/outdoor_scenes/meng-ji-8BH_M-53CyA-unsplash.jpg,0,1,816,1,unchosen,1100,0,10,2,50,50,26,outdoor_scenes,body_parts
166,1,0,167,3,3,0,no_gain6,gain3,G,J,42,17,objects,faces,Stimuli/Experimental_stims/objects/jess-bailey-nOeVi8DsN8U-unsplash.jpg,Stimuli/Experimental_stims/faces/freddy-kearney-o-ioeoATbIM-unsplash.jpg,0,1,458,0,chosen,3100,1,10,2,50,50,42,faces,objects
167,1,0,168,3,3,0,no_gain5,gain3,H,J,6,36,outdoor_scenes,objects,Stimuli/Experimental_stims/outdoor_scenes/meng-ji-8BH_M-53CyA-unsplash.jpg,Stimuli/Experimental_stims/objects/alexander-andrews-JYGnB9gTCls-unsplash.jpg,0,1,437,0,unchosen,1500,0,10,2,50,50,6,objects,outdoor_scenes
168,1,0,169,3,3,0,no_gain4,gain3,A,J,3,17,outdoor_scenes,faces,Stimuli/Experimental_stims/outdoor_scenes/henry-be-NLF6hTe4PAg-unsplash.jpg,Stimuli/Experimental_stims/faces/freddy-kearney-o-ioeoATbIM-unsplash.jpg,0,1,434,0,chosen,1000,0,10,2,50,50,3,faces,outdoor_scenes
169,1,0,170,3,3,0,no_gain5,gain2,H,I,6,5,outdoor_scenes,outdoor_scenes,Stimuli/Experimental_stims/outdoor_scenes/meng-ji-8BH_M-53CyA-unsplash.jpg,Stimuli/Experimental_stims/outdoor_scenes/jeff-king-bJHWJeiHfHc-unsplash.jpg,0,1,411,0,unchosen,1500,0,10,2,50,50,6,outdoor_scenes,outdoor_scenes
170,1,0,171,3,3,0,no_gain3,gain2,D,I,37,27,objects,body_parts,Stimuli/Experimental_stims/objects/alexander-andrews-VLGWE_SumrA-unsplash.jpg,Stimuli/Experimental_stims/body_parts/jonathan-borba-hTwH8QFkPMs-unsplash.jpg,0,1,615,0,chosen,1400,0,10,2,50,50,37,body_parts,objects
171,1,0,172,3,3,1,gain1,no_gain2,F,C,13,0,faces,outdoor_scenes,Stimuli/Experimental_stims/faces/aiony-haust-jmATI5Q_YgY-unsplash.jpg,Stimuli/Experimental_stims/outdoor_scenes/aleksandra-boguslawska-MS7KD9Ti7FQ-unsplash.jpg,0,1,412,1,chosen,3500,1,10,2,50,50,13,outdoor_scenes,faces
172,1,0,173,3,3,0,no_gain4,gain2,A,I,3,27,outdoor_scenes,body_parts,Stimuli/Experimental_stims/outdoor_scenes/henry-be-NLF6hTe4PAg-unsplash.jpg,Stimuli/Experimental_stims/body_parts/jonathan-borba-hTwH8QFkPMs-unsplash.jpg,0,1,432,0,chosen,1600,0,10,2,50,50,3,body_parts,outdoor_scenes
173,1,0,174,3,3,0,no_gain4,gain5,A,E,44,24,objects,body_parts,Stimuli/Experimental_stims/objects/jonathan-greenaway-Y4hGgeiFn3s-unsplash.jpg,Stimuli/Experimental_stims/body_parts/callum-skelton-3KLMq7y46nA-unsplash.jpg,0,1,337,0,unchosen,2200,0,10,2,50,50,44,body_parts,objects
174,1,0,175,3,3,0,no_gain3,gain2,D,I,18,5,faces,outdoor_scenes,Stimuli/Experimental_stims/faces/good-faces-xmSWVeGEnJw-unsplash.jpg,Stimuli/Experimental_stims/outdoor_scenes/jeff-king-bJHWJeiHfHc-unsplash.jpg,0,1,381,0,unchosen,1200,0,10,2,50,50,18,outdoor_scenes,faces
175,1,0,176,3,3,1,gain2,no_gain2,I,C,5,34,outdoor_scenes,body_parts,Stimuli/Experimental_stims/outdoor_scenes/jeff-king-bJHWJeiHfHc-unsplash.jpg,Stimuli/Experimental_stims/body_parts/sincerely-media-VN6DbKajo5s-unsplash.jpg,0,1,412,1,unchosen,1900,0,10,2,50,50,5,body_parts,outdoor_scenes
176,1,0,177,3,3,0,no_gain6,gain5,G,E,42,40,objects,objects,Stimuli/Experimental_stims/objects/jess-bailey-nOeVi8DsN8U-unsplash.jpg,Stimuli/Experimental_stims/objects/fabian-blank-pElSkGRA2NU-unsplash.jpg,0,1,395,0,chosen,2000,0,10,2,50,50,42,objects,objects
177,1,0,178,3,3,1,gain6,no_gain1,K,L,43,29,objects,body_parts,Stimuli/Experimental_stims/objects/jiangxulei1990-eIzzzwtkBjU-unsplash.jpg,Stimuli/Experimental_stims/body_parts/lucaxx-freire-CacZwMexYdk-unsplash.jpg,1,NaN,,NaN,chosen,1800,0,10,2,50,50,NaN,NaN,NaN
178,1,0,179,3,3,0,no_gain1,gain2,L,I,29,27,body_parts,body_parts,Stimuli/Experimental_stims/body_parts/lucaxx-freire-CacZwMexYdk-unsplash.jpg,Stimuli/Experimental_stims/body_parts/jonathan-borba-hTwH8QFkPMs-unsplash.jpg,1,NaN,,NaN,chosen,2200,0,10,2,50,50,NaN,NaN,NaN
179,1,0,180,3,3,0,no_gain2,gain3,C,J,34,36,body_parts,objects,Stimuli/Experimental_stims/body_parts/sincerely-media-VN6DbKajo5s-unsplash.jpg,Stimuli/Experimental_stims/objects/alexander-andrews-JYGnB9gTCls-unsplash.jpg,1,NaN,,NaN,unchosen,2300,0,10,2,50,50,NaN,NaN,NaN
180,1,0,181,3,3,1,gain6,no_gain3,K,D,43,37,objects,objects,Stimuli/Experimental_stims/objects/jiangxulei1990-eIzzzwtkBjU-unsplash.jpg,Stimuli/Experimental_stims/objects/alexander-andrews-VLGWE_SumrA-unsplash.jpg,1,NaN,,NaN,chosen,4300,1,10,2,50,50,NaN,NaN,NaN
181,1,0,182,3,3,1,gain5,no_gain3,E,D,40,37,objects,objects,Stimuli/Experimental_stims/objects/fabian-blank-pElSkGRA2NU-unsplash.jpg,Stimuli/Experimental_stims/objects/alexander-andrews-VLGWE_SumrA-unsplash.jpg,1,NaN,,NaN,chosen,1600,0,10,2,50,50,NaN,NaN,NaN
182,1,0,183,3,3,0,no_gain2,gain4,C,B,34,19,body_parts,faces,Stimuli/Experimental_stims/body_parts/sincerely-media-VN6DbKajo5s-unsplash.jpg,Stimuli/Experimental_stims/faces/jessica-radanavong-mrYkTuAesKE-unsplash.jpg,0,1,395,0,unchosen,1600,0,10,2,50,50,34,faces,body_parts
183,1,0,184,3,3,1,gain3,no_gain1,J,L,36,16,objects,faces,Stimuli/Experimental_stims/objects/alexander-andrews-JYGnB9gTCls-unsplash.jpg,Stimuli/Experimental_stims/faces/erik-lucatero-d2MSDujJl2g-unsplash.jpg,0,1,362,1,unchosen,1100,0,10,2,50,50,36,faces,objects
184,1,0,185,3,3,1,gain6,no_gain6,K,G,43,42,objects,objects,Stimuli/Experimental_stims/objects/jiangxulei1990-eIzzzwtkBjU-unsplash.jpg,Stimuli/Experimental_stims/objects/jess-bailey-nOeVi8DsN8U-unsplash.jpg,0,1,391,1,chosen,1000,0,10,2,50,50,43,objects,objects
185,1,0,186,3,3,0,no_gain1,gain5,L,E,29,40,body_parts,objects,Stimuli/Experimental_stims/body_parts/lucaxx-freire-CacZwMexYdk-unsplash.jpg,Stimuli/Experimental_stims/objects/fabian-blank-pElSkGRA2NU-unsplash.jpg,0,1,615,0,chosen,1000,0,10,2,50,50,29,objects,body_parts
186,1,0,187,3,3,0,no_gain1,gain5,L,E,16,24,faces,body_parts,Stimuli/Experimental_stims/faces/erik-lucatero-d2MSDujJl2g-unsplash.jpg,Stimuli/Experimental_stims/body_parts/callum-skelton-3KLMq7y46nA-unsplash.jpg,0,1,534,0,unchosen,3000,1,10,2,50,50,16,body_parts,faces
187,1,0,188,3,3,1,gain4,no_gain1,B,L,7,29,outdoor_scenes,body_parts,Stimuli/Experimental_stims/outdoor_scenes/petr-vysohlid-9fqwGqGLUxc-unsplash.jpg,Stimuli/Experimental_stims/body_parts/lucaxx-freire-CacZwMexYdk-unsplash.jpg,0,1,530,1,chosen,1000,0,10,2,50,50,7,body_parts,outdoor_scenes
188,1,0,189,3,3,1,gain3,no_gain3,J,D,17,37,faces,objects,Stimuli/Experimental_stims/faces/freddy-kearney-o-ioeoATbIM-unsplash.jpg,Stimuli/Experimental_stims/objects/alexander-andrews-VLGWE_SumrA-unsplash.jpg,0,1,658,1,chosen,1600,0,10,2,50,50,17,objects,faces
189,1,0,190,3,3,0,no_gain2,gain5,C,E,0,40,outdoor_scenes,objects,Stimuli/Experimental_stims/outdoor_scenes/aleksandra-boguslawska-MS7KD9Ti7FQ-unsplash.jpg,Stimuli/Experimental_stims/objects/fabian-blank-pElSkGRA2NU-unsplash.jpg,0,1,536,0,chosen,1500,0,10,2,50,50,0,objects,outdoor_scenes
190,1,0,191,3,3,0,no_gain1,gain6,L,K,16,26,faces,body_parts,Stimuli/Experimental_stims/faces/erik-lucatero-d2MSDujJl2g-unsplash.jpg,Stimuli/Experimental_stims/body_parts/engin-akyurt-x_3gyC42btc-unsplash.jpg,1,NaN,,NaN,unchosen,1700,0,10,2,50,50,NaN,NaN,NaN
191,1,0,192,3,3,1,gain5,no_gain6,E,G,24,9,body_parts,outdoor_scenes,Stimuli/Experimental_stims/body_parts/callum-skelton-3KLMq7y46nA-unsplash.jpg,Stimuli/Experimental_stims/outdoor_scenes/sergey-pesterev-y-b_FOmJXdg-unsplash.jpg,1,NaN,,NaN,unchosen,1300,0,10,2,50,50,NaN,NaN,NaN
192,1,0,193,3,3,0,no_gain5,gain4,H,B,6,19,outdoor_scenes,faces,Stimuli/Experimental_stims/outdoor_scenes/meng-ji-8BH_M-53CyA-unsplash.jpg,Stimuli/Experimental_stims/faces/jessica-radanavong-mrYkTuAesKE-unsplash.jpg,1,NaN,,NaN,unchosen,1300,0,10,2,50,50,NaN,NaN,NaN
193,1,0,194,3,3,1,gain1,no_gain5,F,H,13,15,faces,faces,Stimuli/Experimental_stims/faces/aiony-haust-jmATI5Q_YgY-unsplash.jpg,Stimuli/Experimental_stims/faces/daniel-rigdon-dXmXKPP2L4E-unsplash.jpg,1,NaN,,NaN,chosen,3600,1,10,2,50,50,NaN,NaN,NaN
194,1,0,195,3,3,1,gain6,no_gain4,K,A,26,44,body_parts,objects,Stimuli/Experimental_stims/body_parts/engin-akyurt-x_3gyC42btc-unsplash.jpg,Stimuli/Experimental_stims/objects/jonathan-greenaway-Y4hGgeiFn3s-unsplash.jpg,1,NaN,,NaN,unchosen,2100,0,10,2,50,50,NaN,NaN,NaN
195,1,0,196,3,3,1,gain1,no_gain1,F,L,13,29,faces,body_parts,Stimuli/Experimental_stims/faces/aiony-haust-jmATI5Q_YgY-unsplash.jpg,Stimuli/Experimental_stims/body_parts/lucaxx-freire-CacZwMexYdk-unsplash.jpg,1,NaN,,NaN,chosen,1600,0,10,2,50,50,NaN,NaN,NaN
196,1,0,197,3,3,1,gain4,no_gain6,B,G,19,9,faces,outdoor_scenes,Stimuli/Experimental_stims/faces/jessica-radanavong-mrYkTuAesKE-unsplash.jpg,Stimuli/Experimental_stims/outdoor_scenes/sergey-pesterev-y-b_FOmJXdg-unsplash.jpg,1,NaN,,NaN,unchosen,1800,0,10,2,50,50,NaN,NaN,NaN
197,1,0,198,3,3,1,gain3,no_gain6,J,G,36,9,objects,outdoor_scenes,Stimuli/Experimental_stims/objects/alexander-andrews-JYGnB9gTCls-unsplash.jpg,Stimuli/Experimental_stims/outdoor_scenes/sergey-pesterev-y-b_FOmJXdg-unsplash.jpg,1,NaN,,NaN,unchosen,1600,0,10,2,50,50,NaN,NaN,NaN
198,1,0,199,3,3,1,gain1,no_gain3,F,D,13,37,faces,objects,Stimuli/Experimental_stims/faces/aiony-haust-jmATI5Q_YgY-unsplash.jpg,Stimuli/Experimental_stims/objects/alexander-andrews-VLGWE_SumrA-unsplash.jpg,1,NaN,,NaN,chosen,3100,1,10,2,50,50,NaN,NaN,NaN
199,1,0,200,3,3,0,no_gain5,gain4,H,B,15,7,faces,outdoor_scenes,Stimuli/Experimental_stims/faces/daniel-rigdon-dXmXKPP2L4E-unsplash.jpg,Stimuli/Experimental_stims/outdoor_scenes/petr-vysohlid-9fqwGqGLUxc-unsplash.jpg,1,NaN,,NaN,chosen,2500,0,10,2,50,50,NaN,NaN,NaN
200,1,0,201,3,3,0,no_gain1,gain1,L,F,16,30,faces,body_parts,Stimuli/Experimental_stims/faces/erik-lucatero-d2MSDujJl2g-unsplash.jpg,Stimuli/Experimental_stims/body_parts/lucrezia-carnelos-kn6QrWtnAtY-unsplash.jpg,1,NaN,,NaN,unchosen,2000,0,10,2,50,50,NaN,NaN,NaN
201,1,0,202,3,3,0,no_gain4,gain4,A,B,3,7,outdoor_scenes,outdoor_scenes,Stimuli/Experimental_stims/outdoor_scenes/henry-be-NLF6hTe4PAg-unsplash.jpg,Stimuli/Experimental_stims/outdoor_scenes/petr-vysohlid-9fqwGqGLUxc-unsplash.jpg,0,1,377,0,chosen,2100,0,10,2,50,50,3,outdoor_scenes,outdoor_scenes
202,1,0,203,3,3,1,gain3,no_gain5,J,H,17,15,faces,faces,Stimuli/Experimental_stims/faces/freddy-kearney-o-ioeoATbIM-unsplash.jpg,Stimuli/Experimental_stims/faces/daniel-rigdon-dXmXKPP2L4E-unsplash.jpg,0,1,462,1,chosen,1200,0,10,2,50,50,17,faces,faces
203,1,0,204,3,3,1,gain1,no_gain6,F,G,30,9,body_parts,outdoor_scenes,Stimuli/Experimental_stims/body_parts/lucrezia-carnelos-kn6QrWtnAtY-unsplash.jpg,Stimuli/Experimental_stims/outdoor_scenes/sergey-pesterev-y-b_FOmJXdg-unsplash.jpg,0,1,490,1,unchosen,3300,1,10,2,50,50,30,outdoor_scenes,body_parts
204,1,0,205,3,3,1,gain3,no_gain2,J,C,17,0,faces,outdoor_scenes,Stimuli/Experimental_stims/faces/freddy-kearney-o-ioeoATbIM-unsplash.jpg,Stimuli/Experimental_stims/outdoor_scenes/aleksandra-boguslawska-MS7KD9Ti7FQ-unsplash.jpg,0,1,437,1,chosen,2100,0,10,2,50,50,17,outdoor_scenes,faces
205,1,0,206,3,3,0,no_gain4,gain5,A,E,3,40,outdoor_scenes,objects,Stimuli/Experimental_stims/outdoor_scenes/henry-be-NLF6hTe4PAg-unsplash.jpg,Stimuli/Experimental_stims/objects/fabian-blank-pElSkGRA2NU-unsplash.jpg,0,1,478,0,chosen,2100,0,10,2,50,50,3,objects,outdoor_scenes
206,1,0,207,3,3,1,gain2,no_gain6,I,G,27,42,body_parts,objects,Stimuli/Experimental_stims/body_parts/jonathan-borba-hTwH8QFkPMs-unsplash.jpg,Stimuli/Experimental_stims/objects/jess-bailey-nOeVi8DsN8U-unsplash.jpg,0,1,440,1,chosen,2600,0,10,2,50,50,27,objects,body_parts
207,1,0,208,3,3,1,gain1,no_gain2,F,C,30,34,body_parts,body_parts,Stimuli/Experimental_stims/body_parts/lucrezia-carnelos-kn6QrWtnAtY-unsplash.jpg,Stimuli/Experimental_stims/body_parts/sincerely-media-VN6DbKajo5s-unsplash.jpg,0,1,465,1,unchosen,2800,0,10,2,50,50,30,body_parts,body_parts
208,1,0,209,3,3,1,gain1,no_gain4,F,A,30,44,body_parts,objects,Stimuli/Experimental_stims/body_parts/lucrezia-carnelos-kn6QrWtnAtY-unsplash.jpg,Stimuli/Experimental_stims/objects/jonathan-greenaway-Y4hGgeiFn3s-unsplash.jpg,0,1,452,1,unchosen,2100,0,10,2,50,50,30,objects,body_parts
209,1,0,210,3,3,0,no_gain6,gain1,G,F,42,13,objects,faces,Stimuli/Experimental_stims/objects/jess-bailey-nOeVi8DsN8U-unsplash.jpg,Stimuli/Experimental_stims/faces/aiony-haust-jmATI5Q_YgY-unsplash.jpg,1,NaN,,NaN,chosen,1300,0,10,2,50,50,NaN,NaN,NaN
210,1,0,211,3,3,0,no_gain5,gain6,H,K,15,43,faces,objects,Stimuli/Experimental_stims/faces/daniel-rigdon-dXmXKPP2L4E-unsplash.jpg,Stimuli/Experimental_stims/objects/jiangxulei1990-eIzzzwtkBjU-unsplash.jpg,0,1,855,0,chosen,3900,1,10,2,50,50,15,objects,faces
211,1,0,212,3,3,0,no_gain2,gain6,C,K,34,26,body_parts,body_parts,Stimuli/Experimental_stims/body_parts/sincerely-media-VN6DbKajo5s-unsplash.jpg,Stimuli/Experimental_stims/body_parts/engin-akyurt-x_3gyC42btc-unsplash.jpg,0,1,497,0,unchosen,1600,0,10,2,50,50,34,body_parts,body_parts
212,1,0,213,3,3,1,gain4,no_gain2,B,C,7,0,outdoor_scenes,outdoor_scenes,Stimuli/Experimental_stims/outdoor_scenes/petr-vysohlid-9fqwGqGLUxc-unsplash.jpg,Stimuli/Experimental_stims/outdoor_scenes/aleksandra-boguslawska-MS7KD9Ti7FQ-unsplash.jpg,0,1,859,1,chosen,1300,0,10,2,50,50,7,outdoor_scenes,outdoor_scenes
213,1,0,214,3,3,0,no_gain3,gain5,D,E,18,24,faces,body_parts,Stimuli/Experimental_stims/faces/good-faces-xmSWVeGEnJw-unsplash.jpg,Stimuli/Experimental_stims/body_parts/callum-skelton-3KLMq7y46nA-unsplash.jpg,1,NaN,,NaN,unchosen,1700,0,10,2,50,50,NaN,NaN,NaN
214,1,0,215,3,3,1,gain2,no_gain6,I,G,5,9,outdoor_scenes,outdoor_scenes,Stimuli/Experimental_stims/outdoor_scenes/jeff-king-bJHWJeiHfHc-unsplash.jpg,Stimuli/Experimental_stims/outdoor_scenes/sergey-pesterev-y-b_FOmJXdg-unsplash.jpg,1,NaN,,NaN,unchosen,1600,0,10,2,50,50,NaN,NaN,NaN
215,1,0,216,3,3,0,no_gain4,gain6,A,K,3,43,outdoor_scenes,objects,Stimuli/Experimental_stims/outdoor_scenes/henry-be-NLF6hTe4PAg-unsplash.jpg,Stimuli/Experimental_stims/objects/jiangxulei1990-eIzzzwtkBjU-unsplash.jpg,1,NaN,,NaN,chosen,3600,1,10,2,50,50,NaN,NaN,NaN
216,1,0,217,3,3,1,gain5,no_gain5,E,H,24,6,body_parts,outdoor_scenes,Stimuli/Experimental_stims/body_parts/callum-skelton-3KLMq7y46nA-unsplash.jpg,Stimuli/Experimental_stims/outdoor_scenes/meng-ji-8BH_M-53CyA-unsplash.jpg,1,NaN,,NaN,unchosen,2700,0,10,2,50,50,NaN,NaN,NaN
217,1,0,218,3,3,1,gain2,no_gain2,I,C,27,0,body_parts,outdoor_scenes,Stimuli/Experimental_stims/body_parts/jonathan-borba-hTwH8QFkPMs-unsplash.jpg,Stimuli/Experimental_stims/outdoor_scenes/aleksandra-boguslawska-MS7KD9Ti7FQ-unsplash.jpg,1,NaN,,NaN,chosen,2800,0,10,2,50,50,NaN,NaN,NaN
218,1,0,219,3,3,0,no_gain6,gain6,G,K,9,26,outdoor_scenes,body_parts,Stimuli/Experimental_stims/outdoor_scenes/sergey-pesterev-y-b_FOmJXdg-unsplash.jpg,Stimuli/Experimental_stims/body_parts/engin-akyurt-x_3gyC42btc-unsplash.jpg,1,NaN,,NaN,unchosen,2800,0,10,2,50,50,NaN,NaN,NaN
219,1,0,220,3,3,1,gain1,no_gain3,F,D,30,18,body_parts,faces,Stimuli/Experimental_stims/body_parts/lucrezia-carnelos-kn6QrWtnAtY-unsplash.jpg,Stimuli/Experimental_stims/faces/good-faces-xmSWVeGEnJw-unsplash.jpg,1,NaN,,NaN,unchosen,1100,0,10,2,50,50,NaN,NaN,NaN
220,1,0,221,4,4,0,no_gain6,gain2,G,I,42,27,objects,body_parts,Stimuli/Experimental_stims/objects/jess-bailey-nOeVi8DsN8U-unsplash.jpg,Stimuli/Experimental_stims/body_parts/jonathan-borba-hTwH8QFkPMs-unsplash.jpg,1,NaN,,NaN,chosen,4200,1,9,2,50,50,NaN,NaN,NaN
221,1,0,222,4,4,1,gain4,no_gain2,B,C,19,34,faces,body_parts,Stimuli/Experimental_stims/faces/jessica-radanavong-mrYkTuAesKE-unsplash.jpg,Stimuli/Experimental_stims/body_parts/sincerely-media-VN6DbKajo5s-unsplash.jpg,1,NaN,,NaN,unchosen,2400,0,9,2,50,50,NaN,NaN,NaN
222,1,0,223,4,4,1,gain2,no_gain1,I,L,27,29,body_parts,body_parts,Stimuli/Experimental_stims/body_parts/jonathan-borba-hTwH8QFkPMs-unsplash.jpg,Stimuli/Experimental_stims/body_parts/lucaxx-freire-CacZwMexYdk-unsplash.jpg,1,NaN,,NaN,chosen,1200,0,9,2,50,50,NaN,NaN,NaN
223,1,0,224,4,4,0,no_gain4,gain4,A,B,3,7,outdoor_scenes,outdoor_scenes,Stimuli/Experimental_stims/outdoor_scenes/henry-be-NLF6hTe4PAg-unsplash.jpg,Stimuli/Experimental_stims/outdoor_scenes/petr-vysohlid-9fqwGqGLUxc-unsplash.jpg,1,NaN,,NaN,chosen,1400,0,9,2,50,50,NaN,NaN,NaN
224,1,0,225,4,4,0,no_gain4,gain6,A,K,44,26,objects,body_parts,Stimuli/Experimental_stims/objects/jonathan-greenaway-Y4hGgeiFn3s-unsplash.jpg,Stimuli/Experimental_stims/body_parts/engin-akyurt-x_3gyC42btc-unsplash.jpg,1,NaN,,NaN,unchosen,1800,0,9,2,50,50,NaN,NaN,NaN
225,1,0,226,4,4,0,no_gain4,gain5,A,E,44,24,objects,body_parts,Stimuli/Experimental_stims/objects/jonathan-greenaway-Y4hGgeiFn3s-unsplash.jpg,Stimuli/Experimental_stims/body_parts/callum-skelton-3KLMq7y46nA-unsplash.jpg,1,NaN,,NaN,unchosen,2200,0,9,2,50,50,NaN,NaN,NaN
226,1,0,227,4,4,1,gain4,no_gain1,B,L,7,29,outdoor_scenes,body_parts,Stimuli/Experimental_stims/outdoor_scenes/petr-vysohlid-9fqwGqGLUxc-unsplash.jpg,Stimuli/Experimental_stims/body_parts/lucaxx-freire-CacZwMexYdk-unsplash.jpg,1,NaN,,NaN,chosen,4000,1,9,2,50,50,NaN,NaN,NaN
227,1,0,228,4,4,1,gain3,no_gain2,J,C,17,0,faces,outdoor_scenes,Stimuli/Experimental_stims/faces/freddy-kearney-o-ioeoATbIM-unsplash.jpg,Stimuli/Experimental_stims/outdoor_scenes/aleksandra-boguslawska-MS7KD9Ti7FQ-unsplash.jpg,1,NaN,,NaN,chosen,1900,0,9,2,50,50,NaN,NaN,NaN
228,1,0,229,4,4,0,no_gain5,gain4,H,B,15,7,faces,outdoor_scenes,Stimuli/Experimental_stims/faces/daniel-rigdon-dXmXKPP2L4E-unsplash.jpg,Stimuli/Experimental_stims/outdoor_scenes/petr-vysohlid-9fqwGqGLUxc-unsplash.jpg,1,NaN,,NaN,chosen,1800,0,9,2,50,50,NaN,NaN,NaN
229,1,0,230,4,4,0,no_gain4,gain3,A,J,44,36,objects,objects,Stimuli/Experimental_stims/objects/jonathan-greenaway-Y4hGgeiFn3s-unsplash.jpg,Stimuli/Experimental_stims/objects/alexander-andrews-JYGnB9gTCls-unsplash.jpg,1,NaN,,NaN,unchosen,1200,0,9,2,50,50,NaN,NaN,NaN
230,1,0,231,4,4,0,no_gain3,gain5,D,E,18,24,faces,body_parts,Stimuli/Experimental_stims/faces/good-faces-xmSWVeGEnJw-unsplash.jpg,Stimuli/Experimental_stims/body_parts/callum-skelton-3KLMq7y46nA-unsplash.jpg,1,NaN,,NaN,unchosen,1700,0,9,2,50,50,NaN,NaN,NaN
231,1,0,232,4,4,0,no_gain2,gain5,C,E,34,24,body_parts,body_parts,Stimuli/Experimental_stims/body_parts/sincerely-media-VN6DbKajo5s-unsplash.jpg,Stimuli/Experimental_stims/body_parts/callum-skelton-3KLMq7y46nA-unsplash.jpg,1,NaN,,NaN,unchosen,3500,1,9,2,50,50,NaN,NaN,NaN
232,1,0,233,4,4,1,gain3,no_gain3,J,D,17,37,faces,objects,Stimuli/Experimental_stims/faces/freddy-kearney-o-ioeoATbIM-unsplash.jpg,Stimuli/Experimental_stims/objects/alexander-andrews-VLGWE_SumrA-unsplash.jpg,1,NaN,,NaN,chosen,1700,0,9,2,50,50,NaN,NaN,NaN
233,1,0,234,4,4,1,gain2,no_gain2,I,C,5,34,outdoor_scenes,body_parts,Stimuli/Experimental_stims/outdoor_scenes/jeff-king-bJHWJeiHfHc-unsplash.jpg,Stimuli/Experimental_stims/body_parts/sincerely-media-VN6DbKajo5s-unsplash.jpg,1,NaN,,NaN,unchosen,2000,0,9,2,50,50,NaN,NaN,NaN
234,1,0,235,4,4,0,no_gain6,gain5,G,E,9,24,outdoor_scenes,body_parts,Stimuli/Experimental_stims/outdoor_scenes/sergey-pesterev-y-b_FOmJXdg-unsplash.jpg,Stimuli/Experimental_stims/body_parts/callum-skelton-3KLMq7y46nA-unsplash.jpg,1,NaN,,NaN,unchosen,1300,0,9,2,50,50,NaN,NaN,NaN
235,1,0,236,4,4,1,gain6,no_gain1,K,L,43,29,objects,body_parts,Stimuli/Experimental_stims/objects/jiangxulei1990-eIzzzwtkBjU-unsplash.jpg,Stimuli/Experimental_stims/body_parts/lucaxx-freire-CacZwMexYdk-unsplash.jpg,1,NaN,,NaN,chosen,1400,0,9,2,50,50,NaN,NaN,NaN
236,1,0,237,4,4,1,gain1,no_gain4,F,A,30,44,body_parts,objects,Stimuli/Experimental_stims/body_parts/lucrezia-carnelos-kn6QrWtnAtY-unsplash.jpg,Stimuli/Experimental_stims/objects/jonathan-greenaway-Y4hGgeiFn3s-unsplash.jpg,0,1,415,1,unchosen,3600,1,9,2,50,50,30,objects,body_parts
237,1,0,238,4,4,0,no_gain3,gain4,D,B,37,7,objects,outdoor_scenes,Stimuli/Experimental_stims/objects/alexander-andrews-VLGWE_SumrA-unsplash.jpg,Stimuli/Experimental_stims/outdoor_scenes/petr-vysohlid-9fqwGqGLUxc-unsplash.jpg,1,NaN,,NaN,chosen,2700,0,9,2,50,50,NaN,NaN,NaN
238,1,0,239,4,4,0,no_gain5,gain1,H,F,6,30,outdoor_scenes,body_parts,Stimuli/Experimental_stims/outdoor_scenes/meng-ji-8BH_M-53CyA-unsplash.jpg,Stimuli/Experimental_stims/body_parts/lucrezia-carnelos-kn6QrWtnAtY-unsplash.jpg,1,NaN,,NaN,unchosen,1900,0,9,2,50,50,NaN,NaN,NaN
239,1,0,240,4,4,0,no_gain1,gain3,L,J,16,36,faces,objects,Stimuli/Experimental_stims/faces/erik-lucatero-d2MSDujJl2g-unsplash.jpg,Stimuli/Experimental_stims/objects/alexander-andrews-JYGnB9gTCls-unsplash.jpg,1,NaN,,NaN,unchosen,1200,0,9,2,50,50,NaN,NaN,NaN
240,1,0,241,4,4,0,no_gain2,gain1,C,F,34,30,body_parts,body_parts,Stimuli/Experimental_stims/body_parts/sincerely-media-VN6DbKajo5s-unsplash.jpg,Stimuli/Experimental_stims/body_parts/lucrezia-carnelos-kn6QrWtnAtY-unsplash.jpg,1,NaN,,NaN,unchosen,1000,0,9,2,50,50,NaN,NaN,NaN
241,1,0,242,4,4,1,gain3,no_gain4,J,A,17,3,faces,outdoor_scenes,Stimuli/Experimental_stims/faces/freddy-kearney-o-ioeoATbIM-unsplash.jpg,Stimuli/Experimental_stims/outdoor_scenes/henry-be-NLF6hTe4PAg-unsplash.jpg,1,NaN,,NaN,chosen,3700,1,9,2,50,50,NaN,NaN,NaN
242,1,0,243,4,4,0,no_gain4,gain1,A,F,3,13,outdoor_scenes,faces,Stimuli/Experimental_stims/outdoor_scenes/henry-be-NLF6hTe4PAg-unsplash.jpg,Stimuli/Experimental_stims/faces/aiony-haust-jmATI5Q_YgY-unsplash.jpg,1,NaN,,NaN,chosen,1200,0,9,2,50,50,NaN,NaN,NaN
243,1,0,244,4,4,1,gain2,no_gain3,I,D,5,18,outdoor_scenes,faces,Stimuli/Experimental_stims/outdoor_scenes/jeff-king-bJHWJeiHfHc-unsplash.jpg,Stimuli/Experimental_stims/faces/good-faces-xmSWVeGEnJw-unsplash.jpg,1,NaN,,NaN,unchosen,2600,0,9,2,50,50,NaN,NaN,NaN
244,1,0,245,4,4,1,gain4,no_gain4,B,A,19,44,faces,objects,Stimuli/Experimental_stims/faces/jessica-radanavong-mrYkTuAesKE-unsplash.jpg,Stimuli/Experimental_stims/objects/jonathan-greenaway-Y4hGgeiFn3s-unsplash.jpg,1,NaN,,NaN,unchosen,2400,0,9,2,50,50,NaN,NaN,NaN
245,1,0,246,4,4,1,gain2,no_gain6,I,G,5,9,outdoor_scenes,outdoor_scenes,Stimuli/Experimental_stims/outdoor_scenes/jeff-king-bJHWJeiHfHc-unsplash.jpg,Stimuli/Experimental_stims/outdoor_scenes/sergey-pesterev-y-b_FOmJXdg-unsplash.jpg,1,NaN,,NaN,unchosen,1200,0,9,2,50,50,NaN,NaN,NaN
246,1,0,247,4,4,0,no_gain6,gain6,G,K,42,43,objects,objects,Stimuli/Experimental_stims/objects/jess-bailey-nOeVi8DsN8U-unsplash.jpg,Stimuli/Experimental_stims/objects/jiangxulei1990-eIzzzwtkBjU-unsplash.jpg,1,NaN,,NaN,chosen,2500,0,9,2,50,50,NaN,NaN,NaN
247,1,0,248,4,4,1,gain2,no_gain5,I,H,5,6,outdoor_scenes,outdoor_scenes,Stimuli/Experimental_stims/outdoor_scenes/jeff-king-bJHWJeiHfHc-unsplash.jpg,Stimuli/Experimental_stims/outdoor_scenes/meng-ji-8BH_M-53CyA-unsplash.jpg,1,NaN,,NaN,unchosen,2200,0,9,2,50,50,NaN,NaN,NaN
248,1,0,249,4,4,0,no_gain1,gain3,L,J,29,17,body_parts,faces,Stimuli/Experimental_stims/body_parts/lucaxx-freire-CacZwMexYdk-unsplash.jpg,Stimuli/Experimental_stims/faces/freddy-kearney-o-ioeoATbIM-unsplash.jpg,1,NaN,,NaN,chosen,1100,0,9,2,50,50,NaN,NaN,NaN
249,1,0,250,4,4,0,no_gain6,gain1,G,F,42,13,objects,faces,Stimuli/Experimental_stims/objects/jess-bailey-nOeVi8DsN8U-unsplash.jpg,Stimuli/Experimental_stims/faces/aiony-haust-jmATI5Q_YgY-unsplash.jpg,1,NaN,,NaN,chosen,1700,0,9,2,50,50,NaN,NaN,NaN
250,1,0,251,4,4,0,no_gain1,gain2,L,I,16,5,faces,outdoor_scenes,Stimuli/Experimental_stims/faces/erik-lucatero-d2MSDujJl2g-unsplash.jpg,Stimuli/Experimental_stims/outdoor_scenes/jeff-king-bJHWJeiHfHc-unsplash.jpg,1,NaN,,NaN,unchosen,1100,0,9,2,50,50,NaN,NaN,NaN
251,1,0,252,4,4,1,gain6,no_gain3,K,D,43,37,objects,objects,Stimuli/Experimental_stims/objects/jiangxulei1990-eIzzzwtkBjU-unsplash.jpg,Stimuli/Experimental_stims/objects/alexander-andrews-VLGWE_SumrA-unsplash.jpg,1,NaN,,NaN,chosen,1900,0,9,2,50,50,NaN,NaN,NaN
252,1,0,253,4,4,1,gain4,no_gain1,B,L,19,16,faces,faces,Stimuli/Experimental_stims/faces/jessica-radanavong-mrYkTuAesKE-unsplash.jpg,Stimuli/Experimental_stims/faces/erik-lucatero-d2MSDujJl2g-unsplash.jpg,1,NaN,,NaN,unchosen,1100,0,9,2,50,50,NaN,NaN,NaN
253,1,0,254,4,4,1,gain4,no_gain5,B,H,19,6,faces,outdoor_scenes,Stimuli/Experimental_stims/faces/jessica-radanavong-mrYkTuAesKE-unsplash.jpg,Stimuli/Experimental_stims/outdoor_scenes/meng-ji-8BH_M-53CyA-unsplash.jpg,1,NaN,,NaN,unchosen,1000,0,9,2,50,50,NaN,NaN,NaN
254,1,0,255,4,4,1,gain6,no_gain6,K,G,26,9,body_parts,outdoor_scenes,Stimuli/Experimental_stims/body_parts/engin-akyurt-x_3gyC42btc-unsplash.jpg,Stimuli/Experimental_stims/outdoor_scenes/sergey-pesterev-y-b_FOmJXdg-unsplash.jpg,1,NaN,,NaN,unchosen,1600,0,9,2,50,50,NaN,NaN,NaN
255,1,0,256,4,4,0,no_gain4,gain5,A,E,3,40,outdoor_scenes,objects,Stimuli/Experimental_stims/outdoor_scenes/henry-be-NLF6hTe4PAg-unsplash.jpg,Stimuli/Experimental_stims/objects/fabian-blank-pElSkGRA2NU-unsplash.jpg,1,NaN,,NaN,chosen,2700,0,9,2,50,50,NaN,NaN,NaN
256,1,0,257,4,4,1,gain4,no_gain6,B,G,19,9,faces,outdoor_scenes,Stimuli/Experimental_stims/faces/jessica-radanavong-mrYkTuAesKE-unsplash.jpg,Stimuli/Experimental_stims/outdoor_scenes/sergey-pesterev-y-b_FOmJXdg-unsplash.jpg,0,1,1342,1,unchosen,3500,1,9,2,50,50,19,outdoor_scenes,faces
257,1,0,258,4,4,0,no_gain2,gain6,C,K,34,26,body_parts,body_parts,Stimuli/Experimental_stims/body_parts/sincerely-media-VN6DbKajo5s-unsplash.jpg,Stimuli/Experimental_stims/body_parts/engin-akyurt-x_3gyC42btc-unsplash.jpg,0,1,340,0,unchosen,1000,0,9,2,50,50,34,body_parts,body_parts
258,1,0,259,4,4,0,no_gain2,gain3,C,J,34,36,body_parts,objects,Stimuli/Experimental_stims/body_parts/sincerely-media-VN6DbKajo5s-unsplash.jpg,Stimuli/Experimental_stims/objects/alexander-andrews-JYGnB9gTCls-unsplash.jpg,0,1,478,0,unchosen,1700,0,9,2,50,50,34,objects,body_parts
259,1,0,260,4,4,1,gain2,no_gain5,I,H,27,15,body_parts,faces,Stimuli/Experimental_stims/body_parts/jonathan-borba-hTwH8QFkPMs-unsplash.jpg,Stimuli/Experimental_stims/faces/daniel-rigdon-dXmXKPP2L4E-unsplash.jpg,0,1,486,1,chosen,1500,0,9,2,50,50,27,faces,body_parts
260,1,0,261,4,4,1,gain3,no_gain5,J,H,17,15,faces,faces,Stimuli/Experimental_stims/faces/freddy-kearney-o-ioeoATbIM-unsplash.jpg,Stimuli/Experimental_stims/faces/daniel-rigdon-dXmXKPP2L4E-unsplash.jpg,0,1,354,1,chosen,1400,0,9,2,50,50,17,faces,faces
261,1,0,262,4,4,1,gain5,no_gain3,E,D,40,37,objects,objects,Stimuli/Experimental_stims/objects/fabian-blank-pElSkGRA2NU-unsplash.jpg,Stimuli/Experimental_stims/objects/alexander-andrews-VLGWE_SumrA-unsplash.jpg,0,1,307,1,chosen,1300,0,9,2,50,50,40,objects,objects
262,1,0,263,4,4,1,gain5,no_gain5,E,H,24,6,body_parts,outdoor_scenes,Stimuli/Experimental_stims/body_parts/callum-skelton-3KLMq7y46nA-unsplash.jpg,Stimuli/Experimental_stims/outdoor_scenes/meng-ji-8BH_M-53CyA-unsplash.jpg,0,1,26,1,unchosen,4500,1,9,2,50,50,24,outdoor_scenes,body_parts
263,1,0,264,4,4,0,no_gain5,gain6,H,K,6,26,outdoor_scenes,body_parts,Stimuli/Experimental_stims/outdoor_scenes/meng-ji-8BH_M-53CyA-unsplash.jpg,Stimuli/Experimental_stims/body_parts/engin-akyurt-x_3gyC42btc-unsplash.jpg,0,1,347,0,unchosen,1900,0,9,2,50,50,6,body_parts,outdoor_scenes
264,1,0,265,4,4,0,no_gain6,gain1,G,F,9,30,outdoor_scenes,body_parts,Stimuli/Experimental_stims/outdoor_scenes/sergey-pesterev-y-b_FOmJXdg-unsplash.jpg,Stimuli/Experimental_stims/body_parts/lucrezia-carnelos-kn6QrWtnAtY-unsplash.jpg,0,1,400,0,unchosen,1900,0,9,2,50,50,9,body_parts,outdoor_scenes
265,1,0,266,4,4,1,gain5,no_gain5,E,H,40,15,objects,faces,Stimuli/Experimental_stims/objects/fabian-blank-pElSkGRA2NU-unsplash.jpg,Stimuli/Experimental_stims/faces/daniel-rigdon-dXmXKPP2L4E-unsplash.jpg,0,1,432,1,chosen,1600,0,9,2,50,50,40,faces,objects
266,1,0,267,4,4,0,no_gain2,gain4,C,B,0,7,outdoor_scenes,outdoor_scenes,Stimuli/Experimental_stims/outdoor_scenes/aleksandra-boguslawska-MS7KD9Ti7FQ-unsplash.jpg,Stimuli/Experimental_stims/outdoor_scenes/petr-vysohlid-9fqwGqGLUxc-unsplash.jpg,0,1,473,0,chosen,2300,0,9,2,50,50,0,outdoor_scenes,outdoor_scenes
267,1,0,268,4,4,1,gain6,no_gain2,K,C,43,0,objects,outdoor_scenes,Stimuli/Experimental_stims/objects/jiangxulei1990-eIzzzwtkBjU-unsplash.jpg,Stimuli/Experimental_stims/outdoor_scenes/aleksandra-boguslawska-MS7KD9Ti7FQ-unsplash.jpg,0,1,516,1,chosen,3700,1,9,2,50,50,43,outdoor_scenes,objects
268,1,0,269,4,4,0,no_gain3,gain3,D,J,18,36,faces,objects,Stimuli/Experimental_stims/faces/good-faces-xmSWVeGEnJw-unsplash.jpg,Stimuli/Experimental_stims/objects/alexander-andrews-JYGnB9gTCls-unsplash.jpg,0,1,554,0,unchosen,1200,0,9,2,50,50,18,objects,faces
269,1,0,270,4,4,1,gain4,no_gain3,B,D,19,18,faces,faces,Stimuli/Experimental_stims/faces/jessica-radanavong-mrYkTuAesKE-unsplash.jpg,Stimuli/Experimental_stims/faces/good-faces-xmSWVeGEnJw-unsplash.jpg,0,1,585,1,unchosen,1900,0,9,2,50,50,19,faces,faces
270,1,0,271,4,4,0,no_gain3,gain1,D,F,18,30,faces,body_parts,Stimuli/Experimental_stims/faces/good-faces-xmSWVeGEnJw-unsplash.jpg,Stimuli/Experimental_stims/body_parts/lucrezia-carnelos-kn6QrWtnAtY-unsplash.jpg,0,1,493,0,unchosen,2000,0,9,2,50,50,18,body_parts,faces
271,1,0,272,4,4,1,gain1,no_gain3,F,D,13,37,faces,objects,Stimuli/Experimental_stims/faces/aiony-haust-jmATI5Q_YgY-unsplash.jpg,Stimuli/Experimental_stims/objects/alexander-andrews-VLGWE_SumrA-unsplash.jpg,0,1,506,1,chosen,2700,0,9,2,50,50,13,objects,faces
272,1,0,273,4,4,1,gain6,no_gain5,K,H,43,15,objects,faces,Stimuli/Experimental_stims/objects/jiangxulei1990-eIzzzwtkBjU-unsplash.jpg,Stimuli/Experimental_stims/faces/daniel-rigdon-dXmXKPP2L4E-unsplash.jpg,0,1,568,1,chosen,1100,0,9,2,50,50,43,faces,objects
273,1,0,274,4,4,0,no_gain2,gain1,C,F,0,13,outdoor_scenes,faces,Stimuli/Experimental_stims/outdoor_scenes/aleksandra-boguslawska-MS7KD9Ti7FQ-unsplash.jpg,Stimuli/Experimental_stims/faces/aiony-haust-jmATI5Q_YgY-unsplash.jpg,0,1,529,0,chosen,4200,1,9,2,50,50,0,faces,outdoor_scenes
274,1,0,275,4,4,1,gain3,no_gain6,J,G,36,9,objects,outdoor_scenes,Stimuli/Experimental_stims/objects/alexander-andrews-JYGnB9gTCls-unsplash.jpg,Stimuli/Experimental_stims/outdoor_scenes/sergey-pesterev-y-b_FOmJXdg-unsplash.jpg,0,1,597,1,unchosen,1300,0,9,2,50,50,36,outdoor_scenes,objects
275,1,0,276,4,4,1,gain1,no_gain5,F,H,13,15,faces,faces,Stimuli/Experimental_stims/faces/aiony-haust-jmATI5Q_YgY-unsplash.jpg,Stimuli/Experimental_stims/faces/daniel-rigdon-dXmXKPP2L4E-unsplash.jpg,0,1,443,1,chosen,2000,0,9,2,50,50,13,faces,faces
276,1,0,277,4,4,0,no_gain3,gain2,D,I,37,27,objects,body_parts,Stimuli/Experimental_stims/objects/alexander-andrews-VLGWE_SumrA-unsplash.jpg,Stimuli/Experimental_stims/body_parts/jonathan-borba-hTwH8QFkPMs-unsplash.jpg,0,1,437,0,chosen,1100,0,9,2,50,50,37,body_parts,objects
277,1,0,278,4,4,1,gain5,no_gain1,E,L,24,16,body_parts,faces,Stimuli/Experimental_stims/body_parts/callum-skelton-3KLMq7y46nA-unsplash.jpg,Stimuli/Experimental_stims/faces/erik-lucatero-d2MSDujJl2g-unsplash.jpg,0,1,449,1,unchosen,2300,0,9,2,50,50,24,faces,body_parts
278,1,0,279,4,4,1,gain2,no_gain2,I,C,27,0,body_parts,outdoor_scenes,Stimuli/Experimental_stims/body_parts/jonathan-borba-hTwH8QFkPMs-unsplash.jpg,Stimuli/Experimental_stims/outdoor_scenes/aleksandra-boguslawska-MS7KD9Ti7FQ-unsplash.jpg,0,1,444,1,chosen,2900,0,9,2,50,50,27,outdoor_scenes,body_parts
279,1,0,280,4,4,0,no_gain2,gain5,C,E,0,40,outdoor_scenes,objects,Stimuli/Experimental_stims/outdoor_scenes/aleksandra-boguslawska-MS7KD9Ti7FQ-unsplash.jpg,Stimuli/Experimental_stims/objects/fabian-blank-pElSkGRA2NU-unsplash.jpg,0,1,399,0,chosen,1200,0,9,2,50,50,0,objects,outdoor_scenes
280,1,0,281,4,4,1,gain5,no_gain6,E,G,40,42,objects,objects,Stimuli/Experimental_stims/objects/fabian-blank-pElSkGRA2NU-unsplash.jpg,Stimuli/Experimental_stims/objects/jess-bailey-nOeVi8DsN8U-unsplash.jpg,0,1,508,1,chosen,1500,0,9,2,50,50,40,objects,objects
281,1,0,282,4,4,1,gain6,no_gain3,K,D,26,18,body_parts,faces,Stimuli/Experimental_stims/body_parts/engin-akyurt-x_3gyC42btc-unsplash.jpg,Stimuli/Experimental_stims/faces/good-faces-xmSWVeGEnJw-unsplash.jpg,0,1,416,1,unchosen,1100,0,9,2,50,50,26,faces,body_parts
282,1,0,283,4,4,0,no_gain6,gain4,G,B,42,7,objects,outdoor_scenes,Stimuli/Experimental_stims/objects/jess-bailey-nOeVi8DsN8U-unsplash.jpg,Stimuli/Experimental_stims/outdoor_scenes/petr-vysohlid-9fqwGqGLUxc-unsplash.jpg,0,1,500,0,chosen,1200,0,9,2,50,50,42,outdoor_scenes,objects
283,1,0,284,4,4,0,no_gain4,gain2,A,I,3,27,outdoor_scenes,body_parts,Stimuli/Experimental_stims/outdoor_scenes/henry-be-NLF6hTe4PAg-unsplash.jpg,Stimuli/Experimental_stims/body_parts/jonathan-borba-hTwH8QFkPMs-unsplash.jpg,0,1,385,0,chosen,1400,0,9,2,50,50,3,body_parts,outdoor_scenes
284,1,0,285,4,4,1,gain2,no_gain4,I,A,5,44,outdoor_scenes,objects,Stimuli/Experimental_stims/outdoor_scenes/jeff-king-bJHWJeiHfHc-unsplash.jpg,Stimuli/Experimental_stims/objects/jonathan-greenaway-Y4hGgeiFn3s-unsplash.jpg,0,1,402,1,unchosen,1100,0,9,2,50,50,5,objects,outdoor_scenes
285,1,0,286,4,4,1,gain3,no_gain6,J,G,17,42,faces,objects,Stimuli/Experimental_stims/faces/freddy-kearney-o-ioeoATbIM-unsplash.jpg,Stimuli/Experimental_stims/objects/jess-bailey-nOeVi8DsN8U-unsplash.jpg,0,1,435,1,chosen,2100,0,9,2,50,50,17,objects,faces
286,1,0,287,4,4,0,no_gain1,gain1,L,F,16,30,faces,body_parts,Stimuli/Experimental_stims/faces/erik-lucatero-d2MSDujJl2g-unsplash.jpg,Stimuli/Experimental_stims/body_parts/lucrezia-carnelos-kn6QrWtnAtY-unsplash.jpg,0,1,410,0,unchosen,3300,1,9,2,50,50,16,body_parts,faces
287,1,0,288,4,4,0,no_gain1,gain6,L,K,16,26,faces,body_parts,Stimuli/Experimental_stims/faces/erik-lucatero-d2MSDujJl2g-unsplash.jpg,Stimuli/Experimental_stims/body_parts/engin-akyurt-x_3gyC42btc-unsplash.jpg,0,1,527,0,unchosen,1900,0,9,2,50,50,16,body_parts,faces
288,1,0,289,4,4,0,no_gain1,gain5,L,E,29,40,body_parts,objects,Stimuli/Experimental_stims/body_parts/lucaxx-freire-CacZwMexYdk-unsplash.jpg,Stimuli/Experimental_stims/objects/fabian-blank-pElSkGRA2NU-unsplash.jpg,0,1,440,0,chosen,2000,0,9,2,50,50,29,objects,body_parts
289,1,0,290,4,4,0,no_gain4,gain6,A,K,3,43,outdoor_scenes,objects,Stimuli/Experimental_stims/outdoor_scenes/henry-be-NLF6hTe4PAg-unsplash.jpg,Stimuli/Experimental_stims/objects/jiangxulei1990-eIzzzwtkBjU-unsplash.jpg,0,1,457,0,chosen,1100,0,9,2,50,50,3,objects,outdoor_scenes
290,1,0,291,4,4,1,gain3,no_gain5,J,H,36,6,objects,outdoor_scenes,Stimuli/Experimental_stims/objects/alexander-andrews-JYGnB9gTCls-unsplash.jpg,Stimuli/Experimental_stims/outdoor_scenes/meng-ji-8BH_M-53CyA-unsplash.jpg,0,1,388,1,unchosen,1800,0,9,2,50,50,36,outdoor_scenes,objects
291,1,0,292,4,4,0,no_gain1,gain1,L,F,29,13,body_parts,faces,Stimuli/Experimental_stims/body_parts/lucaxx-freire-CacZwMexYdk-unsplash.jpg,Stimuli/Experimental_stims/faces/aiony-haust-jmATI5Q_YgY-unsplash.jpg,0,1,308,0,chosen,3200,1,9,2,50,50,29,faces,body_parts