,PID,practice,trial,block,run,gain_left,left_item_id,right_item_id,left_pair_id,right_pair_id,left_stimulus,right_stimulus,left_category,right_category,left_path,right_path,no_response,left_chosen,rt,higher_outcome_chosen,choice_type,iti,long_iti,simulation,version
0,82292,1,1,0,0,0,,,,,,,,,Stimuli/Practice_stims/Final_decisions/debby-hudson-FmCSSSGge-0-unsplash.jpg,Stimuli/Practice_stims/Final_decisions/yassine-khalfalli-adsQ9d_Cx0c-unsplash.jpg,0,NaN,NaN,NaN,,3000,0,6,1
1,82292,1,2,0,0,0,,,,,,,,,Stimuli/Practice_stims/Final_decisions/florian-wehde-iVW7mZPwd4g-unsplash.jpg,Stimuli/Practice_stims/Final_decisions/patrick-perkins-3wylDrjxH-E-unsplash.jpg,0,NaN,NaN,NaN,,1500,0,6,1
2,82292,1,3,0,0,0,,,,,,,,,Stimuli/Practice_stims/Final_decisions/debby-hudson-FmCSSSGge-0-unsplash.jpg,Stimuli/Practice_stims/Final_decisions/florian-wehde-iVW7mZPwd4g-unsplash.jpg,0,NaN,NaN,NaN,,2000,0,6,1
3,82292,1,4,0,0,0,,,,,,,,,Stimuli/Practice_stims/Final_decisions/yassine-khalfalli-adsQ9d_Cx0c-unsplash.jpg,Stimuli/Practice_stims/Final_decisions/debby-hudson-FmCSSSGge-0-unsplash.jpg,0,NaN,NaN,NaN,,1000,0,6,1
4,82292,0,5,1,1,0,no_gain4,gain5,J,G,13,38,faces,objects,Stimuli/Experimental_stims/faces/daniel-rigdon-dXmXKPP2L4E-unsplash.jpg,Stimuli/Experimental_stims/objects/art-lasovsky-8XddFc6NkBY-unsplash.jpg,0,NaN,NaN,NaN,chosen,1800,0,6,1,50,50
5,82292,0,6,1,1,1,gain3,no_gain6,H,K,18,30,faces,body_parts,Stimuli/Experimental_stims/faces/jessica-radanavong-mrYkTuAesKE-unsplash.jpg,Stimuli/Experimental_stims/body_parts/mika-korhonen-Xodzxosar18-unsplash.jpg,0,NaN,NaN,NaN,chosen,1700,0,6,1,50,50
6,82292,0,7,1,1,1,gain6,no_gain3,I,A,0,41,outdoor_scenes,objects,Stimuli/Experimental_stims/outdoor_scenes/aleksandra-boguslawska-MS7KD9Ti7FQ-unsplash.jpg,Stimuli/Experimental_stims/objects/insung-yoon-w2JtIQQXoRU-unsplash.jpg,0,NaN,NaN,NaN,unchosen,2300,0,6,1,50,50
7,82292,0,8,1,1,0,no_gain2,gain3,C,H,6,18,outdoor_scenes,faces,Stimuli/Experimental_stims/outdoor_scenes/meng-ji-8BH_M-53CyA-unsplash.jpg,Stimuli/Experimental_stims/faces/jessica-radanavong-mrYkTuAesKE-unsplash.jpg,0,NaN,NaN,NaN,chosen,1700,0,6,1,50,50
8,82292,0,9,1,1,1,gain4,no_gain5,D,E,14,31,faces,body_parts,Stimuli/Experimental_stims/faces/david-siglin-UuW4psOb388-unsplash.jpg,Stimuli/Experimental_stims/body_parts/sincerely-media-VN6DbKajo5s-unsplash.jpg,0,NaN,NaN,NaN,unchosen,3900,1,6,1,50,50
9,82292,0,10,1,1,1,gain2,no_gain5,B,E,16,31,faces,body_parts,Stimuli/Experimental_stims/faces/freddy-kearney-o-ioeoATbIM-unsplash.jpg,Stimuli/Experimental_stims/body_parts/sincerely-media-VN6DbKajo5s-unsplash.jpg,0,NaN,NaN,NaN,unchosen,1200,0,6,1,50,50
10,82292,0,11,1,1,1,gain2,no_gain5,B,E,5,45,outdoor_scenes,objects,Stimuli/Experimental_stims/outdoor_scenes/jeff-king-bJHWJeiHfHc-unsplash.jpg,Stimuli/Experimental_stims/objects/leohoho-rngTKHXumy0-unsplash.jpg,0,NaN,NaN,NaN,chosen,1200,0,6,1,50,50
11,82292,0,12,1,1,0,no_gain5,gain5,E,G,45,38,objects,objects,Stimuli/Experimental_stims/objects/leohoho-rngTKHXumy0-unsplash.jpg,Stimuli/Experimental_stims/objects/art-lasovsky-8XddFc6NkBY-unsplash.jpg,0,NaN,NaN,NaN,chosen,2600,0,6,1,50,50
12,82292,0,13,1,1,0,no_gain1,gain4,F,D,28,14,body_parts,faces,Stimuli/Experimental_stims/body_parts/ira-vishnevskaya-8DQAvdCby1I-unsplash.jpg,Stimuli/Experimental_stims/faces/david-siglin-UuW4psOb388-unsplash.jpg,0,NaN,NaN,NaN,unchosen,2200,0,6,1,50,50
13,82292,0,14,1,1,1,gain4,no_gain6,D,K,37,30,objects,body_parts,Stimuli/Experimental_stims/objects/alexander-andrews-VLGWE_SumrA-unsplash.jpg,Stimuli/Experimental_stims/body_parts/mika-korhonen-Xodzxosar18-unsplash.jpg,0,NaN,NaN,NaN,chosen,1700,0,6,1,50,50
14,82292,0,15,1,1,1,gain4,no_gain4,D,J,37,13,objects,faces,Stimuli/Experimental_stims/objects/alexander-andrews-VLGWE_SumrA-unsplash.jpg,Stimuli/Experimental_stims/faces/daniel-rigdon-dXmXKPP2L4E-unsplash.jpg,0,NaN,NaN,NaN,chosen,3100,1,6,1,50,50
15,82292,0,16,1,1,1,gain2,no_gain1,B,F,16,28,faces,body_parts,Stimuli/Experimental_stims/faces/freddy-kearney-o-ioeoATbIM-unsplash.jpg,Stimuli/Experimental_stims/body_parts/ira-vishnevskaya-8DQAvdCby1I-unsplash.jpg,0,NaN,NaN,NaN,unchosen,2100,0,6,1,50,50
16,82292,0,17,1,1,0,no_gain2,gain5,C,G,6,38,outdoor_scenes,objects,Stimuli/Experimental_stims/outdoor_scenes/meng-ji-8BH_M-53CyA-unsplash.jpg,Stimuli/Experimental_stims/objects/art-lasovsky-8XddFc6NkBY-unsplash.jpg,0,NaN,NaN,NaN,chosen,1900,0,6,1,50,50
17,82292,0,18,1,1,0,no_gain1,gain5,F,G,17,38,faces,objects,Stimuli/Experimental_stims/faces/good-faces-xmSWVeGEnJw-unsplash.jpg,Stimuli/Experimental_stims/objects/art-lasovsky-8XddFc6NkBY-unsplash.jpg,0,NaN,NaN,NaN,chosen,1400,0,6,1,50,50
18,82292,0,19,1,1,1,gain3,no_gain5,H,E,18,45,faces,objects,Stimuli/Experimental_stims/faces/jessica-radanavong-mrYkTuAesKE-unsplash.jpg,Stimuli/Experimental_stims/objects/leohoho-rngTKHXumy0-unsplash.jpg,0,NaN,NaN,NaN,chosen,1500,0,6,1,50,50
19,82292,0,20,1,1,0,no_gain4,gain2,J,B,39,16,objects,faces,Stimuli/Experimental_stims/objects/charlesdeluvio-1-nx1QR5dTE-unsplash.jpg,Stimuli/Experimental_stims/faces/freddy-kearney-o-ioeoATbIM-unsplash.jpg,0,NaN,NaN,NaN,unchosen,1600,0,6,1,50,50
20,82292,0,21,1,1,0,no_gain1,gain3,F,H,17,18,faces,faces,Stimuli/Experimental_stims/faces/good-faces-xmSWVeGEnJw-unsplash.jpg,Stimuli/Experimental_stims/faces/jessica-radanavong-mrYkTuAesKE-unsplash.jpg,0,NaN,NaN,NaN,chosen,3200,1,6,1,50,50
21,82292,0,22,1,1,1,gain5,no_gain5,G,E,2,31,outdoor_scenes,body_parts,Stimuli/Experimental_stims/outdoor_scenes/bruno-van-der-kraan-qez8mNJ3ilU-unsplash.jpg,Stimuli/Experimental_stims/body_parts/sincerely-media-VN6DbKajo5s-unsplash.jpg,0,NaN,NaN,NaN,unchosen,1900,0,6,1,50,50
22,82292,0,23,1,1,0,no_gain6,gain6,K,I,46,0,objects,outdoor_scenes,Stimuli/Experimental_stims/objects/mockup-graphics-PNsj6RiHAF4-unsplash.jpg,Stimuli/Experimental_stims/outdoor_scenes/aleksandra-boguslawska-MS7KD9Ti7FQ-unsplash.jpg,0,NaN,NaN,NaN,unchosen,1600,0,6,1,50,50
23,82292,0,24,1,1,0,no_gain6,gain2,K,B,30,5,body_parts,outdoor_scenes,Stimuli/Experimental_stims/body_parts/mika-korhonen-Xodzxosar18-unsplash.jpg,Stimuli/Experimental_stims/outdoor_scenes/jeff-king-bJHWJeiHfHc-unsplash.jpg,0,NaN,NaN,NaN,chosen,1100,0,6,1,50,50
24,82292,0,25,1,1,1,gain4,no_gain2,D,C,14,34,faces,body_parts,Stimuli/Experimental_stims/faces/david-siglin-UuW4psOb388-unsplash.jpg,Stimuli/Experimental_stims/body_parts/wagner-santos-mBWMvIuVnso-unsplash.jpg,0,NaN,NaN,NaN,unchosen,2200,0,6,1,50,50
25,82292,0,26,1,1,1,gain2,no_gain3,B,A,16,41,faces,objects,Stimuli/Experimental_stims/faces/freddy-kearney-o-ioeoATbIM-unsplash.jpg,Stimuli/Experimental_stims/objects/insung-yoon-w2JtIQQXoRU-unsplash.jpg,0,NaN,NaN,NaN,unchosen,3300,1,6,1,50,50
26,82292,0,27,1,1,0,no_gain2,gain4,C,D,6,37,outdoor_scenes,objects,Stimuli/Experimental_stims/outdoor_scenes/meng-ji-8BH_M-53CyA-unsplash.jpg,Stimuli/Experimental_stims/objects/alexander-andrews-VLGWE_SumrA-unsplash.jpg,0,NaN,NaN,NaN,chosen,2100,0,6,1,50,50
27,82292,0,28,1,1,0,no_gain2,gain2,C,B,34,16,body_parts,faces,Stimuli/Experimental_stims/body_parts/wagner-santos-mBWMvIuVnso-unsplash.jpg,Stimuli/Experimental_stims/faces/freddy-kearney-o-ioeoATbIM-unsplash.jpg,0,NaN,NaN,NaN,unchosen,1000,0,6,1,50,50
28,82292,0,29,1,1,0,no_gain4,gain3,J,H,39,7,objects,outdoor_scenes,Stimuli/Experimental_stims/objects/charlesdeluvio-1-nx1QR5dTE-unsplash.jpg,Stimuli/Experimental_stims/outdoor_scenes/petr-vysohlid-9fqwGqGLUxc-unsplash.jpg,0,NaN,NaN,NaN,unchosen,2600,0,6,1,50,50
29,82292,0,30,1,1,0,no_gain3,gain2,A,B,1,5,outdoor_scenes,outdoor_scenes,Stimuli/Experimental_stims/outdoor_scenes/ashim-d-silva-S2Q5mdOrrVc-unsplash.jpg,Stimuli/Experimental_stims/outdoor_scenes/jeff-king-bJHWJeiHfHc-unsplash.jpg,0,NaN,NaN,NaN,chosen,1500,0,6,1,50,50
30,82292,0,31,1,1,1,gain5,no_gain4,G,J,2,39,outdoor_scenes,objects,Stimuli/Experimental_stims/outdoor_scenes/bruno-van-der-kraan-qez8mNJ3ilU-unsplash.jpg,Stimuli/Experimental_stims/objects/charlesdeluvio-1-nx1QR5dTE-unsplash.jpg,0,NaN,NaN,NaN,unchosen,1200,0,6,1,50,50
31,82292,0,32,1,1,0,no_gain3,gain5,A,G,41,2,objects,outdoor_scenes,Stimuli/Experimental_stims/objects/insung-yoon-w2JtIQQXoRU-unsplash.jpg,Stimuli/Experimental_stims/outdoor_scenes/bruno-van-der-kraan-qez8mNJ3ilU-unsplash.jpg,0,NaN,NaN,NaN,unchosen,2100,0,6,1,50,50
32,82292,0,33,1,1,0,no_gain5,gain4,E,D,45,37,objects,objects,Stimuli/Experimental_stims/objects/leohoho-rngTKHXumy0-unsplash.jpg,Stimuli/Experimental_stims/objects/alexander-andrews-VLGWE_SumrA-unsplash.jpg,0,NaN,NaN,NaN,chosen,4300,1,6,1,50,50
33,82292,0,34,1,1,0,no_gain1,gain5,F,G,28,2,body_parts,outdoor_scenes,Stimuli/Experimental_stims/body_parts/ira-vishnevskaya-8DQAvdCby1I-unsplash.jpg,Stimuli/Experimental_stims/outdoor_scenes/bruno-van-der-kraan-qez8mNJ3ilU-unsplash.jpg,0,NaN,NaN,NaN,unchosen,1000,0,6,1,50,50
34,82292,0,35,1,1,1,gain1,no_gain3,L,A,27,1,body_parts,outdoor_scenes,Stimuli/Experimental_stims/body_parts/heike-mintel-i_Gns0ELnLw-unsplash.jpg,Stimuli/Experimental_stims/outdoor_scenes/ashim-d-silva-S2Q5mdOrrVc-unsplash.jpg,0,NaN,NaN,NaN,chosen,2300,0,6,1,50,50
35,82292,0,36,1,1,0,no_gain6,gain5,K,G,46,2,objects,outdoor_scenes,Stimuli/Experimental_stims/objects/mockup-graphics-PNsj6RiHAF4-unsplash.jpg,Stimuli/Experimental_stims/outdoor_scenes/bruno-van-der-kraan-qez8mNJ3ilU-unsplash.jpg,0,NaN,NaN,NaN,unchosen,1200,0,6,1,50,50
36,82292,0,37,1,1,1,gain6,no_gain1,I,F,24,17,body_parts,faces,Stimuli/Experimental_stims/body_parts/clay-banks-LjqARJaJotc-unsplash.jpg,Stimuli/Experimental_stims/faces/good-faces-xmSWVeGEnJw-unsplash.jpg,0,NaN,NaN,NaN,chosen,1300,0,6,1,50,50
37,82292,0,38,1,1,1,gain4,no_gain3,D,A,37,1,objects,outdoor_scenes,Stimuli/Experimental_stims/objects/alexander-andrews-VLGWE_SumrA-unsplash.jpg,Stimuli/Experimental_stims/outdoor_scenes/ashim-d-silva-S2Q5mdOrrVc-unsplash.jpg,0,NaN,NaN,NaN,chosen,1700,0,6,1,50,50
38,82292,0,39,1,1,1,gain1,no_gain5,L,E,27,45,body_parts,objects,Stimuli/Experimental_stims/body_parts/heike-mintel-i_Gns0ELnLw-unsplash.jpg,Stimuli/Experimental_stims/objects/leohoho-rngTKHXumy0-unsplash.jpg,0,NaN,NaN,NaN,chosen,1300,0,6,1,50,50
39,82292,0,40,1,1,0,no_gain6,gain3,K,H,46,7,objects,outdoor_scenes,Stimuli/Experimental_stims/objects/mockup-graphics-PNsj6RiHAF4-unsplash.jpg,Stimuli/Experimental_stims/outdoor_scenes/petr-vysohlid-9fqwGqGLUxc-unsplash.jpg,0,NaN,NaN,NaN,unchosen,1200,0,6,1,50,50
40,82292,0,41,1,1,0,no_gain2,gain1,C,L,6,27,outdoor_scenes,body_parts,Stimuli/Experimental_stims/outdoor_scenes/meng-ji-8BH_M-53CyA-unsplash.jpg,Stimuli/Experimental_stims/body_parts/heike-mintel-i_Gns0ELnLw-unsplash.jpg,0,NaN,NaN,NaN,chosen,1900,0,6,1,50,50
41,82292,0,42,1,1,1,gain4,no_gain3,D,A,14,41,faces,objects,Stimuli/Experimental_stims/faces/david-siglin-UuW4psOb388-unsplash.jpg,Stimuli/Experimental_stims/objects/insung-yoon-w2JtIQQXoRU-unsplash.jpg,0,NaN,NaN,NaN,unchosen,1200,0,6,1,50,50
42,82292,0,43,1,1,1,gain6,no_gain6,I,K,24,30,body_parts,body_parts,Stimuli/Experimental_stims/body_parts/clay-banks-LjqARJaJotc-unsplash.jpg,Stimuli/Experimental_stims/body_parts/mika-korhonen-Xodzxosar18-unsplash.jpg,0,NaN,NaN,NaN,chosen,4000,1,6,1,50,50
43,82292,0,44,1,1,0,no_gain3,gain3,A,H,1,18,outdoor_scenes,faces,Stimuli/Experimental_stims/outdoor_scenes/ashim-d-silva-S2Q5mdOrrVc-unsplash.jpg,Stimuli/Experimental_stims/faces/jessica-radanavong-mrYkTuAesKE-unsplash.jpg,0,NaN,NaN,NaN,chosen,2300,0,6,1,50,50
44,82292,0,45,1,1,1,gain2,no_gain6,B,K,16,46,faces,objects,Stimuli/Experimental_stims/faces/freddy-kearney-o-ioeoATbIM-unsplash.jpg,Stimuli/Experimental_stims/objects/mockup-graphics-PNsj6RiHAF4-unsplash.jpg,0,NaN,NaN,NaN,unchosen,1500,0,6,1,50,50
45,82292,0,46,1,1,0,no_gain1,gain1,F,L,17,27,faces,body_parts,Stimuli/Experimental_stims/faces/good-faces-xmSWVeGEnJw-unsplash.jpg,Stimuli/Experimental_stims/body_parts/heike-mintel-i_Gns0ELnLw-unsplash.jpg,0,NaN,NaN,NaN,chosen,1100,0,6,1,50,50
46,82292,0,47,1,1,0,no_gain5,gain6,E,I,31,0,body_parts,outdoor_scenes,Stimuli/Experimental_stims/body_parts/sincerely-media-VN6DbKajo5s-unsplash.jpg,Stimuli/Experimental_stims/outdoor_scenes/aleksandra-boguslawska-MS7KD9Ti7FQ-unsplash.jpg,0,NaN,NaN,NaN,unchosen,1100,0,6,1,50,50
47,82292,0,48,1,1,0,no_gain5,gain6,E,I,45,24,objects,body_parts,Stimuli/Experimental_stims/objects/leohoho-rngTKHXumy0-unsplash.jpg,Stimuli/Experimental_stims/body_parts/clay-banks-LjqARJaJotc-unsplash.jpg,0,NaN,NaN,NaN,chosen,3200,1,6,1,50,50
48,82292,0,49,1,1,0,no_gain2,gain6,C,I,34,0,body_parts,outdoor_scenes,Stimuli/Experimental_stims/body_parts/wagner-santos-mBWMvIuVnso-unsplash.jpg,Stimuli/Experimental_stims/outdoor_scenes/aleksandra-boguslawska-MS7KD9Ti7FQ-unsplash.jpg,0,NaN,NaN,NaN,unchosen,1900,0,6,1,50,50
49,82292,0,50,1,1,1,gain4,no_gain4,D,J,14,39,faces,objects,Stimuli/Experimental_stims/faces/david-siglin-UuW4psOb388-unsplash.jpg,Stimuli/Experimental_stims/objects/charlesdeluvio-1-nx1QR5dTE-unsplash.jpg,0,NaN,NaN,NaN,unchosen,2300,0,6,1,50,50
50,82292,0,51,1,1,1,gain6,no_gain4,I,J,0,39,outdoor_scenes,objects,Stimuli/Experimental_stims/outdoor_scenes/aleksandra-boguslawska-MS7KD9Ti7FQ-unsplash.jpg,Stimuli/Experimental_stims/objects/charlesdeluvio-1-nx1QR5dTE-unsplash.jpg,0,NaN,NaN,NaN,unchosen,1200,0,6,1,50,50
51,82292,0,52,1,1,0,no_gain6,gain1,K,L,30,27,body_parts,body_parts,Stimuli/Experimental_stims/body_parts/mika-korhonen-Xodzxosar18-unsplash.jpg,Stimuli/Experimental_stims/body_parts/heike-mintel-i_Gns0ELnLw-unsplash.jpg,0,NaN,NaN,NaN,chosen,2400,0,6,1,50,50
52,82292,0,53,1,1,1,gain2,no_gain1,B,F,5,17,outdoor_scenes,faces,Stimuli/Experimental_stims/outdoor_scenes/jeff-king-bJHWJeiHfHc-unsplash.jpg,Stimuli/Experimental_stims/faces/good-faces-xmSWVeGEnJw-unsplash.jpg,0,NaN,NaN,NaN,chosen,1600,0,6,1,50,50
53,82292,0,54,1,1,1,gain5,no_gain6,G,K,38,30,objects,body_parts,Stimuli/Experimental_stims/objects/art-lasovsky-8XddFc6NkBY-unsplash.jpg,Stimuli/Experimental_stims/body_parts/mika-korhonen-Xodzxosar18-unsplash.jpg,0,NaN,NaN,NaN,chosen,3100,1,6,1,50,50
54,82292,0,55,1,1,0,no_gain5,gain1,E,L,31,19,body_parts,faces,Stimuli/Experimental_stims/body_parts/sincerely-media-VN6DbKajo5s-unsplash.jpg,Stimuli/Experimental_stims/faces/joel-mott-LaK153ghdig-unsplash.jpg,0,NaN,NaN,NaN,unchosen,2300,0,6,1,50,50
55,82292,0,56,1,1,1,gain2,no_gain2,B,C,5,6,outdoor_scenes,outdoor_scenes,Stimuli/Experimental_stims/outdoor_scenes/jeff-king-bJHWJeiHfHc-unsplash.jpg,Stimuli/Experimental_stims/outdoor_scenes/meng-ji-8BH_M-53CyA-unsplash.jpg,0,NaN,NaN,NaN,chosen,2600,0,6,1,50,50
56,82292,0,57,1,1,1,gain3,no_gain2,H,C,7,34,outdoor_scenes,body_parts,Stimuli/Experimental_stims/outdoor_scenes/petr-vysohlid-9fqwGqGLUxc-unsplash.jpg,Stimuli/Experimental_stims/body_parts/wagner-santos-mBWMvIuVnso-unsplash.jpg,0,NaN,NaN,NaN,unchosen,1700,0,6,1,50,50
57,82292,0,58,1,1,0,no_gain1,gain3,F,H,28,7,body_parts,outdoor_scenes,Stimuli/Experimental_stims/body_parts/ira-vishnevskaya-8DQAvdCby1I-unsplash.jpg,Stimuli/Experimental_stims/outdoor_scenes/petr-vysohlid-9fqwGqGLUxc-unsplash.jpg,0,NaN,NaN,NaN,unchosen,1100,0,6,1,50,50
58,82292,0,59,1,1,1,gain6,no_gain4,I,J,24,13,body_parts,faces,Stimuli/Experimental_stims/body_parts/clay-banks-LjqARJaJotc-unsplash.jpg,Stimuli/Experimental_stims/faces/daniel-rigdon-dXmXKPP2L4E-unsplash.jpg,0,NaN,NaN,NaN,chosen,2600,0,6,1,50,50
59,82292,0,60,1,1,1,gain6,no_gain1,I,F,0,28,outdoor_scenes,body_parts,Stimuli/Experimental_stims/outdoor_scenes/aleksandra-boguslawska-MS7KD9Ti7FQ-unsplash.jpg,Stimuli/Experimental_stims/body_parts/ira-vishnevskaya-8DQAvdCby1I-unsplash.jpg,0,NaN,NaN,NaN,unchosen,1000,0,6,1,50,50
60,82292,0,61,1,1,1,gain1,no_gain3,L,A,19,41,faces,objects,Stimuli/Experimental_stims/faces/joel-mott-LaK153ghdig-unsplash.jpg,Stimuli/Experimental_stims/objects/insung-yoon-w2JtIQQXoRU-unsplash.jpg,0,NaN,NaN,NaN,unchosen,2400,0,6,1,50,50
61,82292,0,62,1,1,0,no_gain6,gain4,K,D,46,14,objects,faces,Stimuli/Experimental_stims/objects/mockup-graphics-PNsj6RiHAF4-unsplash.jpg,Stimuli/Experimental_stims/faces/david-siglin-UuW4psOb388-unsplash.jpg,0,NaN,NaN,NaN,unchosen,3500,1,6,1,50,50
62,82292,0,63,1,1,1,gain6,no_gain3,I,A,24,1,body_parts,outdoor_scenes,Stimuli/Experimental_stims/body_parts/clay-banks-LjqARJaJotc-unsplash.jpg,Stimuli/Experimental_stims/outdoor_scenes/ashim-d-silva-S2Q5mdOrrVc-unsplash.jpg,0,NaN,NaN,NaN,chosen,1700,0,6,1,50,50
63,82292,0,64,1,1,1,gain2,no_gain4,B,J,5,13,outdoor_scenes,faces,Stimuli/Experimental_stims/outdoor_scenes/jeff-king-bJHWJeiHfHc-unsplash.jpg,Stimuli/Experimental_stims/faces/daniel-rigdon-dXmXKPP2L4E-unsplash.jpg,0,NaN,NaN,NaN,chosen,1200,0,6,1,50,50
64,82292,0,65,1,1,0,no_gain6,gain1,K,L,46,19,objects,faces,Stimuli/Experimental_stims/objects/mockup-graphics-PNsj6RiHAF4-unsplash.jpg,Stimuli/Experimental_stims/faces/joel-mott-LaK153ghdig-unsplash.jpg,0,NaN,NaN,NaN,unchosen,1600,0,6,1,50,50
65,82292,0,66,1,1,0,no_gain4,gain1,J,L,39,19,objects,faces,Stimuli/Experimental_stims/objects/charlesdeluvio-1-nx1QR5dTE-unsplash.jpg,Stimuli/Experimental_stims/faces/joel-mott-LaK153ghdig-unsplash.jpg,0,NaN,NaN,NaN,unchosen,1200,0,6,1,50,50
66,82292,0,67,1,1,1,gain5,no_gain2,G,C,2,34,outdoor_scenes,body_parts,Stimuli/Experimental_stims/outdoor_scenes/bruno-van-der-kraan-qez8mNJ3ilU-unsplash.jpg,Stimuli/Experimental_stims/body_parts/wagner-santos-mBWMvIuVnso-unsplash.jpg,0,NaN,NaN,NaN,unchosen,3400,1,6,1,50,50
67,82292,0,68,1,1,0,no_gain1,gain4,F,D,17,37,faces,objects,Stimuli/Experimental_stims/faces/good-faces-xmSWVeGEnJw-unsplash.jpg,Stimuli/Experimental_stims/objects/alexander-andrews-VLGWE_SumrA-unsplash.jpg,0,NaN,NaN,NaN,chosen,1900,0,6,1,50,50
68,82292,0,69,1,1,1,gain6,no_gain2,I,C,24,6,body_parts,outdoor_scenes,Stimuli/Experimental_stims/body_parts/clay-banks-LjqARJaJotc-unsplash.jpg,Stimuli/Experimental_stims/outdoor_scenes/meng-ji-8BH_M-53CyA-unsplash.jpg,0,NaN,NaN,NaN,chosen,2200,0,6,1,50,50
69,82292,0,70,1,1,1,gain5,no_gain3,G,A,38,1,objects,outdoor_scenes,Stimuli/Experimental_stims/objects/art-lasovsky-8XddFc6NkBY-unsplash.jpg,Stimuli/Experimental_stims/outdoor_scenes/ashim-d-silva-S2Q5mdOrrVc-unsplash.jpg,0,NaN,NaN,NaN,chosen,1100,0,6,1,50,50
70,82292,0,71,1,1,0,no_gain1,gain1,F,L,28,19,body_parts,faces,Stimuli/Experimental_stims/body_parts/ira-vishnevskaya-8DQAvdCby1I-unsplash.jpg,Stimuli/Experimental_stims/faces/joel-mott-LaK153ghdig-unsplash.jpg,0,NaN,NaN,NaN,unchosen,2600,0,6,1,50,50
71,82292,0,72,1,1,1,gain1,no_gain2,L,C,19,34,faces,body_parts,Stimuli/Experimental_stims/faces/joel-mott-LaK153ghdig-unsplash.jpg,Stimuli/Experimental_stims/body_parts/wagner-santos-mBWMvIuVnso-unsplash.jpg,0,NaN,NaN,NaN,unchosen,2100,0,6,1,50,50
72,82292,0,73,1,1,0,no_gain3,gain3,A,H,41,7,objects,outdoor_scenes,Stimuli/Experimental_stims/objects/insung-yoon-w2JtIQQXoRU-unsplash.jpg,Stimuli/Experimental_stims/outdoor_scenes/petr-vysohlid-9fqwGqGLUxc-unsplash.jpg,0,NaN,NaN,NaN,unchosen,1600,0,6,1,50,50
73,82292,0,74,1,1,0,no_gain4,gain1,J,L,13,27,faces,body_parts,Stimuli/Experimental_stims/faces/daniel-rigdon-dXmXKPP2L4E-unsplash.jpg,Stimuli/Experimental_stims/body_parts/heike-mintel-i_Gns0ELnLw-unsplash.jpg,0,NaN,NaN,NaN,chosen,1200,0,6,1,50,50
74,82292,0,75,1,1,1,gain3,no_gain5,H,E,7,31,outdoor_scenes,body_parts,Stimuli/Experimental_stims/outdoor_scenes/petr-vysohlid-9fqwGqGLUxc-unsplash.jpg,Stimuli/Experimental_stims/body_parts/sincerely-media-VN6DbKajo5s-unsplash.jpg,0,NaN,NaN,NaN,unchosen,2600,0,6,1,50,50
75,82292,0,76,1,1,0,no_gain4,gain3,J,H,13,18,faces,faces,Stimuli/Experimental_stims/faces/daniel-rigdon-dXmXKPP2L4E-unsplash.jpg,Stimuli/Experimental_stims/faces/jessica-radanavong-mrYkTuAesKE-unsplash.jpg,0,NaN,NaN,NaN,chosen,3600,1,6,1,50,50
76,82292,0,77,2,2,1,gain4,no_gain6,D,K,14,46,faces,objects,Stimuli/Experimental_stims/faces/david-siglin-UuW4psOb388-unsplash.jpg,Stimuli/Experimental_stims/objects/mockup-graphics-PNsj6RiHAF4-unsplash.jpg,0,NaN,NaN,NaN,unchosen,3100,1,4,1,50,50
77,82292,0,78,2,2,1,gain3,no_gain1,H,F,18,17,faces,faces,Stimuli/Experimental_stims/faces/jessica-radanavong-mrYkTuAesKE-unsplash.jpg,Stimuli/Experimental_stims/faces/good-faces-xmSWVeGEnJw-unsplash.jpg,0,NaN,NaN,NaN,chosen,2600,0,4,1,50,50
78,82292,0,79,2,2,0,no_gain5,gain5,E,G,45,38,objects,objects,Stimuli/Experimental_stims/objects/leohoho-rngTKHXumy0-unsplash.jpg,Stimuli/Experimental_stims/objects/art-lasovsky-8XddFc6NkBY-unsplash.jpg,0,NaN,NaN,NaN,chosen,1800,0,4,1,50,50
79,82292,0,80,2,2,0,no_gain5,gain2,E,B,31,16,body_parts,faces,Stimuli/Experimental_stims/body_parts/sincerely-media-VN6DbKajo5s-unsplash.jpg,Stimuli/Experimental_stims/faces/freddy-kearney-o-ioeoATbIM-unsplash.jpg,0,NaN,NaN,NaN,unchosen,1000,0,4,1,50,50
80,82292,0,81,2,2,0,no_gain5,gain6,E,I,45,24,objects,body_parts,Stimuli/Experimental_stims/objects/leohoho-rngTKHXumy0-unsplash.jpg,Stimuli/Experimental_stims/body_parts/clay-banks-LjqARJaJotc-unsplash.jpg,0,NaN,NaN,NaN,chosen,2300,0,4,1,50,50
81,82292,0,82,2,2,1,gain2,no_gain1,B,F,5,17,outdoor_scenes,faces,Stimuli/Experimental_stims/outdoor_scenes/jeff-king-bJHWJeiHfHc-unsplash.jpg,Stimuli/Experimental_stims/faces/good-faces-xmSWVeGEnJw-unsplash.jpg,0,NaN,NaN,NaN,chosen,1100,0,4,1,50,50
82,82292,0,83,2,2,1,gain6,no_gain4,I,J,24,13,body_parts,faces,Stimuli/Experimental_stims/body_parts/clay-banks-LjqARJaJotc-unsplash.jpg,Stimuli/Experimental_stims/faces/daniel-rigdon-dXmXKPP2L4E-unsplash.jpg,0,NaN,NaN,NaN,chosen,1500,0,4,1,50,50
83,82292,0,84,2,2,1,gain1,no_gain4,L,J,19,39,faces,objects,Stimuli/Experimental_stims/faces/joel-mott-LaK153ghdig-unsplash.jpg,Stimuli/Experimental_stims/objects/charlesdeluvio-1-nx1QR5dTE-unsplash.jpg,0,NaN,NaN,NaN,unchosen,2400,0,4,1,50,50
84,82292,0,85,2,2,0,no_gain2,gain2,C,B,34,16,body_parts,faces,Stimuli/Experimental_stims/body_parts/wagner-santos-mBWMvIuVnso-unsplash.jpg,Stimuli/Experimental_stims/faces/freddy-kearney-o-ioeoATbIM-unsplash.jpg,0,NaN,NaN,NaN,unchosen,2300,0,4,1,50,50
85,82292,0,86,2,2,1,gain6,no_gain3,I,A,24,1,body_parts,outdoor_scenes,Stimuli/Experimental_stims/body_parts/clay-banks-LjqARJaJotc-unsplash.jpg,Stimuli/Experimental_stims/outdoor_scenes/ashim-d-silva-S2Q5mdOrrVc-unsplash.jpg,0,NaN,NaN,NaN,chosen,1200,0,4,1,50,50
86,82292,0,87,2,2,0,no_gain5,gain4,E,D,31,14,body_parts,faces,Stimuli/Experimental_stims/body_parts/sincerely-media-VN6DbKajo5s-unsplash.jpg,Stimuli/Experimental_stims/faces/david-siglin-UuW4psOb388-unsplash.jpg,0,NaN,NaN,NaN,unchosen,1300,0,4,1,50,50
87,82292,0,88,2,2,1,gain2,no_gain2,B,C,5,6,outdoor_scenes,outdoor_scenes,Stimuli/Experimental_stims/outdoor_scenes/jeff-king-bJHWJeiHfHc-unsplash.jpg,Stimuli/Experimental_stims/outdoor_scenes/meng-ji-8BH_M-53CyA-unsplash.jpg,0,NaN,NaN,NaN,chosen,3700,1,4,1,50,50
88,82292,0,89,2,2,1,gain5,no_gain3,G,A,38,1,objects,outdoor_scenes,Stimuli/Experimental_stims/objects/art-lasovsky-8XddFc6NkBY-unsplash.jpg,Stimuli/Experimental_stims/outdoor_scenes/ashim-d-silva-S2Q5mdOrrVc-unsplash.jpg,0,NaN,NaN,NaN,chosen,1600,0,4,1,50,50
89,82292,0,90,2,2,0,no_gain3,gain1,A,L,1,27,outdoor_scenes,body_parts,Stimuli/Experimental_stims/outdoor_scenes/ashim-d-silva-S2Q5mdOrrVc-unsplash.jpg,Stimuli/Experimental_stims/body_parts/heike-mintel-i_Gns0ELnLw-unsplash.jpg,0,NaN,NaN,NaN,chosen,1700,0,4,1,50,50
90,82292,0,91,2,2,0,no_gain2,gain1,C,L,34,19,body_parts,faces,Stimuli/Experimental_stims/body_parts/wagner-santos-mBWMvIuVnso-unsplash.jpg,Stimuli/Experimental_stims/faces/joel-mott-LaK153ghdig-unsplash.jpg,0,NaN,NaN,NaN,unchosen,1200,0,4,1,50,50
91,82292,0,92,2,2,0,no_gain6,gain5,K,G,30,38,body_parts,objects,Stimuli/Experimental_stims/body_parts/mika-korhonen-Xodzxosar18-unsplash.jpg,Stimuli/Experimental_stims/objects/art-lasovsky-8XddFc6NkBY-unsplash.jpg,0,NaN,NaN,NaN,chosen,1100,0,4,1,50,50
92,82292,0,93,2,2,0,no_gain4,gain3,J,H,13,18,faces,faces,Stimuli/Experimental_stims/faces/daniel-rigdon-dXmXKPP2L4E-unsplash.jpg,Stimuli/Experimental_stims/faces/jessica-radanavong-mrYkTuAesKE-unsplash.jpg,0,NaN,NaN,NaN,chosen,1300,0,4,1,50,50
93,82292,0,94,2,2,1,gain4,no_gain5,D,E,37,45,objects,objects,Stimuli/Experimental_stims/objects/alexander-andrews-VLGWE_SumrA-unsplash.jpg,Stimuli/Experimental_stims/objects/leohoho-rngTKHXumy0-unsplash.jpg,0,NaN,NaN,NaN,chosen,4500,1,4,1,50,50
94,82292,0,95,2,2,0,no_gain5,gain1,E,L,31,19,body_parts,faces,Stimuli/Experimental_stims/body_parts/sincerely-media-VN6DbKajo5s-unsplash.jpg,Stimuli/Experimental_stims/faces/joel-mott-LaK153ghdig-unsplash.jpg,0,NaN,NaN,NaN,unchosen,1900,0,4,1,50,50
95,82292,0,96,2,2,1,gain1,no_gain3,L,A,19,41,faces,objects,Stimuli/Experimental_stims/faces/joel-mott-LaK153ghdig-unsplash.jpg,Stimuli/Experimental_stims/objects/insung-yoon-w2JtIQQXoRU-unsplash.jpg,0,NaN,NaN,NaN,unchosen,1100,0,4,1,50,50
96,82292,0,97,2,2,1,gain3,no_gain3,H,A,7,41,outdoor_scenes,objects,Stimuli/Experimental_stims/outdoor_scenes/petr-vysohlid-9fqwGqGLUxc-unsplash.jpg,Stimuli/Experimental_stims/objects/insung-yoon-w2JtIQQXoRU-unsplash.jpg,0,NaN,NaN,NaN,unchosen,2300,0,4,1,50,50
97,82292,0,98,2,2,0,no_gain5,gain1,E,L,45,27,objects,body_parts,Stimuli/Experimental_stims/objects/leohoho-rngTKHXumy0-unsplash.jpg,Stimuli/Experimental_stims/body_parts/heike-mintel-i_Gns0ELnLw-unsplash.jpg,0,NaN,NaN,NaN,chosen,2800,0,4,1,50,50
98,82292,0,99,2,2,0,no_gain5,gain5,E,G,31,2,body_parts,outdoor_scenes,Stimuli/Experimental_stims/body_parts/sincerely-media-VN6DbKajo5s-unsplash.jpg,Stimuli/Experimental_stims/outdoor_scenes/bruno-van-der-kraan-qez8mNJ3ilU-unsplash.jpg,0,NaN,NaN,NaN,unchosen,3200,1,4,1,50,50
99,82292,0,100,2,2,1,gain5,no_gain1,G,F,38,17,objects,faces,Stimuli/Experimental_stims/objects/art-lasovsky-8XddFc6NkBY-unsplash.jpg,Stimuli/Experimental_stims/faces/good-faces-xmSWVeGEnJw-unsplash.jpg,0,NaN,NaN,NaN,chosen,2000,0,4,1,50,50
100,82292,0,101,2,2,0,no_gain2,gain6,C,I,6,24,outdoor_scenes,body_parts,Stimuli/Experimental_stims/outdoor_scenes/meng-ji-8BH_M-53CyA-unsplash.jpg,Stimuli/Experimental_stims/body_parts/clay-banks-LjqARJaJotc-unsplash.jpg,0,NaN,NaN,NaN,chosen,2500,0,4,1,50,50
101,82292,0,102,2,2,1,gain3,no_gain5,H,E,7,31,outdoor_scenes,body_parts,Stimuli/Experimental_stims/outdoor_scenes/petr-vysohlid-9fqwGqGLUxc-unsplash.jpg,Stimuli/Experimental_stims/body_parts/sincerely-media-VN6DbKajo5s-unsplash.jpg,0,NaN,NaN,NaN,unchosen,1300,0,4,1,50,50
102,82292,0,103,2,2,1,gain6,no_gain3,I,A,0,41,outdoor_scenes,objects,Stimuli/Experimental_stims/outdoor_scenes/aleksandra-boguslawska-MS7KD9Ti7FQ-unsplash.jpg,Stimuli/Experimental_stims/objects/insung-yoon-w2JtIQQXoRU-unsplash.jpg,0,NaN,NaN,NaN,unchosen,1300,0,4,1,50,50
103,82292,0,104,2,2,1,gain4,no_gain4,D,J,14,39,faces,objects,Stimuli/Experimental_stims/faces/david-siglin-UuW4psOb388-unsplash.jpg,Stimuli/Experimental_stims/objects/charlesdeluvio-1-nx1QR5dTE-unsplash.jpg,0,NaN,NaN,NaN,unchosen,4500,1,4,1,50,50
104,82292,0,105,2,2,1,gain6,no_gain1,I,F,24,17,body_parts,faces,Stimuli/Experimental_stims/body_parts/clay-banks-LjqARJaJotc-unsplash.jpg,Stimuli/Experimental_stims/faces/good-faces-xmSWVeGEnJw-unsplash.jpg,0,NaN,NaN,NaN,chosen,1400,0,4,1,50,50
105,82292,0,106,2,2,1,gain2,no_gain6,B,K,16,46,faces,objects,Stimuli/Experimental_stims/faces/freddy-kearney-o-ioeoATbIM-unsplash.jpg,Stimuli/Experimental_stims/objects/mockup-graphics-PNsj6RiHAF4-unsplash.jpg,0,NaN,NaN,NaN,unchosen,2600,0,4,1,50,50
106,82292,0,107,2,2,1,gain4,no_gain4,D,J,37,13,objects,faces,Stimuli/Experimental_stims/objects/alexander-andrews-VLGWE_SumrA-unsplash.jpg,Stimuli/Experimental_stims/faces/daniel-rigdon-dXmXKPP2L4E-unsplash.jpg,0,NaN,NaN,NaN,chosen,2100,0,4,1,50,50
107,82292,0,108,2,2,0,no_gain6,gain6,K,I,46,0,objects,outdoor_scenes,Stimuli/Experimental_stims/objects/mockup-graphics-PNsj6RiHAF4-unsplash.jpg,Stimuli/Experimental_stims/outdoor_scenes/aleksandra-boguslawska-MS7KD9Ti7FQ-unsplash.jpg,0,NaN,NaN,NaN,unchosen,2100,0,4,1,50,50
108,82292,0,109,2,2,1,gain4,no_gain3,D,A,14,41,faces,objects,Stimuli/Experimental_stims/faces/david-siglin-UuW4psOb388-unsplash.jpg,Stimuli/Experimental_stims/objects/insung-yoon-w2JtIQQXoRU-unsplash.jpg,0,NaN,NaN,NaN,unchosen,2600,0,4,1,50,50
109,82292,0,110,2,2,0,no_gain1,gain1,F,L,17,27,faces,body_parts,Stimuli/Experimental_stims/faces/good-faces-xmSWVeGEnJw-unsplash.jpg,Stimuli/Experimental_stims/body_parts/heike-mintel-i_Gns0ELnLw-unsplash.jpg,0,NaN,NaN,NaN,chosen,3000,1,4,1,50,50
110,82292,0,111,2,2,1,gain2,no_gain4,B,J,5,13,outdoor_scenes,faces,Stimuli/Experimental_stims/outdoor_scenes/jeff-king-bJHWJeiHfHc-unsplash.jpg,Stimuli/Experimental_stims/faces/daniel-rigdon-dXmXKPP2L4E-unsplash.jpg,0,NaN,NaN,NaN,chosen,1100,0,4,1,50,50
111,82292,0,112,2,2,0,no_gain1,gain3,F,H,28,7,body_parts,outdoor_scenes,Stimuli/Experimental_stims/body_parts/ira-vishnevskaya-8DQAvdCby1I-unsplash.jpg,Stimuli/Experimental_stims/outdoor_scenes/petr-vysohlid-9fqwGqGLUxc-unsplash.jpg,0,NaN,NaN,NaN,unchosen,1000,0,4,1,50,50
112,82292,0,113,2,2,1,gain5,no_gain1,G,F,2,28,outdoor_scenes,body_parts,Stimuli/Experimental_stims/outdoor_scenes/bruno-van-der-kraan-qez8mNJ3ilU-unsplash.jpg,Stimuli/Experimental_stims/body_parts/ira-vishnevskaya-8DQAvdCby1I-unsplash.jpg,0,NaN,NaN,NaN,unchosen,1300,0,4,1,50,50
113,82292,0,114,2,2,1,gain3,no_gain6,H,K,18,30,faces,body_parts,Stimuli/Experimental_stims/faces/jessica-radanavong-mrYkTuAesKE-unsplash.jpg,Stimuli/Experimental_stims/body_parts/mika-korhonen-Xodzxosar18-unsplash.jpg,0,NaN,NaN,NaN,chosen,1000,0,4,1,50,50
114,82292,0,115,2,2,0,no_gain1,gain1,F,L,28,19,body_parts,faces,Stimuli/Experimental_stims/body_parts/ira-vishnevskaya-8DQAvdCby1I-unsplash.jpg,Stimuli/Experimental_stims/faces/joel-mott-LaK153ghdig-unsplash.jpg,0,NaN,NaN,NaN,unchosen,1200,0,4,1,50,50
115,82292,0,116,2,2,0,no_gain5,gain3,E,H,45,18,objects,faces,Stimuli/Experimental_stims/objects/leohoho-rngTKHXumy0-unsplash.jpg,Stimuli/Experimental_stims/faces/jessica-radanavong-mrYkTuAesKE-unsplash.jpg,0,NaN,NaN,NaN,chosen,1800,0,4,1,50,50
116,82292,0,117,2,2,1,gain5,no_gain2,G,C,2,34,outdoor_scenes,body_parts,Stimuli/Experimental_stims/outdoor_scenes/bruno-van-der-kraan-qez8mNJ3ilU-unsplash.jpg,Stimuli/Experimental_stims/body_parts/wagner-santos-mBWMvIuVnso-unsplash.jpg,0,NaN,NaN,NaN,unchosen,2300,0,4,1,50,50
117,82292,0,118,2,2,1,gain4,no_gain1,D,F,37,17,objects,faces,Stimuli/Experimental_stims/objects/alexander-andrews-VLGWE_SumrA-unsplash.jpg,Stimuli/Experimental_stims/faces/good-faces-xmSWVeGEnJw-unsplash.jpg,0,NaN,NaN,NaN,chosen,3500,1,4,1,50,50
118,82292,0,119,2,2,0,no_gain2,gain6,C,I,34,0,body_parts,outdoor_scenes,Stimuli/Experimental_stims/body_parts/wagner-santos-mBWMvIuVnso-unsplash.jpg,Stimuli/Experimental_stims/outdoor_scenes/aleksandra-boguslawska-MS7KD9Ti7FQ-unsplash.jpg,0,NaN,NaN,NaN,unchosen,1300,0,4,1,50,50
119,82292,0,120,2,2,0,no_gain2,gain5,C,G,6,38,outdoor_scenes,objects,Stimuli/Experimental_stims/outdoor_scenes/meng-ji-8BH_M-53CyA-unsplash.jpg,Stimuli/Experimental_stims/objects/art-lasovsky-8XddFc6NkBY-unsplash.jpg,0,NaN,NaN,NaN,chosen,1400,0,4,1,50,50
120,82292,0,121,2,2,1,gain3,no_gain3,H,A,18,1,faces,outdoor_scenes,Stimuli/Experimental_stims/faces/jessica-radanavong-mrYkTuAesKE-unsplash.jpg,Stimuli/Experimental_stims/outdoor_scenes/ashim-d-silva-S2Q5mdOrrVc-unsplash.jpg,0,NaN,NaN,NaN,chosen,1300,0,4,1,50,50
121,82292,0,122,2,2,1,gain6,no_gain1,I,F,0,28,outdoor_scenes,body_parts,Stimuli/Experimental_stims/outdoor_scenes/aleksandra-boguslawska-MS7KD9Ti7FQ-unsplash.jpg,Stimuli/Experimental_stims/body_parts/ira-vishnevskaya-8DQAvdCby1I-unsplash.jpg,0,NaN,NaN,NaN,unchosen,2800,0,4,1,50,50
122,82292,0,123,2,2,1,gain5,no_gain6,G,K,2,46,outdoor_scenes,objects,Stimuli/Experimental_stims/outdoor_scenes/bruno-van-der-kraan-qez8mNJ3ilU-unsplash.jpg,Stimuli/Experimental_stims/objects/mockup-graphics-PNsj6RiHAF4-unsplash.jpg,0,NaN,NaN,NaN,unchosen,1800,0,4,1,50,50
123,82292,0,124,2,2,0,no_gain2,gain4,C,D,34,14,body_parts,faces,Stimuli/Experimental_stims/body_parts/wagner-santos-mBWMvIuVnso-unsplash.jpg,Stimuli/Experimental_stims/faces/david-siglin-UuW4psOb388-unsplash.jpg,0,NaN,NaN,NaN,unchosen,1200,0,4,1,50,50
124,82292,0,125,2,2,0,no_gain3,gain4,A,D,1,37,outdoor_scenes,objects,Stimuli/Experimental_stims/outdoor_scenes/ashim-d-silva-S2Q5mdOrrVc-unsplash.jpg,Stimuli/Experimental_stims/objects/alexander-andrews-VLGWE_SumrA-unsplash.jpg,0,NaN,NaN,NaN,chosen,1000,0,4,1,50,50
125,82292,0,126,2,2,1,gain3,no_gain4,H,J,7,39,outdoor_scenes,objects,Stimuli/Experimental_stims/outdoor_scenes/petr-vysohlid-9fqwGqGLUxc-unsplash.jpg,Stimuli/Experimental_stims/objects/charlesdeluvio-1-nx1QR5dTE-unsplash.jpg,0,NaN,NaN,NaN,unchosen,1600,0,4,1,50,50
126,82292,0,127,2,2,0,no_gain2,gain4,C,D,6,37,outdoor_scenes,objects,Stimuli/Experimental_stims/outdoor_scenes/meng-ji-8BH_M-53CyA-unsplash.jpg,Stimuli/Experimental_stims/objects/alexander-andrews-VLGWE_SumrA-unsplash.jpg,0,NaN,NaN,NaN,chosen,1500,0,4,1,50,50
127,82292,0,128,2,2,0,no_gain5,gain2,E,B,45,5,objects,outdoor_scenes,Stimuli/Experimental_stims/objects/leohoho-rngTKHXumy0-unsplash.jpg,Stimuli/Experimental_stims/outdoor_scenes/jeff-king-bJHWJeiHfHc-unsplash.jpg,0,NaN,NaN,NaN,chosen,3300,1,4,1,50,50
128,82292,0,129,2,2,0,no_gain4,gain1,J,L,13,27,faces,body_parts,Stimuli/Experimental_stims/faces/daniel-rigdon-dXmXKPP2L4E-unsplash.jpg,Stimuli/Experimental_stims/body_parts/heike-mintel-i_Gns0ELnLw-unsplash.jpg,0,NaN,NaN,NaN,chosen,2200,0,4,1,50,50
129,82292,0,130,2,2,0,no_gain5,gain6,E,I,31,0,body_parts,outdoor_scenes,Stimuli/Experimental_stims/body_parts/sincerely-media-VN6DbKajo5s-unsplash.jpg,Stimuli/Experimental_stims/outdoor_scenes/aleksandra-boguslawska-MS7KD9Ti7FQ-unsplash.jpg,0,NaN,NaN,NaN,unchosen,2400,0,4,1,50,50
130,82292,0,131,2,2,1,gain2,no_gain3,B,A,5,1,outdoor_scenes,outdoor_scenes,Stimuli/Experimental_stims/outdoor_scenes/jeff-king-bJHWJeiHfHc-unsplash.jpg,Stimuli/Experimental_stims/outdoor_scenes/ashim-d-silva-S2Q5mdOrrVc-unsplash.jpg,0,NaN,NaN,NaN,chosen,1300,0,4,1,50,50
131,82292,0,132,2,2,1,gain6,no_gain4,I,J,0,39,outdoor_scenes,objects,Stimuli/Experimental_stims/outdoor_scenes/aleksandra-boguslawska-MS7KD9Ti7FQ-unsplash.jpg,Stimuli/Experimental_stims/objects/charlesdeluvio-1-nx1QR5dTE-unsplash.jpg,0,NaN,NaN,NaN,unchosen,2400,0,4,1,50,50
132,82292,0,133,2,2,0,no_gain1,gain4,F,D,28,14,body_parts,faces,Stimuli/Experimental_stims/body_parts/ira-vishnevskaya-8DQAvdCby1I-unsplash.jpg,Stimuli/Experimental_stims/faces/david-siglin-UuW4psOb388-unsplash.jpg,0,NaN,NaN,NaN,unchosen,2200,0,4,1,50,50
133,82292,0,134,2,2,0,no_gain6,gain4,K,D,30,37,body_parts,objects,Stimuli/Experimental_stims/body_parts/mika-korhonen-Xodzxosar18-unsplash.jpg,Stimuli/Experimental_stims/objects/alexander-andrews-VLGWE_SumrA-unsplash.jpg,0,NaN,NaN,NaN,chosen,2900,1,4,1,50,50
134,82292,0,135,2,2,1,gain1,no_gain6,L,K,27,30,body_parts,body_parts,Stimuli/Experimental_stims/body_parts/heike-mintel-i_Gns0ELnLw-unsplash.jpg,Stimuli/Experimental_stims/body_parts/mika-korhonen-Xodzxosar18-unsplash.jpg,0,NaN,NaN,NaN,chosen,1900,0,4,1,50,50
135,82292,0,136,2,2,0,no_gain1,gain2,F,B,28,16,body_parts,faces,Stimuli/Experimental_stims/body_parts/ira-vishnevskaya-8DQAvdCby1I-unsplash.jpg,Stimuli/Experimental_stims/faces/freddy-kearney-o-ioeoATbIM-unsplash.jpg,0,NaN,NaN,NaN,unchosen,1700,0,4,1,50,50
136,82292,0,137,2,2,0,no_gain4,gain2,J,B,39,16,objects,faces,Stimuli/Experimental_stims/objects/charlesdeluvio-1-nx1QR5dTE-unsplash.jpg,Stimuli/Experimental_stims/faces/freddy-kearney-o-ioeoATbIM-unsplash.jpg,0,NaN,NaN,NaN,unchosen,1900,0,4,1,50,50
137,82292,0,138,2,2,1,gain6,no_gain6,I,K,24,30,body_parts,body_parts,Stimuli/Experimental_stims/body_parts/clay-banks-LjqARJaJotc-unsplash.jpg,Stimuli/Experimental_stims/body_parts/mika-korhonen-Xodzxosar18-unsplash.jpg,0,NaN,NaN,NaN,chosen,1700,0,4,1,50,50
138,82292,0,139,2,2,0,no_gain3,gain2,A,B,41,16,objects,faces,Stimuli/Experimental_stims/objects/insung-yoon-w2JtIQQXoRU-unsplash.jpg,Stimuli/Experimental_stims/faces/freddy-kearney-o-ioeoATbIM-unsplash.jpg,0,NaN,NaN,NaN,unchosen,1300,0,4,1,50,50
139,82292,0,140,2,2,1,gain5,no_gain4,G,J,2,39,outdoor_scenes,objects,Stimuli/Experimental_stims/outdoor_scenes/bruno-van-der-kraan-qez8mNJ3ilU-unsplash.jpg,Stimuli/Experimental_stims/objects/charlesdeluvio-1-nx1QR5dTE-unsplash.jpg,0,NaN,NaN,NaN,unchosen,3600,1,4,1,50,50
140,82292,0,141,2,2,1,gain5,no_gain4,G,J,38,13,objects,faces,Stimuli/Experimental_stims/objects/art-lasovsky-8XddFc6NkBY-unsplash.jpg,Stimuli/Experimental_stims/faces/daniel-rigdon-dXmXKPP2L4E-unsplash.jpg,0,NaN,NaN,NaN,chosen,1700,0,4,1,50,50
141,82292,0,142,2,2,0,no_gain6,gain2,K,B,30,5,body_parts,outdoor_scenes,Stimuli/Experimental_stims/body_parts/mika-korhonen-Xodzxosar18-unsplash.jpg,Stimuli/Experimental_stims/outdoor_scenes/jeff-king-bJHWJeiHfHc-unsplash.jpg,0,NaN,NaN,NaN,chosen,1900,0,4,1,50,50
142,82292,0,143,2,2,0,no_gain2,gain1,C,L,6,27,outdoor_scenes,body_parts,Stimuli/Experimental_stims/outdoor_scenes/meng-ji-8BH_M-53CyA-unsplash.jpg,Stimuli/Experimental_stims/body_parts/heike-mintel-i_Gns0ELnLw-unsplash.jpg,0,NaN,NaN,NaN,chosen,2200,0,4,1,50,50
143,82292,0,144,2,2,0,no_gain3,gain5,A,G,41,2,objects,outdoor_scenes,Stimuli/Experimental_stims/objects/insung-yoon-w2JtIQQXoRU-unsplash.jpg,Stimuli/Experimental_stims/outdoor_scenes/bruno-van-der-kraan-qez8mNJ3ilU-unsplash.jpg,0,NaN,NaN,NaN,unchosen,1800,0,4,1,50,50
144,82292,0,145,2,2,0,no_gain6,gain3,K,H,46,7,objects,outdoor_scenes,Stimuli/Experimental_stims/objects/mockup-graphics-PNsj6RiHAF4-unsplash.jpg,Stimuli/Experimental_stims/outdoor_scenes/petr-vysohlid-9fqwGqGLUxc-unsplash.jpg,0,NaN,NaN,NaN,unchosen,1400,0,4,1,50,50
145,82292,0,146,2,2,0,no_gain2,gain3,C,H,6,18,outdoor_scenes,faces,Stimuli/Experimental_stims/outdoor_scenes/meng-ji-8BH_M-53CyA-unsplash.jpg,Stimuli/Experimental_stims/faces/jessica-radanavong-mrYkTuAesKE-unsplash.jpg,0,NaN,NaN,NaN,chosen,1800,0,4,1,50,50
146,82292,0,147,2,2,1,gain3,no_gain2,H,C,7,34,outdoor_scenes,body_parts,Stimuli/Experimental_stims/outdoor_scenes/petr-vysohlid-9fqwGqGLUxc-unsplash.jpg,Stimuli/Experimental_stims/body_parts/wagner-santos-mBWMvIuVnso-unsplash.jpg,0,NaN,NaN,NaN,unchosen,1300,0,4,1,50,50
147,82292,0,148,2,2,1,gain1,no_gain6,L,K,19,46,faces,objects,Stimuli/Experimental_stims/faces/joel-mott-LaK153ghdig-unsplash.jpg,Stimuli/Experimental_stims/objects/mockup-graphics-PNsj6RiHAF4-unsplash.jpg,0,NaN,NaN,NaN,unchosen,3600,1,4,1,50,50
148,82292,0,149,3,3,1,gain3,no_gain6,H,K,7,46,outdoor_scenes,objects,Stimuli/Experimental_stims/outdoor_scenes/petr-vysohlid-9fqwGqGLUxc-unsplash.jpg,Stimuli/Experimental_stims/objects/mockup-graphics-PNsj6RiHAF4-unsplash.jpg,0,NaN,NaN,NaN,unchosen,1200,0,5,1,50,50
149,82292,0,150,3,3,1,gain3,no_gain3,H,A,18,1,faces,outdoor_scenes,Stimuli/Experimental_stims/faces/jessica-radanavong-mrYkTuAesKE-unsplash.jpg,Stimuli/Experimental_stims/outdoor_scenes/ashim-d-silva-S2Q5mdOrrVc-unsplash.jpg,0,NaN,NaN,NaN,chosen,1100,0,5,1,50,50
150,82292,0,151,3,3,1,gain1,no_gain4,L,J,27,13,body_parts,faces,Stimuli/Experimental_stims/body_parts/heike-mintel-i_Gns0ELnLw-unsplash.jpg,Stimuli/Experimental_stims/faces/daniel-rigdon-dXmXKPP2L4E-unsplash.jpg,0,NaN,NaN,NaN,chosen,1100,0,5,1,50,50
151,82292,0,152,3,3,1,gain5,no_gain6,G,K,2,46,outdoor_scenes,objects,Stimuli/Experimental_stims/outdoor_scenes/bruno-van-der-kraan-qez8mNJ3ilU-unsplash.jpg,Stimuli/Experimental_stims/objects/mockup-graphics-PNsj6RiHAF4-unsplash.jpg,0,NaN,NaN,NaN,unchosen,1300,0,5,1,50,50
152,82292,0,153,3,3,1,gain2,no_gain6,B,K,5,30,outdoor_scenes,body_parts,Stimuli/Experimental_stims/outdoor_scenes/jeff-king-bJHWJeiHfHc-unsplash.jpg,Stimuli/Experimental_stims/body_parts/mika-korhonen-Xodzxosar18-unsplash.jpg,0,NaN,NaN,NaN,chosen,3300,1,5,1,50,50
153,82292,0,154,3,3,1,gain6,no_gain6,I,K,24,30,body_parts,body_parts,Stimuli/Experimental_stims/body_parts/clay-banks-LjqARJaJotc-unsplash.jpg,Stimuli/Experimental_stims/body_parts/mika-korhonen-Xodzxosar18-unsplash.jpg,0,NaN,NaN,NaN,chosen,1000,0,5,1,50,50
154,82292,0,155,3,3,1,gain1,no_gain2,L,C,19,34,faces,body_parts,Stimuli/Experimental_stims/faces/joel-mott-LaK153ghdig-unsplash.jpg,Stimuli/Experimental_stims/body_parts/wagner-santos-mBWMvIuVnso-unsplash.jpg,0,NaN,NaN,NaN,unchosen,1300,0,5,1,50,50
155,82292,0,156,3,3,0,no_gain4,gain3,J,H,13,18,faces,faces,Stimuli/Experimental_stims/faces/daniel-rigdon-dXmXKPP2L4E-unsplash.jpg,Stimuli/Experimental_stims/faces/jessica-radanavong-mrYkTuAesKE-unsplash.jpg,0,NaN,NaN,NaN,chosen,1300,0,5,1,50,50
156,82292,0,157,3,3,0,no_gain4,gain4,J,D,13,37,faces,objects,Stimuli/Experimental_stims/faces/daniel-rigdon-dXmXKPP2L4E-unsplash.jpg,Stimuli/Experimental_stims/objects/alexander-andrews-VLGWE_SumrA-unsplash.jpg,0,NaN,NaN,NaN,chosen,1600,0,5,1,50,50
157,82292,0,158,3,3,1,gain6,no_gain3,I,A,24,1,body_parts,outdoor_scenes,Stimuli/Experimental_stims/body_parts/clay-banks-LjqARJaJotc-unsplash.jpg,Stimuli/Experimental_stims/outdoor_scenes/ashim-d-silva-S2Q5mdOrrVc-unsplash.jpg,0,NaN,NaN,NaN,chosen,1400,0,5,1,50,50
158,82292,0,159,3,3,0,no_gain1,gain2,F,B,28,16,body_parts,faces,Stimuli/Experimental_stims/body_parts/ira-vishnevskaya-8DQAvdCby1I-unsplash.jpg,Stimuli/Experimental_stims/faces/freddy-kearney-o-ioeoATbIM-unsplash.jpg,0,NaN,NaN,NaN,unchosen,2100,0,5,1,50,50
159,82292,0,160,3,3,0,no_gain4,gain3,J,H,39,7,objects,outdoor_scenes,Stimuli/Experimental_stims/objects/charlesdeluvio-1-nx1QR5dTE-unsplash.jpg,Stimuli/Experimental_stims/outdoor_scenes/petr-vysohlid-9fqwGqGLUxc-unsplash.jpg,0,NaN,NaN,NaN,unchosen,1200,0,5,1,50,50
160,82292,0,161,3,3,0,no_gain1,gain3,F,H,17,18,faces,faces,Stimuli/Experimental_stims/faces/good-faces-xmSWVeGEnJw-unsplash.jpg,Stimuli/Experimental_stims/faces/jessica-radanavong-mrYkTuAesKE-unsplash.jpg,0,NaN,NaN,NaN,chosen,4100,1,5,1,50,50
161,82292,0,162,3,3,0,no_gain1,gain4,F,D,28,14,body_parts,faces,Stimuli/Experimental_stims/body_parts/ira-vishnevskaya-8DQAvdCby1I-unsplash.jpg,Stimuli/Experimental_stims/faces/david-siglin-UuW4psOb388-unsplash.jpg,0,NaN,NaN,NaN,unchosen,1900,0,5,1,50,50
162,82292,0,163,3,3,1,gain5,no_gain5,G,E,38,45,objects,objects,Stimuli/Experimental_stims/objects/art-lasovsky-8XddFc6NkBY-unsplash.jpg,Stimuli/Experimental_stims/objects/leohoho-rngTKHXumy0-unsplash.jpg,0,NaN,NaN,NaN,chosen,2000,0,5,1,50,50
163,82292,0,164,3,3,0,no_gain2,gain5,C,G,34,2,body_parts,outdoor_scenes,Stimuli/Experimental_stims/body_parts/wagner-santos-mBWMvIuVnso-unsplash.jpg,Stimuli/Experimental_stims/outdoor_scenes/bruno-van-der-kraan-qez8mNJ3ilU-unsplash.jpg,0,NaN,NaN,NaN,unchosen,2600,0,5,1,50,50
164,82292,0,165,3,3,1,gain1,no_gain4,L,J,19,39,faces,objects,Stimuli/Experimental_stims/faces/joel-mott-LaK153ghdig-unsplash.jpg,Stimuli/Experimental_stims/objects/charlesdeluvio-1-nx1QR5dTE-unsplash.jpg,0,NaN,NaN,NaN,unchosen,1100,0,5,1,50,50
165,82292,0,166,3,3,0,no_gain4,gain5,J,G,13,38,faces,objects,Stimuli/Experimental_stims/faces/daniel-rigdon-dXmXKPP2L4E-unsplash.jpg,Stimuli/Experimental_stims/objects/art-lasovsky-8XddFc6NkBY-unsplash.jpg,0,NaN,NaN,NaN,chosen,4400,1,5,1,50,50
166,82292,0,167,3,3,0,no_gain5,gain4,E,D,31,14,body_parts,faces,Stimuli/Experimental_stims/body_parts/sincerely-media-VN6DbKajo5s-unsplash.jpg,Stimuli/Experimental_stims/faces/david-siglin-UuW4psOb388-unsplash.jpg,0,NaN,NaN,NaN,unchosen,1200,0,5,1,50,50
167,82292,0,168,3,3,0,no_gain5,gain6,E,I,45,24,objects,body_parts,Stimuli/Experimental_stims/objects/leohoho-rngTKHXumy0-unsplash.jpg,Stimuli/Experimental_stims/body_parts/clay-banks-LjqARJaJotc-unsplash.jpg,0,NaN,NaN,NaN,chosen,1100,0,5,1,50,50
168,82292,0,169,3,3,1,gain1,no_gain6,L,K,19,46,faces,objects,Stimuli/Experimental_stims/faces/joel-mott-LaK153ghdig-unsplash.jpg,Stimuli/Experimental_stims/objects/mockup-graphics-PNsj6RiHAF4-unsplash.jpg,0,NaN,NaN,NaN,unchosen,1700,0,5,1,50,50
169,82292,0,170,3,3,1,gain2,no_gain2,B,C,5,6,outdoor_scenes,outdoor_scenes,Stimuli/Experimental_stims/outdoor_scenes/jeff-king-bJHWJeiHfHc-unsplash.jpg,Stimuli/Experimental_stims/outdoor_scenes/meng-ji-8BH_M-53CyA-unsplash.jpg,0,NaN,NaN,NaN,chosen,1100,0,5,1,50,50
170,82292,0,171,3,3,0,no_gain2,gain4,C,D,34,14,body_parts,faces,Stimuli/Experimental_stims/body_parts/wagner-santos-mBWMvIuVnso-unsplash.jpg,Stimuli/Experimental_stims/faces/david-siglin-UuW4psOb388-unsplash.jpg,0,NaN,NaN,NaN,unchosen,3300,1,5,1,50,50
171,82292,0,172,3,3,0,no_gain3,gain2,A,B,1,5,outdoor_scenes,outdoor_scenes,Stimuli/Experimental_stims/outdoor_scenes/ashim-d-silva-S2Q5mdOrrVc-unsplash.jpg,Stimuli/Experimental_stims/outdoor_scenes/jeff-king-bJHWJeiHfHc-unsplash.jpg,0,NaN,NaN,NaN,chosen,2800,0,5,1,50,50
172,82292,0,173,3,3,0,no_gain4,gain2,J,B,13,5,faces,outdoor_scenes,Stimuli/Experimental_stims/faces/daniel-rigdon-dXmXKPP2L4E-unsplash.jpg,Stimuli/Experimental_stims/outdoor_scenes/jeff-king-bJHWJeiHfHc-unsplash.jpg,0,NaN,NaN,NaN,chosen,1000,0,5,1,50,50
173,82292,0,174,3,3,0,no_gain1,gain6,F,I,28,0,body_parts,outdoor_scenes,Stimuli/Experimental_stims/body_parts/ira-vishnevskaya-8DQAvdCby1I-unsplash.jpg,Stimuli/Experimental_stims/outdoor_scenes/aleksandra-boguslawska-MS7KD9Ti7FQ-unsplash.jpg,0,NaN,NaN,NaN,unchosen,3100,0,5,1,50,50
174,82292,0,175,3,3,1,gain4,no_gain1,D,F,37,17,objects,faces,Stimuli/Experimental_stims/objects/alexander-andrews-VLGWE_SumrA-unsplash.jpg,Stimuli/Experimental_stims/faces/good-faces-xmSWVeGEnJw-unsplash.jpg,0,NaN,NaN,NaN,chosen,2000,0,5,1,50,50
175,82292,0,176,3,3,0,no_gain6,gain6,K,I,46,0,objects,outdoor_scenes,Stimuli/Experimental_stims/objects/mockup-graphics-PNsj6RiHAF4-unsplash.jpg,Stimuli/Experimental_stims/outdoor_scenes/aleksandra-boguslawska-MS7KD9Ti7FQ-unsplash.jpg,0,NaN,NaN,NaN,unchosen,2300,0,5,1,50,50
176,82292,0,177,3,3,0,no_gain2,gain5,C,G,6,38,outdoor_scenes,objects,Stimuli/Experimental_stims/outdoor_scenes/meng-ji-8BH_M-53CyA-unsplash.jpg,Stimuli/Experimental_stims/objects/art-lasovsky-8XddFc6NkBY-unsplash.jpg,0,NaN,NaN,NaN,chosen,1500,0,5,1,50,50
177,82292,0,178,3,3,0,no_gain5,gain2,E,B,31,16,body_parts,faces,Stimuli/Experimental_stims/body_parts/sincerely-media-VN6DbKajo5s-unsplash.jpg,Stimuli/Experimental_stims/faces/freddy-kearney-o-ioeoATbIM-unsplash.jpg,0,NaN,NaN,NaN,unchosen,1600,0,5,1,50,50
178,82292,0,179,3,3,1,gain6,no_gain1,I,F,24,17,body_parts,faces,Stimuli/Experimental_stims/body_parts/clay-banks-LjqARJaJotc-unsplash.jpg,Stimuli/Experimental_stims/faces/good-faces-xmSWVeGEnJw-unsplash.jpg,0,NaN,NaN,NaN,chosen,4200,1,5,1,50,50
179,82292,0,180,3,3,0,no_gain5,gain4,E,D,45,37,objects,objects,Stimuli/Experimental_stims/objects/leohoho-rngTKHXumy0-unsplash.jpg,Stimuli/Experimental_stims/objects/alexander-andrews-VLGWE_SumrA-unsplash.jpg,0,NaN,NaN,NaN,chosen,1000,0,5,1,50,50
180,82292,0,181,3,3,0,no_gain6,gain3,K,H,30,18,body_parts,faces,Stimuli/Experimental_stims/body_parts/mika-korhonen-Xodzxosar18-unsplash.jpg,Stimuli/Experimental_stims/faces/jessica-radanavong-mrYkTuAesKE-unsplash.jpg,0,NaN,NaN,NaN,chosen,2000,0,5,1,50,50
181,82292,0,182,3,3,1,gain4,no_gain3,D,A,14,41,faces,objects,Stimuli/Experimental_stims/faces/david-siglin-UuW4psOb388-unsplash.jpg,Stimuli/Experimental_stims/objects/insung-yoon-w2JtIQQXoRU-unsplash.jpg,0,NaN,NaN,NaN,unchosen,1700,0,5,1,50,50
182,82292,0,183,3,3,1,gain2,no_gain6,B,K,16,46,faces,objects,Stimuli/Experimental_stims/faces/freddy-kearney-o-ioeoATbIM-unsplash.jpg,Stimuli/Experimental_stims/objects/mockup-graphics-PNsj6RiHAF4-unsplash.jpg,0,NaN,NaN,NaN,unchosen,2300,0,5,1,50,50
183,82292,0,184,3,3,1,gain4,no_gain4,D,J,14,39,faces,objects,Stimuli/Experimental_stims/faces/david-siglin-UuW4psOb388-unsplash.jpg,Stimuli/Experimental_stims/objects/charlesdeluvio-1-nx1QR5dTE-unsplash.jpg,0,NaN,NaN,NaN,unchosen,3300,1,5,1,50,50
184,82292,0,185,3,3,0,no_gain1,gain2,F,B,17,5,faces,outdoor_scenes,Stimuli/Experimental_stims/faces/good-faces-xmSWVeGEnJw-unsplash.jpg,Stimuli/Experimental_stims/outdoor_scenes/jeff-king-bJHWJeiHfHc-unsplash.jpg,0,NaN,NaN,NaN,chosen,1100,0,5,1,50,50
185,82292,0,186,3,3,0,no_gain4,gain6,J,I,13,24,faces,body_parts,Stimuli/Experimental_stims/faces/daniel-rigdon-dXmXKPP2L4E-unsplash.jpg,Stimuli/Experimental_stims/body_parts/clay-banks-LjqARJaJotc-unsplash.jpg,0,NaN,NaN,NaN,chosen,1900,0,5,1,50,50
186,82292,0,187,3,3,1,gain3,no_gain5,H,E,18,45,faces,objects,Stimuli/Experimental_stims/faces/jessica-radanavong-mrYkTuAesKE-unsplash.jpg,Stimuli/Experimental_stims/objects/leohoho-rngTKHXumy0-unsplash.jpg,0,NaN,NaN,NaN,chosen,2400,0,5,1,50,50
187,82292,0,188,3,3,0,no_gain2,gain6,C,I,34,0,body_parts,outdoor_scenes,Stimuli/Experimental_stims/body_parts/wagner-santos-mBWMvIuVnso-unsplash.jpg,Stimuli/Experimental_stims/outdoor_scenes/aleksandra-boguslawska-MS7KD9Ti7FQ-unsplash.jpg,0,NaN,NaN,NaN,unchosen,1900,0,5,1,50,50
188,82292,0,189,3,3,0,no_gain1,gain1,F,L,28,19,body_parts,faces,Stimuli/Experimental_stims/body_parts/ira-vishnevskaya-8DQAvdCby1I-unsplash.jpg,Stimuli/Experimental_stims/faces/joel-mott-LaK153ghdig-unsplash.jpg,0,NaN,NaN,NaN,unchosen,3300,1,5,1,50,50
189,82292,0,190,3,3,0,no_gain3,gain5,A,G,41,2,objects,outdoor_scenes,Stimuli/Experimental_stims/objects/insung-yoon-w2JtIQQXoRU-unsplash.jpg,Stimuli/Experimental_stims/outdoor_scenes/bruno-van-der-kraan-qez8mNJ3ilU-unsplash.jpg,0,NaN,NaN,NaN,unchosen,1200,0,5,1,50,50
190,82292,0,191,3,3,1,gain1,no_gain1,L,F,27,17,body_parts,faces,Stimuli/Experimental_stims/body_parts/heike-mintel-i_Gns0ELnLw-unsplash.jpg,Stimuli/Experimental_stims/faces/good-faces-xmSWVeGEnJw-unsplash.jpg,0,NaN,NaN,NaN,chosen,1100,0,5,1,50,50
191,82292,0,192,3,3,0,no_gain4,gain5,J,G,39,2,objects,outdoor_scenes,Stimuli/Experimental_stims/objects/charlesdeluvio-1-nx1QR5dTE-unsplash.jpg,Stimuli/Experimental_stims/outdoor_scenes/bruno-van-der-kraan-qez8mNJ3ilU-unsplash.jpg,0,NaN,NaN,NaN,unchosen,1400,0,5,1,50,50
192,82292,0,193,3,3,1,gain3,no_gain1,H,F,7,28,outdoor_scenes,body_parts,Stimuli/Experimental_stims/outdoor_scenes/petr-vysohlid-9fqwGqGLUxc-unsplash.jpg,Stimuli/Experimental_stims/body_parts/ira-vishnevskaya-8DQAvdCby1I-unsplash.jpg,0,NaN,NaN,NaN,unchosen,2600,0,5,1,50,50
193,82292,0,194,3,3,1,gain6,no_gain4,I,J,0,39,outdoor_scenes,objects,Stimuli/Experimental_stims/outdoor_scenes/aleksandra-boguslawska-MS7KD9Ti7FQ-unsplash.jpg,Stimuli/Experimental_stims/objects/charlesdeluvio-1-nx1QR5dTE-unsplash.jpg,0,NaN,NaN,NaN,unchosen,1100,0,5,1,50,50
194,82292,0,195,3,3,1,gain1,no_gain3,L,A,27,1,body_parts,outdoor_scenes,Stimuli/Experimental_stims/body_parts/heike-mintel-i_Gns0ELnLw-unsplash.jpg,Stimuli/Experimental_stims/outdoor_scenes/ashim-d-silva-S2Q5mdOrrVc-unsplash.jpg,0,NaN,NaN,NaN,chosen,4100,1,5,1,50,50
195,82292,0,196,3,3,1,gain6,no_gain3,I,A,0,41,outdoor_scenes,objects,Stimuli/Experimental_stims/outdoor_scenes/aleksandra-boguslawska-MS7KD9Ti7FQ-unsplash.jpg,Stimuli/Experimental_stims/objects/insung-yoon-w2JtIQQXoRU-unsplash.jpg,0,NaN,NaN,NaN,unchosen,1000,0,5,1,50,50
196,82292,0,197,3,3,0,no_gain3,gain4,A,D,1,37,outdoor_scenes,objects,Stimuli/Experimental_stims/outdoor_scenes/ashim-d-silva-S2Q5mdOrrVc-unsplash.jpg,Stimuli/Experimental_stims/objects/alexander-andrews-VLGWE_SumrA-unsplash.jpg,0,NaN,NaN,NaN,chosen,1800,0,5,1,50,50
197,82292,0,198,3,3,1,gain1,no_gain3,L,A,19,41,faces,objects,Stimuli/Experimental_stims/faces/joel-mott-LaK153ghdig-unsplash.jpg,Stimuli/Experimental_stims/objects/insung-yoon-w2JtIQQXoRU-unsplash.jpg,0,NaN,NaN,NaN,unchosen,1600,0,5,1,50,50
198,82292,0,199,3,3,1,gain4,no_gain6,D,K,14,46,faces,objects,Stimuli/Experimental_stims/faces/david-siglin-UuW4psOb388-unsplash.jpg,Stimuli/Experimental_stims/objects/mockup-graphics-PNsj6RiHAF4-unsplash.jpg,0,NaN,NaN,NaN,unchosen,2100,0,5,1,50,50
199,82292,0,200,3,3,1,gain2,no_gain4,B,J,16,39,faces,objects,Stimuli/Experimental_stims/faces/freddy-kearney-o-ioeoATbIM-unsplash.jpg,Stimuli/Experimental_stims/objects/charlesdeluvio-1-nx1QR5dTE-unsplash.jpg,0,NaN,NaN,NaN,unchosen,1700,0,5,1,50,50
200,82292,0,201,3,3,1,gain5,no_gain3,G,A,38,1,objects,outdoor_scenes,Stimuli/Experimental_stims/objects/art-lasovsky-8XddFc6NkBY-unsplash.jpg,Stimuli/Experimental_stims/outdoor_scenes/ashim-d-silva-S2Q5mdOrrVc-unsplash.jpg,0,NaN,NaN,NaN,chosen,3200,1,5,1,50,50
201,82292,0,202,3,3,0,no_gain6,gain4,K,D,30,37,body_parts,objects,Stimuli/Experimental_stims/body_parts/mika-korhonen-Xodzxosar18-unsplash.jpg,Stimuli/Experimental_stims/objects/alexander-andrews-VLGWE_SumrA-unsplash.jpg,0,NaN,NaN,NaN,chosen,1100,0,5,1,50,50
202,82292,0,203,3,3,1,gain2,no_gain2,B,C,16,34,faces,body_parts,Stimuli/Experimental_stims/faces/freddy-kearney-o-ioeoATbIM-unsplash.jpg,Stimuli/Experimental_stims/body_parts/wagner-santos-mBWMvIuVnso-unsplash.jpg,0,NaN,NaN,NaN,unchosen,2800,0,5,1,50,50
203,82292,0,204,3,3,1,gain2,no_gain5,B,E,5,45,outdoor_scenes,objects,Stimuli/Experimental_stims/outdoor_scenes/jeff-king-bJHWJeiHfHc-unsplash.jpg,Stimuli/Experimental_stims/objects/leohoho-rngTKHXumy0-unsplash.jpg,0,NaN,NaN,NaN,chosen,1400,0,5,1,50,50
204,82292,0,205,3,3,1,gain1,no_gain2,L,C,27,6,body_parts,outdoor_scenes,Stimuli/Experimental_stims/body_parts/heike-mintel-i_Gns0ELnLw-unsplash.jpg,Stimuli/Experimental_stims/outdoor_scenes/meng-ji-8BH_M-53CyA-unsplash.jpg,0,NaN,NaN,NaN,chosen,2200,0,5,1,50,50
205,82292,0,206,3,3,1,gain3,no_gain3,H,A,7,41,outdoor_scenes,objects,Stimuli/Experimental_stims/outdoor_scenes/petr-vysohlid-9fqwGqGLUxc-unsplash.jpg,Stimuli/Experimental_stims/objects/insung-yoon-w2JtIQQXoRU-unsplash.jpg,0,NaN,NaN,NaN,unchosen,1200,0,5,1,50,50
206,82292,0,207,3,3,0,no_gain6,gain5,K,G,30,38,body_parts,objects,Stimuli/Experimental_stims/body_parts/mika-korhonen-Xodzxosar18-unsplash.jpg,Stimuli/Experimental_stims/objects/art-lasovsky-8XddFc6NkBY-unsplash.jpg,0,NaN,NaN,NaN,chosen,2100,0,5,1,50,50
207,82292,0,208,3,3,1,gain1,no_gain5,L,E,27,45,body_parts,objects,Stimuli/Experimental_stims/body_parts/heike-mintel-i_Gns0ELnLw-unsplash.jpg,Stimuli/Experimental_stims/objects/leohoho-rngTKHXumy0-unsplash.jpg,0,NaN,NaN,NaN,chosen,2600,0,5,1,50,50
208,82292,0,209,3,3,0,no_gain2,gain3,C,H,34,7,body_parts,outdoor_scenes,Stimuli/Experimental_stims/body_parts/wagner-santos-mBWMvIuVnso-unsplash.jpg,Stimuli/Experimental_stims/outdoor_scenes/petr-vysohlid-9fqwGqGLUxc-unsplash.jpg,0,NaN,NaN,NaN,unchosen,3800,1,5,1,50,50
209,82292,0,210,3,3,0,no_gain6,gain1,K,L,30,27,body_parts,body_parts,Stimuli/Experimental_stims/body_parts/mika-korhonen-Xodzxosar18-unsplash.jpg,Stimuli/Experimental_stims/body_parts/heike-mintel-i_Gns0ELnLw-unsplash.jpg,0,NaN,NaN,NaN,chosen,2300,0,5,1,50,50
210,82292,0,211,3,3,1,gain3,no_gain2,H,C,18,6,faces,outdoor_scenes,Stimuli/Experimental_stims/faces/jessica-radanavong-mrYkTuAesKE-unsplash.jpg,Stimuli/Experimental_stims/outdoor_scenes/meng-ji-8BH_M-53CyA-unsplash.jpg,0,NaN,NaN,NaN,chosen,1500,0,5,1,50,50
211,82292,0,212,3,3,0,no_gain3,gain2,A,B,41,16,objects,faces,Stimuli/Experimental_stims/objects/insung-yoon-w2JtIQQXoRU-unsplash.jpg,Stimuli/Experimental_stims/faces/freddy-kearney-o-ioeoATbIM-unsplash.jpg,0,NaN,NaN,NaN,unchosen,1700,0,5,1,50,50
212,82292,0,213,3,3,1,gain5,no_gain5,G,E,2,31,outdoor_scenes,body_parts,Stimuli/Experimental_stims/outdoor_scenes/bruno-van-der-kraan-qez8mNJ3ilU-unsplash.jpg,Stimuli/Experimental_stims/body_parts/sincerely-media-VN6DbKajo5s-unsplash.jpg,0,NaN,NaN,NaN,unchosen,1000,0,5,1,50,50
213,82292,0,214,3,3,1,gain6,no_gain5,I,E,0,31,outdoor_scenes,body_parts,Stimuli/Experimental_stims/outdoor_scenes/aleksandra-boguslawska-MS7KD9Ti7FQ-unsplash.jpg,Stimuli/Experimental_stims/body_parts/sincerely-media-VN6DbKajo5s-unsplash.jpg,0,NaN,NaN,NaN,unchosen,2800,0,5,1,50,50
214,82292,0,215,3,3,0,no_gain1,gain5,F,G,17,38,faces,objects,Stimuli/Experimental_stims/faces/good-faces-xmSWVeGEnJw-unsplash.jpg,Stimuli/Experimental_stims/objects/art-lasovsky-8XddFc6NkBY-unsplash.jpg,0,NaN,NaN,NaN,chosen,2400,0,5,1,50,50
215,82292,0,216,3,3,0,no_gain1,gain5,F,G,28,2,body_parts,outdoor_scenes,Stimuli/Experimental_stims/body_parts/ira-vishnevskaya-8DQAvdCby1I-unsplash.jpg,Stimuli/Experimental_stims/outdoor_scenes/bruno-van-der-kraan-qez8mNJ3ilU-unsplash.jpg,0,NaN,NaN,NaN,unchosen,3800,1,5,1,50,50
216,82292,0,217,3,3,0,no_gain5,gain3,E,H,31,7,body_parts,outdoor_scenes,Stimuli/Experimental_stims/body_parts/sincerely-media-VN6DbKajo5s-unsplash.jpg,Stimuli/Experimental_stims/outdoor_scenes/petr-vysohlid-9fqwGqGLUxc-unsplash.jpg,0,NaN,NaN,NaN,unchosen,1500,0,5,1,50,50
217,82292,0,218,3,3,0,no_gain5,gain1,E,L,31,19,body_parts,faces,Stimuli/Experimental_stims/body_parts/sincerely-media-VN6DbKajo5s-unsplash.jpg,Stimuli/Experimental_stims/faces/joel-mott-LaK153ghdig-unsplash.jpg,0,NaN,NaN,NaN,unchosen,1100,0,5,1,50,50
218,82292,0,219,3,3,1,gain4,no_gain2,D,C,37,6,objects,outdoor_scenes,Stimuli/Experimental_stims/objects/alexander-andrews-VLGWE_SumrA-unsplash.jpg,Stimuli/Experimental_stims/outdoor_scenes/meng-ji-8BH_M-53CyA-unsplash.jpg,0,NaN,NaN,NaN,chosen,1500,0,5,1,50,50
219,82292,0,220,3,3,0,no_gain2,gain6,C,I,6,24,outdoor_scenes,body_parts,Stimuli/Experimental_stims/outdoor_scenes/meng-ji-8BH_M-53CyA-unsplash.jpg,Stimuli/Experimental_stims/body_parts/clay-banks-LjqARJaJotc-unsplash.jpg,0,NaN,NaN,NaN,chosen,2500,0,5,1,50,50
220,82292,0,221,4,4,0,no_gain5,gain1,E,L,31,19,body_parts,faces,Stimuli/Experimental_stims/body_parts/sincerely-media-VN6DbKajo5s-unsplash.jpg,Stimuli/Experimental_stims/faces/joel-mott-LaK153ghdig-unsplash.jpg,0,NaN,NaN,NaN,unchosen,3400,1,3,1,50,50
221,82292,0,222,4,4,0,no_gain5,gain4,E,D,45,37,objects,objects,Stimuli/Experimental_stims/objects/leohoho-rngTKHXumy0-unsplash.jpg,Stimuli/Experimental_stims/objects/alexander-andrews-VLGWE_SumrA-unsplash.jpg,0,NaN,NaN,NaN,chosen,1500,0,3,1,50,50
222,82292,0,223,4,4,0,no_gain2,gain3,C,H,34,7,body_parts,outdoor_scenes,Stimuli/Experimental_stims/body_parts/wagner-santos-mBWMvIuVnso-unsplash.jpg,Stimuli/Experimental_stims/outdoor_scenes/petr-vysohlid-9fqwGqGLUxc-unsplash.jpg,0,NaN,NaN,NaN,unchosen,2000,0,3,1,50,50
223,82292,0,224,4,4,0,no_gain4,gain3,J,H,39,7,objects,outdoor_scenes,Stimuli/Experimental_stims/objects/charlesdeluvio-1-nx1QR5dTE-unsplash.jpg,Stimuli/Experimental_stims/outdoor_scenes/petr-vysohlid-9fqwGqGLUxc-unsplash.jpg,0,NaN,NaN,NaN,unchosen,1100,0,3,1,50,50
224,82292,0,225,4,4,0,no_gain1,gain6,F,I,28,0,body_parts,outdoor_scenes,Stimuli/Experimental_stims/body_parts/ira-vishnevskaya-8DQAvdCby1I-unsplash.jpg,Stimuli/Experimental_stims/outdoor_scenes/aleksandra-boguslawska-MS7KD9Ti7FQ-unsplash.jpg,0,NaN,NaN,NaN,unchosen,2700,0,3,1,50,50
225,82292,0,226,4,4,0,no_gain4,gain2,J,B,13,5,faces,outdoor_scenes,Stimuli/Experimental_stims/faces/daniel-rigdon-dXmXKPP2L4E-unsplash.jpg,Stimuli/Experimental_stims/outdoor_scenes/jeff-king-bJHWJeiHfHc-unsplash.jpg,0,NaN,NaN,NaN,chosen,1700,0,3,1,50,50
226,82292,0,227,4,4,0,no_gain1,gain1,F,L,17,27,faces,body_parts,Stimuli/Experimental_stims/faces/good-faces-xmSWVeGEnJw-unsplash.jpg,Stimuli/Experimental_stims/body_parts/heike-mintel-i_Gns0ELnLw-unsplash.jpg,0,NaN,NaN,NaN,chosen,3500,1,3,1,50,50
227,82292,0,228,4,4,0,no_gain3,gain3,A,H,41,7,objects,outdoor_scenes,Stimuli/Experimental_stims/objects/insung-yoon-w2JtIQQXoRU-unsplash.jpg,Stimuli/Experimental_stims/outdoor_scenes/petr-vysohlid-9fqwGqGLUxc-unsplash.jpg,0,NaN,NaN,NaN,unchosen,2700,0,3,1,50,50
228,82292,0,229,4,4,1,gain4,no_gain5,D,E,14,31,faces,body_parts,Stimuli/Experimental_stims/faces/david-siglin-UuW4psOb388-unsplash.jpg,Stimuli/Experimental_stims/body_parts/sincerely-media-VN6DbKajo5s-unsplash.jpg,0,NaN,NaN,NaN,unchosen,1500,0,3,1,50,50
229,82292,0,230,4,4,0,no_gain6,gain1,K,L,30,27,body_parts,body_parts,Stimuli/Experimental_stims/body_parts/mika-korhonen-Xodzxosar18-unsplash.jpg,Stimuli/Experimental_stims/body_parts/heike-mintel-i_Gns0ELnLw-unsplash.jpg,0,NaN,NaN,NaN,chosen,1700,0,3,1,50,50
230,82292,0,231,4,4,0,no_gain1,gain2,F,B,28,16,body_parts,faces,Stimuli/Experimental_stims/body_parts/ira-vishnevskaya-8DQAvdCby1I-unsplash.jpg,Stimuli/Experimental_stims/faces/freddy-kearney-o-ioeoATbIM-unsplash.jpg,0,NaN,NaN,NaN,unchosen,2300,0,3,1,50,50
231,82292,0,232,4,4,0,no_gain4,gain6,J,I,13,24,faces,body_parts,Stimuli/Experimental_stims/faces/daniel-rigdon-dXmXKPP2L4E-unsplash.jpg,Stimuli/Experimental_stims/body_parts/clay-banks-LjqARJaJotc-unsplash.jpg,0,NaN,NaN,NaN,chosen,3100,1,3,1,50,50
232,82292,0,233,4,4,1,gain5,no_gain3,G,A,38,1,objects,outdoor_scenes,Stimuli/Experimental_stims/objects/art-lasovsky-8XddFc6NkBY-unsplash.jpg,Stimuli/Experimental_stims/outdoor_scenes/ashim-d-silva-S2Q5mdOrrVc-unsplash.jpg,0,NaN,NaN,NaN,chosen,1300,0,3,1,50,50
233,82292,0,234,4,4,1,gain1,no_gain3,L,A,27,1,body_parts,outdoor_scenes,Stimuli/Experimental_stims/body_parts/heike-mintel-i_Gns0ELnLw-unsplash.jpg,Stimuli/Experimental_stims/outdoor_scenes/ashim-d-silva-S2Q5mdOrrVc-unsplash.jpg,0,NaN,NaN,NaN,chosen,1400,0,3,1,50,50
234,82292,0,235,4,4,1,gain2,no_gain4,B,J,16,39,faces,objects,Stimuli/Experimental_stims/faces/freddy-kearney-o-ioeoATbIM-unsplash.jpg,Stimuli/Experimental_stims/objects/charlesdeluvio-1-nx1QR5dTE-unsplash.jpg,0,NaN,NaN,NaN,unchosen,2500,0,3,1,50,50
235,82292,0,236,4,4,1,gain2,no_gain5,B,E,16,31,faces,body_parts,Stimuli/Experimental_stims/faces/freddy-kearney-o-ioeoATbIM-unsplash.jpg,Stimuli/Experimental_stims/body_parts/sincerely-media-VN6DbKajo5s-unsplash.jpg,0,NaN,NaN,NaN,unchosen,1500,0,3,1,50,50
236,82292,0,237,4,4,1,gain4,no_gain1,D,F,14,28,faces,body_parts,Stimuli/Experimental_stims/faces/david-siglin-UuW4psOb388-unsplash.jpg,Stimuli/Experimental_stims/body_parts/ira-vishnevskaya-8DQAvdCby1I-unsplash.jpg,0,NaN,NaN,NaN,unchosen,1900,0,3,1,50,50
237,82292,0,238,4,4,1,gain6,no_gain3,I,A,24,1,body_parts,outdoor_scenes,Stimuli/Experimental_stims/body_parts/clay-banks-LjqARJaJotc-unsplash.jpg,Stimuli/Experimental_stims/outdoor_scenes/ashim-d-silva-S2Q5mdOrrVc-unsplash.jpg,0,NaN,NaN,NaN,chosen,1200,0,3,1,50,50
238,82292,0,239,4,4,1,gain2,no_gain5,B,E,5,45,outdoor_scenes,objects,Stimuli/Experimental_stims/outdoor_scenes/jeff-king-bJHWJeiHfHc-unsplash.jpg,Stimuli/Experimental_stims/objects/leohoho-rngTKHXumy0-unsplash.jpg,0,NaN,NaN,NaN,chosen,3500,1,3,1,50,50
239,82292,0,240,4,4,0,no_gain2,gain6,C,I,34,0,body_parts,outdoor_scenes,Stimuli/Experimental_stims/body_parts/wagner-santos-mBWMvIuVnso-unsplash.jpg,Stimuli/Experimental_stims/outdoor_scenes/aleksandra-boguslawska-MS7KD9Ti7FQ-unsplash.jpg,0,NaN,NaN,NaN,unchosen,1500,0,3,1,50,50
240,82292,0,241,4,4,1,gain5,no_gain6,G,K,38,30,objects,body_parts,Stimuli/Experimental_stims/objects/art-lasovsky-8XddFc6NkBY-unsplash.jpg,Stimuli/Experimental_stims/body_parts/mika-korhonen-Xodzxosar18-unsplash.jpg,0,NaN,NaN,NaN,chosen,2200,0,3,1,50,50
241,82292,0,242,4,4,1,gain6,no_gain2,I,C,24,6,body_parts,outdoor_scenes,Stimuli/Experimental_stims/body_parts/clay-banks-LjqARJaJotc-unsplash.jpg,Stimuli/Experimental_stims/outdoor_scenes/meng-ji-8BH_M-53CyA-unsplash.jpg,0,NaN,NaN,NaN,chosen,1100,0,3,1,50,50
242,82292,0,243,4,4,0,no_gain3,gain2,A,B,1,5,outdoor_scenes,outdoor_scenes,Stimuli/Experimental_stims/outdoor_scenes/ashim-d-silva-S2Q5mdOrrVc-unsplash.jpg,Stimuli/Experimental_stims/outdoor_scenes/jeff-king-bJHWJeiHfHc-unsplash.jpg,0,NaN,NaN,NaN,chosen,1300,0,3,1,50,50
243,82292,0,244,4,4,0,no_gain3,gain5,A,G,41,2,objects,outdoor_scenes,Stimuli/Experimental_stims/objects/insung-yoon-w2JtIQQXoRU-unsplash.jpg,Stimuli/Experimental_stims/outdoor_scenes/bruno-van-der-kraan-qez8mNJ3ilU-unsplash.jpg,0,NaN,NaN,NaN,unchosen,1500,0,3,1,50,50
244,82292,0,245,4,4,0,no_gain6,gain6,K,I,30,24,body_parts,body_parts,Stimuli/Experimental_stims/body_parts/mika-korhonen-Xodzxosar18-unsplash.jpg,Stimuli/Experimental_stims/body_parts/clay-banks-LjqARJaJotc-unsplash.jpg,0,NaN,NaN,NaN,chosen,1100,0,3,1,50,50
245,82292,0,246,4,4,1,gain3,no_gain6,H,K,18,30,faces,body_parts,Stimuli/Experimental_stims/faces/jessica-radanavong-mrYkTuAesKE-unsplash.jpg,Stimuli/Experimental_stims/body_parts/mika-korhonen-Xodzxosar18-unsplash.jpg,0,NaN,NaN,NaN,chosen,2000,0,3,1,50,50
246,82292,0,247,4,4,0,no_gain2,gain5,C,G,34,2,body_parts,outdoor_scenes,Stimuli/Experimental_stims/body_parts/wagner-santos-mBWMvIuVnso-unsplash.jpg,Stimuli/Experimental_stims/outdoor_scenes/bruno-van-der-kraan-qez8mNJ3ilU-unsplash.jpg,0,NaN,NaN,NaN,unchosen,4700,1,3,1,50,50
247,82292,0,248,4,4,0,no_gain1,gain3,F,H,17,18,faces,faces,Stimuli/Experimental_stims/faces/good-faces-xmSWVeGEnJw-unsplash.jpg,Stimuli/Experimental_stims/faces/jessica-radanavong-mrYkTuAesKE-unsplash.jpg,0,NaN,NaN,NaN,chosen,2400,0,3,1,50,50
248,82292,0,249,4,4,1,gain4,no_gain2,D,C,14,34,faces,body_parts,Stimuli/Experimental_stims/faces/david-siglin-UuW4psOb388-unsplash.jpg,Stimuli/Experimental_stims/body_parts/wagner-santos-mBWMvIuVnso-unsplash.jpg,0,NaN,NaN,NaN,unchosen,1100,0,3,1,50,50
249,82292,0,250,4,4,1,gain6,no_gain5,I,E,24,45,body_parts,objects,Stimuli/Experimental_stims/body_parts/clay-banks-LjqARJaJotc-unsplash.jpg,Stimuli/Experimental_stims/objects/leohoho-rngTKHXumy0-unsplash.jpg,0,NaN,NaN,NaN,chosen,2400,0,3,1,50,50
250,82292,0,251,4,4,1,gain4,no_gain6,D,K,14,46,faces,objects,Stimuli/Experimental_stims/faces/david-siglin-UuW4psOb388-unsplash.jpg,Stimuli/Experimental_stims/objects/mockup-graphics-PNsj6RiHAF4-unsplash.jpg,0,NaN,NaN,NaN,unchosen,1600,0,3,1,50,50
251,82292,0,252,4,4,0,no_gain1,gain1,F,L,28,19,body_parts,faces,Stimuli/Experimental_stims/body_parts/ira-vishnevskaya-8DQAvdCby1I-unsplash.jpg,Stimuli/Experimental_stims/faces/joel-mott-LaK153ghdig-unsplash.jpg,0,NaN,NaN,NaN,unchosen,2300,0,3,1,50,50
252,82292,0,253,4,4,0,no_gain3,gain4,A,D,1,37,outdoor_scenes,objects,Stimuli/Experimental_stims/outdoor_scenes/ashim-d-silva-S2Q5mdOrrVc-unsplash.jpg,Stimuli/Experimental_stims/objects/alexander-andrews-VLGWE_SumrA-unsplash.jpg,0,NaN,NaN,NaN,chosen,2500,0,3,1,50,50
253,82292,0,254,4,4,1,gain3,no_gain5,H,E,18,45,faces,objects,Stimuli/Experimental_stims/faces/jessica-radanavong-mrYkTuAesKE-unsplash.jpg,Stimuli/Experimental_stims/objects/leohoho-rngTKHXumy0-unsplash.jpg,0,NaN,NaN,NaN,chosen,3700,1,3,1,50,50
254,82292,0,255,4,4,1,gain2,no_gain1,B,F,5,17,outdoor_scenes,faces,Stimuli/Experimental_stims/outdoor_scenes/jeff-king-bJHWJeiHfHc-unsplash.jpg,Stimuli/Experimental_stims/faces/good-faces-xmSWVeGEnJw-unsplash.jpg,0,NaN,NaN,NaN,chosen,2100,0,3,1,50,50
255,82292,0,256,4,4,1,gain6,no_gain3,I,A,0,41,outdoor_scenes,objects,Stimuli/Experimental_stims/outdoor_scenes/aleksandra-boguslawska-MS7KD9Ti7FQ-unsplash.jpg,Stimuli/Experimental_stims/objects/insung-yoon-w2JtIQQXoRU-unsplash.jpg,0,NaN,NaN,NaN,unchosen,2300,0,3,1,50,50
256,82292,0,257,4,4,0,no_gain6,gain1,K,L,46,19,objects,faces,Stimuli/Experimental_stims/objects/mockup-graphics-PNsj6RiHAF4-unsplash.jpg,Stimuli/Experimental_stims/faces/joel-mott-LaK153ghdig-unsplash.jpg,0,NaN,NaN,NaN,unchosen,1700,0,3,1,50,50
257,82292,0,258,4,4,0,no_gain4,gain6,J,I,39,0,objects,outdoor_scenes,Stimuli/Experimental_stims/objects/charlesdeluvio-1-nx1QR5dTE-unsplash.jpg,Stimuli/Experimental_stims/outdoor_scenes/aleksandra-boguslawska-MS7KD9Ti7FQ-unsplash.jpg,0,NaN,NaN,NaN,unchosen,2900,0,3,1,50,50
258,82292,0,259,4,4,0,no_gain4,gain1,J,L,13,27,faces,body_parts,Stimuli/Experimental_stims/faces/daniel-rigdon-dXmXKPP2L4E-unsplash.jpg,Stimuli/Experimental_stims/body_parts/heike-mintel-i_Gns0ELnLw-unsplash.jpg,0,NaN,NaN,NaN,chosen,3000,1,3,1,50,50
259,82292,0,260,4,4,1,gain2,no_gain3,B,A,16,41,faces,objects,Stimuli/Experimental_stims/faces/freddy-kearney-o-ioeoATbIM-unsplash.jpg,Stimuli/Experimental_stims/objects/insung-yoon-w2JtIQQXoRU-unsplash.jpg,0,NaN,NaN,NaN,unchosen,2600,0,3,1,50,50
260,82292,0,261,4,4,0,no_gain6,gain5,K,G,46,2,objects,outdoor_scenes,Stimuli/Experimental_stims/objects/mockup-graphics-PNsj6RiHAF4-unsplash.jpg,Stimuli/Experimental_stims/outdoor_scenes/bruno-van-der-kraan-qez8mNJ3ilU-unsplash.jpg,0,NaN,NaN,NaN,unchosen,1700,0,3,1,50,50
261,82292,0,262,4,4,0,no_gain3,gain1,A,L,41,19,objects,faces,Stimuli/Experimental_stims/objects/insung-yoon-w2JtIQQXoRU-unsplash.jpg,Stimuli/Experimental_stims/faces/joel-mott-LaK153ghdig-unsplash.jpg,0,NaN,NaN,NaN,unchosen,1800,0,3,1,50,50
262,82292,0,263,4,4,1,gain5,no_gain5,G,E,38,45,objects,objects,Stimuli/Experimental_stims/objects/art-lasovsky-8XddFc6NkBY-unsplash.jpg,Stimuli/Experimental_stims/objects/leohoho-rngTKHXumy0-unsplash.jpg,0,NaN,NaN,NaN,chosen,1400,0,3,1,50,50
263,82292,0,264,4,4,0,no_gain2,gain1,C,L,6,27,outdoor_scenes,body_parts,Stimuli/Experimental_stims/outdoor_scenes/meng-ji-8BH_M-53CyA-unsplash.jpg,Stimuli/Experimental_stims/body_parts/heike-mintel-i_Gns0ELnLw-unsplash.jpg,0,NaN,NaN,NaN,chosen,2200,0,3,1,50,50
264,82292,0,265,4,4,0,no_gain2,gain1,C,L,34,19,body_parts,faces,Stimuli/Experimental_stims/body_parts/wagner-santos-mBWMvIuVnso-unsplash.jpg,Stimuli/Experimental_stims/faces/joel-mott-LaK153ghdig-unsplash.jpg,0,NaN,NaN,NaN,unchosen,3500,1,3,1,50,50
265,82292,0,266,4,4,1,gain3,no_gain3,H,A,18,1,faces,outdoor_scenes,Stimuli/Experimental_stims/faces/jessica-radanavong-mrYkTuAesKE-unsplash.jpg,Stimuli/Experimental_stims/outdoor_scenes/ashim-d-silva-S2Q5mdOrrVc-unsplash.jpg,0,NaN,NaN,NaN,chosen,1400,0,3,1,50,50
266,82292,0,267,4,4,0,no_gain2,gain4,C,D,6,37,outdoor_scenes,objects,Stimuli/Experimental_stims/outdoor_scenes/meng-ji-8BH_M-53CyA-unsplash.jpg,Stimuli/Experimental_stims/objects/alexander-andrews-VLGWE_SumrA-unsplash.jpg,0,NaN,NaN,NaN,chosen,1100,0,3,1,50,50
267,82292,0,268,4,4,1,gain6,no_gain1,I,F,24,17,body_parts,faces,Stimuli/Experimental_stims/body_parts/clay-banks-LjqARJaJotc-unsplash.jpg,Stimuli/Experimental_stims/faces/good-faces-xmSWVeGEnJw-unsplash.jpg,0,NaN,NaN,NaN,chosen,1300,0,3,1,50,50
268,82292,0,269,4,4,0,no_gain1,gain3,F,H,28,7,body_parts,outdoor_scenes,Stimuli/Experimental_stims/body_parts/ira-vishnevskaya-8DQAvdCby1I-unsplash.jpg,Stimuli/Experimental_stims/outdoor_scenes/petr-vysohlid-9fqwGqGLUxc-unsplash.jpg,0,NaN,NaN,NaN,unchosen,2600,0,3,1,50,50
269,82292,0,270,4,4,0,no_gain4,gain4,J,D,13,37,faces,objects,Stimuli/Experimental_stims/faces/daniel-rigdon-dXmXKPP2L4E-unsplash.jpg,Stimuli/Experimental_stims/objects/alexander-andrews-VLGWE_SumrA-unsplash.jpg,0,NaN,NaN,NaN,chosen,1100,0,3,1,50,50
270,82292,0,271,4,4,1,gain1,no_gain4,L,J,19,39,faces,objects,Stimuli/Experimental_stims/faces/joel-mott-LaK153ghdig-unsplash.jpg,Stimuli/Experimental_stims/objects/charlesdeluvio-1-nx1QR5dTE-unsplash.jpg,0,NaN,NaN,NaN,unchosen,1400,0,3,1,50,50
271,82292,0,272,4,4,1,gain4,no_gain3,D,A,14,41,faces,objects,Stimuli/Experimental_stims/faces/david-siglin-UuW4psOb388-unsplash.jpg,Stimuli/Experimental_stims/objects/insung-yoon-w2JtIQQXoRU-unsplash.jpg,0,NaN,NaN,NaN,unchosen,3200,1,3,1,50,50
272,82292,0,273,4,4,0,no_gain6,gain2,K,B,30,5,body_parts,outdoor_scenes,Stimuli/Experimental_stims/body_parts/mika-korhonen-Xodzxosar18-unsplash.jpg,Stimuli/Experimental_stims/outdoor_scenes/jeff-king-bJHWJeiHfHc-unsplash.jpg,0,NaN,NaN,NaN,chosen,1600,0,3,1,50,50
273,82292,0,274,4,4,0,no_gain2,gain5,C,G,6,38,outdoor_scenes,objects,Stimuli/Experimental_stims/outdoor_scenes/meng-ji-8BH_M-53CyA-unsplash.jpg,Stimuli/Experimental_stims/objects/art-lasovsky-8XddFc6NkBY-unsplash.jpg,0,NaN,NaN,NaN,chosen,1000,0,3,1,50,50
274,82292,0,275,4,4,1,gain1,no_gain5,L,E,27,45,body_parts,objects,Stimuli/Experimental_stims/body_parts/heike-mintel-i_Gns0ELnLw-unsplash.jpg,Stimuli/Experimental_stims/objects/leohoho-rngTKHXumy0-unsplash.jpg,0,NaN,NaN,NaN,chosen,1700,0,3,1,50,50
275,82292,0,276,4,4,1,gain4,no_gain4,D,J,14,39,faces,objects,Stimuli/Experimental_stims/faces/david-siglin-UuW4psOb388-unsplash.jpg,Stimuli/Experimental_stims/objects/charlesdeluvio-1-nx1QR5dTE-unsplash.jpg,0,NaN,NaN,NaN,unchosen,1200,0,3,1,50,50
276,82292,0,277,4,4,1,gain3,no_gain5,H,E,7,31,outdoor_scenes,body_parts,Stimuli/Experimental_stims/outdoor_scenes/petr-vysohlid-9fqwGqGLUxc-unsplash.jpg,Stimuli/Experimental_stims/body_parts/sincerely-media-VN6DbKajo5s-unsplash.jpg,0,NaN,NaN,NaN,unchosen,2200,0,3,1,50,50
277,82292,0,278,4,4,0,no_gain5,gain6,E,I,31,0,body_parts,outdoor_scenes,Stimuli/Experimental_stims/body_parts/sincerely-media-VN6DbKajo5s-unsplash.jpg,Stimuli/Experimental_stims/outdoor_scenes/aleksandra-boguslawska-MS7KD9Ti7FQ-unsplash.jpg,0,NaN,NaN,NaN,unchosen,2000,0,3,1,50,50
278,82292,0,279,4,4,1,gain3,no_gain4,H,J,18,13,faces,faces,Stimuli/Experimental_stims/faces/jessica-radanavong-mrYkTuAesKE-unsplash.jpg,Stimuli/Experimental_stims/faces/daniel-rigdon-dXmXKPP2L4E-unsplash.jpg,0,NaN,NaN,NaN,chosen,3100,1,3,1,50,50
279,82292,0,280,4,4,1,gain5,no_gain5,G,E,2,31,outdoor_scenes,body_parts,Stimuli/Experimental_stims/outdoor_scenes/bruno-van-der-kraan-qez8mNJ3ilU-unsplash.jpg,Stimuli/Experimental_stims/body_parts/sincerely-media-VN6DbKajo5s-unsplash.jpg,0,NaN,NaN,NaN,unchosen,2400,0,3,1,50,50
280,82292,0,281,4,4,1,gain4,no_gain1,D,F,37,17,objects,faces,Stimuli/Experimental_stims/objects/alexander-andrews-VLGWE_SumrA-unsplash.jpg,Stimuli/Experimental_stims/faces/good-faces-xmSWVeGEnJw-unsplash.jpg,0,NaN,NaN,NaN,chosen,1000,0,3,1,50,50
281,82292,0,282,4,4,0,no_gain1,gain5,F,G,17,38,faces,objects,Stimuli/Experimental_stims/faces/good-faces-xmSWVeGEnJw-unsplash.jpg,Stimuli/Experimental_stims/objects/art-lasovsky-8XddFc6NkBY-unsplash.jpg,0,NaN,NaN,NaN,chosen,1900,0,3,1,50,50
282,82292,0,283,4,4,0,no_gain4,gain5,J,G,39,2,objects,outdoor_scenes,Stimuli/Experimental_stims/objects/charlesdeluvio-1-nx1QR5dTE-unsplash.jpg,Stimuli/Experimental_stims/outdoor_scenes/bruno-van-der-kraan-qez8mNJ3ilU-unsplash.jpg,0,NaN,NaN,NaN,unchosen,2400,0,3,1,50,50
283,82292,0,284,4,4,1,gain2,no_gain2,B,C,5,6,outdoor_scenes,outdoor_scenes,Stimuli/Experimental_stims/outdoor_scenes/jeff-king-bJHWJeiHfHc-unsplash.jpg,Stimuli/Experimental_stims/outdoor_scenes/meng-ji-8BH_M-53CyA-unsplash.jpg,0,NaN,NaN,NaN,chosen,1300,0,3,1,50,50
284,82292,0,285,4,4,0,no_gain4,gain5,J,G,13,38,faces,objects,Stimuli/Experimental_stims/faces/daniel-rigdon-dXmXKPP2L4E-unsplash.jpg,Stimuli/Experimental_stims/objects/art-lasovsky-8XddFc6NkBY-unsplash.jpg,0,NaN,NaN,NaN,chosen,1600,0,3,1,50,50
285,82292,0,286,4,4,1,gain6,no_gain6,I,K,0,46,outdoor_scenes,objects,Stimuli/Experimental_stims/outdoor_scenes/aleksandra-boguslawska-MS7KD9Ti7FQ-unsplash.jpg,Stimuli/Experimental_stims/objects/mockup-graphics-PNsj6RiHAF4-unsplash.jpg,0,NaN,NaN,NaN,unchosen,1000,0,3,1,50,50
286,82292,0,287,4,4,0,no_gain6,gain4,K,D,30,37,body_parts,objects,Stimuli/Experimental_stims/body_parts/mika-korhonen-Xodzxosar18-unsplash.jpg,Stimuli/Experimental_stims/objects/alexander-andrews-VLGWE_SumrA-unsplash.jpg,0,NaN,NaN,NaN,chosen,1500,0,3,1,50,50
287,82292,0,288,4,4,1,gain5,no_gain1,G,F,2,28,outdoor_scenes,body_parts,Stimuli/Experimental_stims/outdoor_scenes/bruno-van-der-kraan-qez8mNJ3ilU-unsplash.jpg,Stimuli/Experimental_stims/body_parts/ira-vishnevskaya-8DQAvdCby1I-unsplash.jpg,0,NaN,NaN,NaN,unchosen,1900,0,3,1,50,50
288,82292,0,289,4,4,1,gain3,no_gain2,H,C,18,6,faces,outdoor_scenes,Stimuli/Experimental_stims/faces/jessica-radanavong-mrYkTuAesKE-unsplash.jpg,Stimuli/Experimental_stims/outdoor_scenes/meng-ji-8BH_M-53CyA-unsplash.jpg,0,NaN,NaN,NaN,chosen,1600,0,3,1,50,50
289,82292,0,290,4,4,1,gain3,no_gain6,H,K,7,46,outdoor_scenes,objects,Stimuli/Experimental_stims/outdoor_scenes/petr-vysohlid-9fqwGqGLUxc-unsplash.jpg,Stimuli/Experimental_stims/objects/mockup-graphics-PNsj6RiHAF4-unsplash.jpg,0,NaN,NaN,NaN,unchosen,1200,0,3,1,50,50
290,82292,0,291,4,4,1,gain2,no_gain2,B,C,16,34,faces,body_parts,Stimuli/Experimental_stims/faces/freddy-kearney-o-ioeoATbIM-unsplash.jpg,Stimuli/Experimental_stims/body_parts/wagner-santos-mBWMvIuVnso-unsplash.jpg,0,NaN,NaN,NaN,unchosen,1000,0,3,1,50,50
291,82292,0,292,4,4,1,gain2,no_gain6,B,K,16,46,faces,objects,Stimuli/Experimental_stims/faces/freddy-kearney-o-ioeoATbIM-unsplash.jpg,Stimuli/Experimental_stims/objects/mockup-graphics-PNsj6RiHAF4-unsplash.jpg,0,NaN,NaN,NaN,unchosen,3200,1,3,1,50,50