,PID,practice,trial,block,run,gain_left,left_item_id,right_item_id,left_pair_id,right_pair_id,left_stimulus,right_stimulus,left_category,left_rating,right_rating,right_category,left_path,right_path,no_response,left_chosen,rt,higher_outcome_chosen,choice_type,chosen_stimulus,unchosen_stimulus,chosen_category,unchosen_category,iti,long_iti,simulation,version
0,56445,1,1,0,0,0,,,,,,,,,,,Stimuli/Practice_stims/Final_decisions/debby-hudson-FmCSSSGge-0-unsplash.jpg,Stimuli/Practice_stims/Final_decisions/yassine-khalfalli-adsQ9d_Cx0c-unsplash.jpg,1,NaN,,NaN,,NaN,NaN,NaN,NaN,3000,0,7,2
1,56445,1,2,0,0,0,,,,,,,,,,,Stimuli/Practice_stims/Final_decisions/florian-wehde-iVW7mZPwd4g-unsplash.jpg,Stimuli/Practice_stims/Final_decisions/patrick-perkins-3wylDrjxH-E-unsplash.jpg,1,NaN,,NaN,,NaN,NaN,NaN,NaN,1500,0,7,2
2,56445,1,3,0,0,0,,,,,,,,,,,Stimuli/Practice_stims/Final_decisions/debby-hudson-FmCSSSGge-0-unsplash.jpg,Stimuli/Practice_stims/Final_decisions/florian-wehde-iVW7mZPwd4g-unsplash.jpg,1,NaN,,NaN,,NaN,NaN,NaN,NaN,2000,0,7,2
3,56445,1,4,0,0,0,,,,,,,,,,,Stimuli/Practice_stims/Final_decisions/yassine-khalfalli-adsQ9d_Cx0c-unsplash.jpg,Stimuli/Practice_stims/Final_decisions/debby-hudson-FmCSSSGge-0-unsplash.jpg,1,NaN,,NaN,,NaN,NaN,NaN,NaN,1000,0,7,2
4,56445,0,5,1,1,1,gain2,no_gain3,L,F,17,24,faces,50,50,body_parts,Stimuli/Experimental_stims/faces/good-faces-xmSWVeGEnJw-unsplash.jpg,Stimuli/Experimental_stims/body_parts/clay-banks-LjqARJaJotc-unsplash.jpg,1,NaN,,NaN,unchosen,NaN,NaN,NaN,NaN,4100,1,7,2
5,56445,0,6,1,1,1,gain3,no_gain5,I,E,32,43,body_parts,50,50,objects,Stimuli/Experimental_stims/body_parts/towfiqu-barbhuiya-3AsiVDsZnHg-unsplash.jpg,Stimuli/Experimental_stims/objects/jonathan-greenaway-Y4hGgeiFn3s-unsplash.jpg,1,NaN,,NaN,chosen,NaN,NaN,NaN,NaN,1200,0,7,2
6,56445,0,7,1,1,1,gain1,no_gain3,G,F,36,15,objects,50,50,faces,Stimuli/Experimental_stims/objects/alexander-andrews-JYGnB9gTCls-unsplash.jpg,Stimuli/Experimental_stims/faces/erik-lucatero-d2MSDujJl2g-unsplash.jpg,1,NaN,,NaN,chosen,NaN,NaN,NaN,NaN,2600,0,7,2
7,56445,0,8,1,1,1,gain2,no_gain4,L,A,26,8,body_parts,50,50,outdoor_scenes,Stimuli/Experimental_stims/body_parts/engin-akyurt-x_3gyC42btc-unsplash.jpg,Stimuli/Experimental_stims/outdoor_scenes/samsommer-vddccTqwal8-unsplash.jpg,0,1,28,1,chosen,26,8,body_parts,outdoor_scenes,2000,0,7,2
8,56445,0,9,1,1,0,no_gain5,gain1,E,G,34,9,body_parts,50,50,outdoor_scenes,Stimuli/Experimental_stims/body_parts/wagner-santos-mBWMvIuVnso-unsplash.jpg,Stimuli/Experimental_stims/outdoor_scenes/sergey-pesterev-y-b_FOmJXdg-unsplash.jpg,0,1,95,0,unchosen,34,9,body_parts,outdoor_scenes,1200,0,7,2
9,56445,0,10,1,1,0,no_gain4,gain3,A,I,8,32,outdoor_scenes,50,50,body_parts,Stimuli/Experimental_stims/outdoor_scenes/samsommer-vddccTqwal8-unsplash.jpg,Stimuli/Experimental_stims/body_parts/towfiqu-barbhuiya-3AsiVDsZnHg-unsplash.jpg,0,1,68,0,chosen,8,32,outdoor_scenes,body_parts,3200,1,7,2
10,56445,0,11,1,1,0,no_gain1,gain3,J,I,13,32,faces,50,50,body_parts,Stimuli/Experimental_stims/faces/daniel-rigdon-dXmXKPP2L4E-unsplash.jpg,Stimuli/Experimental_stims/body_parts/towfiqu-barbhuiya-3AsiVDsZnHg-unsplash.jpg,0,1,76,0,chosen,13,32,faces,body_parts,1200,0,7,2
11,56445,0,12,1,1,0,no_gain2,gain1,K,G,29,36,body_parts,50,50,objects,Stimuli/Experimental_stims/body_parts/manuel-schinner-ZwjFuJ7ebpk-unsplash.jpg,Stimuli/Experimental_stims/objects/alexander-andrews-JYGnB9gTCls-unsplash.jpg,0,1,93,0,chosen,29,36,body_parts,objects,1800,0,7,2
12,56445,0,13,1,1,1,gain2,no_gain1,L,J,17,42,faces,50,50,objects,Stimuli/Experimental_stims/faces/good-faces-xmSWVeGEnJw-unsplash.jpg,Stimuli/Experimental_stims/objects/jess-bailey-nOeVi8DsN8U-unsplash.jpg,0,1,65,1,unchosen,17,42,faces,objects,1600,0,7,2
13,56445,0,14,1,1,0,no_gain6,gain6,C,H,30,11,body_parts,50,50,outdoor_scenes,Stimuli/Experimental_stims/body_parts/mika-korhonen-Xodzxosar18-unsplash.jpg,Stimuli/Experimental_stims/outdoor_scenes/stephen-leonardi-gyIRjKPXupE-unsplash.jpg,0,1,83,0,unchosen,30,11,body_parts,outdoor_scenes,1300,0,7,2
14,56445,0,15,1,1,0,no_gain1,gain5,J,D,42,21,objects,50,50,faces,Stimuli/Experimental_stims/objects/jess-bailey-nOeVi8DsN8U-unsplash.jpg,Stimuli/Experimental_stims/faces/leilani-angel-K84vnnzxmTQ-unsplash.jpg,0,1,71,0,unchosen,42,21,objects,faces,1900,0,7,2
15,56445,0,16,1,1,0,no_gain3,gain2,F,L,15,26,faces,50,50,body_parts,Stimuli/Experimental_stims/faces/erik-lucatero-d2MSDujJl2g-unsplash.jpg,Stimuli/Experimental_stims/body_parts/engin-akyurt-x_3gyC42btc-unsplash.jpg,0,1,80,0,chosen,15,26,faces,body_parts,4100,1,7,2
16,56445,0,17,1,1,1,gain4,no_gain2,B,K,22,40,faces,50,50,objects,Stimuli/Experimental_stims/faces/ravi-patel-VMGAbeeJTKo-unsplash.jpg,Stimuli/Experimental_stims/objects/fabian-blank-pElSkGRA2NU-unsplash.jpg,0,1,69,1,unchosen,22,40,faces,objects,1100,0,7,2
17,56445,0,18,1,1,1,gain6,no_gain2,H,K,18,29,faces,50,50,body_parts,Stimuli/Experimental_stims/faces/jessica-radanavong-mrYkTuAesKE-unsplash.jpg,Stimuli/Experimental_stims/body_parts/manuel-schinner-ZwjFuJ7ebpk-unsplash.jpg,0,1,87,1,chosen,18,29,faces,body_parts,1200,0,7,2
18,56445,0,19,1,1,1,gain5,no_gain4,D,A,21,46,faces,50,50,objects,Stimuli/Experimental_stims/faces/leilani-angel-K84vnnzxmTQ-unsplash.jpg,Stimuli/Experimental_stims/objects/mockup-graphics-PNsj6RiHAF4-unsplash.jpg,0,1,67,1,unchosen,21,46,faces,objects,1400,0,7,2
19,56445,0,20,1,1,0,no_gain4,gain1,A,G,8,36,outdoor_scenes,50,50,objects,Stimuli/Experimental_stims/outdoor_scenes/samsommer-vddccTqwal8-unsplash.jpg,Stimuli/Experimental_stims/objects/alexander-andrews-JYGnB9gTCls-unsplash.jpg,0,1,79,0,chosen,8,36,outdoor_scenes,objects,1300,0,7,2
20,56445,0,21,1,1,1,gain6,no_gain6,H,C,18,7,faces,50,50,outdoor_scenes,Stimuli/Experimental_stims/faces/jessica-radanavong-mrYkTuAesKE-unsplash.jpg,Stimuli/Experimental_stims/outdoor_scenes/petr-vysohlid-9fqwGqGLUxc-unsplash.jpg,0,1,71,1,chosen,18,7,faces,outdoor_scenes,4600,1,7,2
21,56445,0,22,1,1,0,no_gain1,gain3,J,I,42,4,objects,50,50,outdoor_scenes,Stimuli/Experimental_stims/objects/jess-bailey-nOeVi8DsN8U-unsplash.jpg,Stimuli/Experimental_stims/outdoor_scenes/jarrett-kow-1ZOyYPOBn7I-unsplash.jpg,0,1,76,0,unchosen,42,4,objects,outdoor_scenes,1000,0,7,2
22,56445,0,23,1,1,1,gain4,no_gain4,B,A,6,8,outdoor_scenes,50,50,outdoor_scenes,Stimuli/Experimental_stims/outdoor_scenes/meng-ji-8BH_M-53CyA-unsplash.jpg,Stimuli/Experimental_stims/outdoor_scenes/samsommer-vddccTqwal8-unsplash.jpg,0,1,82,1,chosen,6,8,outdoor_scenes,outdoor_scenes,1100,0,7,2
23,56445,0,24,1,1,0,no_gain1,gain4,J,B,42,22,objects,50,50,faces,Stimuli/Experimental_stims/objects/jess-bailey-nOeVi8DsN8U-unsplash.jpg,Stimuli/Experimental_stims/faces/ravi-patel-VMGAbeeJTKo-unsplash.jpg,0,1,91,0,unchosen,42,22,objects,faces,1700,0,7,2
24,56445,0,25,1,1,0,no_gain3,gain5,F,D,24,21,body_parts,50,50,faces,Stimuli/Experimental_stims/body_parts/clay-banks-LjqARJaJotc-unsplash.jpg,Stimuli/Experimental_stims/faces/leilani-angel-K84vnnzxmTQ-unsplash.jpg,0,1,88,0,unchosen,24,21,body_parts,faces,2800,0,7,2
25,56445,0,26,1,1,1,gain4,no_gain3,B,F,6,15,outdoor_scenes,50,50,faces,Stimuli/Experimental_stims/outdoor_scenes/meng-ji-8BH_M-53CyA-unsplash.jpg,Stimuli/Experimental_stims/faces/erik-lucatero-d2MSDujJl2g-unsplash.jpg,0,1,72,1,chosen,6,15,outdoor_scenes,faces,3200,1,7,2
26,56445,0,27,1,1,1,gain5,no_gain6,D,C,39,7,objects,50,50,outdoor_scenes,Stimuli/Experimental_stims/objects/charlesdeluvio-1-nx1QR5dTE-unsplash.jpg,Stimuli/Experimental_stims/outdoor_scenes/petr-vysohlid-9fqwGqGLUxc-unsplash.jpg,0,1,82,1,chosen,39,7,objects,outdoor_scenes,2000,0,7,2
27,56445,0,28,1,1,0,no_gain3,gain3,F,I,24,4,body_parts,50,50,outdoor_scenes,Stimuli/Experimental_stims/body_parts/clay-banks-LjqARJaJotc-unsplash.jpg,Stimuli/Experimental_stims/outdoor_scenes/jarrett-kow-1ZOyYPOBn7I-unsplash.jpg,0,1,88,0,unchosen,24,4,body_parts,outdoor_scenes,1600,0,7,2
28,56445,0,29,1,1,1,gain6,no_gain3,H,F,18,15,faces,50,50,faces,Stimuli/Experimental_stims/faces/jessica-radanavong-mrYkTuAesKE-unsplash.jpg,Stimuli/Experimental_stims/faces/erik-lucatero-d2MSDujJl2g-unsplash.jpg,0,1,81,1,chosen,18,15,faces,faces,1300,0,7,2
29,56445,0,30,1,1,1,gain5,no_gain5,D,E,21,34,faces,50,50,body_parts,Stimuli/Experimental_stims/faces/leilani-angel-K84vnnzxmTQ-unsplash.jpg,Stimuli/Experimental_stims/body_parts/wagner-santos-mBWMvIuVnso-unsplash.jpg,0,1,101,1,unchosen,21,34,faces,body_parts,1200,0,7,2
30,56445,0,31,1,1,0,no_gain6,gain3,C,I,30,4,body_parts,50,50,outdoor_scenes,Stimuli/Experimental_stims/body_parts/mika-korhonen-Xodzxosar18-unsplash.jpg,Stimuli/Experimental_stims/outdoor_scenes/jarrett-kow-1ZOyYPOBn7I-unsplash.jpg,0,1,84,0,unchosen,30,4,body_parts,outdoor_scenes,3500,1,7,2
31,56445,0,32,1,1,0,no_gain1,gain1,J,G,13,36,faces,50,50,objects,Stimuli/Experimental_stims/faces/daniel-rigdon-dXmXKPP2L4E-unsplash.jpg,Stimuli/Experimental_stims/objects/alexander-andrews-JYGnB9gTCls-unsplash.jpg,0,1,87,0,chosen,13,36,faces,objects,1800,0,7,2
32,56445,0,33,1,1,0,no_gain5,gain6,E,H,34,11,body_parts,50,50,outdoor_scenes,Stimuli/Experimental_stims/body_parts/wagner-santos-mBWMvIuVnso-unsplash.jpg,Stimuli/Experimental_stims/outdoor_scenes/stephen-leonardi-gyIRjKPXupE-unsplash.jpg,0,1,74,0,unchosen,34,11,body_parts,outdoor_scenes,1600,0,7,2
33,56445,0,34,1,1,0,no_gain1,gain5,J,D,13,39,faces,50,50,objects,Stimuli/Experimental_stims/faces/daniel-rigdon-dXmXKPP2L4E-unsplash.jpg,Stimuli/Experimental_stims/objects/charlesdeluvio-1-nx1QR5dTE-unsplash.jpg,0,1,76,0,chosen,13,39,faces,objects,2000,0,7,2
34,56445,0,35,1,1,0,no_gain5,gain5,E,D,43,39,objects,50,50,objects,Stimuli/Experimental_stims/objects/jonathan-greenaway-Y4hGgeiFn3s-unsplash.jpg,Stimuli/Experimental_stims/objects/charlesdeluvio-1-nx1QR5dTE-unsplash.jpg,0,1,54,0,chosen,43,39,objects,objects,1100,0,7,2
35,56445,0,36,1,1,1,gain1,no_gain2,G,K,9,40,outdoor_scenes,50,50,objects,Stimuli/Experimental_stims/outdoor_scenes/sergey-pesterev-y-b_FOmJXdg-unsplash.jpg,Stimuli/Experimental_stims/objects/fabian-blank-pElSkGRA2NU-unsplash.jpg,0,1,74,1,unchosen,9,40,outdoor_scenes,objects,2800,0,7,2
36,56445,0,37,1,1,0,no_gain2,gain5,K,D,29,39,body_parts,50,50,objects,Stimuli/Experimental_stims/body_parts/manuel-schinner-ZwjFuJ7ebpk-unsplash.jpg,Stimuli/Experimental_stims/objects/charlesdeluvio-1-nx1QR5dTE-unsplash.jpg,0,1,59,0,chosen,29,39,body_parts,objects,3100,1,7,2
37,56445,0,38,1,1,0,no_gain4,gain2,A,L,46,17,objects,50,50,faces,Stimuli/Experimental_stims/objects/mockup-graphics-PNsj6RiHAF4-unsplash.jpg,Stimuli/Experimental_stims/faces/good-faces-xmSWVeGEnJw-unsplash.jpg,0,1,86,0,unchosen,46,17,objects,faces,1100,0,7,2
38,56445,0,39,1,1,0,no_gain4,gain1,A,G,46,9,objects,50,50,outdoor_scenes,Stimuli/Experimental_stims/objects/mockup-graphics-PNsj6RiHAF4-unsplash.jpg,Stimuli/Experimental_stims/outdoor_scenes/sergey-pesterev-y-b_FOmJXdg-unsplash.jpg,0,1,64,0,unchosen,46,9,objects,outdoor_scenes,1100,0,7,2
39,56445,0,40,1,1,1,gain2,no_gain1,L,J,26,13,body_parts,50,50,faces,Stimuli/Experimental_stims/body_parts/engin-akyurt-x_3gyC42btc-unsplash.jpg,Stimuli/Experimental_stims/faces/daniel-rigdon-dXmXKPP2L4E-unsplash.jpg,1,NaN,,NaN,chosen,NaN,NaN,NaN,NaN,1100,0,7,2
40,56445,0,41,1,1,1,gain2,no_gain5,L,E,17,34,faces,50,50,body_parts,Stimuli/Experimental_stims/faces/good-faces-xmSWVeGEnJw-unsplash.jpg,Stimuli/Experimental_stims/body_parts/wagner-santos-mBWMvIuVnso-unsplash.jpg,1,NaN,,NaN,unchosen,NaN,NaN,NaN,NaN,2300,0,7,2
41,56445,0,42,1,1,1,gain6,no_gain3,H,F,11,24,outdoor_scenes,50,50,body_parts,Stimuli/Experimental_stims/outdoor_scenes/stephen-leonardi-gyIRjKPXupE-unsplash.jpg,Stimuli/Experimental_stims/body_parts/clay-banks-LjqARJaJotc-unsplash.jpg,1,NaN,,NaN,unchosen,NaN,NaN,NaN,NaN,3700,1,7,2
42,56445,0,43,1,1,0,no_gain6,gain5,C,D,30,21,body_parts,50,50,faces,Stimuli/Experimental_stims/body_parts/mika-korhonen-Xodzxosar18-unsplash.jpg,Stimuli/Experimental_stims/faces/leilani-angel-K84vnnzxmTQ-unsplash.jpg,1,NaN,,NaN,unchosen,NaN,NaN,NaN,NaN,2400,0,7,2
43,56445,0,44,1,1,0,no_gain5,gain6,E,H,43,18,objects,50,50,faces,Stimuli/Experimental_stims/objects/jonathan-greenaway-Y4hGgeiFn3s-unsplash.jpg,Stimuli/Experimental_stims/faces/jessica-radanavong-mrYkTuAesKE-unsplash.jpg,1,NaN,,NaN,chosen,NaN,NaN,NaN,NaN,1400,0,7,2
44,56445,0,45,1,1,0,no_gain2,gain6,K,H,40,11,objects,50,50,outdoor_scenes,Stimuli/Experimental_stims/objects/fabian-blank-pElSkGRA2NU-unsplash.jpg,Stimuli/Experimental_stims/outdoor_scenes/stephen-leonardi-gyIRjKPXupE-unsplash.jpg,1,NaN,,NaN,unchosen,NaN,NaN,NaN,NaN,2500,0,7,2
45,56445,0,46,1,1,1,gain6,no_gain1,H,J,18,13,faces,50,50,faces,Stimuli/Experimental_stims/faces/jessica-radanavong-mrYkTuAesKE-unsplash.jpg,Stimuli/Experimental_stims/faces/daniel-rigdon-dXmXKPP2L4E-unsplash.jpg,1,NaN,,NaN,chosen,NaN,NaN,NaN,NaN,2600,0,7,2
46,56445,0,47,1,1,1,gain2,no_gain2,L,K,26,29,body_parts,50,50,body_parts,Stimuli/Experimental_stims/body_parts/engin-akyurt-x_3gyC42btc-unsplash.jpg,Stimuli/Experimental_stims/body_parts/manuel-schinner-ZwjFuJ7ebpk-unsplash.jpg,1,NaN,,NaN,chosen,NaN,NaN,NaN,NaN,1100,0,7,2
47,56445,0,48,1,1,0,no_gain6,gain1,C,G,30,9,body_parts,50,50,outdoor_scenes,Stimuli/Experimental_stims/body_parts/mika-korhonen-Xodzxosar18-unsplash.jpg,Stimuli/Experimental_stims/outdoor_scenes/sergey-pesterev-y-b_FOmJXdg-unsplash.jpg,1,NaN,,NaN,unchosen,NaN,NaN,NaN,NaN,4800,1,7,2
48,56445,0,49,1,1,1,gain4,no_gain3,B,F,22,24,faces,50,50,body_parts,Stimuli/Experimental_stims/faces/ravi-patel-VMGAbeeJTKo-unsplash.jpg,Stimuli/Experimental_stims/body_parts/clay-banks-LjqARJaJotc-unsplash.jpg,1,NaN,,NaN,unchosen,NaN,NaN,NaN,NaN,1600,0,7,2
49,56445,0,50,1,1,1,gain6,no_gain4,H,A,18,8,faces,50,50,outdoor_scenes,Stimuli/Experimental_stims/faces/jessica-radanavong-mrYkTuAesKE-unsplash.jpg,Stimuli/Experimental_stims/outdoor_scenes/samsommer-vddccTqwal8-unsplash.jpg,1,NaN,,NaN,chosen,NaN,NaN,NaN,NaN,2800,0,7,2
50,56445,0,51,1,1,1,gain1,no_gain3,G,F,9,24,outdoor_scenes,50,50,body_parts,Stimuli/Experimental_stims/outdoor_scenes/sergey-pesterev-y-b_FOmJXdg-unsplash.jpg,Stimuli/Experimental_stims/body_parts/clay-banks-LjqARJaJotc-unsplash.jpg,1,NaN,,NaN,unchosen,NaN,NaN,NaN,NaN,2300,0,7,2
51,56445,0,52,1,1,1,gain3,no_gain5,I,E,4,34,outdoor_scenes,50,50,body_parts,Stimuli/Experimental_stims/outdoor_scenes/jarrett-kow-1ZOyYPOBn7I-unsplash.jpg,Stimuli/Experimental_stims/body_parts/wagner-santos-mBWMvIuVnso-unsplash.jpg,1,NaN,,NaN,unchosen,NaN,NaN,NaN,NaN,2400,0,7,2
52,56445,0,53,1,1,1,gain4,no_gain4,B,A,22,46,faces,50,50,objects,Stimuli/Experimental_stims/faces/ravi-patel-VMGAbeeJTKo-unsplash.jpg,Stimuli/Experimental_stims/objects/mockup-graphics-PNsj6RiHAF4-unsplash.jpg,0,1,82,1,unchosen,22,46,faces,objects,1800,0,7,2
53,56445,0,54,1,1,0,no_gain6,gain1,C,G,7,36,outdoor_scenes,50,50,objects,Stimuli/Experimental_stims/outdoor_scenes/petr-vysohlid-9fqwGqGLUxc-unsplash.jpg,Stimuli/Experimental_stims/objects/alexander-andrews-JYGnB9gTCls-unsplash.jpg,0,1,46,0,chosen,7,36,outdoor_scenes,objects,1500,0,7,2
54,56445,0,55,1,1,1,gain6,no_gain4,H,A,11,46,outdoor_scenes,50,50,objects,Stimuli/Experimental_stims/outdoor_scenes/stephen-leonardi-gyIRjKPXupE-unsplash.jpg,Stimuli/Experimental_stims/objects/mockup-graphics-PNsj6RiHAF4-unsplash.jpg,0,1,42,1,unchosen,11,46,outdoor_scenes,objects,1900,0,7,2
55,56445,0,56,1,1,1,gain3,no_gain2,I,K,4,40,outdoor_scenes,50,50,objects,Stimuli/Experimental_stims/outdoor_scenes/jarrett-kow-1ZOyYPOBn7I-unsplash.jpg,Stimuli/Experimental_stims/objects/fabian-blank-pElSkGRA2NU-unsplash.jpg,0,1,47,1,unchosen,4,40,outdoor_scenes,objects,1100,0,7,2
56,56445,0,57,1,1,0,no_gain2,gain2,K,L,40,17,objects,50,50,faces,Stimuli/Experimental_stims/objects/fabian-blank-pElSkGRA2NU-unsplash.jpg,Stimuli/Experimental_stims/faces/good-faces-xmSWVeGEnJw-unsplash.jpg,0,1,50,0,unchosen,40,17,objects,faces,1700,0,7,2
57,56445,0,58,1,1,1,gain5,no_gain3,D,F,39,15,objects,50,50,faces,Stimuli/Experimental_stims/objects/charlesdeluvio-1-nx1QR5dTE-unsplash.jpg,Stimuli/Experimental_stims/faces/erik-lucatero-d2MSDujJl2g-unsplash.jpg,0,1,51,1,chosen,39,15,objects,faces,1600,0,7,2
58,56445,0,59,1,1,1,gain6,no_gain1,H,J,11,42,outdoor_scenes,50,50,objects,Stimuli/Experimental_stims/outdoor_scenes/stephen-leonardi-gyIRjKPXupE-unsplash.jpg,Stimuli/Experimental_stims/objects/jess-bailey-nOeVi8DsN8U-unsplash.jpg,0,1,46,1,unchosen,11,42,outdoor_scenes,objects,1700,0,7,2
59,56445,0,60,1,1,0,no_gain5,gain4,E,B,43,6,objects,50,50,outdoor_scenes,Stimuli/Experimental_stims/objects/jonathan-greenaway-Y4hGgeiFn3s-unsplash.jpg,Stimuli/Experimental_stims/outdoor_scenes/meng-ji-8BH_M-53CyA-unsplash.jpg,0,1,39,0,chosen,43,6,objects,outdoor_scenes,3000,0,7,2
60,56445,0,61,1,1,1,gain3,no_gain6,I,C,32,7,body_parts,50,50,outdoor_scenes,Stimuli/Experimental_stims/body_parts/towfiqu-barbhuiya-3AsiVDsZnHg-unsplash.jpg,Stimuli/Experimental_stims/outdoor_scenes/petr-vysohlid-9fqwGqGLUxc-unsplash.jpg,0,1,40,1,chosen,32,7,body_parts,outdoor_scenes,2100,0,7,2
61,56445,0,62,1,1,1,gain5,no_gain2,D,K,21,40,faces,50,50,objects,Stimuli/Experimental_stims/faces/leilani-angel-K84vnnzxmTQ-unsplash.jpg,Stimuli/Experimental_stims/objects/fabian-blank-pElSkGRA2NU-unsplash.jpg,0,1,59,1,unchosen,21,40,faces,objects,3200,1,7,2
62,56445,0,63,1,1,1,gain1,no_gain5,G,E,36,43,objects,50,50,objects,Stimuli/Experimental_stims/objects/alexander-andrews-JYGnB9gTCls-unsplash.jpg,Stimuli/Experimental_stims/objects/jonathan-greenaway-Y4hGgeiFn3s-unsplash.jpg,0,0,59,0,chosen,43,36,objects,objects,1600,0,7,2
63,56445,0,64,1,1,0,no_gain2,gain4,K,B,29,6,body_parts,50,50,outdoor_scenes,Stimuli/Experimental_stims/body_parts/manuel-schinner-ZwjFuJ7ebpk-unsplash.jpg,Stimuli/Experimental_stims/outdoor_scenes/meng-ji-8BH_M-53CyA-unsplash.jpg,0,0,51,1,chosen,6,29,outdoor_scenes,body_parts,1300,0,7,2
64,56445,0,65,1,1,0,no_gain1,gain1,J,G,42,9,objects,50,50,outdoor_scenes,Stimuli/Experimental_stims/objects/jess-bailey-nOeVi8DsN8U-unsplash.jpg,Stimuli/Experimental_stims/outdoor_scenes/sergey-pesterev-y-b_FOmJXdg-unsplash.jpg,0,0,28,1,unchosen,9,42,outdoor_scenes,objects,1800,0,7,2
65,56445,0,66,1,1,0,no_gain1,gain4,J,B,13,6,faces,50,50,outdoor_scenes,Stimuli/Experimental_stims/faces/daniel-rigdon-dXmXKPP2L4E-unsplash.jpg,Stimuli/Experimental_stims/outdoor_scenes/meng-ji-8BH_M-53CyA-unsplash.jpg,0,0,47,1,chosen,6,13,outdoor_scenes,faces,1400,0,7,2
66,56445,0,67,1,1,0,no_gain3,gain3,F,I,15,32,faces,50,50,body_parts,Stimuli/Experimental_stims/faces/erik-lucatero-d2MSDujJl2g-unsplash.jpg,Stimuli/Experimental_stims/body_parts/towfiqu-barbhuiya-3AsiVDsZnHg-unsplash.jpg,0,0,30,1,chosen,32,15,body_parts,faces,1500,0,7,2
67,56445,0,68,1,1,0,no_gain6,gain2,C,L,7,26,outdoor_scenes,50,50,body_parts,Stimuli/Experimental_stims/outdoor_scenes/petr-vysohlid-9fqwGqGLUxc-unsplash.jpg,Stimuli/Experimental_stims/body_parts/engin-akyurt-x_3gyC42btc-unsplash.jpg,0,0,44,1,chosen,26,7,body_parts,outdoor_scenes,1100,0,7,2
68,56445,0,69,1,1,0,no_gain6,gain4,C,B,30,22,body_parts,50,50,faces,Stimuli/Experimental_stims/body_parts/mika-korhonen-Xodzxosar18-unsplash.jpg,Stimuli/Experimental_stims/faces/ravi-patel-VMGAbeeJTKo-unsplash.jpg,0,0,34,1,unchosen,22,30,faces,body_parts,4300,1,7,2
69,56445,0,70,1,1,0,no_gain2,gain3,K,I,29,32,body_parts,50,50,body_parts,Stimuli/Experimental_stims/body_parts/manuel-schinner-ZwjFuJ7ebpk-unsplash.jpg,Stimuli/Experimental_stims/body_parts/towfiqu-barbhuiya-3AsiVDsZnHg-unsplash.jpg,0,0,44,1,chosen,32,29,body_parts,body_parts,1100,0,7,2
70,56445,0,71,1,1,1,gain2,no_gain5,L,E,26,43,body_parts,50,50,objects,Stimuli/Experimental_stims/body_parts/engin-akyurt-x_3gyC42btc-unsplash.jpg,Stimuli/Experimental_stims/objects/jonathan-greenaway-Y4hGgeiFn3s-unsplash.jpg,0,0,26,0,chosen,43,26,objects,body_parts,1300,0,7,2
71,56445,0,72,1,1,1,gain2,no_gain6,L,C,17,30,faces,50,50,body_parts,Stimuli/Experimental_stims/faces/good-faces-xmSWVeGEnJw-unsplash.jpg,Stimuli/Experimental_stims/body_parts/mika-korhonen-Xodzxosar18-unsplash.jpg,0,0,46,0,unchosen,30,17,body_parts,faces,2000,0,7,2
72,56445,0,73,1,1,0,no_gain4,gain3,A,I,46,4,objects,50,50,outdoor_scenes,Stimuli/Experimental_stims/objects/mockup-graphics-PNsj6RiHAF4-unsplash.jpg,Stimuli/Experimental_stims/outdoor_scenes/jarrett-kow-1ZOyYPOBn7I-unsplash.jpg,0,0,42,1,unchosen,4,46,outdoor_scenes,objects,1900,0,7,2
73,56445,0,74,1,1,0,no_gain4,gain5,A,D,8,39,outdoor_scenes,50,50,objects,Stimuli/Experimental_stims/outdoor_scenes/samsommer-vddccTqwal8-unsplash.jpg,Stimuli/Experimental_stims/objects/charlesdeluvio-1-nx1QR5dTE-unsplash.jpg,0,0,33,1,chosen,39,8,objects,outdoor_scenes,2200,0,7,2
74,56445,0,75,1,1,1,gain4,no_gain6,B,C,6,7,outdoor_scenes,50,50,outdoor_scenes,Stimuli/Experimental_stims/outdoor_scenes/meng-ji-8BH_M-53CyA-unsplash.jpg,Stimuli/Experimental_stims/outdoor_scenes/petr-vysohlid-9fqwGqGLUxc-unsplash.jpg,0,0,47,0,chosen,7,6,outdoor_scenes,outdoor_scenes,1000,0,7,2
75,56445,0,76,1,1,1,gain4,no_gain5,B,E,22,34,faces,50,50,body_parts,Stimuli/Experimental_stims/faces/ravi-patel-VMGAbeeJTKo-unsplash.jpg,Stimuli/Experimental_stims/body_parts/wagner-santos-mBWMvIuVnso-unsplash.jpg,0,0,41,0,unchosen,34,22,body_parts,faces,1100,0,7,2
76,56445,0,77,2,2,1,gain6,no_gain3,H,F,11,24,outdoor_scenes,50,50,body_parts,Stimuli/Experimental_stims/outdoor_scenes/stephen-leonardi-gyIRjKPXupE-unsplash.jpg,Stimuli/Experimental_stims/body_parts/clay-banks-LjqARJaJotc-unsplash.jpg,1,NaN,,NaN,unchosen,NaN,NaN,NaN,NaN,3800,1,10,2
77,56445,0,78,2,2,1,gain6,no_gain4,H,A,18,8,faces,50,50,outdoor_scenes,Stimuli/Experimental_stims/faces/jessica-radanavong-mrYkTuAesKE-unsplash.jpg,Stimuli/Experimental_stims/outdoor_scenes/samsommer-vddccTqwal8-unsplash.jpg,1,NaN,,NaN,chosen,NaN,NaN,NaN,NaN,2000,0,10,2
78,56445,0,79,2,2,1,gain3,no_gain1,I,J,32,13,body_parts,50,50,faces,Stimuli/Experimental_stims/body_parts/towfiqu-barbhuiya-3AsiVDsZnHg-unsplash.jpg,Stimuli/Experimental_stims/faces/daniel-rigdon-dXmXKPP2L4E-unsplash.jpg,1,NaN,,NaN,chosen,NaN,NaN,NaN,NaN,3000,0,10,2
79,56445,0,80,2,2,1,gain4,no_gain3,B,F,22,24,faces,50,50,body_parts,Stimuli/Experimental_stims/faces/ravi-patel-VMGAbeeJTKo-unsplash.jpg,Stimuli/Experimental_stims/body_parts/clay-banks-LjqARJaJotc-unsplash.jpg,1,NaN,,NaN,unchosen,NaN,NaN,NaN,NaN,1400,0,10,2
80,56445,0,81,2,2,1,gain6,no_gain6,H,C,18,7,faces,50,50,outdoor_scenes,Stimuli/Experimental_stims/faces/jessica-radanavong-mrYkTuAesKE-unsplash.jpg,Stimuli/Experimental_stims/outdoor_scenes/petr-vysohlid-9fqwGqGLUxc-unsplash.jpg,1,NaN,,NaN,chosen,NaN,NaN,NaN,NaN,2900,0,10,2
81,56445,0,82,2,2,1,gain2,no_gain1,L,J,26,13,body_parts,50,50,faces,Stimuli/Experimental_stims/body_parts/engin-akyurt-x_3gyC42btc-unsplash.jpg,Stimuli/Experimental_stims/faces/daniel-rigdon-dXmXKPP2L4E-unsplash.jpg,0,1,101,1,chosen,26,13,body_parts,faces,2000,0,10,2
82,56445,0,83,2,2,0,no_gain1,gain3,J,I,42,4,objects,50,50,outdoor_scenes,Stimuli/Experimental_stims/objects/jess-bailey-nOeVi8DsN8U-unsplash.jpg,Stimuli/Experimental_stims/outdoor_scenes/jarrett-kow-1ZOyYPOBn7I-unsplash.jpg,0,1,51,0,unchosen,42,4,objects,outdoor_scenes,2700,0,10,2
83,56445,0,84,2,2,0,no_gain6,gain2,C,L,7,26,outdoor_scenes,50,50,body_parts,Stimuli/Experimental_stims/outdoor_scenes/petr-vysohlid-9fqwGqGLUxc-unsplash.jpg,Stimuli/Experimental_stims/body_parts/engin-akyurt-x_3gyC42btc-unsplash.jpg,0,1,56,0,chosen,7,26,outdoor_scenes,body_parts,3600,1,10,2
84,56445,0,85,2,2,0,no_gain3,gain2,F,L,24,17,body_parts,50,50,faces,Stimuli/Experimental_stims/body_parts/clay-banks-LjqARJaJotc-unsplash.jpg,Stimuli/Experimental_stims/faces/good-faces-xmSWVeGEnJw-unsplash.jpg,0,1,90,0,unchosen,24,17,body_parts,faces,1300,0,10,2
85,56445,0,86,2,2,1,gain6,no_gain1,H,J,11,42,outdoor_scenes,50,50,objects,Stimuli/Experimental_stims/outdoor_scenes/stephen-leonardi-gyIRjKPXupE-unsplash.jpg,Stimuli/Experimental_stims/objects/jess-bailey-nOeVi8DsN8U-unsplash.jpg,1,NaN,,NaN,unchosen,NaN,NaN,NaN,NaN,3000,0,10,2
86,56445,0,87,2,2,0,no_gain5,gain4,E,B,34,22,body_parts,50,50,faces,Stimuli/Experimental_stims/body_parts/wagner-santos-mBWMvIuVnso-unsplash.jpg,Stimuli/Experimental_stims/faces/ravi-patel-VMGAbeeJTKo-unsplash.jpg,1,NaN,,NaN,unchosen,NaN,NaN,NaN,NaN,2600,0,10,2
87,56445,0,88,2,2,0,no_gain2,gain3,K,I,29,32,body_parts,50,50,body_parts,Stimuli/Experimental_stims/body_parts/manuel-schinner-ZwjFuJ7ebpk-unsplash.jpg,Stimuli/Experimental_stims/body_parts/towfiqu-barbhuiya-3AsiVDsZnHg-unsplash.jpg,1,NaN,,NaN,chosen,NaN,NaN,NaN,NaN,1100,0,10,2
88,56445,0,89,2,2,0,no_gain1,gain1,J,G,13,36,faces,50,50,objects,Stimuli/Experimental_stims/faces/daniel-rigdon-dXmXKPP2L4E-unsplash.jpg,Stimuli/Experimental_stims/objects/alexander-andrews-JYGnB9gTCls-unsplash.jpg,1,NaN,,NaN,chosen,NaN,NaN,NaN,NaN,1400,0,10,2
89,56445,0,90,2,2,0,no_gain5,gain2,E,L,34,17,body_parts,50,50,faces,Stimuli/Experimental_stims/body_parts/wagner-santos-mBWMvIuVnso-unsplash.jpg,Stimuli/Experimental_stims/faces/good-faces-xmSWVeGEnJw-unsplash.jpg,0,1,96,0,unchosen,34,17,body_parts,faces,1100,0,10,2
90,56445,0,91,2,2,1,gain3,no_gain3,I,F,4,24,outdoor_scenes,50,50,body_parts,Stimuli/Experimental_stims/outdoor_scenes/jarrett-kow-1ZOyYPOBn7I-unsplash.jpg,Stimuli/Experimental_stims/body_parts/clay-banks-LjqARJaJotc-unsplash.jpg,0,1,85,1,unchosen,4,24,outdoor_scenes,body_parts,2900,0,10,2
91,56445,0,92,2,2,1,gain5,no_gain4,D,A,39,8,objects,50,50,outdoor_scenes,Stimuli/Experimental_stims/objects/charlesdeluvio-1-nx1QR5dTE-unsplash.jpg,Stimuli/Experimental_stims/outdoor_scenes/samsommer-vddccTqwal8-unsplash.jpg,0,1,75,1,chosen,39,8,objects,outdoor_scenes,1600,0,10,2
92,56445,0,93,2,2,1,gain2,no_gain6,L,C,17,30,faces,50,50,body_parts,Stimuli/Experimental_stims/faces/good-faces-xmSWVeGEnJw-unsplash.jpg,Stimuli/Experimental_stims/body_parts/mika-korhonen-Xodzxosar18-unsplash.jpg,0,1,77,1,unchosen,17,30,faces,body_parts,1500,0,10,2
93,56445,0,94,2,2,0,no_gain5,gain6,E,H,34,11,body_parts,50,50,outdoor_scenes,Stimuli/Experimental_stims/body_parts/wagner-santos-mBWMvIuVnso-unsplash.jpg,Stimuli/Experimental_stims/outdoor_scenes/stephen-leonardi-gyIRjKPXupE-unsplash.jpg,0,1,77,0,unchosen,34,11,body_parts,outdoor_scenes,3800,1,10,2
94,56445,0,95,2,2,0,no_gain6,gain4,C,B,7,6,outdoor_scenes,50,50,outdoor_scenes,Stimuli/Experimental_stims/outdoor_scenes/petr-vysohlid-9fqwGqGLUxc-unsplash.jpg,Stimuli/Experimental_stims/outdoor_scenes/meng-ji-8BH_M-53CyA-unsplash.jpg,0,1,74,0,chosen,7,6,outdoor_scenes,outdoor_scenes,1500,0,10,2
95,56445,0,96,2,2,1,gain5,no_gain2,D,K,21,40,faces,50,50,objects,Stimuli/Experimental_stims/faces/leilani-angel-K84vnnzxmTQ-unsplash.jpg,Stimuli/Experimental_stims/objects/fabian-blank-pElSkGRA2NU-unsplash.jpg,0,1,73,1,unchosen,21,40,faces,objects,1000,0,10,2
96,56445,0,97,2,2,1,gain4,no_gain4,B,A,22,46,faces,50,50,objects,Stimuli/Experimental_stims/faces/ravi-patel-VMGAbeeJTKo-unsplash.jpg,Stimuli/Experimental_stims/objects/mockup-graphics-PNsj6RiHAF4-unsplash.jpg,0,1,77,1,unchosen,22,46,faces,objects,1600,0,10,2
97,56445,0,98,2,2,0,no_gain5,gain3,E,I,43,32,objects,50,50,body_parts,Stimuli/Experimental_stims/objects/jonathan-greenaway-Y4hGgeiFn3s-unsplash.jpg,Stimuli/Experimental_stims/body_parts/towfiqu-barbhuiya-3AsiVDsZnHg-unsplash.jpg,0,1,92,0,chosen,43,32,objects,body_parts,1300,0,10,2
98,56445,0,99,2,2,1,gain2,no_gain4,L,A,26,8,body_parts,50,50,outdoor_scenes,Stimuli/Experimental_stims/body_parts/engin-akyurt-x_3gyC42btc-unsplash.jpg,Stimuli/Experimental_stims/outdoor_scenes/samsommer-vddccTqwal8-unsplash.jpg,1,NaN,,NaN,chosen,NaN,NaN,NaN,NaN,3500,1,10,2
99,56445,0,100,2,2,0,no_gain2,gain4,K,B,29,6,body_parts,50,50,outdoor_scenes,Stimuli/Experimental_stims/body_parts/manuel-schinner-ZwjFuJ7ebpk-unsplash.jpg,Stimuli/Experimental_stims/outdoor_scenes/meng-ji-8BH_M-53CyA-unsplash.jpg,0,1,67,0,chosen,29,6,body_parts,outdoor_scenes,2500,0,10,2
100,56445,0,101,2,2,1,gain5,no_gain6,D,C,21,30,faces,50,50,body_parts,Stimuli/Experimental_stims/faces/leilani-angel-K84vnnzxmTQ-unsplash.jpg,Stimuli/Experimental_stims/body_parts/mika-korhonen-Xodzxosar18-unsplash.jpg,0,1,66,1,unchosen,21,30,faces,body_parts,1100,0,10,2
101,56445,0,102,2,2,1,gain3,no_gain3,I,F,32,15,body_parts,50,50,faces,Stimuli/Experimental_stims/body_parts/towfiqu-barbhuiya-3AsiVDsZnHg-unsplash.jpg,Stimuli/Experimental_stims/faces/erik-lucatero-d2MSDujJl2g-unsplash.jpg,0,1,71,1,chosen,32,15,body_parts,faces,1000,0,10,2
102,56445,0,103,2,2,0,no_gain2,gain1,K,G,40,9,objects,50,50,outdoor_scenes,Stimuli/Experimental_stims/objects/fabian-blank-pElSkGRA2NU-unsplash.jpg,Stimuli/Experimental_stims/outdoor_scenes/sergey-pesterev-y-b_FOmJXdg-unsplash.jpg,0,1,69,0,unchosen,40,9,objects,outdoor_scenes,2100,0,10,2
103,56445,0,104,2,2,1,gain4,no_gain4,B,A,6,8,outdoor_scenes,50,50,outdoor_scenes,Stimuli/Experimental_stims/outdoor_scenes/meng-ji-8BH_M-53CyA-unsplash.jpg,Stimuli/Experimental_stims/outdoor_scenes/samsommer-vddccTqwal8-unsplash.jpg,0,1,68,1,chosen,6,8,outdoor_scenes,outdoor_scenes,1300,0,10,2
104,56445,0,105,2,2,0,no_gain2,gain4,K,B,40,22,objects,50,50,faces,Stimuli/Experimental_stims/objects/fabian-blank-pElSkGRA2NU-unsplash.jpg,Stimuli/Experimental_stims/faces/ravi-patel-VMGAbeeJTKo-unsplash.jpg,0,1,64,0,unchosen,40,22,objects,faces,2000,0,10,2
105,56445,0,106,2,2,1,gain5,no_gain1,D,J,39,13,objects,50,50,faces,Stimuli/Experimental_stims/objects/charlesdeluvio-1-nx1QR5dTE-unsplash.jpg,Stimuli/Experimental_stims/faces/daniel-rigdon-dXmXKPP2L4E-unsplash.jpg,0,1,72,1,chosen,39,13,objects,faces,3100,1,10,2
106,56445,0,107,2,2,0,no_gain6,gain3,C,I,30,4,body_parts,50,50,outdoor_scenes,Stimuli/Experimental_stims/body_parts/mika-korhonen-Xodzxosar18-unsplash.jpg,Stimuli/Experimental_stims/outdoor_scenes/jarrett-kow-1ZOyYPOBn7I-unsplash.jpg,0,1,91,0,unchosen,30,4,body_parts,outdoor_scenes,1400,0,10,2
107,56445,0,108,2,2,1,gain6,no_gain1,H,J,18,13,faces,50,50,faces,Stimuli/Experimental_stims/faces/jessica-radanavong-mrYkTuAesKE-unsplash.jpg,Stimuli/Experimental_stims/faces/daniel-rigdon-dXmXKPP2L4E-unsplash.jpg,1,NaN,,NaN,chosen,NaN,NaN,NaN,NaN,1300,0,10,2
108,56445,0,109,2,2,0,no_gain2,gain5,K,D,29,39,body_parts,50,50,objects,Stimuli/Experimental_stims/body_parts/manuel-schinner-ZwjFuJ7ebpk-unsplash.jpg,Stimuli/Experimental_stims/objects/charlesdeluvio-1-nx1QR5dTE-unsplash.jpg,1,NaN,,NaN,chosen,NaN,NaN,NaN,NaN,1300,0,10,2
109,56445,0,110,2,2,0,no_gain5,gain5,E,D,34,21,body_parts,50,50,faces,Stimuli/Experimental_stims/body_parts/wagner-santos-mBWMvIuVnso-unsplash.jpg,Stimuli/Experimental_stims/faces/leilani-angel-K84vnnzxmTQ-unsplash.jpg,1,NaN,,NaN,unchosen,NaN,NaN,NaN,NaN,1200,0,10,2
110,56445,0,111,2,2,0,no_gain5,gain1,E,G,34,9,body_parts,50,50,outdoor_scenes,Stimuli/Experimental_stims/body_parts/wagner-santos-mBWMvIuVnso-unsplash.jpg,Stimuli/Experimental_stims/outdoor_scenes/sergey-pesterev-y-b_FOmJXdg-unsplash.jpg,1,NaN,,NaN,unchosen,NaN,NaN,NaN,NaN,1300,0,10,2
111,56445,0,112,2,2,0,no_gain6,gain5,C,D,7,39,outdoor_scenes,50,50,objects,Stimuli/Experimental_stims/outdoor_scenes/petr-vysohlid-9fqwGqGLUxc-unsplash.jpg,Stimuli/Experimental_stims/objects/charlesdeluvio-1-nx1QR5dTE-unsplash.jpg,1,NaN,,NaN,chosen,NaN,NaN,NaN,NaN,1100,0,10,2
112,56445,0,113,2,2,1,gain2,no_gain2,L,K,26,29,body_parts,50,50,body_parts,Stimuli/Experimental_stims/body_parts/engin-akyurt-x_3gyC42btc-unsplash.jpg,Stimuli/Experimental_stims/body_parts/manuel-schinner-ZwjFuJ7ebpk-unsplash.jpg,1,NaN,,NaN,chosen,NaN,NaN,NaN,NaN,1900,0,10,2
113,56445,0,114,2,2,1,gain1,no_gain6,G,C,9,30,outdoor_scenes,50,50,body_parts,Stimuli/Experimental_stims/outdoor_scenes/sergey-pesterev-y-b_FOmJXdg-unsplash.jpg,Stimuli/Experimental_stims/body_parts/mika-korhonen-Xodzxosar18-unsplash.jpg,1,NaN,,NaN,unchosen,NaN,NaN,NaN,NaN,2100,0,10,2
114,56445,0,115,2,2,0,no_gain3,gain5,F,D,24,21,body_parts,50,50,faces,Stimuli/Experimental_stims/body_parts/clay-banks-LjqARJaJotc-unsplash.jpg,Stimuli/Experimental_stims/faces/leilani-angel-K84vnnzxmTQ-unsplash.jpg,1,NaN,,NaN,unchosen,NaN,NaN,NaN,NaN,1400,0,10,2
115,56445,0,116,2,2,1,gain3,no_gain6,I,C,32,7,body_parts,50,50,outdoor_scenes,Stimuli/Experimental_stims/body_parts/towfiqu-barbhuiya-3AsiVDsZnHg-unsplash.jpg,Stimuli/Experimental_stims/outdoor_scenes/petr-vysohlid-9fqwGqGLUxc-unsplash.jpg,1,NaN,,NaN,chosen,NaN,NaN,NaN,NaN,1100,0,10,2
116,56445,0,117,2,2,0,no_gain5,gain5,E,D,43,39,objects,50,50,objects,Stimuli/Experimental_stims/objects/jonathan-greenaway-Y4hGgeiFn3s-unsplash.jpg,Stimuli/Experimental_stims/objects/charlesdeluvio-1-nx1QR5dTE-unsplash.jpg,1,NaN,,NaN,chosen,NaN,NaN,NaN,NaN,1600,0,10,2
117,56445,0,118,2,2,1,gain3,no_gain4,I,A,4,46,outdoor_scenes,50,50,objects,Stimuli/Experimental_stims/outdoor_scenes/jarrett-kow-1ZOyYPOBn7I-unsplash.jpg,Stimuli/Experimental_stims/objects/mockup-graphics-PNsj6RiHAF4-unsplash.jpg,1,NaN,,NaN,unchosen,NaN,NaN,NaN,NaN,1300,0,10,2
118,56445,0,119,2,2,1,gain4,no_gain1,B,J,6,13,outdoor_scenes,50,50,faces,Stimuli/Experimental_stims/outdoor_scenes/meng-ji-8BH_M-53CyA-unsplash.jpg,Stimuli/Experimental_stims/faces/daniel-rigdon-dXmXKPP2L4E-unsplash.jpg,1,NaN,,NaN,chosen,NaN,NaN,NaN,NaN,2500,0,10,2
119,56445,0,120,2,2,0,no_gain4,gain2,A,L,46,17,objects,50,50,faces,Stimuli/Experimental_stims/objects/mockup-graphics-PNsj6RiHAF4-unsplash.jpg,Stimuli/Experimental_stims/faces/good-faces-xmSWVeGEnJw-unsplash.jpg,1,NaN,,NaN,unchosen,NaN,NaN,NaN,NaN,4300,1,10,2
120,56445,0,121,2,2,0,no_gain3,gain4,F,B,15,6,faces,50,50,outdoor_scenes,Stimuli/Experimental_stims/faces/erik-lucatero-d2MSDujJl2g-unsplash.jpg,Stimuli/Experimental_stims/outdoor_scenes/meng-ji-8BH_M-53CyA-unsplash.jpg,1,NaN,,NaN,chosen,NaN,NaN,NaN,NaN,2400,0,10,2
121,56445,0,122,2,2,1,gain1,no_gain4,G,A,9,46,outdoor_scenes,50,50,objects,Stimuli/Experimental_stims/outdoor_scenes/sergey-pesterev-y-b_FOmJXdg-unsplash.jpg,Stimuli/Experimental_stims/objects/mockup-graphics-PNsj6RiHAF4-unsplash.jpg,1,NaN,,NaN,unchosen,NaN,NaN,NaN,NaN,1800,0,10,2
122,56445,0,123,2,2,1,gain6,no_gain3,H,F,18,15,faces,50,50,faces,Stimuli/Experimental_stims/faces/jessica-radanavong-mrYkTuAesKE-unsplash.jpg,Stimuli/Experimental_stims/faces/erik-lucatero-d2MSDujJl2g-unsplash.jpg,1,NaN,,NaN,chosen,NaN,NaN,NaN,NaN,1000,0,10,2
123,56445,0,124,2,2,1,gain5,no_gain1,D,J,21,42,faces,50,50,objects,Stimuli/Experimental_stims/faces/leilani-angel-K84vnnzxmTQ-unsplash.jpg,Stimuli/Experimental_stims/objects/jess-bailey-nOeVi8DsN8U-unsplash.jpg,1,NaN,,NaN,unchosen,NaN,NaN,NaN,NaN,2000,0,10,2
124,56445,0,125,2,2,1,gain3,no_gain2,I,K,4,40,outdoor_scenes,50,50,objects,Stimuli/Experimental_stims/outdoor_scenes/jarrett-kow-1ZOyYPOBn7I-unsplash.jpg,Stimuli/Experimental_stims/objects/fabian-blank-pElSkGRA2NU-unsplash.jpg,1,NaN,,NaN,unchosen,NaN,NaN,NaN,NaN,2700,0,10,2
125,56445,0,126,2,2,0,no_gain2,gain2,K,L,40,17,objects,50,50,faces,Stimuli/Experimental_stims/objects/fabian-blank-pElSkGRA2NU-unsplash.jpg,Stimuli/Experimental_stims/faces/good-faces-xmSWVeGEnJw-unsplash.jpg,1,NaN,,NaN,unchosen,NaN,NaN,NaN,NaN,2500,0,10,2
126,56445,0,127,2,2,0,no_gain4,gain1,A,G,8,36,outdoor_scenes,50,50,objects,Stimuli/Experimental_stims/outdoor_scenes/samsommer-vddccTqwal8-unsplash.jpg,Stimuli/Experimental_stims/objects/alexander-andrews-JYGnB9gTCls-unsplash.jpg,1,NaN,,NaN,chosen,NaN,NaN,NaN,NaN,1800,0,10,2
127,56445,0,128,2,2,1,gain4,no_gain6,B,C,22,30,faces,50,50,body_parts,Stimuli/Experimental_stims/faces/ravi-patel-VMGAbeeJTKo-unsplash.jpg,Stimuli/Experimental_stims/body_parts/mika-korhonen-Xodzxosar18-unsplash.jpg,1,NaN,,NaN,unchosen,NaN,NaN,NaN,NaN,1200,0,10,2
128,56445,0,129,2,2,0,no_gain1,gain2,J,L,42,17,objects,50,50,faces,Stimuli/Experimental_stims/objects/jess-bailey-nOeVi8DsN8U-unsplash.jpg,Stimuli/Experimental_stims/faces/good-faces-xmSWVeGEnJw-unsplash.jpg,1,NaN,,NaN,unchosen,NaN,NaN,NaN,NaN,3800,1,10,2
129,56445,0,130,2,2,1,gain1,no_gain6,G,C,36,7,objects,50,50,outdoor_scenes,Stimuli/Experimental_stims/objects/alexander-andrews-JYGnB9gTCls-unsplash.jpg,Stimuli/Experimental_stims/outdoor_scenes/petr-vysohlid-9fqwGqGLUxc-unsplash.jpg,1,NaN,,NaN,chosen,NaN,NaN,NaN,NaN,1300,0,10,2
130,56445,0,131,2,2,1,gain6,no_gain4,H,A,11,46,outdoor_scenes,50,50,objects,Stimuli/Experimental_stims/outdoor_scenes/stephen-leonardi-gyIRjKPXupE-unsplash.jpg,Stimuli/Experimental_stims/objects/mockup-graphics-PNsj6RiHAF4-unsplash.jpg,1,NaN,,NaN,unchosen,NaN,NaN,NaN,NaN,2900,0,10,2
131,56445,0,132,2,2,0,no_gain5,gain2,E,L,43,26,objects,50,50,body_parts,Stimuli/Experimental_stims/objects/jonathan-greenaway-Y4hGgeiFn3s-unsplash.jpg,Stimuli/Experimental_stims/body_parts/engin-akyurt-x_3gyC42btc-unsplash.jpg,1,NaN,,NaN,chosen,NaN,NaN,NaN,NaN,1200,0,10,2
132,56445,0,133,2,2,0,no_gain5,gain6,E,H,43,18,objects,50,50,faces,Stimuli/Experimental_stims/objects/jonathan-greenaway-Y4hGgeiFn3s-unsplash.jpg,Stimuli/Experimental_stims/faces/jessica-radanavong-mrYkTuAesKE-unsplash.jpg,1,NaN,,NaN,chosen,NaN,NaN,NaN,NaN,1300,0,10,2
133,56445,0,134,2,2,0,no_gain2,gain6,K,H,40,11,objects,50,50,outdoor_scenes,Stimuli/Experimental_stims/objects/fabian-blank-pElSkGRA2NU-unsplash.jpg,Stimuli/Experimental_stims/outdoor_scenes/stephen-leonardi-gyIRjKPXupE-unsplash.jpg,1,NaN,,NaN,unchosen,NaN,NaN,NaN,NaN,2500,0,10,2
134,56445,0,135,2,2,1,gain5,no_gain3,D,F,39,15,objects,50,50,faces,Stimuli/Experimental_stims/objects/charlesdeluvio-1-nx1QR5dTE-unsplash.jpg,Stimuli/Experimental_stims/faces/erik-lucatero-d2MSDujJl2g-unsplash.jpg,1,NaN,,NaN,chosen,NaN,NaN,NaN,NaN,3000,0,10,2
135,56445,0,136,2,2,1,gain4,no_gain5,B,E,6,43,outdoor_scenes,50,50,objects,Stimuli/Experimental_stims/outdoor_scenes/meng-ji-8BH_M-53CyA-unsplash.jpg,Stimuli/Experimental_stims/objects/jonathan-greenaway-Y4hGgeiFn3s-unsplash.jpg,1,NaN,,NaN,chosen,NaN,NaN,NaN,NaN,4200,1,10,2
136,56445,0,137,2,2,0,no_gain6,gain6,C,H,30,11,body_parts,50,50,outdoor_scenes,Stimuli/Experimental_stims/body_parts/mika-korhonen-Xodzxosar18-unsplash.jpg,Stimuli/Experimental_stims/outdoor_scenes/stephen-leonardi-gyIRjKPXupE-unsplash.jpg,1,NaN,,NaN,unchosen,NaN,NaN,NaN,NaN,1700,0,10,2
137,56445,0,138,2,2,0,no_gain3,gain1,F,G,15,36,faces,50,50,objects,Stimuli/Experimental_stims/faces/erik-lucatero-d2MSDujJl2g-unsplash.jpg,Stimuli/Experimental_stims/objects/alexander-andrews-JYGnB9gTCls-unsplash.jpg,1,NaN,,NaN,chosen,NaN,NaN,NaN,NaN,1300,0,10,2
138,56445,0,139,2,2,0,no_gain2,gain1,K,G,29,36,body_parts,50,50,objects,Stimuli/Experimental_stims/body_parts/manuel-schinner-ZwjFuJ7ebpk-unsplash.jpg,Stimuli/Experimental_stims/objects/alexander-andrews-JYGnB9gTCls-unsplash.jpg,1,NaN,,NaN,chosen,NaN,NaN,NaN,NaN,1100,0,10,2
139,56445,0,140,2,2,0,no_gain2,gain6,K,H,29,18,body_parts,50,50,faces,Stimuli/Experimental_stims/body_parts/manuel-schinner-ZwjFuJ7ebpk-unsplash.jpg,Stimuli/Experimental_stims/faces/jessica-radanavong-mrYkTuAesKE-unsplash.jpg,1,NaN,,NaN,chosen,NaN,NaN,NaN,NaN,1300,0,10,2
140,56445,0,141,2,2,1,gain5,no_gain4,D,A,21,46,faces,50,50,objects,Stimuli/Experimental_stims/faces/leilani-angel-K84vnnzxmTQ-unsplash.jpg,Stimuli/Experimental_stims/objects/mockup-graphics-PNsj6RiHAF4-unsplash.jpg,0,1,28,1,unchosen,21,46,faces,objects,1500,0,10,2
141,56445,0,142,2,2,0,no_gain5,gain1,E,G,43,36,objects,50,50,objects,Stimuli/Experimental_stims/objects/jonathan-greenaway-Y4hGgeiFn3s-unsplash.jpg,Stimuli/Experimental_stims/objects/alexander-andrews-JYGnB9gTCls-unsplash.jpg,0,1,51,0,chosen,43,36,objects,objects,1800,0,10,2
142,56445,0,143,2,2,0,no_gain1,gain4,J,B,42,22,objects,50,50,faces,Stimuli/Experimental_stims/objects/jess-bailey-nOeVi8DsN8U-unsplash.jpg,Stimuli/Experimental_stims/faces/ravi-patel-VMGAbeeJTKo-unsplash.jpg,0,1,52,0,unchosen,42,22,objects,faces,1400,0,10,2
143,56445,0,144,2,2,1,gain3,no_gain5,I,E,4,34,outdoor_scenes,50,50,body_parts,Stimuli/Experimental_stims/outdoor_scenes/jarrett-kow-1ZOyYPOBn7I-unsplash.jpg,Stimuli/Experimental_stims/body_parts/wagner-santos-mBWMvIuVnso-unsplash.jpg,0,1,41,1,unchosen,4,34,outdoor_scenes,body_parts,1400,0,10,2
144,56445,0,145,2,2,0,no_gain4,gain3,A,I,8,32,outdoor_scenes,50,50,body_parts,Stimuli/Experimental_stims/outdoor_scenes/samsommer-vddccTqwal8-unsplash.jpg,Stimuli/Experimental_stims/body_parts/towfiqu-barbhuiya-3AsiVDsZnHg-unsplash.jpg,0,1,46,0,chosen,8,32,outdoor_scenes,body_parts,1600,0,10,2
145,56445,0,146,2,2,1,gain1,no_gain3,G,F,9,24,outdoor_scenes,50,50,body_parts,Stimuli/Experimental_stims/outdoor_scenes/sergey-pesterev-y-b_FOmJXdg-unsplash.jpg,Stimuli/Experimental_stims/body_parts/clay-banks-LjqARJaJotc-unsplash.jpg,0,1,49,1,unchosen,9,24,outdoor_scenes,body_parts,2000,0,10,2
146,56445,0,147,2,2,0,no_gain1,gain1,J,G,42,9,objects,50,50,outdoor_scenes,Stimuli/Experimental_stims/objects/jess-bailey-nOeVi8DsN8U-unsplash.jpg,Stimuli/Experimental_stims/outdoor_scenes/sergey-pesterev-y-b_FOmJXdg-unsplash.jpg,0,1,46,0,unchosen,42,9,objects,outdoor_scenes,2500,0,10,2
147,56445,0,148,2,2,1,gain2,no_gain3,L,F,26,15,body_parts,50,50,faces,Stimuli/Experimental_stims/body_parts/engin-akyurt-x_3gyC42btc-unsplash.jpg,Stimuli/Experimental_stims/faces/erik-lucatero-d2MSDujJl2g-unsplash.jpg,0,1,44,1,chosen,26,15,body_parts,faces,3300,1,10,2
148,56445,0,149,3,3,0,no_gain1,gain2,J,L,42,17,objects,50,50,faces,Stimuli/Experimental_stims/objects/jess-bailey-nOeVi8DsN8U-unsplash.jpg,Stimuli/Experimental_stims/faces/good-faces-xmSWVeGEnJw-unsplash.jpg,1,NaN,,NaN,unchosen,NaN,NaN,NaN,NaN,2200,0,10,2
149,56445,0,150,3,3,1,gain2,no_gain4,L,A,17,46,faces,50,50,objects,Stimuli/Experimental_stims/faces/good-faces-xmSWVeGEnJw-unsplash.jpg,Stimuli/Experimental_stims/objects/mockup-graphics-PNsj6RiHAF4-unsplash.jpg,0,1,90,1,unchosen,17,46,faces,objects,1200,0,10,2
150,56445,0,151,3,3,0,no_gain5,gain1,E,G,34,9,body_parts,50,50,outdoor_scenes,Stimuli/Experimental_stims/body_parts/wagner-santos-mBWMvIuVnso-unsplash.jpg,Stimuli/Experimental_stims/outdoor_scenes/sergey-pesterev-y-b_FOmJXdg-unsplash.jpg,0,1,54,0,unchosen,34,9,body_parts,outdoor_scenes,1700,0,10,2
151,56445,0,152,3,3,0,no_gain6,gain4,C,B,7,6,outdoor_scenes,50,50,outdoor_scenes,Stimuli/Experimental_stims/outdoor_scenes/petr-vysohlid-9fqwGqGLUxc-unsplash.jpg,Stimuli/Experimental_stims/outdoor_scenes/meng-ji-8BH_M-53CyA-unsplash.jpg,0,1,47,0,chosen,7,6,outdoor_scenes,outdoor_scenes,1100,0,10,2
152,56445,0,153,3,3,0,no_gain1,gain3,J,I,13,32,faces,50,50,body_parts,Stimuli/Experimental_stims/faces/daniel-rigdon-dXmXKPP2L4E-unsplash.jpg,Stimuli/Experimental_stims/body_parts/towfiqu-barbhuiya-3AsiVDsZnHg-unsplash.jpg,0,1,33,0,chosen,13,32,faces,body_parts,1000,0,10,2
153,56445,0,154,3,3,1,gain4,no_gain3,B,F,22,24,faces,50,50,body_parts,Stimuli/Experimental_stims/faces/ravi-patel-VMGAbeeJTKo-unsplash.jpg,Stimuli/Experimental_stims/body_parts/clay-banks-LjqARJaJotc-unsplash.jpg,0,1,33,1,unchosen,22,24,faces,body_parts,1900,0,10,2
154,56445,0,155,3,3,1,gain3,no_gain3,I,F,4,24,outdoor_scenes,50,50,body_parts,Stimuli/Experimental_stims/outdoor_scenes/jarrett-kow-1ZOyYPOBn7I-unsplash.jpg,Stimuli/Experimental_stims/body_parts/clay-banks-LjqARJaJotc-unsplash.jpg,0,1,25,1,unchosen,4,24,outdoor_scenes,body_parts,4700,1,10,2
155,56445,0,156,3,3,1,gain5,no_gain5,D,E,39,43,objects,50,50,objects,Stimuli/Experimental_stims/objects/charlesdeluvio-1-nx1QR5dTE-unsplash.jpg,Stimuli/Experimental_stims/objects/jonathan-greenaway-Y4hGgeiFn3s-unsplash.jpg,1,NaN,,NaN,chosen,NaN,NaN,NaN,NaN,2400,0,10,2
156,56445,0,157,3,3,1,gain6,no_gain3,H,F,11,24,outdoor_scenes,50,50,body_parts,Stimuli/Experimental_stims/outdoor_scenes/stephen-leonardi-gyIRjKPXupE-unsplash.jpg,Stimuli/Experimental_stims/body_parts/clay-banks-LjqARJaJotc-unsplash.jpg,1,NaN,,NaN,unchosen,NaN,NaN,NaN,NaN,1900,0,10,2
157,56445,0,158,3,3,1,gain1,no_gain4,G,A,36,8,objects,50,50,outdoor_scenes,Stimuli/Experimental_stims/objects/alexander-andrews-JYGnB9gTCls-unsplash.jpg,Stimuli/Experimental_stims/outdoor_scenes/samsommer-vddccTqwal8-unsplash.jpg,1,NaN,,NaN,chosen,NaN,NaN,NaN,NaN,1000,0,10,2
158,56445,0,159,3,3,0,no_gain2,gain6,K,H,29,18,body_parts,50,50,faces,Stimuli/Experimental_stims/body_parts/manuel-schinner-ZwjFuJ7ebpk-unsplash.jpg,Stimuli/Experimental_stims/faces/jessica-radanavong-mrYkTuAesKE-unsplash.jpg,1,NaN,,NaN,chosen,NaN,NaN,NaN,NaN,1800,0,10,2
159,56445,0,160,3,3,1,gain4,no_gain4,B,A,22,46,faces,50,50,objects,Stimuli/Experimental_stims/faces/ravi-patel-VMGAbeeJTKo-unsplash.jpg,Stimuli/Experimental_stims/objects/mockup-graphics-PNsj6RiHAF4-unsplash.jpg,1,NaN,,NaN,unchosen,NaN,NaN,NaN,NaN,1800,0,10,2
160,56445,0,161,3,3,0,no_gain4,gain3,A,I,46,4,objects,50,50,outdoor_scenes,Stimuli/Experimental_stims/objects/mockup-graphics-PNsj6RiHAF4-unsplash.jpg,Stimuli/Experimental_stims/outdoor_scenes/jarrett-kow-1ZOyYPOBn7I-unsplash.jpg,1,NaN,,NaN,unchosen,NaN,NaN,NaN,NaN,4700,1,10,2
161,56445,0,162,3,3,0,no_gain1,gain4,J,B,42,22,objects,50,50,faces,Stimuli/Experimental_stims/objects/jess-bailey-nOeVi8DsN8U-unsplash.jpg,Stimuli/Experimental_stims/faces/ravi-patel-VMGAbeeJTKo-unsplash.jpg,1,NaN,,NaN,unchosen,NaN,NaN,NaN,NaN,1300,0,10,2
162,56445,0,163,3,3,1,gain2,no_gain5,L,E,26,43,body_parts,50,50,objects,Stimuli/Experimental_stims/body_parts/engin-akyurt-x_3gyC42btc-unsplash.jpg,Stimuli/Experimental_stims/objects/jonathan-greenaway-Y4hGgeiFn3s-unsplash.jpg,1,NaN,,NaN,chosen,NaN,NaN,NaN,NaN,1200,0,10,2
163,56445,0,164,3,3,0,no_gain3,gain4,F,B,15,6,faces,50,50,outdoor_scenes,Stimuli/Experimental_stims/faces/erik-lucatero-d2MSDujJl2g-unsplash.jpg,Stimuli/Experimental_stims/outdoor_scenes/meng-ji-8BH_M-53CyA-unsplash.jpg,1,NaN,,NaN,chosen,NaN,NaN,NaN,NaN,1600,0,10,2
164,56445,0,165,3,3,0,no_gain2,gain5,K,D,40,21,objects,50,50,faces,Stimuli/Experimental_stims/objects/fabian-blank-pElSkGRA2NU-unsplash.jpg,Stimuli/Experimental_stims/faces/leilani-angel-K84vnnzxmTQ-unsplash.jpg,1,NaN,,NaN,unchosen,NaN,NaN,NaN,NaN,1200,0,10,2
165,56445,0,166,3,3,1,gain6,no_gain5,H,E,11,34,outdoor_scenes,50,50,body_parts,Stimuli/Experimental_stims/outdoor_scenes/stephen-leonardi-gyIRjKPXupE-unsplash.jpg,Stimuli/Experimental_stims/body_parts/wagner-santos-mBWMvIuVnso-unsplash.jpg,1,NaN,,NaN,unchosen,NaN,NaN,NaN,NaN,1100,0,10,2
166,56445,0,167,3,3,0,no_gain6,gain3,C,I,7,32,outdoor_scenes,50,50,body_parts,Stimuli/Experimental_stims/outdoor_scenes/petr-vysohlid-9fqwGqGLUxc-unsplash.jpg,Stimuli/Experimental_stims/body_parts/towfiqu-barbhuiya-3AsiVDsZnHg-unsplash.jpg,1,NaN,,NaN,chosen,NaN,NaN,NaN,NaN,3100,1,10,2
167,56445,0,168,3,3,0,no_gain5,gain3,E,I,34,4,body_parts,50,50,outdoor_scenes,Stimuli/Experimental_stims/body_parts/wagner-santos-mBWMvIuVnso-unsplash.jpg,Stimuli/Experimental_stims/outdoor_scenes/jarrett-kow-1ZOyYPOBn7I-unsplash.jpg,1,NaN,,NaN,unchosen,NaN,NaN,NaN,NaN,1500,0,10,2
168,56445,0,169,3,3,0,no_gain4,gain3,A,I,8,32,outdoor_scenes,50,50,body_parts,Stimuli/Experimental_stims/outdoor_scenes/samsommer-vddccTqwal8-unsplash.jpg,Stimuli/Experimental_stims/body_parts/towfiqu-barbhuiya-3AsiVDsZnHg-unsplash.jpg,1,NaN,,NaN,chosen,NaN,NaN,NaN,NaN,1000,0,10,2
169,56445,0,170,3,3,0,no_gain5,gain2,E,L,34,17,body_parts,50,50,faces,Stimuli/Experimental_stims/body_parts/wagner-santos-mBWMvIuVnso-unsplash.jpg,Stimuli/Experimental_stims/faces/good-faces-xmSWVeGEnJw-unsplash.jpg,1,NaN,,NaN,unchosen,NaN,NaN,NaN,NaN,1500,0,10,2
170,56445,0,171,3,3,0,no_gain3,gain2,F,L,15,26,faces,50,50,body_parts,Stimuli/Experimental_stims/faces/erik-lucatero-d2MSDujJl2g-unsplash.jpg,Stimuli/Experimental_stims/body_parts/engin-akyurt-x_3gyC42btc-unsplash.jpg,1,NaN,,NaN,chosen,NaN,NaN,NaN,NaN,1400,0,10,2
171,56445,0,172,3,3,1,gain1,no_gain2,G,K,36,29,objects,50,50,body_parts,Stimuli/Experimental_stims/objects/alexander-andrews-JYGnB9gTCls-unsplash.jpg,Stimuli/Experimental_stims/body_parts/manuel-schinner-ZwjFuJ7ebpk-unsplash.jpg,1,NaN,,NaN,chosen,NaN,NaN,NaN,NaN,3500,1,10,2
172,56445,0,173,3,3,0,no_gain4,gain2,A,L,8,26,outdoor_scenes,50,50,body_parts,Stimuli/Experimental_stims/outdoor_scenes/samsommer-vddccTqwal8-unsplash.jpg,Stimuli/Experimental_stims/body_parts/engin-akyurt-x_3gyC42btc-unsplash.jpg,1,NaN,,NaN,chosen,NaN,NaN,NaN,NaN,1600,0,10,2
173,56445,0,174,3,3,0,no_gain4,gain5,A,D,46,21,objects,50,50,faces,Stimuli/Experimental_stims/objects/mockup-graphics-PNsj6RiHAF4-unsplash.jpg,Stimuli/Experimental_stims/faces/leilani-angel-K84vnnzxmTQ-unsplash.jpg,1,NaN,,NaN,unchosen,NaN,NaN,NaN,NaN,2200,0,10,2
174,56445,0,175,3,3,0,no_gain3,gain2,F,L,24,17,body_parts,50,50,faces,Stimuli/Experimental_stims/body_parts/clay-banks-LjqARJaJotc-unsplash.jpg,Stimuli/Experimental_stims/faces/good-faces-xmSWVeGEnJw-unsplash.jpg,1,NaN,,NaN,unchosen,NaN,NaN,NaN,NaN,1200,0,10,2
175,56445,0,176,3,3,1,gain2,no_gain2,L,K,17,40,faces,50,50,objects,Stimuli/Experimental_stims/faces/good-faces-xmSWVeGEnJw-unsplash.jpg,Stimuli/Experimental_stims/objects/fabian-blank-pElSkGRA2NU-unsplash.jpg,1,NaN,,NaN,unchosen,NaN,NaN,NaN,NaN,1900,0,10,2
176,56445,0,177,3,3,0,no_gain6,gain5,C,D,7,39,outdoor_scenes,50,50,objects,Stimuli/Experimental_stims/outdoor_scenes/petr-vysohlid-9fqwGqGLUxc-unsplash.jpg,Stimuli/Experimental_stims/objects/charlesdeluvio-1-nx1QR5dTE-unsplash.jpg,1,NaN,,NaN,chosen,NaN,NaN,NaN,NaN,2000,0,10,2
177,56445,0,178,3,3,1,gain6,no_gain1,H,J,18,13,faces,50,50,faces,Stimuli/Experimental_stims/faces/jessica-radanavong-mrYkTuAesKE-unsplash.jpg,Stimuli/Experimental_stims/faces/daniel-rigdon-dXmXKPP2L4E-unsplash.jpg,1,NaN,,NaN,chosen,NaN,NaN,NaN,NaN,1800,0,10,2
178,56445,0,179,3,3,0,no_gain1,gain2,J,L,13,26,faces,50,50,body_parts,Stimuli/Experimental_stims/faces/daniel-rigdon-dXmXKPP2L4E-unsplash.jpg,Stimuli/Experimental_stims/body_parts/engin-akyurt-x_3gyC42btc-unsplash.jpg,1,NaN,,NaN,chosen,NaN,NaN,NaN,NaN,2200,0,10,2
179,56445,0,180,3,3,0,no_gain2,gain3,K,I,40,4,objects,50,50,outdoor_scenes,Stimuli/Experimental_stims/objects/fabian-blank-pElSkGRA2NU-unsplash.jpg,Stimuli/Experimental_stims/outdoor_scenes/jarrett-kow-1ZOyYPOBn7I-unsplash.jpg,1,NaN,,NaN,unchosen,NaN,NaN,NaN,NaN,2300,0,10,2
180,56445,0,181,3,3,1,gain6,no_gain3,H,F,18,15,faces,50,50,faces,Stimuli/Experimental_stims/faces/jessica-radanavong-mrYkTuAesKE-unsplash.jpg,Stimuli/Experimental_stims/faces/erik-lucatero-d2MSDujJl2g-unsplash.jpg,1,NaN,,NaN,chosen,NaN,NaN,NaN,NaN,4300,1,10,2
181,56445,0,182,3,3,1,gain5,no_gain3,D,F,39,15,objects,50,50,faces,Stimuli/Experimental_stims/objects/charlesdeluvio-1-nx1QR5dTE-unsplash.jpg,Stimuli/Experimental_stims/faces/erik-lucatero-d2MSDujJl2g-unsplash.jpg,1,NaN,,NaN,chosen,NaN,NaN,NaN,NaN,1600,0,10,2
182,56445,0,183,3,3,0,no_gain2,gain4,K,B,40,22,objects,50,50,faces,Stimuli/Experimental_stims/objects/fabian-blank-pElSkGRA2NU-unsplash.jpg,Stimuli/Experimental_stims/faces/ravi-patel-VMGAbeeJTKo-unsplash.jpg,1,NaN,,NaN,unchosen,NaN,NaN,NaN,NaN,1600,0,10,2
183,56445,0,184,3,3,1,gain3,no_gain1,I,J,4,42,outdoor_scenes,50,50,objects,Stimuli/Experimental_stims/outdoor_scenes/jarrett-kow-1ZOyYPOBn7I-unsplash.jpg,Stimuli/Experimental_stims/objects/jess-bailey-nOeVi8DsN8U-unsplash.jpg,1,NaN,,NaN,unchosen,NaN,NaN,NaN,NaN,1100,0,10,2
184,56445,0,185,3,3,1,gain6,no_gain6,H,C,18,7,faces,50,50,outdoor_scenes,Stimuli/Experimental_stims/faces/jessica-radanavong-mrYkTuAesKE-unsplash.jpg,Stimuli/Experimental_stims/outdoor_scenes/petr-vysohlid-9fqwGqGLUxc-unsplash.jpg,1,NaN,,NaN,chosen,NaN,NaN,NaN,NaN,1000,0,10,2
185,56445,0,186,3,3,0,no_gain1,gain5,J,D,13,39,faces,50,50,objects,Stimuli/Experimental_stims/faces/daniel-rigdon-dXmXKPP2L4E-unsplash.jpg,Stimuli/Experimental_stims/objects/charlesdeluvio-1-nx1QR5dTE-unsplash.jpg,1,NaN,,NaN,chosen,NaN,NaN,NaN,NaN,1000,0,10,2
186,56445,0,187,3,3,0,no_gain1,gain5,J,D,42,21,objects,50,50,faces,Stimuli/Experimental_stims/objects/jess-bailey-nOeVi8DsN8U-unsplash.jpg,Stimuli/Experimental_stims/faces/leilani-angel-K84vnnzxmTQ-unsplash.jpg,1,NaN,,NaN,unchosen,NaN,NaN,NaN,NaN,3000,1,10,2
187,56445,0,188,3,3,1,gain4,no_gain1,B,J,6,13,outdoor_scenes,50,50,faces,Stimuli/Experimental_stims/outdoor_scenes/meng-ji-8BH_M-53CyA-unsplash.jpg,Stimuli/Experimental_stims/faces/daniel-rigdon-dXmXKPP2L4E-unsplash.jpg,1,NaN,,NaN,chosen,NaN,NaN,NaN,NaN,1000,0,10,2
188,56445,0,189,3,3,1,gain3,no_gain3,I,F,32,15,body_parts,50,50,faces,Stimuli/Experimental_stims/body_parts/towfiqu-barbhuiya-3AsiVDsZnHg-unsplash.jpg,Stimuli/Experimental_stims/faces/erik-lucatero-d2MSDujJl2g-unsplash.jpg,1,NaN,,NaN,chosen,NaN,NaN,NaN,NaN,1600,0,10,2
189,56445,0,190,3,3,0,no_gain2,gain5,K,D,29,39,body_parts,50,50,objects,Stimuli/Experimental_stims/body_parts/manuel-schinner-ZwjFuJ7ebpk-unsplash.jpg,Stimuli/Experimental_stims/objects/charlesdeluvio-1-nx1QR5dTE-unsplash.jpg,1,NaN,,NaN,chosen,NaN,NaN,NaN,NaN,1500,0,10,2
190,56445,0,191,3,3,0,no_gain1,gain6,J,H,42,11,objects,50,50,outdoor_scenes,Stimuli/Experimental_stims/objects/jess-bailey-nOeVi8DsN8U-unsplash.jpg,Stimuli/Experimental_stims/outdoor_scenes/stephen-leonardi-gyIRjKPXupE-unsplash.jpg,1,NaN,,NaN,unchosen,NaN,NaN,NaN,NaN,1700,0,10,2
191,56445,0,192,3,3,1,gain5,no_gain6,D,C,21,30,faces,50,50,body_parts,Stimuli/Experimental_stims/faces/leilani-angel-K84vnnzxmTQ-unsplash.jpg,Stimuli/Experimental_stims/body_parts/mika-korhonen-Xodzxosar18-unsplash.jpg,1,NaN,,NaN,unchosen,NaN,NaN,NaN,NaN,1300,0,10,2
192,56445,0,193,3,3,0,no_gain5,gain4,E,B,34,22,body_parts,50,50,faces,Stimuli/Experimental_stims/body_parts/wagner-santos-mBWMvIuVnso-unsplash.jpg,Stimuli/Experimental_stims/faces/ravi-patel-VMGAbeeJTKo-unsplash.jpg,1,NaN,,NaN,unchosen,NaN,NaN,NaN,NaN,1300,0,10,2
193,56445,0,194,3,3,1,gain1,no_gain5,G,E,36,43,objects,50,50,objects,Stimuli/Experimental_stims/objects/alexander-andrews-JYGnB9gTCls-unsplash.jpg,Stimuli/Experimental_stims/objects/jonathan-greenaway-Y4hGgeiFn3s-unsplash.jpg,1,NaN,,NaN,chosen,NaN,NaN,NaN,NaN,3600,1,10,2
194,56445,0,195,3,3,1,gain6,no_gain4,H,A,11,46,outdoor_scenes,50,50,objects,Stimuli/Experimental_stims/outdoor_scenes/stephen-leonardi-gyIRjKPXupE-unsplash.jpg,Stimuli/Experimental_stims/objects/mockup-graphics-PNsj6RiHAF4-unsplash.jpg,1,NaN,,NaN,unchosen,NaN,NaN,NaN,NaN,2100,0,10,2
195,56445,0,196,3,3,1,gain1,no_gain1,G,J,36,13,objects,50,50,faces,Stimuli/Experimental_stims/objects/alexander-andrews-JYGnB9gTCls-unsplash.jpg,Stimuli/Experimental_stims/faces/daniel-rigdon-dXmXKPP2L4E-unsplash.jpg,1,NaN,,NaN,chosen,NaN,NaN,NaN,NaN,1600,0,10,2
196,56445,0,197,3,3,1,gain4,no_gain6,B,C,22,30,faces,50,50,body_parts,Stimuli/Experimental_stims/faces/ravi-patel-VMGAbeeJTKo-unsplash.jpg,Stimuli/Experimental_stims/body_parts/mika-korhonen-Xodzxosar18-unsplash.jpg,1,NaN,,NaN,unchosen,NaN,NaN,NaN,NaN,1800,0,10,2
197,56445,0,198,3,3,1,gain3,no_gain6,I,C,4,30,outdoor_scenes,50,50,body_parts,Stimuli/Experimental_stims/outdoor_scenes/jarrett-kow-1ZOyYPOBn7I-unsplash.jpg,Stimuli/Experimental_stims/body_parts/mika-korhonen-Xodzxosar18-unsplash.jpg,1,NaN,,NaN,unchosen,NaN,NaN,NaN,NaN,1600,0,10,2
198,56445,0,199,3,3,1,gain1,no_gain3,G,F,36,15,objects,50,50,faces,Stimuli/Experimental_stims/objects/alexander-andrews-JYGnB9gTCls-unsplash.jpg,Stimuli/Experimental_stims/faces/erik-lucatero-d2MSDujJl2g-unsplash.jpg,1,NaN,,NaN,chosen,NaN,NaN,NaN,NaN,3100,1,10,2
199,56445,0,200,3,3,0,no_gain5,gain4,E,B,43,6,objects,50,50,outdoor_scenes,Stimuli/Experimental_stims/objects/jonathan-greenaway-Y4hGgeiFn3s-unsplash.jpg,Stimuli/Experimental_stims/outdoor_scenes/meng-ji-8BH_M-53CyA-unsplash.jpg,1,NaN,,NaN,chosen,NaN,NaN,NaN,NaN,2500,0,10,2
200,56445,0,201,3,3,0,no_gain1,gain1,J,G,42,9,objects,50,50,outdoor_scenes,Stimuli/Experimental_stims/objects/jess-bailey-nOeVi8DsN8U-unsplash.jpg,Stimuli/Experimental_stims/outdoor_scenes/sergey-pesterev-y-b_FOmJXdg-unsplash.jpg,1,NaN,,NaN,unchosen,NaN,NaN,NaN,NaN,2000,0,10,2
201,56445,0,202,3,3,0,no_gain4,gain4,A,B,8,6,outdoor_scenes,50,50,outdoor_scenes,Stimuli/Experimental_stims/outdoor_scenes/samsommer-vddccTqwal8-unsplash.jpg,Stimuli/Experimental_stims/outdoor_scenes/meng-ji-8BH_M-53CyA-unsplash.jpg,1,NaN,,NaN,chosen,NaN,NaN,NaN,NaN,2100,0,10,2
202,56445,0,203,3,3,1,gain3,no_gain5,I,E,32,43,body_parts,50,50,objects,Stimuli/Experimental_stims/body_parts/towfiqu-barbhuiya-3AsiVDsZnHg-unsplash.jpg,Stimuli/Experimental_stims/objects/jonathan-greenaway-Y4hGgeiFn3s-unsplash.jpg,1,NaN,,NaN,chosen,NaN,NaN,NaN,NaN,1200,0,10,2
203,56445,0,204,3,3,1,gain1,no_gain6,G,C,9,30,outdoor_scenes,50,50,body_parts,Stimuli/Experimental_stims/outdoor_scenes/sergey-pesterev-y-b_FOmJXdg-unsplash.jpg,Stimuli/Experimental_stims/body_parts/mika-korhonen-Xodzxosar18-unsplash.jpg,1,NaN,,NaN,unchosen,NaN,NaN,NaN,NaN,3300,1,10,2
204,56445,0,205,3,3,1,gain3,no_gain2,I,K,32,29,body_parts,50,50,body_parts,Stimuli/Experimental_stims/body_parts/towfiqu-barbhuiya-3AsiVDsZnHg-unsplash.jpg,Stimuli/Experimental_stims/body_parts/manuel-schinner-ZwjFuJ7ebpk-unsplash.jpg,1,NaN,,NaN,chosen,NaN,NaN,NaN,NaN,2100,0,10,2
205,56445,0,206,3,3,0,no_gain4,gain5,A,D,8,39,outdoor_scenes,50,50,objects,Stimuli/Experimental_stims/outdoor_scenes/samsommer-vddccTqwal8-unsplash.jpg,Stimuli/Experimental_stims/objects/charlesdeluvio-1-nx1QR5dTE-unsplash.jpg,1,NaN,,NaN,chosen,NaN,NaN,NaN,NaN,2100,0,10,2
206,56445,0,207,3,3,1,gain2,no_gain6,L,C,26,7,body_parts,50,50,outdoor_scenes,Stimuli/Experimental_stims/body_parts/engin-akyurt-x_3gyC42btc-unsplash.jpg,Stimuli/Experimental_stims/outdoor_scenes/petr-vysohlid-9fqwGqGLUxc-unsplash.jpg,1,NaN,,NaN,chosen,NaN,NaN,NaN,NaN,2600,0,10,2
207,56445,0,208,3,3,1,gain1,no_gain2,G,K,9,40,outdoor_scenes,50,50,objects,Stimuli/Experimental_stims/outdoor_scenes/sergey-pesterev-y-b_FOmJXdg-unsplash.jpg,Stimuli/Experimental_stims/objects/fabian-blank-pElSkGRA2NU-unsplash.jpg,1,NaN,,NaN,unchosen,NaN,NaN,NaN,NaN,2800,0,10,2
208,56445,0,209,3,3,1,gain1,no_gain4,G,A,9,46,outdoor_scenes,50,50,objects,Stimuli/Experimental_stims/outdoor_scenes/sergey-pesterev-y-b_FOmJXdg-unsplash.jpg,Stimuli/Experimental_stims/objects/mockup-graphics-PNsj6RiHAF4-unsplash.jpg,1,NaN,,NaN,unchosen,NaN,NaN,NaN,NaN,2100,0,10,2
209,56445,0,210,3,3,0,no_gain6,gain1,C,G,7,36,outdoor_scenes,50,50,objects,Stimuli/Experimental_stims/outdoor_scenes/petr-vysohlid-9fqwGqGLUxc-unsplash.jpg,Stimuli/Experimental_stims/objects/alexander-andrews-JYGnB9gTCls-unsplash.jpg,1,NaN,,NaN,chosen,NaN,NaN,NaN,NaN,1300,0,10,2
210,56445,0,211,3,3,0,no_gain5,gain6,E,H,43,18,objects,50,50,faces,Stimuli/Experimental_stims/objects/jonathan-greenaway-Y4hGgeiFn3s-unsplash.jpg,Stimuli/Experimental_stims/faces/jessica-radanavong-mrYkTuAesKE-unsplash.jpg,1,NaN,,NaN,chosen,NaN,NaN,NaN,NaN,3900,1,10,2
211,56445,0,212,3,3,0,no_gain2,gain6,K,H,40,11,objects,50,50,outdoor_scenes,Stimuli/Experimental_stims/objects/fabian-blank-pElSkGRA2NU-unsplash.jpg,Stimuli/Experimental_stims/outdoor_scenes/stephen-leonardi-gyIRjKPXupE-unsplash.jpg,1,NaN,,NaN,unchosen,NaN,NaN,NaN,NaN,1600,0,10,2
212,56445,0,213,3,3,1,gain4,no_gain2,B,K,6,29,outdoor_scenes,50,50,body_parts,Stimuli/Experimental_stims/outdoor_scenes/meng-ji-8BH_M-53CyA-unsplash.jpg,Stimuli/Experimental_stims/body_parts/manuel-schinner-ZwjFuJ7ebpk-unsplash.jpg,1,NaN,,NaN,chosen,NaN,NaN,NaN,NaN,1300,0,10,2
213,56445,0,214,3,3,0,no_gain3,gain5,F,D,24,21,body_parts,50,50,faces,Stimuli/Experimental_stims/body_parts/clay-banks-LjqARJaJotc-unsplash.jpg,Stimuli/Experimental_stims/faces/leilani-angel-K84vnnzxmTQ-unsplash.jpg,1,NaN,,NaN,unchosen,NaN,NaN,NaN,NaN,1700,0,10,2
214,56445,0,215,3,3,1,gain2,no_gain6,L,C,17,30,faces,50,50,body_parts,Stimuli/Experimental_stims/faces/good-faces-xmSWVeGEnJw-unsplash.jpg,Stimuli/Experimental_stims/body_parts/mika-korhonen-Xodzxosar18-unsplash.jpg,1,NaN,,NaN,unchosen,NaN,NaN,NaN,NaN,1600,0,10,2
215,56445,0,216,3,3,0,no_gain4,gain6,A,H,8,18,outdoor_scenes,50,50,faces,Stimuli/Experimental_stims/outdoor_scenes/samsommer-vddccTqwal8-unsplash.jpg,Stimuli/Experimental_stims/faces/jessica-radanavong-mrYkTuAesKE-unsplash.jpg,1,NaN,,NaN,chosen,NaN,NaN,NaN,NaN,3600,1,10,2
216,56445,0,217,3,3,1,gain5,no_gain5,D,E,21,34,faces,50,50,body_parts,Stimuli/Experimental_stims/faces/leilani-angel-K84vnnzxmTQ-unsplash.jpg,Stimuli/Experimental_stims/body_parts/wagner-santos-mBWMvIuVnso-unsplash.jpg,1,NaN,,NaN,unchosen,NaN,NaN,NaN,NaN,2700,0,10,2
217,56445,0,218,3,3,1,gain2,no_gain2,L,K,26,29,body_parts,50,50,body_parts,Stimuli/Experimental_stims/body_parts/engin-akyurt-x_3gyC42btc-unsplash.jpg,Stimuli/Experimental_stims/body_parts/manuel-schinner-ZwjFuJ7ebpk-unsplash.jpg,1,NaN,,NaN,chosen,NaN,NaN,NaN,NaN,2800,0,10,2
218,56445,0,219,3,3,0,no_gain6,gain6,C,H,30,11,body_parts,50,50,outdoor_scenes,Stimuli/Experimental_stims/body_parts/mika-korhonen-Xodzxosar18-unsplash.jpg,Stimuli/Experimental_stims/outdoor_scenes/stephen-leonardi-gyIRjKPXupE-unsplash.jpg,1,NaN,,NaN,unchosen,NaN,NaN,NaN,NaN,2800,0,10,2
219,56445,0,220,3,3,1,gain1,no_gain3,G,F,9,24,outdoor_scenes,50,50,body_parts,Stimuli/Experimental_stims/outdoor_scenes/sergey-pesterev-y-b_FOmJXdg-unsplash.jpg,Stimuli/Experimental_stims/body_parts/clay-banks-LjqARJaJotc-unsplash.jpg,1,NaN,,NaN,unchosen,NaN,NaN,NaN,NaN,1100,0,10,2
220,56445,0,221,4,4,0,no_gain6,gain2,C,L,7,26,outdoor_scenes,50,50,body_parts,Stimuli/Experimental_stims/outdoor_scenes/petr-vysohlid-9fqwGqGLUxc-unsplash.jpg,Stimuli/Experimental_stims/body_parts/engin-akyurt-x_3gyC42btc-unsplash.jpg,1,NaN,,NaN,chosen,NaN,NaN,NaN,NaN,4200,1,9,2
221,56445,0,222,4,4,1,gain4,no_gain2,B,K,22,40,faces,50,50,objects,Stimuli/Experimental_stims/faces/ravi-patel-VMGAbeeJTKo-unsplash.jpg,Stimuli/Experimental_stims/objects/fabian-blank-pElSkGRA2NU-unsplash.jpg,1,NaN,,NaN,unchosen,NaN,NaN,NaN,NaN,2400,0,9,2
222,56445,0,223,4,4,1,gain2,no_gain1,L,J,26,13,body_parts,50,50,faces,Stimuli/Experimental_stims/body_parts/engin-akyurt-x_3gyC42btc-unsplash.jpg,Stimuli/Experimental_stims/faces/daniel-rigdon-dXmXKPP2L4E-unsplash.jpg,1,NaN,,NaN,chosen,NaN,NaN,NaN,NaN,1200,0,9,2
223,56445,0,224,4,4,0,no_gain4,gain4,A,B,8,6,outdoor_scenes,50,50,outdoor_scenes,Stimuli/Experimental_stims/outdoor_scenes/samsommer-vddccTqwal8-unsplash.jpg,Stimuli/Experimental_stims/outdoor_scenes/meng-ji-8BH_M-53CyA-unsplash.jpg,1,NaN,,NaN,chosen,NaN,NaN,NaN,NaN,1400,0,9,2
224,56445,0,225,4,4,0,no_gain4,gain6,A,H,46,11,objects,50,50,outdoor_scenes,Stimuli/Experimental_stims/objects/mockup-graphics-PNsj6RiHAF4-unsplash.jpg,Stimuli/Experimental_stims/outdoor_scenes/stephen-leonardi-gyIRjKPXupE-unsplash.jpg,1,NaN,,NaN,unchosen,NaN,NaN,NaN,NaN,1800,0,9,2
225,56445,0,226,4,4,0,no_gain4,gain5,A,D,46,21,objects,50,50,faces,Stimuli/Experimental_stims/objects/mockup-graphics-PNsj6RiHAF4-unsplash.jpg,Stimuli/Experimental_stims/faces/leilani-angel-K84vnnzxmTQ-unsplash.jpg,0,1,30,0,unchosen,46,21,objects,faces,2200,0,9,2
226,56445,0,227,4,4,1,gain4,no_gain1,B,J,6,13,outdoor_scenes,50,50,faces,Stimuli/Experimental_stims/outdoor_scenes/meng-ji-8BH_M-53CyA-unsplash.jpg,Stimuli/Experimental_stims/faces/daniel-rigdon-dXmXKPP2L4E-unsplash.jpg,0,1,74,1,chosen,6,13,outdoor_scenes,faces,4000,1,9,2
227,56445,0,228,4,4,1,gain3,no_gain2,I,K,32,29,body_parts,50,50,body_parts,Stimuli/Experimental_stims/body_parts/towfiqu-barbhuiya-3AsiVDsZnHg-unsplash.jpg,Stimuli/Experimental_stims/body_parts/manuel-schinner-ZwjFuJ7ebpk-unsplash.jpg,0,1,61,1,chosen,32,29,body_parts,body_parts,1900,0,9,2
228,56445,0,229,4,4,0,no_gain5,gain4,E,B,43,6,objects,50,50,outdoor_scenes,Stimuli/Experimental_stims/objects/jonathan-greenaway-Y4hGgeiFn3s-unsplash.jpg,Stimuli/Experimental_stims/outdoor_scenes/meng-ji-8BH_M-53CyA-unsplash.jpg,0,1,41,0,chosen,43,6,objects,outdoor_scenes,1800,0,9,2
229,56445,0,230,4,4,0,no_gain4,gain3,A,I,46,4,objects,50,50,outdoor_scenes,Stimuli/Experimental_stims/objects/mockup-graphics-PNsj6RiHAF4-unsplash.jpg,Stimuli/Experimental_stims/outdoor_scenes/jarrett-kow-1ZOyYPOBn7I-unsplash.jpg,0,1,63,0,unchosen,46,4,objects,outdoor_scenes,1200,0,9,2
230,56445,0,231,4,4,0,no_gain3,gain5,F,D,24,21,body_parts,50,50,faces,Stimuli/Experimental_stims/body_parts/clay-banks-LjqARJaJotc-unsplash.jpg,Stimuli/Experimental_stims/faces/leilani-angel-K84vnnzxmTQ-unsplash.jpg,0,1,77,0,unchosen,24,21,body_parts,faces,1700,0,9,2
231,56445,0,232,4,4,0,no_gain2,gain5,K,D,40,21,objects,50,50,faces,Stimuli/Experimental_stims/objects/fabian-blank-pElSkGRA2NU-unsplash.jpg,Stimuli/Experimental_stims/faces/leilani-angel-K84vnnzxmTQ-unsplash.jpg,0,1,35,0,unchosen,40,21,objects,faces,3500,1,9,2
232,56445,0,233,4,4,1,gain3,no_gain3,I,F,32,15,body_parts,50,50,faces,Stimuli/Experimental_stims/body_parts/towfiqu-barbhuiya-3AsiVDsZnHg-unsplash.jpg,Stimuli/Experimental_stims/faces/erik-lucatero-d2MSDujJl2g-unsplash.jpg,0,1,67,1,chosen,32,15,body_parts,faces,1700,0,9,2
233,56445,0,234,4,4,1,gain2,no_gain2,L,K,17,40,faces,50,50,objects,Stimuli/Experimental_stims/faces/good-faces-xmSWVeGEnJw-unsplash.jpg,Stimuli/Experimental_stims/objects/fabian-blank-pElSkGRA2NU-unsplash.jpg,1,NaN,,NaN,unchosen,NaN,NaN,NaN,NaN,2000,0,9,2
234,56445,0,235,4,4,0,no_gain6,gain5,C,D,30,21,body_parts,50,50,faces,Stimuli/Experimental_stims/body_parts/mika-korhonen-Xodzxosar18-unsplash.jpg,Stimuli/Experimental_stims/faces/leilani-angel-K84vnnzxmTQ-unsplash.jpg,0,1,33,0,unchosen,30,21,body_parts,faces,1300,0,9,2
235,56445,0,236,4,4,1,gain6,no_gain1,H,J,18,13,faces,50,50,faces,Stimuli/Experimental_stims/faces/jessica-radanavong-mrYkTuAesKE-unsplash.jpg,Stimuli/Experimental_stims/faces/daniel-rigdon-dXmXKPP2L4E-unsplash.jpg,0,1,65,1,chosen,18,13,faces,faces,1400,0,9,2
236,56445,0,237,4,4,1,gain1,no_gain4,G,A,9,46,outdoor_scenes,50,50,objects,Stimuli/Experimental_stims/outdoor_scenes/sergey-pesterev-y-b_FOmJXdg-unsplash.jpg,Stimuli/Experimental_stims/objects/mockup-graphics-PNsj6RiHAF4-unsplash.jpg,0,1,60,1,unchosen,9,46,outdoor_scenes,objects,3600,1,9,2
237,56445,0,238,4,4,0,no_gain3,gain4,F,B,15,6,faces,50,50,outdoor_scenes,Stimuli/Experimental_stims/faces/erik-lucatero-d2MSDujJl2g-unsplash.jpg,Stimuli/Experimental_stims/outdoor_scenes/meng-ji-8BH_M-53CyA-unsplash.jpg,0,1,55,0,chosen,15,6,faces,outdoor_scenes,2700,0,9,2
238,56445,0,239,4,4,0,no_gain5,gain1,E,G,34,9,body_parts,50,50,outdoor_scenes,Stimuli/Experimental_stims/body_parts/wagner-santos-mBWMvIuVnso-unsplash.jpg,Stimuli/Experimental_stims/outdoor_scenes/sergey-pesterev-y-b_FOmJXdg-unsplash.jpg,0,1,65,0,unchosen,34,9,body_parts,outdoor_scenes,1900,0,9,2
239,56445,0,240,4,4,0,no_gain1,gain3,J,I,42,4,objects,50,50,outdoor_scenes,Stimuli/Experimental_stims/objects/jess-bailey-nOeVi8DsN8U-unsplash.jpg,Stimuli/Experimental_stims/outdoor_scenes/jarrett-kow-1ZOyYPOBn7I-unsplash.jpg,0,1,52,0,unchosen,42,4,objects,outdoor_scenes,1200,0,9,2
240,56445,0,241,4,4,0,no_gain2,gain1,K,G,40,9,objects,50,50,outdoor_scenes,Stimuli/Experimental_stims/objects/fabian-blank-pElSkGRA2NU-unsplash.jpg,Stimuli/Experimental_stims/outdoor_scenes/sergey-pesterev-y-b_FOmJXdg-unsplash.jpg,0,1,53,0,unchosen,40,9,objects,outdoor_scenes,1000,0,9,2
241,56445,0,242,4,4,1,gain3,no_gain4,I,A,32,8,body_parts,50,50,outdoor_scenes,Stimuli/Experimental_stims/body_parts/towfiqu-barbhuiya-3AsiVDsZnHg-unsplash.jpg,Stimuli/Experimental_stims/outdoor_scenes/samsommer-vddccTqwal8-unsplash.jpg,0,1,30,1,chosen,32,8,body_parts,outdoor_scenes,3700,1,9,2
242,56445,0,243,4,4,0,no_gain4,gain1,A,G,8,36,outdoor_scenes,50,50,objects,Stimuli/Experimental_stims/outdoor_scenes/samsommer-vddccTqwal8-unsplash.jpg,Stimuli/Experimental_stims/objects/alexander-andrews-JYGnB9gTCls-unsplash.jpg,0,1,43,0,chosen,8,36,outdoor_scenes,objects,1200,0,9,2
243,56445,0,244,4,4,1,gain2,no_gain3,L,F,17,24,faces,50,50,body_parts,Stimuli/Experimental_stims/faces/good-faces-xmSWVeGEnJw-unsplash.jpg,Stimuli/Experimental_stims/body_parts/clay-banks-LjqARJaJotc-unsplash.jpg,0,1,66,1,unchosen,17,24,faces,body_parts,2600,0,9,2
244,56445,0,245,4,4,1,gain4,no_gain4,B,A,22,46,faces,50,50,objects,Stimuli/Experimental_stims/faces/ravi-patel-VMGAbeeJTKo-unsplash.jpg,Stimuli/Experimental_stims/objects/mockup-graphics-PNsj6RiHAF4-unsplash.jpg,0,1,52,1,unchosen,22,46,faces,objects,2400,0,9,2
245,56445,0,246,4,4,1,gain2,no_gain6,L,C,17,30,faces,50,50,body_parts,Stimuli/Experimental_stims/faces/good-faces-xmSWVeGEnJw-unsplash.jpg,Stimuli/Experimental_stims/body_parts/mika-korhonen-Xodzxosar18-unsplash.jpg,0,1,52,1,unchosen,17,30,faces,body_parts,1200,0,9,2
246,56445,0,247,4,4,0,no_gain6,gain6,C,H,7,18,outdoor_scenes,50,50,faces,Stimuli/Experimental_stims/outdoor_scenes/petr-vysohlid-9fqwGqGLUxc-unsplash.jpg,Stimuli/Experimental_stims/faces/jessica-radanavong-mrYkTuAesKE-unsplash.jpg,0,1,55,0,chosen,7,18,outdoor_scenes,faces,2500,0,9,2
247,56445,0,248,4,4,1,gain2,no_gain5,L,E,17,34,faces,50,50,body_parts,Stimuli/Experimental_stims/faces/good-faces-xmSWVeGEnJw-unsplash.jpg,Stimuli/Experimental_stims/body_parts/wagner-santos-mBWMvIuVnso-unsplash.jpg,0,1,48,1,unchosen,17,34,faces,body_parts,2200,0,9,2
248,56445,0,249,4,4,0,no_gain1,gain3,J,I,13,32,faces,50,50,body_parts,Stimuli/Experimental_stims/faces/daniel-rigdon-dXmXKPP2L4E-unsplash.jpg,Stimuli/Experimental_stims/body_parts/towfiqu-barbhuiya-3AsiVDsZnHg-unsplash.jpg,0,1,44,0,chosen,13,32,faces,body_parts,1100,0,9,2
249,56445,0,250,4,4,0,no_gain6,gain1,C,G,7,36,outdoor_scenes,50,50,objects,Stimuli/Experimental_stims/outdoor_scenes/petr-vysohlid-9fqwGqGLUxc-unsplash.jpg,Stimuli/Experimental_stims/objects/alexander-andrews-JYGnB9gTCls-unsplash.jpg,1,NaN,,NaN,chosen,NaN,NaN,NaN,NaN,1700,0,9,2
250,56445,0,251,4,4,0,no_gain1,gain2,J,L,42,17,objects,50,50,faces,Stimuli/Experimental_stims/objects/jess-bailey-nOeVi8DsN8U-unsplash.jpg,Stimuli/Experimental_stims/faces/good-faces-xmSWVeGEnJw-unsplash.jpg,1,NaN,,NaN,unchosen,NaN,NaN,NaN,NaN,1100,0,9,2
251,56445,0,252,4,4,1,gain6,no_gain3,H,F,18,15,faces,50,50,faces,Stimuli/Experimental_stims/faces/jessica-radanavong-mrYkTuAesKE-unsplash.jpg,Stimuli/Experimental_stims/faces/erik-lucatero-d2MSDujJl2g-unsplash.jpg,1,NaN,,NaN,chosen,NaN,NaN,NaN,NaN,1900,0,9,2
252,56445,0,253,4,4,1,gain4,no_gain1,B,J,22,42,faces,50,50,objects,Stimuli/Experimental_stims/faces/ravi-patel-VMGAbeeJTKo-unsplash.jpg,Stimuli/Experimental_stims/objects/jess-bailey-nOeVi8DsN8U-unsplash.jpg,1,NaN,,NaN,unchosen,NaN,NaN,NaN,NaN,1100,0,9,2
253,56445,0,254,4,4,1,gain4,no_gain5,B,E,22,34,faces,50,50,body_parts,Stimuli/Experimental_stims/faces/ravi-patel-VMGAbeeJTKo-unsplash.jpg,Stimuli/Experimental_stims/body_parts/wagner-santos-mBWMvIuVnso-unsplash.jpg,1,NaN,,NaN,unchosen,NaN,NaN,NaN,NaN,1000,0,9,2
254,56445,0,255,4,4,1,gain6,no_gain6,H,C,11,30,outdoor_scenes,50,50,body_parts,Stimuli/Experimental_stims/outdoor_scenes/stephen-leonardi-gyIRjKPXupE-unsplash.jpg,Stimuli/Experimental_stims/body_parts/mika-korhonen-Xodzxosar18-unsplash.jpg,1,NaN,,NaN,unchosen,NaN,NaN,NaN,NaN,1600,0,9,2
255,56445,0,256,4,4,0,no_gain4,gain5,A,D,8,39,outdoor_scenes,50,50,objects,Stimuli/Experimental_stims/outdoor_scenes/samsommer-vddccTqwal8-unsplash.jpg,Stimuli/Experimental_stims/objects/charlesdeluvio-1-nx1QR5dTE-unsplash.jpg,1,NaN,,NaN,chosen,NaN,NaN,NaN,NaN,2700,0,9,2
256,56445,0,257,4,4,1,gain4,no_gain6,B,C,22,30,faces,50,50,body_parts,Stimuli/Experimental_stims/faces/ravi-patel-VMGAbeeJTKo-unsplash.jpg,Stimuli/Experimental_stims/body_parts/mika-korhonen-Xodzxosar18-unsplash.jpg,1,NaN,,NaN,unchosen,NaN,NaN,NaN,NaN,3500,1,9,2
257,56445,0,258,4,4,0,no_gain2,gain6,K,H,40,11,objects,50,50,outdoor_scenes,Stimuli/Experimental_stims/objects/fabian-blank-pElSkGRA2NU-unsplash.jpg,Stimuli/Experimental_stims/outdoor_scenes/stephen-leonardi-gyIRjKPXupE-unsplash.jpg,1,NaN,,NaN,unchosen,NaN,NaN,NaN,NaN,1000,0,9,2
258,56445,0,259,4,4,0,no_gain2,gain3,K,I,40,4,objects,50,50,outdoor_scenes,Stimuli/Experimental_stims/objects/fabian-blank-pElSkGRA2NU-unsplash.jpg,Stimuli/Experimental_stims/outdoor_scenes/jarrett-kow-1ZOyYPOBn7I-unsplash.jpg,1,NaN,,NaN,unchosen,NaN,NaN,NaN,NaN,1700,0,9,2
259,56445,0,260,4,4,1,gain2,no_gain5,L,E,26,43,body_parts,50,50,objects,Stimuli/Experimental_stims/body_parts/engin-akyurt-x_3gyC42btc-unsplash.jpg,Stimuli/Experimental_stims/objects/jonathan-greenaway-Y4hGgeiFn3s-unsplash.jpg,1,NaN,,NaN,chosen,NaN,NaN,NaN,NaN,1500,0,9,2
260,56445,0,261,4,4,1,gain3,no_gain5,I,E,32,43,body_parts,50,50,objects,Stimuli/Experimental_stims/body_parts/towfiqu-barbhuiya-3AsiVDsZnHg-unsplash.jpg,Stimuli/Experimental_stims/objects/jonathan-greenaway-Y4hGgeiFn3s-unsplash.jpg,1,NaN,,NaN,chosen,NaN,NaN,NaN,NaN,1400,0,9,2
261,56445,0,262,4,4,1,gain5,no_gain3,D,F,39,15,objects,50,50,faces,Stimuli/Experimental_stims/objects/charlesdeluvio-1-nx1QR5dTE-unsplash.jpg,Stimuli/Experimental_stims/faces/erik-lucatero-d2MSDujJl2g-unsplash.jpg,1,NaN,,NaN,chosen,NaN,NaN,NaN,NaN,1300,0,9,2
262,56445,0,263,4,4,1,gain5,no_gain5,D,E,21,34,faces,50,50,body_parts,Stimuli/Experimental_stims/faces/leilani-angel-K84vnnzxmTQ-unsplash.jpg,Stimuli/Experimental_stims/body_parts/wagner-santos-mBWMvIuVnso-unsplash.jpg,1,NaN,,NaN,unchosen,NaN,NaN,NaN,NaN,4500,1,9,2
263,56445,0,264,4,4,0,no_gain5,gain6,E,H,34,11,body_parts,50,50,outdoor_scenes,Stimuli/Experimental_stims/body_parts/wagner-santos-mBWMvIuVnso-unsplash.jpg,Stimuli/Experimental_stims/outdoor_scenes/stephen-leonardi-gyIRjKPXupE-unsplash.jpg,1,NaN,,NaN,unchosen,NaN,NaN,NaN,NaN,1900,0,9,2
264,56445,0,265,4,4,0,no_gain6,gain1,C,G,30,9,body_parts,50,50,outdoor_scenes,Stimuli/Experimental_stims/body_parts/mika-korhonen-Xodzxosar18-unsplash.jpg,Stimuli/Experimental_stims/outdoor_scenes/sergey-pesterev-y-b_FOmJXdg-unsplash.jpg,1,NaN,,NaN,unchosen,NaN,NaN,NaN,NaN,1900,0,9,2
265,56445,0,266,4,4,1,gain5,no_gain5,D,E,39,43,objects,50,50,objects,Stimuli/Experimental_stims/objects/charlesdeluvio-1-nx1QR5dTE-unsplash.jpg,Stimuli/Experimental_stims/objects/jonathan-greenaway-Y4hGgeiFn3s-unsplash.jpg,1,NaN,,NaN,chosen,NaN,NaN,NaN,NaN,1600,0,9,2
266,56445,0,267,4,4,0,no_gain2,gain4,K,B,29,6,body_parts,50,50,outdoor_scenes,Stimuli/Experimental_stims/body_parts/manuel-schinner-ZwjFuJ7ebpk-unsplash.jpg,Stimuli/Experimental_stims/outdoor_scenes/meng-ji-8BH_M-53CyA-unsplash.jpg,1,NaN,,NaN,chosen,NaN,NaN,NaN,NaN,2300,0,9,2
267,56445,0,268,4,4,1,gain6,no_gain2,H,K,18,29,faces,50,50,body_parts,Stimuli/Experimental_stims/faces/jessica-radanavong-mrYkTuAesKE-unsplash.jpg,Stimuli/Experimental_stims/body_parts/manuel-schinner-ZwjFuJ7ebpk-unsplash.jpg,1,NaN,,NaN,chosen,NaN,NaN,NaN,NaN,3700,1,9,2
268,56445,0,269,4,4,0,no_gain3,gain3,F,I,24,4,body_parts,50,50,outdoor_scenes,Stimuli/Experimental_stims/body_parts/clay-banks-LjqARJaJotc-unsplash.jpg,Stimuli/Experimental_stims/outdoor_scenes/jarrett-kow-1ZOyYPOBn7I-unsplash.jpg,1,NaN,,NaN,unchosen,NaN,NaN,NaN,NaN,1200,0,9,2
269,56445,0,270,4,4,1,gain4,no_gain3,B,F,22,24,faces,50,50,body_parts,Stimuli/Experimental_stims/faces/ravi-patel-VMGAbeeJTKo-unsplash.jpg,Stimuli/Experimental_stims/body_parts/clay-banks-LjqARJaJotc-unsplash.jpg,1,NaN,,NaN,unchosen,NaN,NaN,NaN,NaN,1900,0,9,2
270,56445,0,271,4,4,0,no_gain3,gain1,F,G,24,9,body_parts,50,50,outdoor_scenes,Stimuli/Experimental_stims/body_parts/clay-banks-LjqARJaJotc-unsplash.jpg,Stimuli/Experimental_stims/outdoor_scenes/sergey-pesterev-y-b_FOmJXdg-unsplash.jpg,1,NaN,,NaN,unchosen,NaN,NaN,NaN,NaN,2000,0,9,2
271,56445,0,272,4,4,1,gain1,no_gain3,G,F,36,15,objects,50,50,faces,Stimuli/Experimental_stims/objects/alexander-andrews-JYGnB9gTCls-unsplash.jpg,Stimuli/Experimental_stims/faces/erik-lucatero-d2MSDujJl2g-unsplash.jpg,1,NaN,,NaN,chosen,NaN,NaN,NaN,NaN,2700,0,9,2
272,56445,0,273,4,4,1,gain6,no_gain5,H,E,18,43,faces,50,50,objects,Stimuli/Experimental_stims/faces/jessica-radanavong-mrYkTuAesKE-unsplash.jpg,Stimuli/Experimental_stims/objects/jonathan-greenaway-Y4hGgeiFn3s-unsplash.jpg,1,NaN,,NaN,chosen,NaN,NaN,NaN,NaN,1100,0,9,2
273,56445,0,274,4,4,0,no_gain2,gain1,K,G,29,36,body_parts,50,50,objects,Stimuli/Experimental_stims/body_parts/manuel-schinner-ZwjFuJ7ebpk-unsplash.jpg,Stimuli/Experimental_stims/objects/alexander-andrews-JYGnB9gTCls-unsplash.jpg,1,NaN,,NaN,chosen,NaN,NaN,NaN,NaN,4200,1,9,2
274,56445,0,275,4,4,1,gain3,no_gain6,I,C,4,30,outdoor_scenes,50,50,body_parts,Stimuli/Experimental_stims/outdoor_scenes/jarrett-kow-1ZOyYPOBn7I-unsplash.jpg,Stimuli/Experimental_stims/body_parts/mika-korhonen-Xodzxosar18-unsplash.jpg,1,NaN,,NaN,unchosen,NaN,NaN,NaN,NaN,1300,0,9,2
275,56445,0,276,4,4,1,gain1,no_gain5,G,E,36,43,objects,50,50,objects,Stimuli/Experimental_stims/objects/alexander-andrews-JYGnB9gTCls-unsplash.jpg,Stimuli/Experimental_stims/objects/jonathan-greenaway-Y4hGgeiFn3s-unsplash.jpg,1,NaN,,NaN,chosen,NaN,NaN,NaN,NaN,2000,0,9,2
276,56445,0,277,4,4,0,no_gain3,gain2,F,L,15,26,faces,50,50,body_parts,Stimuli/Experimental_stims/faces/erik-lucatero-d2MSDujJl2g-unsplash.jpg,Stimuli/Experimental_stims/body_parts/engin-akyurt-x_3gyC42btc-unsplash.jpg,1,NaN,,NaN,chosen,NaN,NaN,NaN,NaN,1100,0,9,2
277,56445,0,278,4,4,1,gain5,no_gain1,D,J,21,42,faces,50,50,objects,Stimuli/Experimental_stims/faces/leilani-angel-K84vnnzxmTQ-unsplash.jpg,Stimuli/Experimental_stims/objects/jess-bailey-nOeVi8DsN8U-unsplash.jpg,1,NaN,,NaN,unchosen,NaN,NaN,NaN,NaN,2300,0,9,2
278,56445,0,279,4,4,1,gain2,no_gain2,L,K,26,29,body_parts,50,50,body_parts,Stimuli/Experimental_stims/body_parts/engin-akyurt-x_3gyC42btc-unsplash.jpg,Stimuli/Experimental_stims/body_parts/manuel-schinner-ZwjFuJ7ebpk-unsplash.jpg,1,NaN,,NaN,chosen,NaN,NaN,NaN,NaN,2900,0,9,2
279,56445,0,280,4,4,0,no_gain2,gain5,K,D,29,39,body_parts,50,50,objects,Stimuli/Experimental_stims/body_parts/manuel-schinner-ZwjFuJ7ebpk-unsplash.jpg,Stimuli/Experimental_stims/objects/charlesdeluvio-1-nx1QR5dTE-unsplash.jpg,1,NaN,,NaN,chosen,NaN,NaN,NaN,NaN,1200,0,9,2
280,56445,0,281,4,4,1,gain5,no_gain6,D,C,39,7,objects,50,50,outdoor_scenes,Stimuli/Experimental_stims/objects/charlesdeluvio-1-nx1QR5dTE-unsplash.jpg,Stimuli/Experimental_stims/outdoor_scenes/petr-vysohlid-9fqwGqGLUxc-unsplash.jpg,1,NaN,,NaN,chosen,NaN,NaN,NaN,NaN,1500,0,9,2
281,56445,0,282,4,4,1,gain6,no_gain3,H,F,11,24,outdoor_scenes,50,50,body_parts,Stimuli/Experimental_stims/outdoor_scenes/stephen-leonardi-gyIRjKPXupE-unsplash.jpg,Stimuli/Experimental_stims/body_parts/clay-banks-LjqARJaJotc-unsplash.jpg,1,NaN,,NaN,unchosen,NaN,NaN,NaN,NaN,1100,0,9,2
282,56445,0,283,4,4,0,no_gain6,gain4,C,B,7,6,outdoor_scenes,50,50,outdoor_scenes,Stimuli/Experimental_stims/outdoor_scenes/petr-vysohlid-9fqwGqGLUxc-unsplash.jpg,Stimuli/Experimental_stims/outdoor_scenes/meng-ji-8BH_M-53CyA-unsplash.jpg,1,NaN,,NaN,chosen,NaN,NaN,NaN,NaN,1200,0,9,2
283,56445,0,284,4,4,0,no_gain4,gain2,A,L,8,26,outdoor_scenes,50,50,body_parts,Stimuli/Experimental_stims/outdoor_scenes/samsommer-vddccTqwal8-unsplash.jpg,Stimuli/Experimental_stims/body_parts/engin-akyurt-x_3gyC42btc-unsplash.jpg,1,NaN,,NaN,chosen,NaN,NaN,NaN,NaN,1400,0,9,2
284,56445,0,285,4,4,1,gain2,no_gain4,L,A,17,46,faces,50,50,objects,Stimuli/Experimental_stims/faces/good-faces-xmSWVeGEnJw-unsplash.jpg,Stimuli/Experimental_stims/objects/mockup-graphics-PNsj6RiHAF4-unsplash.jpg,1,NaN,,NaN,unchosen,NaN,NaN,NaN,NaN,1100,0,9,2
285,56445,0,286,4,4,1,gain3,no_gain6,I,C,32,7,body_parts,50,50,outdoor_scenes,Stimuli/Experimental_stims/body_parts/towfiqu-barbhuiya-3AsiVDsZnHg-unsplash.jpg,Stimuli/Experimental_stims/outdoor_scenes/petr-vysohlid-9fqwGqGLUxc-unsplash.jpg,1,NaN,,NaN,chosen,NaN,NaN,NaN,NaN,2100,0,9,2
286,56445,0,287,4,4,0,no_gain1,gain1,J,G,42,9,objects,50,50,outdoor_scenes,Stimuli/Experimental_stims/objects/jess-bailey-nOeVi8DsN8U-unsplash.jpg,Stimuli/Experimental_stims/outdoor_scenes/sergey-pesterev-y-b_FOmJXdg-unsplash.jpg,1,NaN,,NaN,unchosen,NaN,NaN,NaN,NaN,3300,1,9,2
287,56445,0,288,4,4,0,no_gain1,gain6,J,H,42,11,objects,50,50,outdoor_scenes,Stimuli/Experimental_stims/objects/jess-bailey-nOeVi8DsN8U-unsplash.jpg,Stimuli/Experimental_stims/outdoor_scenes/stephen-leonardi-gyIRjKPXupE-unsplash.jpg,1,NaN,,NaN,unchosen,NaN,NaN,NaN,NaN,1900,0,9,2
288,56445,0,289,4,4,0,no_gain1,gain5,J,D,13,39,faces,50,50,objects,Stimuli/Experimental_stims/faces/daniel-rigdon-dXmXKPP2L4E-unsplash.jpg,Stimuli/Experimental_stims/objects/charlesdeluvio-1-nx1QR5dTE-unsplash.jpg,1,NaN,,NaN,chosen,NaN,NaN,NaN,NaN,2000,0,9,2
289,56445,0,290,4,4,0,no_gain4,gain6,A,H,8,18,outdoor_scenes,50,50,faces,Stimuli/Experimental_stims/outdoor_scenes/samsommer-vddccTqwal8-unsplash.jpg,Stimuli/Experimental_stims/faces/jessica-radanavong-mrYkTuAesKE-unsplash.jpg,1,NaN,,NaN,chosen,NaN,NaN,NaN,NaN,1100,0,9,2
290,56445,0,291,4,4,1,gain3,no_gain5,I,E,4,34,outdoor_scenes,50,50,body_parts,Stimuli/Experimental_stims/outdoor_scenes/jarrett-kow-1ZOyYPOBn7I-unsplash.jpg,Stimuli/Experimental_stims/body_parts/wagner-santos-mBWMvIuVnso-unsplash.jpg,1,NaN,,NaN,unchosen,NaN,NaN,NaN,NaN,1800,0,9,2
291,56445,0,292,4,4,0,no_gain1,gain1,J,G,13,36,faces,50,50,objects,Stimuli/Experimental_stims/faces/daniel-rigdon-dXmXKPP2L4E-unsplash.jpg,Stimuli/Experimental_stims/objects/alexander-andrews-JYGnB9gTCls-unsplash.jpg,1,NaN,,NaN,chosen,NaN,NaN,NaN,NaN,3200,1,9,2