,PID,practice,trial,block,run,gain_left,left_item_id,right_item_id,left_pair_id,right_pair_id,left_stimulus,right_stimulus,left_category,right_category,left_rating,right_rating,left_path,right_path,no_response,left_chosen,rt,higher_outcome_chosen,choice_type,chosen_stimulus,unchosen_stimulus,chosen_category,unchosen_category,iti,long_iti,simulation,version
0,50734,1,1,0,0,0,,,,,,,,,,,Stimuli/Practice_stims/Final_decisions/debby-hudson-FmCSSSGge-0-unsplash.jpg,Stimuli/Practice_stims/Final_decisions/yassine-khalfalli-adsQ9d_Cx0c-unsplash.jpg,0,1,1376,0,,,,,,3000,0,9,3
1,50734,1,2,0,0,0,,,,,,,,,,,Stimuli/Practice_stims/Final_decisions/florian-wehde-iVW7mZPwd4g-unsplash.jpg,Stimuli/Practice_stims/Final_decisions/patrick-perkins-3wylDrjxH-E-unsplash.jpg,0,1,1380,0,,,,,,1500,0,9,3
2,50734,1,3,0,0,0,,,,,,,,,,,Stimuli/Practice_stims/Final_decisions/debby-hudson-FmCSSSGge-0-unsplash.jpg,Stimuli/Practice_stims/Final_decisions/florian-wehde-iVW7mZPwd4g-unsplash.jpg,0,1,1190,0,,,,,,2000,0,9,3
3,50734,1,4,0,0,0,,,,,,,,,,,Stimuli/Practice_stims/Final_decisions/yassine-khalfalli-adsQ9d_Cx0c-unsplash.jpg,Stimuli/Practice_stims/Final_decisions/debby-hudson-FmCSSSGge-0-unsplash.jpg,0,0,1234,1,,,,,,1000,0,9,3
4,50734,0,5,1,1,1,gain5,no_gain5,E,J,43,19,objects,faces,38,67,Stimuli/Experimental_stims/objects/jonathan-greenaway-Y4hGgeiFn3s-unsplash.jpg,Stimuli/Experimental_stims/faces/joel-mott-LaK153ghdig-unsplash.jpg,1,NaN,,NaN,unchosen,NaN,NaN,NaN,NaN,4700,1,9,3
5,50734,0,6,1,1,1,gain3,no_gain2,A,I,37,27,objects,body_parts,76,96,Stimuli/Experimental_stims/objects/alexander-andrews-VLGWE_SumrA-unsplash.jpg,Stimuli/Experimental_stims/body_parts/heike-mintel-i_Gns0ELnLw-unsplash.jpg,0,0,1295,0,unchosen,27,37,body_parts,objects,2300,0,9,3
6,50734,0,7,1,1,1,gain1,no_gain2,C,I,29,27,body_parts,body_parts,98,96,Stimuli/Experimental_stims/body_parts/manuel-schinner-ZwjFuJ7ebpk-unsplash.jpg,Stimuli/Experimental_stims/body_parts/heike-mintel-i_Gns0ELnLw-unsplash.jpg,1,NaN,,NaN,unchosen,NaN,NaN,NaN,NaN,1100,0,9,3
7,50734,0,8,1,1,0,no_gain4,gain5,G,E,7,31,outdoor_scenes,body_parts,81,76,Stimuli/Experimental_stims/outdoor_scenes/petr-vysohlid-9fqwGqGLUxc-unsplash.jpg,Stimuli/Experimental_stims/body_parts/sincerely-media-VN6DbKajo5s-unsplash.jpg,0,1,1431,0,chosen,7,31,outdoor_scenes,body_parts,1600,0,9,3
8,50734,0,9,1,1,0,no_gain5,gain1,J,C,19,29,faces,body_parts,67,98,Stimuli/Experimental_stims/faces/joel-mott-LaK153ghdig-unsplash.jpg,Stimuli/Experimental_stims/body_parts/manuel-schinner-ZwjFuJ7ebpk-unsplash.jpg,0,0,1145,1,unchosen,29,19,body_parts,faces,2300,0,9,3
9,50734,0,10,1,1,0,no_gain4,gain1,G,C,7,5,outdoor_scenes,outdoor_scenes,81,93,Stimuli/Experimental_stims/outdoor_scenes/petr-vysohlid-9fqwGqGLUxc-unsplash.jpg,Stimuli/Experimental_stims/outdoor_scenes/jeff-king-bJHWJeiHfHc-unsplash.jpg,0,1,1488,0,chosen,7,5,outdoor_scenes,outdoor_scenes,1500,0,9,3
10,50734,0,11,1,1,1,gain1,no_gain3,C,B,5,4,outdoor_scenes,outdoor_scenes,93,96,Stimuli/Experimental_stims/outdoor_scenes/jeff-king-bJHWJeiHfHc-unsplash.jpg,Stimuli/Experimental_stims/outdoor_scenes/jarrett-kow-1ZOyYPOBn7I-unsplash.jpg,0,1,1282,1,chosen,5,4,outdoor_scenes,outdoor_scenes,1500,0,9,3
11,50734,0,12,1,1,0,no_gain1,gain1,F,C,25,5,body_parts,outdoor_scenes,39,93,Stimuli/Experimental_stims/body_parts/engin-akyurt-Q2rfH3GW39c-unsplash.jpg,Stimuli/Experimental_stims/outdoor_scenes/jeff-king-bJHWJeiHfHc-unsplash.jpg,1,NaN,,NaN,chosen,NaN,NaN,NaN,NaN,1200,0,9,3
12,50734,0,13,1,1,1,gain6,no_gain1,K,F,38,22,objects,faces,92,53,Stimuli/Experimental_stims/objects/art-lasovsky-8XddFc6NkBY-unsplash.jpg,Stimuli/Experimental_stims/faces/ravi-patel-VMGAbeeJTKo-unsplash.jpg,1,NaN,,NaN,unchosen,NaN,NaN,NaN,NaN,1300,0,9,3
13,50734,0,14,1,1,0,no_gain1,gain4,F,H,25,0,body_parts,outdoor_scenes,39,99,Stimuli/Experimental_stims/body_parts/engin-akyurt-Q2rfH3GW39c-unsplash.jpg,Stimuli/Experimental_stims/outdoor_scenes/aleksandra-boguslawska-MS7KD9Ti7FQ-unsplash.jpg,1,NaN,,NaN,chosen,NaN,NaN,NaN,NaN,1200,0,9,3
14,50734,0,15,1,1,1,gain6,no_gain4,K,G,38,36,objects,objects,92,81,Stimuli/Experimental_stims/objects/art-lasovsky-8XddFc6NkBY-unsplash.jpg,Stimuli/Experimental_stims/objects/alexander-andrews-JYGnB9gTCls-unsplash.jpg,0,1,356,1,unchosen,38,36,objects,objects,4100,1,9,3
15,50734,0,16,1,1,1,gain4,no_gain4,H,G,14,36,faces,objects,32,81,Stimuli/Experimental_stims/faces/david-siglin-UuW4psOb388-unsplash.jpg,Stimuli/Experimental_stims/objects/alexander-andrews-JYGnB9gTCls-unsplash.jpg,0,1,1085,1,unchosen,14,36,faces,objects,1200,0,9,3
16,50734,0,17,1,1,1,gain5,no_gain6,E,L,31,30,body_parts,body_parts,76,61,Stimuli/Experimental_stims/body_parts/sincerely-media-VN6DbKajo5s-unsplash.jpg,Stimuli/Experimental_stims/body_parts/mika-korhonen-Xodzxosar18-unsplash.jpg,0,1,1301,1,chosen,31,30,body_parts,body_parts,1200,0,9,3
17,50734,0,18,1,1,0,no_gain3,gain3,B,A,23,37,faces,objects,54,76,Stimuli/Experimental_stims/faces/rikonavt-HQjfrvdTfak-unsplash.jpg,Stimuli/Experimental_stims/objects/alexander-andrews-VLGWE_SumrA-unsplash.jpg,0,0,978,1,unchosen,37,23,objects,faces,1600,0,9,3
18,50734,0,19,1,1,0,no_gain4,gain3,G,A,7,3,outdoor_scenes,outdoor_scenes,81,99,Stimuli/Experimental_stims/outdoor_scenes/petr-vysohlid-9fqwGqGLUxc-unsplash.jpg,Stimuli/Experimental_stims/outdoor_scenes/henry-be-NLF6hTe4PAg-unsplash.jpg,0,1,1242,0,chosen,7,3,outdoor_scenes,outdoor_scenes,1400,0,9,3
19,50734,0,20,1,1,0,no_gain2,gain2,I,D,27,39,body_parts,objects,96,95,Stimuli/Experimental_stims/body_parts/heike-mintel-i_Gns0ELnLw-unsplash.jpg,Stimuli/Experimental_stims/objects/charlesdeluvio-1-nx1QR5dTE-unsplash.jpg,0,0,1291,1,unchosen,39,27,objects,body_parts,4300,1,9,3
20,50734,0,21,1,1,1,gain2,no_gain4,D,G,18,7,faces,outdoor_scenes,40,81,Stimuli/Experimental_stims/faces/jessica-radanavong-mrYkTuAesKE-unsplash.jpg,Stimuli/Experimental_stims/outdoor_scenes/petr-vysohlid-9fqwGqGLUxc-unsplash.jpg,0,1,1007,1,chosen,18,7,faces,outdoor_scenes,1500,0,9,3
21,50734,0,22,1,1,1,gain2,no_gain5,D,J,18,47,faces,objects,40,82,Stimuli/Experimental_stims/faces/jessica-radanavong-mrYkTuAesKE-unsplash.jpg,Stimuli/Experimental_stims/objects/ronaldo-arthur-vidal-Cdz_lvnl37k-unsplash.jpg,1,NaN,,NaN,chosen,NaN,NaN,NaN,NaN,1400,0,9,3
22,50734,0,23,1,1,1,gain4,no_gain2,H,I,14,27,faces,body_parts,32,96,Stimuli/Experimental_stims/faces/david-siglin-UuW4psOb388-unsplash.jpg,Stimuli/Experimental_stims/body_parts/heike-mintel-i_Gns0ELnLw-unsplash.jpg,1,NaN,,NaN,unchosen,NaN,NaN,NaN,NaN,1300,0,9,3
23,50734,0,24,1,1,1,gain2,no_gain6,D,L,39,20,objects,faces,95,58,Stimuli/Experimental_stims/objects/charlesdeluvio-1-nx1QR5dTE-unsplash.jpg,Stimuli/Experimental_stims/faces/justin-chen-J7Cf1Gch49E-unsplash.jpg,0,1,840,1,unchosen,39,20,objects,faces,1000,0,9,3
24,50734,0,25,1,1,0,no_gain1,gain5,F,E,25,31,body_parts,body_parts,39,76,Stimuli/Experimental_stims/body_parts/engin-akyurt-Q2rfH3GW39c-unsplash.jpg,Stimuli/Experimental_stims/body_parts/sincerely-media-VN6DbKajo5s-unsplash.jpg,0,0,1018,1,chosen,31,25,body_parts,body_parts,3100,1,9,3
25,50734,0,26,1,1,1,gain2,no_gain1,D,F,18,25,faces,body_parts,40,39,Stimuli/Experimental_stims/faces/jessica-radanavong-mrYkTuAesKE-unsplash.jpg,Stimuli/Experimental_stims/body_parts/engin-akyurt-Q2rfH3GW39c-unsplash.jpg,0,0,976,0,chosen,25,18,body_parts,faces,2700,0,9,3
26,50734,0,27,1,1,1,gain2,no_gain2,D,I,18,8,faces,outdoor_scenes,40,94,Stimuli/Experimental_stims/faces/jessica-radanavong-mrYkTuAesKE-unsplash.jpg,Stimuli/Experimental_stims/outdoor_scenes/samsommer-vddccTqwal8-unsplash.jpg,0,1,798,1,chosen,18,8,faces,outdoor_scenes,1400,0,9,3
27,50734,0,28,1,1,1,gain4,no_gain3,H,B,14,23,faces,faces,32,54,Stimuli/Experimental_stims/faces/david-siglin-UuW4psOb388-unsplash.jpg,Stimuli/Experimental_stims/faces/rikonavt-HQjfrvdTfak-unsplash.jpg,1,NaN,,NaN,unchosen,NaN,NaN,NaN,NaN,1100,0,9,3
28,50734,0,29,1,1,0,no_gain1,gain3,F,A,22,37,faces,objects,53,76,Stimuli/Experimental_stims/faces/ravi-patel-VMGAbeeJTKo-unsplash.jpg,Stimuli/Experimental_stims/objects/alexander-andrews-VLGWE_SumrA-unsplash.jpg,0,1,1039,0,unchosen,22,37,faces,objects,1900,0,9,3
29,50734,0,30,1,1,1,gain6,no_gain4,K,G,33,7,body_parts,outdoor_scenes,92,81,Stimuli/Experimental_stims/body_parts/tucker-good-36skLT5jZcc-unsplash.jpg,Stimuli/Experimental_stims/outdoor_scenes/petr-vysohlid-9fqwGqGLUxc-unsplash.jpg,0,0,960,0,chosen,7,33,outdoor_scenes,body_parts,1200,0,9,3
30,50734,0,31,1,1,1,gain5,no_gain3,E,B,31,4,body_parts,outdoor_scenes,76,96,Stimuli/Experimental_stims/body_parts/sincerely-media-VN6DbKajo5s-unsplash.jpg,Stimuli/Experimental_stims/outdoor_scenes/jarrett-kow-1ZOyYPOBn7I-unsplash.jpg,0,1,754,1,chosen,31,4,body_parts,outdoor_scenes,2300,0,9,3
31,50734,0,32,1,1,0,no_gain3,gain5,B,E,23,43,faces,objects,54,38,Stimuli/Experimental_stims/faces/rikonavt-HQjfrvdTfak-unsplash.jpg,Stimuli/Experimental_stims/objects/jonathan-greenaway-Y4hGgeiFn3s-unsplash.jpg,0,0,1039,1,unchosen,43,23,objects,faces,2000,0,9,3
32,50734,0,33,1,1,1,gain6,no_gain6,K,L,33,30,body_parts,body_parts,92,61,Stimuli/Experimental_stims/body_parts/tucker-good-36skLT5jZcc-unsplash.jpg,Stimuli/Experimental_stims/body_parts/mika-korhonen-Xodzxosar18-unsplash.jpg,0,1,1372,1,chosen,33,30,body_parts,body_parts,2000,0,9,3
33,50734,0,34,1,1,0,no_gain6,gain6,L,K,20,38,faces,objects,58,92,Stimuli/Experimental_stims/faces/justin-chen-J7Cf1Gch49E-unsplash.jpg,Stimuli/Experimental_stims/objects/art-lasovsky-8XddFc6NkBY-unsplash.jpg,1,NaN,,NaN,unchosen,NaN,NaN,NaN,NaN,1300,0,9,3
34,50734,0,35,1,1,0,no_gain6,gain1,L,C,20,29,faces,body_parts,58,98,Stimuli/Experimental_stims/faces/justin-chen-J7Cf1Gch49E-unsplash.jpg,Stimuli/Experimental_stims/body_parts/manuel-schinner-ZwjFuJ7ebpk-unsplash.jpg,0,0,1039,1,unchosen,29,20,body_parts,faces,3100,1,9,3
35,50734,0,36,1,1,0,no_gain3,gain2,B,D,4,18,outdoor_scenes,faces,96,40,Stimuli/Experimental_stims/outdoor_scenes/jarrett-kow-1ZOyYPOBn7I-unsplash.jpg,Stimuli/Experimental_stims/faces/jessica-radanavong-mrYkTuAesKE-unsplash.jpg,0,0,64,1,chosen,18,4,faces,outdoor_scenes,2600,0,9,3
36,50734,0,37,1,1,0,no_gain6,gain4,L,H,20,14,faces,faces,58,32,Stimuli/Experimental_stims/faces/justin-chen-J7Cf1Gch49E-unsplash.jpg,Stimuli/Experimental_stims/faces/david-siglin-UuW4psOb388-unsplash.jpg,0,1,1208,0,unchosen,20,14,faces,faces,1200,0,9,3
37,50734,0,38,1,1,1,gain4,no_gain5,H,J,14,19,faces,faces,32,67,Stimuli/Experimental_stims/faces/david-siglin-UuW4psOb388-unsplash.jpg,Stimuli/Experimental_stims/faces/joel-mott-LaK153ghdig-unsplash.jpg,0,0,1175,0,unchosen,19,14,faces,faces,1700,0,9,3
38,50734,0,39,1,1,1,gain2,no_gain5,D,J,39,19,objects,faces,95,67,Stimuli/Experimental_stims/objects/charlesdeluvio-1-nx1QR5dTE-unsplash.jpg,Stimuli/Experimental_stims/faces/joel-mott-LaK153ghdig-unsplash.jpg,1,NaN,,NaN,unchosen,NaN,NaN,NaN,NaN,1600,0,9,3
39,50734,0,40,1,1,0,no_gain1,gain3,F,A,25,3,body_parts,outdoor_scenes,39,99,Stimuli/Experimental_stims/body_parts/engin-akyurt-Q2rfH3GW39c-unsplash.jpg,Stimuli/Experimental_stims/outdoor_scenes/henry-be-NLF6hTe4PAg-unsplash.jpg,0,1,998,0,chosen,25,3,body_parts,outdoor_scenes,4400,1,9,3
40,50734,0,41,1,1,1,gain1,no_gain5,C,J,5,47,outdoor_scenes,objects,93,82,Stimuli/Experimental_stims/outdoor_scenes/jeff-king-bJHWJeiHfHc-unsplash.jpg,Stimuli/Experimental_stims/objects/ronaldo-arthur-vidal-Cdz_lvnl37k-unsplash.jpg,0,0,943,0,chosen,47,5,objects,outdoor_scenes,1600,0,9,3
41,50734,0,42,1,1,0,no_gain4,gain3,G,A,36,37,objects,objects,81,76,Stimuli/Experimental_stims/objects/alexander-andrews-JYGnB9gTCls-unsplash.jpg,Stimuli/Experimental_stims/objects/alexander-andrews-VLGWE_SumrA-unsplash.jpg,0,0,986,1,unchosen,37,36,objects,objects,1700,0,9,3
42,50734,0,43,1,1,1,gain6,no_gain2,K,I,33,8,body_parts,outdoor_scenes,92,94,Stimuli/Experimental_stims/body_parts/tucker-good-36skLT5jZcc-unsplash.jpg,Stimuli/Experimental_stims/outdoor_scenes/samsommer-vddccTqwal8-unsplash.jpg,0,1,759,1,chosen,33,8,body_parts,outdoor_scenes,1900,0,9,3
43,50734,0,44,1,1,1,gain4,no_gain4,H,G,0,7,outdoor_scenes,outdoor_scenes,99,81,Stimuli/Experimental_stims/outdoor_scenes/aleksandra-boguslawska-MS7KD9Ti7FQ-unsplash.jpg,Stimuli/Experimental_stims/outdoor_scenes/petr-vysohlid-9fqwGqGLUxc-unsplash.jpg,0,0,1348,0,chosen,7,0,outdoor_scenes,outdoor_scenes,1900,0,9,3
44,50734,0,45,1,1,0,no_gain4,gain1,G,C,36,29,objects,body_parts,81,98,Stimuli/Experimental_stims/objects/alexander-andrews-JYGnB9gTCls-unsplash.jpg,Stimuli/Experimental_stims/body_parts/manuel-schinner-ZwjFuJ7ebpk-unsplash.jpg,0,0,1234,1,unchosen,29,36,body_parts,objects,2000,0,9,3
45,50734,0,46,1,1,0,no_gain2,gain1,I,C,8,5,outdoor_scenes,outdoor_scenes,94,93,Stimuli/Experimental_stims/outdoor_scenes/samsommer-vddccTqwal8-unsplash.jpg,Stimuli/Experimental_stims/outdoor_scenes/jeff-king-bJHWJeiHfHc-unsplash.jpg,0,1,1145,0,chosen,8,5,outdoor_scenes,outdoor_scenes,2200,0,9,3
46,50734,0,47,1,1,0,no_gain5,gain5,J,E,47,31,objects,body_parts,82,76,Stimuli/Experimental_stims/objects/ronaldo-arthur-vidal-Cdz_lvnl37k-unsplash.jpg,Stimuli/Experimental_stims/body_parts/sincerely-media-VN6DbKajo5s-unsplash.jpg,0,0,1208,1,chosen,31,47,body_parts,objects,3000,0,9,3
47,50734,0,48,1,1,0,no_gain2,gain3,I,A,8,3,outdoor_scenes,outdoor_scenes,94,99,Stimuli/Experimental_stims/outdoor_scenes/samsommer-vddccTqwal8-unsplash.jpg,Stimuli/Experimental_stims/outdoor_scenes/henry-be-NLF6hTe4PAg-unsplash.jpg,0,1,1164,0,chosen,8,3,outdoor_scenes,outdoor_scenes,4200,1,9,3
48,50734,0,49,1,1,0,no_gain6,gain3,L,A,20,37,faces,objects,58,76,Stimuli/Experimental_stims/faces/justin-chen-J7Cf1Gch49E-unsplash.jpg,Stimuli/Experimental_stims/objects/alexander-andrews-VLGWE_SumrA-unsplash.jpg,0,0,1052,1,unchosen,37,20,objects,faces,2100,0,9,3
49,50734,0,50,1,1,0,no_gain5,gain4,J,H,47,0,objects,outdoor_scenes,82,99,Stimuli/Experimental_stims/objects/ronaldo-arthur-vidal-Cdz_lvnl37k-unsplash.jpg,Stimuli/Experimental_stims/outdoor_scenes/aleksandra-boguslawska-MS7KD9Ti7FQ-unsplash.jpg,0,1,365,0,chosen,47,0,objects,outdoor_scenes,1800,0,9,3
50,50734,0,51,1,1,1,gain3,no_gain5,A,J,3,47,outdoor_scenes,objects,99,82,Stimuli/Experimental_stims/outdoor_scenes/henry-be-NLF6hTe4PAg-unsplash.jpg,Stimuli/Experimental_stims/objects/ronaldo-arthur-vidal-Cdz_lvnl37k-unsplash.jpg,0,0,1155,0,chosen,47,3,objects,outdoor_scenes,2400,0,9,3
51,50734,0,52,1,1,0,no_gain4,gain2,G,D,36,39,objects,objects,81,95,Stimuli/Experimental_stims/objects/alexander-andrews-JYGnB9gTCls-unsplash.jpg,Stimuli/Experimental_stims/objects/charlesdeluvio-1-nx1QR5dTE-unsplash.jpg,0,0,962,1,unchosen,39,36,objects,objects,1100,0,9,3
52,50734,0,53,1,1,0,no_gain2,gain5,I,E,8,31,outdoor_scenes,body_parts,94,76,Stimuli/Experimental_stims/outdoor_scenes/samsommer-vddccTqwal8-unsplash.jpg,Stimuli/Experimental_stims/body_parts/sincerely-media-VN6DbKajo5s-unsplash.jpg,1,NaN,,NaN,chosen,NaN,NaN,NaN,NaN,1100,0,9,3
53,50734,0,54,1,1,0,no_gain2,gain6,I,K,27,38,body_parts,objects,96,92,Stimuli/Experimental_stims/body_parts/heike-mintel-i_Gns0ELnLw-unsplash.jpg,Stimuli/Experimental_stims/objects/art-lasovsky-8XddFc6NkBY-unsplash.jpg,0,1,48,0,unchosen,27,38,body_parts,objects,1100,0,9,3
54,50734,0,55,1,1,1,gain6,no_gain3,K,B,33,4,body_parts,outdoor_scenes,92,96,Stimuli/Experimental_stims/body_parts/tucker-good-36skLT5jZcc-unsplash.jpg,Stimuli/Experimental_stims/outdoor_scenes/jarrett-kow-1ZOyYPOBn7I-unsplash.jpg,1,NaN,,NaN,chosen,NaN,NaN,NaN,NaN,3900,1,9,3
55,50734,0,56,1,1,0,no_gain1,gain5,F,E,22,43,faces,objects,53,38,Stimuli/Experimental_stims/faces/ravi-patel-VMGAbeeJTKo-unsplash.jpg,Stimuli/Experimental_stims/objects/jonathan-greenaway-Y4hGgeiFn3s-unsplash.jpg,0,1,869,0,unchosen,22,43,faces,objects,2100,0,9,3
56,50734,0,57,1,1,1,gain5,no_gain4,E,G,43,36,objects,objects,38,81,Stimuli/Experimental_stims/objects/jonathan-greenaway-Y4hGgeiFn3s-unsplash.jpg,Stimuli/Experimental_stims/objects/alexander-andrews-JYGnB9gTCls-unsplash.jpg,0,0,1256,0,unchosen,36,43,objects,objects,1000,0,9,3
57,50734,0,58,1,1,0,no_gain1,gain4,F,H,22,14,faces,faces,53,32,Stimuli/Experimental_stims/faces/ravi-patel-VMGAbeeJTKo-unsplash.jpg,Stimuli/Experimental_stims/faces/david-siglin-UuW4psOb388-unsplash.jpg,1,NaN,,NaN,unchosen,NaN,NaN,NaN,NaN,1200,0,9,3
58,50734,0,59,1,1,1,gain3,no_gain6,A,L,3,30,outdoor_scenes,body_parts,99,61,Stimuli/Experimental_stims/outdoor_scenes/henry-be-NLF6hTe4PAg-unsplash.jpg,Stimuli/Experimental_stims/body_parts/mika-korhonen-Xodzxosar18-unsplash.jpg,0,1,661,1,chosen,3,30,outdoor_scenes,body_parts,1300,0,9,3
59,50734,0,60,1,1,1,gain4,no_gain6,H,L,0,30,outdoor_scenes,body_parts,99,61,Stimuli/Experimental_stims/outdoor_scenes/aleksandra-boguslawska-MS7KD9Ti7FQ-unsplash.jpg,Stimuli/Experimental_stims/body_parts/mika-korhonen-Xodzxosar18-unsplash.jpg,0,0,1138,0,chosen,30,0,body_parts,outdoor_scenes,1300,0,9,3
60,50734,0,61,1,1,1,gain2,no_gain1,D,F,39,22,objects,faces,95,53,Stimuli/Experimental_stims/objects/charlesdeluvio-1-nx1QR5dTE-unsplash.jpg,Stimuli/Experimental_stims/faces/ravi-patel-VMGAbeeJTKo-unsplash.jpg,0,1,617,1,unchosen,39,22,objects,faces,3300,1,9,3
61,50734,0,62,1,1,1,gain2,no_gain3,D,B,39,23,objects,faces,95,54,Stimuli/Experimental_stims/objects/charlesdeluvio-1-nx1QR5dTE-unsplash.jpg,Stimuli/Experimental_stims/faces/rikonavt-HQjfrvdTfak-unsplash.jpg,0,1,785,1,unchosen,39,23,objects,faces,1100,0,9,3
62,50734,0,63,1,1,0,no_gain5,gain6,J,K,47,33,objects,body_parts,82,92,Stimuli/Experimental_stims/objects/ronaldo-arthur-vidal-Cdz_lvnl37k-unsplash.jpg,Stimuli/Experimental_stims/body_parts/tucker-good-36skLT5jZcc-unsplash.jpg,0,0,1362,1,chosen,33,47,body_parts,objects,1400,0,9,3
63,50734,0,64,1,1,0,no_gain2,gain4,I,H,8,0,outdoor_scenes,outdoor_scenes,94,99,Stimuli/Experimental_stims/outdoor_scenes/samsommer-vddccTqwal8-unsplash.jpg,Stimuli/Experimental_stims/outdoor_scenes/aleksandra-boguslawska-MS7KD9Ti7FQ-unsplash.jpg,1,NaN,,NaN,chosen,NaN,NaN,NaN,NaN,1400,0,9,3
64,50734,0,65,1,1,0,no_gain3,gain3,B,A,4,3,outdoor_scenes,outdoor_scenes,96,99,Stimuli/Experimental_stims/outdoor_scenes/jarrett-kow-1ZOyYPOBn7I-unsplash.jpg,Stimuli/Experimental_stims/outdoor_scenes/henry-be-NLF6hTe4PAg-unsplash.jpg,0,0,889,1,chosen,3,4,outdoor_scenes,outdoor_scenes,2700,0,9,3
65,50734,0,66,1,1,0,no_gain6,gain5,L,E,20,43,faces,objects,58,38,Stimuli/Experimental_stims/faces/justin-chen-J7Cf1Gch49E-unsplash.jpg,Stimuli/Experimental_stims/objects/jonathan-greenaway-Y4hGgeiFn3s-unsplash.jpg,0,0,1026,1,unchosen,43,20,objects,faces,1500,0,9,3
66,50734,0,67,1,1,1,gain3,no_gain5,A,J,37,19,objects,faces,76,67,Stimuli/Experimental_stims/objects/alexander-andrews-VLGWE_SumrA-unsplash.jpg,Stimuli/Experimental_stims/faces/joel-mott-LaK153ghdig-unsplash.jpg,0,1,1031,1,unchosen,37,19,objects,faces,3700,1,9,3
67,50734,0,68,1,1,0,no_gain1,gain1,F,C,22,29,faces,body_parts,53,98,Stimuli/Experimental_stims/faces/ravi-patel-VMGAbeeJTKo-unsplash.jpg,Stimuli/Experimental_stims/body_parts/manuel-schinner-ZwjFuJ7ebpk-unsplash.jpg,1,NaN,,NaN,unchosen,NaN,NaN,NaN,NaN,2600,0,9,3
68,50734,0,69,1,1,1,gain4,no_gain3,H,B,0,4,outdoor_scenes,outdoor_scenes,99,96,Stimuli/Experimental_stims/outdoor_scenes/aleksandra-boguslawska-MS7KD9Ti7FQ-unsplash.jpg,Stimuli/Experimental_stims/outdoor_scenes/jarrett-kow-1ZOyYPOBn7I-unsplash.jpg,1,NaN,,NaN,chosen,NaN,NaN,NaN,NaN,1600,0,9,3
69,50734,0,70,1,1,1,gain6,no_gain3,K,B,38,23,objects,faces,92,54,Stimuli/Experimental_stims/objects/art-lasovsky-8XddFc6NkBY-unsplash.jpg,Stimuli/Experimental_stims/faces/rikonavt-HQjfrvdTfak-unsplash.jpg,0,0,1306,0,unchosen,23,38,faces,objects,1100,0,9,3
70,50734,0,71,1,1,0,no_gain6,gain2,L,D,30,18,body_parts,faces,61,40,Stimuli/Experimental_stims/body_parts/mika-korhonen-Xodzxosar18-unsplash.jpg,Stimuli/Experimental_stims/faces/jessica-radanavong-mrYkTuAesKE-unsplash.jpg,1,NaN,,NaN,chosen,NaN,NaN,NaN,NaN,1600,0,9,3
71,50734,0,72,1,1,0,no_gain6,gain1,L,C,30,5,body_parts,outdoor_scenes,61,93,Stimuli/Experimental_stims/body_parts/mika-korhonen-Xodzxosar18-unsplash.jpg,Stimuli/Experimental_stims/outdoor_scenes/jeff-king-bJHWJeiHfHc-unsplash.jpg,1,NaN,,NaN,chosen,NaN,NaN,NaN,NaN,4400,1,9,3
72,50734,0,73,1,1,1,gain6,no_gain1,K,F,33,25,body_parts,body_parts,92,39,Stimuli/Experimental_stims/body_parts/tucker-good-36skLT5jZcc-unsplash.jpg,Stimuli/Experimental_stims/body_parts/engin-akyurt-Q2rfH3GW39c-unsplash.jpg,1,NaN,,NaN,chosen,NaN,NaN,NaN,NaN,1100,0,9,3
73,50734,0,74,1,1,0,no_gain5,gain6,J,K,19,38,faces,objects,67,92,Stimuli/Experimental_stims/faces/joel-mott-LaK153ghdig-unsplash.jpg,Stimuli/Experimental_stims/objects/art-lasovsky-8XddFc6NkBY-unsplash.jpg,1,NaN,,NaN,unchosen,NaN,NaN,NaN,NaN,1700,0,9,3
74,50734,0,75,1,1,1,gain5,no_gain2,E,I,43,27,objects,body_parts,38,96,Stimuli/Experimental_stims/objects/jonathan-greenaway-Y4hGgeiFn3s-unsplash.jpg,Stimuli/Experimental_stims/body_parts/heike-mintel-i_Gns0ELnLw-unsplash.jpg,0,0,1006,0,unchosen,27,43,body_parts,objects,2500,0,9,3
75,50734,0,76,1,1,1,gain1,no_gain3,C,B,29,23,body_parts,faces,98,54,Stimuli/Experimental_stims/body_parts/manuel-schinner-ZwjFuJ7ebpk-unsplash.jpg,Stimuli/Experimental_stims/faces/rikonavt-HQjfrvdTfak-unsplash.jpg,0,1,1306,1,unchosen,29,23,body_parts,faces,2100,0,9,3
76,50734,0,77,2,2,0,no_gain2,gain4,I,H,27,14,body_parts,faces,96,32,Stimuli/Experimental_stims/body_parts/heike-mintel-i_Gns0ELnLw-unsplash.jpg,Stimuli/Experimental_stims/faces/david-siglin-UuW4psOb388-unsplash.jpg,0,1,1310,0,unchosen,27,14,body_parts,faces,3800,1,9,3
77,50734,0,78,2,2,0,no_gain6,gain5,L,E,30,31,body_parts,body_parts,61,76,Stimuli/Experimental_stims/body_parts/mika-korhonen-Xodzxosar18-unsplash.jpg,Stimuli/Experimental_stims/body_parts/sincerely-media-VN6DbKajo5s-unsplash.jpg,0,0,850,1,chosen,31,30,body_parts,body_parts,1200,0,9,3
78,50734,0,79,2,2,0,no_gain5,gain5,J,E,47,31,objects,body_parts,82,76,Stimuli/Experimental_stims/objects/ronaldo-arthur-vidal-Cdz_lvnl37k-unsplash.jpg,Stimuli/Experimental_stims/body_parts/sincerely-media-VN6DbKajo5s-unsplash.jpg,0,1,1032,0,chosen,47,31,objects,body_parts,1200,0,9,3
79,50734,0,80,2,2,0,no_gain6,gain3,L,A,20,37,faces,objects,58,76,Stimuli/Experimental_stims/faces/justin-chen-J7Cf1Gch49E-unsplash.jpg,Stimuli/Experimental_stims/objects/alexander-andrews-VLGWE_SumrA-unsplash.jpg,0,0,770,1,unchosen,37,20,objects,faces,2700,0,9,3
80,50734,0,81,2,2,0,no_gain2,gain6,I,K,8,33,outdoor_scenes,body_parts,94,92,Stimuli/Experimental_stims/outdoor_scenes/samsommer-vddccTqwal8-unsplash.jpg,Stimuli/Experimental_stims/body_parts/tucker-good-36skLT5jZcc-unsplash.jpg,0,1,719,0,chosen,8,33,outdoor_scenes,body_parts,2900,0,9,3
81,50734,0,82,2,2,1,gain6,no_gain4,K,G,38,36,objects,objects,92,81,Stimuli/Experimental_stims/objects/art-lasovsky-8XddFc6NkBY-unsplash.jpg,Stimuli/Experimental_stims/objects/alexander-andrews-JYGnB9gTCls-unsplash.jpg,0,0,715,0,unchosen,36,38,objects,objects,1400,0,9,3
82,50734,0,83,2,2,1,gain2,no_gain1,D,F,18,25,faces,body_parts,40,39,Stimuli/Experimental_stims/faces/jessica-radanavong-mrYkTuAesKE-unsplash.jpg,Stimuli/Experimental_stims/body_parts/engin-akyurt-Q2rfH3GW39c-unsplash.jpg,0,1,1008,1,chosen,18,25,faces,body_parts,1100,0,9,3
83,50734,0,84,2,2,0,no_gain5,gain3,J,A,47,3,objects,outdoor_scenes,82,99,Stimuli/Experimental_stims/objects/ronaldo-arthur-vidal-Cdz_lvnl37k-unsplash.jpg,Stimuli/Experimental_stims/outdoor_scenes/henry-be-NLF6hTe4PAg-unsplash.jpg,0,0,999,1,chosen,3,47,outdoor_scenes,objects,2400,0,9,3
84,50734,0,85,2,2,1,gain6,no_gain3,K,B,38,23,objects,faces,92,54,Stimuli/Experimental_stims/objects/art-lasovsky-8XddFc6NkBY-unsplash.jpg,Stimuli/Experimental_stims/faces/rikonavt-HQjfrvdTfak-unsplash.jpg,0,1,800,1,unchosen,38,23,objects,faces,2400,0,9,3
85,50734,0,86,2,2,1,gain5,no_gain1,E,F,31,25,body_parts,body_parts,76,39,Stimuli/Experimental_stims/body_parts/sincerely-media-VN6DbKajo5s-unsplash.jpg,Stimuli/Experimental_stims/body_parts/engin-akyurt-Q2rfH3GW39c-unsplash.jpg,0,0,954,0,chosen,25,31,body_parts,body_parts,1400,0,9,3
86,50734,0,87,2,2,0,no_gain3,gain1,B,C,4,5,outdoor_scenes,outdoor_scenes,96,93,Stimuli/Experimental_stims/outdoor_scenes/jarrett-kow-1ZOyYPOBn7I-unsplash.jpg,Stimuli/Experimental_stims/outdoor_scenes/jeff-king-bJHWJeiHfHc-unsplash.jpg,0,1,991,0,chosen,4,5,outdoor_scenes,outdoor_scenes,3000,1,9,3
87,50734,0,88,2,2,0,no_gain5,gain1,J,C,19,29,faces,body_parts,67,98,Stimuli/Experimental_stims/faces/joel-mott-LaK153ghdig-unsplash.jpg,Stimuli/Experimental_stims/body_parts/manuel-schinner-ZwjFuJ7ebpk-unsplash.jpg,0,0,763,1,unchosen,29,19,body_parts,faces,1000,0,9,3
88,50734,0,89,2,2,0,no_gain5,gain4,J,H,19,14,faces,faces,67,32,Stimuli/Experimental_stims/faces/joel-mott-LaK153ghdig-unsplash.jpg,Stimuli/Experimental_stims/faces/david-siglin-UuW4psOb388-unsplash.jpg,0,1,1218,0,unchosen,19,14,faces,faces,1100,0,9,3
89,50734,0,90,2,2,0,no_gain3,gain2,B,D,23,39,faces,objects,54,95,Stimuli/Experimental_stims/faces/rikonavt-HQjfrvdTfak-unsplash.jpg,Stimuli/Experimental_stims/objects/charlesdeluvio-1-nx1QR5dTE-unsplash.jpg,0,0,885,1,unchosen,39,23,objects,faces,2200,0,9,3
90,50734,0,91,2,2,1,gain1,no_gain6,C,L,5,30,outdoor_scenes,body_parts,93,61,Stimuli/Experimental_stims/outdoor_scenes/jeff-king-bJHWJeiHfHc-unsplash.jpg,Stimuli/Experimental_stims/body_parts/mika-korhonen-Xodzxosar18-unsplash.jpg,0,1,786,1,chosen,5,30,outdoor_scenes,body_parts,1600,0,9,3
91,50734,0,92,2,2,1,gain2,no_gain6,D,L,39,20,objects,faces,95,58,Stimuli/Experimental_stims/objects/charlesdeluvio-1-nx1QR5dTE-unsplash.jpg,Stimuli/Experimental_stims/faces/justin-chen-J7Cf1Gch49E-unsplash.jpg,0,0,709,0,unchosen,20,39,faces,objects,3200,1,9,3
92,50734,0,93,2,2,0,no_gain5,gain6,J,K,19,38,faces,objects,67,92,Stimuli/Experimental_stims/faces/joel-mott-LaK153ghdig-unsplash.jpg,Stimuli/Experimental_stims/objects/art-lasovsky-8XddFc6NkBY-unsplash.jpg,0,1,822,0,unchosen,19,38,faces,objects,2100,0,9,3
93,50734,0,94,2,2,1,gain3,no_gain3,A,B,37,23,objects,faces,76,54,Stimuli/Experimental_stims/objects/alexander-andrews-VLGWE_SumrA-unsplash.jpg,Stimuli/Experimental_stims/faces/rikonavt-HQjfrvdTfak-unsplash.jpg,0,0,1103,0,unchosen,23,37,faces,objects,1100,0,9,3
94,50734,0,95,2,2,0,no_gain2,gain3,I,A,8,3,outdoor_scenes,outdoor_scenes,94,99,Stimuli/Experimental_stims/outdoor_scenes/samsommer-vddccTqwal8-unsplash.jpg,Stimuli/Experimental_stims/outdoor_scenes/henry-be-NLF6hTe4PAg-unsplash.jpg,0,1,969,0,chosen,8,3,outdoor_scenes,outdoor_scenes,2800,0,9,3
95,50734,0,96,2,2,1,gain1,no_gain4,C,G,29,36,body_parts,objects,98,81,Stimuli/Experimental_stims/body_parts/manuel-schinner-ZwjFuJ7ebpk-unsplash.jpg,Stimuli/Experimental_stims/objects/alexander-andrews-JYGnB9gTCls-unsplash.jpg,0,0,730,0,unchosen,36,29,objects,body_parts,1100,0,9,3
96,50734,0,97,2,2,0,no_gain3,gain4,B,H,4,0,outdoor_scenes,outdoor_scenes,96,99,Stimuli/Experimental_stims/outdoor_scenes/jarrett-kow-1ZOyYPOBn7I-unsplash.jpg,Stimuli/Experimental_stims/outdoor_scenes/aleksandra-boguslawska-MS7KD9Ti7FQ-unsplash.jpg,0,1,1161,0,chosen,4,0,outdoor_scenes,outdoor_scenes,4900,1,9,3
97,50734,0,98,2,2,1,gain3,no_gain3,A,B,3,4,outdoor_scenes,outdoor_scenes,99,96,Stimuli/Experimental_stims/outdoor_scenes/henry-be-NLF6hTe4PAg-unsplash.jpg,Stimuli/Experimental_stims/outdoor_scenes/jarrett-kow-1ZOyYPOBn7I-unsplash.jpg,0,0,830,0,chosen,4,3,outdoor_scenes,outdoor_scenes,1200,0,9,3
98,50734,0,99,2,2,0,no_gain5,gain5,J,E,19,43,faces,objects,67,38,Stimuli/Experimental_stims/faces/joel-mott-LaK153ghdig-unsplash.jpg,Stimuli/Experimental_stims/objects/jonathan-greenaway-Y4hGgeiFn3s-unsplash.jpg,0,1,852,0,unchosen,19,43,faces,objects,1200,0,9,3
99,50734,0,100,2,2,1,gain4,no_gain5,H,J,0,47,outdoor_scenes,objects,99,82,Stimuli/Experimental_stims/outdoor_scenes/aleksandra-boguslawska-MS7KD9Ti7FQ-unsplash.jpg,Stimuli/Experimental_stims/objects/ronaldo-arthur-vidal-Cdz_lvnl37k-unsplash.jpg,0,0,758,0,chosen,47,0,objects,outdoor_scenes,1900,0,9,3
100,50734,0,101,2,2,0,no_gain6,gain4,L,H,30,0,body_parts,outdoor_scenes,61,99,Stimuli/Experimental_stims/body_parts/mika-korhonen-Xodzxosar18-unsplash.jpg,Stimuli/Experimental_stims/outdoor_scenes/aleksandra-boguslawska-MS7KD9Ti7FQ-unsplash.jpg,0,1,954,0,chosen,30,0,body_parts,outdoor_scenes,1500,0,9,3
101,50734,0,102,2,2,0,no_gain5,gain2,J,D,19,39,faces,objects,67,95,Stimuli/Experimental_stims/faces/joel-mott-LaK153ghdig-unsplash.jpg,Stimuli/Experimental_stims/objects/charlesdeluvio-1-nx1QR5dTE-unsplash.jpg,0,0,646,1,unchosen,39,19,objects,faces,1600,0,9,3
102,50734,0,103,2,2,0,no_gain5,gain6,J,K,47,33,objects,body_parts,82,92,Stimuli/Experimental_stims/objects/ronaldo-arthur-vidal-Cdz_lvnl37k-unsplash.jpg,Stimuli/Experimental_stims/body_parts/tucker-good-36skLT5jZcc-unsplash.jpg,0,1,629,0,chosen,47,33,objects,body_parts,1500,0,9,3
103,50734,0,104,2,2,1,gain4,no_gain3,H,B,14,23,faces,faces,32,54,Stimuli/Experimental_stims/faces/david-siglin-UuW4psOb388-unsplash.jpg,Stimuli/Experimental_stims/faces/rikonavt-HQjfrvdTfak-unsplash.jpg,0,0,676,0,unchosen,23,14,faces,faces,2000,0,9,3
104,50734,0,105,2,2,1,gain2,no_gain4,D,G,18,7,faces,outdoor_scenes,40,81,Stimuli/Experimental_stims/faces/jessica-radanavong-mrYkTuAesKE-unsplash.jpg,Stimuli/Experimental_stims/outdoor_scenes/petr-vysohlid-9fqwGqGLUxc-unsplash.jpg,0,1,1037,1,chosen,18,7,faces,outdoor_scenes,2000,0,9,3
105,50734,0,106,2,2,0,no_gain2,gain1,I,C,8,5,outdoor_scenes,outdoor_scenes,94,93,Stimuli/Experimental_stims/outdoor_scenes/samsommer-vddccTqwal8-unsplash.jpg,Stimuli/Experimental_stims/outdoor_scenes/jeff-king-bJHWJeiHfHc-unsplash.jpg,0,0,891,1,chosen,5,8,outdoor_scenes,outdoor_scenes,3400,1,9,3
106,50734,0,107,2,2,1,gain1,no_gain6,C,L,29,20,body_parts,faces,98,58,Stimuli/Experimental_stims/body_parts/manuel-schinner-ZwjFuJ7ebpk-unsplash.jpg,Stimuli/Experimental_stims/faces/justin-chen-J7Cf1Gch49E-unsplash.jpg,0,1,277,1,unchosen,29,20,body_parts,faces,1600,0,9,3
107,50734,0,108,2,2,0,no_gain1,gain3,F,A,22,37,faces,objects,53,76,Stimuli/Experimental_stims/faces/ravi-patel-VMGAbeeJTKo-unsplash.jpg,Stimuli/Experimental_stims/objects/alexander-andrews-VLGWE_SumrA-unsplash.jpg,1,NaN,,NaN,unchosen,NaN,NaN,NaN,NaN,2400,0,9,3
108,50734,0,109,2,2,0,no_gain5,gain2,J,D,47,18,objects,faces,82,40,Stimuli/Experimental_stims/objects/ronaldo-arthur-vidal-Cdz_lvnl37k-unsplash.jpg,Stimuli/Experimental_stims/faces/jessica-radanavong-mrYkTuAesKE-unsplash.jpg,1,NaN,,NaN,chosen,NaN,NaN,NaN,NaN,2900,0,9,3
109,50734,0,110,2,2,1,gain2,no_gain2,D,I,18,8,faces,outdoor_scenes,40,94,Stimuli/Experimental_stims/faces/jessica-radanavong-mrYkTuAesKE-unsplash.jpg,Stimuli/Experimental_stims/outdoor_scenes/samsommer-vddccTqwal8-unsplash.jpg,1,NaN,,NaN,chosen,NaN,NaN,NaN,NaN,2100,0,9,3
110,50734,0,111,2,2,1,gain5,no_gain6,E,L,43,20,objects,faces,38,58,Stimuli/Experimental_stims/objects/jonathan-greenaway-Y4hGgeiFn3s-unsplash.jpg,Stimuli/Experimental_stims/faces/justin-chen-J7Cf1Gch49E-unsplash.jpg,1,NaN,,NaN,unchosen,NaN,NaN,NaN,NaN,3600,1,9,3
111,50734,0,112,2,2,1,gain6,no_gain4,K,G,33,7,body_parts,outdoor_scenes,92,81,Stimuli/Experimental_stims/body_parts/tucker-good-36skLT5jZcc-unsplash.jpg,Stimuli/Experimental_stims/outdoor_scenes/petr-vysohlid-9fqwGqGLUxc-unsplash.jpg,0,0,1187,0,chosen,7,33,outdoor_scenes,body_parts,1900,0,9,3
112,50734,0,113,2,2,1,gain3,no_gain1,A,F,3,25,outdoor_scenes,body_parts,99,39,Stimuli/Experimental_stims/outdoor_scenes/henry-be-NLF6hTe4PAg-unsplash.jpg,Stimuli/Experimental_stims/body_parts/engin-akyurt-Q2rfH3GW39c-unsplash.jpg,0,1,1046,1,chosen,3,25,outdoor_scenes,body_parts,1000,0,9,3
113,50734,0,114,2,2,0,no_gain6,gain2,L,D,30,18,body_parts,faces,61,40,Stimuli/Experimental_stims/body_parts/mika-korhonen-Xodzxosar18-unsplash.jpg,Stimuli/Experimental_stims/faces/jessica-radanavong-mrYkTuAesKE-unsplash.jpg,0,0,1030,1,chosen,18,30,faces,body_parts,1500,0,9,3
114,50734,0,115,2,2,1,gain1,no_gain3,C,B,29,23,body_parts,faces,98,54,Stimuli/Experimental_stims/body_parts/manuel-schinner-ZwjFuJ7ebpk-unsplash.jpg,Stimuli/Experimental_stims/faces/rikonavt-HQjfrvdTfak-unsplash.jpg,0,1,878,1,unchosen,29,23,body_parts,faces,1600,0,9,3
115,50734,0,116,2,2,0,no_gain1,gain1,F,C,22,29,faces,body_parts,53,98,Stimuli/Experimental_stims/faces/ravi-patel-VMGAbeeJTKo-unsplash.jpg,Stimuli/Experimental_stims/body_parts/manuel-schinner-ZwjFuJ7ebpk-unsplash.jpg,0,0,812,1,unchosen,29,22,body_parts,faces,1100,0,9,3
116,50734,0,117,2,2,1,gain6,no_gain1,K,F,33,25,body_parts,body_parts,92,39,Stimuli/Experimental_stims/body_parts/tucker-good-36skLT5jZcc-unsplash.jpg,Stimuli/Experimental_stims/body_parts/engin-akyurt-Q2rfH3GW39c-unsplash.jpg,0,1,775,1,chosen,33,25,body_parts,body_parts,4400,1,9,3
117,50734,0,118,2,2,1,gain3,no_gain6,A,L,3,30,outdoor_scenes,body_parts,99,61,Stimuli/Experimental_stims/outdoor_scenes/henry-be-NLF6hTe4PAg-unsplash.jpg,Stimuli/Experimental_stims/body_parts/mika-korhonen-Xodzxosar18-unsplash.jpg,1,NaN,,NaN,chosen,NaN,NaN,NaN,NaN,1100,0,9,3
118,50734,0,119,2,2,1,gain3,no_gain4,A,G,37,36,objects,objects,76,81,Stimuli/Experimental_stims/objects/alexander-andrews-VLGWE_SumrA-unsplash.jpg,Stimuli/Experimental_stims/objects/alexander-andrews-JYGnB9gTCls-unsplash.jpg,1,NaN,,NaN,unchosen,NaN,NaN,NaN,NaN,1200,0,9,3
119,50734,0,120,2,2,0,no_gain4,gain1,G,C,7,5,outdoor_scenes,outdoor_scenes,81,93,Stimuli/Experimental_stims/outdoor_scenes/petr-vysohlid-9fqwGqGLUxc-unsplash.jpg,Stimuli/Experimental_stims/outdoor_scenes/jeff-king-bJHWJeiHfHc-unsplash.jpg,0,0,509,1,chosen,5,7,outdoor_scenes,outdoor_scenes,1000,0,9,3
120,50734,0,121,2,2,0,no_gain3,gain5,B,E,23,43,faces,objects,54,38,Stimuli/Experimental_stims/faces/rikonavt-HQjfrvdTfak-unsplash.jpg,Stimuli/Experimental_stims/objects/jonathan-greenaway-Y4hGgeiFn3s-unsplash.jpg,1,NaN,,NaN,unchosen,NaN,NaN,NaN,NaN,1500,0,9,3
121,50734,0,122,2,2,0,no_gain1,gain4,F,H,22,14,faces,faces,53,32,Stimuli/Experimental_stims/faces/ravi-patel-VMGAbeeJTKo-unsplash.jpg,Stimuli/Experimental_stims/faces/david-siglin-UuW4psOb388-unsplash.jpg,0,0,1225,1,unchosen,14,22,faces,faces,2000,0,9,3
122,50734,0,123,2,2,0,no_gain4,gain3,G,A,7,3,outdoor_scenes,outdoor_scenes,81,99,Stimuli/Experimental_stims/outdoor_scenes/petr-vysohlid-9fqwGqGLUxc-unsplash.jpg,Stimuli/Experimental_stims/outdoor_scenes/henry-be-NLF6hTe4PAg-unsplash.jpg,0,1,1495,0,chosen,7,3,outdoor_scenes,outdoor_scenes,3700,1,9,3
123,50734,0,124,2,2,0,no_gain1,gain2,F,D,22,39,faces,objects,53,95,Stimuli/Experimental_stims/faces/ravi-patel-VMGAbeeJTKo-unsplash.jpg,Stimuli/Experimental_stims/objects/charlesdeluvio-1-nx1QR5dTE-unsplash.jpg,0,0,647,1,unchosen,39,22,objects,faces,2100,0,9,3
124,50734,0,125,2,2,1,gain5,no_gain1,E,F,43,22,objects,faces,38,53,Stimuli/Experimental_stims/objects/jonathan-greenaway-Y4hGgeiFn3s-unsplash.jpg,Stimuli/Experimental_stims/faces/ravi-patel-VMGAbeeJTKo-unsplash.jpg,0,1,1044,1,unchosen,43,22,objects,faces,1100,0,9,3
125,50734,0,126,2,2,1,gain5,no_gain3,E,B,31,4,body_parts,outdoor_scenes,76,96,Stimuli/Experimental_stims/body_parts/sincerely-media-VN6DbKajo5s-unsplash.jpg,Stimuli/Experimental_stims/outdoor_scenes/jarrett-kow-1ZOyYPOBn7I-unsplash.jpg,1,NaN,,NaN,chosen,NaN,NaN,NaN,NaN,1500,0,9,3
126,50734,0,127,2,2,0,no_gain5,gain1,J,C,47,5,objects,outdoor_scenes,82,93,Stimuli/Experimental_stims/objects/ronaldo-arthur-vidal-Cdz_lvnl37k-unsplash.jpg,Stimuli/Experimental_stims/outdoor_scenes/jeff-king-bJHWJeiHfHc-unsplash.jpg,0,0,700,1,chosen,5,47,outdoor_scenes,objects,1900,0,9,3
127,50734,0,128,2,2,0,no_gain2,gain6,I,K,27,38,body_parts,objects,96,92,Stimuli/Experimental_stims/body_parts/heike-mintel-i_Gns0ELnLw-unsplash.jpg,Stimuli/Experimental_stims/objects/art-lasovsky-8XddFc6NkBY-unsplash.jpg,0,1,1108,0,unchosen,27,38,body_parts,objects,1600,0,9,3
128,50734,0,129,2,2,1,gain5,no_gain4,E,G,43,36,objects,objects,38,81,Stimuli/Experimental_stims/objects/jonathan-greenaway-Y4hGgeiFn3s-unsplash.jpg,Stimuli/Experimental_stims/objects/alexander-andrews-JYGnB9gTCls-unsplash.jpg,0,0,935,0,unchosen,36,43,objects,objects,3100,1,9,3
129,50734,0,130,2,2,0,no_gain1,gain1,F,C,25,5,body_parts,outdoor_scenes,39,93,Stimuli/Experimental_stims/body_parts/engin-akyurt-Q2rfH3GW39c-unsplash.jpg,Stimuli/Experimental_stims/outdoor_scenes/jeff-king-bJHWJeiHfHc-unsplash.jpg,1,NaN,,NaN,chosen,NaN,NaN,NaN,NaN,2800,0,9,3
130,50734,0,131,2,2,1,gain5,no_gain4,E,G,31,7,body_parts,outdoor_scenes,76,81,Stimuli/Experimental_stims/body_parts/sincerely-media-VN6DbKajo5s-unsplash.jpg,Stimuli/Experimental_stims/outdoor_scenes/petr-vysohlid-9fqwGqGLUxc-unsplash.jpg,1,NaN,,NaN,chosen,NaN,NaN,NaN,NaN,1800,0,9,3
131,50734,0,132,2,2,0,no_gain6,gain6,L,K,20,38,faces,objects,58,92,Stimuli/Experimental_stims/faces/justin-chen-J7Cf1Gch49E-unsplash.jpg,Stimuli/Experimental_stims/objects/art-lasovsky-8XddFc6NkBY-unsplash.jpg,0,1,1243,0,unchosen,20,38,faces,objects,2100,0,9,3
132,50734,0,133,2,2,1,gain6,no_gain3,K,B,33,4,body_parts,outdoor_scenes,92,96,Stimuli/Experimental_stims/body_parts/tucker-good-36skLT5jZcc-unsplash.jpg,Stimuli/Experimental_stims/outdoor_scenes/jarrett-kow-1ZOyYPOBn7I-unsplash.jpg,0,0,892,0,chosen,4,33,outdoor_scenes,body_parts,2100,0,9,3
133,50734,0,134,2,2,0,no_gain2,gain5,I,E,8,31,outdoor_scenes,body_parts,94,76,Stimuli/Experimental_stims/outdoor_scenes/samsommer-vddccTqwal8-unsplash.jpg,Stimuli/Experimental_stims/body_parts/sincerely-media-VN6DbKajo5s-unsplash.jpg,0,1,744,0,chosen,8,31,outdoor_scenes,body_parts,1600,0,9,3
134,50734,0,135,2,2,0,no_gain4,gain2,G,D,36,39,objects,objects,81,95,Stimuli/Experimental_stims/objects/alexander-andrews-JYGnB9gTCls-unsplash.jpg,Stimuli/Experimental_stims/objects/charlesdeluvio-1-nx1QR5dTE-unsplash.jpg,0,0,1081,1,unchosen,39,36,objects,objects,2600,0,9,3
135,50734,0,136,2,2,1,gain4,no_gain4,H,G,0,7,outdoor_scenes,outdoor_scenes,99,81,Stimuli/Experimental_stims/outdoor_scenes/aleksandra-boguslawska-MS7KD9Ti7FQ-unsplash.jpg,Stimuli/Experimental_stims/outdoor_scenes/petr-vysohlid-9fqwGqGLUxc-unsplash.jpg,1,NaN,,NaN,chosen,NaN,NaN,NaN,NaN,1100,0,9,3
136,50734,0,137,2,2,0,no_gain2,gain2,I,D,27,39,body_parts,objects,96,95,Stimuli/Experimental_stims/body_parts/heike-mintel-i_Gns0ELnLw-unsplash.jpg,Stimuli/Experimental_stims/objects/charlesdeluvio-1-nx1QR5dTE-unsplash.jpg,1,NaN,,NaN,unchosen,NaN,NaN,NaN,NaN,2700,0,9,3
137,50734,0,138,2,2,1,gain4,no_gain6,H,L,14,20,faces,faces,32,58,Stimuli/Experimental_stims/faces/david-siglin-UuW4psOb388-unsplash.jpg,Stimuli/Experimental_stims/faces/justin-chen-J7Cf1Gch49E-unsplash.jpg,0,1,642,1,unchosen,14,20,faces,faces,1500,0,9,3
138,50734,0,139,2,2,1,gain3,no_gain5,A,J,37,19,objects,faces,76,67,Stimuli/Experimental_stims/objects/alexander-andrews-VLGWE_SumrA-unsplash.jpg,Stimuli/Experimental_stims/faces/joel-mott-LaK153ghdig-unsplash.jpg,0,0,1180,0,unchosen,19,37,faces,objects,1100,0,9,3
139,50734,0,140,2,2,1,gain4,no_gain1,H,F,0,25,outdoor_scenes,body_parts,99,39,Stimuli/Experimental_stims/outdoor_scenes/aleksandra-boguslawska-MS7KD9Ti7FQ-unsplash.jpg,Stimuli/Experimental_stims/body_parts/engin-akyurt-Q2rfH3GW39c-unsplash.jpg,0,1,728,1,chosen,0,25,outdoor_scenes,body_parts,1200,0,9,3
140,50734,0,141,2,2,1,gain3,no_gain2,A,I,37,27,objects,body_parts,76,96,Stimuli/Experimental_stims/objects/alexander-andrews-VLGWE_SumrA-unsplash.jpg,Stimuli/Experimental_stims/body_parts/heike-mintel-i_Gns0ELnLw-unsplash.jpg,0,0,723,0,unchosen,27,37,body_parts,objects,1200,0,9,3
141,50734,0,142,2,2,0,no_gain2,gain1,I,C,27,29,body_parts,body_parts,96,98,Stimuli/Experimental_stims/body_parts/heike-mintel-i_Gns0ELnLw-unsplash.jpg,Stimuli/Experimental_stims/body_parts/manuel-schinner-ZwjFuJ7ebpk-unsplash.jpg,0,1,757,0,unchosen,27,29,body_parts,body_parts,4600,1,9,3
142,50734,0,143,2,2,1,gain6,no_gain6,K,L,33,30,body_parts,body_parts,92,61,Stimuli/Experimental_stims/body_parts/tucker-good-36skLT5jZcc-unsplash.jpg,Stimuli/Experimental_stims/body_parts/mika-korhonen-Xodzxosar18-unsplash.jpg,0,0,871,0,chosen,30,33,body_parts,body_parts,2000,0,9,3
143,50734,0,144,2,2,1,gain4,no_gain4,H,G,14,36,faces,objects,32,81,Stimuli/Experimental_stims/faces/david-siglin-UuW4psOb388-unsplash.jpg,Stimuli/Experimental_stims/objects/alexander-andrews-JYGnB9gTCls-unsplash.jpg,1,NaN,,NaN,unchosen,NaN,NaN,NaN,NaN,1700,0,9,3
144,50734,0,145,2,2,1,gain6,no_gain1,K,F,38,22,objects,faces,92,53,Stimuli/Experimental_stims/objects/art-lasovsky-8XddFc6NkBY-unsplash.jpg,Stimuli/Experimental_stims/faces/ravi-patel-VMGAbeeJTKo-unsplash.jpg,0,0,1044,0,unchosen,22,38,faces,objects,1300,0,9,3
145,50734,0,146,2,2,0,no_gain2,gain4,I,H,8,0,outdoor_scenes,outdoor_scenes,94,99,Stimuli/Experimental_stims/outdoor_scenes/samsommer-vddccTqwal8-unsplash.jpg,Stimuli/Experimental_stims/outdoor_scenes/aleksandra-boguslawska-MS7KD9Ti7FQ-unsplash.jpg,1,NaN,,NaN,chosen,NaN,NaN,NaN,NaN,1300,0,9,3
146,50734,0,147,2,2,1,gain5,no_gain2,E,I,43,27,objects,body_parts,38,96,Stimuli/Experimental_stims/objects/jonathan-greenaway-Y4hGgeiFn3s-unsplash.jpg,Stimuli/Experimental_stims/body_parts/heike-mintel-i_Gns0ELnLw-unsplash.jpg,0,0,1134,0,unchosen,27,43,body_parts,objects,1600,0,9,3
147,50734,0,148,2,2,1,gain2,no_gain3,D,B,18,4,faces,outdoor_scenes,40,96,Stimuli/Experimental_stims/faces/jessica-radanavong-mrYkTuAesKE-unsplash.jpg,Stimuli/Experimental_stims/outdoor_scenes/jarrett-kow-1ZOyYPOBn7I-unsplash.jpg,0,1,1225,1,chosen,18,4,faces,outdoor_scenes,2900,0,9,3
148,50734,0,149,3,3,0,no_gain1,gain2,F,D,22,39,faces,objects,53,95,Stimuli/Experimental_stims/faces/ravi-patel-VMGAbeeJTKo-unsplash.jpg,Stimuli/Experimental_stims/objects/charlesdeluvio-1-nx1QR5dTE-unsplash.jpg,0,1,1277,0,unchosen,22,39,faces,objects,2500,0,3,3
149,50734,0,150,3,3,0,no_gain2,gain5,I,E,8,31,outdoor_scenes,body_parts,94,76,Stimuli/Experimental_stims/outdoor_scenes/samsommer-vddccTqwal8-unsplash.jpg,Stimuli/Experimental_stims/body_parts/sincerely-media-VN6DbKajo5s-unsplash.jpg,0,0,816,1,chosen,31,8,body_parts,outdoor_scenes,1500,0,3,3
150,50734,0,151,3,3,0,no_gain5,gain1,J,C,19,29,faces,body_parts,67,98,Stimuli/Experimental_stims/faces/joel-mott-LaK153ghdig-unsplash.jpg,Stimuli/Experimental_stims/body_parts/manuel-schinner-ZwjFuJ7ebpk-unsplash.jpg,0,0,1062,1,unchosen,29,19,body_parts,faces,1000,0,3,3
151,50734,0,152,3,3,1,gain3,no_gain3,A,B,37,23,objects,faces,76,54,Stimuli/Experimental_stims/objects/alexander-andrews-VLGWE_SumrA-unsplash.jpg,Stimuli/Experimental_stims/faces/rikonavt-HQjfrvdTfak-unsplash.jpg,1,NaN,,NaN,unchosen,NaN,NaN,NaN,NaN,2000,0,3,3
152,50734,0,153,3,3,0,no_gain4,gain3,G,A,36,37,objects,objects,81,76,Stimuli/Experimental_stims/objects/alexander-andrews-JYGnB9gTCls-unsplash.jpg,Stimuli/Experimental_stims/objects/alexander-andrews-VLGWE_SumrA-unsplash.jpg,0,0,1062,1,unchosen,37,36,objects,objects,1600,0,3,3
153,50734,0,154,3,3,0,no_gain6,gain5,L,E,30,31,body_parts,body_parts,61,76,Stimuli/Experimental_stims/body_parts/mika-korhonen-Xodzxosar18-unsplash.jpg,Stimuli/Experimental_stims/body_parts/sincerely-media-VN6DbKajo5s-unsplash.jpg,0,1,1148,0,chosen,30,31,body_parts,body_parts,5000,1,3,3
154,50734,0,155,3,3,1,gain5,no_gain5,E,J,43,19,objects,faces,38,67,Stimuli/Experimental_stims/objects/jonathan-greenaway-Y4hGgeiFn3s-unsplash.jpg,Stimuli/Experimental_stims/faces/joel-mott-LaK153ghdig-unsplash.jpg,0,0,761,0,unchosen,19,43,faces,objects,1500,0,3,3
155,50734,0,156,3,3,0,no_gain4,gain4,G,H,7,0,outdoor_scenes,outdoor_scenes,81,99,Stimuli/Experimental_stims/outdoor_scenes/petr-vysohlid-9fqwGqGLUxc-unsplash.jpg,Stimuli/Experimental_stims/outdoor_scenes/aleksandra-boguslawska-MS7KD9Ti7FQ-unsplash.jpg,0,1,694,0,chosen,7,0,outdoor_scenes,outdoor_scenes,1800,0,3,3
156,50734,0,157,3,3,0,no_gain6,gain1,L,C,30,5,body_parts,outdoor_scenes,61,93,Stimuli/Experimental_stims/body_parts/mika-korhonen-Xodzxosar18-unsplash.jpg,Stimuli/Experimental_stims/outdoor_scenes/jeff-king-bJHWJeiHfHc-unsplash.jpg,1,NaN,,NaN,chosen,NaN,NaN,NaN,NaN,1900,0,3,3
157,50734,0,158,3,3,1,gain6,no_gain5,K,J,38,19,objects,faces,92,67,Stimuli/Experimental_stims/objects/art-lasovsky-8XddFc6NkBY-unsplash.jpg,Stimuli/Experimental_stims/faces/joel-mott-LaK153ghdig-unsplash.jpg,0,1,1093,1,unchosen,38,19,objects,faces,2000,0,3,3
158,50734,0,159,3,3,1,gain1,no_gain5,C,J,5,47,outdoor_scenes,objects,93,82,Stimuli/Experimental_stims/outdoor_scenes/jeff-king-bJHWJeiHfHc-unsplash.jpg,Stimuli/Experimental_stims/objects/ronaldo-arthur-vidal-Cdz_lvnl37k-unsplash.jpg,0,0,1019,0,chosen,47,5,objects,outdoor_scenes,1300,0,3,3
159,50734,0,160,3,3,0,no_gain5,gain4,J,H,47,0,objects,outdoor_scenes,82,99,Stimuli/Experimental_stims/objects/ronaldo-arthur-vidal-Cdz_lvnl37k-unsplash.jpg,Stimuli/Experimental_stims/outdoor_scenes/aleksandra-boguslawska-MS7KD9Ti7FQ-unsplash.jpg,0,1,766,0,chosen,47,0,objects,outdoor_scenes,2700,0,3,3
160,50734,0,161,3,3,0,no_gain3,gain4,B,H,4,0,outdoor_scenes,outdoor_scenes,96,99,Stimuli/Experimental_stims/outdoor_scenes/jarrett-kow-1ZOyYPOBn7I-unsplash.jpg,Stimuli/Experimental_stims/outdoor_scenes/aleksandra-boguslawska-MS7KD9Ti7FQ-unsplash.jpg,0,0,563,1,chosen,0,4,outdoor_scenes,outdoor_scenes,1600,0,3,3
161,50734,0,162,3,3,1,gain4,no_gain3,H,B,14,23,faces,faces,32,54,Stimuli/Experimental_stims/faces/david-siglin-UuW4psOb388-unsplash.jpg,Stimuli/Experimental_stims/faces/rikonavt-HQjfrvdTfak-unsplash.jpg,0,1,946,1,unchosen,14,23,faces,faces,4000,1,3,3
162,50734,0,163,3,3,0,no_gain1,gain3,F,A,25,3,body_parts,outdoor_scenes,39,99,Stimuli/Experimental_stims/body_parts/engin-akyurt-Q2rfH3GW39c-unsplash.jpg,Stimuli/Experimental_stims/outdoor_scenes/henry-be-NLF6hTe4PAg-unsplash.jpg,0,0,1069,1,chosen,3,25,outdoor_scenes,body_parts,1900,0,3,3
163,50734,0,164,3,3,0,no_gain4,gain5,G,E,36,43,objects,objects,81,38,Stimuli/Experimental_stims/objects/alexander-andrews-JYGnB9gTCls-unsplash.jpg,Stimuli/Experimental_stims/objects/jonathan-greenaway-Y4hGgeiFn3s-unsplash.jpg,0,1,1205,0,unchosen,36,43,objects,objects,1700,0,3,3
164,50734,0,165,3,3,0,no_gain6,gain4,L,H,30,0,body_parts,outdoor_scenes,61,99,Stimuli/Experimental_stims/body_parts/mika-korhonen-Xodzxosar18-unsplash.jpg,Stimuli/Experimental_stims/outdoor_scenes/aleksandra-boguslawska-MS7KD9Ti7FQ-unsplash.jpg,0,0,1091,1,chosen,0,30,outdoor_scenes,body_parts,1800,0,3,3
165,50734,0,166,3,3,1,gain5,no_gain3,E,B,31,4,body_parts,outdoor_scenes,76,96,Stimuli/Experimental_stims/body_parts/sincerely-media-VN6DbKajo5s-unsplash.jpg,Stimuli/Experimental_stims/outdoor_scenes/jarrett-kow-1ZOyYPOBn7I-unsplash.jpg,0,1,886,1,chosen,31,4,body_parts,outdoor_scenes,1500,0,3,3
166,50734,0,167,3,3,1,gain4,no_gain2,H,I,0,8,outdoor_scenes,outdoor_scenes,99,94,Stimuli/Experimental_stims/outdoor_scenes/aleksandra-boguslawska-MS7KD9Ti7FQ-unsplash.jpg,Stimuli/Experimental_stims/outdoor_scenes/samsommer-vddccTqwal8-unsplash.jpg,0,0,699,0,chosen,8,0,outdoor_scenes,outdoor_scenes,2700,0,3,3
167,50734,0,168,3,3,0,no_gain6,gain6,L,K,20,38,faces,objects,58,92,Stimuli/Experimental_stims/faces/justin-chen-J7Cf1Gch49E-unsplash.jpg,Stimuli/Experimental_stims/objects/art-lasovsky-8XddFc6NkBY-unsplash.jpg,0,1,966,0,unchosen,20,38,faces,objects,3600,1,3,3
168,50734,0,169,3,3,0,no_gain2,gain6,I,K,8,33,outdoor_scenes,body_parts,94,92,Stimuli/Experimental_stims/outdoor_scenes/samsommer-vddccTqwal8-unsplash.jpg,Stimuli/Experimental_stims/body_parts/tucker-good-36skLT5jZcc-unsplash.jpg,0,0,1455,1,chosen,33,8,body_parts,outdoor_scenes,2100,0,3,3
169,50734,0,170,3,3,1,gain5,no_gain6,E,L,43,20,objects,faces,38,58,Stimuli/Experimental_stims/objects/jonathan-greenaway-Y4hGgeiFn3s-unsplash.jpg,Stimuli/Experimental_stims/faces/justin-chen-J7Cf1Gch49E-unsplash.jpg,1,NaN,,NaN,unchosen,NaN,NaN,NaN,NaN,2300,0,3,3
170,50734,0,171,3,3,1,gain1,no_gain3,C,B,29,23,body_parts,faces,98,54,Stimuli/Experimental_stims/body_parts/manuel-schinner-ZwjFuJ7ebpk-unsplash.jpg,Stimuli/Experimental_stims/faces/rikonavt-HQjfrvdTfak-unsplash.jpg,0,0,951,0,unchosen,23,29,faces,body_parts,1400,0,3,3
171,50734,0,172,3,3,1,gain3,no_gain3,A,B,3,4,outdoor_scenes,outdoor_scenes,99,96,Stimuli/Experimental_stims/outdoor_scenes/henry-be-NLF6hTe4PAg-unsplash.jpg,Stimuli/Experimental_stims/outdoor_scenes/jarrett-kow-1ZOyYPOBn7I-unsplash.jpg,0,1,881,1,chosen,3,4,outdoor_scenes,outdoor_scenes,1200,0,3,3
172,50734,0,173,3,3,1,gain2,no_gain6,D,L,18,30,faces,body_parts,40,61,Stimuli/Experimental_stims/faces/jessica-radanavong-mrYkTuAesKE-unsplash.jpg,Stimuli/Experimental_stims/body_parts/mika-korhonen-Xodzxosar18-unsplash.jpg,0,0,1066,0,chosen,30,18,body_parts,faces,1900,0,3,3
173,50734,0,174,3,3,0,no_gain2,gain4,I,H,27,14,body_parts,faces,96,32,Stimuli/Experimental_stims/body_parts/heike-mintel-i_Gns0ELnLw-unsplash.jpg,Stimuli/Experimental_stims/faces/david-siglin-UuW4psOb388-unsplash.jpg,0,1,959,0,unchosen,27,14,body_parts,faces,1800,0,3,3
174,50734,0,175,3,3,1,gain6,no_gain6,K,L,33,30,body_parts,body_parts,92,61,Stimuli/Experimental_stims/body_parts/tucker-good-36skLT5jZcc-unsplash.jpg,Stimuli/Experimental_stims/body_parts/mika-korhonen-Xodzxosar18-unsplash.jpg,0,0,881,0,chosen,30,33,body_parts,body_parts,4100,1,3,3
175,50734,0,176,3,3,0,no_gain5,gain6,J,K,47,33,objects,body_parts,82,92,Stimuli/Experimental_stims/objects/ronaldo-arthur-vidal-Cdz_lvnl37k-unsplash.jpg,Stimuli/Experimental_stims/body_parts/tucker-good-36skLT5jZcc-unsplash.jpg,0,1,870,0,chosen,47,33,objects,body_parts,1400,0,3,3
176,50734,0,177,3,3,0,no_gain2,gain6,I,K,27,38,body_parts,objects,96,92,Stimuli/Experimental_stims/body_parts/heike-mintel-i_Gns0ELnLw-unsplash.jpg,Stimuli/Experimental_stims/objects/art-lasovsky-8XddFc6NkBY-unsplash.jpg,0,0,851,1,unchosen,38,27,objects,body_parts,2200,0,3,3
177,50734,0,178,3,3,1,gain1,no_gain2,C,I,29,27,body_parts,body_parts,98,96,Stimuli/Experimental_stims/body_parts/manuel-schinner-ZwjFuJ7ebpk-unsplash.jpg,Stimuli/Experimental_stims/body_parts/heike-mintel-i_Gns0ELnLw-unsplash.jpg,0,1,790,1,unchosen,29,27,body_parts,body_parts,1400,0,3,3
178,50734,0,179,3,3,1,gain3,no_gain2,A,I,3,8,outdoor_scenes,outdoor_scenes,99,94,Stimuli/Experimental_stims/outdoor_scenes/henry-be-NLF6hTe4PAg-unsplash.jpg,Stimuli/Experimental_stims/outdoor_scenes/samsommer-vddccTqwal8-unsplash.jpg,0,0,922,0,chosen,8,3,outdoor_scenes,outdoor_scenes,1100,0,3,3
179,50734,0,180,3,3,1,gain4,no_gain1,H,F,0,25,outdoor_scenes,body_parts,99,39,Stimuli/Experimental_stims/outdoor_scenes/aleksandra-boguslawska-MS7KD9Ti7FQ-unsplash.jpg,Stimuli/Experimental_stims/body_parts/engin-akyurt-Q2rfH3GW39c-unsplash.jpg,0,1,816,1,chosen,0,25,outdoor_scenes,body_parts,1400,0,3,3
180,50734,0,181,3,3,1,gain1,no_gain4,C,G,29,36,body_parts,objects,98,81,Stimuli/Experimental_stims/body_parts/manuel-schinner-ZwjFuJ7ebpk-unsplash.jpg,Stimuli/Experimental_stims/objects/alexander-andrews-JYGnB9gTCls-unsplash.jpg,0,0,793,0,unchosen,36,29,objects,body_parts,1700,0,3,3
181,50734,0,182,3,3,1,gain1,no_gain4,C,G,5,7,outdoor_scenes,outdoor_scenes,93,81,Stimuli/Experimental_stims/outdoor_scenes/jeff-king-bJHWJeiHfHc-unsplash.jpg,Stimuli/Experimental_stims/outdoor_scenes/petr-vysohlid-9fqwGqGLUxc-unsplash.jpg,0,1,748,1,chosen,5,7,outdoor_scenes,outdoor_scenes,3400,1,3,3
182,50734,0,183,3,3,1,gain3,no_gain5,A,J,3,47,outdoor_scenes,objects,99,82,Stimuli/Experimental_stims/outdoor_scenes/henry-be-NLF6hTe4PAg-unsplash.jpg,Stimuli/Experimental_stims/objects/ronaldo-arthur-vidal-Cdz_lvnl37k-unsplash.jpg,0,0,834,0,chosen,47,3,objects,outdoor_scenes,1000,0,3,3
183,50734,0,184,3,3,1,gain1,no_gain6,C,L,29,20,body_parts,faces,98,58,Stimuli/Experimental_stims/body_parts/manuel-schinner-ZwjFuJ7ebpk-unsplash.jpg,Stimuli/Experimental_stims/faces/justin-chen-J7Cf1Gch49E-unsplash.jpg,0,1,1221,1,unchosen,29,20,body_parts,faces,1200,0,3,3
184,50734,0,185,3,3,0,no_gain5,gain4,J,H,19,14,faces,faces,67,32,Stimuli/Experimental_stims/faces/joel-mott-LaK153ghdig-unsplash.jpg,Stimuli/Experimental_stims/faces/david-siglin-UuW4psOb388-unsplash.jpg,0,1,850,0,unchosen,19,14,faces,faces,1200,0,3,3
185,50734,0,186,3,3,0,no_gain1,gain2,F,D,25,18,body_parts,faces,39,40,Stimuli/Experimental_stims/body_parts/engin-akyurt-Q2rfH3GW39c-unsplash.jpg,Stimuli/Experimental_stims/faces/jessica-radanavong-mrYkTuAesKE-unsplash.jpg,0,0,871,1,chosen,18,25,faces,body_parts,2800,0,3,3
186,50734,0,187,3,3,0,no_gain1,gain4,F,H,22,14,faces,faces,53,32,Stimuli/Experimental_stims/faces/ravi-patel-VMGAbeeJTKo-unsplash.jpg,Stimuli/Experimental_stims/faces/david-siglin-UuW4psOb388-unsplash.jpg,0,1,811,0,unchosen,22,14,faces,faces,1200,0,3,3
187,50734,0,188,3,3,0,no_gain6,gain3,L,A,30,3,body_parts,outdoor_scenes,61,99,Stimuli/Experimental_stims/body_parts/mika-korhonen-Xodzxosar18-unsplash.jpg,Stimuli/Experimental_stims/outdoor_scenes/henry-be-NLF6hTe4PAg-unsplash.jpg,0,0,777,1,chosen,3,30,outdoor_scenes,body_parts,1200,0,3,3
188,50734,0,189,3,3,1,gain2,no_gain2,D,I,18,8,faces,outdoor_scenes,40,94,Stimuli/Experimental_stims/faces/jessica-radanavong-mrYkTuAesKE-unsplash.jpg,Stimuli/Experimental_stims/outdoor_scenes/samsommer-vddccTqwal8-unsplash.jpg,0,1,1179,1,chosen,18,8,faces,outdoor_scenes,2100,0,3,3
189,50734,0,190,3,3,1,gain2,no_gain6,D,L,39,20,objects,faces,95,58,Stimuli/Experimental_stims/objects/charlesdeluvio-1-nx1QR5dTE-unsplash.jpg,Stimuli/Experimental_stims/faces/justin-chen-J7Cf1Gch49E-unsplash.jpg,0,0,915,0,unchosen,20,39,faces,objects,3800,1,3,3
190,50734,0,191,3,3,0,no_gain3,gain2,B,D,4,18,outdoor_scenes,faces,96,40,Stimuli/Experimental_stims/outdoor_scenes/jarrett-kow-1ZOyYPOBn7I-unsplash.jpg,Stimuli/Experimental_stims/faces/jessica-radanavong-mrYkTuAesKE-unsplash.jpg,0,1,1043,0,chosen,4,18,outdoor_scenes,faces,2200,0,3,3
191,50734,0,192,3,3,1,gain4,no_gain4,H,G,14,36,faces,objects,32,81,Stimuli/Experimental_stims/faces/david-siglin-UuW4psOb388-unsplash.jpg,Stimuli/Experimental_stims/objects/alexander-andrews-JYGnB9gTCls-unsplash.jpg,0,1,1483,1,unchosen,14,36,faces,objects,2500,0,3,3
192,50734,0,193,3,3,1,gain2,no_gain5,D,J,18,47,faces,objects,40,82,Stimuli/Experimental_stims/faces/jessica-radanavong-mrYkTuAesKE-unsplash.jpg,Stimuli/Experimental_stims/objects/ronaldo-arthur-vidal-Cdz_lvnl37k-unsplash.jpg,0,0,935,0,chosen,47,18,objects,faces,1100,0,3,3
193,50734,0,194,3,3,1,gain3,no_gain1,A,F,37,22,objects,faces,76,53,Stimuli/Experimental_stims/objects/alexander-andrews-VLGWE_SumrA-unsplash.jpg,Stimuli/Experimental_stims/faces/ravi-patel-VMGAbeeJTKo-unsplash.jpg,0,0,1154,0,unchosen,22,37,faces,objects,1800,0,3,3
194,50734,0,195,3,3,1,gain3,no_gain6,A,L,37,20,objects,faces,76,58,Stimuli/Experimental_stims/objects/alexander-andrews-VLGWE_SumrA-unsplash.jpg,Stimuli/Experimental_stims/faces/justin-chen-J7Cf1Gch49E-unsplash.jpg,0,1,655,1,unchosen,37,20,objects,faces,3600,1,3,3
195,50734,0,196,3,3,1,gain4,no_gain6,H,L,14,20,faces,faces,32,58,Stimuli/Experimental_stims/faces/david-siglin-UuW4psOb388-unsplash.jpg,Stimuli/Experimental_stims/faces/justin-chen-J7Cf1Gch49E-unsplash.jpg,0,0,777,0,unchosen,20,14,faces,faces,2400,0,3,3
196,50734,0,197,3,3,1,gain1,no_gain1,C,F,5,25,outdoor_scenes,body_parts,93,39,Stimuli/Experimental_stims/outdoor_scenes/jeff-king-bJHWJeiHfHc-unsplash.jpg,Stimuli/Experimental_stims/body_parts/engin-akyurt-Q2rfH3GW39c-unsplash.jpg,0,1,849,1,chosen,5,25,outdoor_scenes,body_parts,2400,0,3,3
197,50734,0,198,3,3,0,no_gain3,gain2,B,D,23,39,faces,objects,54,95,Stimuli/Experimental_stims/faces/rikonavt-HQjfrvdTfak-unsplash.jpg,Stimuli/Experimental_stims/objects/charlesdeluvio-1-nx1QR5dTE-unsplash.jpg,0,0,884,1,unchosen,39,23,objects,faces,2200,0,3,3
198,50734,0,199,3,3,1,gain1,no_gain2,C,I,5,8,outdoor_scenes,outdoor_scenes,93,94,Stimuli/Experimental_stims/outdoor_scenes/jeff-king-bJHWJeiHfHc-unsplash.jpg,Stimuli/Experimental_stims/outdoor_scenes/samsommer-vddccTqwal8-unsplash.jpg,0,1,798,1,chosen,5,8,outdoor_scenes,outdoor_scenes,2800,0,3,3
199,50734,0,200,3,3,0,no_gain2,gain3,I,A,27,37,body_parts,objects,96,76,Stimuli/Experimental_stims/body_parts/heike-mintel-i_Gns0ELnLw-unsplash.jpg,Stimuli/Experimental_stims/objects/alexander-andrews-VLGWE_SumrA-unsplash.jpg,0,0,852,1,unchosen,37,27,objects,body_parts,1700,0,3,3
200,50734,0,201,3,3,0,no_gain1,gain6,F,K,22,38,faces,objects,53,92,Stimuli/Experimental_stims/faces/ravi-patel-VMGAbeeJTKo-unsplash.jpg,Stimuli/Experimental_stims/objects/art-lasovsky-8XddFc6NkBY-unsplash.jpg,0,1,1033,0,unchosen,22,38,faces,objects,1100,0,3,3
201,50734,0,202,3,3,0,no_gain4,gain3,G,A,7,3,outdoor_scenes,outdoor_scenes,81,99,Stimuli/Experimental_stims/outdoor_scenes/petr-vysohlid-9fqwGqGLUxc-unsplash.jpg,Stimuli/Experimental_stims/outdoor_scenes/henry-be-NLF6hTe4PAg-unsplash.jpg,1,NaN,,NaN,chosen,NaN,NaN,NaN,NaN,1200,0,3,3
202,50734,0,203,3,3,0,no_gain3,gain5,B,E,23,43,faces,objects,54,38,Stimuli/Experimental_stims/faces/rikonavt-HQjfrvdTfak-unsplash.jpg,Stimuli/Experimental_stims/objects/jonathan-greenaway-Y4hGgeiFn3s-unsplash.jpg,0,1,1000,0,unchosen,23,43,faces,objects,2700,0,3,3
203,50734,0,204,3,3,0,no_gain1,gain1,F,C,22,29,faces,body_parts,53,98,Stimuli/Experimental_stims/faces/ravi-patel-VMGAbeeJTKo-unsplash.jpg,Stimuli/Experimental_stims/body_parts/manuel-schinner-ZwjFuJ7ebpk-unsplash.jpg,0,0,912,1,unchosen,29,22,body_parts,faces,1100,0,3,3
204,50734,0,205,3,3,1,gain5,no_gain5,E,J,31,47,body_parts,objects,76,82,Stimuli/Experimental_stims/body_parts/sincerely-media-VN6DbKajo5s-unsplash.jpg,Stimuli/Experimental_stims/objects/ronaldo-arthur-vidal-Cdz_lvnl37k-unsplash.jpg,1,NaN,,NaN,chosen,NaN,NaN,NaN,NaN,1100,0,3,3
205,50734,0,206,3,3,0,no_gain4,gain6,G,K,7,33,outdoor_scenes,body_parts,81,92,Stimuli/Experimental_stims/outdoor_scenes/petr-vysohlid-9fqwGqGLUxc-unsplash.jpg,Stimuli/Experimental_stims/body_parts/tucker-good-36skLT5jZcc-unsplash.jpg,1,NaN,,NaN,chosen,NaN,NaN,NaN,NaN,1500,0,3,3
206,50734,0,207,3,3,0,no_gain5,gain3,J,A,19,37,faces,objects,67,76,Stimuli/Experimental_stims/faces/joel-mott-LaK153ghdig-unsplash.jpg,Stimuli/Experimental_stims/objects/alexander-andrews-VLGWE_SumrA-unsplash.jpg,0,1,133,0,unchosen,19,37,faces,objects,1600,0,3,3
207,50734,0,208,3,3,0,no_gain1,gain5,F,E,25,31,body_parts,body_parts,39,76,Stimuli/Experimental_stims/body_parts/engin-akyurt-Q2rfH3GW39c-unsplash.jpg,Stimuli/Experimental_stims/body_parts/sincerely-media-VN6DbKajo5s-unsplash.jpg,1,NaN,,NaN,chosen,NaN,NaN,NaN,NaN,1500,0,3,3
208,50734,0,209,3,3,1,gain1,no_gain3,C,B,5,4,outdoor_scenes,outdoor_scenes,93,96,Stimuli/Experimental_stims/outdoor_scenes/jeff-king-bJHWJeiHfHc-unsplash.jpg,Stimuli/Experimental_stims/outdoor_scenes/jarrett-kow-1ZOyYPOBn7I-unsplash.jpg,1,NaN,,NaN,chosen,NaN,NaN,NaN,NaN,2800,0,3,3
209,50734,0,210,3,3,1,gain6,no_gain3,K,B,33,4,body_parts,outdoor_scenes,92,96,Stimuli/Experimental_stims/body_parts/tucker-good-36skLT5jZcc-unsplash.jpg,Stimuli/Experimental_stims/outdoor_scenes/jarrett-kow-1ZOyYPOBn7I-unsplash.jpg,0,1,815,1,chosen,33,4,body_parts,outdoor_scenes,3400,1,3,3
210,50734,0,211,3,3,1,gain2,no_gain4,D,G,39,36,objects,objects,95,81,Stimuli/Experimental_stims/objects/charlesdeluvio-1-nx1QR5dTE-unsplash.jpg,Stimuli/Experimental_stims/objects/alexander-andrews-JYGnB9gTCls-unsplash.jpg,0,0,786,0,unchosen,36,39,objects,objects,1500,0,3,3
211,50734,0,212,3,3,1,gain2,no_gain2,D,I,39,27,objects,body_parts,95,96,Stimuli/Experimental_stims/objects/charlesdeluvio-1-nx1QR5dTE-unsplash.jpg,Stimuli/Experimental_stims/body_parts/heike-mintel-i_Gns0ELnLw-unsplash.jpg,0,1,1116,1,unchosen,39,27,objects,body_parts,1500,0,3,3
212,50734,0,213,3,3,1,gain6,no_gain1,K,F,33,25,body_parts,body_parts,92,39,Stimuli/Experimental_stims/body_parts/tucker-good-36skLT5jZcc-unsplash.jpg,Stimuli/Experimental_stims/body_parts/engin-akyurt-Q2rfH3GW39c-unsplash.jpg,0,0,924,0,chosen,25,33,body_parts,body_parts,1500,0,3,3
213,50734,0,214,3,3,0,no_gain5,gain2,J,D,19,39,faces,objects,67,95,Stimuli/Experimental_stims/faces/joel-mott-LaK153ghdig-unsplash.jpg,Stimuli/Experimental_stims/objects/charlesdeluvio-1-nx1QR5dTE-unsplash.jpg,0,1,656,0,unchosen,19,39,faces,objects,1200,0,3,3
214,50734,0,215,3,3,0,no_gain4,gain5,G,E,7,31,outdoor_scenes,body_parts,81,76,Stimuli/Experimental_stims/outdoor_scenes/petr-vysohlid-9fqwGqGLUxc-unsplash.jpg,Stimuli/Experimental_stims/body_parts/sincerely-media-VN6DbKajo5s-unsplash.jpg,0,0,937,1,chosen,31,7,body_parts,outdoor_scenes,1900,0,3,3
215,50734,0,216,3,3,1,gain6,no_gain4,K,G,38,36,objects,objects,92,81,Stimuli/Experimental_stims/objects/art-lasovsky-8XddFc6NkBY-unsplash.jpg,Stimuli/Experimental_stims/objects/alexander-andrews-JYGnB9gTCls-unsplash.jpg,0,1,1058,1,unchosen,38,36,objects,objects,3600,1,3,3
216,50734,0,217,3,3,0,no_gain2,gain5,I,E,27,43,body_parts,objects,96,38,Stimuli/Experimental_stims/body_parts/heike-mintel-i_Gns0ELnLw-unsplash.jpg,Stimuli/Experimental_stims/objects/jonathan-greenaway-Y4hGgeiFn3s-unsplash.jpg,0,0,853,1,unchosen,43,27,objects,body_parts,2500,0,3,3
217,50734,0,218,3,3,0,no_gain4,gain2,G,D,7,18,outdoor_scenes,faces,81,40,Stimuli/Experimental_stims/outdoor_scenes/petr-vysohlid-9fqwGqGLUxc-unsplash.jpg,Stimuli/Experimental_stims/faces/jessica-radanavong-mrYkTuAesKE-unsplash.jpg,0,1,944,0,chosen,7,18,outdoor_scenes,faces,1600,0,3,3
218,50734,0,219,3,3,1,gain6,no_gain3,K,B,38,23,objects,faces,92,54,Stimuli/Experimental_stims/objects/art-lasovsky-8XddFc6NkBY-unsplash.jpg,Stimuli/Experimental_stims/faces/rikonavt-HQjfrvdTfak-unsplash.jpg,0,0,955,0,unchosen,23,38,faces,objects,1200,0,3,3
219,50734,0,220,3,3,0,no_gain1,gain5,F,E,22,43,faces,objects,53,38,Stimuli/Experimental_stims/faces/ravi-patel-VMGAbeeJTKo-unsplash.jpg,Stimuli/Experimental_stims/objects/jonathan-greenaway-Y4hGgeiFn3s-unsplash.jpg,0,1,236,0,unchosen,22,43,faces,objects,1300,0,3,3
220,50734,0,221,4,4,0,no_gain6,gain5,L,E,20,43,faces,objects,58,38,Stimuli/Experimental_stims/faces/justin-chen-J7Cf1Gch49E-unsplash.jpg,Stimuli/Experimental_stims/objects/jonathan-greenaway-Y4hGgeiFn3s-unsplash.jpg,0,1,1333,0,unchosen,20,43,faces,objects,3300,1,1,3
221,50734,0,222,4,4,0,no_gain4,gain5,G,E,36,43,objects,objects,81,38,Stimuli/Experimental_stims/objects/alexander-andrews-JYGnB9gTCls-unsplash.jpg,Stimuli/Experimental_stims/objects/jonathan-greenaway-Y4hGgeiFn3s-unsplash.jpg,0,0,942,1,unchosen,43,36,objects,objects,1400,0,1,3
222,50734,0,223,4,4,1,gain5,no_gain5,E,J,31,47,body_parts,objects,76,82,Stimuli/Experimental_stims/body_parts/sincerely-media-VN6DbKajo5s-unsplash.jpg,Stimuli/Experimental_stims/objects/ronaldo-arthur-vidal-Cdz_lvnl37k-unsplash.jpg,0,1,1254,1,chosen,31,47,body_parts,objects,2400,0,1,3
223,50734,0,224,4,4,0,no_gain3,gain4,B,H,4,0,outdoor_scenes,outdoor_scenes,96,99,Stimuli/Experimental_stims/outdoor_scenes/jarrett-kow-1ZOyYPOBn7I-unsplash.jpg,Stimuli/Experimental_stims/outdoor_scenes/aleksandra-boguslawska-MS7KD9Ti7FQ-unsplash.jpg,1,NaN,,NaN,chosen,NaN,NaN,NaN,NaN,1200,0,1,3
224,50734,0,225,4,4,1,gain4,no_gain1,H,F,14,22,faces,faces,32,53,Stimuli/Experimental_stims/faces/david-siglin-UuW4psOb388-unsplash.jpg,Stimuli/Experimental_stims/faces/ravi-patel-VMGAbeeJTKo-unsplash.jpg,1,NaN,,NaN,unchosen,NaN,NaN,NaN,NaN,1100,0,1,3
225,50734,0,226,4,4,0,no_gain1,gain1,F,C,22,29,faces,body_parts,53,98,Stimuli/Experimental_stims/faces/ravi-patel-VMGAbeeJTKo-unsplash.jpg,Stimuli/Experimental_stims/body_parts/manuel-schinner-ZwjFuJ7ebpk-unsplash.jpg,0,1,750,0,unchosen,22,29,faces,body_parts,1600,0,1,3
226,50734,0,227,4,4,1,gain6,no_gain3,K,B,38,23,objects,faces,92,54,Stimuli/Experimental_stims/objects/art-lasovsky-8XddFc6NkBY-unsplash.jpg,Stimuli/Experimental_stims/faces/rikonavt-HQjfrvdTfak-unsplash.jpg,0,0,759,0,unchosen,23,38,faces,objects,3100,1,1,3
227,50734,0,228,4,4,0,no_gain2,gain4,I,H,8,0,outdoor_scenes,outdoor_scenes,94,99,Stimuli/Experimental_stims/outdoor_scenes/samsommer-vddccTqwal8-unsplash.jpg,Stimuli/Experimental_stims/outdoor_scenes/aleksandra-boguslawska-MS7KD9Ti7FQ-unsplash.jpg,0,1,1109,0,chosen,8,0,outdoor_scenes,outdoor_scenes,1000,0,1,3
228,50734,0,229,4,4,1,gain6,no_gain5,K,J,33,47,body_parts,objects,92,82,Stimuli/Experimental_stims/body_parts/tucker-good-36skLT5jZcc-unsplash.jpg,Stimuli/Experimental_stims/objects/ronaldo-arthur-vidal-Cdz_lvnl37k-unsplash.jpg,0,0,1313,0,chosen,47,33,objects,body_parts,3000,0,1,3
229,50734,0,230,4,4,0,no_gain4,gain5,G,E,7,31,outdoor_scenes,body_parts,81,76,Stimuli/Experimental_stims/outdoor_scenes/petr-vysohlid-9fqwGqGLUxc-unsplash.jpg,Stimuli/Experimental_stims/body_parts/sincerely-media-VN6DbKajo5s-unsplash.jpg,0,1,1039,0,chosen,7,31,outdoor_scenes,body_parts,1700,0,1,3
230,50734,0,231,4,4,1,gain1,no_gain4,C,G,29,36,body_parts,objects,98,81,Stimuli/Experimental_stims/body_parts/manuel-schinner-ZwjFuJ7ebpk-unsplash.jpg,Stimuli/Experimental_stims/objects/alexander-andrews-JYGnB9gTCls-unsplash.jpg,0,0,741,0,unchosen,36,29,objects,body_parts,2400,0,1,3
231,50734,0,232,4,4,0,no_gain6,gain2,L,D,30,18,body_parts,faces,61,40,Stimuli/Experimental_stims/body_parts/mika-korhonen-Xodzxosar18-unsplash.jpg,Stimuli/Experimental_stims/faces/jessica-radanavong-mrYkTuAesKE-unsplash.jpg,0,1,945,0,chosen,30,18,body_parts,faces,4000,1,1,3
232,50734,0,233,4,4,0,no_gain6,gain1,L,C,20,29,faces,body_parts,58,98,Stimuli/Experimental_stims/faces/justin-chen-J7Cf1Gch49E-unsplash.jpg,Stimuli/Experimental_stims/body_parts/manuel-schinner-ZwjFuJ7ebpk-unsplash.jpg,0,0,871,1,unchosen,29,20,body_parts,faces,1900,0,1,3
233,50734,0,234,4,4,1,gain3,no_gain4,A,G,3,7,outdoor_scenes,outdoor_scenes,99,81,Stimuli/Experimental_stims/outdoor_scenes/henry-be-NLF6hTe4PAg-unsplash.jpg,Stimuli/Experimental_stims/outdoor_scenes/petr-vysohlid-9fqwGqGLUxc-unsplash.jpg,0,1,838,1,chosen,3,7,outdoor_scenes,outdoor_scenes,1100,0,1,3
234,50734,0,235,4,4,1,gain5,no_gain1,E,F,43,22,objects,faces,38,53,Stimuli/Experimental_stims/objects/jonathan-greenaway-Y4hGgeiFn3s-unsplash.jpg,Stimuli/Experimental_stims/faces/ravi-patel-VMGAbeeJTKo-unsplash.jpg,0,0,1063,0,unchosen,22,43,faces,objects,1300,0,1,3
235,50734,0,236,4,4,0,no_gain4,gain4,G,H,7,0,outdoor_scenes,outdoor_scenes,81,99,Stimuli/Experimental_stims/outdoor_scenes/petr-vysohlid-9fqwGqGLUxc-unsplash.jpg,Stimuli/Experimental_stims/outdoor_scenes/aleksandra-boguslawska-MS7KD9Ti7FQ-unsplash.jpg,0,1,601,0,chosen,7,0,outdoor_scenes,outdoor_scenes,1900,0,1,3
236,50734,0,237,4,4,1,gain4,no_gain4,H,G,14,36,faces,objects,32,81,Stimuli/Experimental_stims/faces/david-siglin-UuW4psOb388-unsplash.jpg,Stimuli/Experimental_stims/objects/alexander-andrews-JYGnB9gTCls-unsplash.jpg,0,0,977,0,unchosen,36,14,objects,faces,1800,0,1,3
237,50734,0,238,4,4,1,gain4,no_gain5,H,J,14,19,faces,faces,32,67,Stimuli/Experimental_stims/faces/david-siglin-UuW4psOb388-unsplash.jpg,Stimuli/Experimental_stims/faces/joel-mott-LaK153ghdig-unsplash.jpg,0,1,1091,1,unchosen,14,19,faces,faces,4300,1,1,3
238,50734,0,239,4,4,1,gain5,no_gain5,E,J,43,19,objects,faces,38,67,Stimuli/Experimental_stims/objects/jonathan-greenaway-Y4hGgeiFn3s-unsplash.jpg,Stimuli/Experimental_stims/faces/joel-mott-LaK153ghdig-unsplash.jpg,0,1,958,1,unchosen,43,19,objects,faces,2300,0,1,3
239,50734,0,240,4,4,1,gain3,no_gain2,A,I,3,8,outdoor_scenes,outdoor_scenes,99,94,Stimuli/Experimental_stims/outdoor_scenes/henry-be-NLF6hTe4PAg-unsplash.jpg,Stimuli/Experimental_stims/outdoor_scenes/samsommer-vddccTqwal8-unsplash.jpg,0,0,786,0,chosen,8,3,outdoor_scenes,outdoor_scenes,1200,0,1,3
240,50734,0,241,4,4,0,no_gain4,gain2,G,D,7,18,outdoor_scenes,faces,81,40,Stimuli/Experimental_stims/outdoor_scenes/petr-vysohlid-9fqwGqGLUxc-unsplash.jpg,Stimuli/Experimental_stims/faces/jessica-radanavong-mrYkTuAesKE-unsplash.jpg,0,1,816,0,chosen,7,18,outdoor_scenes,faces,1300,0,1,3
241,50734,0,242,4,4,0,no_gain3,gain1,B,C,23,29,faces,body_parts,54,98,Stimuli/Experimental_stims/faces/rikonavt-HQjfrvdTfak-unsplash.jpg,Stimuli/Experimental_stims/body_parts/manuel-schinner-ZwjFuJ7ebpk-unsplash.jpg,0,0,956,1,unchosen,29,23,body_parts,faces,1900,0,1,3
242,50734,0,243,4,4,1,gain3,no_gain6,A,L,37,20,objects,faces,76,58,Stimuli/Experimental_stims/objects/alexander-andrews-VLGWE_SumrA-unsplash.jpg,Stimuli/Experimental_stims/faces/justin-chen-J7Cf1Gch49E-unsplash.jpg,0,1,614,1,unchosen,37,20,objects,faces,1300,0,1,3
243,50734,0,244,4,4,1,gain4,no_gain1,H,F,0,25,outdoor_scenes,body_parts,99,39,Stimuli/Experimental_stims/outdoor_scenes/aleksandra-boguslawska-MS7KD9Ti7FQ-unsplash.jpg,Stimuli/Experimental_stims/body_parts/engin-akyurt-Q2rfH3GW39c-unsplash.jpg,0,0,677,0,chosen,25,0,body_parts,outdoor_scenes,4200,1,1,3
244,50734,0,245,4,4,0,no_gain2,gain5,I,E,27,43,body_parts,objects,96,38,Stimuli/Experimental_stims/body_parts/heike-mintel-i_Gns0ELnLw-unsplash.jpg,Stimuli/Experimental_stims/objects/jonathan-greenaway-Y4hGgeiFn3s-unsplash.jpg,0,1,1119,0,unchosen,27,43,body_parts,objects,2400,0,1,3
245,50734,0,246,4,4,1,gain2,no_gain2,D,I,18,8,faces,outdoor_scenes,40,94,Stimuli/Experimental_stims/faces/jessica-radanavong-mrYkTuAesKE-unsplash.jpg,Stimuli/Experimental_stims/outdoor_scenes/samsommer-vddccTqwal8-unsplash.jpg,0,0,974,0,chosen,8,18,outdoor_scenes,faces,1700,0,1,3
246,50734,0,247,4,4,0,no_gain1,gain5,F,E,25,31,body_parts,body_parts,39,76,Stimuli/Experimental_stims/body_parts/engin-akyurt-Q2rfH3GW39c-unsplash.jpg,Stimuli/Experimental_stims/body_parts/sincerely-media-VN6DbKajo5s-unsplash.jpg,0,1,984,0,chosen,25,31,body_parts,body_parts,1600,0,1,3
247,50734,0,248,4,4,1,gain3,no_gain5,A,J,37,19,objects,faces,76,67,Stimuli/Experimental_stims/objects/alexander-andrews-VLGWE_SumrA-unsplash.jpg,Stimuli/Experimental_stims/faces/joel-mott-LaK153ghdig-unsplash.jpg,1,NaN,,NaN,unchosen,NaN,NaN,NaN,NaN,1100,0,1,3
248,50734,0,249,4,4,0,no_gain2,gain1,I,C,27,29,body_parts,body_parts,96,98,Stimuli/Experimental_stims/body_parts/heike-mintel-i_Gns0ELnLw-unsplash.jpg,Stimuli/Experimental_stims/body_parts/manuel-schinner-ZwjFuJ7ebpk-unsplash.jpg,0,1,1285,0,unchosen,27,29,body_parts,body_parts,1200,0,1,3
249,50734,0,250,4,4,1,gain6,no_gain3,K,B,33,4,body_parts,outdoor_scenes,92,96,Stimuli/Experimental_stims/body_parts/tucker-good-36skLT5jZcc-unsplash.jpg,Stimuli/Experimental_stims/outdoor_scenes/jarrett-kow-1ZOyYPOBn7I-unsplash.jpg,0,0,880,0,chosen,4,33,outdoor_scenes,body_parts,3100,1,1,3
250,50734,0,251,4,4,1,gain3,no_gain6,A,L,3,30,outdoor_scenes,body_parts,99,61,Stimuli/Experimental_stims/outdoor_scenes/henry-be-NLF6hTe4PAg-unsplash.jpg,Stimuli/Experimental_stims/body_parts/mika-korhonen-Xodzxosar18-unsplash.jpg,0,0,900,0,chosen,30,3,body_parts,outdoor_scenes,2600,0,1,3
251,50734,0,252,4,4,0,no_gain1,gain6,F,K,22,38,faces,objects,53,92,Stimuli/Experimental_stims/faces/ravi-patel-VMGAbeeJTKo-unsplash.jpg,Stimuli/Experimental_stims/objects/art-lasovsky-8XddFc6NkBY-unsplash.jpg,0,1,858,0,unchosen,22,38,faces,objects,2400,0,1,3
252,50734,0,253,4,4,1,gain2,no_gain3,D,B,39,23,objects,faces,95,54,Stimuli/Experimental_stims/objects/charlesdeluvio-1-nx1QR5dTE-unsplash.jpg,Stimuli/Experimental_stims/faces/rikonavt-HQjfrvdTfak-unsplash.jpg,0,0,804,0,unchosen,23,39,faces,objects,1000,0,1,3
253,50734,0,254,4,4,0,no_gain6,gain4,L,H,30,0,body_parts,outdoor_scenes,61,99,Stimuli/Experimental_stims/body_parts/mika-korhonen-Xodzxosar18-unsplash.jpg,Stimuli/Experimental_stims/outdoor_scenes/aleksandra-boguslawska-MS7KD9Ti7FQ-unsplash.jpg,0,1,981,0,chosen,30,0,body_parts,outdoor_scenes,3000,0,1,3
254,50734,0,255,4,4,0,no_gain4,gain1,G,C,7,5,outdoor_scenes,outdoor_scenes,81,93,Stimuli/Experimental_stims/outdoor_scenes/petr-vysohlid-9fqwGqGLUxc-unsplash.jpg,Stimuli/Experimental_stims/outdoor_scenes/jeff-king-bJHWJeiHfHc-unsplash.jpg,0,0,706,1,chosen,5,7,outdoor_scenes,outdoor_scenes,2400,0,1,3
255,50734,0,256,4,4,0,no_gain2,gain3,I,A,27,37,body_parts,objects,96,76,Stimuli/Experimental_stims/body_parts/heike-mintel-i_Gns0ELnLw-unsplash.jpg,Stimuli/Experimental_stims/objects/alexander-andrews-VLGWE_SumrA-unsplash.jpg,0,1,859,0,unchosen,27,37,body_parts,objects,2300,0,1,3
256,50734,0,257,4,4,1,gain3,no_gain3,A,B,3,4,outdoor_scenes,outdoor_scenes,99,96,Stimuli/Experimental_stims/outdoor_scenes/henry-be-NLF6hTe4PAg-unsplash.jpg,Stimuli/Experimental_stims/outdoor_scenes/jarrett-kow-1ZOyYPOBn7I-unsplash.jpg,0,0,1095,0,chosen,4,3,outdoor_scenes,outdoor_scenes,1900,0,1,3
257,50734,0,258,4,4,1,gain4,no_gain2,H,I,14,27,faces,body_parts,32,96,Stimuli/Experimental_stims/faces/david-siglin-UuW4psOb388-unsplash.jpg,Stimuli/Experimental_stims/body_parts/heike-mintel-i_Gns0ELnLw-unsplash.jpg,0,1,662,1,unchosen,14,27,faces,body_parts,3200,1,1,3
258,50734,0,259,4,4,0,no_gain4,gain6,G,K,36,38,objects,objects,81,92,Stimuli/Experimental_stims/objects/alexander-andrews-JYGnB9gTCls-unsplash.jpg,Stimuli/Experimental_stims/objects/art-lasovsky-8XddFc6NkBY-unsplash.jpg,0,0,934,1,unchosen,38,36,objects,objects,1000,0,1,3
259,50734,0,260,4,4,1,gain5,no_gain3,E,B,31,4,body_parts,outdoor_scenes,76,96,Stimuli/Experimental_stims/body_parts/sincerely-media-VN6DbKajo5s-unsplash.jpg,Stimuli/Experimental_stims/outdoor_scenes/jarrett-kow-1ZOyYPOBn7I-unsplash.jpg,0,1,940,1,chosen,31,4,body_parts,outdoor_scenes,1200,0,1,3
260,50734,0,261,4,4,0,no_gain5,gain4,J,H,47,0,objects,outdoor_scenes,82,99,Stimuli/Experimental_stims/objects/ronaldo-arthur-vidal-Cdz_lvnl37k-unsplash.jpg,Stimuli/Experimental_stims/outdoor_scenes/aleksandra-boguslawska-MS7KD9Ti7FQ-unsplash.jpg,0,0,719,1,chosen,0,47,outdoor_scenes,objects,2700,0,1,3
261,50734,0,262,4,4,0,no_gain1,gain1,F,C,25,5,body_parts,outdoor_scenes,39,93,Stimuli/Experimental_stims/body_parts/engin-akyurt-Q2rfH3GW39c-unsplash.jpg,Stimuli/Experimental_stims/outdoor_scenes/jeff-king-bJHWJeiHfHc-unsplash.jpg,0,1,878,0,chosen,25,5,body_parts,outdoor_scenes,1300,0,1,3
262,50734,0,263,4,4,0,no_gain1,gain2,F,D,22,39,faces,objects,53,95,Stimuli/Experimental_stims/faces/ravi-patel-VMGAbeeJTKo-unsplash.jpg,Stimuli/Experimental_stims/objects/charlesdeluvio-1-nx1QR5dTE-unsplash.jpg,1,NaN,,NaN,unchosen,NaN,NaN,NaN,NaN,1500,0,1,3
263,50734,0,264,4,4,1,gain3,no_gain5,A,J,3,47,outdoor_scenes,objects,99,82,Stimuli/Experimental_stims/outdoor_scenes/henry-be-NLF6hTe4PAg-unsplash.jpg,Stimuli/Experimental_stims/objects/ronaldo-arthur-vidal-Cdz_lvnl37k-unsplash.jpg,0,1,1082,1,chosen,3,47,outdoor_scenes,objects,3700,1,1,3
264,50734,0,265,4,4,0,no_gain2,gain5,I,E,8,31,outdoor_scenes,body_parts,94,76,Stimuli/Experimental_stims/outdoor_scenes/samsommer-vddccTqwal8-unsplash.jpg,Stimuli/Experimental_stims/body_parts/sincerely-media-VN6DbKajo5s-unsplash.jpg,0,0,874,1,chosen,31,8,body_parts,outdoor_scenes,1000,0,1,3
265,50734,0,266,4,4,1,gain4,no_gain6,H,L,14,20,faces,faces,32,58,Stimuli/Experimental_stims/faces/david-siglin-UuW4psOb388-unsplash.jpg,Stimuli/Experimental_stims/faces/justin-chen-J7Cf1Gch49E-unsplash.jpg,0,1,1014,1,unchosen,14,20,faces,faces,1700,0,1,3
266,50734,0,267,4,4,1,gain4,no_gain3,H,B,14,23,faces,faces,32,54,Stimuli/Experimental_stims/faces/david-siglin-UuW4psOb388-unsplash.jpg,Stimuli/Experimental_stims/faces/rikonavt-HQjfrvdTfak-unsplash.jpg,1,NaN,,NaN,unchosen,NaN,NaN,NaN,NaN,1100,0,1,3
267,50734,0,268,4,4,0,no_gain4,gain3,G,A,36,37,objects,objects,81,76,Stimuli/Experimental_stims/objects/alexander-andrews-JYGnB9gTCls-unsplash.jpg,Stimuli/Experimental_stims/objects/alexander-andrews-VLGWE_SumrA-unsplash.jpg,1,NaN,,NaN,unchosen,NaN,NaN,NaN,NaN,1200,0,1,3
268,50734,0,269,4,4,1,gain5,no_gain6,E,L,31,30,body_parts,body_parts,76,61,Stimuli/Experimental_stims/body_parts/sincerely-media-VN6DbKajo5s-unsplash.jpg,Stimuli/Experimental_stims/body_parts/mika-korhonen-Xodzxosar18-unsplash.jpg,1,NaN,,NaN,chosen,NaN,NaN,NaN,NaN,1300,0,1,3
269,50734,0,270,4,4,1,gain6,no_gain1,K,F,33,25,body_parts,body_parts,92,39,Stimuli/Experimental_stims/body_parts/tucker-good-36skLT5jZcc-unsplash.jpg,Stimuli/Experimental_stims/body_parts/engin-akyurt-Q2rfH3GW39c-unsplash.jpg,1,NaN,,NaN,chosen,NaN,NaN,NaN,NaN,1700,0,1,3
270,50734,0,271,4,4,1,gain2,no_gain2,D,I,39,27,objects,body_parts,95,96,Stimuli/Experimental_stims/objects/charlesdeluvio-1-nx1QR5dTE-unsplash.jpg,Stimuli/Experimental_stims/body_parts/heike-mintel-i_Gns0ELnLw-unsplash.jpg,0,0,859,0,unchosen,27,39,body_parts,objects,3400,1,1,3
271,50734,0,272,4,4,0,no_gain5,gain6,J,K,19,38,faces,objects,67,92,Stimuli/Experimental_stims/faces/joel-mott-LaK153ghdig-unsplash.jpg,Stimuli/Experimental_stims/objects/art-lasovsky-8XddFc6NkBY-unsplash.jpg,0,1,745,0,unchosen,19,38,faces,objects,2500,0,1,3
272,50734,0,273,4,4,1,gain2,no_gain1,D,F,18,25,faces,body_parts,40,39,Stimuli/Experimental_stims/faces/jessica-radanavong-mrYkTuAesKE-unsplash.jpg,Stimuli/Experimental_stims/body_parts/engin-akyurt-Q2rfH3GW39c-unsplash.jpg,0,0,338,0,chosen,25,18,body_parts,faces,2600,0,1,3
273,50734,0,274,4,4,1,gain2,no_gain6,D,L,39,20,objects,faces,95,58,Stimuli/Experimental_stims/objects/charlesdeluvio-1-nx1QR5dTE-unsplash.jpg,Stimuli/Experimental_stims/faces/justin-chen-J7Cf1Gch49E-unsplash.jpg,0,1,752,1,unchosen,39,20,objects,faces,2000,0,1,3
274,50734,0,275,4,4,0,no_gain1,gain3,F,A,25,3,body_parts,outdoor_scenes,39,99,Stimuli/Experimental_stims/body_parts/engin-akyurt-Q2rfH3GW39c-unsplash.jpg,Stimuli/Experimental_stims/outdoor_scenes/henry-be-NLF6hTe4PAg-unsplash.jpg,0,0,1108,1,chosen,3,25,outdoor_scenes,body_parts,1900,0,1,3
275,50734,0,276,4,4,0,no_gain2,gain6,I,K,27,38,body_parts,objects,96,92,Stimuli/Experimental_stims/body_parts/heike-mintel-i_Gns0ELnLw-unsplash.jpg,Stimuli/Experimental_stims/objects/art-lasovsky-8XddFc6NkBY-unsplash.jpg,0,1,1315,0,unchosen,27,38,body_parts,objects,1500,0,1,3
276,50734,0,277,4,4,1,gain2,no_gain5,D,J,39,19,objects,faces,95,67,Stimuli/Experimental_stims/objects/charlesdeluvio-1-nx1QR5dTE-unsplash.jpg,Stimuli/Experimental_stims/faces/joel-mott-LaK153ghdig-unsplash.jpg,0,0,742,0,unchosen,19,39,faces,objects,2500,0,1,3
277,50734,0,278,4,4,0,no_gain6,gain6,L,K,30,33,body_parts,body_parts,61,92,Stimuli/Experimental_stims/body_parts/mika-korhonen-Xodzxosar18-unsplash.jpg,Stimuli/Experimental_stims/body_parts/tucker-good-36skLT5jZcc-unsplash.jpg,0,1,934,0,chosen,30,33,body_parts,body_parts,1400,0,1,3
278,50734,0,279,4,4,0,no_gain3,gain2,B,D,4,18,outdoor_scenes,faces,96,40,Stimuli/Experimental_stims/outdoor_scenes/jarrett-kow-1ZOyYPOBn7I-unsplash.jpg,Stimuli/Experimental_stims/faces/jessica-radanavong-mrYkTuAesKE-unsplash.jpg,0,0,814,1,chosen,18,4,faces,outdoor_scenes,1300,0,1,3
279,50734,0,280,4,4,1,gain6,no_gain6,K,L,38,20,objects,faces,92,58,Stimuli/Experimental_stims/objects/art-lasovsky-8XddFc6NkBY-unsplash.jpg,Stimuli/Experimental_stims/faces/justin-chen-J7Cf1Gch49E-unsplash.jpg,0,1,813,1,unchosen,38,20,objects,faces,1100,0,1,3
280,50734,0,281,4,4,1,gain6,no_gain2,K,I,33,8,body_parts,outdoor_scenes,92,94,Stimuli/Experimental_stims/body_parts/tucker-good-36skLT5jZcc-unsplash.jpg,Stimuli/Experimental_stims/outdoor_scenes/samsommer-vddccTqwal8-unsplash.jpg,0,0,745,0,chosen,8,33,outdoor_scenes,body_parts,1100,0,1,3
281,50734,0,282,4,4,1,gain2,no_gain5,D,J,18,47,faces,objects,40,82,Stimuli/Experimental_stims/faces/jessica-radanavong-mrYkTuAesKE-unsplash.jpg,Stimuli/Experimental_stims/objects/ronaldo-arthur-vidal-Cdz_lvnl37k-unsplash.jpg,0,1,823,1,chosen,18,47,faces,objects,3900,1,1,3
282,50734,0,283,4,4,1,gain2,no_gain4,D,G,39,36,objects,objects,95,81,Stimuli/Experimental_stims/objects/charlesdeluvio-1-nx1QR5dTE-unsplash.jpg,Stimuli/Experimental_stims/objects/alexander-andrews-JYGnB9gTCls-unsplash.jpg,0,0,745,0,unchosen,36,39,objects,objects,1200,0,1,3
283,50734,0,284,4,4,0,no_gain4,gain6,G,K,7,33,outdoor_scenes,body_parts,81,92,Stimuli/Experimental_stims/outdoor_scenes/petr-vysohlid-9fqwGqGLUxc-unsplash.jpg,Stimuli/Experimental_stims/body_parts/tucker-good-36skLT5jZcc-unsplash.jpg,0,1,1315,0,chosen,7,33,outdoor_scenes,body_parts,1800,0,1,3
284,50734,0,285,4,4,0,no_gain1,gain3,F,A,22,37,faces,objects,53,76,Stimuli/Experimental_stims/faces/ravi-patel-VMGAbeeJTKo-unsplash.jpg,Stimuli/Experimental_stims/objects/alexander-andrews-VLGWE_SumrA-unsplash.jpg,0,0,1015,1,unchosen,37,22,objects,faces,1900,0,1,3
285,50734,0,286,4,4,1,gain1,no_gain3,C,B,5,4,outdoor_scenes,outdoor_scenes,93,96,Stimuli/Experimental_stims/outdoor_scenes/jeff-king-bJHWJeiHfHc-unsplash.jpg,Stimuli/Experimental_stims/outdoor_scenes/jarrett-kow-1ZOyYPOBn7I-unsplash.jpg,0,1,927,1,chosen,5,4,outdoor_scenes,outdoor_scenes,1100,0,1,3
286,50734,0,287,4,4,0,no_gain3,gain3,B,A,23,37,faces,objects,54,76,Stimuli/Experimental_stims/faces/rikonavt-HQjfrvdTfak-unsplash.jpg,Stimuli/Experimental_stims/objects/alexander-andrews-VLGWE_SumrA-unsplash.jpg,0,0,809,1,unchosen,37,23,objects,faces,3000,0,1,3
287,50734,0,288,4,4,0,no_gain5,gain1,J,C,19,29,faces,body_parts,67,98,Stimuli/Experimental_stims/faces/joel-mott-LaK153ghdig-unsplash.jpg,Stimuli/Experimental_stims/body_parts/manuel-schinner-ZwjFuJ7ebpk-unsplash.jpg,0,1,806,0,unchosen,19,29,faces,body_parts,2800,0,1,3
288,50734,0,289,4,4,0,no_gain3,gain5,B,E,23,43,faces,objects,54,38,Stimuli/Experimental_stims/faces/rikonavt-HQjfrvdTfak-unsplash.jpg,Stimuli/Experimental_stims/objects/jonathan-greenaway-Y4hGgeiFn3s-unsplash.jpg,0,0,968,1,unchosen,43,23,objects,faces,1600,0,1,3
289,50734,0,290,4,4,0,no_gain6,gain1,L,C,30,5,body_parts,outdoor_scenes,61,93,Stimuli/Experimental_stims/body_parts/mika-korhonen-Xodzxosar18-unsplash.jpg,Stimuli/Experimental_stims/outdoor_scenes/jeff-king-bJHWJeiHfHc-unsplash.jpg,0,1,1049,0,chosen,30,5,body_parts,outdoor_scenes,1800,0,1,3
290,50734,0,291,4,4,0,no_gain2,gain1,I,C,8,5,outdoor_scenes,outdoor_scenes,94,93,Stimuli/Experimental_stims/outdoor_scenes/samsommer-vddccTqwal8-unsplash.jpg,Stimuli/Experimental_stims/outdoor_scenes/jeff-king-bJHWJeiHfHc-unsplash.jpg,0,0,1151,1,chosen,5,8,outdoor_scenes,outdoor_scenes,1900,0,1,3
291,50734,0,292,4,4,1,gain1,no_gain5,C,J,5,47,outdoor_scenes,objects,93,82,Stimuli/Experimental_stims/outdoor_scenes/jeff-king-bJHWJeiHfHc-unsplash.jpg,Stimuli/Experimental_stims/objects/ronaldo-arthur-vidal-Cdz_lvnl37k-unsplash.jpg,0,1,1073,1,chosen,5,47,outdoor_scenes,objects,1700,0,1,3