,PID,practice,trial,block,run,gain_left,left_item_id,right_item_id,left_pair_id,right_pair_id,left_stimulus,right_stimulus,left_category,left_rating,right_rating,right_category,left_path,right_path,no_response,left_chosen,rt,higher_outcome_chosen,choice_type,chosen_stimulus,unchosen_stimulus,chosen_category,unchosen_category,iti,long_iti,simulation,version
0,64185,1,1,0,0,0,,,,,,,,,,,Stimuli/Practice_stims/Final_decisions/debby-hudson-FmCSSSGge-0-unsplash.jpg,Stimuli/Practice_stims/Final_decisions/yassine-khalfalli-adsQ9d_Cx0c-unsplash.jpg,0,1,586,0,,,,,,3000,0,7,2
1,64185,1,2,0,0,0,,,,,,,,,,,Stimuli/Practice_stims/Final_decisions/florian-wehde-iVW7mZPwd4g-unsplash.jpg,Stimuli/Practice_stims/Final_decisions/patrick-perkins-3wylDrjxH-E-unsplash.jpg,0,0,211,1,,,,,,1500,0,7,2
2,64185,1,3,0,0,0,,,,,,,,,,,Stimuli/Practice_stims/Final_decisions/debby-hudson-FmCSSSGge-0-unsplash.jpg,Stimuli/Practice_stims/Final_decisions/florian-wehde-iVW7mZPwd4g-unsplash.jpg,0,0,112,1,,,,,,2000,0,7,2
3,64185,1,4,0,0,0,,,,,,,,,,,Stimuli/Practice_stims/Final_decisions/yassine-khalfalli-adsQ9d_Cx0c-unsplash.jpg,Stimuli/Practice_stims/Final_decisions/debby-hudson-FmCSSSGge-0-unsplash.jpg,0,0,61,1,,,,,,1000,0,7,2
4,64185,0,5,1,1,1,gain2,no_gain3,E,C,29,33,body_parts,76,73,body_parts,Stimuli/Experimental_stims/body_parts/manuel-schinner-ZwjFuJ7ebpk-unsplash.jpg,Stimuli/Experimental_stims/body_parts/tucker-good-36skLT5jZcc-unsplash.jpg,1,NaN,,NaN,unchosen,NaN,NaN,NaN,NaN,4100,1,7,2
5,64185,0,6,1,1,1,gain3,no_gain5,A,H,1,15,outdoor_scenes,83,81,faces,Stimuli/Experimental_stims/outdoor_scenes/ashim-d-silva-S2Q5mdOrrVc-unsplash.jpg,Stimuli/Experimental_stims/faces/erik-lucatero-d2MSDujJl2g-unsplash.jpg,0,1,354,1,chosen,1,15,outdoor_scenes,faces,1200,0,7,2
6,64185,0,7,1,1,1,gain1,no_gain3,F,C,25,4,body_parts,36,81,outdoor_scenes,Stimuli/Experimental_stims/body_parts/engin-akyurt-Q2rfH3GW39c-unsplash.jpg,Stimuli/Experimental_stims/outdoor_scenes/jarrett-kow-1ZOyYPOBn7I-unsplash.jpg,0,1,428,1,chosen,25,4,body_parts,outdoor_scenes,2600,0,7,2
7,64185,0,8,1,1,1,gain2,no_gain4,E,G,44,45,objects,75,41,objects,Stimuli/Experimental_stims/objects/kuiye-chen-NuOGFo4PudE-unsplash.jpg,Stimuli/Experimental_stims/objects/leohoho-rngTKHXumy0-unsplash.jpg,0,0,66,0,chosen,45,44,objects,objects,2000,0,7,2
8,64185,0,9,1,1,0,no_gain5,gain1,H,F,9,20,outdoor_scenes,75,73,faces,Stimuli/Experimental_stims/outdoor_scenes/sergey-pesterev-y-b_FOmJXdg-unsplash.jpg,Stimuli/Experimental_stims/faces/justin-chen-J7Cf1Gch49E-unsplash.jpg,0,0,64,1,unchosen,20,9,faces,outdoor_scenes,1200,0,7,2
9,64185,0,10,1,1,0,no_gain4,gain3,G,A,45,1,objects,41,83,outdoor_scenes,Stimuli/Experimental_stims/objects/leohoho-rngTKHXumy0-unsplash.jpg,Stimuli/Experimental_stims/outdoor_scenes/ashim-d-silva-S2Q5mdOrrVc-unsplash.jpg,0,1,161,0,chosen,45,1,objects,outdoor_scenes,3200,1,7,2
10,64185,0,11,1,1,0,no_gain1,gain3,D,A,42,1,objects,76,83,outdoor_scenes,Stimuli/Experimental_stims/objects/jess-bailey-nOeVi8DsN8U-unsplash.jpg,Stimuli/Experimental_stims/outdoor_scenes/ashim-d-silva-S2Q5mdOrrVc-unsplash.jpg,0,1,163,0,chosen,42,1,objects,outdoor_scenes,1200,0,7,2
11,64185,0,12,1,1,0,no_gain2,gain1,I,F,32,25,body_parts,77,36,body_parts,Stimuli/Experimental_stims/body_parts/towfiqu-barbhuiya-3AsiVDsZnHg-unsplash.jpg,Stimuli/Experimental_stims/body_parts/engin-akyurt-Q2rfH3GW39c-unsplash.jpg,0,0,2,1,chosen,25,32,body_parts,body_parts,1800,0,7,2
12,64185,0,13,1,1,1,gain2,no_gain1,E,D,29,12,body_parts,76,76,faces,Stimuli/Experimental_stims/body_parts/manuel-schinner-ZwjFuJ7ebpk-unsplash.jpg,Stimuli/Experimental_stims/faces/aiony-haust-jmATI5Q_YgY-unsplash.jpg,0,0,1,0,unchosen,12,29,faces,body_parts,1600,0,7,2
13,64185,0,14,1,1,0,no_gain6,gain6,K,L,31,24,body_parts,50,77,body_parts,Stimuli/Experimental_stims/body_parts/sincerely-media-VN6DbKajo5s-unsplash.jpg,Stimuli/Experimental_stims/body_parts/clay-banks-LjqARJaJotc-unsplash.jpg,0,1,32,0,unchosen,31,24,body_parts,body_parts,1300,0,7,2
14,64185,0,15,1,1,0,no_gain1,gain5,D,J,12,21,faces,76,69,faces,Stimuli/Experimental_stims/faces/aiony-haust-jmATI5Q_YgY-unsplash.jpg,Stimuli/Experimental_stims/faces/leilani-angel-K84vnnzxmTQ-unsplash.jpg,0,1,166,0,unchosen,12,21,faces,faces,1900,0,7,2
15,64185,0,16,1,1,0,no_gain3,gain2,C,E,4,44,outdoor_scenes,81,75,objects,Stimuli/Experimental_stims/outdoor_scenes/jarrett-kow-1ZOyYPOBn7I-unsplash.jpg,Stimuli/Experimental_stims/objects/kuiye-chen-NuOGFo4PudE-unsplash.jpg,0,0,594,1,chosen,44,4,objects,outdoor_scenes,4100,1,7,2
16,64185,0,17,1,1,1,gain4,no_gain2,B,I,0,8,outdoor_scenes,82,37,outdoor_scenes,Stimuli/Experimental_stims/outdoor_scenes/aleksandra-boguslawska-MS7KD9Ti7FQ-unsplash.jpg,Stimuli/Experimental_stims/outdoor_scenes/samsommer-vddccTqwal8-unsplash.jpg,0,0,108,0,unchosen,8,0,outdoor_scenes,outdoor_scenes,1100,0,7,2
17,64185,0,18,1,1,1,gain6,no_gain2,L,I,14,32,faces,75,77,body_parts,Stimuli/Experimental_stims/faces/david-siglin-UuW4psOb388-unsplash.jpg,Stimuli/Experimental_stims/body_parts/towfiqu-barbhuiya-3AsiVDsZnHg-unsplash.jpg,0,1,154,1,chosen,14,32,faces,body_parts,1200,0,7,2
18,64185,0,19,1,1,1,gain5,no_gain4,J,G,21,7,faces,69,82,outdoor_scenes,Stimuli/Experimental_stims/faces/leilani-angel-K84vnnzxmTQ-unsplash.jpg,Stimuli/Experimental_stims/outdoor_scenes/petr-vysohlid-9fqwGqGLUxc-unsplash.jpg,0,1,50,1,unchosen,21,7,faces,outdoor_scenes,1400,0,7,2
19,64185,0,20,1,1,0,no_gain4,gain1,G,F,45,25,objects,41,36,body_parts,Stimuli/Experimental_stims/objects/leohoho-rngTKHXumy0-unsplash.jpg,Stimuli/Experimental_stims/body_parts/engin-akyurt-Q2rfH3GW39c-unsplash.jpg,0,1,173,0,chosen,45,25,objects,body_parts,1300,0,7,2
20,64185,0,21,1,1,1,gain6,no_gain6,L,K,14,40,faces,75,79,objects,Stimuli/Experimental_stims/faces/david-siglin-UuW4psOb388-unsplash.jpg,Stimuli/Experimental_stims/objects/fabian-blank-pElSkGRA2NU-unsplash.jpg,0,1,136,1,chosen,14,40,faces,objects,4600,1,7,2
21,64185,0,22,1,1,0,no_gain1,gain3,D,A,12,36,faces,76,70,objects,Stimuli/Experimental_stims/faces/aiony-haust-jmATI5Q_YgY-unsplash.jpg,Stimuli/Experimental_stims/objects/alexander-andrews-JYGnB9gTCls-unsplash.jpg,0,1,21,0,unchosen,12,36,faces,objects,1000,0,7,2
22,64185,0,23,1,1,1,gain4,no_gain4,B,G,13,45,faces,78,41,objects,Stimuli/Experimental_stims/faces/daniel-rigdon-dXmXKPP2L4E-unsplash.jpg,Stimuli/Experimental_stims/objects/leohoho-rngTKHXumy0-unsplash.jpg,0,0,165,0,chosen,45,13,objects,faces,1100,0,7,2
23,64185,0,24,1,1,0,no_gain1,gain4,D,B,12,0,faces,76,82,outdoor_scenes,Stimuli/Experimental_stims/faces/aiony-haust-jmATI5Q_YgY-unsplash.jpg,Stimuli/Experimental_stims/outdoor_scenes/aleksandra-boguslawska-MS7KD9Ti7FQ-unsplash.jpg,0,0,145,1,unchosen,0,12,outdoor_scenes,faces,1700,0,7,2
24,64185,0,25,1,1,0,no_gain3,gain5,C,J,33,21,body_parts,73,69,faces,Stimuli/Experimental_stims/body_parts/tucker-good-36skLT5jZcc-unsplash.jpg,Stimuli/Experimental_stims/faces/leilani-angel-K84vnnzxmTQ-unsplash.jpg,0,1,55,0,unchosen,33,21,body_parts,faces,2800,0,7,2
25,64185,0,26,1,1,1,gain4,no_gain3,B,C,13,4,faces,78,81,outdoor_scenes,Stimuli/Experimental_stims/faces/daniel-rigdon-dXmXKPP2L4E-unsplash.jpg,Stimuli/Experimental_stims/outdoor_scenes/jarrett-kow-1ZOyYPOBn7I-unsplash.jpg,0,1,23,1,chosen,13,4,faces,outdoor_scenes,3200,1,7,2
26,64185,0,27,1,1,1,gain5,no_gain6,J,K,46,40,objects,85,79,objects,Stimuli/Experimental_stims/objects/mockup-graphics-PNsj6RiHAF4-unsplash.jpg,Stimuli/Experimental_stims/objects/fabian-blank-pElSkGRA2NU-unsplash.jpg,0,1,52,1,chosen,46,40,objects,objects,2000,0,7,2
27,64185,0,28,1,1,0,no_gain3,gain3,C,A,33,36,body_parts,73,70,objects,Stimuli/Experimental_stims/body_parts/tucker-good-36skLT5jZcc-unsplash.jpg,Stimuli/Experimental_stims/objects/alexander-andrews-JYGnB9gTCls-unsplash.jpg,0,1,81,0,unchosen,33,36,body_parts,objects,1600,0,7,2
28,64185,0,29,1,1,1,gain6,no_gain3,L,C,14,4,faces,75,81,outdoor_scenes,Stimuli/Experimental_stims/faces/david-siglin-UuW4psOb388-unsplash.jpg,Stimuli/Experimental_stims/outdoor_scenes/jarrett-kow-1ZOyYPOBn7I-unsplash.jpg,0,1,117,1,chosen,14,4,faces,outdoor_scenes,1300,0,7,2
29,64185,0,30,1,1,1,gain5,no_gain5,J,H,21,9,faces,69,75,outdoor_scenes,Stimuli/Experimental_stims/faces/leilani-angel-K84vnnzxmTQ-unsplash.jpg,Stimuli/Experimental_stims/outdoor_scenes/sergey-pesterev-y-b_FOmJXdg-unsplash.jpg,0,1,330,1,unchosen,21,9,faces,outdoor_scenes,1200,0,7,2
30,64185,0,31,1,1,0,no_gain6,gain3,K,A,31,36,body_parts,50,70,objects,Stimuli/Experimental_stims/body_parts/sincerely-media-VN6DbKajo5s-unsplash.jpg,Stimuli/Experimental_stims/objects/alexander-andrews-JYGnB9gTCls-unsplash.jpg,0,1,349,0,unchosen,31,36,body_parts,objects,3500,1,7,2
31,64185,0,32,1,1,0,no_gain1,gain1,D,F,42,25,objects,76,36,body_parts,Stimuli/Experimental_stims/objects/jess-bailey-nOeVi8DsN8U-unsplash.jpg,Stimuli/Experimental_stims/body_parts/engin-akyurt-Q2rfH3GW39c-unsplash.jpg,0,0,20,1,chosen,25,42,body_parts,objects,1800,0,7,2
32,64185,0,33,1,1,0,no_gain5,gain6,H,L,9,24,outdoor_scenes,75,77,body_parts,Stimuli/Experimental_stims/outdoor_scenes/sergey-pesterev-y-b_FOmJXdg-unsplash.jpg,Stimuli/Experimental_stims/body_parts/clay-banks-LjqARJaJotc-unsplash.jpg,0,1,147,0,unchosen,9,24,outdoor_scenes,body_parts,1600,0,7,2
33,64185,0,34,1,1,0,no_gain1,gain5,D,J,42,46,objects,76,85,objects,Stimuli/Experimental_stims/objects/jess-bailey-nOeVi8DsN8U-unsplash.jpg,Stimuli/Experimental_stims/objects/mockup-graphics-PNsj6RiHAF4-unsplash.jpg,0,0,44,1,chosen,46,42,objects,objects,2000,0,7,2
34,64185,0,35,1,1,0,no_gain5,gain5,H,J,15,46,faces,81,85,objects,Stimuli/Experimental_stims/faces/erik-lucatero-d2MSDujJl2g-unsplash.jpg,Stimuli/Experimental_stims/objects/mockup-graphics-PNsj6RiHAF4-unsplash.jpg,0,1,20,0,chosen,15,46,faces,objects,1100,0,7,2
35,64185,0,36,1,1,1,gain1,no_gain2,F,I,20,8,faces,73,37,outdoor_scenes,Stimuli/Experimental_stims/faces/justin-chen-J7Cf1Gch49E-unsplash.jpg,Stimuli/Experimental_stims/outdoor_scenes/samsommer-vddccTqwal8-unsplash.jpg,0,0,2,0,unchosen,8,20,outdoor_scenes,faces,2800,0,7,2
36,64185,0,37,1,1,0,no_gain2,gain5,I,J,32,46,body_parts,77,85,objects,Stimuli/Experimental_stims/body_parts/towfiqu-barbhuiya-3AsiVDsZnHg-unsplash.jpg,Stimuli/Experimental_stims/objects/mockup-graphics-PNsj6RiHAF4-unsplash.jpg,0,1,1,0,chosen,32,46,body_parts,objects,3100,1,7,2
37,64185,0,38,1,1,0,no_gain4,gain2,G,E,7,29,outdoor_scenes,82,76,body_parts,Stimuli/Experimental_stims/outdoor_scenes/petr-vysohlid-9fqwGqGLUxc-unsplash.jpg,Stimuli/Experimental_stims/body_parts/manuel-schinner-ZwjFuJ7ebpk-unsplash.jpg,0,0,124,1,unchosen,29,7,body_parts,outdoor_scenes,1100,0,7,2
38,64185,0,39,1,1,0,no_gain4,gain1,G,F,7,20,outdoor_scenes,82,73,faces,Stimuli/Experimental_stims/outdoor_scenes/petr-vysohlid-9fqwGqGLUxc-unsplash.jpg,Stimuli/Experimental_stims/faces/justin-chen-J7Cf1Gch49E-unsplash.jpg,0,0,58,1,unchosen,20,7,faces,outdoor_scenes,1100,0,7,2
39,64185,0,40,1,1,1,gain2,no_gain1,E,D,44,42,objects,75,76,objects,Stimuli/Experimental_stims/objects/kuiye-chen-NuOGFo4PudE-unsplash.jpg,Stimuli/Experimental_stims/objects/jess-bailey-nOeVi8DsN8U-unsplash.jpg,0,0,157,0,chosen,42,44,objects,objects,1100,0,7,2
40,64185,0,41,1,1,1,gain2,no_gain5,E,H,29,9,body_parts,76,75,outdoor_scenes,Stimuli/Experimental_stims/body_parts/manuel-schinner-ZwjFuJ7ebpk-unsplash.jpg,Stimuli/Experimental_stims/outdoor_scenes/sergey-pesterev-y-b_FOmJXdg-unsplash.jpg,0,0,143,0,unchosen,9,29,outdoor_scenes,body_parts,2300,0,7,2
41,64185,0,42,1,1,1,gain6,no_gain3,L,C,24,33,body_parts,77,73,body_parts,Stimuli/Experimental_stims/body_parts/clay-banks-LjqARJaJotc-unsplash.jpg,Stimuli/Experimental_stims/body_parts/tucker-good-36skLT5jZcc-unsplash.jpg,0,1,575,1,unchosen,24,33,body_parts,body_parts,3700,1,7,2
42,64185,0,43,1,1,0,no_gain6,gain5,K,J,31,21,body_parts,50,69,faces,Stimuli/Experimental_stims/body_parts/sincerely-media-VN6DbKajo5s-unsplash.jpg,Stimuli/Experimental_stims/faces/leilani-angel-K84vnnzxmTQ-unsplash.jpg,0,0,54,1,unchosen,21,31,faces,body_parts,2400,0,7,2
43,64185,0,44,1,1,0,no_gain5,gain6,H,L,15,14,faces,81,75,faces,Stimuli/Experimental_stims/faces/erik-lucatero-d2MSDujJl2g-unsplash.jpg,Stimuli/Experimental_stims/faces/david-siglin-UuW4psOb388-unsplash.jpg,0,0,1,1,chosen,14,15,faces,faces,1400,0,7,2
44,64185,0,45,1,1,0,no_gain2,gain6,I,L,8,24,outdoor_scenes,37,77,body_parts,Stimuli/Experimental_stims/outdoor_scenes/samsommer-vddccTqwal8-unsplash.jpg,Stimuli/Experimental_stims/body_parts/clay-banks-LjqARJaJotc-unsplash.jpg,0,0,9,1,unchosen,24,8,body_parts,outdoor_scenes,2500,0,7,2
45,64185,0,46,1,1,1,gain6,no_gain1,L,D,14,42,faces,75,76,objects,Stimuli/Experimental_stims/faces/david-siglin-UuW4psOb388-unsplash.jpg,Stimuli/Experimental_stims/objects/jess-bailey-nOeVi8DsN8U-unsplash.jpg,0,0,42,0,chosen,42,14,objects,faces,2600,0,7,2
46,64185,0,47,1,1,1,gain2,no_gain2,E,I,44,32,objects,75,77,body_parts,Stimuli/Experimental_stims/objects/kuiye-chen-NuOGFo4PudE-unsplash.jpg,Stimuli/Experimental_stims/body_parts/towfiqu-barbhuiya-3AsiVDsZnHg-unsplash.jpg,0,1,84,1,chosen,44,32,objects,body_parts,1100,0,7,2
47,64185,0,48,1,1,0,no_gain6,gain1,K,F,31,20,body_parts,50,73,faces,Stimuli/Experimental_stims/body_parts/sincerely-media-VN6DbKajo5s-unsplash.jpg,Stimuli/Experimental_stims/faces/justin-chen-J7Cf1Gch49E-unsplash.jpg,0,1,22,0,unchosen,31,20,body_parts,faces,4800,1,7,2
48,64185,0,49,1,1,1,gain4,no_gain3,B,C,0,33,outdoor_scenes,82,73,body_parts,Stimuli/Experimental_stims/outdoor_scenes/aleksandra-boguslawska-MS7KD9Ti7FQ-unsplash.jpg,Stimuli/Experimental_stims/body_parts/tucker-good-36skLT5jZcc-unsplash.jpg,0,1,76,1,unchosen,0,33,outdoor_scenes,body_parts,1600,0,7,2
49,64185,0,50,1,1,1,gain6,no_gain4,L,G,14,45,faces,75,41,objects,Stimuli/Experimental_stims/faces/david-siglin-UuW4psOb388-unsplash.jpg,Stimuli/Experimental_stims/objects/leohoho-rngTKHXumy0-unsplash.jpg,0,1,500,1,chosen,14,45,faces,objects,2800,0,7,2
50,64185,0,51,1,1,1,gain1,no_gain3,F,C,20,33,faces,73,73,body_parts,Stimuli/Experimental_stims/faces/justin-chen-J7Cf1Gch49E-unsplash.jpg,Stimuli/Experimental_stims/body_parts/tucker-good-36skLT5jZcc-unsplash.jpg,0,1,35,1,unchosen,20,33,faces,body_parts,2300,0,7,2
51,64185,0,52,1,1,1,gain3,no_gain5,A,H,36,9,objects,70,75,outdoor_scenes,Stimuli/Experimental_stims/objects/alexander-andrews-JYGnB9gTCls-unsplash.jpg,Stimuli/Experimental_stims/outdoor_scenes/sergey-pesterev-y-b_FOmJXdg-unsplash.jpg,0,0,2,0,unchosen,9,36,outdoor_scenes,objects,2400,0,7,2
52,64185,0,53,1,1,1,gain4,no_gain4,B,G,0,7,outdoor_scenes,82,82,outdoor_scenes,Stimuli/Experimental_stims/outdoor_scenes/aleksandra-boguslawska-MS7KD9Ti7FQ-unsplash.jpg,Stimuli/Experimental_stims/outdoor_scenes/petr-vysohlid-9fqwGqGLUxc-unsplash.jpg,0,0,284,0,unchosen,7,0,outdoor_scenes,outdoor_scenes,1800,0,7,2
53,64185,0,54,1,1,0,no_gain6,gain1,K,F,40,25,objects,79,36,body_parts,Stimuli/Experimental_stims/objects/fabian-blank-pElSkGRA2NU-unsplash.jpg,Stimuli/Experimental_stims/body_parts/engin-akyurt-Q2rfH3GW39c-unsplash.jpg,0,0,92,1,chosen,25,40,body_parts,objects,1500,0,7,2
54,64185,0,55,1,1,1,gain6,no_gain4,L,G,24,7,body_parts,77,82,outdoor_scenes,Stimuli/Experimental_stims/body_parts/clay-banks-LjqARJaJotc-unsplash.jpg,Stimuli/Experimental_stims/outdoor_scenes/petr-vysohlid-9fqwGqGLUxc-unsplash.jpg,0,1,51,1,unchosen,24,7,body_parts,outdoor_scenes,1900,0,7,2
55,64185,0,56,1,1,1,gain3,no_gain2,A,I,36,8,objects,70,37,outdoor_scenes,Stimuli/Experimental_stims/objects/alexander-andrews-JYGnB9gTCls-unsplash.jpg,Stimuli/Experimental_stims/outdoor_scenes/samsommer-vddccTqwal8-unsplash.jpg,0,0,219,0,unchosen,8,36,outdoor_scenes,objects,1100,0,7,2
56,64185,0,57,1,1,0,no_gain2,gain2,I,E,8,29,outdoor_scenes,37,76,body_parts,Stimuli/Experimental_stims/outdoor_scenes/samsommer-vddccTqwal8-unsplash.jpg,Stimuli/Experimental_stims/body_parts/manuel-schinner-ZwjFuJ7ebpk-unsplash.jpg,0,1,131,0,unchosen,8,29,outdoor_scenes,body_parts,1700,0,7,2
57,64185,0,58,1,1,1,gain5,no_gain3,J,C,46,4,objects,85,81,outdoor_scenes,Stimuli/Experimental_stims/objects/mockup-graphics-PNsj6RiHAF4-unsplash.jpg,Stimuli/Experimental_stims/outdoor_scenes/jarrett-kow-1ZOyYPOBn7I-unsplash.jpg,0,0,279,0,chosen,4,46,outdoor_scenes,objects,1600,0,7,2
58,64185,0,59,1,1,1,gain6,no_gain1,L,D,24,12,body_parts,77,76,faces,Stimuli/Experimental_stims/body_parts/clay-banks-LjqARJaJotc-unsplash.jpg,Stimuli/Experimental_stims/faces/aiony-haust-jmATI5Q_YgY-unsplash.jpg,0,0,107,0,unchosen,12,24,faces,body_parts,1700,0,7,2
59,64185,0,60,1,1,0,no_gain5,gain4,H,B,15,13,faces,81,78,faces,Stimuli/Experimental_stims/faces/erik-lucatero-d2MSDujJl2g-unsplash.jpg,Stimuli/Experimental_stims/faces/daniel-rigdon-dXmXKPP2L4E-unsplash.jpg,0,0,236,1,chosen,13,15,faces,faces,3000,0,7,2
60,64185,0,61,1,1,1,gain3,no_gain6,A,K,1,40,outdoor_scenes,83,79,objects,Stimuli/Experimental_stims/outdoor_scenes/ashim-d-silva-S2Q5mdOrrVc-unsplash.jpg,Stimuli/Experimental_stims/objects/fabian-blank-pElSkGRA2NU-unsplash.jpg,0,0,172,0,chosen,40,1,objects,outdoor_scenes,2100,0,7,2
61,64185,0,62,1,1,1,gain5,no_gain2,J,I,21,8,faces,69,37,outdoor_scenes,Stimuli/Experimental_stims/faces/leilani-angel-K84vnnzxmTQ-unsplash.jpg,Stimuli/Experimental_stims/outdoor_scenes/samsommer-vddccTqwal8-unsplash.jpg,0,0,146,0,unchosen,8,21,outdoor_scenes,faces,3200,1,7,2
62,64185,0,63,1,1,1,gain1,no_gain5,F,H,25,15,body_parts,36,81,faces,Stimuli/Experimental_stims/body_parts/engin-akyurt-Q2rfH3GW39c-unsplash.jpg,Stimuli/Experimental_stims/faces/erik-lucatero-d2MSDujJl2g-unsplash.jpg,0,0,109,0,chosen,15,25,faces,body_parts,1600,0,7,2
63,64185,0,64,1,1,0,no_gain2,gain4,I,B,32,13,body_parts,77,78,faces,Stimuli/Experimental_stims/body_parts/towfiqu-barbhuiya-3AsiVDsZnHg-unsplash.jpg,Stimuli/Experimental_stims/faces/daniel-rigdon-dXmXKPP2L4E-unsplash.jpg,0,0,215,1,chosen,13,32,faces,body_parts,1300,0,7,2
64,64185,0,65,1,1,0,no_gain1,gain1,D,F,12,20,faces,76,73,faces,Stimuli/Experimental_stims/faces/aiony-haust-jmATI5Q_YgY-unsplash.jpg,Stimuli/Experimental_stims/faces/justin-chen-J7Cf1Gch49E-unsplash.jpg,0,0,169,1,unchosen,20,12,faces,faces,1800,0,7,2
65,64185,0,66,1,1,0,no_gain1,gain4,D,B,42,13,objects,76,78,faces,Stimuli/Experimental_stims/objects/jess-bailey-nOeVi8DsN8U-unsplash.jpg,Stimuli/Experimental_stims/faces/daniel-rigdon-dXmXKPP2L4E-unsplash.jpg,0,0,28,1,chosen,13,42,faces,objects,1400,0,7,2
66,64185,0,67,1,1,0,no_gain3,gain3,C,A,4,1,outdoor_scenes,81,83,outdoor_scenes,Stimuli/Experimental_stims/outdoor_scenes/jarrett-kow-1ZOyYPOBn7I-unsplash.jpg,Stimuli/Experimental_stims/outdoor_scenes/ashim-d-silva-S2Q5mdOrrVc-unsplash.jpg,0,0,32,1,chosen,1,4,outdoor_scenes,outdoor_scenes,1500,0,7,2
67,64185,0,68,1,1,0,no_gain6,gain2,K,E,40,44,objects,79,75,objects,Stimuli/Experimental_stims/objects/fabian-blank-pElSkGRA2NU-unsplash.jpg,Stimuli/Experimental_stims/objects/kuiye-chen-NuOGFo4PudE-unsplash.jpg,0,1,143,0,chosen,40,44,objects,objects,1100,0,7,2
68,64185,0,69,1,1,0,no_gain6,gain4,K,B,31,0,body_parts,50,82,outdoor_scenes,Stimuli/Experimental_stims/body_parts/sincerely-media-VN6DbKajo5s-unsplash.jpg,Stimuli/Experimental_stims/outdoor_scenes/aleksandra-boguslawska-MS7KD9Ti7FQ-unsplash.jpg,0,0,81,1,unchosen,0,31,outdoor_scenes,body_parts,4300,1,7,2
69,64185,0,70,1,1,0,no_gain2,gain3,I,A,32,1,body_parts,77,83,outdoor_scenes,Stimuli/Experimental_stims/body_parts/towfiqu-barbhuiya-3AsiVDsZnHg-unsplash.jpg,Stimuli/Experimental_stims/outdoor_scenes/ashim-d-silva-S2Q5mdOrrVc-unsplash.jpg,0,0,34,1,chosen,1,32,outdoor_scenes,body_parts,1100,0,7,2
70,64185,0,71,1,1,1,gain2,no_gain5,E,H,44,15,objects,75,81,faces,Stimuli/Experimental_stims/objects/kuiye-chen-NuOGFo4PudE-unsplash.jpg,Stimuli/Experimental_stims/faces/erik-lucatero-d2MSDujJl2g-unsplash.jpg,0,1,60,1,chosen,44,15,objects,faces,1300,0,7,2
71,64185,0,72,1,1,1,gain2,no_gain6,E,K,29,31,body_parts,76,50,body_parts,Stimuli/Experimental_stims/body_parts/manuel-schinner-ZwjFuJ7ebpk-unsplash.jpg,Stimuli/Experimental_stims/body_parts/sincerely-media-VN6DbKajo5s-unsplash.jpg,0,0,245,0,unchosen,31,29,body_parts,body_parts,2000,0,7,2
72,64185,0,73,1,1,0,no_gain4,gain3,G,A,7,36,outdoor_scenes,82,70,objects,Stimuli/Experimental_stims/outdoor_scenes/petr-vysohlid-9fqwGqGLUxc-unsplash.jpg,Stimuli/Experimental_stims/objects/alexander-andrews-JYGnB9gTCls-unsplash.jpg,0,1,63,0,unchosen,7,36,outdoor_scenes,objects,1900,0,7,2
73,64185,0,74,1,1,0,no_gain4,gain5,G,J,45,46,objects,41,85,objects,Stimuli/Experimental_stims/objects/leohoho-rngTKHXumy0-unsplash.jpg,Stimuli/Experimental_stims/objects/mockup-graphics-PNsj6RiHAF4-unsplash.jpg,0,0,25,1,chosen,46,45,objects,objects,2200,0,7,2
74,64185,0,75,1,1,1,gain4,no_gain6,B,K,13,40,faces,78,79,objects,Stimuli/Experimental_stims/faces/daniel-rigdon-dXmXKPP2L4E-unsplash.jpg,Stimuli/Experimental_stims/objects/fabian-blank-pElSkGRA2NU-unsplash.jpg,0,1,1,1,chosen,13,40,faces,objects,1000,0,7,2
75,64185,0,76,1,1,1,gain4,no_gain5,B,H,0,9,outdoor_scenes,82,75,outdoor_scenes,Stimuli/Experimental_stims/outdoor_scenes/aleksandra-boguslawska-MS7KD9Ti7FQ-unsplash.jpg,Stimuli/Experimental_stims/outdoor_scenes/sergey-pesterev-y-b_FOmJXdg-unsplash.jpg,0,0,172,0,unchosen,9,0,outdoor_scenes,outdoor_scenes,1100,0,7,2
76,64185,0,77,2,2,1,gain6,no_gain3,L,C,24,33,body_parts,77,73,body_parts,Stimuli/Experimental_stims/body_parts/clay-banks-LjqARJaJotc-unsplash.jpg,Stimuli/Experimental_stims/body_parts/tucker-good-36skLT5jZcc-unsplash.jpg,1,NaN,,NaN,unchosen,NaN,NaN,NaN,NaN,3800,1,10,2
77,64185,0,78,2,2,1,gain6,no_gain4,L,G,14,45,faces,75,41,objects,Stimuli/Experimental_stims/faces/david-siglin-UuW4psOb388-unsplash.jpg,Stimuli/Experimental_stims/objects/leohoho-rngTKHXumy0-unsplash.jpg,0,0,557,0,chosen,45,14,objects,faces,2000,0,10,2
78,64185,0,79,2,2,1,gain3,no_gain1,A,D,1,42,outdoor_scenes,83,76,objects,Stimuli/Experimental_stims/outdoor_scenes/ashim-d-silva-S2Q5mdOrrVc-unsplash.jpg,Stimuli/Experimental_stims/objects/jess-bailey-nOeVi8DsN8U-unsplash.jpg,0,1,10,1,chosen,1,42,outdoor_scenes,objects,3000,0,10,2
79,64185,0,80,2,2,1,gain4,no_gain3,B,C,0,33,outdoor_scenes,82,73,body_parts,Stimuli/Experimental_stims/outdoor_scenes/aleksandra-boguslawska-MS7KD9Ti7FQ-unsplash.jpg,Stimuli/Experimental_stims/body_parts/tucker-good-36skLT5jZcc-unsplash.jpg,0,0,21,0,unchosen,33,0,body_parts,outdoor_scenes,1400,0,10,2
80,64185,0,81,2,2,1,gain6,no_gain6,L,K,14,40,faces,75,79,objects,Stimuli/Experimental_stims/faces/david-siglin-UuW4psOb388-unsplash.jpg,Stimuli/Experimental_stims/objects/fabian-blank-pElSkGRA2NU-unsplash.jpg,0,0,50,0,chosen,40,14,objects,faces,2900,0,10,2
81,64185,0,82,2,2,1,gain2,no_gain1,E,D,44,42,objects,75,76,objects,Stimuli/Experimental_stims/objects/kuiye-chen-NuOGFo4PudE-unsplash.jpg,Stimuli/Experimental_stims/objects/jess-bailey-nOeVi8DsN8U-unsplash.jpg,0,0,133,0,chosen,42,44,objects,objects,2000,0,10,2
82,64185,0,83,2,2,0,no_gain1,gain3,D,A,12,36,faces,76,70,objects,Stimuli/Experimental_stims/faces/aiony-haust-jmATI5Q_YgY-unsplash.jpg,Stimuli/Experimental_stims/objects/alexander-andrews-JYGnB9gTCls-unsplash.jpg,0,0,119,1,unchosen,36,12,objects,faces,2700,0,10,2
83,64185,0,84,2,2,0,no_gain6,gain2,K,E,40,44,objects,79,75,objects,Stimuli/Experimental_stims/objects/fabian-blank-pElSkGRA2NU-unsplash.jpg,Stimuli/Experimental_stims/objects/kuiye-chen-NuOGFo4PudE-unsplash.jpg,0,1,45,0,chosen,40,44,objects,objects,3600,1,10,2
84,64185,0,85,2,2,0,no_gain3,gain2,C,E,33,29,body_parts,73,76,body_parts,Stimuli/Experimental_stims/body_parts/tucker-good-36skLT5jZcc-unsplash.jpg,Stimuli/Experimental_stims/body_parts/manuel-schinner-ZwjFuJ7ebpk-unsplash.jpg,0,0,150,1,unchosen,29,33,body_parts,body_parts,1300,0,10,2
85,64185,0,86,2,2,1,gain6,no_gain1,L,D,24,12,body_parts,77,76,faces,Stimuli/Experimental_stims/body_parts/clay-banks-LjqARJaJotc-unsplash.jpg,Stimuli/Experimental_stims/faces/aiony-haust-jmATI5Q_YgY-unsplash.jpg,0,0,40,0,unchosen,12,24,faces,body_parts,3000,0,10,2
86,64185,0,87,2,2,0,no_gain5,gain4,H,B,9,0,outdoor_scenes,75,82,outdoor_scenes,Stimuli/Experimental_stims/outdoor_scenes/sergey-pesterev-y-b_FOmJXdg-unsplash.jpg,Stimuli/Experimental_stims/outdoor_scenes/aleksandra-boguslawska-MS7KD9Ti7FQ-unsplash.jpg,0,0,57,1,unchosen,0,9,outdoor_scenes,outdoor_scenes,2600,0,10,2
87,64185,0,88,2,2,0,no_gain2,gain3,I,A,32,1,body_parts,77,83,outdoor_scenes,Stimuli/Experimental_stims/body_parts/towfiqu-barbhuiya-3AsiVDsZnHg-unsplash.jpg,Stimuli/Experimental_stims/outdoor_scenes/ashim-d-silva-S2Q5mdOrrVc-unsplash.jpg,0,0,155,1,chosen,1,32,outdoor_scenes,body_parts,1100,0,10,2
88,64185,0,89,2,2,0,no_gain1,gain1,D,F,42,25,objects,76,36,body_parts,Stimuli/Experimental_stims/objects/jess-bailey-nOeVi8DsN8U-unsplash.jpg,Stimuli/Experimental_stims/body_parts/engin-akyurt-Q2rfH3GW39c-unsplash.jpg,0,0,219,1,chosen,25,42,body_parts,objects,1400,0,10,2
89,64185,0,90,2,2,0,no_gain5,gain2,H,E,9,29,outdoor_scenes,75,76,body_parts,Stimuli/Experimental_stims/outdoor_scenes/sergey-pesterev-y-b_FOmJXdg-unsplash.jpg,Stimuli/Experimental_stims/body_parts/manuel-schinner-ZwjFuJ7ebpk-unsplash.jpg,0,1,98,0,unchosen,9,29,outdoor_scenes,body_parts,1100,0,10,2
90,64185,0,91,2,2,1,gain3,no_gain3,A,C,36,33,objects,70,73,body_parts,Stimuli/Experimental_stims/objects/alexander-andrews-JYGnB9gTCls-unsplash.jpg,Stimuli/Experimental_stims/body_parts/tucker-good-36skLT5jZcc-unsplash.jpg,0,0,58,0,unchosen,33,36,body_parts,objects,2900,0,10,2
91,64185,0,92,2,2,1,gain5,no_gain4,J,G,46,45,objects,85,41,objects,Stimuli/Experimental_stims/objects/mockup-graphics-PNsj6RiHAF4-unsplash.jpg,Stimuli/Experimental_stims/objects/leohoho-rngTKHXumy0-unsplash.jpg,0,0,74,0,chosen,45,46,objects,objects,1600,0,10,2
92,64185,0,93,2,2,1,gain2,no_gain6,E,K,29,31,body_parts,76,50,body_parts,Stimuli/Experimental_stims/body_parts/manuel-schinner-ZwjFuJ7ebpk-unsplash.jpg,Stimuli/Experimental_stims/body_parts/sincerely-media-VN6DbKajo5s-unsplash.jpg,0,0,19,0,unchosen,31,29,body_parts,body_parts,1500,0,10,2
93,64185,0,94,2,2,0,no_gain5,gain6,H,L,9,24,outdoor_scenes,75,77,body_parts,Stimuli/Experimental_stims/outdoor_scenes/sergey-pesterev-y-b_FOmJXdg-unsplash.jpg,Stimuli/Experimental_stims/body_parts/clay-banks-LjqARJaJotc-unsplash.jpg,0,0,145,1,unchosen,24,9,body_parts,outdoor_scenes,3800,1,10,2
94,64185,0,95,2,2,0,no_gain6,gain4,K,B,40,13,objects,79,78,faces,Stimuli/Experimental_stims/objects/fabian-blank-pElSkGRA2NU-unsplash.jpg,Stimuli/Experimental_stims/faces/daniel-rigdon-dXmXKPP2L4E-unsplash.jpg,0,0,126,1,chosen,13,40,faces,objects,1500,0,10,2
95,64185,0,96,2,2,1,gain5,no_gain2,J,I,21,8,faces,69,37,outdoor_scenes,Stimuli/Experimental_stims/faces/leilani-angel-K84vnnzxmTQ-unsplash.jpg,Stimuli/Experimental_stims/outdoor_scenes/samsommer-vddccTqwal8-unsplash.jpg,0,0,79,0,unchosen,8,21,outdoor_scenes,faces,1000,0,10,2
96,64185,0,97,2,2,1,gain4,no_gain4,B,G,0,7,outdoor_scenes,82,82,outdoor_scenes,Stimuli/Experimental_stims/outdoor_scenes/aleksandra-boguslawska-MS7KD9Ti7FQ-unsplash.jpg,Stimuli/Experimental_stims/outdoor_scenes/petr-vysohlid-9fqwGqGLUxc-unsplash.jpg,0,1,234,1,unchosen,0,7,outdoor_scenes,outdoor_scenes,1600,0,10,2
97,64185,0,98,2,2,0,no_gain5,gain3,H,A,15,1,faces,81,83,outdoor_scenes,Stimuli/Experimental_stims/faces/erik-lucatero-d2MSDujJl2g-unsplash.jpg,Stimuli/Experimental_stims/outdoor_scenes/ashim-d-silva-S2Q5mdOrrVc-unsplash.jpg,0,0,282,1,chosen,1,15,outdoor_scenes,faces,1300,0,10,2
98,64185,0,99,2,2,1,gain2,no_gain4,E,G,44,45,objects,75,41,objects,Stimuli/Experimental_stims/objects/kuiye-chen-NuOGFo4PudE-unsplash.jpg,Stimuli/Experimental_stims/objects/leohoho-rngTKHXumy0-unsplash.jpg,0,1,32,1,chosen,44,45,objects,objects,3500,1,10,2
99,64185,0,100,2,2,0,no_gain2,gain4,I,B,32,13,body_parts,77,78,faces,Stimuli/Experimental_stims/body_parts/towfiqu-barbhuiya-3AsiVDsZnHg-unsplash.jpg,Stimuli/Experimental_stims/faces/daniel-rigdon-dXmXKPP2L4E-unsplash.jpg,0,0,23,1,chosen,13,32,faces,body_parts,2500,0,10,2
100,64185,0,101,2,2,1,gain5,no_gain6,J,K,21,31,faces,69,50,body_parts,Stimuli/Experimental_stims/faces/leilani-angel-K84vnnzxmTQ-unsplash.jpg,Stimuli/Experimental_stims/body_parts/sincerely-media-VN6DbKajo5s-unsplash.jpg,0,1,36,1,unchosen,21,31,faces,body_parts,1100,0,10,2
101,64185,0,102,2,2,1,gain3,no_gain3,A,C,1,4,outdoor_scenes,83,81,outdoor_scenes,Stimuli/Experimental_stims/outdoor_scenes/ashim-d-silva-S2Q5mdOrrVc-unsplash.jpg,Stimuli/Experimental_stims/outdoor_scenes/jarrett-kow-1ZOyYPOBn7I-unsplash.jpg,0,0,170,0,chosen,4,1,outdoor_scenes,outdoor_scenes,1000,0,10,2
102,64185,0,103,2,2,0,no_gain2,gain1,I,F,8,20,outdoor_scenes,37,73,faces,Stimuli/Experimental_stims/outdoor_scenes/samsommer-vddccTqwal8-unsplash.jpg,Stimuli/Experimental_stims/faces/justin-chen-J7Cf1Gch49E-unsplash.jpg,0,0,19,1,unchosen,20,8,faces,outdoor_scenes,2100,0,10,2
103,64185,0,104,2,2,1,gain4,no_gain4,B,G,13,45,faces,78,41,objects,Stimuli/Experimental_stims/faces/daniel-rigdon-dXmXKPP2L4E-unsplash.jpg,Stimuli/Experimental_stims/objects/leohoho-rngTKHXumy0-unsplash.jpg,0,1,48,1,chosen,13,45,faces,objects,1300,0,10,2
104,64185,0,105,2,2,0,no_gain2,gain4,I,B,8,0,outdoor_scenes,37,82,outdoor_scenes,Stimuli/Experimental_stims/outdoor_scenes/samsommer-vddccTqwal8-unsplash.jpg,Stimuli/Experimental_stims/outdoor_scenes/aleksandra-boguslawska-MS7KD9Ti7FQ-unsplash.jpg,0,0,2,1,unchosen,0,8,outdoor_scenes,outdoor_scenes,2000,0,10,2
105,64185,0,106,2,2,1,gain5,no_gain1,J,D,46,42,objects,85,76,objects,Stimuli/Experimental_stims/objects/mockup-graphics-PNsj6RiHAF4-unsplash.jpg,Stimuli/Experimental_stims/objects/jess-bailey-nOeVi8DsN8U-unsplash.jpg,0,1,29,1,chosen,46,42,objects,objects,3100,1,10,2
106,64185,0,107,2,2,0,no_gain6,gain3,K,A,31,36,body_parts,50,70,objects,Stimuli/Experimental_stims/body_parts/sincerely-media-VN6DbKajo5s-unsplash.jpg,Stimuli/Experimental_stims/objects/alexander-andrews-JYGnB9gTCls-unsplash.jpg,0,1,6,0,unchosen,31,36,body_parts,objects,1400,0,10,2
107,64185,0,108,2,2,1,gain6,no_gain1,L,D,14,42,faces,75,76,objects,Stimuli/Experimental_stims/faces/david-siglin-UuW4psOb388-unsplash.jpg,Stimuli/Experimental_stims/objects/jess-bailey-nOeVi8DsN8U-unsplash.jpg,0,1,151,1,chosen,14,42,faces,objects,1300,0,10,2
108,64185,0,109,2,2,0,no_gain2,gain5,I,J,32,46,body_parts,77,85,objects,Stimuli/Experimental_stims/body_parts/towfiqu-barbhuiya-3AsiVDsZnHg-unsplash.jpg,Stimuli/Experimental_stims/objects/mockup-graphics-PNsj6RiHAF4-unsplash.jpg,0,1,64,0,chosen,32,46,body_parts,objects,1300,0,10,2
109,64185,0,110,2,2,0,no_gain5,gain5,H,J,9,21,outdoor_scenes,75,69,faces,Stimuli/Experimental_stims/outdoor_scenes/sergey-pesterev-y-b_FOmJXdg-unsplash.jpg,Stimuli/Experimental_stims/faces/leilani-angel-K84vnnzxmTQ-unsplash.jpg,0,0,44,1,unchosen,21,9,faces,outdoor_scenes,1200,0,10,2
110,64185,0,111,2,2,0,no_gain5,gain1,H,F,9,20,outdoor_scenes,75,73,faces,Stimuli/Experimental_stims/outdoor_scenes/sergey-pesterev-y-b_FOmJXdg-unsplash.jpg,Stimuli/Experimental_stims/faces/justin-chen-J7Cf1Gch49E-unsplash.jpg,0,1,161,0,unchosen,9,20,outdoor_scenes,faces,1300,0,10,2
111,64185,0,112,2,2,0,no_gain6,gain5,K,J,40,46,objects,79,85,objects,Stimuli/Experimental_stims/objects/fabian-blank-pElSkGRA2NU-unsplash.jpg,Stimuli/Experimental_stims/objects/mockup-graphics-PNsj6RiHAF4-unsplash.jpg,0,1,37,0,chosen,40,46,objects,objects,1100,0,10,2
112,64185,0,113,2,2,1,gain2,no_gain2,E,I,44,32,objects,75,77,body_parts,Stimuli/Experimental_stims/objects/kuiye-chen-NuOGFo4PudE-unsplash.jpg,Stimuli/Experimental_stims/body_parts/towfiqu-barbhuiya-3AsiVDsZnHg-unsplash.jpg,0,1,2,1,chosen,44,32,objects,body_parts,1900,0,10,2
113,64185,0,114,2,2,1,gain1,no_gain6,F,K,20,31,faces,73,50,body_parts,Stimuli/Experimental_stims/faces/justin-chen-J7Cf1Gch49E-unsplash.jpg,Stimuli/Experimental_stims/body_parts/sincerely-media-VN6DbKajo5s-unsplash.jpg,0,1,184,1,unchosen,20,31,faces,body_parts,2100,0,10,2
114,64185,0,115,2,2,0,no_gain3,gain5,C,J,33,21,body_parts,73,69,faces,Stimuli/Experimental_stims/body_parts/tucker-good-36skLT5jZcc-unsplash.jpg,Stimuli/Experimental_stims/faces/leilani-angel-K84vnnzxmTQ-unsplash.jpg,0,0,120,1,unchosen,21,33,faces,body_parts,1400,0,10,2
115,64185,0,116,2,2,1,gain3,no_gain6,A,K,1,40,outdoor_scenes,83,79,objects,Stimuli/Experimental_stims/outdoor_scenes/ashim-d-silva-S2Q5mdOrrVc-unsplash.jpg,Stimuli/Experimental_stims/objects/fabian-blank-pElSkGRA2NU-unsplash.jpg,0,1,28,1,chosen,1,40,outdoor_scenes,objects,1100,0,10,2
116,64185,0,117,2,2,0,no_gain5,gain5,H,J,15,46,faces,81,85,objects,Stimuli/Experimental_stims/faces/erik-lucatero-d2MSDujJl2g-unsplash.jpg,Stimuli/Experimental_stims/objects/mockup-graphics-PNsj6RiHAF4-unsplash.jpg,0,0,196,1,chosen,46,15,objects,faces,1600,0,10,2
117,64185,0,118,2,2,1,gain3,no_gain4,A,G,36,7,objects,70,82,outdoor_scenes,Stimuli/Experimental_stims/objects/alexander-andrews-JYGnB9gTCls-unsplash.jpg,Stimuli/Experimental_stims/outdoor_scenes/petr-vysohlid-9fqwGqGLUxc-unsplash.jpg,0,0,115,0,unchosen,7,36,outdoor_scenes,objects,1300,0,10,2
118,64185,0,119,2,2,1,gain4,no_gain1,B,D,13,42,faces,78,76,objects,Stimuli/Experimental_stims/faces/daniel-rigdon-dXmXKPP2L4E-unsplash.jpg,Stimuli/Experimental_stims/objects/jess-bailey-nOeVi8DsN8U-unsplash.jpg,0,1,43,1,chosen,13,42,faces,objects,2500,0,10,2
119,64185,0,120,2,2,0,no_gain4,gain2,G,E,7,29,outdoor_scenes,82,76,body_parts,Stimuli/Experimental_stims/outdoor_scenes/petr-vysohlid-9fqwGqGLUxc-unsplash.jpg,Stimuli/Experimental_stims/body_parts/manuel-schinner-ZwjFuJ7ebpk-unsplash.jpg,0,1,1,0,unchosen,7,29,outdoor_scenes,body_parts,4300,1,10,2
120,64185,0,121,2,2,0,no_gain3,gain4,C,B,4,13,outdoor_scenes,81,78,faces,Stimuli/Experimental_stims/outdoor_scenes/jarrett-kow-1ZOyYPOBn7I-unsplash.jpg,Stimuli/Experimental_stims/faces/daniel-rigdon-dXmXKPP2L4E-unsplash.jpg,0,1,82,0,chosen,4,13,outdoor_scenes,faces,2400,0,10,2
121,64185,0,122,2,2,1,gain1,no_gain4,F,G,20,7,faces,73,82,outdoor_scenes,Stimuli/Experimental_stims/faces/justin-chen-J7Cf1Gch49E-unsplash.jpg,Stimuli/Experimental_stims/outdoor_scenes/petr-vysohlid-9fqwGqGLUxc-unsplash.jpg,0,0,68,0,unchosen,7,20,outdoor_scenes,faces,1800,0,10,2
122,64185,0,123,2,2,1,gain6,no_gain3,L,C,14,4,faces,75,81,outdoor_scenes,Stimuli/Experimental_stims/faces/david-siglin-UuW4psOb388-unsplash.jpg,Stimuli/Experimental_stims/outdoor_scenes/jarrett-kow-1ZOyYPOBn7I-unsplash.jpg,0,0,161,0,chosen,4,14,outdoor_scenes,faces,1000,0,10,2
123,64185,0,124,2,2,1,gain5,no_gain1,J,D,21,12,faces,69,76,faces,Stimuli/Experimental_stims/faces/leilani-angel-K84vnnzxmTQ-unsplash.jpg,Stimuli/Experimental_stims/faces/aiony-haust-jmATI5Q_YgY-unsplash.jpg,0,0,29,0,unchosen,12,21,faces,faces,2000,0,10,2
124,64185,0,125,2,2,1,gain3,no_gain2,A,I,36,8,objects,70,37,outdoor_scenes,Stimuli/Experimental_stims/objects/alexander-andrews-JYGnB9gTCls-unsplash.jpg,Stimuli/Experimental_stims/outdoor_scenes/samsommer-vddccTqwal8-unsplash.jpg,0,1,132,1,unchosen,36,8,objects,outdoor_scenes,2700,0,10,2
125,64185,0,126,2,2,0,no_gain2,gain2,I,E,8,29,outdoor_scenes,37,76,body_parts,Stimuli/Experimental_stims/outdoor_scenes/samsommer-vddccTqwal8-unsplash.jpg,Stimuli/Experimental_stims/body_parts/manuel-schinner-ZwjFuJ7ebpk-unsplash.jpg,0,0,13,1,unchosen,29,8,body_parts,outdoor_scenes,2500,0,10,2
126,64185,0,127,2,2,0,no_gain4,gain1,G,F,45,25,objects,41,36,body_parts,Stimuli/Experimental_stims/objects/leohoho-rngTKHXumy0-unsplash.jpg,Stimuli/Experimental_stims/body_parts/engin-akyurt-Q2rfH3GW39c-unsplash.jpg,0,0,207,1,chosen,25,45,body_parts,objects,1800,0,10,2
127,64185,0,128,2,2,1,gain4,no_gain6,B,K,0,31,outdoor_scenes,82,50,body_parts,Stimuli/Experimental_stims/outdoor_scenes/aleksandra-boguslawska-MS7KD9Ti7FQ-unsplash.jpg,Stimuli/Experimental_stims/body_parts/sincerely-media-VN6DbKajo5s-unsplash.jpg,0,0,270,0,unchosen,31,0,body_parts,outdoor_scenes,1200,0,10,2
128,64185,0,129,2,2,0,no_gain1,gain2,D,E,12,29,faces,76,76,body_parts,Stimuli/Experimental_stims/faces/aiony-haust-jmATI5Q_YgY-unsplash.jpg,Stimuli/Experimental_stims/body_parts/manuel-schinner-ZwjFuJ7ebpk-unsplash.jpg,0,1,105,0,unchosen,12,29,faces,body_parts,3800,1,10,2
129,64185,0,130,2,2,1,gain1,no_gain6,F,K,25,40,body_parts,36,79,objects,Stimuli/Experimental_stims/body_parts/engin-akyurt-Q2rfH3GW39c-unsplash.jpg,Stimuli/Experimental_stims/objects/fabian-blank-pElSkGRA2NU-unsplash.jpg,0,1,48,1,chosen,25,40,body_parts,objects,1300,0,10,2
130,64185,0,131,2,2,1,gain6,no_gain4,L,G,24,7,body_parts,77,82,outdoor_scenes,Stimuli/Experimental_stims/body_parts/clay-banks-LjqARJaJotc-unsplash.jpg,Stimuli/Experimental_stims/outdoor_scenes/petr-vysohlid-9fqwGqGLUxc-unsplash.jpg,0,0,136,0,unchosen,7,24,outdoor_scenes,body_parts,2900,0,10,2
131,64185,0,132,2,2,0,no_gain5,gain2,H,E,15,44,faces,81,75,objects,Stimuli/Experimental_stims/faces/erik-lucatero-d2MSDujJl2g-unsplash.jpg,Stimuli/Experimental_stims/objects/kuiye-chen-NuOGFo4PudE-unsplash.jpg,0,0,34,1,chosen,44,15,objects,faces,1200,0,10,2
132,64185,0,133,2,2,0,no_gain5,gain6,H,L,15,14,faces,81,75,faces,Stimuli/Experimental_stims/faces/erik-lucatero-d2MSDujJl2g-unsplash.jpg,Stimuli/Experimental_stims/faces/david-siglin-UuW4psOb388-unsplash.jpg,0,1,124,0,chosen,15,14,faces,faces,1300,0,10,2
133,64185,0,134,2,2,0,no_gain2,gain6,I,L,8,24,outdoor_scenes,37,77,body_parts,Stimuli/Experimental_stims/outdoor_scenes/samsommer-vddccTqwal8-unsplash.jpg,Stimuli/Experimental_stims/body_parts/clay-banks-LjqARJaJotc-unsplash.jpg,0,1,125,0,unchosen,8,24,outdoor_scenes,body_parts,2500,0,10,2
134,64185,0,135,2,2,1,gain5,no_gain3,J,C,46,4,objects,85,81,outdoor_scenes,Stimuli/Experimental_stims/objects/mockup-graphics-PNsj6RiHAF4-unsplash.jpg,Stimuli/Experimental_stims/outdoor_scenes/jarrett-kow-1ZOyYPOBn7I-unsplash.jpg,0,1,146,1,chosen,46,4,objects,outdoor_scenes,3000,0,10,2
135,64185,0,136,2,2,1,gain4,no_gain5,B,H,13,15,faces,78,81,faces,Stimuli/Experimental_stims/faces/daniel-rigdon-dXmXKPP2L4E-unsplash.jpg,Stimuli/Experimental_stims/faces/erik-lucatero-d2MSDujJl2g-unsplash.jpg,0,0,2,0,chosen,15,13,faces,faces,4200,1,10,2
136,64185,0,137,2,2,0,no_gain6,gain6,K,L,31,24,body_parts,50,77,body_parts,Stimuli/Experimental_stims/body_parts/sincerely-media-VN6DbKajo5s-unsplash.jpg,Stimuli/Experimental_stims/body_parts/clay-banks-LjqARJaJotc-unsplash.jpg,1,NaN,,NaN,unchosen,NaN,NaN,NaN,NaN,1700,0,10,2
137,64185,0,138,2,2,0,no_gain3,gain1,C,F,4,25,outdoor_scenes,81,36,body_parts,Stimuli/Experimental_stims/outdoor_scenes/jarrett-kow-1ZOyYPOBn7I-unsplash.jpg,Stimuli/Experimental_stims/body_parts/engin-akyurt-Q2rfH3GW39c-unsplash.jpg,0,0,27,1,chosen,25,4,body_parts,outdoor_scenes,1300,0,10,2
138,64185,0,139,2,2,0,no_gain2,gain1,I,F,32,25,body_parts,77,36,body_parts,Stimuli/Experimental_stims/body_parts/towfiqu-barbhuiya-3AsiVDsZnHg-unsplash.jpg,Stimuli/Experimental_stims/body_parts/engin-akyurt-Q2rfH3GW39c-unsplash.jpg,0,1,94,0,chosen,32,25,body_parts,body_parts,1100,0,10,2
139,64185,0,140,2,2,0,no_gain2,gain6,I,L,32,14,body_parts,77,75,faces,Stimuli/Experimental_stims/body_parts/towfiqu-barbhuiya-3AsiVDsZnHg-unsplash.jpg,Stimuli/Experimental_stims/faces/david-siglin-UuW4psOb388-unsplash.jpg,0,0,92,1,chosen,14,32,faces,body_parts,1300,0,10,2
140,64185,0,141,2,2,1,gain5,no_gain4,J,G,21,7,faces,69,82,outdoor_scenes,Stimuli/Experimental_stims/faces/leilani-angel-K84vnnzxmTQ-unsplash.jpg,Stimuli/Experimental_stims/outdoor_scenes/petr-vysohlid-9fqwGqGLUxc-unsplash.jpg,0,0,170,0,unchosen,7,21,outdoor_scenes,faces,1500,0,10,2
141,64185,0,142,2,2,0,no_gain5,gain1,H,F,15,25,faces,81,36,body_parts,Stimuli/Experimental_stims/faces/erik-lucatero-d2MSDujJl2g-unsplash.jpg,Stimuli/Experimental_stims/body_parts/engin-akyurt-Q2rfH3GW39c-unsplash.jpg,0,1,230,0,chosen,15,25,faces,body_parts,1800,0,10,2
142,64185,0,143,2,2,0,no_gain1,gain4,D,B,12,0,faces,76,82,outdoor_scenes,Stimuli/Experimental_stims/faces/aiony-haust-jmATI5Q_YgY-unsplash.jpg,Stimuli/Experimental_stims/outdoor_scenes/aleksandra-boguslawska-MS7KD9Ti7FQ-unsplash.jpg,0,1,12,0,unchosen,12,0,faces,outdoor_scenes,1400,0,10,2
143,64185,0,144,2,2,1,gain3,no_gain5,A,H,36,9,objects,70,75,outdoor_scenes,Stimuli/Experimental_stims/objects/alexander-andrews-JYGnB9gTCls-unsplash.jpg,Stimuli/Experimental_stims/outdoor_scenes/sergey-pesterev-y-b_FOmJXdg-unsplash.jpg,0,0,106,0,unchosen,9,36,outdoor_scenes,objects,1400,0,10,2
144,64185,0,145,2,2,0,no_gain4,gain3,G,A,45,1,objects,41,83,outdoor_scenes,Stimuli/Experimental_stims/objects/leohoho-rngTKHXumy0-unsplash.jpg,Stimuli/Experimental_stims/outdoor_scenes/ashim-d-silva-S2Q5mdOrrVc-unsplash.jpg,0,0,81,1,chosen,1,45,outdoor_scenes,objects,1600,0,10,2
145,64185,0,146,2,2,1,gain1,no_gain3,F,C,20,33,faces,73,73,body_parts,Stimuli/Experimental_stims/faces/justin-chen-J7Cf1Gch49E-unsplash.jpg,Stimuli/Experimental_stims/body_parts/tucker-good-36skLT5jZcc-unsplash.jpg,0,1,113,1,unchosen,20,33,faces,body_parts,2000,0,10,2
146,64185,0,147,2,2,0,no_gain1,gain1,D,F,12,20,faces,76,73,faces,Stimuli/Experimental_stims/faces/aiony-haust-jmATI5Q_YgY-unsplash.jpg,Stimuli/Experimental_stims/faces/justin-chen-J7Cf1Gch49E-unsplash.jpg,0,0,45,1,unchosen,20,12,faces,faces,2500,0,10,2
147,64185,0,148,2,2,1,gain2,no_gain3,E,C,44,4,objects,75,81,outdoor_scenes,Stimuli/Experimental_stims/objects/kuiye-chen-NuOGFo4PudE-unsplash.jpg,Stimuli/Experimental_stims/outdoor_scenes/jarrett-kow-1ZOyYPOBn7I-unsplash.jpg,0,1,46,1,chosen,44,4,objects,outdoor_scenes,3300,1,10,2
148,64185,0,149,3,3,0,no_gain1,gain2,D,E,12,29,faces,76,76,body_parts,Stimuli/Experimental_stims/faces/aiony-haust-jmATI5Q_YgY-unsplash.jpg,Stimuli/Experimental_stims/body_parts/manuel-schinner-ZwjFuJ7ebpk-unsplash.jpg,1,NaN,,NaN,unchosen,NaN,NaN,NaN,NaN,2200,0,10,2
149,64185,0,150,3,3,1,gain2,no_gain4,E,G,29,7,body_parts,76,82,outdoor_scenes,Stimuli/Experimental_stims/body_parts/manuel-schinner-ZwjFuJ7ebpk-unsplash.jpg,Stimuli/Experimental_stims/outdoor_scenes/petr-vysohlid-9fqwGqGLUxc-unsplash.jpg,0,0,967,0,unchosen,7,29,outdoor_scenes,body_parts,1200,0,10,2
150,64185,0,151,3,3,0,no_gain5,gain1,H,F,9,20,outdoor_scenes,75,73,faces,Stimuli/Experimental_stims/outdoor_scenes/sergey-pesterev-y-b_FOmJXdg-unsplash.jpg,Stimuli/Experimental_stims/faces/justin-chen-J7Cf1Gch49E-unsplash.jpg,0,0,23,1,unchosen,20,9,faces,outdoor_scenes,1700,0,10,2
151,64185,0,152,3,3,0,no_gain6,gain4,K,B,40,13,objects,79,78,faces,Stimuli/Experimental_stims/objects/fabian-blank-pElSkGRA2NU-unsplash.jpg,Stimuli/Experimental_stims/faces/daniel-rigdon-dXmXKPP2L4E-unsplash.jpg,0,1,76,0,chosen,40,13,objects,faces,1100,0,10,2
152,64185,0,153,3,3,0,no_gain1,gain3,D,A,42,1,objects,76,83,outdoor_scenes,Stimuli/Experimental_stims/objects/jess-bailey-nOeVi8DsN8U-unsplash.jpg,Stimuli/Experimental_stims/outdoor_scenes/ashim-d-silva-S2Q5mdOrrVc-unsplash.jpg,0,0,251,1,chosen,1,42,outdoor_scenes,objects,1000,0,10,2
153,64185,0,154,3,3,1,gain4,no_gain3,B,C,0,33,outdoor_scenes,82,73,body_parts,Stimuli/Experimental_stims/outdoor_scenes/aleksandra-boguslawska-MS7KD9Ti7FQ-unsplash.jpg,Stimuli/Experimental_stims/body_parts/tucker-good-36skLT5jZcc-unsplash.jpg,0,1,62,1,unchosen,0,33,outdoor_scenes,body_parts,1900,0,10,2
154,64185,0,155,3,3,1,gain3,no_gain3,A,C,36,33,objects,70,73,body_parts,Stimuli/Experimental_stims/objects/alexander-andrews-JYGnB9gTCls-unsplash.jpg,Stimuli/Experimental_stims/body_parts/tucker-good-36skLT5jZcc-unsplash.jpg,0,1,150,1,unchosen,36,33,objects,body_parts,4700,1,10,2
155,64185,0,156,3,3,1,gain5,no_gain5,J,H,46,15,objects,85,81,faces,Stimuli/Experimental_stims/objects/mockup-graphics-PNsj6RiHAF4-unsplash.jpg,Stimuli/Experimental_stims/faces/erik-lucatero-d2MSDujJl2g-unsplash.jpg,0,0,195,0,chosen,15,46,faces,objects,2400,0,10,2
156,64185,0,157,3,3,1,gain6,no_gain3,L,C,24,33,body_parts,77,73,body_parts,Stimuli/Experimental_stims/body_parts/clay-banks-LjqARJaJotc-unsplash.jpg,Stimuli/Experimental_stims/body_parts/tucker-good-36skLT5jZcc-unsplash.jpg,0,0,26,0,unchosen,33,24,body_parts,body_parts,1900,0,10,2
157,64185,0,158,3,3,1,gain1,no_gain4,F,G,25,45,body_parts,36,41,objects,Stimuli/Experimental_stims/body_parts/engin-akyurt-Q2rfH3GW39c-unsplash.jpg,Stimuli/Experimental_stims/objects/leohoho-rngTKHXumy0-unsplash.jpg,0,0,24,0,chosen,45,25,objects,body_parts,1000,0,10,2
158,64185,0,159,3,3,0,no_gain2,gain6,I,L,32,14,body_parts,77,75,faces,Stimuli/Experimental_stims/body_parts/towfiqu-barbhuiya-3AsiVDsZnHg-unsplash.jpg,Stimuli/Experimental_stims/faces/david-siglin-UuW4psOb388-unsplash.jpg,0,0,277,1,chosen,14,32,faces,body_parts,1800,0,10,2
159,64185,0,160,3,3,1,gain4,no_gain4,B,G,0,7,outdoor_scenes,82,82,outdoor_scenes,Stimuli/Experimental_stims/outdoor_scenes/aleksandra-boguslawska-MS7KD9Ti7FQ-unsplash.jpg,Stimuli/Experimental_stims/outdoor_scenes/petr-vysohlid-9fqwGqGLUxc-unsplash.jpg,0,1,65,1,unchosen,0,7,outdoor_scenes,outdoor_scenes,1800,0,10,2
160,64185,0,161,3,3,0,no_gain4,gain3,G,A,7,36,outdoor_scenes,82,70,objects,Stimuli/Experimental_stims/outdoor_scenes/petr-vysohlid-9fqwGqGLUxc-unsplash.jpg,Stimuli/Experimental_stims/objects/alexander-andrews-JYGnB9gTCls-unsplash.jpg,0,0,28,1,unchosen,36,7,objects,outdoor_scenes,4700,1,10,2
161,64185,0,162,3,3,0,no_gain1,gain4,D,B,12,0,faces,76,82,outdoor_scenes,Stimuli/Experimental_stims/faces/aiony-haust-jmATI5Q_YgY-unsplash.jpg,Stimuli/Experimental_stims/outdoor_scenes/aleksandra-boguslawska-MS7KD9Ti7FQ-unsplash.jpg,0,0,239,1,unchosen,0,12,outdoor_scenes,faces,1300,0,10,2
162,64185,0,163,3,3,1,gain2,no_gain5,E,H,44,15,objects,75,81,faces,Stimuli/Experimental_stims/objects/kuiye-chen-NuOGFo4PudE-unsplash.jpg,Stimuli/Experimental_stims/faces/erik-lucatero-d2MSDujJl2g-unsplash.jpg,0,0,248,0,chosen,15,44,faces,objects,1200,0,10,2
163,64185,0,164,3,3,0,no_gain3,gain4,C,B,4,13,outdoor_scenes,81,78,faces,Stimuli/Experimental_stims/outdoor_scenes/jarrett-kow-1ZOyYPOBn7I-unsplash.jpg,Stimuli/Experimental_stims/faces/daniel-rigdon-dXmXKPP2L4E-unsplash.jpg,0,0,211,1,chosen,13,4,faces,outdoor_scenes,1600,0,10,2
164,64185,0,165,3,3,0,no_gain2,gain5,I,J,8,21,outdoor_scenes,37,69,faces,Stimuli/Experimental_stims/outdoor_scenes/samsommer-vddccTqwal8-unsplash.jpg,Stimuli/Experimental_stims/faces/leilani-angel-K84vnnzxmTQ-unsplash.jpg,0,0,280,1,unchosen,21,8,faces,outdoor_scenes,1200,0,10,2
165,64185,0,166,3,3,1,gain6,no_gain5,L,H,24,9,body_parts,77,75,outdoor_scenes,Stimuli/Experimental_stims/body_parts/clay-banks-LjqARJaJotc-unsplash.jpg,Stimuli/Experimental_stims/outdoor_scenes/sergey-pesterev-y-b_FOmJXdg-unsplash.jpg,0,1,130,1,unchosen,24,9,body_parts,outdoor_scenes,1100,0,10,2
166,64185,0,167,3,3,0,no_gain6,gain3,K,A,40,1,objects,79,83,outdoor_scenes,Stimuli/Experimental_stims/objects/fabian-blank-pElSkGRA2NU-unsplash.jpg,Stimuli/Experimental_stims/outdoor_scenes/ashim-d-silva-S2Q5mdOrrVc-unsplash.jpg,0,0,23,1,chosen,1,40,outdoor_scenes,objects,3100,1,10,2
167,64185,0,168,3,3,0,no_gain5,gain3,H,A,9,36,outdoor_scenes,75,70,objects,Stimuli/Experimental_stims/outdoor_scenes/sergey-pesterev-y-b_FOmJXdg-unsplash.jpg,Stimuli/Experimental_stims/objects/alexander-andrews-JYGnB9gTCls-unsplash.jpg,0,0,41,1,unchosen,36,9,objects,outdoor_scenes,1500,0,10,2
168,64185,0,169,3,3,0,no_gain4,gain3,G,A,45,1,objects,41,83,outdoor_scenes,Stimuli/Experimental_stims/objects/leohoho-rngTKHXumy0-unsplash.jpg,Stimuli/Experimental_stims/outdoor_scenes/ashim-d-silva-S2Q5mdOrrVc-unsplash.jpg,0,1,83,0,chosen,45,1,objects,outdoor_scenes,1000,0,10,2
169,64185,0,170,3,3,0,no_gain5,gain2,H,E,9,29,outdoor_scenes,75,76,body_parts,Stimuli/Experimental_stims/outdoor_scenes/sergey-pesterev-y-b_FOmJXdg-unsplash.jpg,Stimuli/Experimental_stims/body_parts/manuel-schinner-ZwjFuJ7ebpk-unsplash.jpg,0,1,3,0,unchosen,9,29,outdoor_scenes,body_parts,1500,0,10,2
170,64185,0,171,3,3,0,no_gain3,gain2,C,E,4,44,outdoor_scenes,81,75,objects,Stimuli/Experimental_stims/outdoor_scenes/jarrett-kow-1ZOyYPOBn7I-unsplash.jpg,Stimuli/Experimental_stims/objects/kuiye-chen-NuOGFo4PudE-unsplash.jpg,0,0,28,1,chosen,44,4,objects,outdoor_scenes,1400,0,10,2
171,64185,0,172,3,3,1,gain1,no_gain2,F,I,25,32,body_parts,36,77,body_parts,Stimuli/Experimental_stims/body_parts/engin-akyurt-Q2rfH3GW39c-unsplash.jpg,Stimuli/Experimental_stims/body_parts/towfiqu-barbhuiya-3AsiVDsZnHg-unsplash.jpg,0,0,221,0,chosen,32,25,body_parts,body_parts,3500,1,10,2
172,64185,0,173,3,3,0,no_gain4,gain2,G,E,45,44,objects,41,75,objects,Stimuli/Experimental_stims/objects/leohoho-rngTKHXumy0-unsplash.jpg,Stimuli/Experimental_stims/objects/kuiye-chen-NuOGFo4PudE-unsplash.jpg,0,0,104,1,chosen,44,45,objects,objects,1600,0,10,2
173,64185,0,174,3,3,0,no_gain4,gain5,G,J,7,21,outdoor_scenes,82,69,faces,Stimuli/Experimental_stims/outdoor_scenes/petr-vysohlid-9fqwGqGLUxc-unsplash.jpg,Stimuli/Experimental_stims/faces/leilani-angel-K84vnnzxmTQ-unsplash.jpg,0,0,233,1,unchosen,21,7,faces,outdoor_scenes,2200,0,10,2
174,64185,0,175,3,3,0,no_gain3,gain2,C,E,33,29,body_parts,73,76,body_parts,Stimuli/Experimental_stims/body_parts/tucker-good-36skLT5jZcc-unsplash.jpg,Stimuli/Experimental_stims/body_parts/manuel-schinner-ZwjFuJ7ebpk-unsplash.jpg,0,0,72,1,unchosen,29,33,body_parts,body_parts,1200,0,10,2
175,64185,0,176,3,3,1,gain2,no_gain2,E,I,29,8,body_parts,76,37,outdoor_scenes,Stimuli/Experimental_stims/body_parts/manuel-schinner-ZwjFuJ7ebpk-unsplash.jpg,Stimuli/Experimental_stims/outdoor_scenes/samsommer-vddccTqwal8-unsplash.jpg,0,0,91,0,unchosen,8,29,outdoor_scenes,body_parts,1900,0,10,2
176,64185,0,177,3,3,0,no_gain6,gain5,K,J,40,46,objects,79,85,objects,Stimuli/Experimental_stims/objects/fabian-blank-pElSkGRA2NU-unsplash.jpg,Stimuli/Experimental_stims/objects/mockup-graphics-PNsj6RiHAF4-unsplash.jpg,0,0,118,1,chosen,46,40,objects,objects,2000,0,10,2
177,64185,0,178,3,3,1,gain6,no_gain1,L,D,14,42,faces,75,76,objects,Stimuli/Experimental_stims/faces/david-siglin-UuW4psOb388-unsplash.jpg,Stimuli/Experimental_stims/objects/jess-bailey-nOeVi8DsN8U-unsplash.jpg,0,0,151,0,chosen,42,14,objects,faces,1800,0,10,2
178,64185,0,179,3,3,0,no_gain1,gain2,D,E,42,44,objects,76,75,objects,Stimuli/Experimental_stims/objects/jess-bailey-nOeVi8DsN8U-unsplash.jpg,Stimuli/Experimental_stims/objects/kuiye-chen-NuOGFo4PudE-unsplash.jpg,0,0,79,1,chosen,44,42,objects,objects,2200,0,10,2
179,64185,0,180,3,3,0,no_gain2,gain3,I,A,8,36,outdoor_scenes,37,70,objects,Stimuli/Experimental_stims/outdoor_scenes/samsommer-vddccTqwal8-unsplash.jpg,Stimuli/Experimental_stims/objects/alexander-andrews-JYGnB9gTCls-unsplash.jpg,0,1,115,0,unchosen,8,36,outdoor_scenes,objects,2300,0,10,2
180,64185,0,181,3,3,1,gain6,no_gain3,L,C,14,4,faces,75,81,outdoor_scenes,Stimuli/Experimental_stims/faces/david-siglin-UuW4psOb388-unsplash.jpg,Stimuli/Experimental_stims/outdoor_scenes/jarrett-kow-1ZOyYPOBn7I-unsplash.jpg,0,1,1,1,chosen,14,4,faces,outdoor_scenes,4300,1,10,2
181,64185,0,182,3,3,1,gain5,no_gain3,J,C,46,4,objects,85,81,outdoor_scenes,Stimuli/Experimental_stims/objects/mockup-graphics-PNsj6RiHAF4-unsplash.jpg,Stimuli/Experimental_stims/outdoor_scenes/jarrett-kow-1ZOyYPOBn7I-unsplash.jpg,0,0,59,0,chosen,4,46,outdoor_scenes,objects,1600,0,10,2
182,64185,0,183,3,3,0,no_gain2,gain4,I,B,8,0,outdoor_scenes,37,82,outdoor_scenes,Stimuli/Experimental_stims/outdoor_scenes/samsommer-vddccTqwal8-unsplash.jpg,Stimuli/Experimental_stims/outdoor_scenes/aleksandra-boguslawska-MS7KD9Ti7FQ-unsplash.jpg,0,0,127,1,unchosen,0,8,outdoor_scenes,outdoor_scenes,1600,0,10,2
183,64185,0,184,3,3,1,gain3,no_gain1,A,D,36,12,objects,70,76,faces,Stimuli/Experimental_stims/objects/alexander-andrews-JYGnB9gTCls-unsplash.jpg,Stimuli/Experimental_stims/faces/aiony-haust-jmATI5Q_YgY-unsplash.jpg,0,0,3,0,unchosen,12,36,faces,objects,1100,0,10,2
184,64185,0,185,3,3,1,gain6,no_gain6,L,K,14,40,faces,75,79,objects,Stimuli/Experimental_stims/faces/david-siglin-UuW4psOb388-unsplash.jpg,Stimuli/Experimental_stims/objects/fabian-blank-pElSkGRA2NU-unsplash.jpg,0,1,39,1,chosen,14,40,faces,objects,1000,0,10,2
185,64185,0,186,3,3,0,no_gain1,gain5,D,J,42,46,objects,76,85,objects,Stimuli/Experimental_stims/objects/jess-bailey-nOeVi8DsN8U-unsplash.jpg,Stimuli/Experimental_stims/objects/mockup-graphics-PNsj6RiHAF4-unsplash.jpg,0,1,4,0,chosen,42,46,objects,objects,1000,0,10,2
186,64185,0,187,3,3,0,no_gain1,gain5,D,J,12,21,faces,76,69,faces,Stimuli/Experimental_stims/faces/aiony-haust-jmATI5Q_YgY-unsplash.jpg,Stimuli/Experimental_stims/faces/leilani-angel-K84vnnzxmTQ-unsplash.jpg,1,NaN,,NaN,unchosen,NaN,NaN,NaN,NaN,3000,1,10,2
187,64185,0,188,3,3,1,gain4,no_gain1,B,D,13,42,faces,78,76,objects,Stimuli/Experimental_stims/faces/daniel-rigdon-dXmXKPP2L4E-unsplash.jpg,Stimuli/Experimental_stims/objects/jess-bailey-nOeVi8DsN8U-unsplash.jpg,1,NaN,,NaN,chosen,NaN,NaN,NaN,NaN,1000,0,10,2
188,64185,0,189,3,3,1,gain3,no_gain3,A,C,1,4,outdoor_scenes,83,81,outdoor_scenes,Stimuli/Experimental_stims/outdoor_scenes/ashim-d-silva-S2Q5mdOrrVc-unsplash.jpg,Stimuli/Experimental_stims/outdoor_scenes/jarrett-kow-1ZOyYPOBn7I-unsplash.jpg,0,0,1466,0,chosen,4,1,outdoor_scenes,outdoor_scenes,1600,0,10,2
189,64185,0,190,3,3,0,no_gain2,gain5,I,J,32,46,body_parts,77,85,objects,Stimuli/Experimental_stims/body_parts/towfiqu-barbhuiya-3AsiVDsZnHg-unsplash.jpg,Stimuli/Experimental_stims/objects/mockup-graphics-PNsj6RiHAF4-unsplash.jpg,0,1,94,0,chosen,32,46,body_parts,objects,1500,0,10,2
190,64185,0,191,3,3,0,no_gain1,gain6,D,L,12,24,faces,76,77,body_parts,Stimuli/Experimental_stims/faces/aiony-haust-jmATI5Q_YgY-unsplash.jpg,Stimuli/Experimental_stims/body_parts/clay-banks-LjqARJaJotc-unsplash.jpg,0,0,56,1,unchosen,24,12,body_parts,faces,1700,0,10,2
191,64185,0,192,3,3,1,gain5,no_gain6,J,K,21,31,faces,69,50,body_parts,Stimuli/Experimental_stims/faces/leilani-angel-K84vnnzxmTQ-unsplash.jpg,Stimuli/Experimental_stims/body_parts/sincerely-media-VN6DbKajo5s-unsplash.jpg,0,0,19,0,unchosen,31,21,body_parts,faces,1300,0,10,2
192,64185,0,193,3,3,0,no_gain5,gain4,H,B,9,0,outdoor_scenes,75,82,outdoor_scenes,Stimuli/Experimental_stims/outdoor_scenes/sergey-pesterev-y-b_FOmJXdg-unsplash.jpg,Stimuli/Experimental_stims/outdoor_scenes/aleksandra-boguslawska-MS7KD9Ti7FQ-unsplash.jpg,0,1,41,0,unchosen,9,0,outdoor_scenes,outdoor_scenes,1300,0,10,2
193,64185,0,194,3,3,1,gain1,no_gain5,F,H,25,15,body_parts,36,81,faces,Stimuli/Experimental_stims/body_parts/engin-akyurt-Q2rfH3GW39c-unsplash.jpg,Stimuli/Experimental_stims/faces/erik-lucatero-d2MSDujJl2g-unsplash.jpg,0,0,101,0,chosen,15,25,faces,body_parts,3600,1,10,2
194,64185,0,195,3,3,1,gain6,no_gain4,L,G,24,7,body_parts,77,82,outdoor_scenes,Stimuli/Experimental_stims/body_parts/clay-banks-LjqARJaJotc-unsplash.jpg,Stimuli/Experimental_stims/outdoor_scenes/petr-vysohlid-9fqwGqGLUxc-unsplash.jpg,0,1,193,1,unchosen,24,7,body_parts,outdoor_scenes,2100,0,10,2
195,64185,0,196,3,3,1,gain1,no_gain1,F,D,25,42,body_parts,36,76,objects,Stimuli/Experimental_stims/body_parts/engin-akyurt-Q2rfH3GW39c-unsplash.jpg,Stimuli/Experimental_stims/objects/jess-bailey-nOeVi8DsN8U-unsplash.jpg,0,0,1,0,chosen,42,25,objects,body_parts,1600,0,10,2
196,64185,0,197,3,3,1,gain4,no_gain6,B,K,0,31,outdoor_scenes,82,50,body_parts,Stimuli/Experimental_stims/outdoor_scenes/aleksandra-boguslawska-MS7KD9Ti7FQ-unsplash.jpg,Stimuli/Experimental_stims/body_parts/sincerely-media-VN6DbKajo5s-unsplash.jpg,0,0,220,0,unchosen,31,0,body_parts,outdoor_scenes,1800,0,10,2
197,64185,0,198,3,3,1,gain3,no_gain6,A,K,36,31,objects,70,50,body_parts,Stimuli/Experimental_stims/objects/alexander-andrews-JYGnB9gTCls-unsplash.jpg,Stimuli/Experimental_stims/body_parts/sincerely-media-VN6DbKajo5s-unsplash.jpg,0,0,109,0,unchosen,31,36,body_parts,objects,1600,0,10,2
198,64185,0,199,3,3,1,gain1,no_gain3,F,C,25,4,body_parts,36,81,outdoor_scenes,Stimuli/Experimental_stims/body_parts/engin-akyurt-Q2rfH3GW39c-unsplash.jpg,Stimuli/Experimental_stims/outdoor_scenes/jarrett-kow-1ZOyYPOBn7I-unsplash.jpg,0,0,290,0,chosen,4,25,outdoor_scenes,body_parts,3100,1,10,2
199,64185,0,200,3,3,0,no_gain5,gain4,H,B,15,13,faces,81,78,faces,Stimuli/Experimental_stims/faces/erik-lucatero-d2MSDujJl2g-unsplash.jpg,Stimuli/Experimental_stims/faces/daniel-rigdon-dXmXKPP2L4E-unsplash.jpg,0,0,286,1,chosen,13,15,faces,faces,2500,0,10,2
200,64185,0,201,3,3,0,no_gain1,gain1,D,F,12,20,faces,76,73,faces,Stimuli/Experimental_stims/faces/aiony-haust-jmATI5Q_YgY-unsplash.jpg,Stimuli/Experimental_stims/faces/justin-chen-J7Cf1Gch49E-unsplash.jpg,0,1,78,0,unchosen,12,20,faces,faces,2000,0,10,2
201,64185,0,202,3,3,0,no_gain4,gain4,G,B,45,13,objects,41,78,faces,Stimuli/Experimental_stims/objects/leohoho-rngTKHXumy0-unsplash.jpg,Stimuli/Experimental_stims/faces/daniel-rigdon-dXmXKPP2L4E-unsplash.jpg,0,1,44,0,chosen,45,13,objects,faces,2100,0,10,2
202,64185,0,203,3,3,1,gain3,no_gain5,A,H,1,15,outdoor_scenes,83,81,faces,Stimuli/Experimental_stims/outdoor_scenes/ashim-d-silva-S2Q5mdOrrVc-unsplash.jpg,Stimuli/Experimental_stims/faces/erik-lucatero-d2MSDujJl2g-unsplash.jpg,0,0,82,0,chosen,15,1,faces,outdoor_scenes,1200,0,10,2
203,64185,0,204,3,3,1,gain1,no_gain6,F,K,20,31,faces,73,50,body_parts,Stimuli/Experimental_stims/faces/justin-chen-J7Cf1Gch49E-unsplash.jpg,Stimuli/Experimental_stims/body_parts/sincerely-media-VN6DbKajo5s-unsplash.jpg,0,1,239,1,unchosen,20,31,faces,body_parts,3300,1,10,2
204,64185,0,205,3,3,1,gain3,no_gain2,A,I,1,32,outdoor_scenes,83,77,body_parts,Stimuli/Experimental_stims/outdoor_scenes/ashim-d-silva-S2Q5mdOrrVc-unsplash.jpg,Stimuli/Experimental_stims/body_parts/towfiqu-barbhuiya-3AsiVDsZnHg-unsplash.jpg,0,1,164,1,chosen,1,32,outdoor_scenes,body_parts,2100,0,10,2
205,64185,0,206,3,3,0,no_gain4,gain5,G,J,45,46,objects,41,85,objects,Stimuli/Experimental_stims/objects/leohoho-rngTKHXumy0-unsplash.jpg,Stimuli/Experimental_stims/objects/mockup-graphics-PNsj6RiHAF4-unsplash.jpg,0,0,44,1,chosen,46,45,objects,objects,2100,0,10,2
206,64185,0,207,3,3,1,gain2,no_gain6,E,K,44,40,objects,75,79,objects,Stimuli/Experimental_stims/objects/kuiye-chen-NuOGFo4PudE-unsplash.jpg,Stimuli/Experimental_stims/objects/fabian-blank-pElSkGRA2NU-unsplash.jpg,0,1,102,1,chosen,44,40,objects,objects,2600,0,10,2
207,64185,0,208,3,3,1,gain1,no_gain2,F,I,20,8,faces,73,37,outdoor_scenes,Stimuli/Experimental_stims/faces/justin-chen-J7Cf1Gch49E-unsplash.jpg,Stimuli/Experimental_stims/outdoor_scenes/samsommer-vddccTqwal8-unsplash.jpg,0,0,27,0,unchosen,8,20,outdoor_scenes,faces,2800,0,10,2
208,64185,0,209,3,3,1,gain1,no_gain4,F,G,20,7,faces,73,82,outdoor_scenes,Stimuli/Experimental_stims/faces/justin-chen-J7Cf1Gch49E-unsplash.jpg,Stimuli/Experimental_stims/outdoor_scenes/petr-vysohlid-9fqwGqGLUxc-unsplash.jpg,0,0,0,0,unchosen,7,20,outdoor_scenes,faces,2100,0,10,2
209,64185,0,210,3,3,0,no_gain6,gain1,K,F,40,25,objects,79,36,body_parts,Stimuli/Experimental_stims/objects/fabian-blank-pElSkGRA2NU-unsplash.jpg,Stimuli/Experimental_stims/body_parts/engin-akyurt-Q2rfH3GW39c-unsplash.jpg,0,0,95,1,chosen,25,40,body_parts,objects,1300,0,10,2
210,64185,0,211,3,3,0,no_gain5,gain6,H,L,15,14,faces,81,75,faces,Stimuli/Experimental_stims/faces/erik-lucatero-d2MSDujJl2g-unsplash.jpg,Stimuli/Experimental_stims/faces/david-siglin-UuW4psOb388-unsplash.jpg,0,0,32,1,chosen,14,15,faces,faces,3900,1,10,2
211,64185,0,212,3,3,0,no_gain2,gain6,I,L,8,24,outdoor_scenes,37,77,body_parts,Stimuli/Experimental_stims/outdoor_scenes/samsommer-vddccTqwal8-unsplash.jpg,Stimuli/Experimental_stims/body_parts/clay-banks-LjqARJaJotc-unsplash.jpg,0,1,15,0,unchosen,8,24,outdoor_scenes,body_parts,1600,0,10,2
212,64185,0,213,3,3,1,gain4,no_gain2,B,I,13,32,faces,78,77,body_parts,Stimuli/Experimental_stims/faces/daniel-rigdon-dXmXKPP2L4E-unsplash.jpg,Stimuli/Experimental_stims/body_parts/towfiqu-barbhuiya-3AsiVDsZnHg-unsplash.jpg,0,1,24,1,chosen,13,32,faces,body_parts,1300,0,10,2
213,64185,0,214,3,3,0,no_gain3,gain5,C,J,33,21,body_parts,73,69,faces,Stimuli/Experimental_stims/body_parts/tucker-good-36skLT5jZcc-unsplash.jpg,Stimuli/Experimental_stims/faces/leilani-angel-K84vnnzxmTQ-unsplash.jpg,0,0,149,1,unchosen,21,33,faces,body_parts,1700,0,10,2
214,64185,0,215,3,3,1,gain2,no_gain6,E,K,29,31,body_parts,76,50,body_parts,Stimuli/Experimental_stims/body_parts/manuel-schinner-ZwjFuJ7ebpk-unsplash.jpg,Stimuli/Experimental_stims/body_parts/sincerely-media-VN6DbKajo5s-unsplash.jpg,0,0,208,0,unchosen,31,29,body_parts,body_parts,1600,0,10,2
215,64185,0,216,3,3,0,no_gain4,gain6,G,L,45,14,objects,41,75,faces,Stimuli/Experimental_stims/objects/leohoho-rngTKHXumy0-unsplash.jpg,Stimuli/Experimental_stims/faces/david-siglin-UuW4psOb388-unsplash.jpg,0,0,97,1,chosen,14,45,faces,objects,3600,1,10,2
216,64185,0,217,3,3,1,gain5,no_gain5,J,H,21,9,faces,69,75,outdoor_scenes,Stimuli/Experimental_stims/faces/leilani-angel-K84vnnzxmTQ-unsplash.jpg,Stimuli/Experimental_stims/outdoor_scenes/sergey-pesterev-y-b_FOmJXdg-unsplash.jpg,0,0,243,0,unchosen,9,21,outdoor_scenes,faces,2700,0,10,2
217,64185,0,218,3,3,1,gain2,no_gain2,E,I,44,32,objects,75,77,body_parts,Stimuli/Experimental_stims/objects/kuiye-chen-NuOGFo4PudE-unsplash.jpg,Stimuli/Experimental_stims/body_parts/towfiqu-barbhuiya-3AsiVDsZnHg-unsplash.jpg,0,0,21,0,chosen,32,44,body_parts,objects,2800,0,10,2
218,64185,0,219,3,3,0,no_gain6,gain6,K,L,31,24,body_parts,50,77,body_parts,Stimuli/Experimental_stims/body_parts/sincerely-media-VN6DbKajo5s-unsplash.jpg,Stimuli/Experimental_stims/body_parts/clay-banks-LjqARJaJotc-unsplash.jpg,0,0,7,1,unchosen,24,31,body_parts,body_parts,2800,0,10,2
219,64185,0,220,3,3,1,gain1,no_gain3,F,C,20,33,faces,73,73,body_parts,Stimuli/Experimental_stims/faces/justin-chen-J7Cf1Gch49E-unsplash.jpg,Stimuli/Experimental_stims/body_parts/tucker-good-36skLT5jZcc-unsplash.jpg,0,0,182,0,unchosen,33,20,body_parts,faces,1100,0,10,2
220,64185,0,221,4,4,0,no_gain6,gain2,K,E,40,44,objects,79,75,objects,Stimuli/Experimental_stims/objects/fabian-blank-pElSkGRA2NU-unsplash.jpg,Stimuli/Experimental_stims/objects/kuiye-chen-NuOGFo4PudE-unsplash.jpg,1,NaN,,NaN,chosen,NaN,NaN,NaN,NaN,4200,1,9,2
221,64185,0,222,4,4,1,gain4,no_gain2,B,I,0,8,outdoor_scenes,82,37,outdoor_scenes,Stimuli/Experimental_stims/outdoor_scenes/aleksandra-boguslawska-MS7KD9Ti7FQ-unsplash.jpg,Stimuli/Experimental_stims/outdoor_scenes/samsommer-vddccTqwal8-unsplash.jpg,0,0,36,0,unchosen,8,0,outdoor_scenes,outdoor_scenes,2400,0,9,2
222,64185,0,223,4,4,1,gain2,no_gain1,E,D,44,42,objects,75,76,objects,Stimuli/Experimental_stims/objects/kuiye-chen-NuOGFo4PudE-unsplash.jpg,Stimuli/Experimental_stims/objects/jess-bailey-nOeVi8DsN8U-unsplash.jpg,0,1,26,1,chosen,44,42,objects,objects,1200,0,9,2
223,64185,0,224,4,4,0,no_gain4,gain4,G,B,45,13,objects,41,78,faces,Stimuli/Experimental_stims/objects/leohoho-rngTKHXumy0-unsplash.jpg,Stimuli/Experimental_stims/faces/daniel-rigdon-dXmXKPP2L4E-unsplash.jpg,0,1,44,0,chosen,45,13,objects,faces,1400,0,9,2
224,64185,0,225,4,4,0,no_gain4,gain6,G,L,7,24,outdoor_scenes,82,77,body_parts,Stimuli/Experimental_stims/outdoor_scenes/petr-vysohlid-9fqwGqGLUxc-unsplash.jpg,Stimuli/Experimental_stims/body_parts/clay-banks-LjqARJaJotc-unsplash.jpg,0,0,204,1,unchosen,24,7,body_parts,outdoor_scenes,1800,0,9,2
225,64185,0,226,4,4,0,no_gain4,gain5,G,J,7,21,outdoor_scenes,82,69,faces,Stimuli/Experimental_stims/outdoor_scenes/petr-vysohlid-9fqwGqGLUxc-unsplash.jpg,Stimuli/Experimental_stims/faces/leilani-angel-K84vnnzxmTQ-unsplash.jpg,0,0,1,1,unchosen,21,7,faces,outdoor_scenes,2200,0,9,2
226,64185,0,227,4,4,1,gain4,no_gain1,B,D,13,42,faces,78,76,objects,Stimuli/Experimental_stims/faces/daniel-rigdon-dXmXKPP2L4E-unsplash.jpg,Stimuli/Experimental_stims/objects/jess-bailey-nOeVi8DsN8U-unsplash.jpg,0,0,114,0,chosen,42,13,objects,faces,4000,1,9,2
227,64185,0,228,4,4,1,gain3,no_gain2,A,I,1,32,outdoor_scenes,83,77,body_parts,Stimuli/Experimental_stims/outdoor_scenes/ashim-d-silva-S2Q5mdOrrVc-unsplash.jpg,Stimuli/Experimental_stims/body_parts/towfiqu-barbhuiya-3AsiVDsZnHg-unsplash.jpg,0,0,131,0,chosen,32,1,body_parts,outdoor_scenes,1900,0,9,2
228,64185,0,229,4,4,0,no_gain5,gain4,H,B,15,13,faces,81,78,faces,Stimuli/Experimental_stims/faces/erik-lucatero-d2MSDujJl2g-unsplash.jpg,Stimuli/Experimental_stims/faces/daniel-rigdon-dXmXKPP2L4E-unsplash.jpg,0,1,62,0,chosen,15,13,faces,faces,1800,0,9,2
229,64185,0,230,4,4,0,no_gain4,gain3,G,A,7,36,outdoor_scenes,82,70,objects,Stimuli/Experimental_stims/outdoor_scenes/petr-vysohlid-9fqwGqGLUxc-unsplash.jpg,Stimuli/Experimental_stims/objects/alexander-andrews-JYGnB9gTCls-unsplash.jpg,0,0,135,1,unchosen,36,7,objects,outdoor_scenes,1200,0,9,2
230,64185,0,231,4,4,0,no_gain3,gain5,C,J,33,21,body_parts,73,69,faces,Stimuli/Experimental_stims/body_parts/tucker-good-36skLT5jZcc-unsplash.jpg,Stimuli/Experimental_stims/faces/leilani-angel-K84vnnzxmTQ-unsplash.jpg,0,0,42,1,unchosen,21,33,faces,body_parts,1700,0,9,2
231,64185,0,232,4,4,0,no_gain2,gain5,I,J,8,21,outdoor_scenes,37,69,faces,Stimuli/Experimental_stims/outdoor_scenes/samsommer-vddccTqwal8-unsplash.jpg,Stimuli/Experimental_stims/faces/leilani-angel-K84vnnzxmTQ-unsplash.jpg,0,1,40,0,unchosen,8,21,outdoor_scenes,faces,3500,1,9,2
232,64185,0,233,4,4,1,gain3,no_gain3,A,C,1,4,outdoor_scenes,83,81,outdoor_scenes,Stimuli/Experimental_stims/outdoor_scenes/ashim-d-silva-S2Q5mdOrrVc-unsplash.jpg,Stimuli/Experimental_stims/outdoor_scenes/jarrett-kow-1ZOyYPOBn7I-unsplash.jpg,0,1,30,1,chosen,1,4,outdoor_scenes,outdoor_scenes,1700,0,9,2
233,64185,0,234,4,4,1,gain2,no_gain2,E,I,29,8,body_parts,76,37,outdoor_scenes,Stimuli/Experimental_stims/body_parts/manuel-schinner-ZwjFuJ7ebpk-unsplash.jpg,Stimuli/Experimental_stims/outdoor_scenes/samsommer-vddccTqwal8-unsplash.jpg,0,0,252,0,unchosen,8,29,outdoor_scenes,body_parts,2000,0,9,2
234,64185,0,235,4,4,0,no_gain6,gain5,K,J,31,21,body_parts,50,69,faces,Stimuli/Experimental_stims/body_parts/sincerely-media-VN6DbKajo5s-unsplash.jpg,Stimuli/Experimental_stims/faces/leilani-angel-K84vnnzxmTQ-unsplash.jpg,0,1,4,0,unchosen,31,21,body_parts,faces,1300,0,9,2
235,64185,0,236,4,4,1,gain6,no_gain1,L,D,14,42,faces,75,76,objects,Stimuli/Experimental_stims/faces/david-siglin-UuW4psOb388-unsplash.jpg,Stimuli/Experimental_stims/objects/jess-bailey-nOeVi8DsN8U-unsplash.jpg,0,1,216,1,chosen,14,42,faces,objects,1400,0,9,2
236,64185,0,237,4,4,1,gain1,no_gain4,F,G,20,7,faces,73,82,outdoor_scenes,Stimuli/Experimental_stims/faces/justin-chen-J7Cf1Gch49E-unsplash.jpg,Stimuli/Experimental_stims/outdoor_scenes/petr-vysohlid-9fqwGqGLUxc-unsplash.jpg,0,1,2,1,unchosen,20,7,faces,outdoor_scenes,3600,1,9,2
237,64185,0,238,4,4,0,no_gain3,gain4,C,B,4,13,outdoor_scenes,81,78,faces,Stimuli/Experimental_stims/outdoor_scenes/jarrett-kow-1ZOyYPOBn7I-unsplash.jpg,Stimuli/Experimental_stims/faces/daniel-rigdon-dXmXKPP2L4E-unsplash.jpg,0,0,137,1,chosen,13,4,faces,outdoor_scenes,2700,0,9,2
238,64185,0,239,4,4,0,no_gain5,gain1,H,F,9,20,outdoor_scenes,75,73,faces,Stimuli/Experimental_stims/outdoor_scenes/sergey-pesterev-y-b_FOmJXdg-unsplash.jpg,Stimuli/Experimental_stims/faces/justin-chen-J7Cf1Gch49E-unsplash.jpg,0,0,189,1,unchosen,20,9,faces,outdoor_scenes,1900,0,9,2
239,64185,0,240,4,4,0,no_gain1,gain3,D,A,12,36,faces,76,70,objects,Stimuli/Experimental_stims/faces/aiony-haust-jmATI5Q_YgY-unsplash.jpg,Stimuli/Experimental_stims/objects/alexander-andrews-JYGnB9gTCls-unsplash.jpg,0,1,10,0,unchosen,12,36,faces,objects,1200,0,9,2
240,64185,0,241,4,4,0,no_gain2,gain1,I,F,8,20,outdoor_scenes,37,73,faces,Stimuli/Experimental_stims/outdoor_scenes/samsommer-vddccTqwal8-unsplash.jpg,Stimuli/Experimental_stims/faces/justin-chen-J7Cf1Gch49E-unsplash.jpg,0,1,20,0,unchosen,8,20,outdoor_scenes,faces,1000,0,9,2
241,64185,0,242,4,4,1,gain3,no_gain4,A,G,1,45,outdoor_scenes,83,41,objects,Stimuli/Experimental_stims/outdoor_scenes/ashim-d-silva-S2Q5mdOrrVc-unsplash.jpg,Stimuli/Experimental_stims/objects/leohoho-rngTKHXumy0-unsplash.jpg,0,0,214,0,chosen,45,1,objects,outdoor_scenes,3700,1,9,2
242,64185,0,243,4,4,0,no_gain4,gain1,G,F,45,25,objects,41,36,body_parts,Stimuli/Experimental_stims/objects/leohoho-rngTKHXumy0-unsplash.jpg,Stimuli/Experimental_stims/body_parts/engin-akyurt-Q2rfH3GW39c-unsplash.jpg,0,0,207,1,chosen,25,45,body_parts,objects,1200,0,9,2
243,64185,0,244,4,4,1,gain2,no_gain3,E,C,29,33,body_parts,76,73,body_parts,Stimuli/Experimental_stims/body_parts/manuel-schinner-ZwjFuJ7ebpk-unsplash.jpg,Stimuli/Experimental_stims/body_parts/tucker-good-36skLT5jZcc-unsplash.jpg,0,1,30,1,unchosen,29,33,body_parts,body_parts,2600,0,9,2
244,64185,0,245,4,4,1,gain4,no_gain4,B,G,0,7,outdoor_scenes,82,82,outdoor_scenes,Stimuli/Experimental_stims/outdoor_scenes/aleksandra-boguslawska-MS7KD9Ti7FQ-unsplash.jpg,Stimuli/Experimental_stims/outdoor_scenes/petr-vysohlid-9fqwGqGLUxc-unsplash.jpg,0,0,260,0,unchosen,7,0,outdoor_scenes,outdoor_scenes,2400,0,9,2
245,64185,0,246,4,4,1,gain2,no_gain6,E,K,29,31,body_parts,76,50,body_parts,Stimuli/Experimental_stims/body_parts/manuel-schinner-ZwjFuJ7ebpk-unsplash.jpg,Stimuli/Experimental_stims/body_parts/sincerely-media-VN6DbKajo5s-unsplash.jpg,0,0,184,0,unchosen,31,29,body_parts,body_parts,1200,0,9,2
246,64185,0,247,4,4,0,no_gain6,gain6,K,L,40,14,objects,79,75,faces,Stimuli/Experimental_stims/objects/fabian-blank-pElSkGRA2NU-unsplash.jpg,Stimuli/Experimental_stims/faces/david-siglin-UuW4psOb388-unsplash.jpg,0,0,31,1,chosen,14,40,faces,objects,2500,0,9,2
247,64185,0,248,4,4,1,gain2,no_gain5,E,H,29,9,body_parts,76,75,outdoor_scenes,Stimuli/Experimental_stims/body_parts/manuel-schinner-ZwjFuJ7ebpk-unsplash.jpg,Stimuli/Experimental_stims/outdoor_scenes/sergey-pesterev-y-b_FOmJXdg-unsplash.jpg,0,0,134,0,unchosen,9,29,outdoor_scenes,body_parts,2200,0,9,2
248,64185,0,249,4,4,0,no_gain1,gain3,D,A,42,1,objects,76,83,outdoor_scenes,Stimuli/Experimental_stims/objects/jess-bailey-nOeVi8DsN8U-unsplash.jpg,Stimuli/Experimental_stims/outdoor_scenes/ashim-d-silva-S2Q5mdOrrVc-unsplash.jpg,0,0,118,1,chosen,1,42,outdoor_scenes,objects,1100,0,9,2
249,64185,0,250,4,4,0,no_gain6,gain1,K,F,40,25,objects,79,36,body_parts,Stimuli/Experimental_stims/objects/fabian-blank-pElSkGRA2NU-unsplash.jpg,Stimuli/Experimental_stims/body_parts/engin-akyurt-Q2rfH3GW39c-unsplash.jpg,0,0,143,1,chosen,25,40,body_parts,objects,1700,0,9,2
250,64185,0,251,4,4,0,no_gain1,gain2,D,E,12,29,faces,76,76,body_parts,Stimuli/Experimental_stims/faces/aiony-haust-jmATI5Q_YgY-unsplash.jpg,Stimuli/Experimental_stims/body_parts/manuel-schinner-ZwjFuJ7ebpk-unsplash.jpg,0,0,66,1,unchosen,29,12,body_parts,faces,1100,0,9,2
251,64185,0,252,4,4,1,gain6,no_gain3,L,C,14,4,faces,75,81,outdoor_scenes,Stimuli/Experimental_stims/faces/david-siglin-UuW4psOb388-unsplash.jpg,Stimuli/Experimental_stims/outdoor_scenes/jarrett-kow-1ZOyYPOBn7I-unsplash.jpg,0,1,115,1,chosen,14,4,faces,outdoor_scenes,1900,0,9,2
252,64185,0,253,4,4,1,gain4,no_gain1,B,D,0,12,outdoor_scenes,82,76,faces,Stimuli/Experimental_stims/outdoor_scenes/aleksandra-boguslawska-MS7KD9Ti7FQ-unsplash.jpg,Stimuli/Experimental_stims/faces/aiony-haust-jmATI5Q_YgY-unsplash.jpg,0,0,151,0,unchosen,12,0,faces,outdoor_scenes,1100,0,9,2
253,64185,0,254,4,4,1,gain4,no_gain5,B,H,0,9,outdoor_scenes,82,75,outdoor_scenes,Stimuli/Experimental_stims/outdoor_scenes/aleksandra-boguslawska-MS7KD9Ti7FQ-unsplash.jpg,Stimuli/Experimental_stims/outdoor_scenes/sergey-pesterev-y-b_FOmJXdg-unsplash.jpg,0,0,33,0,unchosen,9,0,outdoor_scenes,outdoor_scenes,1000,0,9,2
254,64185,0,255,4,4,1,gain6,no_gain6,L,K,24,31,body_parts,77,50,body_parts,Stimuli/Experimental_stims/body_parts/clay-banks-LjqARJaJotc-unsplash.jpg,Stimuli/Experimental_stims/body_parts/sincerely-media-VN6DbKajo5s-unsplash.jpg,0,1,289,1,unchosen,24,31,body_parts,body_parts,1600,0,9,2
255,64185,0,256,4,4,0,no_gain4,gain5,G,J,45,46,objects,41,85,objects,Stimuli/Experimental_stims/objects/leohoho-rngTKHXumy0-unsplash.jpg,Stimuli/Experimental_stims/objects/mockup-graphics-PNsj6RiHAF4-unsplash.jpg,0,0,30,1,chosen,46,45,objects,objects,2700,0,9,2
256,64185,0,257,4,4,1,gain4,no_gain6,B,K,0,31,outdoor_scenes,82,50,body_parts,Stimuli/Experimental_stims/outdoor_scenes/aleksandra-boguslawska-MS7KD9Ti7FQ-unsplash.jpg,Stimuli/Experimental_stims/body_parts/sincerely-media-VN6DbKajo5s-unsplash.jpg,0,1,0,1,unchosen,0,31,outdoor_scenes,body_parts,3500,1,9,2
257,64185,0,258,4,4,0,no_gain2,gain6,I,L,8,24,outdoor_scenes,37,77,body_parts,Stimuli/Experimental_stims/outdoor_scenes/samsommer-vddccTqwal8-unsplash.jpg,Stimuli/Experimental_stims/body_parts/clay-banks-LjqARJaJotc-unsplash.jpg,0,0,320,1,unchosen,24,8,body_parts,outdoor_scenes,1000,0,9,2
258,64185,0,259,4,4,0,no_gain2,gain3,I,A,8,36,outdoor_scenes,37,70,objects,Stimuli/Experimental_stims/outdoor_scenes/samsommer-vddccTqwal8-unsplash.jpg,Stimuli/Experimental_stims/objects/alexander-andrews-JYGnB9gTCls-unsplash.jpg,0,1,216,0,unchosen,8,36,outdoor_scenes,objects,1700,0,9,2
259,64185,0,260,4,4,1,gain2,no_gain5,E,H,44,15,objects,75,81,faces,Stimuli/Experimental_stims/objects/kuiye-chen-NuOGFo4PudE-unsplash.jpg,Stimuli/Experimental_stims/faces/erik-lucatero-d2MSDujJl2g-unsplash.jpg,0,0,204,0,chosen,15,44,faces,objects,1500,0,9,2
260,64185,0,261,4,4,1,gain3,no_gain5,A,H,1,15,outdoor_scenes,83,81,faces,Stimuli/Experimental_stims/outdoor_scenes/ashim-d-silva-S2Q5mdOrrVc-unsplash.jpg,Stimuli/Experimental_stims/faces/erik-lucatero-d2MSDujJl2g-unsplash.jpg,0,0,135,0,chosen,15,1,faces,outdoor_scenes,1400,0,9,2
261,64185,0,262,4,4,1,gain5,no_gain3,J,C,46,4,objects,85,81,outdoor_scenes,Stimuli/Experimental_stims/objects/mockup-graphics-PNsj6RiHAF4-unsplash.jpg,Stimuli/Experimental_stims/outdoor_scenes/jarrett-kow-1ZOyYPOBn7I-unsplash.jpg,0,1,19,1,chosen,46,4,objects,outdoor_scenes,1300,0,9,2
262,64185,0,263,4,4,1,gain5,no_gain5,J,H,21,9,faces,69,75,outdoor_scenes,Stimuli/Experimental_stims/faces/leilani-angel-K84vnnzxmTQ-unsplash.jpg,Stimuli/Experimental_stims/outdoor_scenes/sergey-pesterev-y-b_FOmJXdg-unsplash.jpg,0,0,244,0,unchosen,9,21,outdoor_scenes,faces,4500,1,9,2
263,64185,0,264,4,4,0,no_gain5,gain6,H,L,9,24,outdoor_scenes,75,77,body_parts,Stimuli/Experimental_stims/outdoor_scenes/sergey-pesterev-y-b_FOmJXdg-unsplash.jpg,Stimuli/Experimental_stims/body_parts/clay-banks-LjqARJaJotc-unsplash.jpg,0,1,73,0,unchosen,9,24,outdoor_scenes,body_parts,1900,0,9,2
264,64185,0,265,4,4,0,no_gain6,gain1,K,F,31,20,body_parts,50,73,faces,Stimuli/Experimental_stims/body_parts/sincerely-media-VN6DbKajo5s-unsplash.jpg,Stimuli/Experimental_stims/faces/justin-chen-J7Cf1Gch49E-unsplash.jpg,0,0,288,1,unchosen,20,31,faces,body_parts,1900,0,9,2
265,64185,0,266,4,4,1,gain5,no_gain5,J,H,46,15,objects,85,81,faces,Stimuli/Experimental_stims/objects/mockup-graphics-PNsj6RiHAF4-unsplash.jpg,Stimuli/Experimental_stims/faces/erik-lucatero-d2MSDujJl2g-unsplash.jpg,0,1,96,1,chosen,46,15,objects,faces,1600,0,9,2
266,64185,0,267,4,4,0,no_gain2,gain4,I,B,32,13,body_parts,77,78,faces,Stimuli/Experimental_stims/body_parts/towfiqu-barbhuiya-3AsiVDsZnHg-unsplash.jpg,Stimuli/Experimental_stims/faces/daniel-rigdon-dXmXKPP2L4E-unsplash.jpg,0,0,304,1,chosen,13,32,faces,body_parts,2300,0,9,2
267,64185,0,268,4,4,1,gain6,no_gain2,L,I,14,32,faces,75,77,body_parts,Stimuli/Experimental_stims/faces/david-siglin-UuW4psOb388-unsplash.jpg,Stimuli/Experimental_stims/body_parts/towfiqu-barbhuiya-3AsiVDsZnHg-unsplash.jpg,0,1,249,1,chosen,14,32,faces,body_parts,3700,1,9,2
268,64185,0,269,4,4,0,no_gain3,gain3,C,A,33,36,body_parts,73,70,objects,Stimuli/Experimental_stims/body_parts/tucker-good-36skLT5jZcc-unsplash.jpg,Stimuli/Experimental_stims/objects/alexander-andrews-JYGnB9gTCls-unsplash.jpg,0,1,52,0,unchosen,33,36,body_parts,objects,1200,0,9,2
269,64185,0,270,4,4,1,gain4,no_gain3,B,C,0,33,outdoor_scenes,82,73,body_parts,Stimuli/Experimental_stims/outdoor_scenes/aleksandra-boguslawska-MS7KD9Ti7FQ-unsplash.jpg,Stimuli/Experimental_stims/body_parts/tucker-good-36skLT5jZcc-unsplash.jpg,0,1,40,1,unchosen,0,33,outdoor_scenes,body_parts,1900,0,9,2
270,64185,0,271,4,4,0,no_gain3,gain1,C,F,33,20,body_parts,73,73,faces,Stimuli/Experimental_stims/body_parts/tucker-good-36skLT5jZcc-unsplash.jpg,Stimuli/Experimental_stims/faces/justin-chen-J7Cf1Gch49E-unsplash.jpg,0,0,91,1,unchosen,20,33,faces,body_parts,2000,0,9,2
271,64185,0,272,4,4,1,gain1,no_gain3,F,C,25,4,body_parts,36,81,outdoor_scenes,Stimuli/Experimental_stims/body_parts/engin-akyurt-Q2rfH3GW39c-unsplash.jpg,Stimuli/Experimental_stims/outdoor_scenes/jarrett-kow-1ZOyYPOBn7I-unsplash.jpg,0,1,185,1,chosen,25,4,body_parts,outdoor_scenes,2700,0,9,2
272,64185,0,273,4,4,1,gain6,no_gain5,L,H,14,15,faces,75,81,faces,Stimuli/Experimental_stims/faces/david-siglin-UuW4psOb388-unsplash.jpg,Stimuli/Experimental_stims/faces/erik-lucatero-d2MSDujJl2g-unsplash.jpg,0,1,332,1,chosen,14,15,faces,faces,1100,0,9,2
273,64185,0,274,4,4,0,no_gain2,gain1,I,F,32,25,body_parts,77,36,body_parts,Stimuli/Experimental_stims/body_parts/towfiqu-barbhuiya-3AsiVDsZnHg-unsplash.jpg,Stimuli/Experimental_stims/body_parts/engin-akyurt-Q2rfH3GW39c-unsplash.jpg,0,0,11,1,chosen,25,32,body_parts,body_parts,4200,1,9,2
274,64185,0,275,4,4,1,gain3,no_gain6,A,K,36,31,objects,70,50,body_parts,Stimuli/Experimental_stims/objects/alexander-andrews-JYGnB9gTCls-unsplash.jpg,Stimuli/Experimental_stims/body_parts/sincerely-media-VN6DbKajo5s-unsplash.jpg,0,1,120,1,unchosen,36,31,objects,body_parts,1300,0,9,2
275,64185,0,276,4,4,1,gain1,no_gain5,F,H,25,15,body_parts,36,81,faces,Stimuli/Experimental_stims/body_parts/engin-akyurt-Q2rfH3GW39c-unsplash.jpg,Stimuli/Experimental_stims/faces/erik-lucatero-d2MSDujJl2g-unsplash.jpg,0,0,34,0,chosen,15,25,faces,body_parts,2000,0,9,2
276,64185,0,277,4,4,0,no_gain3,gain2,C,E,4,44,outdoor_scenes,81,75,objects,Stimuli/Experimental_stims/outdoor_scenes/jarrett-kow-1ZOyYPOBn7I-unsplash.jpg,Stimuli/Experimental_stims/objects/kuiye-chen-NuOGFo4PudE-unsplash.jpg,0,0,181,1,chosen,44,4,objects,outdoor_scenes,1100,0,9,2
277,64185,0,278,4,4,1,gain5,no_gain1,J,D,21,12,faces,69,76,faces,Stimuli/Experimental_stims/faces/leilani-angel-K84vnnzxmTQ-unsplash.jpg,Stimuli/Experimental_stims/faces/aiony-haust-jmATI5Q_YgY-unsplash.jpg,0,0,121,0,unchosen,12,21,faces,faces,2300,0,9,2
278,64185,0,279,4,4,1,gain2,no_gain2,E,I,44,32,objects,75,77,body_parts,Stimuli/Experimental_stims/objects/kuiye-chen-NuOGFo4PudE-unsplash.jpg,Stimuli/Experimental_stims/body_parts/towfiqu-barbhuiya-3AsiVDsZnHg-unsplash.jpg,0,1,119,1,chosen,44,32,objects,body_parts,2900,0,9,2
279,64185,0,280,4,4,0,no_gain2,gain5,I,J,32,46,body_parts,77,85,objects,Stimuli/Experimental_stims/body_parts/towfiqu-barbhuiya-3AsiVDsZnHg-unsplash.jpg,Stimuli/Experimental_stims/objects/mockup-graphics-PNsj6RiHAF4-unsplash.jpg,0,1,246,0,chosen,32,46,body_parts,objects,1200,0,9,2
280,64185,0,281,4,4,1,gain5,no_gain6,J,K,46,40,objects,85,79,objects,Stimuli/Experimental_stims/objects/mockup-graphics-PNsj6RiHAF4-unsplash.jpg,Stimuli/Experimental_stims/objects/fabian-blank-pElSkGRA2NU-unsplash.jpg,0,1,63,1,chosen,46,40,objects,objects,1500,0,9,2
281,64185,0,282,4,4,1,gain6,no_gain3,L,C,24,33,body_parts,77,73,body_parts,Stimuli/Experimental_stims/body_parts/clay-banks-LjqARJaJotc-unsplash.jpg,Stimuli/Experimental_stims/body_parts/tucker-good-36skLT5jZcc-unsplash.jpg,0,1,226,1,unchosen,24,33,body_parts,body_parts,1100,0,9,2
282,64185,0,283,4,4,0,no_gain6,gain4,K,B,40,13,objects,79,78,faces,Stimuli/Experimental_stims/objects/fabian-blank-pElSkGRA2NU-unsplash.jpg,Stimuli/Experimental_stims/faces/daniel-rigdon-dXmXKPP2L4E-unsplash.jpg,0,0,166,1,chosen,13,40,faces,objects,1200,0,9,2
283,64185,0,284,4,4,0,no_gain4,gain2,G,E,45,44,objects,41,75,objects,Stimuli/Experimental_stims/objects/leohoho-rngTKHXumy0-unsplash.jpg,Stimuli/Experimental_stims/objects/kuiye-chen-NuOGFo4PudE-unsplash.jpg,0,1,119,0,chosen,45,44,objects,objects,1400,0,9,2
284,64185,0,285,4,4,1,gain2,no_gain4,E,G,29,7,body_parts,76,82,outdoor_scenes,Stimuli/Experimental_stims/body_parts/manuel-schinner-ZwjFuJ7ebpk-unsplash.jpg,Stimuli/Experimental_stims/outdoor_scenes/petr-vysohlid-9fqwGqGLUxc-unsplash.jpg,0,0,38,0,unchosen,7,29,outdoor_scenes,body_parts,1100,0,9,2
285,64185,0,286,4,4,1,gain3,no_gain6,A,K,1,40,outdoor_scenes,83,79,objects,Stimuli/Experimental_stims/outdoor_scenes/ashim-d-silva-S2Q5mdOrrVc-unsplash.jpg,Stimuli/Experimental_stims/objects/fabian-blank-pElSkGRA2NU-unsplash.jpg,0,0,331,0,chosen,40,1,objects,outdoor_scenes,2100,0,9,2
286,64185,0,287,4,4,0,no_gain1,gain1,D,F,12,20,faces,76,73,faces,Stimuli/Experimental_stims/faces/aiony-haust-jmATI5Q_YgY-unsplash.jpg,Stimuli/Experimental_stims/faces/justin-chen-J7Cf1Gch49E-unsplash.jpg,0,1,199,0,unchosen,12,20,faces,faces,3300,1,9,2
287,64185,0,288,4,4,0,no_gain1,gain6,D,L,12,24,faces,76,77,body_parts,Stimuli/Experimental_stims/faces/aiony-haust-jmATI5Q_YgY-unsplash.jpg,Stimuli/Experimental_stims/body_parts/clay-banks-LjqARJaJotc-unsplash.jpg,0,1,6,0,unchosen,12,24,faces,body_parts,1900,0,9,2
288,64185,0,289,4,4,0,no_gain1,gain5,D,J,42,46,objects,76,85,objects,Stimuli/Experimental_stims/objects/jess-bailey-nOeVi8DsN8U-unsplash.jpg,Stimuli/Experimental_stims/objects/mockup-graphics-PNsj6RiHAF4-unsplash.jpg,0,1,303,0,chosen,42,46,objects,objects,2000,0,9,2
289,64185,0,290,4,4,0,no_gain4,gain6,G,L,45,14,objects,41,75,faces,Stimuli/Experimental_stims/objects/leohoho-rngTKHXumy0-unsplash.jpg,Stimuli/Experimental_stims/faces/david-siglin-UuW4psOb388-unsplash.jpg,0,1,210,0,chosen,45,14,objects,faces,1100,0,9,2
290,64185,0,291,4,4,1,gain3,no_gain5,A,H,36,9,objects,70,75,outdoor_scenes,Stimuli/Experimental_stims/objects/alexander-andrews-JYGnB9gTCls-unsplash.jpg,Stimuli/Experimental_stims/outdoor_scenes/sergey-pesterev-y-b_FOmJXdg-unsplash.jpg,0,0,262,0,unchosen,9,36,outdoor_scenes,objects,1800,0,9,2
291,64185,0,292,4,4,0,no_gain1,gain1,D,F,42,25,objects,76,36,body_parts,Stimuli/Experimental_stims/objects/jess-bailey-nOeVi8DsN8U-unsplash.jpg,Stimuli/Experimental_stims/body_parts/engin-akyurt-Q2rfH3GW39c-unsplash.jpg,0,0,65,1,chosen,25,42,body_parts,objects,3200,1,9,2