,PID,practice,trial,block,run,gain_left,left_item_id,right_item_id,left_pair_id,right_pair_id,left_stimulus,right_stimulus,left_category,left_rating,right_rating,right_category,left_path,right_path,no_response,left_chosen,rt,higher_outcome_chosen,choice_type,chosen_stimulus,unchosen_stimulus,chosen_category,unchosen_category,iti,long_iti,simulation,version
0,39781,1,1,0,0,0,,,,,,,,,,,Stimuli/Practice_stims/Final_decisions/debby-hudson-FmCSSSGge-0-unsplash.jpg,Stimuli/Practice_stims/Final_decisions/yassine-khalfalli-adsQ9d_Cx0c-unsplash.jpg,0,1,893,0,,,,,,3000,0,7,2
1,39781,1,2,0,0,0,,,,,,,,,,,Stimuli/Practice_stims/Final_decisions/florian-wehde-iVW7mZPwd4g-unsplash.jpg,Stimuli/Practice_stims/Final_decisions/patrick-perkins-3wylDrjxH-E-unsplash.jpg,0,0,1105,1,,,,,,1500,0,7,2
2,39781,1,3,0,0,0,,,,,,,,,,,Stimuli/Practice_stims/Final_decisions/debby-hudson-FmCSSSGge-0-unsplash.jpg,Stimuli/Practice_stims/Final_decisions/florian-wehde-iVW7mZPwd4g-unsplash.jpg,0,1,1262,0,,,,,,2000,0,7,2
3,39781,1,4,0,0,0,,,,,,,,,,,Stimuli/Practice_stims/Final_decisions/yassine-khalfalli-adsQ9d_Cx0c-unsplash.jpg,Stimuli/Practice_stims/Final_decisions/debby-hudson-FmCSSSGge-0-unsplash.jpg,0,0,1073,1,,,,,,1000,0,7,2
4,39781,0,5,1,1,1,gain2,no_gain3,J,F,42,32,objects,40,36,body_parts,Stimuli/Experimental_stims/objects/jess-bailey-nOeVi8DsN8U-unsplash.jpg,Stimuli/Experimental_stims/body_parts/towfiqu-barbhuiya-3AsiVDsZnHg-unsplash.jpg,0,0,1229,0,unchosen,32,42,body_parts,objects,4100,1,7,2
5,39781,0,6,1,1,1,gain3,no_gain5,D,L,17,16,faces,78,66,faces,Stimuli/Experimental_stims/faces/good-faces-xmSWVeGEnJw-unsplash.jpg,Stimuli/Experimental_stims/faces/freddy-kearney-o-ioeoATbIM-unsplash.jpg,0,1,950,1,chosen,17,16,faces,faces,1200,0,7,2
6,39781,0,7,1,1,1,gain1,no_gain3,E,F,36,21,objects,73,73,faces,Stimuli/Experimental_stims/objects/alexander-andrews-JYGnB9gTCls-unsplash.jpg,Stimuli/Experimental_stims/faces/leilani-angel-K84vnnzxmTQ-unsplash.jpg,0,1,849,1,chosen,36,21,objects,faces,2600,0,7,2
7,39781,0,8,1,1,1,gain2,no_gain4,J,I,13,7,faces,66,89,outdoor_scenes,Stimuli/Experimental_stims/faces/daniel-rigdon-dXmXKPP2L4E-unsplash.jpg,Stimuli/Experimental_stims/outdoor_scenes/petr-vysohlid-9fqwGqGLUxc-unsplash.jpg,0,1,793,1,chosen,13,7,faces,outdoor_scenes,2000,0,7,2
8,39781,0,9,1,1,0,no_gain5,gain1,L,E,29,33,body_parts,63,64,body_parts,Stimuli/Experimental_stims/body_parts/manuel-schinner-ZwjFuJ7ebpk-unsplash.jpg,Stimuli/Experimental_stims/body_parts/tucker-good-36skLT5jZcc-unsplash.jpg,0,1,1050,0,unchosen,29,33,body_parts,body_parts,1200,0,7,2
9,39781,0,10,1,1,0,no_gain4,gain3,I,D,7,17,outdoor_scenes,89,78,faces,Stimuli/Experimental_stims/outdoor_scenes/petr-vysohlid-9fqwGqGLUxc-unsplash.jpg,Stimuli/Experimental_stims/faces/good-faces-xmSWVeGEnJw-unsplash.jpg,0,0,689,1,chosen,17,7,faces,outdoor_scenes,3200,1,7,2
10,39781,0,11,1,1,0,no_gain1,gain3,B,D,0,17,outdoor_scenes,82,78,faces,Stimuli/Experimental_stims/outdoor_scenes/aleksandra-boguslawska-MS7KD9Ti7FQ-unsplash.jpg,Stimuli/Experimental_stims/faces/good-faces-xmSWVeGEnJw-unsplash.jpg,0,0,530,1,chosen,17,0,faces,outdoor_scenes,1200,0,7,2
11,39781,0,12,1,1,0,no_gain2,gain1,G,E,6,36,outdoor_scenes,94,73,objects,Stimuli/Experimental_stims/outdoor_scenes/meng-ji-8BH_M-53CyA-unsplash.jpg,Stimuli/Experimental_stims/objects/alexander-andrews-JYGnB9gTCls-unsplash.jpg,0,0,642,1,chosen,36,6,objects,outdoor_scenes,1800,0,7,2
12,39781,0,13,1,1,1,gain2,no_gain1,J,B,42,20,objects,40,48,faces,Stimuli/Experimental_stims/objects/jess-bailey-nOeVi8DsN8U-unsplash.jpg,Stimuli/Experimental_stims/faces/justin-chen-J7Cf1Gch49E-unsplash.jpg,0,0,1063,0,unchosen,20,42,faces,objects,1600,0,7,2
13,39781,0,14,1,1,0,no_gain6,gain6,K,H,25,12,body_parts,29,75,faces,Stimuli/Experimental_stims/body_parts/engin-akyurt-Q2rfH3GW39c-unsplash.jpg,Stimuli/Experimental_stims/faces/aiony-haust-jmATI5Q_YgY-unsplash.jpg,0,1,825,0,unchosen,25,12,body_parts,faces,1300,0,7,2
14,39781,0,15,1,1,0,no_gain1,gain5,B,C,20,34,faces,48,41,body_parts,Stimuli/Experimental_stims/faces/justin-chen-J7Cf1Gch49E-unsplash.jpg,Stimuli/Experimental_stims/body_parts/wagner-santos-mBWMvIuVnso-unsplash.jpg,0,1,1470,0,unchosen,20,34,faces,body_parts,1900,0,7,2
15,39781,0,16,1,1,0,no_gain3,gain2,F,J,21,13,faces,73,66,faces,Stimuli/Experimental_stims/faces/leilani-angel-K84vnnzxmTQ-unsplash.jpg,Stimuli/Experimental_stims/faces/daniel-rigdon-dXmXKPP2L4E-unsplash.jpg,0,0,821,1,chosen,13,21,faces,faces,4100,1,7,2
16,39781,0,17,1,1,1,gain4,no_gain2,A,G,46,37,objects,42,57,objects,Stimuli/Experimental_stims/objects/mockup-graphics-PNsj6RiHAF4-unsplash.jpg,Stimuli/Experimental_stims/objects/alexander-andrews-VLGWE_SumrA-unsplash.jpg,0,0,662,0,unchosen,37,46,objects,objects,1100,0,7,2
17,39781,0,18,1,1,1,gain6,no_gain2,H,G,2,6,outdoor_scenes,87,94,outdoor_scenes,Stimuli/Experimental_stims/outdoor_scenes/bruno-van-der-kraan-qez8mNJ3ilU-unsplash.jpg,Stimuli/Experimental_stims/outdoor_scenes/meng-ji-8BH_M-53CyA-unsplash.jpg,0,1,1053,1,chosen,2,6,outdoor_scenes,outdoor_scenes,1200,0,7,2
18,39781,0,19,1,1,1,gain5,no_gain4,C,I,34,24,body_parts,41,30,body_parts,Stimuli/Experimental_stims/body_parts/wagner-santos-mBWMvIuVnso-unsplash.jpg,Stimuli/Experimental_stims/body_parts/clay-banks-LjqARJaJotc-unsplash.jpg,1,NaN,,NaN,unchosen,NaN,NaN,NaN,NaN,1400,0,7,2
19,39781,0,20,1,1,0,no_gain4,gain1,I,E,7,36,outdoor_scenes,89,73,objects,Stimuli/Experimental_stims/outdoor_scenes/petr-vysohlid-9fqwGqGLUxc-unsplash.jpg,Stimuli/Experimental_stims/objects/alexander-andrews-JYGnB9gTCls-unsplash.jpg,0,0,608,1,chosen,36,7,objects,outdoor_scenes,1300,0,7,2
20,39781,0,21,1,1,1,gain6,no_gain6,H,K,2,44,outdoor_scenes,87,47,objects,Stimuli/Experimental_stims/outdoor_scenes/bruno-van-der-kraan-qez8mNJ3ilU-unsplash.jpg,Stimuli/Experimental_stims/objects/kuiye-chen-NuOGFo4PudE-unsplash.jpg,0,1,813,1,chosen,2,44,outdoor_scenes,objects,4600,1,7,2
21,39781,0,22,1,1,0,no_gain1,gain3,B,D,20,45,faces,48,67,objects,Stimuli/Experimental_stims/faces/justin-chen-J7Cf1Gch49E-unsplash.jpg,Stimuli/Experimental_stims/objects/leohoho-rngTKHXumy0-unsplash.jpg,0,1,866,0,unchosen,20,45,faces,objects,1000,0,7,2
22,39781,0,23,1,1,1,gain4,no_gain4,A,I,4,7,outdoor_scenes,89,89,outdoor_scenes,Stimuli/Experimental_stims/outdoor_scenes/jarrett-kow-1ZOyYPOBn7I-unsplash.jpg,Stimuli/Experimental_stims/outdoor_scenes/petr-vysohlid-9fqwGqGLUxc-unsplash.jpg,0,1,818,1,chosen,4,7,outdoor_scenes,outdoor_scenes,1100,0,7,2
23,39781,0,24,1,1,0,no_gain1,gain4,B,A,20,46,faces,48,42,objects,Stimuli/Experimental_stims/faces/justin-chen-J7Cf1Gch49E-unsplash.jpg,Stimuli/Experimental_stims/objects/mockup-graphics-PNsj6RiHAF4-unsplash.jpg,0,1,974,0,unchosen,20,46,faces,objects,1700,0,7,2
24,39781,0,25,1,1,0,no_gain3,gain5,F,C,32,34,body_parts,36,41,body_parts,Stimuli/Experimental_stims/body_parts/towfiqu-barbhuiya-3AsiVDsZnHg-unsplash.jpg,Stimuli/Experimental_stims/body_parts/wagner-santos-mBWMvIuVnso-unsplash.jpg,0,1,758,0,unchosen,32,34,body_parts,body_parts,2800,0,7,2
25,39781,0,26,1,1,1,gain4,no_gain3,A,F,4,21,outdoor_scenes,89,73,faces,Stimuli/Experimental_stims/outdoor_scenes/jarrett-kow-1ZOyYPOBn7I-unsplash.jpg,Stimuli/Experimental_stims/faces/leilani-angel-K84vnnzxmTQ-unsplash.jpg,0,1,609,1,chosen,4,21,outdoor_scenes,faces,3200,1,7,2
26,39781,0,27,1,1,1,gain5,no_gain6,C,K,10,44,outdoor_scenes,68,47,objects,Stimuli/Experimental_stims/outdoor_scenes/shannon-kunkle-dM8INmkyDas-unsplash.jpg,Stimuli/Experimental_stims/objects/kuiye-chen-NuOGFo4PudE-unsplash.jpg,0,1,761,1,chosen,10,44,outdoor_scenes,objects,2000,0,7,2
27,39781,0,28,1,1,0,no_gain3,gain3,F,D,32,45,body_parts,36,67,objects,Stimuli/Experimental_stims/body_parts/towfiqu-barbhuiya-3AsiVDsZnHg-unsplash.jpg,Stimuli/Experimental_stims/objects/leohoho-rngTKHXumy0-unsplash.jpg,0,1,569,0,unchosen,32,45,body_parts,objects,1600,0,7,2
28,39781,0,29,1,1,1,gain6,no_gain3,H,F,2,21,outdoor_scenes,87,73,faces,Stimuli/Experimental_stims/outdoor_scenes/bruno-van-der-kraan-qez8mNJ3ilU-unsplash.jpg,Stimuli/Experimental_stims/faces/leilani-angel-K84vnnzxmTQ-unsplash.jpg,0,1,825,1,chosen,2,21,outdoor_scenes,faces,1300,0,7,2
29,39781,0,30,1,1,1,gain5,no_gain5,C,L,34,29,body_parts,41,63,body_parts,Stimuli/Experimental_stims/body_parts/wagner-santos-mBWMvIuVnso-unsplash.jpg,Stimuli/Experimental_stims/body_parts/manuel-schinner-ZwjFuJ7ebpk-unsplash.jpg,0,0,949,0,unchosen,29,34,body_parts,body_parts,1200,0,7,2
30,39781,0,31,1,1,0,no_gain6,gain3,K,D,25,45,body_parts,29,67,objects,Stimuli/Experimental_stims/body_parts/engin-akyurt-Q2rfH3GW39c-unsplash.jpg,Stimuli/Experimental_stims/objects/leohoho-rngTKHXumy0-unsplash.jpg,0,1,1064,0,unchosen,25,45,body_parts,objects,3500,1,7,2
31,39781,0,32,1,1,0,no_gain1,gain1,B,E,0,36,outdoor_scenes,82,73,objects,Stimuli/Experimental_stims/outdoor_scenes/aleksandra-boguslawska-MS7KD9Ti7FQ-unsplash.jpg,Stimuli/Experimental_stims/objects/alexander-andrews-JYGnB9gTCls-unsplash.jpg,0,0,582,1,chosen,36,0,objects,outdoor_scenes,1800,0,7,2
32,39781,0,33,1,1,0,no_gain5,gain6,L,H,29,12,body_parts,63,75,faces,Stimuli/Experimental_stims/body_parts/manuel-schinner-ZwjFuJ7ebpk-unsplash.jpg,Stimuli/Experimental_stims/faces/aiony-haust-jmATI5Q_YgY-unsplash.jpg,0,1,906,0,unchosen,29,12,body_parts,faces,1600,0,7,2
33,39781,0,34,1,1,0,no_gain1,gain5,B,C,0,10,outdoor_scenes,82,68,outdoor_scenes,Stimuli/Experimental_stims/outdoor_scenes/aleksandra-boguslawska-MS7KD9Ti7FQ-unsplash.jpg,Stimuli/Experimental_stims/outdoor_scenes/shannon-kunkle-dM8INmkyDas-unsplash.jpg,0,0,528,1,chosen,10,0,outdoor_scenes,outdoor_scenes,2000,0,7,2
34,39781,0,35,1,1,0,no_gain5,gain5,L,C,16,10,faces,66,68,outdoor_scenes,Stimuli/Experimental_stims/faces/freddy-kearney-o-ioeoATbIM-unsplash.jpg,Stimuli/Experimental_stims/outdoor_scenes/shannon-kunkle-dM8INmkyDas-unsplash.jpg,0,0,920,1,chosen,10,16,outdoor_scenes,faces,1100,0,7,2
35,39781,0,36,1,1,1,gain1,no_gain2,E,G,33,37,body_parts,64,57,objects,Stimuli/Experimental_stims/body_parts/tucker-good-36skLT5jZcc-unsplash.jpg,Stimuli/Experimental_stims/objects/alexander-andrews-VLGWE_SumrA-unsplash.jpg,0,0,886,0,unchosen,37,33,objects,body_parts,2800,0,7,2
36,39781,0,37,1,1,0,no_gain2,gain5,G,C,6,10,outdoor_scenes,94,68,outdoor_scenes,Stimuli/Experimental_stims/outdoor_scenes/meng-ji-8BH_M-53CyA-unsplash.jpg,Stimuli/Experimental_stims/outdoor_scenes/shannon-kunkle-dM8INmkyDas-unsplash.jpg,0,0,913,1,chosen,10,6,outdoor_scenes,outdoor_scenes,3100,1,7,2
37,39781,0,38,1,1,0,no_gain4,gain2,I,J,24,42,body_parts,30,40,objects,Stimuli/Experimental_stims/body_parts/clay-banks-LjqARJaJotc-unsplash.jpg,Stimuli/Experimental_stims/objects/jess-bailey-nOeVi8DsN8U-unsplash.jpg,0,1,1215,0,unchosen,24,42,body_parts,objects,1100,0,7,2
38,39781,0,39,1,1,0,no_gain4,gain1,I,E,24,33,body_parts,30,64,body_parts,Stimuli/Experimental_stims/body_parts/clay-banks-LjqARJaJotc-unsplash.jpg,Stimuli/Experimental_stims/body_parts/tucker-good-36skLT5jZcc-unsplash.jpg,0,1,1029,0,unchosen,24,33,body_parts,body_parts,1100,0,7,2
39,39781,0,40,1,1,1,gain2,no_gain1,J,B,13,0,faces,66,82,outdoor_scenes,Stimuli/Experimental_stims/faces/daniel-rigdon-dXmXKPP2L4E-unsplash.jpg,Stimuli/Experimental_stims/outdoor_scenes/aleksandra-boguslawska-MS7KD9Ti7FQ-unsplash.jpg,0,1,733,1,chosen,13,0,faces,outdoor_scenes,1100,0,7,2
40,39781,0,41,1,1,1,gain2,no_gain5,J,L,42,29,objects,40,63,body_parts,Stimuli/Experimental_stims/objects/jess-bailey-nOeVi8DsN8U-unsplash.jpg,Stimuli/Experimental_stims/body_parts/manuel-schinner-ZwjFuJ7ebpk-unsplash.jpg,0,0,838,0,unchosen,29,42,body_parts,objects,2300,0,7,2
41,39781,0,42,1,1,1,gain6,no_gain3,H,F,12,32,faces,75,36,body_parts,Stimuli/Experimental_stims/faces/aiony-haust-jmATI5Q_YgY-unsplash.jpg,Stimuli/Experimental_stims/body_parts/towfiqu-barbhuiya-3AsiVDsZnHg-unsplash.jpg,0,0,774,0,unchosen,32,12,body_parts,faces,3700,1,7,2
42,39781,0,43,1,1,0,no_gain6,gain5,K,C,25,34,body_parts,29,41,body_parts,Stimuli/Experimental_stims/body_parts/engin-akyurt-Q2rfH3GW39c-unsplash.jpg,Stimuli/Experimental_stims/body_parts/wagner-santos-mBWMvIuVnso-unsplash.jpg,0,1,773,0,unchosen,25,34,body_parts,body_parts,2400,0,7,2
43,39781,0,44,1,1,0,no_gain5,gain6,L,H,16,2,faces,66,87,outdoor_scenes,Stimuli/Experimental_stims/faces/freddy-kearney-o-ioeoATbIM-unsplash.jpg,Stimuli/Experimental_stims/outdoor_scenes/bruno-van-der-kraan-qez8mNJ3ilU-unsplash.jpg,0,0,674,1,chosen,2,16,outdoor_scenes,faces,1400,0,7,2
44,39781,0,45,1,1,0,no_gain2,gain6,G,H,37,12,objects,57,75,faces,Stimuli/Experimental_stims/objects/alexander-andrews-VLGWE_SumrA-unsplash.jpg,Stimuli/Experimental_stims/faces/aiony-haust-jmATI5Q_YgY-unsplash.jpg,0,1,872,0,unchosen,37,12,objects,faces,2500,0,7,2
45,39781,0,46,1,1,1,gain6,no_gain1,H,B,2,0,outdoor_scenes,87,82,outdoor_scenes,Stimuli/Experimental_stims/outdoor_scenes/bruno-van-der-kraan-qez8mNJ3ilU-unsplash.jpg,Stimuli/Experimental_stims/outdoor_scenes/aleksandra-boguslawska-MS7KD9Ti7FQ-unsplash.jpg,0,1,748,1,chosen,2,0,outdoor_scenes,outdoor_scenes,2600,0,7,2
46,39781,0,47,1,1,1,gain2,no_gain2,J,G,13,6,faces,66,94,outdoor_scenes,Stimuli/Experimental_stims/faces/daniel-rigdon-dXmXKPP2L4E-unsplash.jpg,Stimuli/Experimental_stims/outdoor_scenes/meng-ji-8BH_M-53CyA-unsplash.jpg,0,1,680,1,chosen,13,6,faces,outdoor_scenes,1100,0,7,2
47,39781,0,48,1,1,0,no_gain6,gain1,K,E,25,33,body_parts,29,64,body_parts,Stimuli/Experimental_stims/body_parts/engin-akyurt-Q2rfH3GW39c-unsplash.jpg,Stimuli/Experimental_stims/body_parts/tucker-good-36skLT5jZcc-unsplash.jpg,0,1,625,0,unchosen,25,33,body_parts,body_parts,4800,1,7,2
48,39781,0,49,1,1,1,gain4,no_gain3,A,F,46,32,objects,42,36,body_parts,Stimuli/Experimental_stims/objects/mockup-graphics-PNsj6RiHAF4-unsplash.jpg,Stimuli/Experimental_stims/body_parts/towfiqu-barbhuiya-3AsiVDsZnHg-unsplash.jpg,0,0,850,0,unchosen,32,46,body_parts,objects,1600,0,7,2
49,39781,0,50,1,1,1,gain6,no_gain4,H,I,2,7,outdoor_scenes,87,89,outdoor_scenes,Stimuli/Experimental_stims/outdoor_scenes/bruno-van-der-kraan-qez8mNJ3ilU-unsplash.jpg,Stimuli/Experimental_stims/outdoor_scenes/petr-vysohlid-9fqwGqGLUxc-unsplash.jpg,0,1,705,1,chosen,2,7,outdoor_scenes,outdoor_scenes,2800,0,7,2
50,39781,0,51,1,1,1,gain1,no_gain3,E,F,33,32,body_parts,64,36,body_parts,Stimuli/Experimental_stims/body_parts/tucker-good-36skLT5jZcc-unsplash.jpg,Stimuli/Experimental_stims/body_parts/towfiqu-barbhuiya-3AsiVDsZnHg-unsplash.jpg,0,0,641,0,unchosen,32,33,body_parts,body_parts,2300,0,7,2
51,39781,0,52,1,1,1,gain3,no_gain5,D,L,45,29,objects,67,63,body_parts,Stimuli/Experimental_stims/objects/leohoho-rngTKHXumy0-unsplash.jpg,Stimuli/Experimental_stims/body_parts/manuel-schinner-ZwjFuJ7ebpk-unsplash.jpg,0,0,871,0,unchosen,29,45,body_parts,objects,2400,0,7,2
52,39781,0,53,1,1,1,gain4,no_gain4,A,I,46,24,objects,42,30,body_parts,Stimuli/Experimental_stims/objects/mockup-graphics-PNsj6RiHAF4-unsplash.jpg,Stimuli/Experimental_stims/body_parts/clay-banks-LjqARJaJotc-unsplash.jpg,0,0,715,0,unchosen,24,46,body_parts,objects,1800,0,7,2
53,39781,0,54,1,1,0,no_gain6,gain1,K,E,44,36,objects,47,73,objects,Stimuli/Experimental_stims/objects/kuiye-chen-NuOGFo4PudE-unsplash.jpg,Stimuli/Experimental_stims/objects/alexander-andrews-JYGnB9gTCls-unsplash.jpg,0,0,657,1,chosen,36,44,objects,objects,1500,0,7,2
54,39781,0,55,1,1,1,gain6,no_gain4,H,I,12,24,faces,75,30,body_parts,Stimuli/Experimental_stims/faces/aiony-haust-jmATI5Q_YgY-unsplash.jpg,Stimuli/Experimental_stims/body_parts/clay-banks-LjqARJaJotc-unsplash.jpg,0,0,659,0,unchosen,24,12,body_parts,faces,1900,0,7,2
55,39781,0,56,1,1,1,gain3,no_gain2,D,G,45,37,objects,67,57,objects,Stimuli/Experimental_stims/objects/leohoho-rngTKHXumy0-unsplash.jpg,Stimuli/Experimental_stims/objects/alexander-andrews-VLGWE_SumrA-unsplash.jpg,0,0,862,0,unchosen,37,45,objects,objects,1100,0,7,2
56,39781,0,57,1,1,0,no_gain2,gain2,G,J,37,42,objects,57,40,objects,Stimuli/Experimental_stims/objects/alexander-andrews-VLGWE_SumrA-unsplash.jpg,Stimuli/Experimental_stims/objects/jess-bailey-nOeVi8DsN8U-unsplash.jpg,0,1,740,0,unchosen,37,42,objects,objects,1700,0,7,2
57,39781,0,58,1,1,1,gain5,no_gain3,C,F,10,21,outdoor_scenes,68,73,faces,Stimuli/Experimental_stims/outdoor_scenes/shannon-kunkle-dM8INmkyDas-unsplash.jpg,Stimuli/Experimental_stims/faces/leilani-angel-K84vnnzxmTQ-unsplash.jpg,0,1,550,1,chosen,10,21,outdoor_scenes,faces,1600,0,7,2
58,39781,0,59,1,1,1,gain6,no_gain1,H,B,12,20,faces,75,48,faces,Stimuli/Experimental_stims/faces/aiony-haust-jmATI5Q_YgY-unsplash.jpg,Stimuli/Experimental_stims/faces/justin-chen-J7Cf1Gch49E-unsplash.jpg,0,0,650,0,unchosen,20,12,faces,faces,1700,0,7,2
59,39781,0,60,1,1,0,no_gain5,gain4,L,A,16,4,faces,66,89,outdoor_scenes,Stimuli/Experimental_stims/faces/freddy-kearney-o-ioeoATbIM-unsplash.jpg,Stimuli/Experimental_stims/outdoor_scenes/jarrett-kow-1ZOyYPOBn7I-unsplash.jpg,0,0,854,1,chosen,4,16,outdoor_scenes,faces,3000,0,7,2
60,39781,0,61,1,1,1,gain3,no_gain6,D,K,17,44,faces,78,47,objects,Stimuli/Experimental_stims/faces/good-faces-xmSWVeGEnJw-unsplash.jpg,Stimuli/Experimental_stims/objects/kuiye-chen-NuOGFo4PudE-unsplash.jpg,0,0,545,0,chosen,44,17,objects,faces,2100,0,7,2
61,39781,0,62,1,1,1,gain5,no_gain2,C,G,34,37,body_parts,41,57,objects,Stimuli/Experimental_stims/body_parts/wagner-santos-mBWMvIuVnso-unsplash.jpg,Stimuli/Experimental_stims/objects/alexander-andrews-VLGWE_SumrA-unsplash.jpg,0,0,758,0,unchosen,37,34,objects,body_parts,3200,1,7,2
62,39781,0,63,1,1,1,gain1,no_gain5,E,L,36,16,objects,73,66,faces,Stimuli/Experimental_stims/objects/alexander-andrews-JYGnB9gTCls-unsplash.jpg,Stimuli/Experimental_stims/faces/freddy-kearney-o-ioeoATbIM-unsplash.jpg,0,1,609,1,chosen,36,16,objects,faces,1600,0,7,2
63,39781,0,64,1,1,0,no_gain2,gain4,G,A,6,4,outdoor_scenes,94,89,outdoor_scenes,Stimuli/Experimental_stims/outdoor_scenes/meng-ji-8BH_M-53CyA-unsplash.jpg,Stimuli/Experimental_stims/outdoor_scenes/jarrett-kow-1ZOyYPOBn7I-unsplash.jpg,0,0,685,1,chosen,4,6,outdoor_scenes,outdoor_scenes,1300,0,7,2
64,39781,0,65,1,1,0,no_gain1,gain1,B,E,20,33,faces,48,64,body_parts,Stimuli/Experimental_stims/faces/justin-chen-J7Cf1Gch49E-unsplash.jpg,Stimuli/Experimental_stims/body_parts/tucker-good-36skLT5jZcc-unsplash.jpg,0,1,629,0,unchosen,20,33,faces,body_parts,1800,0,7,2
65,39781,0,66,1,1,0,no_gain1,gain4,B,A,0,4,outdoor_scenes,82,89,outdoor_scenes,Stimuli/Experimental_stims/outdoor_scenes/aleksandra-boguslawska-MS7KD9Ti7FQ-unsplash.jpg,Stimuli/Experimental_stims/outdoor_scenes/jarrett-kow-1ZOyYPOBn7I-unsplash.jpg,0,0,681,1,chosen,4,0,outdoor_scenes,outdoor_scenes,1400,0,7,2
66,39781,0,67,1,1,0,no_gain3,gain3,F,D,21,17,faces,73,78,faces,Stimuli/Experimental_stims/faces/leilani-angel-K84vnnzxmTQ-unsplash.jpg,Stimuli/Experimental_stims/faces/good-faces-xmSWVeGEnJw-unsplash.jpg,0,0,514,1,chosen,17,21,faces,faces,1500,0,7,2
67,39781,0,68,1,1,0,no_gain6,gain2,K,J,44,13,objects,47,66,faces,Stimuli/Experimental_stims/objects/kuiye-chen-NuOGFo4PudE-unsplash.jpg,Stimuli/Experimental_stims/faces/daniel-rigdon-dXmXKPP2L4E-unsplash.jpg,0,0,702,1,chosen,13,44,faces,objects,1100,0,7,2
68,39781,0,69,1,1,0,no_gain6,gain4,K,A,25,46,body_parts,29,42,objects,Stimuli/Experimental_stims/body_parts/engin-akyurt-Q2rfH3GW39c-unsplash.jpg,Stimuli/Experimental_stims/objects/mockup-graphics-PNsj6RiHAF4-unsplash.jpg,0,1,748,0,unchosen,25,46,body_parts,objects,4300,1,7,2
69,39781,0,70,1,1,0,no_gain2,gain3,G,D,6,17,outdoor_scenes,94,78,faces,Stimuli/Experimental_stims/outdoor_scenes/meng-ji-8BH_M-53CyA-unsplash.jpg,Stimuli/Experimental_stims/faces/good-faces-xmSWVeGEnJw-unsplash.jpg,0,0,565,1,chosen,17,6,faces,outdoor_scenes,1100,0,7,2
70,39781,0,71,1,1,1,gain2,no_gain5,J,L,13,16,faces,66,66,faces,Stimuli/Experimental_stims/faces/daniel-rigdon-dXmXKPP2L4E-unsplash.jpg,Stimuli/Experimental_stims/faces/freddy-kearney-o-ioeoATbIM-unsplash.jpg,0,1,682,1,chosen,13,16,faces,faces,1300,0,7,2
71,39781,0,72,1,1,1,gain2,no_gain6,J,K,42,25,objects,40,29,body_parts,Stimuli/Experimental_stims/objects/jess-bailey-nOeVi8DsN8U-unsplash.jpg,Stimuli/Experimental_stims/body_parts/engin-akyurt-Q2rfH3GW39c-unsplash.jpg,0,0,670,0,unchosen,25,42,body_parts,objects,2000,0,7,2
72,39781,0,73,1,1,0,no_gain4,gain3,I,D,24,45,body_parts,30,67,objects,Stimuli/Experimental_stims/body_parts/clay-banks-LjqARJaJotc-unsplash.jpg,Stimuli/Experimental_stims/objects/leohoho-rngTKHXumy0-unsplash.jpg,0,1,592,0,unchosen,24,45,body_parts,objects,1900,0,7,2
73,39781,0,74,1,1,0,no_gain4,gain5,I,C,7,10,outdoor_scenes,89,68,outdoor_scenes,Stimuli/Experimental_stims/outdoor_scenes/petr-vysohlid-9fqwGqGLUxc-unsplash.jpg,Stimuli/Experimental_stims/outdoor_scenes/shannon-kunkle-dM8INmkyDas-unsplash.jpg,0,0,597,1,chosen,10,7,outdoor_scenes,outdoor_scenes,2200,0,7,2
74,39781,0,75,1,1,1,gain4,no_gain6,A,K,4,44,outdoor_scenes,89,47,objects,Stimuli/Experimental_stims/outdoor_scenes/jarrett-kow-1ZOyYPOBn7I-unsplash.jpg,Stimuli/Experimental_stims/objects/kuiye-chen-NuOGFo4PudE-unsplash.jpg,0,1,490,1,chosen,4,44,outdoor_scenes,objects,1000,0,7,2
75,39781,0,76,1,1,1,gain4,no_gain5,A,L,46,29,objects,42,63,body_parts,Stimuli/Experimental_stims/objects/mockup-graphics-PNsj6RiHAF4-unsplash.jpg,Stimuli/Experimental_stims/body_parts/manuel-schinner-ZwjFuJ7ebpk-unsplash.jpg,0,0,625,0,unchosen,29,46,body_parts,objects,1100,0,7,2
76,39781,0,77,2,2,1,gain6,no_gain3,H,F,12,32,faces,75,36,body_parts,Stimuli/Experimental_stims/faces/aiony-haust-jmATI5Q_YgY-unsplash.jpg,Stimuli/Experimental_stims/body_parts/towfiqu-barbhuiya-3AsiVDsZnHg-unsplash.jpg,0,0,733,0,unchosen,32,12,body_parts,faces,3800,1,10,2
77,39781,0,78,2,2,1,gain6,no_gain4,H,I,2,7,outdoor_scenes,87,89,outdoor_scenes,Stimuli/Experimental_stims/outdoor_scenes/bruno-van-der-kraan-qez8mNJ3ilU-unsplash.jpg,Stimuli/Experimental_stims/outdoor_scenes/petr-vysohlid-9fqwGqGLUxc-unsplash.jpg,0,1,800,1,chosen,2,7,outdoor_scenes,outdoor_scenes,2000,0,10,2
78,39781,0,79,2,2,1,gain3,no_gain1,D,B,17,0,faces,78,82,outdoor_scenes,Stimuli/Experimental_stims/faces/good-faces-xmSWVeGEnJw-unsplash.jpg,Stimuli/Experimental_stims/outdoor_scenes/aleksandra-boguslawska-MS7KD9Ti7FQ-unsplash.jpg,0,1,633,1,chosen,17,0,faces,outdoor_scenes,3000,0,10,2
79,39781,0,80,2,2,1,gain4,no_gain3,A,F,46,32,objects,42,36,body_parts,Stimuli/Experimental_stims/objects/mockup-graphics-PNsj6RiHAF4-unsplash.jpg,Stimuli/Experimental_stims/body_parts/towfiqu-barbhuiya-3AsiVDsZnHg-unsplash.jpg,0,0,537,0,unchosen,32,46,body_parts,objects,1400,0,10,2
80,39781,0,81,2,2,1,gain6,no_gain6,H,K,2,44,outdoor_scenes,87,47,objects,Stimuli/Experimental_stims/outdoor_scenes/bruno-van-der-kraan-qez8mNJ3ilU-unsplash.jpg,Stimuli/Experimental_stims/objects/kuiye-chen-NuOGFo4PudE-unsplash.jpg,0,1,690,1,chosen,2,44,outdoor_scenes,objects,2900,0,10,2
81,39781,0,82,2,2,1,gain2,no_gain1,J,B,13,0,faces,66,82,outdoor_scenes,Stimuli/Experimental_stims/faces/daniel-rigdon-dXmXKPP2L4E-unsplash.jpg,Stimuli/Experimental_stims/outdoor_scenes/aleksandra-boguslawska-MS7KD9Ti7FQ-unsplash.jpg,0,1,558,1,chosen,13,0,faces,outdoor_scenes,2000,0,10,2
82,39781,0,83,2,2,0,no_gain1,gain3,B,D,20,45,faces,48,67,objects,Stimuli/Experimental_stims/faces/justin-chen-J7Cf1Gch49E-unsplash.jpg,Stimuli/Experimental_stims/objects/leohoho-rngTKHXumy0-unsplash.jpg,0,1,569,0,unchosen,20,45,faces,objects,2700,0,10,2
83,39781,0,84,2,2,0,no_gain6,gain2,K,J,44,13,objects,47,66,faces,Stimuli/Experimental_stims/objects/kuiye-chen-NuOGFo4PudE-unsplash.jpg,Stimuli/Experimental_stims/faces/daniel-rigdon-dXmXKPP2L4E-unsplash.jpg,0,0,558,1,chosen,13,44,faces,objects,3600,1,10,2
84,39781,0,85,2,2,0,no_gain3,gain2,F,J,32,42,body_parts,36,40,objects,Stimuli/Experimental_stims/body_parts/towfiqu-barbhuiya-3AsiVDsZnHg-unsplash.jpg,Stimuli/Experimental_stims/objects/jess-bailey-nOeVi8DsN8U-unsplash.jpg,0,1,627,0,unchosen,32,42,body_parts,objects,1300,0,10,2
85,39781,0,86,2,2,1,gain6,no_gain1,H,B,12,20,faces,75,48,faces,Stimuli/Experimental_stims/faces/aiony-haust-jmATI5Q_YgY-unsplash.jpg,Stimuli/Experimental_stims/faces/justin-chen-J7Cf1Gch49E-unsplash.jpg,0,0,765,0,unchosen,20,12,faces,faces,3000,0,10,2
86,39781,0,87,2,2,0,no_gain5,gain4,L,A,29,46,body_parts,63,42,objects,Stimuli/Experimental_stims/body_parts/manuel-schinner-ZwjFuJ7ebpk-unsplash.jpg,Stimuli/Experimental_stims/objects/mockup-graphics-PNsj6RiHAF4-unsplash.jpg,0,1,713,0,unchosen,29,46,body_parts,objects,2600,0,10,2
87,39781,0,88,2,2,0,no_gain2,gain3,G,D,6,17,outdoor_scenes,94,78,faces,Stimuli/Experimental_stims/outdoor_scenes/meng-ji-8BH_M-53CyA-unsplash.jpg,Stimuli/Experimental_stims/faces/good-faces-xmSWVeGEnJw-unsplash.jpg,0,0,506,1,chosen,17,6,faces,outdoor_scenes,1100,0,10,2
88,39781,0,89,2,2,0,no_gain1,gain1,B,E,0,36,outdoor_scenes,82,73,objects,Stimuli/Experimental_stims/outdoor_scenes/aleksandra-boguslawska-MS7KD9Ti7FQ-unsplash.jpg,Stimuli/Experimental_stims/objects/alexander-andrews-JYGnB9gTCls-unsplash.jpg,0,0,509,1,chosen,36,0,objects,outdoor_scenes,1400,0,10,2
89,39781,0,90,2,2,0,no_gain5,gain2,L,J,29,42,body_parts,63,40,objects,Stimuli/Experimental_stims/body_parts/manuel-schinner-ZwjFuJ7ebpk-unsplash.jpg,Stimuli/Experimental_stims/objects/jess-bailey-nOeVi8DsN8U-unsplash.jpg,0,1,642,0,unchosen,29,42,body_parts,objects,1100,0,10,2
90,39781,0,91,2,2,1,gain3,no_gain3,D,F,45,32,objects,67,36,body_parts,Stimuli/Experimental_stims/objects/leohoho-rngTKHXumy0-unsplash.jpg,Stimuli/Experimental_stims/body_parts/towfiqu-barbhuiya-3AsiVDsZnHg-unsplash.jpg,0,0,796,0,unchosen,32,45,body_parts,objects,2900,0,10,2
91,39781,0,92,2,2,1,gain5,no_gain4,C,I,10,7,outdoor_scenes,68,89,outdoor_scenes,Stimuli/Experimental_stims/outdoor_scenes/shannon-kunkle-dM8INmkyDas-unsplash.jpg,Stimuli/Experimental_stims/outdoor_scenes/petr-vysohlid-9fqwGqGLUxc-unsplash.jpg,0,1,597,1,chosen,10,7,outdoor_scenes,outdoor_scenes,1600,0,10,2
92,39781,0,93,2,2,1,gain2,no_gain6,J,K,42,25,objects,40,29,body_parts,Stimuli/Experimental_stims/objects/jess-bailey-nOeVi8DsN8U-unsplash.jpg,Stimuli/Experimental_stims/body_parts/engin-akyurt-Q2rfH3GW39c-unsplash.jpg,0,0,680,0,unchosen,25,42,body_parts,objects,1500,0,10,2
93,39781,0,94,2,2,0,no_gain5,gain6,L,H,29,12,body_parts,63,75,faces,Stimuli/Experimental_stims/body_parts/manuel-schinner-ZwjFuJ7ebpk-unsplash.jpg,Stimuli/Experimental_stims/faces/aiony-haust-jmATI5Q_YgY-unsplash.jpg,0,1,1021,0,unchosen,29,12,body_parts,faces,3800,1,10,2
94,39781,0,95,2,2,0,no_gain6,gain4,K,A,44,4,objects,47,89,outdoor_scenes,Stimuli/Experimental_stims/objects/kuiye-chen-NuOGFo4PudE-unsplash.jpg,Stimuli/Experimental_stims/outdoor_scenes/jarrett-kow-1ZOyYPOBn7I-unsplash.jpg,0,0,585,1,chosen,4,44,outdoor_scenes,objects,1500,0,10,2
95,39781,0,96,2,2,1,gain5,no_gain2,C,G,34,37,body_parts,41,57,objects,Stimuli/Experimental_stims/body_parts/wagner-santos-mBWMvIuVnso-unsplash.jpg,Stimuli/Experimental_stims/objects/alexander-andrews-VLGWE_SumrA-unsplash.jpg,0,0,581,0,unchosen,37,34,objects,body_parts,1000,0,10,2
96,39781,0,97,2,2,1,gain4,no_gain4,A,I,46,24,objects,42,30,body_parts,Stimuli/Experimental_stims/objects/mockup-graphics-PNsj6RiHAF4-unsplash.jpg,Stimuli/Experimental_stims/body_parts/clay-banks-LjqARJaJotc-unsplash.jpg,0,0,786,0,unchosen,24,46,body_parts,objects,1600,0,10,2
97,39781,0,98,2,2,0,no_gain5,gain3,L,D,16,17,faces,66,78,faces,Stimuli/Experimental_stims/faces/freddy-kearney-o-ioeoATbIM-unsplash.jpg,Stimuli/Experimental_stims/faces/good-faces-xmSWVeGEnJw-unsplash.jpg,0,0,498,1,chosen,17,16,faces,faces,1300,0,10,2
98,39781,0,99,2,2,1,gain2,no_gain4,J,I,13,7,faces,66,89,outdoor_scenes,Stimuli/Experimental_stims/faces/daniel-rigdon-dXmXKPP2L4E-unsplash.jpg,Stimuli/Experimental_stims/outdoor_scenes/petr-vysohlid-9fqwGqGLUxc-unsplash.jpg,0,1,580,1,chosen,13,7,faces,outdoor_scenes,3500,1,10,2
99,39781,0,100,2,2,0,no_gain2,gain4,G,A,6,4,outdoor_scenes,94,89,outdoor_scenes,Stimuli/Experimental_stims/outdoor_scenes/meng-ji-8BH_M-53CyA-unsplash.jpg,Stimuli/Experimental_stims/outdoor_scenes/jarrett-kow-1ZOyYPOBn7I-unsplash.jpg,0,0,565,1,chosen,4,6,outdoor_scenes,outdoor_scenes,2500,0,10,2
100,39781,0,101,2,2,1,gain5,no_gain6,C,K,34,25,body_parts,41,29,body_parts,Stimuli/Experimental_stims/body_parts/wagner-santos-mBWMvIuVnso-unsplash.jpg,Stimuli/Experimental_stims/body_parts/engin-akyurt-Q2rfH3GW39c-unsplash.jpg,0,0,942,0,unchosen,25,34,body_parts,body_parts,1100,0,10,2
101,39781,0,102,2,2,1,gain3,no_gain3,D,F,17,21,faces,78,73,faces,Stimuli/Experimental_stims/faces/good-faces-xmSWVeGEnJw-unsplash.jpg,Stimuli/Experimental_stims/faces/leilani-angel-K84vnnzxmTQ-unsplash.jpg,0,1,551,1,chosen,17,21,faces,faces,1000,0,10,2
102,39781,0,103,2,2,0,no_gain2,gain1,G,E,37,33,objects,57,64,body_parts,Stimuli/Experimental_stims/objects/alexander-andrews-VLGWE_SumrA-unsplash.jpg,Stimuli/Experimental_stims/body_parts/tucker-good-36skLT5jZcc-unsplash.jpg,0,1,738,0,unchosen,37,33,objects,body_parts,2100,0,10,2
103,39781,0,104,2,2,1,gain4,no_gain4,A,I,4,7,outdoor_scenes,89,89,outdoor_scenes,Stimuli/Experimental_stims/outdoor_scenes/jarrett-kow-1ZOyYPOBn7I-unsplash.jpg,Stimuli/Experimental_stims/outdoor_scenes/petr-vysohlid-9fqwGqGLUxc-unsplash.jpg,0,1,494,1,chosen,4,7,outdoor_scenes,outdoor_scenes,1300,0,10,2
104,39781,0,105,2,2,0,no_gain2,gain4,G,A,37,46,objects,57,42,objects,Stimuli/Experimental_stims/objects/alexander-andrews-VLGWE_SumrA-unsplash.jpg,Stimuli/Experimental_stims/objects/mockup-graphics-PNsj6RiHAF4-unsplash.jpg,0,1,573,0,unchosen,37,46,objects,objects,2000,0,10,2
105,39781,0,106,2,2,1,gain5,no_gain1,C,B,10,0,outdoor_scenes,68,82,outdoor_scenes,Stimuli/Experimental_stims/outdoor_scenes/shannon-kunkle-dM8INmkyDas-unsplash.jpg,Stimuli/Experimental_stims/outdoor_scenes/aleksandra-boguslawska-MS7KD9Ti7FQ-unsplash.jpg,0,1,512,1,chosen,10,0,outdoor_scenes,outdoor_scenes,3100,1,10,2
106,39781,0,107,2,2,0,no_gain6,gain3,K,D,25,45,body_parts,29,67,objects,Stimuli/Experimental_stims/body_parts/engin-akyurt-Q2rfH3GW39c-unsplash.jpg,Stimuli/Experimental_stims/objects/leohoho-rngTKHXumy0-unsplash.jpg,0,1,557,0,unchosen,25,45,body_parts,objects,1400,0,10,2
107,39781,0,108,2,2,1,gain6,no_gain1,H,B,2,0,outdoor_scenes,87,82,outdoor_scenes,Stimuli/Experimental_stims/outdoor_scenes/bruno-van-der-kraan-qez8mNJ3ilU-unsplash.jpg,Stimuli/Experimental_stims/outdoor_scenes/aleksandra-boguslawska-MS7KD9Ti7FQ-unsplash.jpg,0,1,760,1,chosen,2,0,outdoor_scenes,outdoor_scenes,1300,0,10,2
108,39781,0,109,2,2,0,no_gain2,gain5,G,C,6,10,outdoor_scenes,94,68,outdoor_scenes,Stimuli/Experimental_stims/outdoor_scenes/meng-ji-8BH_M-53CyA-unsplash.jpg,Stimuli/Experimental_stims/outdoor_scenes/shannon-kunkle-dM8INmkyDas-unsplash.jpg,0,0,540,1,chosen,10,6,outdoor_scenes,outdoor_scenes,1300,0,10,2
109,39781,0,110,2,2,0,no_gain5,gain5,L,C,29,34,body_parts,63,41,body_parts,Stimuli/Experimental_stims/body_parts/manuel-schinner-ZwjFuJ7ebpk-unsplash.jpg,Stimuli/Experimental_stims/body_parts/wagner-santos-mBWMvIuVnso-unsplash.jpg,0,1,581,0,unchosen,29,34,body_parts,body_parts,1200,0,10,2
110,39781,0,111,2,2,0,no_gain5,gain1,L,E,29,33,body_parts,63,64,body_parts,Stimuli/Experimental_stims/body_parts/manuel-schinner-ZwjFuJ7ebpk-unsplash.jpg,Stimuli/Experimental_stims/body_parts/tucker-good-36skLT5jZcc-unsplash.jpg,0,1,826,0,unchosen,29,33,body_parts,body_parts,1300,0,10,2
111,39781,0,112,2,2,0,no_gain6,gain5,K,C,44,10,objects,47,68,outdoor_scenes,Stimuli/Experimental_stims/objects/kuiye-chen-NuOGFo4PudE-unsplash.jpg,Stimuli/Experimental_stims/outdoor_scenes/shannon-kunkle-dM8INmkyDas-unsplash.jpg,0,0,590,1,chosen,10,44,outdoor_scenes,objects,1100,0,10,2
112,39781,0,113,2,2,1,gain2,no_gain2,J,G,13,6,faces,66,94,outdoor_scenes,Stimuli/Experimental_stims/faces/daniel-rigdon-dXmXKPP2L4E-unsplash.jpg,Stimuli/Experimental_stims/outdoor_scenes/meng-ji-8BH_M-53CyA-unsplash.jpg,0,1,629,1,chosen,13,6,faces,outdoor_scenes,1900,0,10,2
113,39781,0,114,2,2,1,gain1,no_gain6,E,K,33,25,body_parts,64,29,body_parts,Stimuli/Experimental_stims/body_parts/tucker-good-36skLT5jZcc-unsplash.jpg,Stimuli/Experimental_stims/body_parts/engin-akyurt-Q2rfH3GW39c-unsplash.jpg,0,0,661,0,unchosen,25,33,body_parts,body_parts,2100,0,10,2
114,39781,0,115,2,2,0,no_gain3,gain5,F,C,32,34,body_parts,36,41,body_parts,Stimuli/Experimental_stims/body_parts/towfiqu-barbhuiya-3AsiVDsZnHg-unsplash.jpg,Stimuli/Experimental_stims/body_parts/wagner-santos-mBWMvIuVnso-unsplash.jpg,0,1,766,0,unchosen,32,34,body_parts,body_parts,1400,0,10,2
115,39781,0,116,2,2,1,gain3,no_gain6,D,K,17,44,faces,78,47,objects,Stimuli/Experimental_stims/faces/good-faces-xmSWVeGEnJw-unsplash.jpg,Stimuli/Experimental_stims/objects/kuiye-chen-NuOGFo4PudE-unsplash.jpg,0,1,681,1,chosen,17,44,faces,objects,1100,0,10,2
116,39781,0,117,2,2,0,no_gain5,gain5,L,C,16,10,faces,66,68,outdoor_scenes,Stimuli/Experimental_stims/faces/freddy-kearney-o-ioeoATbIM-unsplash.jpg,Stimuli/Experimental_stims/outdoor_scenes/shannon-kunkle-dM8INmkyDas-unsplash.jpg,0,0,486,1,chosen,10,16,outdoor_scenes,faces,1600,0,10,2
117,39781,0,118,2,2,1,gain3,no_gain4,D,I,45,24,objects,67,30,body_parts,Stimuli/Experimental_stims/objects/leohoho-rngTKHXumy0-unsplash.jpg,Stimuli/Experimental_stims/body_parts/clay-banks-LjqARJaJotc-unsplash.jpg,0,0,528,0,unchosen,24,45,body_parts,objects,1300,0,10,2
118,39781,0,119,2,2,1,gain4,no_gain1,A,B,4,0,outdoor_scenes,89,82,outdoor_scenes,Stimuli/Experimental_stims/outdoor_scenes/jarrett-kow-1ZOyYPOBn7I-unsplash.jpg,Stimuli/Experimental_stims/outdoor_scenes/aleksandra-boguslawska-MS7KD9Ti7FQ-unsplash.jpg,0,1,526,1,chosen,4,0,outdoor_scenes,outdoor_scenes,2500,0,10,2
119,39781,0,120,2,2,0,no_gain4,gain2,I,J,24,42,body_parts,30,40,objects,Stimuli/Experimental_stims/body_parts/clay-banks-LjqARJaJotc-unsplash.jpg,Stimuli/Experimental_stims/objects/jess-bailey-nOeVi8DsN8U-unsplash.jpg,0,1,621,0,unchosen,24,42,body_parts,objects,4300,1,10,2
120,39781,0,121,2,2,0,no_gain3,gain4,F,A,21,4,faces,73,89,outdoor_scenes,Stimuli/Experimental_stims/faces/leilani-angel-K84vnnzxmTQ-unsplash.jpg,Stimuli/Experimental_stims/outdoor_scenes/jarrett-kow-1ZOyYPOBn7I-unsplash.jpg,0,0,509,1,chosen,4,21,outdoor_scenes,faces,2400,0,10,2
121,39781,0,122,2,2,1,gain1,no_gain4,E,I,33,24,body_parts,64,30,body_parts,Stimuli/Experimental_stims/body_parts/tucker-good-36skLT5jZcc-unsplash.jpg,Stimuli/Experimental_stims/body_parts/clay-banks-LjqARJaJotc-unsplash.jpg,0,0,473,0,unchosen,24,33,body_parts,body_parts,1800,0,10,2
122,39781,0,123,2,2,1,gain6,no_gain3,H,F,2,21,outdoor_scenes,87,73,faces,Stimuli/Experimental_stims/outdoor_scenes/bruno-van-der-kraan-qez8mNJ3ilU-unsplash.jpg,Stimuli/Experimental_stims/faces/leilani-angel-K84vnnzxmTQ-unsplash.jpg,0,1,712,1,chosen,2,21,outdoor_scenes,faces,1000,0,10,2
123,39781,0,124,2,2,1,gain5,no_gain1,C,B,34,20,body_parts,41,48,faces,Stimuli/Experimental_stims/body_parts/wagner-santos-mBWMvIuVnso-unsplash.jpg,Stimuli/Experimental_stims/faces/justin-chen-J7Cf1Gch49E-unsplash.jpg,0,0,1353,0,unchosen,20,34,faces,body_parts,2000,0,10,2
124,39781,0,125,2,2,1,gain3,no_gain2,D,G,45,37,objects,67,57,objects,Stimuli/Experimental_stims/objects/leohoho-rngTKHXumy0-unsplash.jpg,Stimuli/Experimental_stims/objects/alexander-andrews-VLGWE_SumrA-unsplash.jpg,0,0,504,0,unchosen,37,45,objects,objects,2700,0,10,2
125,39781,0,126,2,2,0,no_gain2,gain2,G,J,37,42,objects,57,40,objects,Stimuli/Experimental_stims/objects/alexander-andrews-VLGWE_SumrA-unsplash.jpg,Stimuli/Experimental_stims/objects/jess-bailey-nOeVi8DsN8U-unsplash.jpg,0,1,654,0,unchosen,37,42,objects,objects,2500,0,10,2
126,39781,0,127,2,2,0,no_gain4,gain1,I,E,7,36,outdoor_scenes,89,73,objects,Stimuli/Experimental_stims/outdoor_scenes/petr-vysohlid-9fqwGqGLUxc-unsplash.jpg,Stimuli/Experimental_stims/objects/alexander-andrews-JYGnB9gTCls-unsplash.jpg,0,0,574,1,chosen,36,7,objects,outdoor_scenes,1800,0,10,2
127,39781,0,128,2,2,1,gain4,no_gain6,A,K,46,25,objects,42,29,body_parts,Stimuli/Experimental_stims/objects/mockup-graphics-PNsj6RiHAF4-unsplash.jpg,Stimuli/Experimental_stims/body_parts/engin-akyurt-Q2rfH3GW39c-unsplash.jpg,0,0,530,0,unchosen,25,46,body_parts,objects,1200,0,10,2
128,39781,0,129,2,2,0,no_gain1,gain2,B,J,20,42,faces,48,40,objects,Stimuli/Experimental_stims/faces/justin-chen-J7Cf1Gch49E-unsplash.jpg,Stimuli/Experimental_stims/objects/jess-bailey-nOeVi8DsN8U-unsplash.jpg,0,1,560,0,unchosen,20,42,faces,objects,3800,1,10,2
129,39781,0,130,2,2,1,gain1,no_gain6,E,K,36,44,objects,73,47,objects,Stimuli/Experimental_stims/objects/alexander-andrews-JYGnB9gTCls-unsplash.jpg,Stimuli/Experimental_stims/objects/kuiye-chen-NuOGFo4PudE-unsplash.jpg,0,1,617,1,chosen,36,44,objects,objects,1300,0,10,2
130,39781,0,131,2,2,1,gain6,no_gain4,H,I,12,24,faces,75,30,body_parts,Stimuli/Experimental_stims/faces/aiony-haust-jmATI5Q_YgY-unsplash.jpg,Stimuli/Experimental_stims/body_parts/clay-banks-LjqARJaJotc-unsplash.jpg,0,0,590,0,unchosen,24,12,body_parts,faces,2900,0,10,2
131,39781,0,132,2,2,0,no_gain5,gain2,L,J,16,13,faces,66,66,faces,Stimuli/Experimental_stims/faces/freddy-kearney-o-ioeoATbIM-unsplash.jpg,Stimuli/Experimental_stims/faces/daniel-rigdon-dXmXKPP2L4E-unsplash.jpg,0,0,661,1,chosen,13,16,faces,faces,1200,0,10,2
132,39781,0,133,2,2,0,no_gain5,gain6,L,H,16,2,faces,66,87,outdoor_scenes,Stimuli/Experimental_stims/faces/freddy-kearney-o-ioeoATbIM-unsplash.jpg,Stimuli/Experimental_stims/outdoor_scenes/bruno-van-der-kraan-qez8mNJ3ilU-unsplash.jpg,0,0,498,1,chosen,2,16,outdoor_scenes,faces,1300,0,10,2
133,39781,0,134,2,2,0,no_gain2,gain6,G,H,37,12,objects,57,75,faces,Stimuli/Experimental_stims/objects/alexander-andrews-VLGWE_SumrA-unsplash.jpg,Stimuli/Experimental_stims/faces/aiony-haust-jmATI5Q_YgY-unsplash.jpg,0,1,790,0,unchosen,37,12,objects,faces,2500,0,10,2
134,39781,0,135,2,2,1,gain5,no_gain3,C,F,10,21,outdoor_scenes,68,73,faces,Stimuli/Experimental_stims/outdoor_scenes/shannon-kunkle-dM8INmkyDas-unsplash.jpg,Stimuli/Experimental_stims/faces/leilani-angel-K84vnnzxmTQ-unsplash.jpg,0,1,491,1,chosen,10,21,outdoor_scenes,faces,3000,0,10,2
135,39781,0,136,2,2,1,gain4,no_gain5,A,L,4,16,outdoor_scenes,89,66,faces,Stimuli/Experimental_stims/outdoor_scenes/jarrett-kow-1ZOyYPOBn7I-unsplash.jpg,Stimuli/Experimental_stims/faces/freddy-kearney-o-ioeoATbIM-unsplash.jpg,0,1,522,1,chosen,4,16,outdoor_scenes,faces,4200,1,10,2
136,39781,0,137,2,2,0,no_gain6,gain6,K,H,25,12,body_parts,29,75,faces,Stimuli/Experimental_stims/body_parts/engin-akyurt-Q2rfH3GW39c-unsplash.jpg,Stimuli/Experimental_stims/faces/aiony-haust-jmATI5Q_YgY-unsplash.jpg,0,1,640,0,unchosen,25,12,body_parts,faces,1700,0,10,2
137,39781,0,138,2,2,0,no_gain3,gain1,F,E,21,36,faces,73,73,objects,Stimuli/Experimental_stims/faces/leilani-angel-K84vnnzxmTQ-unsplash.jpg,Stimuli/Experimental_stims/objects/alexander-andrews-JYGnB9gTCls-unsplash.jpg,0,0,589,1,chosen,36,21,objects,faces,1300,0,10,2
138,39781,0,139,2,2,0,no_gain2,gain1,G,E,6,36,outdoor_scenes,94,73,objects,Stimuli/Experimental_stims/outdoor_scenes/meng-ji-8BH_M-53CyA-unsplash.jpg,Stimuli/Experimental_stims/objects/alexander-andrews-JYGnB9gTCls-unsplash.jpg,0,0,490,1,chosen,36,6,objects,outdoor_scenes,1100,0,10,2
139,39781,0,140,2,2,0,no_gain2,gain6,G,H,6,2,outdoor_scenes,94,87,outdoor_scenes,Stimuli/Experimental_stims/outdoor_scenes/meng-ji-8BH_M-53CyA-unsplash.jpg,Stimuli/Experimental_stims/outdoor_scenes/bruno-van-der-kraan-qez8mNJ3ilU-unsplash.jpg,0,0,582,1,chosen,2,6,outdoor_scenes,outdoor_scenes,1300,0,10,2
140,39781,0,141,2,2,1,gain5,no_gain4,C,I,34,24,body_parts,41,30,body_parts,Stimuli/Experimental_stims/body_parts/wagner-santos-mBWMvIuVnso-unsplash.jpg,Stimuli/Experimental_stims/body_parts/clay-banks-LjqARJaJotc-unsplash.jpg,0,0,419,0,unchosen,24,34,body_parts,body_parts,1500,0,10,2
141,39781,0,142,2,2,0,no_gain5,gain1,L,E,16,36,faces,66,73,objects,Stimuli/Experimental_stims/faces/freddy-kearney-o-ioeoATbIM-unsplash.jpg,Stimuli/Experimental_stims/objects/alexander-andrews-JYGnB9gTCls-unsplash.jpg,0,0,477,1,chosen,36,16,objects,faces,1800,0,10,2
142,39781,0,143,2,2,0,no_gain1,gain4,B,A,20,46,faces,48,42,objects,Stimuli/Experimental_stims/faces/justin-chen-J7Cf1Gch49E-unsplash.jpg,Stimuli/Experimental_stims/objects/mockup-graphics-PNsj6RiHAF4-unsplash.jpg,0,1,505,0,unchosen,20,46,faces,objects,1400,0,10,2
143,39781,0,144,2,2,1,gain3,no_gain5,D,L,45,29,objects,67,63,body_parts,Stimuli/Experimental_stims/objects/leohoho-rngTKHXumy0-unsplash.jpg,Stimuli/Experimental_stims/body_parts/manuel-schinner-ZwjFuJ7ebpk-unsplash.jpg,0,0,668,0,unchosen,29,45,body_parts,objects,1400,0,10,2
144,39781,0,145,2,2,0,no_gain4,gain3,I,D,7,17,outdoor_scenes,89,78,faces,Stimuli/Experimental_stims/outdoor_scenes/petr-vysohlid-9fqwGqGLUxc-unsplash.jpg,Stimuli/Experimental_stims/faces/good-faces-xmSWVeGEnJw-unsplash.jpg,0,0,486,1,chosen,17,7,faces,outdoor_scenes,1600,0,10,2
145,39781,0,146,2,2,1,gain1,no_gain3,E,F,33,32,body_parts,64,36,body_parts,Stimuli/Experimental_stims/body_parts/tucker-good-36skLT5jZcc-unsplash.jpg,Stimuli/Experimental_stims/body_parts/towfiqu-barbhuiya-3AsiVDsZnHg-unsplash.jpg,0,0,834,0,unchosen,32,33,body_parts,body_parts,2000,0,10,2
146,39781,0,147,2,2,0,no_gain1,gain1,B,E,20,33,faces,48,64,body_parts,Stimuli/Experimental_stims/faces/justin-chen-J7Cf1Gch49E-unsplash.jpg,Stimuli/Experimental_stims/body_parts/tucker-good-36skLT5jZcc-unsplash.jpg,0,1,777,0,unchosen,20,33,faces,body_parts,2500,0,10,2
147,39781,0,148,2,2,1,gain2,no_gain3,J,F,13,21,faces,66,73,faces,Stimuli/Experimental_stims/faces/daniel-rigdon-dXmXKPP2L4E-unsplash.jpg,Stimuli/Experimental_stims/faces/leilani-angel-K84vnnzxmTQ-unsplash.jpg,0,1,533,1,chosen,13,21,faces,faces,3300,1,10,2
148,39781,0,149,3,3,0,no_gain1,gain2,B,J,20,42,faces,48,40,objects,Stimuli/Experimental_stims/faces/justin-chen-J7Cf1Gch49E-unsplash.jpg,Stimuli/Experimental_stims/objects/jess-bailey-nOeVi8DsN8U-unsplash.jpg,0,1,861,0,unchosen,20,42,faces,objects,2200,0,10,2
149,39781,0,150,3,3,1,gain2,no_gain4,J,I,42,24,objects,40,30,body_parts,Stimuli/Experimental_stims/objects/jess-bailey-nOeVi8DsN8U-unsplash.jpg,Stimuli/Experimental_stims/body_parts/clay-banks-LjqARJaJotc-unsplash.jpg,0,0,889,0,unchosen,24,42,body_parts,objects,1200,0,10,2
150,39781,0,151,3,3,0,no_gain5,gain1,L,E,29,33,body_parts,63,64,body_parts,Stimuli/Experimental_stims/body_parts/manuel-schinner-ZwjFuJ7ebpk-unsplash.jpg,Stimuli/Experimental_stims/body_parts/tucker-good-36skLT5jZcc-unsplash.jpg,0,1,969,0,unchosen,29,33,body_parts,body_parts,1700,0,10,2
151,39781,0,152,3,3,0,no_gain6,gain4,K,A,44,4,objects,47,89,outdoor_scenes,Stimuli/Experimental_stims/objects/kuiye-chen-NuOGFo4PudE-unsplash.jpg,Stimuli/Experimental_stims/outdoor_scenes/jarrett-kow-1ZOyYPOBn7I-unsplash.jpg,0,0,661,1,chosen,4,44,outdoor_scenes,objects,1100,0,10,2
152,39781,0,153,3,3,0,no_gain1,gain3,B,D,0,17,outdoor_scenes,82,78,faces,Stimuli/Experimental_stims/outdoor_scenes/aleksandra-boguslawska-MS7KD9Ti7FQ-unsplash.jpg,Stimuli/Experimental_stims/faces/good-faces-xmSWVeGEnJw-unsplash.jpg,0,0,789,1,chosen,17,0,faces,outdoor_scenes,1000,0,10,2
153,39781,0,154,3,3,1,gain4,no_gain3,A,F,46,32,objects,42,36,body_parts,Stimuli/Experimental_stims/objects/mockup-graphics-PNsj6RiHAF4-unsplash.jpg,Stimuli/Experimental_stims/body_parts/towfiqu-barbhuiya-3AsiVDsZnHg-unsplash.jpg,0,0,989,0,unchosen,32,46,body_parts,objects,1900,0,10,2
154,39781,0,155,3,3,1,gain3,no_gain3,D,F,45,32,objects,67,36,body_parts,Stimuli/Experimental_stims/objects/leohoho-rngTKHXumy0-unsplash.jpg,Stimuli/Experimental_stims/body_parts/towfiqu-barbhuiya-3AsiVDsZnHg-unsplash.jpg,0,0,686,0,unchosen,32,45,body_parts,objects,4700,1,10,2
155,39781,0,156,3,3,1,gain5,no_gain5,C,L,10,16,outdoor_scenes,68,66,faces,Stimuli/Experimental_stims/outdoor_scenes/shannon-kunkle-dM8INmkyDas-unsplash.jpg,Stimuli/Experimental_stims/faces/freddy-kearney-o-ioeoATbIM-unsplash.jpg,0,1,493,1,chosen,10,16,outdoor_scenes,faces,2400,0,10,2
156,39781,0,157,3,3,1,gain6,no_gain3,H,F,12,32,faces,75,36,body_parts,Stimuli/Experimental_stims/faces/aiony-haust-jmATI5Q_YgY-unsplash.jpg,Stimuli/Experimental_stims/body_parts/towfiqu-barbhuiya-3AsiVDsZnHg-unsplash.jpg,0,0,616,0,unchosen,32,12,body_parts,faces,1900,0,10,2
157,39781,0,158,3,3,1,gain1,no_gain4,E,I,36,7,objects,73,89,outdoor_scenes,Stimuli/Experimental_stims/objects/alexander-andrews-JYGnB9gTCls-unsplash.jpg,Stimuli/Experimental_stims/outdoor_scenes/petr-vysohlid-9fqwGqGLUxc-unsplash.jpg,0,1,694,1,chosen,36,7,objects,outdoor_scenes,1000,0,10,2
158,39781,0,159,3,3,0,no_gain2,gain6,G,H,6,2,outdoor_scenes,94,87,outdoor_scenes,Stimuli/Experimental_stims/outdoor_scenes/meng-ji-8BH_M-53CyA-unsplash.jpg,Stimuli/Experimental_stims/outdoor_scenes/bruno-van-der-kraan-qez8mNJ3ilU-unsplash.jpg,0,0,1056,1,chosen,2,6,outdoor_scenes,outdoor_scenes,1800,0,10,2
159,39781,0,160,3,3,1,gain4,no_gain4,A,I,46,24,objects,42,30,body_parts,Stimuli/Experimental_stims/objects/mockup-graphics-PNsj6RiHAF4-unsplash.jpg,Stimuli/Experimental_stims/body_parts/clay-banks-LjqARJaJotc-unsplash.jpg,0,0,633,0,unchosen,24,46,body_parts,objects,1800,0,10,2
160,39781,0,161,3,3,0,no_gain4,gain3,I,D,24,45,body_parts,30,67,objects,Stimuli/Experimental_stims/body_parts/clay-banks-LjqARJaJotc-unsplash.jpg,Stimuli/Experimental_stims/objects/leohoho-rngTKHXumy0-unsplash.jpg,0,1,522,0,unchosen,24,45,body_parts,objects,4700,1,10,2
161,39781,0,162,3,3,0,no_gain1,gain4,B,A,20,46,faces,48,42,objects,Stimuli/Experimental_stims/faces/justin-chen-J7Cf1Gch49E-unsplash.jpg,Stimuli/Experimental_stims/objects/mockup-graphics-PNsj6RiHAF4-unsplash.jpg,0,1,541,0,unchosen,20,46,faces,objects,1300,0,10,2
162,39781,0,163,3,3,1,gain2,no_gain5,J,L,13,16,faces,66,66,faces,Stimuli/Experimental_stims/faces/daniel-rigdon-dXmXKPP2L4E-unsplash.jpg,Stimuli/Experimental_stims/faces/freddy-kearney-o-ioeoATbIM-unsplash.jpg,0,1,718,1,chosen,13,16,faces,faces,1200,0,10,2
163,39781,0,164,3,3,0,no_gain3,gain4,F,A,21,4,faces,73,89,outdoor_scenes,Stimuli/Experimental_stims/faces/leilani-angel-K84vnnzxmTQ-unsplash.jpg,Stimuli/Experimental_stims/outdoor_scenes/jarrett-kow-1ZOyYPOBn7I-unsplash.jpg,0,0,521,1,chosen,4,21,outdoor_scenes,faces,1600,0,10,2
164,39781,0,165,3,3,0,no_gain2,gain5,G,C,37,34,objects,57,41,body_parts,Stimuli/Experimental_stims/objects/alexander-andrews-VLGWE_SumrA-unsplash.jpg,Stimuli/Experimental_stims/body_parts/wagner-santos-mBWMvIuVnso-unsplash.jpg,0,1,913,0,unchosen,37,34,objects,body_parts,1200,0,10,2
165,39781,0,166,3,3,1,gain6,no_gain5,H,L,12,29,faces,75,63,body_parts,Stimuli/Experimental_stims/faces/aiony-haust-jmATI5Q_YgY-unsplash.jpg,Stimuli/Experimental_stims/body_parts/manuel-schinner-ZwjFuJ7ebpk-unsplash.jpg,0,0,865,0,unchosen,29,12,body_parts,faces,1100,0,10,2
166,39781,0,167,3,3,0,no_gain6,gain3,K,D,44,17,objects,47,78,faces,Stimuli/Experimental_stims/objects/kuiye-chen-NuOGFo4PudE-unsplash.jpg,Stimuli/Experimental_stims/faces/good-faces-xmSWVeGEnJw-unsplash.jpg,0,0,510,1,chosen,17,44,faces,objects,3100,1,10,2
167,39781,0,168,3,3,0,no_gain5,gain3,L,D,29,45,body_parts,63,67,objects,Stimuli/Experimental_stims/body_parts/manuel-schinner-ZwjFuJ7ebpk-unsplash.jpg,Stimuli/Experimental_stims/objects/leohoho-rngTKHXumy0-unsplash.jpg,0,1,550,0,unchosen,29,45,body_parts,objects,1500,0,10,2
168,39781,0,169,3,3,0,no_gain4,gain3,I,D,7,17,outdoor_scenes,89,78,faces,Stimuli/Experimental_stims/outdoor_scenes/petr-vysohlid-9fqwGqGLUxc-unsplash.jpg,Stimuli/Experimental_stims/faces/good-faces-xmSWVeGEnJw-unsplash.jpg,0,0,597,1,chosen,17,7,faces,outdoor_scenes,1000,0,10,2
169,39781,0,170,3,3,0,no_gain5,gain2,L,J,29,42,body_parts,63,40,objects,Stimuli/Experimental_stims/body_parts/manuel-schinner-ZwjFuJ7ebpk-unsplash.jpg,Stimuli/Experimental_stims/objects/jess-bailey-nOeVi8DsN8U-unsplash.jpg,0,1,870,0,unchosen,29,42,body_parts,objects,1500,0,10,2
170,39781,0,171,3,3,0,no_gain3,gain2,F,J,21,13,faces,73,66,faces,Stimuli/Experimental_stims/faces/leilani-angel-K84vnnzxmTQ-unsplash.jpg,Stimuli/Experimental_stims/faces/daniel-rigdon-dXmXKPP2L4E-unsplash.jpg,0,0,645,1,chosen,13,21,faces,faces,1400,0,10,2
171,39781,0,172,3,3,1,gain1,no_gain2,E,G,36,6,objects,73,94,outdoor_scenes,Stimuli/Experimental_stims/objects/alexander-andrews-JYGnB9gTCls-unsplash.jpg,Stimuli/Experimental_stims/outdoor_scenes/meng-ji-8BH_M-53CyA-unsplash.jpg,0,1,569,1,chosen,36,6,objects,outdoor_scenes,3500,1,10,2
172,39781,0,173,3,3,0,no_gain4,gain2,I,J,7,13,outdoor_scenes,89,66,faces,Stimuli/Experimental_stims/outdoor_scenes/petr-vysohlid-9fqwGqGLUxc-unsplash.jpg,Stimuli/Experimental_stims/faces/daniel-rigdon-dXmXKPP2L4E-unsplash.jpg,0,0,807,1,chosen,13,7,faces,outdoor_scenes,1600,0,10,2
173,39781,0,174,3,3,0,no_gain4,gain5,I,C,24,34,body_parts,30,41,body_parts,Stimuli/Experimental_stims/body_parts/clay-banks-LjqARJaJotc-unsplash.jpg,Stimuli/Experimental_stims/body_parts/wagner-santos-mBWMvIuVnso-unsplash.jpg,0,1,872,0,unchosen,24,34,body_parts,body_parts,2200,0,10,2
174,39781,0,175,3,3,0,no_gain3,gain2,F,J,32,42,body_parts,36,40,objects,Stimuli/Experimental_stims/body_parts/towfiqu-barbhuiya-3AsiVDsZnHg-unsplash.jpg,Stimuli/Experimental_stims/objects/jess-bailey-nOeVi8DsN8U-unsplash.jpg,0,1,586,0,unchosen,32,42,body_parts,objects,1200,0,10,2
175,39781,0,176,3,3,1,gain2,no_gain2,J,G,42,37,objects,40,57,objects,Stimuli/Experimental_stims/objects/jess-bailey-nOeVi8DsN8U-unsplash.jpg,Stimuli/Experimental_stims/objects/alexander-andrews-VLGWE_SumrA-unsplash.jpg,0,0,655,0,unchosen,37,42,objects,objects,1900,0,10,2
176,39781,0,177,3,3,0,no_gain6,gain5,K,C,44,10,objects,47,68,outdoor_scenes,Stimuli/Experimental_stims/objects/kuiye-chen-NuOGFo4PudE-unsplash.jpg,Stimuli/Experimental_stims/outdoor_scenes/shannon-kunkle-dM8INmkyDas-unsplash.jpg,0,0,556,1,chosen,10,44,outdoor_scenes,objects,2000,0,10,2
177,39781,0,178,3,3,1,gain6,no_gain1,H,B,2,0,outdoor_scenes,87,82,outdoor_scenes,Stimuli/Experimental_stims/outdoor_scenes/bruno-van-der-kraan-qez8mNJ3ilU-unsplash.jpg,Stimuli/Experimental_stims/outdoor_scenes/aleksandra-boguslawska-MS7KD9Ti7FQ-unsplash.jpg,0,1,789,1,chosen,2,0,outdoor_scenes,outdoor_scenes,1800,0,10,2
178,39781,0,179,3,3,0,no_gain1,gain2,B,J,0,13,outdoor_scenes,82,66,faces,Stimuli/Experimental_stims/outdoor_scenes/aleksandra-boguslawska-MS7KD9Ti7FQ-unsplash.jpg,Stimuli/Experimental_stims/faces/daniel-rigdon-dXmXKPP2L4E-unsplash.jpg,0,0,577,1,chosen,13,0,faces,outdoor_scenes,2200,0,10,2
179,39781,0,180,3,3,0,no_gain2,gain3,G,D,37,45,objects,57,67,objects,Stimuli/Experimental_stims/objects/alexander-andrews-VLGWE_SumrA-unsplash.jpg,Stimuli/Experimental_stims/objects/leohoho-rngTKHXumy0-unsplash.jpg,0,1,505,0,unchosen,37,45,objects,objects,2300,0,10,2
180,39781,0,181,3,3,1,gain6,no_gain3,H,F,2,21,outdoor_scenes,87,73,faces,Stimuli/Experimental_stims/outdoor_scenes/bruno-van-der-kraan-qez8mNJ3ilU-unsplash.jpg,Stimuli/Experimental_stims/faces/leilani-angel-K84vnnzxmTQ-unsplash.jpg,0,1,518,1,chosen,2,21,outdoor_scenes,faces,4300,1,10,2
181,39781,0,182,3,3,1,gain5,no_gain3,C,F,10,21,outdoor_scenes,68,73,faces,Stimuli/Experimental_stims/outdoor_scenes/shannon-kunkle-dM8INmkyDas-unsplash.jpg,Stimuli/Experimental_stims/faces/leilani-angel-K84vnnzxmTQ-unsplash.jpg,0,1,562,1,chosen,10,21,outdoor_scenes,faces,1600,0,10,2
182,39781,0,183,3,3,0,no_gain2,gain4,G,A,37,46,objects,57,42,objects,Stimuli/Experimental_stims/objects/alexander-andrews-VLGWE_SumrA-unsplash.jpg,Stimuli/Experimental_stims/objects/mockup-graphics-PNsj6RiHAF4-unsplash.jpg,0,1,762,0,unchosen,37,46,objects,objects,1600,0,10,2
183,39781,0,184,3,3,1,gain3,no_gain1,D,B,45,20,objects,67,48,faces,Stimuli/Experimental_stims/objects/leohoho-rngTKHXumy0-unsplash.jpg,Stimuli/Experimental_stims/faces/justin-chen-J7Cf1Gch49E-unsplash.jpg,0,1,777,1,unchosen,45,20,objects,faces,1100,0,10,2
184,39781,0,185,3,3,1,gain6,no_gain6,H,K,2,44,outdoor_scenes,87,47,objects,Stimuli/Experimental_stims/outdoor_scenes/bruno-van-der-kraan-qez8mNJ3ilU-unsplash.jpg,Stimuli/Experimental_stims/objects/kuiye-chen-NuOGFo4PudE-unsplash.jpg,0,1,589,1,chosen,2,44,outdoor_scenes,objects,1000,0,10,2
185,39781,0,186,3,3,0,no_gain1,gain5,B,C,0,10,outdoor_scenes,82,68,outdoor_scenes,Stimuli/Experimental_stims/outdoor_scenes/aleksandra-boguslawska-MS7KD9Ti7FQ-unsplash.jpg,Stimuli/Experimental_stims/outdoor_scenes/shannon-kunkle-dM8INmkyDas-unsplash.jpg,0,0,496,1,chosen,10,0,outdoor_scenes,outdoor_scenes,1000,0,10,2
186,39781,0,187,3,3,0,no_gain1,gain5,B,C,20,34,faces,48,41,body_parts,Stimuli/Experimental_stims/faces/justin-chen-J7Cf1Gch49E-unsplash.jpg,Stimuli/Experimental_stims/body_parts/wagner-santos-mBWMvIuVnso-unsplash.jpg,0,1,657,0,unchosen,20,34,faces,body_parts,3000,1,10,2
187,39781,0,188,3,3,1,gain4,no_gain1,A,B,4,0,outdoor_scenes,89,82,outdoor_scenes,Stimuli/Experimental_stims/outdoor_scenes/jarrett-kow-1ZOyYPOBn7I-unsplash.jpg,Stimuli/Experimental_stims/outdoor_scenes/aleksandra-boguslawska-MS7KD9Ti7FQ-unsplash.jpg,0,1,553,1,chosen,4,0,outdoor_scenes,outdoor_scenes,1000,0,10,2
188,39781,0,189,3,3,1,gain3,no_gain3,D,F,17,21,faces,78,73,faces,Stimuli/Experimental_stims/faces/good-faces-xmSWVeGEnJw-unsplash.jpg,Stimuli/Experimental_stims/faces/leilani-angel-K84vnnzxmTQ-unsplash.jpg,0,1,873,1,chosen,17,21,faces,faces,1600,0,10,2
189,39781,0,190,3,3,0,no_gain2,gain5,G,C,6,10,outdoor_scenes,94,68,outdoor_scenes,Stimuli/Experimental_stims/outdoor_scenes/meng-ji-8BH_M-53CyA-unsplash.jpg,Stimuli/Experimental_stims/outdoor_scenes/shannon-kunkle-dM8INmkyDas-unsplash.jpg,0,0,529,1,chosen,10,6,outdoor_scenes,outdoor_scenes,1500,0,10,2
190,39781,0,191,3,3,0,no_gain1,gain6,B,H,20,12,faces,48,75,faces,Stimuli/Experimental_stims/faces/justin-chen-J7Cf1Gch49E-unsplash.jpg,Stimuli/Experimental_stims/faces/aiony-haust-jmATI5Q_YgY-unsplash.jpg,0,1,534,0,unchosen,20,12,faces,faces,1700,0,10,2
191,39781,0,192,3,3,1,gain5,no_gain6,C,K,34,25,body_parts,41,29,body_parts,Stimuli/Experimental_stims/body_parts/wagner-santos-mBWMvIuVnso-unsplash.jpg,Stimuli/Experimental_stims/body_parts/engin-akyurt-Q2rfH3GW39c-unsplash.jpg,0,0,844,0,unchosen,25,34,body_parts,body_parts,1300,0,10,2
192,39781,0,193,3,3,0,no_gain5,gain4,L,A,29,46,body_parts,63,42,objects,Stimuli/Experimental_stims/body_parts/manuel-schinner-ZwjFuJ7ebpk-unsplash.jpg,Stimuli/Experimental_stims/objects/mockup-graphics-PNsj6RiHAF4-unsplash.jpg,0,1,902,0,unchosen,29,46,body_parts,objects,1300,0,10,2
193,39781,0,194,3,3,1,gain1,no_gain5,E,L,36,16,objects,73,66,faces,Stimuli/Experimental_stims/objects/alexander-andrews-JYGnB9gTCls-unsplash.jpg,Stimuli/Experimental_stims/faces/freddy-kearney-o-ioeoATbIM-unsplash.jpg,0,1,533,1,chosen,36,16,objects,faces,3600,1,10,2
194,39781,0,195,3,3,1,gain6,no_gain4,H,I,12,24,faces,75,30,body_parts,Stimuli/Experimental_stims/faces/aiony-haust-jmATI5Q_YgY-unsplash.jpg,Stimuli/Experimental_stims/body_parts/clay-banks-LjqARJaJotc-unsplash.jpg,0,0,474,0,unchosen,24,12,body_parts,faces,2100,0,10,2
195,39781,0,196,3,3,1,gain1,no_gain1,E,B,36,0,objects,73,82,outdoor_scenes,Stimuli/Experimental_stims/objects/alexander-andrews-JYGnB9gTCls-unsplash.jpg,Stimuli/Experimental_stims/outdoor_scenes/aleksandra-boguslawska-MS7KD9Ti7FQ-unsplash.jpg,0,1,500,1,chosen,36,0,objects,outdoor_scenes,1600,0,10,2
196,39781,0,197,3,3,1,gain4,no_gain6,A,K,46,25,objects,42,29,body_parts,Stimuli/Experimental_stims/objects/mockup-graphics-PNsj6RiHAF4-unsplash.jpg,Stimuli/Experimental_stims/body_parts/engin-akyurt-Q2rfH3GW39c-unsplash.jpg,0,0,481,0,unchosen,25,46,body_parts,objects,1800,0,10,2
197,39781,0,198,3,3,1,gain3,no_gain6,D,K,45,25,objects,67,29,body_parts,Stimuli/Experimental_stims/objects/leohoho-rngTKHXumy0-unsplash.jpg,Stimuli/Experimental_stims/body_parts/engin-akyurt-Q2rfH3GW39c-unsplash.jpg,0,0,416,0,unchosen,25,45,body_parts,objects,1600,0,10,2
198,39781,0,199,3,3,1,gain1,no_gain3,E,F,36,21,objects,73,73,faces,Stimuli/Experimental_stims/objects/alexander-andrews-JYGnB9gTCls-unsplash.jpg,Stimuli/Experimental_stims/faces/leilani-angel-K84vnnzxmTQ-unsplash.jpg,0,1,801,1,chosen,36,21,objects,faces,3100,1,10,2
199,39781,0,200,3,3,0,no_gain5,gain4,L,A,16,4,faces,66,89,outdoor_scenes,Stimuli/Experimental_stims/faces/freddy-kearney-o-ioeoATbIM-unsplash.jpg,Stimuli/Experimental_stims/outdoor_scenes/jarrett-kow-1ZOyYPOBn7I-unsplash.jpg,0,0,466,1,chosen,4,16,outdoor_scenes,faces,2500,0,10,2
200,39781,0,201,3,3,0,no_gain1,gain1,B,E,20,33,faces,48,64,body_parts,Stimuli/Experimental_stims/faces/justin-chen-J7Cf1Gch49E-unsplash.jpg,Stimuli/Experimental_stims/body_parts/tucker-good-36skLT5jZcc-unsplash.jpg,0,1,534,0,unchosen,20,33,faces,body_parts,2000,0,10,2
201,39781,0,202,3,3,0,no_gain4,gain4,I,A,7,4,outdoor_scenes,89,89,outdoor_scenes,Stimuli/Experimental_stims/outdoor_scenes/petr-vysohlid-9fqwGqGLUxc-unsplash.jpg,Stimuli/Experimental_stims/outdoor_scenes/jarrett-kow-1ZOyYPOBn7I-unsplash.jpg,0,0,455,1,chosen,4,7,outdoor_scenes,outdoor_scenes,2100,0,10,2
202,39781,0,203,3,3,1,gain3,no_gain5,D,L,17,16,faces,78,66,faces,Stimuli/Experimental_stims/faces/good-faces-xmSWVeGEnJw-unsplash.jpg,Stimuli/Experimental_stims/faces/freddy-kearney-o-ioeoATbIM-unsplash.jpg,0,1,477,1,chosen,17,16,faces,faces,1200,0,10,2
203,39781,0,204,3,3,1,gain1,no_gain6,E,K,33,25,body_parts,64,29,body_parts,Stimuli/Experimental_stims/body_parts/tucker-good-36skLT5jZcc-unsplash.jpg,Stimuli/Experimental_stims/body_parts/engin-akyurt-Q2rfH3GW39c-unsplash.jpg,0,0,482,0,unchosen,25,33,body_parts,body_parts,3300,1,10,2
204,39781,0,205,3,3,1,gain3,no_gain2,D,G,17,6,faces,78,94,outdoor_scenes,Stimuli/Experimental_stims/faces/good-faces-xmSWVeGEnJw-unsplash.jpg,Stimuli/Experimental_stims/outdoor_scenes/meng-ji-8BH_M-53CyA-unsplash.jpg,0,1,517,1,chosen,17,6,faces,outdoor_scenes,2100,0,10,2
205,39781,0,206,3,3,0,no_gain4,gain5,I,C,7,10,outdoor_scenes,89,68,outdoor_scenes,Stimuli/Experimental_stims/outdoor_scenes/petr-vysohlid-9fqwGqGLUxc-unsplash.jpg,Stimuli/Experimental_stims/outdoor_scenes/shannon-kunkle-dM8INmkyDas-unsplash.jpg,0,0,494,1,chosen,10,7,outdoor_scenes,outdoor_scenes,2100,0,10,2
206,39781,0,207,3,3,1,gain2,no_gain6,J,K,13,44,faces,66,47,objects,Stimuli/Experimental_stims/faces/daniel-rigdon-dXmXKPP2L4E-unsplash.jpg,Stimuli/Experimental_stims/objects/kuiye-chen-NuOGFo4PudE-unsplash.jpg,0,1,557,1,chosen,13,44,faces,objects,2600,0,10,2
207,39781,0,208,3,3,1,gain1,no_gain2,E,G,33,37,body_parts,64,57,objects,Stimuli/Experimental_stims/body_parts/tucker-good-36skLT5jZcc-unsplash.jpg,Stimuli/Experimental_stims/objects/alexander-andrews-VLGWE_SumrA-unsplash.jpg,0,0,578,0,unchosen,37,33,objects,body_parts,2800,0,10,2
208,39781,0,209,3,3,1,gain1,no_gain4,E,I,33,24,body_parts,64,30,body_parts,Stimuli/Experimental_stims/body_parts/tucker-good-36skLT5jZcc-unsplash.jpg,Stimuli/Experimental_stims/body_parts/clay-banks-LjqARJaJotc-unsplash.jpg,0,0,448,0,unchosen,24,33,body_parts,body_parts,2100,0,10,2
209,39781,0,210,3,3,0,no_gain6,gain1,K,E,44,36,objects,47,73,objects,Stimuli/Experimental_stims/objects/kuiye-chen-NuOGFo4PudE-unsplash.jpg,Stimuli/Experimental_stims/objects/alexander-andrews-JYGnB9gTCls-unsplash.jpg,0,0,542,1,chosen,36,44,objects,objects,1300,0,10,2
210,39781,0,211,3,3,0,no_gain5,gain6,L,H,16,2,faces,66,87,outdoor_scenes,Stimuli/Experimental_stims/faces/freddy-kearney-o-ioeoATbIM-unsplash.jpg,Stimuli/Experimental_stims/outdoor_scenes/bruno-van-der-kraan-qez8mNJ3ilU-unsplash.jpg,0,0,461,1,chosen,2,16,outdoor_scenes,faces,3900,1,10,2
211,39781,0,212,3,3,0,no_gain2,gain6,G,H,37,12,objects,57,75,faces,Stimuli/Experimental_stims/objects/alexander-andrews-VLGWE_SumrA-unsplash.jpg,Stimuli/Experimental_stims/faces/aiony-haust-jmATI5Q_YgY-unsplash.jpg,0,1,852,0,unchosen,37,12,objects,faces,1600,0,10,2
212,39781,0,213,3,3,1,gain4,no_gain2,A,G,4,6,outdoor_scenes,89,94,outdoor_scenes,Stimuli/Experimental_stims/outdoor_scenes/jarrett-kow-1ZOyYPOBn7I-unsplash.jpg,Stimuli/Experimental_stims/outdoor_scenes/meng-ji-8BH_M-53CyA-unsplash.jpg,0,1,1008,1,chosen,4,6,outdoor_scenes,outdoor_scenes,1300,0,10,2
213,39781,0,214,3,3,0,no_gain3,gain5,F,C,32,34,body_parts,36,41,body_parts,Stimuli/Experimental_stims/body_parts/towfiqu-barbhuiya-3AsiVDsZnHg-unsplash.jpg,Stimuli/Experimental_stims/body_parts/wagner-santos-mBWMvIuVnso-unsplash.jpg,0,1,1268,0,unchosen,32,34,body_parts,body_parts,1700,0,10,2
214,39781,0,215,3,3,1,gain2,no_gain6,J,K,42,25,objects,40,29,body_parts,Stimuli/Experimental_stims/objects/jess-bailey-nOeVi8DsN8U-unsplash.jpg,Stimuli/Experimental_stims/body_parts/engin-akyurt-Q2rfH3GW39c-unsplash.jpg,0,0,532,0,unchosen,25,42,body_parts,objects,1600,0,10,2
215,39781,0,216,3,3,0,no_gain4,gain6,I,H,7,2,outdoor_scenes,89,87,outdoor_scenes,Stimuli/Experimental_stims/outdoor_scenes/petr-vysohlid-9fqwGqGLUxc-unsplash.jpg,Stimuli/Experimental_stims/outdoor_scenes/bruno-van-der-kraan-qez8mNJ3ilU-unsplash.jpg,0,0,704,1,chosen,2,7,outdoor_scenes,outdoor_scenes,3600,1,10,2
216,39781,0,217,3,3,1,gain5,no_gain5,C,L,34,29,body_parts,41,63,body_parts,Stimuli/Experimental_stims/body_parts/wagner-santos-mBWMvIuVnso-unsplash.jpg,Stimuli/Experimental_stims/body_parts/manuel-schinner-ZwjFuJ7ebpk-unsplash.jpg,0,0,664,0,unchosen,29,34,body_parts,body_parts,2700,0,10,2
217,39781,0,218,3,3,1,gain2,no_gain2,J,G,13,6,faces,66,94,outdoor_scenes,Stimuli/Experimental_stims/faces/daniel-rigdon-dXmXKPP2L4E-unsplash.jpg,Stimuli/Experimental_stims/outdoor_scenes/meng-ji-8BH_M-53CyA-unsplash.jpg,0,1,478,1,chosen,13,6,faces,outdoor_scenes,2800,0,10,2
218,39781,0,219,3,3,0,no_gain6,gain6,K,H,25,12,body_parts,29,75,faces,Stimuli/Experimental_stims/body_parts/engin-akyurt-Q2rfH3GW39c-unsplash.jpg,Stimuli/Experimental_stims/faces/aiony-haust-jmATI5Q_YgY-unsplash.jpg,0,1,650,0,unchosen,25,12,body_parts,faces,2800,0,10,2
219,39781,0,220,3,3,1,gain1,no_gain3,E,F,33,32,body_parts,64,36,body_parts,Stimuli/Experimental_stims/body_parts/tucker-good-36skLT5jZcc-unsplash.jpg,Stimuli/Experimental_stims/body_parts/towfiqu-barbhuiya-3AsiVDsZnHg-unsplash.jpg,0,0,577,0,unchosen,32,33,body_parts,body_parts,1100,0,10,2
220,39781,0,221,4,4,0,no_gain6,gain2,K,J,44,13,objects,47,66,faces,Stimuli/Experimental_stims/objects/kuiye-chen-NuOGFo4PudE-unsplash.jpg,Stimuli/Experimental_stims/faces/daniel-rigdon-dXmXKPP2L4E-unsplash.jpg,0,0,1125,1,chosen,13,44,faces,objects,4200,1,9,2
221,39781,0,222,4,4,1,gain4,no_gain2,A,G,46,37,objects,42,57,objects,Stimuli/Experimental_stims/objects/mockup-graphics-PNsj6RiHAF4-unsplash.jpg,Stimuli/Experimental_stims/objects/alexander-andrews-VLGWE_SumrA-unsplash.jpg,0,0,745,0,unchosen,37,46,objects,objects,2400,0,9,2
222,39781,0,223,4,4,1,gain2,no_gain1,J,B,13,0,faces,66,82,outdoor_scenes,Stimuli/Experimental_stims/faces/daniel-rigdon-dXmXKPP2L4E-unsplash.jpg,Stimuli/Experimental_stims/outdoor_scenes/aleksandra-boguslawska-MS7KD9Ti7FQ-unsplash.jpg,0,1,697,1,chosen,13,0,faces,outdoor_scenes,1200,0,9,2
223,39781,0,224,4,4,0,no_gain4,gain4,I,A,7,4,outdoor_scenes,89,89,outdoor_scenes,Stimuli/Experimental_stims/outdoor_scenes/petr-vysohlid-9fqwGqGLUxc-unsplash.jpg,Stimuli/Experimental_stims/outdoor_scenes/jarrett-kow-1ZOyYPOBn7I-unsplash.jpg,0,0,569,1,chosen,4,7,outdoor_scenes,outdoor_scenes,1400,0,9,2
224,39781,0,225,4,4,0,no_gain4,gain6,I,H,24,12,body_parts,30,75,faces,Stimuli/Experimental_stims/body_parts/clay-banks-LjqARJaJotc-unsplash.jpg,Stimuli/Experimental_stims/faces/aiony-haust-jmATI5Q_YgY-unsplash.jpg,0,1,1063,0,unchosen,24,12,body_parts,faces,1800,0,9,2
225,39781,0,226,4,4,0,no_gain4,gain5,I,C,24,34,body_parts,30,41,body_parts,Stimuli/Experimental_stims/body_parts/clay-banks-LjqARJaJotc-unsplash.jpg,Stimuli/Experimental_stims/body_parts/wagner-santos-mBWMvIuVnso-unsplash.jpg,0,1,536,0,unchosen,24,34,body_parts,body_parts,2200,0,9,2
226,39781,0,227,4,4,1,gain4,no_gain1,A,B,4,0,outdoor_scenes,89,82,outdoor_scenes,Stimuli/Experimental_stims/outdoor_scenes/jarrett-kow-1ZOyYPOBn7I-unsplash.jpg,Stimuli/Experimental_stims/outdoor_scenes/aleksandra-boguslawska-MS7KD9Ti7FQ-unsplash.jpg,0,1,456,1,chosen,4,0,outdoor_scenes,outdoor_scenes,4000,1,9,2
227,39781,0,228,4,4,1,gain3,no_gain2,D,G,17,6,faces,78,94,outdoor_scenes,Stimuli/Experimental_stims/faces/good-faces-xmSWVeGEnJw-unsplash.jpg,Stimuli/Experimental_stims/outdoor_scenes/meng-ji-8BH_M-53CyA-unsplash.jpg,0,1,688,1,chosen,17,6,faces,outdoor_scenes,1900,0,9,2
228,39781,0,229,4,4,0,no_gain5,gain4,L,A,16,4,faces,66,89,outdoor_scenes,Stimuli/Experimental_stims/faces/freddy-kearney-o-ioeoATbIM-unsplash.jpg,Stimuli/Experimental_stims/outdoor_scenes/jarrett-kow-1ZOyYPOBn7I-unsplash.jpg,0,0,446,1,chosen,4,16,outdoor_scenes,faces,1800,0,9,2
229,39781,0,230,4,4,0,no_gain4,gain3,I,D,24,45,body_parts,30,67,objects,Stimuli/Experimental_stims/body_parts/clay-banks-LjqARJaJotc-unsplash.jpg,Stimuli/Experimental_stims/objects/leohoho-rngTKHXumy0-unsplash.jpg,0,1,737,0,unchosen,24,45,body_parts,objects,1200,0,9,2
230,39781,0,231,4,4,0,no_gain3,gain5,F,C,32,34,body_parts,36,41,body_parts,Stimuli/Experimental_stims/body_parts/towfiqu-barbhuiya-3AsiVDsZnHg-unsplash.jpg,Stimuli/Experimental_stims/body_parts/wagner-santos-mBWMvIuVnso-unsplash.jpg,0,0,664,1,unchosen,34,32,body_parts,body_parts,1700,0,9,2
231,39781,0,232,4,4,0,no_gain2,gain5,G,C,37,34,objects,57,41,body_parts,Stimuli/Experimental_stims/objects/alexander-andrews-VLGWE_SumrA-unsplash.jpg,Stimuli/Experimental_stims/body_parts/wagner-santos-mBWMvIuVnso-unsplash.jpg,0,1,646,0,unchosen,37,34,objects,body_parts,3500,1,9,2
232,39781,0,233,4,4,1,gain3,no_gain3,D,F,17,21,faces,78,73,faces,Stimuli/Experimental_stims/faces/good-faces-xmSWVeGEnJw-unsplash.jpg,Stimuli/Experimental_stims/faces/leilani-angel-K84vnnzxmTQ-unsplash.jpg,0,1,541,1,chosen,17,21,faces,faces,1700,0,9,2
233,39781,0,234,4,4,1,gain2,no_gain2,J,G,42,37,objects,40,57,objects,Stimuli/Experimental_stims/objects/jess-bailey-nOeVi8DsN8U-unsplash.jpg,Stimuli/Experimental_stims/objects/alexander-andrews-VLGWE_SumrA-unsplash.jpg,0,0,574,0,unchosen,37,42,objects,objects,2000,0,9,2
234,39781,0,235,4,4,0,no_gain6,gain5,K,C,25,34,body_parts,29,41,body_parts,Stimuli/Experimental_stims/body_parts/engin-akyurt-Q2rfH3GW39c-unsplash.jpg,Stimuli/Experimental_stims/body_parts/wagner-santos-mBWMvIuVnso-unsplash.jpg,0,1,603,0,unchosen,25,34,body_parts,body_parts,1300,0,9,2
235,39781,0,236,4,4,1,gain6,no_gain1,H,B,2,0,outdoor_scenes,87,82,outdoor_scenes,Stimuli/Experimental_stims/outdoor_scenes/bruno-van-der-kraan-qez8mNJ3ilU-unsplash.jpg,Stimuli/Experimental_stims/outdoor_scenes/aleksandra-boguslawska-MS7KD9Ti7FQ-unsplash.jpg,0,1,578,1,chosen,2,0,outdoor_scenes,outdoor_scenes,1400,0,9,2
236,39781,0,237,4,4,1,gain1,no_gain4,E,I,33,24,body_parts,64,30,body_parts,Stimuli/Experimental_stims/body_parts/tucker-good-36skLT5jZcc-unsplash.jpg,Stimuli/Experimental_stims/body_parts/clay-banks-LjqARJaJotc-unsplash.jpg,0,0,632,0,unchosen,24,33,body_parts,body_parts,3600,1,9,2
237,39781,0,238,4,4,0,no_gain3,gain4,F,A,21,4,faces,73,89,outdoor_scenes,Stimuli/Experimental_stims/faces/leilani-angel-K84vnnzxmTQ-unsplash.jpg,Stimuli/Experimental_stims/outdoor_scenes/jarrett-kow-1ZOyYPOBn7I-unsplash.jpg,0,0,481,1,chosen,4,21,outdoor_scenes,faces,2700,0,9,2
238,39781,0,239,4,4,0,no_gain5,gain1,L,E,29,33,body_parts,63,64,body_parts,Stimuli/Experimental_stims/body_parts/manuel-schinner-ZwjFuJ7ebpk-unsplash.jpg,Stimuli/Experimental_stims/body_parts/tucker-good-36skLT5jZcc-unsplash.jpg,0,1,668,0,unchosen,29,33,body_parts,body_parts,1900,0,9,2
239,39781,0,240,4,4,0,no_gain1,gain3,B,D,20,45,faces,48,67,objects,Stimuli/Experimental_stims/faces/justin-chen-J7Cf1Gch49E-unsplash.jpg,Stimuli/Experimental_stims/objects/leohoho-rngTKHXumy0-unsplash.jpg,0,1,620,0,unchosen,20,45,faces,objects,1200,0,9,2
240,39781,0,241,4,4,0,no_gain2,gain1,G,E,37,33,objects,57,64,body_parts,Stimuli/Experimental_stims/objects/alexander-andrews-VLGWE_SumrA-unsplash.jpg,Stimuli/Experimental_stims/body_parts/tucker-good-36skLT5jZcc-unsplash.jpg,0,1,649,0,unchosen,37,33,objects,body_parts,1000,0,9,2
241,39781,0,242,4,4,1,gain3,no_gain4,D,I,17,7,faces,78,89,outdoor_scenes,Stimuli/Experimental_stims/faces/good-faces-xmSWVeGEnJw-unsplash.jpg,Stimuli/Experimental_stims/outdoor_scenes/petr-vysohlid-9fqwGqGLUxc-unsplash.jpg,0,1,665,1,chosen,17,7,faces,outdoor_scenes,3700,1,9,2
242,39781,0,243,4,4,0,no_gain4,gain1,I,E,7,36,outdoor_scenes,89,73,objects,Stimuli/Experimental_stims/outdoor_scenes/petr-vysohlid-9fqwGqGLUxc-unsplash.jpg,Stimuli/Experimental_stims/objects/alexander-andrews-JYGnB9gTCls-unsplash.jpg,0,0,789,1,chosen,36,7,objects,outdoor_scenes,1200,0,9,2
243,39781,0,244,4,4,1,gain2,no_gain3,J,F,42,32,objects,40,36,body_parts,Stimuli/Experimental_stims/objects/jess-bailey-nOeVi8DsN8U-unsplash.jpg,Stimuli/Experimental_stims/body_parts/towfiqu-barbhuiya-3AsiVDsZnHg-unsplash.jpg,0,0,737,0,unchosen,32,42,body_parts,objects,2600,0,9,2
244,39781,0,245,4,4,1,gain4,no_gain4,A,I,46,24,objects,42,30,body_parts,Stimuli/Experimental_stims/objects/mockup-graphics-PNsj6RiHAF4-unsplash.jpg,Stimuli/Experimental_stims/body_parts/clay-banks-LjqARJaJotc-unsplash.jpg,0,0,505,0,unchosen,24,46,body_parts,objects,2400,0,9,2
245,39781,0,246,4,4,1,gain2,no_gain6,J,K,42,25,objects,40,29,body_parts,Stimuli/Experimental_stims/objects/jess-bailey-nOeVi8DsN8U-unsplash.jpg,Stimuli/Experimental_stims/body_parts/engin-akyurt-Q2rfH3GW39c-unsplash.jpg,0,0,513,0,unchosen,25,42,body_parts,objects,1200,0,9,2
246,39781,0,247,4,4,0,no_gain6,gain6,K,H,44,2,objects,47,87,outdoor_scenes,Stimuli/Experimental_stims/objects/kuiye-chen-NuOGFo4PudE-unsplash.jpg,Stimuli/Experimental_stims/outdoor_scenes/bruno-van-der-kraan-qez8mNJ3ilU-unsplash.jpg,0,0,593,1,chosen,2,44,outdoor_scenes,objects,2500,0,9,2
247,39781,0,248,4,4,1,gain2,no_gain5,J,L,42,29,objects,40,63,body_parts,Stimuli/Experimental_stims/objects/jess-bailey-nOeVi8DsN8U-unsplash.jpg,Stimuli/Experimental_stims/body_parts/manuel-schinner-ZwjFuJ7ebpk-unsplash.jpg,0,0,539,0,unchosen,29,42,body_parts,objects,2200,0,9,2
248,39781,0,249,4,4,0,no_gain1,gain3,B,D,0,17,outdoor_scenes,82,78,faces,Stimuli/Experimental_stims/outdoor_scenes/aleksandra-boguslawska-MS7KD9Ti7FQ-unsplash.jpg,Stimuli/Experimental_stims/faces/good-faces-xmSWVeGEnJw-unsplash.jpg,0,0,473,1,chosen,17,0,faces,outdoor_scenes,1100,0,9,2
249,39781,0,250,4,4,0,no_gain6,gain1,K,E,44,36,objects,47,73,objects,Stimuli/Experimental_stims/objects/kuiye-chen-NuOGFo4PudE-unsplash.jpg,Stimuli/Experimental_stims/objects/alexander-andrews-JYGnB9gTCls-unsplash.jpg,0,0,548,1,chosen,36,44,objects,objects,1700,0,9,2
250,39781,0,251,4,4,0,no_gain1,gain2,B,J,20,42,faces,48,40,objects,Stimuli/Experimental_stims/faces/justin-chen-J7Cf1Gch49E-unsplash.jpg,Stimuli/Experimental_stims/objects/jess-bailey-nOeVi8DsN8U-unsplash.jpg,0,1,627,0,unchosen,20,42,faces,objects,1100,0,9,2
251,39781,0,252,4,4,1,gain6,no_gain3,H,F,2,21,outdoor_scenes,87,73,faces,Stimuli/Experimental_stims/outdoor_scenes/bruno-van-der-kraan-qez8mNJ3ilU-unsplash.jpg,Stimuli/Experimental_stims/faces/leilani-angel-K84vnnzxmTQ-unsplash.jpg,0,1,940,1,chosen,2,21,outdoor_scenes,faces,1900,0,9,2
252,39781,0,253,4,4,1,gain4,no_gain1,A,B,46,20,objects,42,48,faces,Stimuli/Experimental_stims/objects/mockup-graphics-PNsj6RiHAF4-unsplash.jpg,Stimuli/Experimental_stims/faces/justin-chen-J7Cf1Gch49E-unsplash.jpg,0,0,549,0,unchosen,20,46,faces,objects,1100,0,9,2
253,39781,0,254,4,4,1,gain4,no_gain5,A,L,46,29,objects,42,63,body_parts,Stimuli/Experimental_stims/objects/mockup-graphics-PNsj6RiHAF4-unsplash.jpg,Stimuli/Experimental_stims/body_parts/manuel-schinner-ZwjFuJ7ebpk-unsplash.jpg,0,0,837,0,unchosen,29,46,body_parts,objects,1000,0,9,2
254,39781,0,255,4,4,1,gain6,no_gain6,H,K,12,25,faces,75,29,body_parts,Stimuli/Experimental_stims/faces/aiony-haust-jmATI5Q_YgY-unsplash.jpg,Stimuli/Experimental_stims/body_parts/engin-akyurt-Q2rfH3GW39c-unsplash.jpg,0,0,607,0,unchosen,25,12,body_parts,faces,1600,0,9,2
255,39781,0,256,4,4,0,no_gain4,gain5,I,C,7,10,outdoor_scenes,89,68,outdoor_scenes,Stimuli/Experimental_stims/outdoor_scenes/petr-vysohlid-9fqwGqGLUxc-unsplash.jpg,Stimuli/Experimental_stims/outdoor_scenes/shannon-kunkle-dM8INmkyDas-unsplash.jpg,0,0,610,1,chosen,10,7,outdoor_scenes,outdoor_scenes,2700,0,9,2
256,39781,0,257,4,4,1,gain4,no_gain6,A,K,46,25,objects,42,29,body_parts,Stimuli/Experimental_stims/objects/mockup-graphics-PNsj6RiHAF4-unsplash.jpg,Stimuli/Experimental_stims/body_parts/engin-akyurt-Q2rfH3GW39c-unsplash.jpg,0,0,428,0,unchosen,25,46,body_parts,objects,3500,1,9,2
257,39781,0,258,4,4,0,no_gain2,gain6,G,H,37,12,objects,57,75,faces,Stimuli/Experimental_stims/objects/alexander-andrews-VLGWE_SumrA-unsplash.jpg,Stimuli/Experimental_stims/faces/aiony-haust-jmATI5Q_YgY-unsplash.jpg,0,1,590,0,unchosen,37,12,objects,faces,1000,0,9,2
258,39781,0,259,4,4,0,no_gain2,gain3,G,D,37,45,objects,57,67,objects,Stimuli/Experimental_stims/objects/alexander-andrews-VLGWE_SumrA-unsplash.jpg,Stimuli/Experimental_stims/objects/leohoho-rngTKHXumy0-unsplash.jpg,0,1,785,0,unchosen,37,45,objects,objects,1700,0,9,2
259,39781,0,260,4,4,1,gain2,no_gain5,J,L,13,16,faces,66,66,faces,Stimuli/Experimental_stims/faces/daniel-rigdon-dXmXKPP2L4E-unsplash.jpg,Stimuli/Experimental_stims/faces/freddy-kearney-o-ioeoATbIM-unsplash.jpg,0,1,676,1,chosen,13,16,faces,faces,1500,0,9,2
260,39781,0,261,4,4,1,gain3,no_gain5,D,L,17,16,faces,78,66,faces,Stimuli/Experimental_stims/faces/good-faces-xmSWVeGEnJw-unsplash.jpg,Stimuli/Experimental_stims/faces/freddy-kearney-o-ioeoATbIM-unsplash.jpg,0,1,468,1,chosen,17,16,faces,faces,1400,0,9,2
261,39781,0,262,4,4,1,gain5,no_gain3,C,F,10,21,outdoor_scenes,68,73,faces,Stimuli/Experimental_stims/outdoor_scenes/shannon-kunkle-dM8INmkyDas-unsplash.jpg,Stimuli/Experimental_stims/faces/leilani-angel-K84vnnzxmTQ-unsplash.jpg,0,1,616,1,chosen,10,21,outdoor_scenes,faces,1300,0,9,2
262,39781,0,263,4,4,1,gain5,no_gain5,C,L,34,29,body_parts,41,63,body_parts,Stimuli/Experimental_stims/body_parts/wagner-santos-mBWMvIuVnso-unsplash.jpg,Stimuli/Experimental_stims/body_parts/manuel-schinner-ZwjFuJ7ebpk-unsplash.jpg,0,0,669,0,unchosen,29,34,body_parts,body_parts,4500,1,9,2
263,39781,0,264,4,4,0,no_gain5,gain6,L,H,29,12,body_parts,63,75,faces,Stimuli/Experimental_stims/body_parts/manuel-schinner-ZwjFuJ7ebpk-unsplash.jpg,Stimuli/Experimental_stims/faces/aiony-haust-jmATI5Q_YgY-unsplash.jpg,0,1,685,0,unchosen,29,12,body_parts,faces,1900,0,9,2
264,39781,0,265,4,4,0,no_gain6,gain1,K,E,25,33,body_parts,29,64,body_parts,Stimuli/Experimental_stims/body_parts/engin-akyurt-Q2rfH3GW39c-unsplash.jpg,Stimuli/Experimental_stims/body_parts/tucker-good-36skLT5jZcc-unsplash.jpg,0,1,725,0,unchosen,25,33,body_parts,body_parts,1900,0,9,2
265,39781,0,266,4,4,1,gain5,no_gain5,C,L,10,16,outdoor_scenes,68,66,faces,Stimuli/Experimental_stims/outdoor_scenes/shannon-kunkle-dM8INmkyDas-unsplash.jpg,Stimuli/Experimental_stims/faces/freddy-kearney-o-ioeoATbIM-unsplash.jpg,0,1,476,1,chosen,10,16,outdoor_scenes,faces,1600,0,9,2
266,39781,0,267,4,4,0,no_gain2,gain4,G,A,6,4,outdoor_scenes,94,89,outdoor_scenes,Stimuli/Experimental_stims/outdoor_scenes/meng-ji-8BH_M-53CyA-unsplash.jpg,Stimuli/Experimental_stims/outdoor_scenes/jarrett-kow-1ZOyYPOBn7I-unsplash.jpg,0,0,505,1,chosen,4,6,outdoor_scenes,outdoor_scenes,2300,0,9,2
267,39781,0,268,4,4,1,gain6,no_gain2,H,G,2,6,outdoor_scenes,87,94,outdoor_scenes,Stimuli/Experimental_stims/outdoor_scenes/bruno-van-der-kraan-qez8mNJ3ilU-unsplash.jpg,Stimuli/Experimental_stims/outdoor_scenes/meng-ji-8BH_M-53CyA-unsplash.jpg,0,1,797,1,chosen,2,6,outdoor_scenes,outdoor_scenes,3700,1,9,2
268,39781,0,269,4,4,0,no_gain3,gain3,F,D,32,45,body_parts,36,67,objects,Stimuli/Experimental_stims/body_parts/towfiqu-barbhuiya-3AsiVDsZnHg-unsplash.jpg,Stimuli/Experimental_stims/objects/leohoho-rngTKHXumy0-unsplash.jpg,0,1,574,0,unchosen,32,45,body_parts,objects,1200,0,9,2
269,39781,0,270,4,4,1,gain4,no_gain3,A,F,46,32,objects,42,36,body_parts,Stimuli/Experimental_stims/objects/mockup-graphics-PNsj6RiHAF4-unsplash.jpg,Stimuli/Experimental_stims/body_parts/towfiqu-barbhuiya-3AsiVDsZnHg-unsplash.jpg,0,0,680,0,unchosen,32,46,body_parts,objects,1900,0,9,2
270,39781,0,271,4,4,0,no_gain3,gain1,F,E,32,33,body_parts,36,64,body_parts,Stimuli/Experimental_stims/body_parts/towfiqu-barbhuiya-3AsiVDsZnHg-unsplash.jpg,Stimuli/Experimental_stims/body_parts/tucker-good-36skLT5jZcc-unsplash.jpg,0,1,952,0,unchosen,32,33,body_parts,body_parts,2000,0,9,2
271,39781,0,272,4,4,1,gain1,no_gain3,E,F,36,21,objects,73,73,faces,Stimuli/Experimental_stims/objects/alexander-andrews-JYGnB9gTCls-unsplash.jpg,Stimuli/Experimental_stims/faces/leilani-angel-K84vnnzxmTQ-unsplash.jpg,0,1,720,1,chosen,36,21,objects,faces,2700,0,9,2
272,39781,0,273,4,4,1,gain6,no_gain5,H,L,2,16,outdoor_scenes,87,66,faces,Stimuli/Experimental_stims/outdoor_scenes/bruno-van-der-kraan-qez8mNJ3ilU-unsplash.jpg,Stimuli/Experimental_stims/faces/freddy-kearney-o-ioeoATbIM-unsplash.jpg,0,1,493,1,chosen,2,16,outdoor_scenes,faces,1100,0,9,2
273,39781,0,274,4,4,0,no_gain2,gain1,G,E,6,36,outdoor_scenes,94,73,objects,Stimuli/Experimental_stims/outdoor_scenes/meng-ji-8BH_M-53CyA-unsplash.jpg,Stimuli/Experimental_stims/objects/alexander-andrews-JYGnB9gTCls-unsplash.jpg,0,0,900,1,chosen,36,6,objects,outdoor_scenes,4200,1,9,2
274,39781,0,275,4,4,1,gain3,no_gain6,D,K,45,25,objects,67,29,body_parts,Stimuli/Experimental_stims/objects/leohoho-rngTKHXumy0-unsplash.jpg,Stimuli/Experimental_stims/body_parts/engin-akyurt-Q2rfH3GW39c-unsplash.jpg,0,0,496,0,unchosen,25,45,body_parts,objects,1300,0,9,2
275,39781,0,276,4,4,1,gain1,no_gain5,E,L,36,16,objects,73,66,faces,Stimuli/Experimental_stims/objects/alexander-andrews-JYGnB9gTCls-unsplash.jpg,Stimuli/Experimental_stims/faces/freddy-kearney-o-ioeoATbIM-unsplash.jpg,0,1,620,1,chosen,36,16,objects,faces,2000,0,9,2
276,39781,0,277,4,4,0,no_gain3,gain2,F,J,21,13,faces,73,66,faces,Stimuli/Experimental_stims/faces/leilani-angel-K84vnnzxmTQ-unsplash.jpg,Stimuli/Experimental_stims/faces/daniel-rigdon-dXmXKPP2L4E-unsplash.jpg,0,0,729,1,chosen,13,21,faces,faces,1100,0,9,2
277,39781,0,278,4,4,1,gain5,no_gain1,C,B,34,20,body_parts,41,48,faces,Stimuli/Experimental_stims/body_parts/wagner-santos-mBWMvIuVnso-unsplash.jpg,Stimuli/Experimental_stims/faces/justin-chen-J7Cf1Gch49E-unsplash.jpg,0,0,573,0,unchosen,20,34,faces,body_parts,2300,0,9,2
278,39781,0,279,4,4,1,gain2,no_gain2,J,G,13,6,faces,66,94,outdoor_scenes,Stimuli/Experimental_stims/faces/daniel-rigdon-dXmXKPP2L4E-unsplash.jpg,Stimuli/Experimental_stims/outdoor_scenes/meng-ji-8BH_M-53CyA-unsplash.jpg,0,1,755,1,chosen,13,6,faces,outdoor_scenes,2900,0,9,2
279,39781,0,280,4,4,0,no_gain2,gain5,G,C,6,10,outdoor_scenes,94,68,outdoor_scenes,Stimuli/Experimental_stims/outdoor_scenes/meng-ji-8BH_M-53CyA-unsplash.jpg,Stimuli/Experimental_stims/outdoor_scenes/shannon-kunkle-dM8INmkyDas-unsplash.jpg,0,0,716,1,chosen,10,6,outdoor_scenes,outdoor_scenes,1200,0,9,2
280,39781,0,281,4,4,1,gain5,no_gain6,C,K,10,44,outdoor_scenes,68,47,objects,Stimuli/Experimental_stims/outdoor_scenes/shannon-kunkle-dM8INmkyDas-unsplash.jpg,Stimuli/Experimental_stims/objects/kuiye-chen-NuOGFo4PudE-unsplash.jpg,0,1,528,1,chosen,10,44,outdoor_scenes,objects,1500,0,9,2
281,39781,0,282,4,4,1,gain6,no_gain3,H,F,12,32,faces,75,36,body_parts,Stimuli/Experimental_stims/faces/aiony-haust-jmATI5Q_YgY-unsplash.jpg,Stimuli/Experimental_stims/body_parts/towfiqu-barbhuiya-3AsiVDsZnHg-unsplash.jpg,0,0,754,0,unchosen,32,12,body_parts,faces,1100,0,9,2
282,39781,0,283,4,4,0,no_gain6,gain4,K,A,44,4,objects,47,89,outdoor_scenes,Stimuli/Experimental_stims/objects/kuiye-chen-NuOGFo4PudE-unsplash.jpg,Stimuli/Experimental_stims/outdoor_scenes/jarrett-kow-1ZOyYPOBn7I-unsplash.jpg,0,0,485,1,chosen,4,44,outdoor_scenes,objects,1200,0,9,2
283,39781,0,284,4,4,0,no_gain4,gain2,I,J,7,13,outdoor_scenes,89,66,faces,Stimuli/Experimental_stims/outdoor_scenes/petr-vysohlid-9fqwGqGLUxc-unsplash.jpg,Stimuli/Experimental_stims/faces/daniel-rigdon-dXmXKPP2L4E-unsplash.jpg,0,0,807,1,chosen,13,7,faces,outdoor_scenes,1400,0,9,2
284,39781,0,285,4,4,1,gain2,no_gain4,J,I,42,24,objects,40,30,body_parts,Stimuli/Experimental_stims/objects/jess-bailey-nOeVi8DsN8U-unsplash.jpg,Stimuli/Experimental_stims/body_parts/clay-banks-LjqARJaJotc-unsplash.jpg,0,0,592,0,unchosen,24,42,body_parts,objects,1100,0,9,2
285,39781,0,286,4,4,1,gain3,no_gain6,D,K,17,44,faces,78,47,objects,Stimuli/Experimental_stims/faces/good-faces-xmSWVeGEnJw-unsplash.jpg,Stimuli/Experimental_stims/objects/kuiye-chen-NuOGFo4PudE-unsplash.jpg,0,1,531,1,chosen,17,44,faces,objects,2100,0,9,2
286,39781,0,287,4,4,0,no_gain1,gain1,B,E,20,33,faces,48,64,body_parts,Stimuli/Experimental_stims/faces/justin-chen-J7Cf1Gch49E-unsplash.jpg,Stimuli/Experimental_stims/body_parts/tucker-good-36skLT5jZcc-unsplash.jpg,0,1,581,0,unchosen,20,33,faces,body_parts,3300,1,9,2
287,39781,0,288,4,4,0,no_gain1,gain6,B,H,20,12,faces,48,75,faces,Stimuli/Experimental_stims/faces/justin-chen-J7Cf1Gch49E-unsplash.jpg,Stimuli/Experimental_stims/faces/aiony-haust-jmATI5Q_YgY-unsplash.jpg,0,1,611,0,unchosen,20,12,faces,faces,1900,0,9,2
288,39781,0,289,4,4,0,no_gain1,gain5,B,C,0,10,outdoor_scenes,82,68,outdoor_scenes,Stimuli/Experimental_stims/outdoor_scenes/aleksandra-boguslawska-MS7KD9Ti7FQ-unsplash.jpg,Stimuli/Experimental_stims/outdoor_scenes/shannon-kunkle-dM8INmkyDas-unsplash.jpg,0,0,476,1,chosen,10,0,outdoor_scenes,outdoor_scenes,2000,0,9,2
289,39781,0,290,4,4,0,no_gain4,gain6,I,H,7,2,outdoor_scenes,89,87,outdoor_scenes,Stimuli/Experimental_stims/outdoor_scenes/petr-vysohlid-9fqwGqGLUxc-unsplash.jpg,Stimuli/Experimental_stims/outdoor_scenes/bruno-van-der-kraan-qez8mNJ3ilU-unsplash.jpg,0,0,505,1,chosen,2,7,outdoor_scenes,outdoor_scenes,1100,0,9,2
290,39781,0,291,4,4,1,gain3,no_gain5,D,L,45,29,objects,67,63,body_parts,Stimuli/Experimental_stims/objects/leohoho-rngTKHXumy0-unsplash.jpg,Stimuli/Experimental_stims/body_parts/manuel-schinner-ZwjFuJ7ebpk-unsplash.jpg,0,0,564,0,unchosen,29,45,body_parts,objects,1800,0,9,2
291,39781,0,292,4,4,0,no_gain1,gain1,B,E,0,36,outdoor_scenes,82,73,objects,Stimuli/Experimental_stims/outdoor_scenes/aleksandra-boguslawska-MS7KD9Ti7FQ-unsplash.jpg,Stimuli/Experimental_stims/objects/alexander-andrews-JYGnB9gTCls-unsplash.jpg,0,0,497,1,chosen,36,0,objects,outdoor_scenes,3200,1,9,2