,PID,practice,trial,block,run,gain_left,left_item_id,right_item_id,left_pair_id,right_pair_id,left_stimulus,right_stimulus,left_category,right_category,left_rating,right_rating,left_path,right_path,no_response,left_chosen,rt,higher_outcome_chosen,choice_type,chosen_stimulus,unchosen_stimulus,chosen_category,unchosen_category,iti,long_iti,simulation,version
0,64283,1,1,0,0,0,,,,,,,,,,,Stimuli/Practice_stims/Final_decisions/debby-hudson-FmCSSSGge-0-unsplash.jpg,Stimuli/Practice_stims/Final_decisions/yassine-khalfalli-adsQ9d_Cx0c-unsplash.jpg,0,1,1089,0,,,,,,3000,0,5,4
1,64283,1,2,0,0,0,,,,,,,,,,,Stimuli/Practice_stims/Final_decisions/florian-wehde-iVW7mZPwd4g-unsplash.jpg,Stimuli/Practice_stims/Final_decisions/patrick-perkins-3wylDrjxH-E-unsplash.jpg,0,1,1006,0,,,,,,1500,0,5,4
2,64283,1,3,0,0,0,,,,,,,,,,,Stimuli/Practice_stims/Final_decisions/debby-hudson-FmCSSSGge-0-unsplash.jpg,Stimuli/Practice_stims/Final_decisions/florian-wehde-iVW7mZPwd4g-unsplash.jpg,0,0,1023,1,,,,,,2000,0,5,4
3,64283,1,4,0,0,0,,,,,,,,,,,Stimuli/Practice_stims/Final_decisions/yassine-khalfalli-adsQ9d_Cx0c-unsplash.jpg,Stimuli/Practice_stims/Final_decisions/debby-hudson-FmCSSSGge-0-unsplash.jpg,0,0,1320,1,,,,,,1000,0,5,4
4,64283,0,5,1,1,0,no_gain2,gain4,D,B,21,19,faces,faces,45,49,Stimuli/Experimental_stims/faces/leilani-angel-K84vnnzxmTQ-unsplash.jpg,Stimuli/Experimental_stims/faces/joel-mott-LaK153ghdig-unsplash.jpg,0,0,1120,1,chosen,19,21,faces,faces,5000,1,5,4
5,64283,0,6,1,1,0,no_gain1,gain4,E,B,38,4,objects,outdoor_scenes,63,82,Stimuli/Experimental_stims/objects/art-lasovsky-8XddFc6NkBY-unsplash.jpg,Stimuli/Experimental_stims/outdoor_scenes/jarrett-kow-1ZOyYPOBn7I-unsplash.jpg,1,NaN,,NaN,unchosen,NaN,NaN,NaN,NaN,1700,0,5,4
6,64283,0,7,1,1,1,gain2,no_gain4,A,G,1,8,outdoor_scenes,outdoor_scenes,79,81,Stimuli/Experimental_stims/outdoor_scenes/ashim-d-silva-S2Q5mdOrrVc-unsplash.jpg,Stimuli/Experimental_stims/outdoor_scenes/samsommer-vddccTqwal8-unsplash.jpg,0,1,623,1,chosen,1,8,outdoor_scenes,outdoor_scenes,1600,0,5,4
7,64283,0,8,1,1,1,gain1,no_gain2,C,D,10,41,outdoor_scenes,objects,78,53,Stimuli/Experimental_stims/outdoor_scenes/shannon-kunkle-dM8INmkyDas-unsplash.jpg,Stimuli/Experimental_stims/objects/insung-yoon-w2JtIQQXoRU-unsplash.jpg,0,1,861,1,unchosen,10,41,outdoor_scenes,objects,1800,0,5,4
8,64283,0,9,1,1,0,no_gain6,gain6,K,F,45,14,objects,faces,65,56,Stimuli/Experimental_stims/objects/leohoho-rngTKHXumy0-unsplash.jpg,Stimuli/Experimental_stims/faces/david-siglin-UuW4psOb388-unsplash.jpg,0,0,918,1,unchosen,14,45,faces,objects,1300,0,5,4
9,64283,0,10,1,1,1,gain6,no_gain1,F,E,14,38,faces,objects,56,63,Stimuli/Experimental_stims/faces/david-siglin-UuW4psOb388-unsplash.jpg,Stimuli/Experimental_stims/objects/art-lasovsky-8XddFc6NkBY-unsplash.jpg,0,0,782,0,unchosen,38,14,objects,faces,1200,0,5,4
10,64283,0,11,1,1,0,no_gain4,gain5,G,J,8,18,outdoor_scenes,faces,81,40,Stimuli/Experimental_stims/outdoor_scenes/samsommer-vddccTqwal8-unsplash.jpg,Stimuli/Experimental_stims/faces/jessica-radanavong-mrYkTuAesKE-unsplash.jpg,0,0,800,1,chosen,18,8,faces,outdoor_scenes,3800,1,5,4
11,64283,0,12,1,1,0,no_gain3,gain2,I,A,0,1,outdoor_scenes,outdoor_scenes,72,79,Stimuli/Experimental_stims/outdoor_scenes/aleksandra-boguslawska-MS7KD9Ti7FQ-unsplash.jpg,Stimuli/Experimental_stims/outdoor_scenes/ashim-d-silva-S2Q5mdOrrVc-unsplash.jpg,0,0,825,1,chosen,1,0,outdoor_scenes,outdoor_scenes,1100,0,5,4
12,64283,0,13,1,1,1,gain5,no_gain4,J,G,40,44,objects,objects,49,46,Stimuli/Experimental_stims/objects/fabian-blank-pElSkGRA2NU-unsplash.jpg,Stimuli/Experimental_stims/objects/kuiye-chen-NuOGFo4PudE-unsplash.jpg,0,1,826,1,unchosen,40,44,objects,objects,2500,0,5,4
13,64283,0,14,1,1,0,no_gain3,gain3,I,H,0,3,outdoor_scenes,outdoor_scenes,72,91,Stimuli/Experimental_stims/outdoor_scenes/aleksandra-boguslawska-MS7KD9Ti7FQ-unsplash.jpg,Stimuli/Experimental_stims/outdoor_scenes/henry-be-NLF6hTe4PAg-unsplash.jpg,0,0,792,1,chosen,3,0,outdoor_scenes,outdoor_scenes,1500,0,5,4
14,64283,0,15,1,1,0,no_gain6,gain1,K,C,45,10,objects,outdoor_scenes,65,78,Stimuli/Experimental_stims/objects/leohoho-rngTKHXumy0-unsplash.jpg,Stimuli/Experimental_stims/outdoor_scenes/shannon-kunkle-dM8INmkyDas-unsplash.jpg,0,1,1083,0,unchosen,45,10,objects,outdoor_scenes,1400,0,5,4
15,64283,0,16,1,1,0,no_gain2,gain3,D,H,21,3,faces,outdoor_scenes,45,91,Stimuli/Experimental_stims/faces/leilani-angel-K84vnnzxmTQ-unsplash.jpg,Stimuli/Experimental_stims/outdoor_scenes/henry-be-NLF6hTe4PAg-unsplash.jpg,0,0,839,1,chosen,3,21,outdoor_scenes,faces,3300,1,5,4
16,64283,0,17,1,1,0,no_gain3,gain3,I,H,33,12,body_parts,faces,10,46,Stimuli/Experimental_stims/body_parts/tucker-good-36skLT5jZcc-unsplash.jpg,Stimuli/Experimental_stims/faces/aiony-haust-jmATI5Q_YgY-unsplash.jpg,0,1,1168,0,unchosen,33,12,body_parts,faces,1800,0,5,4
17,64283,0,18,1,1,0,no_gain1,gain3,E,H,38,12,objects,faces,63,46,Stimuli/Experimental_stims/objects/art-lasovsky-8XddFc6NkBY-unsplash.jpg,Stimuli/Experimental_stims/faces/aiony-haust-jmATI5Q_YgY-unsplash.jpg,0,0,1293,1,unchosen,12,38,faces,objects,1900,0,5,4
18,64283,0,19,1,1,0,no_gain6,gain4,K,B,45,4,objects,outdoor_scenes,65,82,Stimuli/Experimental_stims/objects/leohoho-rngTKHXumy0-unsplash.jpg,Stimuli/Experimental_stims/outdoor_scenes/jarrett-kow-1ZOyYPOBn7I-unsplash.jpg,0,0,1019,1,unchosen,4,45,outdoor_scenes,objects,1100,0,5,4
19,64283,0,20,1,1,0,no_gain2,gain1,D,C,21,29,faces,body_parts,45,63,Stimuli/Experimental_stims/faces/leilani-angel-K84vnnzxmTQ-unsplash.jpg,Stimuli/Experimental_stims/body_parts/manuel-schinner-ZwjFuJ7ebpk-unsplash.jpg,0,0,892,1,chosen,29,21,body_parts,faces,1200,0,5,4
20,64283,0,21,1,1,1,gain4,no_gain4,B,G,4,44,outdoor_scenes,objects,82,46,Stimuli/Experimental_stims/outdoor_scenes/jarrett-kow-1ZOyYPOBn7I-unsplash.jpg,Stimuli/Experimental_stims/objects/kuiye-chen-NuOGFo4PudE-unsplash.jpg,0,1,818,1,unchosen,4,44,outdoor_scenes,objects,1400,0,5,4
21,64283,0,22,1,1,0,no_gain4,gain3,G,H,8,3,outdoor_scenes,outdoor_scenes,81,91,Stimuli/Experimental_stims/outdoor_scenes/samsommer-vddccTqwal8-unsplash.jpg,Stimuli/Experimental_stims/outdoor_scenes/henry-be-NLF6hTe4PAg-unsplash.jpg,0,0,800,1,chosen,3,8,outdoor_scenes,outdoor_scenes,1100,0,5,4
22,64283,0,23,1,1,0,no_gain3,gain5,I,J,33,40,body_parts,objects,10,49,Stimuli/Experimental_stims/body_parts/tucker-good-36skLT5jZcc-unsplash.jpg,Stimuli/Experimental_stims/objects/fabian-blank-pElSkGRA2NU-unsplash.jpg,0,0,873,1,unchosen,40,33,objects,body_parts,1500,0,5,4
23,64283,0,24,1,1,1,gain1,no_gain3,C,I,29,0,body_parts,outdoor_scenes,63,72,Stimuli/Experimental_stims/body_parts/manuel-schinner-ZwjFuJ7ebpk-unsplash.jpg,Stimuli/Experimental_stims/outdoor_scenes/aleksandra-boguslawska-MS7KD9Ti7FQ-unsplash.jpg,0,1,858,1,chosen,29,0,body_parts,outdoor_scenes,1600,0,5,4
24,64283,0,25,1,1,1,gain2,no_gain1,A,E,36,38,objects,objects,55,63,Stimuli/Experimental_stims/objects/alexander-andrews-JYGnB9gTCls-unsplash.jpg,Stimuli/Experimental_stims/objects/art-lasovsky-8XddFc6NkBY-unsplash.jpg,0,0,875,0,unchosen,38,36,objects,objects,3000,1,5,4
25,64283,0,26,1,1,1,gain6,no_gain4,F,G,28,8,body_parts,outdoor_scenes,30,81,Stimuli/Experimental_stims/body_parts/ira-vishnevskaya-8DQAvdCby1I-unsplash.jpg,Stimuli/Experimental_stims/outdoor_scenes/samsommer-vddccTqwal8-unsplash.jpg,1,NaN,,NaN,chosen,NaN,NaN,NaN,NaN,1600,0,5,4
26,64283,0,27,1,1,0,no_gain1,gain1,E,C,38,10,objects,outdoor_scenes,63,78,Stimuli/Experimental_stims/objects/art-lasovsky-8XddFc6NkBY-unsplash.jpg,Stimuli/Experimental_stims/outdoor_scenes/shannon-kunkle-dM8INmkyDas-unsplash.jpg,0,0,724,1,unchosen,10,38,outdoor_scenes,objects,2900,0,5,4
27,64283,0,28,1,1,0,no_gain1,gain3,E,H,34,3,body_parts,outdoor_scenes,36,91,Stimuli/Experimental_stims/body_parts/wagner-santos-mBWMvIuVnso-unsplash.jpg,Stimuli/Experimental_stims/outdoor_scenes/henry-be-NLF6hTe4PAg-unsplash.jpg,0,0,789,1,chosen,3,34,outdoor_scenes,body_parts,2700,0,5,4
28,64283,0,29,1,1,1,gain5,no_gain3,J,I,18,0,faces,outdoor_scenes,40,72,Stimuli/Experimental_stims/faces/jessica-radanavong-mrYkTuAesKE-unsplash.jpg,Stimuli/Experimental_stims/outdoor_scenes/aleksandra-boguslawska-MS7KD9Ti7FQ-unsplash.jpg,0,1,558,1,chosen,18,0,faces,outdoor_scenes,1800,0,5,4
29,64283,0,30,1,1,1,gain5,no_gain5,J,L,40,32,objects,body_parts,49,41,Stimuli/Experimental_stims/objects/fabian-blank-pElSkGRA2NU-unsplash.jpg,Stimuli/Experimental_stims/body_parts/towfiqu-barbhuiya-3AsiVDsZnHg-unsplash.jpg,0,1,732,1,unchosen,40,32,objects,body_parts,2300,0,5,4
30,64283,0,31,1,1,0,no_gain1,gain4,E,B,34,19,body_parts,faces,36,49,Stimuli/Experimental_stims/body_parts/wagner-santos-mBWMvIuVnso-unsplash.jpg,Stimuli/Experimental_stims/faces/joel-mott-LaK153ghdig-unsplash.jpg,0,0,732,1,chosen,19,34,faces,body_parts,2000,0,5,4
31,64283,0,32,1,1,1,gain6,no_gain2,F,D,28,21,body_parts,faces,30,45,Stimuli/Experimental_stims/body_parts/ira-vishnevskaya-8DQAvdCby1I-unsplash.jpg,Stimuli/Experimental_stims/faces/leilani-angel-K84vnnzxmTQ-unsplash.jpg,0,1,689,1,chosen,28,21,body_parts,faces,2600,0,5,4
32,64283,0,33,1,1,1,gain4,no_gain3,B,I,4,33,outdoor_scenes,body_parts,82,10,Stimuli/Experimental_stims/outdoor_scenes/jarrett-kow-1ZOyYPOBn7I-unsplash.jpg,Stimuli/Experimental_stims/body_parts/tucker-good-36skLT5jZcc-unsplash.jpg,0,1,1003,1,unchosen,4,33,outdoor_scenes,body_parts,3500,1,5,4
33,64283,0,34,1,1,1,gain4,no_gain5,B,L,4,32,outdoor_scenes,body_parts,82,41,Stimuli/Experimental_stims/outdoor_scenes/jarrett-kow-1ZOyYPOBn7I-unsplash.jpg,Stimuli/Experimental_stims/body_parts/towfiqu-barbhuiya-3AsiVDsZnHg-unsplash.jpg,0,1,706,1,unchosen,4,32,outdoor_scenes,body_parts,1000,0,5,4
34,64283,0,35,1,1,0,no_gain5,gain6,L,F,17,28,faces,body_parts,28,30,Stimuli/Experimental_stims/faces/good-faces-xmSWVeGEnJw-unsplash.jpg,Stimuli/Experimental_stims/body_parts/ira-vishnevskaya-8DQAvdCby1I-unsplash.jpg,0,0,807,1,chosen,28,17,body_parts,faces,1600,0,5,4
35,64283,0,36,1,1,1,gain1,no_gain5,C,L,29,17,body_parts,faces,63,28,Stimuli/Experimental_stims/body_parts/manuel-schinner-ZwjFuJ7ebpk-unsplash.jpg,Stimuli/Experimental_stims/faces/good-faces-xmSWVeGEnJw-unsplash.jpg,0,1,525,1,chosen,29,17,body_parts,faces,1200,0,5,4
36,64283,0,37,1,1,0,no_gain6,gain2,K,A,30,1,body_parts,outdoor_scenes,30,79,Stimuli/Experimental_stims/body_parts/mika-korhonen-Xodzxosar18-unsplash.jpg,Stimuli/Experimental_stims/outdoor_scenes/ashim-d-silva-S2Q5mdOrrVc-unsplash.jpg,0,0,577,1,chosen,1,30,outdoor_scenes,body_parts,1500,0,5,4
37,64283,0,38,1,1,1,gain2,no_gain6,A,K,36,45,objects,objects,55,65,Stimuli/Experimental_stims/objects/alexander-andrews-JYGnB9gTCls-unsplash.jpg,Stimuli/Experimental_stims/objects/leohoho-rngTKHXumy0-unsplash.jpg,0,1,796,1,unchosen,36,45,objects,objects,4800,1,5,4
38,64283,0,39,1,1,1,gain2,no_gain2,A,D,1,21,outdoor_scenes,faces,79,45,Stimuli/Experimental_stims/outdoor_scenes/ashim-d-silva-S2Q5mdOrrVc-unsplash.jpg,Stimuli/Experimental_stims/faces/leilani-angel-K84vnnzxmTQ-unsplash.jpg,0,1,740,1,chosen,1,21,outdoor_scenes,faces,1500,0,5,4
39,64283,0,40,1,1,0,no_gain5,gain1,L,C,32,10,body_parts,outdoor_scenes,41,78,Stimuli/Experimental_stims/body_parts/towfiqu-barbhuiya-3AsiVDsZnHg-unsplash.jpg,Stimuli/Experimental_stims/outdoor_scenes/shannon-kunkle-dM8INmkyDas-unsplash.jpg,0,0,951,1,unchosen,10,32,outdoor_scenes,body_parts,1700,0,5,4
40,64283,0,41,1,1,0,no_gain4,gain1,G,C,44,10,objects,outdoor_scenes,46,78,Stimuli/Experimental_stims/objects/kuiye-chen-NuOGFo4PudE-unsplash.jpg,Stimuli/Experimental_stims/outdoor_scenes/shannon-kunkle-dM8INmkyDas-unsplash.jpg,0,0,832,1,unchosen,10,44,outdoor_scenes,objects,1200,0,5,4
41,64283,0,42,1,1,1,gain5,no_gain2,J,D,40,41,objects,objects,49,53,Stimuli/Experimental_stims/objects/fabian-blank-pElSkGRA2NU-unsplash.jpg,Stimuli/Experimental_stims/objects/insung-yoon-w2JtIQQXoRU-unsplash.jpg,0,1,722,1,unchosen,40,41,objects,objects,1400,0,5,4
42,64283,0,43,1,1,1,gain6,no_gain6,F,K,28,30,body_parts,body_parts,30,30,Stimuli/Experimental_stims/body_parts/ira-vishnevskaya-8DQAvdCby1I-unsplash.jpg,Stimuli/Experimental_stims/body_parts/mika-korhonen-Xodzxosar18-unsplash.jpg,0,0,1084,0,chosen,30,28,body_parts,body_parts,1800,0,5,4
43,64283,0,44,1,1,1,gain1,no_gain3,C,I,10,33,outdoor_scenes,body_parts,78,10,Stimuli/Experimental_stims/outdoor_scenes/shannon-kunkle-dM8INmkyDas-unsplash.jpg,Stimuli/Experimental_stims/body_parts/tucker-good-36skLT5jZcc-unsplash.jpg,0,1,711,1,unchosen,10,33,outdoor_scenes,body_parts,3600,1,5,4
44,64283,0,45,1,1,1,gain2,no_gain5,A,L,1,17,outdoor_scenes,faces,79,28,Stimuli/Experimental_stims/outdoor_scenes/ashim-d-silva-S2Q5mdOrrVc-unsplash.jpg,Stimuli/Experimental_stims/faces/good-faces-xmSWVeGEnJw-unsplash.jpg,0,1,616,1,chosen,1,17,outdoor_scenes,faces,1200,0,5,4
45,64283,0,46,1,1,0,no_gain2,gain5,D,J,21,18,faces,faces,45,40,Stimuli/Experimental_stims/faces/leilani-angel-K84vnnzxmTQ-unsplash.jpg,Stimuli/Experimental_stims/faces/jessica-radanavong-mrYkTuAesKE-unsplash.jpg,0,0,626,1,chosen,18,21,faces,faces,2700,0,5,4
46,64283,0,47,1,1,0,no_gain4,gain3,G,H,44,12,objects,faces,46,46,Stimuli/Experimental_stims/objects/kuiye-chen-NuOGFo4PudE-unsplash.jpg,Stimuli/Experimental_stims/faces/aiony-haust-jmATI5Q_YgY-unsplash.jpg,0,0,1126,1,unchosen,12,44,faces,objects,2100,0,5,4
47,64283,0,48,1,1,1,gain6,no_gain4,F,G,14,44,faces,objects,56,46,Stimuli/Experimental_stims/faces/david-siglin-UuW4psOb388-unsplash.jpg,Stimuli/Experimental_stims/objects/kuiye-chen-NuOGFo4PudE-unsplash.jpg,0,0,1010,0,unchosen,44,14,objects,faces,2500,0,5,4
48,64283,0,49,1,1,1,gain3,no_gain6,H,K,3,30,outdoor_scenes,body_parts,91,30,Stimuli/Experimental_stims/outdoor_scenes/henry-be-NLF6hTe4PAg-unsplash.jpg,Stimuli/Experimental_stims/body_parts/mika-korhonen-Xodzxosar18-unsplash.jpg,0,1,599,1,chosen,3,30,outdoor_scenes,body_parts,1500,0,5,4
49,64283,0,50,1,1,1,gain2,no_gain1,A,E,1,34,outdoor_scenes,body_parts,79,36,Stimuli/Experimental_stims/outdoor_scenes/ashim-d-silva-S2Q5mdOrrVc-unsplash.jpg,Stimuli/Experimental_stims/body_parts/wagner-santos-mBWMvIuVnso-unsplash.jpg,0,1,583,1,chosen,1,34,outdoor_scenes,body_parts,1300,0,5,4
50,64283,0,51,1,1,1,gain6,no_gain3,F,I,28,0,body_parts,outdoor_scenes,30,72,Stimuli/Experimental_stims/body_parts/ira-vishnevskaya-8DQAvdCby1I-unsplash.jpg,Stimuli/Experimental_stims/outdoor_scenes/aleksandra-boguslawska-MS7KD9Ti7FQ-unsplash.jpg,0,1,668,1,chosen,28,0,body_parts,outdoor_scenes,1000,0,5,4
51,64283,0,52,1,1,1,gain6,no_gain3,F,I,14,33,faces,body_parts,56,10,Stimuli/Experimental_stims/faces/david-siglin-UuW4psOb388-unsplash.jpg,Stimuli/Experimental_stims/body_parts/tucker-good-36skLT5jZcc-unsplash.jpg,0,1,836,1,unchosen,14,33,faces,body_parts,1500,0,5,4
52,64283,0,53,1,1,0,no_gain6,gain3,K,H,45,12,objects,faces,65,46,Stimuli/Experimental_stims/objects/leohoho-rngTKHXumy0-unsplash.jpg,Stimuli/Experimental_stims/faces/aiony-haust-jmATI5Q_YgY-unsplash.jpg,0,1,959,0,unchosen,45,12,objects,faces,2200,0,5,4
53,64283,0,54,1,1,1,gain2,no_gain5,A,L,36,32,objects,body_parts,55,41,Stimuli/Experimental_stims/objects/alexander-andrews-JYGnB9gTCls-unsplash.jpg,Stimuli/Experimental_stims/body_parts/towfiqu-barbhuiya-3AsiVDsZnHg-unsplash.jpg,0,1,979,1,unchosen,36,32,objects,body_parts,1300,0,5,4
54,64283,0,55,1,1,1,gain4,no_gain6,B,K,19,30,faces,body_parts,49,30,Stimuli/Experimental_stims/faces/joel-mott-LaK153ghdig-unsplash.jpg,Stimuli/Experimental_stims/body_parts/mika-korhonen-Xodzxosar18-unsplash.jpg,0,1,611,1,chosen,19,30,faces,body_parts,3000,1,5,4
55,64283,0,56,1,1,1,gain4,no_gain2,B,D,4,41,outdoor_scenes,objects,82,53,Stimuli/Experimental_stims/outdoor_scenes/jarrett-kow-1ZOyYPOBn7I-unsplash.jpg,Stimuli/Experimental_stims/objects/insung-yoon-w2JtIQQXoRU-unsplash.jpg,0,1,793,1,unchosen,4,41,outdoor_scenes,objects,1400,0,5,4
56,64283,0,57,1,1,1,gain3,no_gain2,H,D,12,41,faces,objects,46,53,Stimuli/Experimental_stims/faces/aiony-haust-jmATI5Q_YgY-unsplash.jpg,Stimuli/Experimental_stims/objects/insung-yoon-w2JtIQQXoRU-unsplash.jpg,0,0,948,0,unchosen,41,12,objects,faces,1500,0,5,4
57,64283,0,58,1,1,0,no_gain4,gain1,G,C,8,29,outdoor_scenes,body_parts,81,63,Stimuli/Experimental_stims/outdoor_scenes/samsommer-vddccTqwal8-unsplash.jpg,Stimuli/Experimental_stims/body_parts/manuel-schinner-ZwjFuJ7ebpk-unsplash.jpg,0,0,767,1,chosen,29,8,body_parts,outdoor_scenes,1200,0,5,4
58,64283,0,59,1,1,0,no_gain2,gain2,D,A,41,36,objects,objects,53,55,Stimuli/Experimental_stims/objects/insung-yoon-w2JtIQQXoRU-unsplash.jpg,Stimuli/Experimental_stims/objects/alexander-andrews-JYGnB9gTCls-unsplash.jpg,0,1,854,0,unchosen,41,36,objects,objects,1600,0,5,4
59,64283,0,60,1,1,0,no_gain6,gain1,K,C,30,29,body_parts,body_parts,30,63,Stimuli/Experimental_stims/body_parts/mika-korhonen-Xodzxosar18-unsplash.jpg,Stimuli/Experimental_stims/body_parts/manuel-schinner-ZwjFuJ7ebpk-unsplash.jpg,0,0,629,1,chosen,29,30,body_parts,body_parts,2300,0,5,4
60,64283,0,61,1,1,1,gain2,no_gain3,A,I,36,33,objects,body_parts,55,10,Stimuli/Experimental_stims/objects/alexander-andrews-JYGnB9gTCls-unsplash.jpg,Stimuli/Experimental_stims/body_parts/tucker-good-36skLT5jZcc-unsplash.jpg,0,0,965,0,unchosen,33,36,body_parts,objects,1400,0,5,4
61,64283,0,62,1,1,0,no_gain5,gain4,L,B,17,19,faces,faces,28,49,Stimuli/Experimental_stims/faces/good-faces-xmSWVeGEnJw-unsplash.jpg,Stimuli/Experimental_stims/faces/joel-mott-LaK153ghdig-unsplash.jpg,0,0,580,1,chosen,19,17,faces,faces,4400,1,5,4
62,64283,0,63,1,1,1,gain3,no_gain5,H,L,3,17,outdoor_scenes,faces,91,28,Stimuli/Experimental_stims/outdoor_scenes/henry-be-NLF6hTe4PAg-unsplash.jpg,Stimuli/Experimental_stims/faces/good-faces-xmSWVeGEnJw-unsplash.jpg,0,1,678,1,chosen,3,17,outdoor_scenes,faces,1900,0,5,4
63,64283,0,64,1,1,0,no_gain6,gain5,K,J,45,40,objects,objects,65,49,Stimuli/Experimental_stims/objects/leohoho-rngTKHXumy0-unsplash.jpg,Stimuli/Experimental_stims/objects/fabian-blank-pElSkGRA2NU-unsplash.jpg,0,1,775,0,unchosen,45,40,objects,objects,2000,0,5,4
64,64283,0,65,1,1,0,no_gain5,gain6,L,F,32,14,body_parts,faces,41,56,Stimuli/Experimental_stims/body_parts/towfiqu-barbhuiya-3AsiVDsZnHg-unsplash.jpg,Stimuli/Experimental_stims/faces/david-siglin-UuW4psOb388-unsplash.jpg,0,0,1194,1,unchosen,14,32,faces,body_parts,1500,0,5,4
65,64283,0,66,1,1,1,gain5,no_gain6,J,K,18,30,faces,body_parts,40,30,Stimuli/Experimental_stims/faces/jessica-radanavong-mrYkTuAesKE-unsplash.jpg,Stimuli/Experimental_stims/body_parts/mika-korhonen-Xodzxosar18-unsplash.jpg,0,1,579,1,chosen,18,30,faces,body_parts,1600,0,5,4
66,64283,0,67,1,1,0,no_gain2,gain6,D,F,41,14,objects,faces,53,56,Stimuli/Experimental_stims/objects/insung-yoon-w2JtIQQXoRU-unsplash.jpg,Stimuli/Experimental_stims/faces/david-siglin-UuW4psOb388-unsplash.jpg,0,0,1076,1,unchosen,14,41,faces,objects,3000,1,5,4
67,64283,0,68,1,1,0,no_gain1,gain1,E,C,34,29,body_parts,body_parts,36,63,Stimuli/Experimental_stims/body_parts/wagner-santos-mBWMvIuVnso-unsplash.jpg,Stimuli/Experimental_stims/body_parts/manuel-schinner-ZwjFuJ7ebpk-unsplash.jpg,0,0,692,1,chosen,29,34,body_parts,body_parts,1900,0,5,4
68,64283,0,69,1,1,0,no_gain4,gain2,G,A,44,36,objects,objects,46,55,Stimuli/Experimental_stims/objects/kuiye-chen-NuOGFo4PudE-unsplash.jpg,Stimuli/Experimental_stims/objects/alexander-andrews-JYGnB9gTCls-unsplash.jpg,0,1,916,0,unchosen,44,36,objects,objects,1100,0,5,4
69,64283,0,70,1,1,1,gain4,no_gain3,B,I,19,0,faces,outdoor_scenes,49,72,Stimuli/Experimental_stims/faces/joel-mott-LaK153ghdig-unsplash.jpg,Stimuli/Experimental_stims/outdoor_scenes/aleksandra-boguslawska-MS7KD9Ti7FQ-unsplash.jpg,0,1,948,1,chosen,19,0,faces,outdoor_scenes,1300,0,5,4
70,64283,0,71,1,1,1,gain6,no_gain1,F,E,28,34,body_parts,body_parts,30,36,Stimuli/Experimental_stims/body_parts/ira-vishnevskaya-8DQAvdCby1I-unsplash.jpg,Stimuli/Experimental_stims/body_parts/wagner-santos-mBWMvIuVnso-unsplash.jpg,0,1,600,1,chosen,28,34,body_parts,body_parts,2600,0,5,4
71,64283,0,72,1,1,0,no_gain5,gain5,L,J,17,18,faces,faces,28,40,Stimuli/Experimental_stims/faces/good-faces-xmSWVeGEnJw-unsplash.jpg,Stimuli/Experimental_stims/faces/jessica-radanavong-mrYkTuAesKE-unsplash.jpg,0,0,777,1,chosen,18,17,faces,faces,1100,0,5,4
72,64283,0,73,1,1,0,no_gain1,gain5,E,J,38,40,objects,objects,63,49,Stimuli/Experimental_stims/objects/art-lasovsky-8XddFc6NkBY-unsplash.jpg,Stimuli/Experimental_stims/objects/fabian-blank-pElSkGRA2NU-unsplash.jpg,0,0,968,1,unchosen,40,38,objects,objects,2500,0,5,4
73,64283,0,74,1,1,1,gain4,no_gain4,B,G,19,8,faces,outdoor_scenes,49,81,Stimuli/Experimental_stims/faces/joel-mott-LaK153ghdig-unsplash.jpg,Stimuli/Experimental_stims/outdoor_scenes/samsommer-vddccTqwal8-unsplash.jpg,0,1,601,1,chosen,19,8,faces,outdoor_scenes,2600,0,5,4
74,64283,0,75,1,1,0,no_gain1,gain5,E,J,34,18,body_parts,faces,36,40,Stimuli/Experimental_stims/body_parts/wagner-santos-mBWMvIuVnso-unsplash.jpg,Stimuli/Experimental_stims/faces/jessica-radanavong-mrYkTuAesKE-unsplash.jpg,0,0,614,1,chosen,18,34,faces,body_parts,1100,0,5,4
75,64283,0,76,1,1,1,gain3,no_gain5,H,L,12,32,faces,body_parts,46,41,Stimuli/Experimental_stims/faces/aiony-haust-jmATI5Q_YgY-unsplash.jpg,Stimuli/Experimental_stims/body_parts/towfiqu-barbhuiya-3AsiVDsZnHg-unsplash.jpg,0,1,1114,1,unchosen,12,32,faces,body_parts,4200,1,5,4
76,64283,0,77,2,2,1,gain4,no_gain6,B,K,4,45,outdoor_scenes,objects,82,65,Stimuli/Experimental_stims/outdoor_scenes/jarrett-kow-1ZOyYPOBn7I-unsplash.jpg,Stimuli/Experimental_stims/objects/leohoho-rngTKHXumy0-unsplash.jpg,0,0,1228,0,unchosen,45,4,objects,outdoor_scenes,1200,0,8,4
77,64283,0,78,2,2,1,gain4,no_gain3,B,I,4,33,outdoor_scenes,body_parts,82,10,Stimuli/Experimental_stims/outdoor_scenes/jarrett-kow-1ZOyYPOBn7I-unsplash.jpg,Stimuli/Experimental_stims/body_parts/tucker-good-36skLT5jZcc-unsplash.jpg,0,0,1084,0,unchosen,33,4,body_parts,outdoor_scenes,1400,0,8,4
78,64283,0,79,2,2,1,gain5,no_gain2,J,D,40,41,objects,objects,49,53,Stimuli/Experimental_stims/objects/fabian-blank-pElSkGRA2NU-unsplash.jpg,Stimuli/Experimental_stims/objects/insung-yoon-w2JtIQQXoRU-unsplash.jpg,0,1,970,1,unchosen,40,41,objects,objects,2800,0,8,4
79,64283,0,80,2,2,0,no_gain3,gain1,I,C,0,29,outdoor_scenes,body_parts,72,63,Stimuli/Experimental_stims/outdoor_scenes/aleksandra-boguslawska-MS7KD9Ti7FQ-unsplash.jpg,Stimuli/Experimental_stims/body_parts/manuel-schinner-ZwjFuJ7ebpk-unsplash.jpg,0,0,633,1,chosen,29,0,body_parts,outdoor_scenes,1700,0,8,4
80,64283,0,81,2,2,0,no_gain5,gain6,L,F,32,14,body_parts,faces,41,56,Stimuli/Experimental_stims/body_parts/towfiqu-barbhuiya-3AsiVDsZnHg-unsplash.jpg,Stimuli/Experimental_stims/faces/david-siglin-UuW4psOb388-unsplash.jpg,0,0,656,1,unchosen,14,32,faces,body_parts,3700,1,8,4
81,64283,0,82,2,2,1,gain1,no_gain4,C,G,10,44,outdoor_scenes,objects,78,46,Stimuli/Experimental_stims/outdoor_scenes/shannon-kunkle-dM8INmkyDas-unsplash.jpg,Stimuli/Experimental_stims/objects/kuiye-chen-NuOGFo4PudE-unsplash.jpg,0,0,1027,0,unchosen,44,10,objects,outdoor_scenes,2300,0,8,4
82,64283,0,83,2,2,0,no_gain1,gain1,E,C,34,29,body_parts,body_parts,36,63,Stimuli/Experimental_stims/body_parts/wagner-santos-mBWMvIuVnso-unsplash.jpg,Stimuli/Experimental_stims/body_parts/manuel-schinner-ZwjFuJ7ebpk-unsplash.jpg,0,0,547,1,chosen,29,34,body_parts,body_parts,2900,0,8,4
83,64283,0,84,2,2,0,no_gain3,gain5,I,J,33,40,body_parts,objects,10,49,Stimuli/Experimental_stims/body_parts/tucker-good-36skLT5jZcc-unsplash.jpg,Stimuli/Experimental_stims/objects/fabian-blank-pElSkGRA2NU-unsplash.jpg,0,0,735,1,unchosen,40,33,objects,body_parts,2300,0,8,4
84,64283,0,85,2,2,0,no_gain2,gain1,D,C,21,29,faces,body_parts,45,63,Stimuli/Experimental_stims/faces/leilani-angel-K84vnnzxmTQ-unsplash.jpg,Stimuli/Experimental_stims/body_parts/manuel-schinner-ZwjFuJ7ebpk-unsplash.jpg,0,0,820,1,chosen,29,21,body_parts,faces,1200,0,8,4
85,64283,0,86,2,2,0,no_gain1,gain1,E,C,38,10,objects,outdoor_scenes,63,78,Stimuli/Experimental_stims/objects/art-lasovsky-8XddFc6NkBY-unsplash.jpg,Stimuli/Experimental_stims/outdoor_scenes/shannon-kunkle-dM8INmkyDas-unsplash.jpg,0,0,1242,1,unchosen,10,38,outdoor_scenes,objects,3100,1,8,4
86,64283,0,87,2,2,0,no_gain2,gain4,D,B,21,19,faces,faces,45,49,Stimuli/Experimental_stims/faces/leilani-angel-K84vnnzxmTQ-unsplash.jpg,Stimuli/Experimental_stims/faces/joel-mott-LaK153ghdig-unsplash.jpg,0,0,549,1,chosen,19,21,faces,faces,1200,0,8,4
87,64283,0,88,2,2,0,no_gain5,gain2,L,A,32,36,body_parts,objects,41,55,Stimuli/Experimental_stims/body_parts/towfiqu-barbhuiya-3AsiVDsZnHg-unsplash.jpg,Stimuli/Experimental_stims/objects/alexander-andrews-JYGnB9gTCls-unsplash.jpg,0,1,1061,0,unchosen,32,36,body_parts,objects,1900,0,8,4
88,64283,0,89,2,2,1,gain6,no_gain1,F,E,28,34,body_parts,body_parts,30,36,Stimuli/Experimental_stims/body_parts/ira-vishnevskaya-8DQAvdCby1I-unsplash.jpg,Stimuli/Experimental_stims/body_parts/wagner-santos-mBWMvIuVnso-unsplash.jpg,0,1,647,1,chosen,28,34,body_parts,body_parts,2800,0,8,4
89,64283,0,90,2,2,1,gain5,no_gain3,J,I,18,0,faces,outdoor_scenes,40,72,Stimuli/Experimental_stims/faces/jessica-radanavong-mrYkTuAesKE-unsplash.jpg,Stimuli/Experimental_stims/outdoor_scenes/aleksandra-boguslawska-MS7KD9Ti7FQ-unsplash.jpg,0,1,696,1,chosen,18,0,faces,outdoor_scenes,1200,0,8,4
90,64283,0,91,2,2,1,gain4,no_gain4,B,G,4,44,outdoor_scenes,objects,82,46,Stimuli/Experimental_stims/outdoor_scenes/jarrett-kow-1ZOyYPOBn7I-unsplash.jpg,Stimuli/Experimental_stims/objects/kuiye-chen-NuOGFo4PudE-unsplash.jpg,0,0,858,0,unchosen,44,4,objects,outdoor_scenes,3800,1,8,4
91,64283,0,92,2,2,0,no_gain1,gain2,E,A,38,36,objects,objects,63,55,Stimuli/Experimental_stims/objects/art-lasovsky-8XddFc6NkBY-unsplash.jpg,Stimuli/Experimental_stims/objects/alexander-andrews-JYGnB9gTCls-unsplash.jpg,0,1,1058,0,unchosen,38,36,objects,objects,1800,0,8,4
92,64283,0,93,2,2,0,no_gain3,gain4,I,B,0,19,outdoor_scenes,faces,72,49,Stimuli/Experimental_stims/outdoor_scenes/aleksandra-boguslawska-MS7KD9Ti7FQ-unsplash.jpg,Stimuli/Experimental_stims/faces/joel-mott-LaK153ghdig-unsplash.jpg,0,0,509,1,chosen,19,0,faces,outdoor_scenes,2300,0,8,4
93,64283,0,94,2,2,1,gain5,no_gain1,J,E,18,34,faces,body_parts,40,36,Stimuli/Experimental_stims/faces/jessica-radanavong-mrYkTuAesKE-unsplash.jpg,Stimuli/Experimental_stims/body_parts/wagner-santos-mBWMvIuVnso-unsplash.jpg,0,1,662,1,chosen,18,34,faces,body_parts,1400,0,8,4
94,64283,0,95,2,2,0,no_gain5,gain4,L,B,32,4,body_parts,outdoor_scenes,41,82,Stimuli/Experimental_stims/body_parts/towfiqu-barbhuiya-3AsiVDsZnHg-unsplash.jpg,Stimuli/Experimental_stims/outdoor_scenes/jarrett-kow-1ZOyYPOBn7I-unsplash.jpg,0,1,963,0,unchosen,32,4,body_parts,outdoor_scenes,1300,0,8,4
95,64283,0,96,2,2,1,gain4,no_gain5,B,L,19,17,faces,faces,49,28,Stimuli/Experimental_stims/faces/joel-mott-LaK153ghdig-unsplash.jpg,Stimuli/Experimental_stims/faces/good-faces-xmSWVeGEnJw-unsplash.jpg,0,1,758,1,chosen,19,17,faces,faces,1700,0,8,4
96,64283,0,97,2,2,1,gain5,no_gain1,J,E,40,38,objects,objects,49,63,Stimuli/Experimental_stims/objects/fabian-blank-pElSkGRA2NU-unsplash.jpg,Stimuli/Experimental_stims/objects/art-lasovsky-8XddFc6NkBY-unsplash.jpg,0,1,782,1,unchosen,40,38,objects,objects,3100,1,8,4
97,64283,0,98,2,2,1,gain1,no_gain6,C,K,29,30,body_parts,body_parts,63,30,Stimuli/Experimental_stims/body_parts/manuel-schinner-ZwjFuJ7ebpk-unsplash.jpg,Stimuli/Experimental_stims/body_parts/mika-korhonen-Xodzxosar18-unsplash.jpg,0,0,1151,0,chosen,30,29,body_parts,body_parts,1300,0,8,4
98,64283,0,99,2,2,0,no_gain2,gain1,D,C,41,10,objects,outdoor_scenes,53,78,Stimuli/Experimental_stims/objects/insung-yoon-w2JtIQQXoRU-unsplash.jpg,Stimuli/Experimental_stims/outdoor_scenes/shannon-kunkle-dM8INmkyDas-unsplash.jpg,0,1,1136,0,unchosen,41,10,objects,outdoor_scenes,2100,0,8,4
99,64283,0,100,2,2,1,gain2,no_gain3,A,I,1,0,outdoor_scenes,outdoor_scenes,79,72,Stimuli/Experimental_stims/outdoor_scenes/ashim-d-silva-S2Q5mdOrrVc-unsplash.jpg,Stimuli/Experimental_stims/outdoor_scenes/aleksandra-boguslawska-MS7KD9Ti7FQ-unsplash.jpg,0,1,728,1,chosen,1,0,outdoor_scenes,outdoor_scenes,1000,0,8,4
100,64283,0,101,2,2,1,gain2,no_gain2,A,D,1,21,outdoor_scenes,faces,79,45,Stimuli/Experimental_stims/outdoor_scenes/ashim-d-silva-S2Q5mdOrrVc-unsplash.jpg,Stimuli/Experimental_stims/faces/leilani-angel-K84vnnzxmTQ-unsplash.jpg,0,1,733,1,chosen,1,21,outdoor_scenes,faces,1200,0,8,4
101,64283,0,102,2,2,1,gain3,no_gain1,H,E,3,34,outdoor_scenes,body_parts,91,36,Stimuli/Experimental_stims/outdoor_scenes/henry-be-NLF6hTe4PAg-unsplash.jpg,Stimuli/Experimental_stims/body_parts/wagner-santos-mBWMvIuVnso-unsplash.jpg,0,1,676,1,chosen,3,34,outdoor_scenes,body_parts,1700,0,8,4
102,64283,0,103,2,2,0,no_gain5,gain5,L,J,32,40,body_parts,objects,41,49,Stimuli/Experimental_stims/body_parts/towfiqu-barbhuiya-3AsiVDsZnHg-unsplash.jpg,Stimuli/Experimental_stims/objects/fabian-blank-pElSkGRA2NU-unsplash.jpg,0,1,1252,0,unchosen,32,40,body_parts,objects,1100,0,8,4
103,64283,0,104,2,2,0,no_gain6,gain5,K,J,30,18,body_parts,faces,30,40,Stimuli/Experimental_stims/body_parts/mika-korhonen-Xodzxosar18-unsplash.jpg,Stimuli/Experimental_stims/faces/jessica-radanavong-mrYkTuAesKE-unsplash.jpg,0,0,632,1,chosen,18,30,faces,body_parts,1900,0,8,4
104,64283,0,105,2,2,0,no_gain2,gain3,D,H,21,3,faces,outdoor_scenes,45,91,Stimuli/Experimental_stims/faces/leilani-angel-K84vnnzxmTQ-unsplash.jpg,Stimuli/Experimental_stims/outdoor_scenes/henry-be-NLF6hTe4PAg-unsplash.jpg,0,0,683,1,chosen,3,21,outdoor_scenes,faces,4100,1,8,4
105,64283,0,106,2,2,0,no_gain1,gain4,E,B,38,4,objects,outdoor_scenes,63,82,Stimuli/Experimental_stims/objects/art-lasovsky-8XddFc6NkBY-unsplash.jpg,Stimuli/Experimental_stims/outdoor_scenes/jarrett-kow-1ZOyYPOBn7I-unsplash.jpg,0,1,1240,0,unchosen,38,4,objects,outdoor_scenes,1400,0,8,4
106,64283,0,107,2,2,0,no_gain4,gain2,G,A,44,36,objects,objects,46,55,Stimuli/Experimental_stims/objects/kuiye-chen-NuOGFo4PudE-unsplash.jpg,Stimuli/Experimental_stims/objects/alexander-andrews-JYGnB9gTCls-unsplash.jpg,0,0,1100,1,unchosen,36,44,objects,objects,2400,0,8,4
107,64283,0,108,2,2,0,no_gain5,gain1,L,C,17,29,faces,body_parts,28,63,Stimuli/Experimental_stims/faces/good-faces-xmSWVeGEnJw-unsplash.jpg,Stimuli/Experimental_stims/body_parts/manuel-schinner-ZwjFuJ7ebpk-unsplash.jpg,0,0,607,1,chosen,29,17,body_parts,faces,1200,0,8,4
108,64283,0,109,2,2,1,gain6,no_gain1,F,E,14,38,faces,objects,56,63,Stimuli/Experimental_stims/faces/david-siglin-UuW4psOb388-unsplash.jpg,Stimuli/Experimental_stims/objects/art-lasovsky-8XddFc6NkBY-unsplash.jpg,0,1,791,1,unchosen,14,38,faces,objects,1500,0,8,4
109,64283,0,110,2,2,1,gain1,no_gain6,C,K,10,45,outdoor_scenes,objects,78,65,Stimuli/Experimental_stims/outdoor_scenes/shannon-kunkle-dM8INmkyDas-unsplash.jpg,Stimuli/Experimental_stims/objects/leohoho-rngTKHXumy0-unsplash.jpg,0,1,1109,1,unchosen,10,45,outdoor_scenes,objects,3200,1,8,4
110,64283,0,111,2,2,0,no_gain5,gain2,L,A,17,1,faces,outdoor_scenes,28,79,Stimuli/Experimental_stims/faces/good-faces-xmSWVeGEnJw-unsplash.jpg,Stimuli/Experimental_stims/outdoor_scenes/ashim-d-silva-S2Q5mdOrrVc-unsplash.jpg,0,0,675,1,chosen,1,17,outdoor_scenes,faces,1800,0,8,4
111,64283,0,112,2,2,0,no_gain5,gain1,L,C,32,10,body_parts,outdoor_scenes,41,78,Stimuli/Experimental_stims/body_parts/towfiqu-barbhuiya-3AsiVDsZnHg-unsplash.jpg,Stimuli/Experimental_stims/outdoor_scenes/shannon-kunkle-dM8INmkyDas-unsplash.jpg,0,1,821,0,unchosen,32,10,body_parts,outdoor_scenes,1100,0,8,4
112,64283,0,113,2,2,1,gain2,no_gain6,A,K,36,45,objects,objects,55,65,Stimuli/Experimental_stims/objects/alexander-andrews-JYGnB9gTCls-unsplash.jpg,Stimuli/Experimental_stims/objects/leohoho-rngTKHXumy0-unsplash.jpg,0,0,729,0,unchosen,45,36,objects,objects,1700,0,8,4
113,64283,0,114,2,2,1,gain6,no_gain4,F,G,28,8,body_parts,outdoor_scenes,30,81,Stimuli/Experimental_stims/body_parts/ira-vishnevskaya-8DQAvdCby1I-unsplash.jpg,Stimuli/Experimental_stims/outdoor_scenes/samsommer-vddccTqwal8-unsplash.jpg,0,1,859,1,chosen,28,8,body_parts,outdoor_scenes,2700,0,8,4
114,64283,0,115,2,2,1,gain6,no_gain3,F,I,14,33,faces,body_parts,56,10,Stimuli/Experimental_stims/faces/david-siglin-UuW4psOb388-unsplash.jpg,Stimuli/Experimental_stims/body_parts/tucker-good-36skLT5jZcc-unsplash.jpg,0,1,720,1,unchosen,14,33,faces,body_parts,1100,0,8,4
115,64283,0,116,2,2,0,no_gain6,gain4,K,B,30,19,body_parts,faces,30,49,Stimuli/Experimental_stims/body_parts/mika-korhonen-Xodzxosar18-unsplash.jpg,Stimuli/Experimental_stims/faces/joel-mott-LaK153ghdig-unsplash.jpg,0,1,608,0,chosen,30,19,body_parts,faces,1100,0,8,4
116,64283,0,117,2,2,0,no_gain1,gain3,E,H,38,12,objects,faces,63,46,Stimuli/Experimental_stims/objects/art-lasovsky-8XddFc6NkBY-unsplash.jpg,Stimuli/Experimental_stims/faces/aiony-haust-jmATI5Q_YgY-unsplash.jpg,0,1,1121,0,unchosen,38,12,objects,faces,2400,0,8,4
117,64283,0,118,2,2,1,gain3,no_gain6,H,K,3,30,outdoor_scenes,body_parts,91,30,Stimuli/Experimental_stims/outdoor_scenes/henry-be-NLF6hTe4PAg-unsplash.jpg,Stimuli/Experimental_stims/body_parts/mika-korhonen-Xodzxosar18-unsplash.jpg,0,1,964,1,chosen,3,30,outdoor_scenes,body_parts,3400,1,8,4
118,64283,0,119,2,2,1,gain3,no_gain3,H,I,3,0,outdoor_scenes,outdoor_scenes,91,72,Stimuli/Experimental_stims/outdoor_scenes/henry-be-NLF6hTe4PAg-unsplash.jpg,Stimuli/Experimental_stims/outdoor_scenes/aleksandra-boguslawska-MS7KD9Ti7FQ-unsplash.jpg,0,1,675,1,chosen,3,0,outdoor_scenes,outdoor_scenes,2000,0,8,4
119,64283,0,120,2,2,0,no_gain6,gain3,K,H,45,12,objects,faces,65,46,Stimuli/Experimental_stims/objects/leohoho-rngTKHXumy0-unsplash.jpg,Stimuli/Experimental_stims/faces/aiony-haust-jmATI5Q_YgY-unsplash.jpg,0,1,821,0,unchosen,45,12,objects,faces,2100,0,8,4
120,64283,0,121,2,2,0,no_gain2,gain6,D,F,41,14,objects,faces,53,56,Stimuli/Experimental_stims/objects/insung-yoon-w2JtIQQXoRU-unsplash.jpg,Stimuli/Experimental_stims/faces/david-siglin-UuW4psOb388-unsplash.jpg,0,0,1132,1,unchosen,14,41,faces,objects,2500,0,8,4
121,64283,0,122,2,2,1,gain5,no_gain4,J,G,40,44,objects,objects,49,46,Stimuli/Experimental_stims/objects/fabian-blank-pElSkGRA2NU-unsplash.jpg,Stimuli/Experimental_stims/objects/kuiye-chen-NuOGFo4PudE-unsplash.jpg,0,1,922,1,unchosen,40,44,objects,objects,1600,0,8,4
122,64283,0,123,2,2,1,gain2,no_gain4,A,G,1,8,outdoor_scenes,outdoor_scenes,79,81,Stimuli/Experimental_stims/outdoor_scenes/ashim-d-silva-S2Q5mdOrrVc-unsplash.jpg,Stimuli/Experimental_stims/outdoor_scenes/samsommer-vddccTqwal8-unsplash.jpg,0,1,626,1,chosen,1,8,outdoor_scenes,outdoor_scenes,2400,0,8,4
123,64283,0,124,2,2,1,gain4,no_gain1,B,E,19,34,faces,body_parts,49,36,Stimuli/Experimental_stims/faces/joel-mott-LaK153ghdig-unsplash.jpg,Stimuli/Experimental_stims/body_parts/wagner-santos-mBWMvIuVnso-unsplash.jpg,0,1,813,1,chosen,19,34,faces,body_parts,1300,0,8,4
124,64283,0,125,2,2,1,gain3,no_gain4,H,G,12,44,faces,objects,46,46,Stimuli/Experimental_stims/faces/aiony-haust-jmATI5Q_YgY-unsplash.jpg,Stimuli/Experimental_stims/objects/kuiye-chen-NuOGFo4PudE-unsplash.jpg,0,0,994,0,unchosen,44,12,objects,faces,1900,0,8,4
125,64283,0,126,2,2,1,gain2,no_gain1,A,E,1,34,outdoor_scenes,body_parts,79,36,Stimuli/Experimental_stims/outdoor_scenes/ashim-d-silva-S2Q5mdOrrVc-unsplash.jpg,Stimuli/Experimental_stims/body_parts/wagner-santos-mBWMvIuVnso-unsplash.jpg,0,1,573,1,chosen,1,34,outdoor_scenes,body_parts,1600,0,8,4
126,64283,0,127,2,2,0,no_gain2,gain5,D,J,21,18,faces,faces,45,40,Stimuli/Experimental_stims/faces/leilani-angel-K84vnnzxmTQ-unsplash.jpg,Stimuli/Experimental_stims/faces/jessica-radanavong-mrYkTuAesKE-unsplash.jpg,0,0,940,1,chosen,18,21,faces,faces,1100,0,8,4
127,64283,0,128,2,2,1,gain3,no_gain2,H,D,12,41,faces,objects,46,53,Stimuli/Experimental_stims/faces/aiony-haust-jmATI5Q_YgY-unsplash.jpg,Stimuli/Experimental_stims/objects/insung-yoon-w2JtIQQXoRU-unsplash.jpg,0,0,1065,0,unchosen,41,12,objects,faces,1200,0,8,4
128,64283,0,129,2,2,1,gain3,no_gain3,H,I,12,33,faces,body_parts,46,10,Stimuli/Experimental_stims/faces/aiony-haust-jmATI5Q_YgY-unsplash.jpg,Stimuli/Experimental_stims/body_parts/tucker-good-36skLT5jZcc-unsplash.jpg,0,0,995,0,unchosen,33,12,body_parts,faces,1300,0,8,4
129,64283,0,130,2,2,1,gain4,no_gain4,B,G,19,8,faces,outdoor_scenes,49,81,Stimuli/Experimental_stims/faces/joel-mott-LaK153ghdig-unsplash.jpg,Stimuli/Experimental_stims/outdoor_scenes/samsommer-vddccTqwal8-unsplash.jpg,0,1,588,1,chosen,19,8,faces,outdoor_scenes,1000,0,8,4
130,64283,0,131,2,2,0,no_gain4,gain1,G,C,8,29,outdoor_scenes,body_parts,81,63,Stimuli/Experimental_stims/outdoor_scenes/samsommer-vddccTqwal8-unsplash.jpg,Stimuli/Experimental_stims/body_parts/manuel-schinner-ZwjFuJ7ebpk-unsplash.jpg,0,0,566,1,chosen,29,8,body_parts,outdoor_scenes,2900,0,8,4
131,64283,0,132,2,2,0,no_gain2,gain6,D,F,21,28,faces,body_parts,45,30,Stimuli/Experimental_stims/faces/leilani-angel-K84vnnzxmTQ-unsplash.jpg,Stimuli/Experimental_stims/body_parts/ira-vishnevskaya-8DQAvdCby1I-unsplash.jpg,0,0,854,1,chosen,28,21,body_parts,faces,2200,0,8,4
132,64283,0,133,2,2,0,no_gain3,gain2,I,A,33,36,body_parts,objects,10,55,Stimuli/Experimental_stims/body_parts/tucker-good-36skLT5jZcc-unsplash.jpg,Stimuli/Experimental_stims/objects/alexander-andrews-JYGnB9gTCls-unsplash.jpg,0,0,1258,1,unchosen,36,33,objects,body_parts,3200,1,8,4
133,64283,0,134,2,2,1,gain1,no_gain3,C,I,10,33,outdoor_scenes,body_parts,78,10,Stimuli/Experimental_stims/outdoor_scenes/shannon-kunkle-dM8INmkyDas-unsplash.jpg,Stimuli/Experimental_stims/body_parts/tucker-good-36skLT5jZcc-unsplash.jpg,0,1,1109,1,unchosen,10,33,outdoor_scenes,body_parts,2600,0,8,4
134,64283,0,135,2,2,0,no_gain6,gain6,K,F,45,14,objects,faces,65,56,Stimuli/Experimental_stims/objects/leohoho-rngTKHXumy0-unsplash.jpg,Stimuli/Experimental_stims/faces/david-siglin-UuW4psOb388-unsplash.jpg,0,0,982,1,unchosen,14,45,faces,objects,1200,0,8,4
135,64283,0,136,2,2,0,no_gain4,gain3,G,H,8,3,outdoor_scenes,outdoor_scenes,81,91,Stimuli/Experimental_stims/outdoor_scenes/samsommer-vddccTqwal8-unsplash.jpg,Stimuli/Experimental_stims/outdoor_scenes/henry-be-NLF6hTe4PAg-unsplash.jpg,0,0,918,1,chosen,3,8,outdoor_scenes,outdoor_scenes,1100,0,8,4
136,64283,0,137,2,2,1,gain5,no_gain6,J,K,40,45,objects,objects,49,65,Stimuli/Experimental_stims/objects/fabian-blank-pElSkGRA2NU-unsplash.jpg,Stimuli/Experimental_stims/objects/leohoho-rngTKHXumy0-unsplash.jpg,0,1,765,1,unchosen,40,45,objects,objects,2000,0,8,4
137,64283,0,138,2,2,0,no_gain6,gain2,K,A,30,1,body_parts,outdoor_scenes,30,79,Stimuli/Experimental_stims/body_parts/mika-korhonen-Xodzxosar18-unsplash.jpg,Stimuli/Experimental_stims/outdoor_scenes/ashim-d-silva-S2Q5mdOrrVc-unsplash.jpg,0,0,813,1,chosen,1,30,outdoor_scenes,body_parts,4100,1,8,4
138,64283,0,139,2,2,0,no_gain2,gain4,D,B,41,4,objects,outdoor_scenes,53,82,Stimuli/Experimental_stims/objects/insung-yoon-w2JtIQQXoRU-unsplash.jpg,Stimuli/Experimental_stims/outdoor_scenes/jarrett-kow-1ZOyYPOBn7I-unsplash.jpg,0,0,878,1,unchosen,4,41,outdoor_scenes,objects,1700,0,8,4
139,64283,0,140,2,2,0,no_gain2,gain2,D,A,41,36,objects,objects,53,55,Stimuli/Experimental_stims/objects/insung-yoon-w2JtIQQXoRU-unsplash.jpg,Stimuli/Experimental_stims/objects/alexander-andrews-JYGnB9gTCls-unsplash.jpg,0,0,1056,1,unchosen,36,41,objects,objects,1200,0,8,4
140,64283,0,141,2,2,1,gain6,no_gain3,F,I,28,0,body_parts,outdoor_scenes,30,72,Stimuli/Experimental_stims/body_parts/ira-vishnevskaya-8DQAvdCby1I-unsplash.jpg,Stimuli/Experimental_stims/outdoor_scenes/aleksandra-boguslawska-MS7KD9Ti7FQ-unsplash.jpg,0,1,764,1,chosen,28,0,body_parts,outdoor_scenes,1000,0,8,4
141,64283,0,142,2,2,0,no_gain5,gain5,L,J,17,18,faces,faces,28,40,Stimuli/Experimental_stims/faces/good-faces-xmSWVeGEnJw-unsplash.jpg,Stimuli/Experimental_stims/faces/jessica-radanavong-mrYkTuAesKE-unsplash.jpg,0,0,675,1,chosen,18,17,faces,faces,1800,0,8,4
142,64283,0,143,2,2,0,no_gain5,gain6,L,F,17,28,faces,body_parts,28,30,Stimuli/Experimental_stims/faces/good-faces-xmSWVeGEnJw-unsplash.jpg,Stimuli/Experimental_stims/body_parts/ira-vishnevskaya-8DQAvdCby1I-unsplash.jpg,0,0,867,1,chosen,28,17,body_parts,faces,3500,1,8,4
143,64283,0,144,2,2,1,gain6,no_gain4,F,G,14,44,faces,objects,56,46,Stimuli/Experimental_stims/faces/david-siglin-UuW4psOb388-unsplash.jpg,Stimuli/Experimental_stims/objects/kuiye-chen-NuOGFo4PudE-unsplash.jpg,0,0,1025,0,unchosen,44,14,objects,faces,2700,0,8,4
144,64283,0,145,2,2,1,gain6,no_gain6,F,K,28,30,body_parts,body_parts,30,30,Stimuli/Experimental_stims/body_parts/ira-vishnevskaya-8DQAvdCby1I-unsplash.jpg,Stimuli/Experimental_stims/body_parts/mika-korhonen-Xodzxosar18-unsplash.jpg,0,1,676,1,chosen,28,30,body_parts,body_parts,2400,0,8,4
145,64283,0,146,2,2,1,gain3,no_gain5,H,L,12,32,faces,body_parts,46,41,Stimuli/Experimental_stims/faces/aiony-haust-jmATI5Q_YgY-unsplash.jpg,Stimuli/Experimental_stims/body_parts/towfiqu-barbhuiya-3AsiVDsZnHg-unsplash.jpg,0,0,947,0,unchosen,32,12,body_parts,faces,1400,0,8,4
146,64283,0,147,2,2,1,gain5,no_gain4,J,G,18,8,faces,outdoor_scenes,40,81,Stimuli/Experimental_stims/faces/jessica-radanavong-mrYkTuAesKE-unsplash.jpg,Stimuli/Experimental_stims/outdoor_scenes/samsommer-vddccTqwal8-unsplash.jpg,0,1,589,1,chosen,18,8,faces,outdoor_scenes,1200,0,8,4
147,64283,0,148,2,2,0,no_gain5,gain3,L,H,17,3,faces,outdoor_scenes,28,91,Stimuli/Experimental_stims/faces/good-faces-xmSWVeGEnJw-unsplash.jpg,Stimuli/Experimental_stims/outdoor_scenes/henry-be-NLF6hTe4PAg-unsplash.jpg,0,0,774,1,chosen,3,17,outdoor_scenes,faces,3300,1,8,4
148,64283,0,149,3,3,1,gain5,no_gain3,J,I,18,0,faces,outdoor_scenes,40,72,Stimuli/Experimental_stims/faces/jessica-radanavong-mrYkTuAesKE-unsplash.jpg,Stimuli/Experimental_stims/outdoor_scenes/aleksandra-boguslawska-MS7KD9Ti7FQ-unsplash.jpg,0,1,859,1,chosen,18,0,faces,outdoor_scenes,3900,1,7,4
149,64283,0,150,3,3,0,no_gain3,gain4,I,B,0,19,outdoor_scenes,faces,72,49,Stimuli/Experimental_stims/outdoor_scenes/aleksandra-boguslawska-MS7KD9Ti7FQ-unsplash.jpg,Stimuli/Experimental_stims/faces/joel-mott-LaK153ghdig-unsplash.jpg,0,0,700,1,chosen,19,0,faces,outdoor_scenes,1200,0,7,4
150,64283,0,151,3,3,1,gain6,no_gain3,F,I,28,0,body_parts,outdoor_scenes,30,72,Stimuli/Experimental_stims/body_parts/ira-vishnevskaya-8DQAvdCby1I-unsplash.jpg,Stimuli/Experimental_stims/outdoor_scenes/aleksandra-boguslawska-MS7KD9Ti7FQ-unsplash.jpg,0,1,851,1,chosen,28,0,body_parts,outdoor_scenes,1500,0,7,4
151,64283,0,152,3,3,1,gain4,no_gain4,B,G,4,44,outdoor_scenes,objects,82,46,Stimuli/Experimental_stims/outdoor_scenes/jarrett-kow-1ZOyYPOBn7I-unsplash.jpg,Stimuli/Experimental_stims/objects/kuiye-chen-NuOGFo4PudE-unsplash.jpg,0,0,746,0,unchosen,44,4,objects,outdoor_scenes,2700,0,7,4
152,64283,0,153,3,3,1,gain5,no_gain5,J,L,40,32,objects,body_parts,49,41,Stimuli/Experimental_stims/objects/fabian-blank-pElSkGRA2NU-unsplash.jpg,Stimuli/Experimental_stims/body_parts/towfiqu-barbhuiya-3AsiVDsZnHg-unsplash.jpg,0,1,836,1,unchosen,40,32,objects,body_parts,1300,0,7,4
153,64283,0,154,3,3,0,no_gain6,gain1,K,C,30,29,body_parts,body_parts,30,63,Stimuli/Experimental_stims/body_parts/mika-korhonen-Xodzxosar18-unsplash.jpg,Stimuli/Experimental_stims/body_parts/manuel-schinner-ZwjFuJ7ebpk-unsplash.jpg,0,0,584,1,chosen,29,30,body_parts,body_parts,1000,0,7,4
154,64283,0,155,3,3,1,gain1,no_gain3,C,I,29,0,body_parts,outdoor_scenes,63,72,Stimuli/Experimental_stims/body_parts/manuel-schinner-ZwjFuJ7ebpk-unsplash.jpg,Stimuli/Experimental_stims/outdoor_scenes/aleksandra-boguslawska-MS7KD9Ti7FQ-unsplash.jpg,0,1,916,1,chosen,29,0,body_parts,outdoor_scenes,3000,1,7,4
155,64283,0,156,3,3,0,no_gain2,gain3,D,H,41,12,objects,faces,53,46,Stimuli/Experimental_stims/objects/insung-yoon-w2JtIQQXoRU-unsplash.jpg,Stimuli/Experimental_stims/faces/aiony-haust-jmATI5Q_YgY-unsplash.jpg,0,1,841,0,unchosen,41,12,objects,faces,2800,0,7,4
156,64283,0,157,3,3,1,gain3,no_gain5,H,L,3,17,outdoor_scenes,faces,91,28,Stimuli/Experimental_stims/outdoor_scenes/henry-be-NLF6hTe4PAg-unsplash.jpg,Stimuli/Experimental_stims/faces/good-faces-xmSWVeGEnJw-unsplash.jpg,0,1,804,1,chosen,3,17,outdoor_scenes,faces,1400,0,7,4
157,64283,0,158,3,3,1,gain1,no_gain1,C,E,29,34,body_parts,body_parts,63,36,Stimuli/Experimental_stims/body_parts/manuel-schinner-ZwjFuJ7ebpk-unsplash.jpg,Stimuli/Experimental_stims/body_parts/wagner-santos-mBWMvIuVnso-unsplash.jpg,0,1,917,1,chosen,29,34,body_parts,body_parts,2500,0,7,4
158,64283,0,159,3,3,0,no_gain3,gain2,I,A,33,36,body_parts,objects,10,55,Stimuli/Experimental_stims/body_parts/tucker-good-36skLT5jZcc-unsplash.jpg,Stimuli/Experimental_stims/objects/alexander-andrews-JYGnB9gTCls-unsplash.jpg,0,0,931,1,unchosen,36,33,objects,body_parts,1600,0,7,4
159,64283,0,160,3,3,1,gain2,no_gain4,A,G,36,44,objects,objects,55,46,Stimuli/Experimental_stims/objects/alexander-andrews-JYGnB9gTCls-unsplash.jpg,Stimuli/Experimental_stims/objects/kuiye-chen-NuOGFo4PudE-unsplash.jpg,0,1,881,1,unchosen,36,44,objects,objects,3600,1,7,4
160,64283,0,161,3,3,0,no_gain4,gain5,G,J,44,40,objects,objects,46,49,Stimuli/Experimental_stims/objects/kuiye-chen-NuOGFo4PudE-unsplash.jpg,Stimuli/Experimental_stims/objects/fabian-blank-pElSkGRA2NU-unsplash.jpg,0,0,1160,1,unchosen,40,44,objects,objects,1200,0,7,4
161,64283,0,162,3,3,0,no_gain5,gain4,L,B,17,19,faces,faces,28,49,Stimuli/Experimental_stims/faces/good-faces-xmSWVeGEnJw-unsplash.jpg,Stimuli/Experimental_stims/faces/joel-mott-LaK153ghdig-unsplash.jpg,0,0,579,1,chosen,19,17,faces,faces,1800,0,7,4
162,64283,0,163,3,3,1,gain2,no_gain5,A,L,1,17,outdoor_scenes,faces,79,28,Stimuli/Experimental_stims/outdoor_scenes/ashim-d-silva-S2Q5mdOrrVc-unsplash.jpg,Stimuli/Experimental_stims/faces/good-faces-xmSWVeGEnJw-unsplash.jpg,0,1,542,1,chosen,1,17,outdoor_scenes,faces,2800,0,7,4
163,64283,0,164,3,3,1,gain5,no_gain6,J,K,40,45,objects,objects,49,65,Stimuli/Experimental_stims/objects/fabian-blank-pElSkGRA2NU-unsplash.jpg,Stimuli/Experimental_stims/objects/leohoho-rngTKHXumy0-unsplash.jpg,0,1,745,1,unchosen,40,45,objects,objects,2100,0,7,4
164,64283,0,165,3,3,0,no_gain4,gain3,G,H,8,3,outdoor_scenes,outdoor_scenes,81,91,Stimuli/Experimental_stims/outdoor_scenes/samsommer-vddccTqwal8-unsplash.jpg,Stimuli/Experimental_stims/outdoor_scenes/henry-be-NLF6hTe4PAg-unsplash.jpg,0,0,699,1,chosen,3,8,outdoor_scenes,outdoor_scenes,1500,0,7,4
165,64283,0,166,3,3,0,no_gain1,gain5,E,J,34,18,body_parts,faces,36,40,Stimuli/Experimental_stims/body_parts/wagner-santos-mBWMvIuVnso-unsplash.jpg,Stimuli/Experimental_stims/faces/jessica-radanavong-mrYkTuAesKE-unsplash.jpg,0,0,561,1,chosen,18,34,faces,body_parts,2100,0,7,4
166,64283,0,167,3,3,0,no_gain3,gain2,I,A,0,1,outdoor_scenes,outdoor_scenes,72,79,Stimuli/Experimental_stims/outdoor_scenes/aleksandra-boguslawska-MS7KD9Ti7FQ-unsplash.jpg,Stimuli/Experimental_stims/outdoor_scenes/ashim-d-silva-S2Q5mdOrrVc-unsplash.jpg,0,0,574,1,chosen,1,0,outdoor_scenes,outdoor_scenes,3600,1,7,4
167,64283,0,168,3,3,1,gain6,no_gain4,F,G,14,44,faces,objects,56,46,Stimuli/Experimental_stims/faces/david-siglin-UuW4psOb388-unsplash.jpg,Stimuli/Experimental_stims/objects/kuiye-chen-NuOGFo4PudE-unsplash.jpg,0,1,794,1,unchosen,14,44,faces,objects,1300,0,7,4
168,64283,0,169,3,3,0,no_gain4,gain2,G,A,8,1,outdoor_scenes,outdoor_scenes,81,79,Stimuli/Experimental_stims/outdoor_scenes/samsommer-vddccTqwal8-unsplash.jpg,Stimuli/Experimental_stims/outdoor_scenes/ashim-d-silva-S2Q5mdOrrVc-unsplash.jpg,0,0,1026,1,chosen,1,8,outdoor_scenes,outdoor_scenes,2700,0,7,4
169,64283,0,170,3,3,1,gain1,no_gain4,C,G,10,44,outdoor_scenes,objects,78,46,Stimuli/Experimental_stims/outdoor_scenes/shannon-kunkle-dM8INmkyDas-unsplash.jpg,Stimuli/Experimental_stims/objects/kuiye-chen-NuOGFo4PudE-unsplash.jpg,0,0,1295,0,unchosen,44,10,objects,outdoor_scenes,1400,0,7,4
170,64283,0,171,3,3,0,no_gain2,gain4,D,B,41,4,objects,outdoor_scenes,53,82,Stimuli/Experimental_stims/objects/insung-yoon-w2JtIQQXoRU-unsplash.jpg,Stimuli/Experimental_stims/outdoor_scenes/jarrett-kow-1ZOyYPOBn7I-unsplash.jpg,0,0,1400,1,unchosen,4,41,outdoor_scenes,objects,2300,0,7,4
171,64283,0,172,3,3,0,no_gain1,gain1,E,C,38,10,objects,outdoor_scenes,63,78,Stimuli/Experimental_stims/objects/art-lasovsky-8XddFc6NkBY-unsplash.jpg,Stimuli/Experimental_stims/outdoor_scenes/shannon-kunkle-dM8INmkyDas-unsplash.jpg,0,0,1050,1,unchosen,10,38,outdoor_scenes,objects,3400,1,7,4
172,64283,0,173,3,3,1,gain4,no_gain2,B,D,19,21,faces,faces,49,45,Stimuli/Experimental_stims/faces/joel-mott-LaK153ghdig-unsplash.jpg,Stimuli/Experimental_stims/faces/leilani-angel-K84vnnzxmTQ-unsplash.jpg,0,1,843,1,chosen,19,21,faces,faces,1200,0,7,4
173,64283,0,174,3,3,0,no_gain6,gain6,K,F,45,14,objects,faces,65,56,Stimuli/Experimental_stims/objects/leohoho-rngTKHXumy0-unsplash.jpg,Stimuli/Experimental_stims/faces/david-siglin-UuW4psOb388-unsplash.jpg,0,1,964,0,unchosen,45,14,objects,faces,2500,0,7,4
174,64283,0,175,3,3,1,gain3,no_gain3,H,I,3,0,outdoor_scenes,outdoor_scenes,91,72,Stimuli/Experimental_stims/outdoor_scenes/henry-be-NLF6hTe4PAg-unsplash.jpg,Stimuli/Experimental_stims/outdoor_scenes/aleksandra-boguslawska-MS7KD9Ti7FQ-unsplash.jpg,0,1,786,1,chosen,3,0,outdoor_scenes,outdoor_scenes,2600,0,7,4
175,64283,0,176,3,3,0,no_gain2,gain6,D,F,41,14,objects,faces,53,56,Stimuli/Experimental_stims/objects/insung-yoon-w2JtIQQXoRU-unsplash.jpg,Stimuli/Experimental_stims/faces/david-siglin-UuW4psOb388-unsplash.jpg,0,1,1387,0,unchosen,41,14,objects,faces,2100,0,7,4
176,64283,0,177,3,3,1,gain1,no_gain5,C,L,29,17,body_parts,faces,63,28,Stimuli/Experimental_stims/body_parts/manuel-schinner-ZwjFuJ7ebpk-unsplash.jpg,Stimuli/Experimental_stims/faces/good-faces-xmSWVeGEnJw-unsplash.jpg,0,1,747,1,chosen,29,17,body_parts,faces,3300,1,7,4
177,64283,0,178,3,3,0,no_gain1,gain5,E,J,38,40,objects,objects,63,49,Stimuli/Experimental_stims/objects/art-lasovsky-8XddFc6NkBY-unsplash.jpg,Stimuli/Experimental_stims/objects/fabian-blank-pElSkGRA2NU-unsplash.jpg,0,0,893,1,unchosen,40,38,objects,objects,1200,0,7,4
178,64283,0,179,3,3,1,gain2,no_gain6,A,K,1,30,outdoor_scenes,body_parts,79,30,Stimuli/Experimental_stims/outdoor_scenes/ashim-d-silva-S2Q5mdOrrVc-unsplash.jpg,Stimuli/Experimental_stims/body_parts/mika-korhonen-Xodzxosar18-unsplash.jpg,0,1,660,1,chosen,1,30,outdoor_scenes,body_parts,1500,0,7,4
179,64283,0,180,3,3,1,gain3,no_gain6,H,K,12,45,faces,objects,46,65,Stimuli/Experimental_stims/faces/aiony-haust-jmATI5Q_YgY-unsplash.jpg,Stimuli/Experimental_stims/objects/leohoho-rngTKHXumy0-unsplash.jpg,0,0,964,0,unchosen,45,12,objects,faces,1700,0,7,4
180,64283,0,181,3,3,0,no_gain5,gain1,L,C,32,10,body_parts,outdoor_scenes,41,78,Stimuli/Experimental_stims/body_parts/towfiqu-barbhuiya-3AsiVDsZnHg-unsplash.jpg,Stimuli/Experimental_stims/outdoor_scenes/shannon-kunkle-dM8INmkyDas-unsplash.jpg,0,0,1480,1,unchosen,10,32,outdoor_scenes,body_parts,1500,0,7,4
181,64283,0,182,3,3,1,gain2,no_gain6,A,K,36,45,objects,objects,55,65,Stimuli/Experimental_stims/objects/alexander-andrews-JYGnB9gTCls-unsplash.jpg,Stimuli/Experimental_stims/objects/leohoho-rngTKHXumy0-unsplash.jpg,0,0,928,0,unchosen,45,36,objects,objects,1300,0,7,4
182,64283,0,183,3,3,1,gain1,no_gain4,C,G,29,8,body_parts,outdoor_scenes,63,81,Stimuli/Experimental_stims/body_parts/manuel-schinner-ZwjFuJ7ebpk-unsplash.jpg,Stimuli/Experimental_stims/outdoor_scenes/samsommer-vddccTqwal8-unsplash.jpg,0,1,729,1,chosen,29,8,body_parts,outdoor_scenes,2000,0,7,4
183,64283,0,184,3,3,0,no_gain1,gain6,E,F,38,14,objects,faces,63,56,Stimuli/Experimental_stims/objects/art-lasovsky-8XddFc6NkBY-unsplash.jpg,Stimuli/Experimental_stims/faces/david-siglin-UuW4psOb388-unsplash.jpg,0,1,1021,0,unchosen,38,14,objects,faces,1500,0,7,4
184,64283,0,185,3,3,1,gain5,no_gain5,J,L,18,17,faces,faces,40,28,Stimuli/Experimental_stims/faces/jessica-radanavong-mrYkTuAesKE-unsplash.jpg,Stimuli/Experimental_stims/faces/good-faces-xmSWVeGEnJw-unsplash.jpg,0,1,626,1,chosen,18,17,faces,faces,2200,0,7,4
185,64283,0,186,3,3,1,gain6,no_gain1,F,E,28,34,body_parts,body_parts,30,36,Stimuli/Experimental_stims/body_parts/ira-vishnevskaya-8DQAvdCby1I-unsplash.jpg,Stimuli/Experimental_stims/body_parts/wagner-santos-mBWMvIuVnso-unsplash.jpg,0,1,579,1,chosen,28,34,body_parts,body_parts,1300,0,7,4
186,64283,0,187,3,3,0,no_gain6,gain4,K,B,30,19,body_parts,faces,30,49,Stimuli/Experimental_stims/body_parts/mika-korhonen-Xodzxosar18-unsplash.jpg,Stimuli/Experimental_stims/faces/joel-mott-LaK153ghdig-unsplash.jpg,0,0,638,1,chosen,19,30,faces,body_parts,1000,0,7,4
187,64283,0,188,3,3,1,gain1,no_gain2,C,D,10,41,outdoor_scenes,objects,78,53,Stimuli/Experimental_stims/outdoor_scenes/shannon-kunkle-dM8INmkyDas-unsplash.jpg,Stimuli/Experimental_stims/objects/insung-yoon-w2JtIQQXoRU-unsplash.jpg,0,1,741,1,unchosen,10,41,outdoor_scenes,objects,3000,1,7,4
188,64283,0,189,3,3,0,no_gain2,gain5,D,J,41,40,objects,objects,53,49,Stimuli/Experimental_stims/objects/insung-yoon-w2JtIQQXoRU-unsplash.jpg,Stimuli/Experimental_stims/objects/fabian-blank-pElSkGRA2NU-unsplash.jpg,0,0,614,1,unchosen,40,41,objects,objects,1300,0,7,4
189,64283,0,190,3,3,1,gain1,no_gain3,C,I,10,33,outdoor_scenes,body_parts,78,10,Stimuli/Experimental_stims/outdoor_scenes/shannon-kunkle-dM8INmkyDas-unsplash.jpg,Stimuli/Experimental_stims/body_parts/tucker-good-36skLT5jZcc-unsplash.jpg,0,1,613,1,unchosen,10,33,outdoor_scenes,body_parts,2200,0,7,4
190,64283,0,191,3,3,0,no_gain1,gain2,E,A,34,1,body_parts,outdoor_scenes,36,79,Stimuli/Experimental_stims/body_parts/wagner-santos-mBWMvIuVnso-unsplash.jpg,Stimuli/Experimental_stims/outdoor_scenes/ashim-d-silva-S2Q5mdOrrVc-unsplash.jpg,0,0,644,1,chosen,1,34,outdoor_scenes,body_parts,1100,0,7,4
191,64283,0,192,3,3,0,no_gain3,gain5,I,J,33,40,body_parts,objects,10,49,Stimuli/Experimental_stims/body_parts/tucker-good-36skLT5jZcc-unsplash.jpg,Stimuli/Experimental_stims/objects/fabian-blank-pElSkGRA2NU-unsplash.jpg,0,0,789,1,unchosen,40,33,objects,body_parts,2100,0,7,4
192,64283,0,193,3,3,0,no_gain2,gain6,D,F,21,28,faces,body_parts,45,30,Stimuli/Experimental_stims/faces/leilani-angel-K84vnnzxmTQ-unsplash.jpg,Stimuli/Experimental_stims/body_parts/ira-vishnevskaya-8DQAvdCby1I-unsplash.jpg,0,0,622,1,chosen,28,21,body_parts,faces,2300,0,7,4
193,64283,0,194,3,3,0,no_gain4,gain5,G,J,8,18,outdoor_scenes,faces,81,40,Stimuli/Experimental_stims/outdoor_scenes/samsommer-vddccTqwal8-unsplash.jpg,Stimuli/Experimental_stims/faces/jessica-radanavong-mrYkTuAesKE-unsplash.jpg,0,0,536,1,chosen,18,8,faces,outdoor_scenes,3900,1,7,4
194,64283,0,195,3,3,0,no_gain4,gain6,G,F,8,28,outdoor_scenes,body_parts,81,30,Stimuli/Experimental_stims/outdoor_scenes/samsommer-vddccTqwal8-unsplash.jpg,Stimuli/Experimental_stims/body_parts/ira-vishnevskaya-8DQAvdCby1I-unsplash.jpg,0,0,715,1,chosen,28,8,body_parts,outdoor_scenes,1700,0,7,4
195,64283,0,196,3,3,1,gain4,no_gain3,B,I,4,33,outdoor_scenes,body_parts,82,10,Stimuli/Experimental_stims/outdoor_scenes/jarrett-kow-1ZOyYPOBn7I-unsplash.jpg,Stimuli/Experimental_stims/body_parts/tucker-good-36skLT5jZcc-unsplash.jpg,0,1,775,1,unchosen,4,33,outdoor_scenes,body_parts,1200,0,7,4
196,64283,0,197,3,3,0,no_gain1,gain4,E,B,38,4,objects,outdoor_scenes,63,82,Stimuli/Experimental_stims/objects/art-lasovsky-8XddFc6NkBY-unsplash.jpg,Stimuli/Experimental_stims/outdoor_scenes/jarrett-kow-1ZOyYPOBn7I-unsplash.jpg,0,1,754,0,unchosen,38,4,objects,outdoor_scenes,1200,0,7,4
197,64283,0,198,3,3,1,gain2,no_gain2,A,D,36,41,objects,objects,55,53,Stimuli/Experimental_stims/objects/alexander-andrews-JYGnB9gTCls-unsplash.jpg,Stimuli/Experimental_stims/objects/insung-yoon-w2JtIQQXoRU-unsplash.jpg,0,1,1060,1,unchosen,36,41,objects,objects,1900,0,7,4
198,64283,0,199,3,3,0,no_gain6,gain3,K,H,30,3,body_parts,outdoor_scenes,30,91,Stimuli/Experimental_stims/body_parts/mika-korhonen-Xodzxosar18-unsplash.jpg,Stimuli/Experimental_stims/outdoor_scenes/henry-be-NLF6hTe4PAg-unsplash.jpg,0,0,783,1,chosen,3,30,outdoor_scenes,body_parts,1000,0,7,4
199,64283,0,200,3,3,0,no_gain4,gain4,G,B,8,19,outdoor_scenes,faces,81,49,Stimuli/Experimental_stims/outdoor_scenes/samsommer-vddccTqwal8-unsplash.jpg,Stimuli/Experimental_stims/faces/joel-mott-LaK153ghdig-unsplash.jpg,0,0,785,1,chosen,19,8,faces,outdoor_scenes,3900,1,7,4
200,64283,0,201,3,3,0,no_gain6,gain5,K,J,30,18,body_parts,faces,30,40,Stimuli/Experimental_stims/body_parts/mika-korhonen-Xodzxosar18-unsplash.jpg,Stimuli/Experimental_stims/faces/jessica-radanavong-mrYkTuAesKE-unsplash.jpg,0,0,623,1,chosen,18,30,faces,body_parts,2100,0,7,4
201,64283,0,202,3,3,1,gain6,no_gain5,F,L,14,32,faces,body_parts,56,41,Stimuli/Experimental_stims/faces/david-siglin-UuW4psOb388-unsplash.jpg,Stimuli/Experimental_stims/body_parts/towfiqu-barbhuiya-3AsiVDsZnHg-unsplash.jpg,0,1,804,1,unchosen,14,32,faces,body_parts,1300,0,7,4
202,64283,0,203,3,3,0,no_gain2,gain5,D,J,21,18,faces,faces,45,40,Stimuli/Experimental_stims/faces/leilani-angel-K84vnnzxmTQ-unsplash.jpg,Stimuli/Experimental_stims/faces/jessica-radanavong-mrYkTuAesKE-unsplash.jpg,0,0,503,1,chosen,18,21,faces,faces,1800,0,7,4
203,64283,0,204,3,3,1,gain4,no_gain1,B,E,19,34,faces,body_parts,49,36,Stimuli/Experimental_stims/faces/joel-mott-LaK153ghdig-unsplash.jpg,Stimuli/Experimental_stims/body_parts/wagner-santos-mBWMvIuVnso-unsplash.jpg,0,1,546,1,chosen,19,34,faces,body_parts,1900,0,7,4
204,64283,0,205,3,3,1,gain6,no_gain3,F,I,14,33,faces,body_parts,56,10,Stimuli/Experimental_stims/faces/david-siglin-UuW4psOb388-unsplash.jpg,Stimuli/Experimental_stims/body_parts/tucker-good-36skLT5jZcc-unsplash.jpg,0,1,765,1,unchosen,14,33,faces,body_parts,2600,0,7,4
205,64283,0,206,3,3,1,gain4,no_gain6,B,K,4,45,outdoor_scenes,objects,82,65,Stimuli/Experimental_stims/outdoor_scenes/jarrett-kow-1ZOyYPOBn7I-unsplash.jpg,Stimuli/Experimental_stims/objects/leohoho-rngTKHXumy0-unsplash.jpg,0,0,886,0,unchosen,45,4,objects,outdoor_scenes,2400,0,7,4
206,64283,0,207,3,3,0,no_gain5,gain4,L,B,32,4,body_parts,outdoor_scenes,41,82,Stimuli/Experimental_stims/body_parts/towfiqu-barbhuiya-3AsiVDsZnHg-unsplash.jpg,Stimuli/Experimental_stims/outdoor_scenes/jarrett-kow-1ZOyYPOBn7I-unsplash.jpg,0,1,638,0,unchosen,32,4,body_parts,outdoor_scenes,2500,0,7,4
207,64283,0,208,3,3,0,no_gain5,gain6,L,F,17,28,faces,body_parts,28,30,Stimuli/Experimental_stims/faces/good-faces-xmSWVeGEnJw-unsplash.jpg,Stimuli/Experimental_stims/body_parts/ira-vishnevskaya-8DQAvdCby1I-unsplash.jpg,0,0,966,1,chosen,28,17,body_parts,faces,2900,1,7,4
208,64283,0,209,3,3,0,no_gain4,gain3,G,H,44,12,objects,faces,46,46,Stimuli/Experimental_stims/objects/kuiye-chen-NuOGFo4PudE-unsplash.jpg,Stimuli/Experimental_stims/faces/aiony-haust-jmATI5Q_YgY-unsplash.jpg,0,1,727,0,unchosen,44,12,objects,faces,1000,0,7,4
209,64283,0,210,3,3,0,no_gain1,gain3,E,H,34,3,body_parts,outdoor_scenes,36,91,Stimuli/Experimental_stims/body_parts/wagner-santos-mBWMvIuVnso-unsplash.jpg,Stimuli/Experimental_stims/outdoor_scenes/henry-be-NLF6hTe4PAg-unsplash.jpg,0,0,882,1,chosen,3,34,outdoor_scenes,body_parts,1500,0,7,4
210,64283,0,211,3,3,1,gain3,no_gain3,H,I,12,33,faces,body_parts,46,10,Stimuli/Experimental_stims/faces/aiony-haust-jmATI5Q_YgY-unsplash.jpg,Stimuli/Experimental_stims/body_parts/tucker-good-36skLT5jZcc-unsplash.jpg,0,0,931,0,unchosen,33,12,body_parts,faces,2000,0,7,4
211,64283,0,212,3,3,1,gain1,no_gain6,C,K,10,45,outdoor_scenes,objects,78,65,Stimuli/Experimental_stims/outdoor_scenes/shannon-kunkle-dM8INmkyDas-unsplash.jpg,Stimuli/Experimental_stims/objects/leohoho-rngTKHXumy0-unsplash.jpg,0,1,888,1,unchosen,10,45,outdoor_scenes,objects,1400,0,7,4
212,64283,0,213,3,3,0,no_gain5,gain2,L,A,32,36,body_parts,objects,41,55,Stimuli/Experimental_stims/body_parts/towfiqu-barbhuiya-3AsiVDsZnHg-unsplash.jpg,Stimuli/Experimental_stims/objects/alexander-andrews-JYGnB9gTCls-unsplash.jpg,0,0,1438,1,unchosen,36,32,objects,body_parts,1800,0,7,4
213,64283,0,214,3,3,1,gain6,no_gain6,F,K,28,30,body_parts,body_parts,30,30,Stimuli/Experimental_stims/body_parts/ira-vishnevskaya-8DQAvdCby1I-unsplash.jpg,Stimuli/Experimental_stims/body_parts/mika-korhonen-Xodzxosar18-unsplash.jpg,0,1,725,1,chosen,28,30,body_parts,body_parts,2500,0,7,4
214,64283,0,215,3,3,1,gain1,no_gain2,C,D,29,21,body_parts,faces,63,45,Stimuli/Experimental_stims/body_parts/manuel-schinner-ZwjFuJ7ebpk-unsplash.jpg,Stimuli/Experimental_stims/faces/leilani-angel-K84vnnzxmTQ-unsplash.jpg,0,1,680,1,chosen,29,21,body_parts,faces,1600,0,7,4
215,64283,0,216,3,3,0,no_gain1,gain2,E,A,38,36,objects,objects,63,55,Stimuli/Experimental_stims/objects/art-lasovsky-8XddFc6NkBY-unsplash.jpg,Stimuli/Experimental_stims/objects/alexander-andrews-JYGnB9gTCls-unsplash.jpg,0,0,764,1,unchosen,36,38,objects,objects,3700,1,7,4
216,64283,0,217,3,3,0,no_gain5,gain3,L,H,32,12,body_parts,faces,41,46,Stimuli/Experimental_stims/body_parts/towfiqu-barbhuiya-3AsiVDsZnHg-unsplash.jpg,Stimuli/Experimental_stims/faces/aiony-haust-jmATI5Q_YgY-unsplash.jpg,0,1,1005,0,unchosen,32,12,body_parts,faces,1200,0,7,4
217,64283,0,218,3,3,1,gain3,no_gain2,H,D,3,21,outdoor_scenes,faces,91,45,Stimuli/Experimental_stims/outdoor_scenes/henry-be-NLF6hTe4PAg-unsplash.jpg,Stimuli/Experimental_stims/faces/leilani-angel-K84vnnzxmTQ-unsplash.jpg,0,1,625,1,chosen,3,21,outdoor_scenes,faces,1200,0,7,4
218,64283,0,219,3,3,1,gain3,no_gain1,H,E,12,38,faces,objects,46,63,Stimuli/Experimental_stims/faces/aiony-haust-jmATI5Q_YgY-unsplash.jpg,Stimuli/Experimental_stims/objects/art-lasovsky-8XddFc6NkBY-unsplash.jpg,0,0,777,0,unchosen,38,12,objects,faces,1100,0,7,4
219,64283,0,220,3,3,1,gain2,no_gain2,A,D,1,21,outdoor_scenes,faces,79,45,Stimuli/Experimental_stims/outdoor_scenes/ashim-d-silva-S2Q5mdOrrVc-unsplash.jpg,Stimuli/Experimental_stims/faces/leilani-angel-K84vnnzxmTQ-unsplash.jpg,0,1,545,1,chosen,1,21,outdoor_scenes,faces,1100,0,7,4
220,64283,0,221,4,4,1,gain4,no_gain1,B,E,4,38,outdoor_scenes,objects,82,63,Stimuli/Experimental_stims/outdoor_scenes/jarrett-kow-1ZOyYPOBn7I-unsplash.jpg,Stimuli/Experimental_stims/objects/art-lasovsky-8XddFc6NkBY-unsplash.jpg,0,0,864,0,unchosen,38,4,objects,outdoor_scenes,4000,1,8,4
221,64283,0,222,4,4,0,no_gain1,gain5,E,J,34,18,body_parts,faces,36,40,Stimuli/Experimental_stims/body_parts/wagner-santos-mBWMvIuVnso-unsplash.jpg,Stimuli/Experimental_stims/faces/jessica-radanavong-mrYkTuAesKE-unsplash.jpg,0,0,585,1,chosen,18,34,faces,body_parts,1900,0,8,4
222,64283,0,223,4,4,1,gain2,no_gain1,A,E,1,34,outdoor_scenes,body_parts,79,36,Stimuli/Experimental_stims/outdoor_scenes/ashim-d-silva-S2Q5mdOrrVc-unsplash.jpg,Stimuli/Experimental_stims/body_parts/wagner-santos-mBWMvIuVnso-unsplash.jpg,0,1,579,1,chosen,1,34,outdoor_scenes,body_parts,1200,0,8,4
223,64283,0,224,4,4,1,gain4,no_gain6,B,K,4,45,outdoor_scenes,objects,82,65,Stimuli/Experimental_stims/outdoor_scenes/jarrett-kow-1ZOyYPOBn7I-unsplash.jpg,Stimuli/Experimental_stims/objects/leohoho-rngTKHXumy0-unsplash.jpg,0,1,883,1,unchosen,4,45,outdoor_scenes,objects,1200,0,8,4
224,64283,0,225,4,4,1,gain4,no_gain3,B,I,4,33,outdoor_scenes,body_parts,82,10,Stimuli/Experimental_stims/outdoor_scenes/jarrett-kow-1ZOyYPOBn7I-unsplash.jpg,Stimuli/Experimental_stims/body_parts/tucker-good-36skLT5jZcc-unsplash.jpg,0,1,588,1,unchosen,4,33,outdoor_scenes,body_parts,2900,0,8,4
225,64283,0,226,4,4,1,gain2,no_gain3,A,I,36,33,objects,body_parts,55,10,Stimuli/Experimental_stims/objects/alexander-andrews-JYGnB9gTCls-unsplash.jpg,Stimuli/Experimental_stims/body_parts/tucker-good-36skLT5jZcc-unsplash.jpg,0,1,1180,1,unchosen,36,33,objects,body_parts,1800,0,8,4
226,64283,0,227,4,4,1,gain1,no_gain3,C,I,29,0,body_parts,outdoor_scenes,63,72,Stimuli/Experimental_stims/body_parts/manuel-schinner-ZwjFuJ7ebpk-unsplash.jpg,Stimuli/Experimental_stims/outdoor_scenes/aleksandra-boguslawska-MS7KD9Ti7FQ-unsplash.jpg,0,1,798,1,chosen,29,0,body_parts,outdoor_scenes,4700,1,8,4
227,64283,0,228,4,4,0,no_gain2,gain5,D,J,21,18,faces,faces,45,40,Stimuli/Experimental_stims/faces/leilani-angel-K84vnnzxmTQ-unsplash.jpg,Stimuli/Experimental_stims/faces/jessica-radanavong-mrYkTuAesKE-unsplash.jpg,0,0,548,1,chosen,18,21,faces,faces,2800,0,8,4
228,64283,0,229,4,4,1,gain5,no_gain1,J,E,40,38,objects,objects,49,63,Stimuli/Experimental_stims/objects/fabian-blank-pElSkGRA2NU-unsplash.jpg,Stimuli/Experimental_stims/objects/art-lasovsky-8XddFc6NkBY-unsplash.jpg,0,1,592,1,unchosen,40,38,objects,objects,1100,0,8,4
229,64283,0,230,4,4,0,no_gain4,gain5,G,J,8,18,outdoor_scenes,faces,81,40,Stimuli/Experimental_stims/outdoor_scenes/samsommer-vddccTqwal8-unsplash.jpg,Stimuli/Experimental_stims/faces/jessica-radanavong-mrYkTuAesKE-unsplash.jpg,0,0,557,1,chosen,18,8,faces,outdoor_scenes,2200,0,8,4
230,64283,0,231,4,4,0,no_gain1,gain6,E,F,38,14,objects,faces,63,56,Stimuli/Experimental_stims/objects/art-lasovsky-8XddFc6NkBY-unsplash.jpg,Stimuli/Experimental_stims/faces/david-siglin-UuW4psOb388-unsplash.jpg,0,1,606,0,unchosen,38,14,objects,faces,2000,0,8,4
231,64283,0,232,4,4,1,gain3,no_gain5,H,L,12,32,faces,body_parts,46,41,Stimuli/Experimental_stims/faces/aiony-haust-jmATI5Q_YgY-unsplash.jpg,Stimuli/Experimental_stims/body_parts/towfiqu-barbhuiya-3AsiVDsZnHg-unsplash.jpg,0,0,864,0,unchosen,32,12,body_parts,faces,1100,0,8,4
232,64283,0,233,4,4,0,no_gain6,gain1,K,C,45,10,objects,outdoor_scenes,65,78,Stimuli/Experimental_stims/objects/leohoho-rngTKHXumy0-unsplash.jpg,Stimuli/Experimental_stims/outdoor_scenes/shannon-kunkle-dM8INmkyDas-unsplash.jpg,0,0,989,1,unchosen,10,45,outdoor_scenes,objects,3000,1,8,4
233,64283,0,234,4,4,1,gain3,no_gain5,H,L,3,17,outdoor_scenes,faces,91,28,Stimuli/Experimental_stims/outdoor_scenes/henry-be-NLF6hTe4PAg-unsplash.jpg,Stimuli/Experimental_stims/faces/good-faces-xmSWVeGEnJw-unsplash.jpg,0,1,521,1,chosen,3,17,outdoor_scenes,faces,1800,0,8,4
234,64283,0,235,4,4,0,no_gain3,gain1,I,C,33,10,body_parts,outdoor_scenes,10,78,Stimuli/Experimental_stims/body_parts/tucker-good-36skLT5jZcc-unsplash.jpg,Stimuli/Experimental_stims/outdoor_scenes/shannon-kunkle-dM8INmkyDas-unsplash.jpg,0,0,1123,1,unchosen,10,33,outdoor_scenes,body_parts,1700,0,8,4
235,64283,0,236,4,4,0,no_gain2,gain5,D,J,41,40,objects,objects,53,49,Stimuli/Experimental_stims/objects/insung-yoon-w2JtIQQXoRU-unsplash.jpg,Stimuli/Experimental_stims/objects/fabian-blank-pElSkGRA2NU-unsplash.jpg,0,0,658,1,unchosen,40,41,objects,objects,1500,0,8,4
236,64283,0,237,4,4,0,no_gain2,gain1,D,C,41,10,objects,outdoor_scenes,53,78,Stimuli/Experimental_stims/objects/insung-yoon-w2JtIQQXoRU-unsplash.jpg,Stimuli/Experimental_stims/outdoor_scenes/shannon-kunkle-dM8INmkyDas-unsplash.jpg,0,0,784,1,unchosen,10,41,outdoor_scenes,objects,1400,0,8,4
237,64283,0,238,4,4,1,gain6,no_gain2,F,D,28,21,body_parts,faces,30,45,Stimuli/Experimental_stims/body_parts/ira-vishnevskaya-8DQAvdCby1I-unsplash.jpg,Stimuli/Experimental_stims/faces/leilani-angel-K84vnnzxmTQ-unsplash.jpg,0,1,536,1,chosen,28,21,body_parts,faces,3000,1,8,4
238,64283,0,239,4,4,1,gain4,no_gain2,B,D,4,41,outdoor_scenes,objects,82,53,Stimuli/Experimental_stims/outdoor_scenes/jarrett-kow-1ZOyYPOBn7I-unsplash.jpg,Stimuli/Experimental_stims/objects/insung-yoon-w2JtIQQXoRU-unsplash.jpg,0,1,698,1,unchosen,4,41,outdoor_scenes,objects,1000,0,8,4
239,64283,0,240,4,4,0,no_gain1,gain2,E,A,38,36,objects,objects,63,55,Stimuli/Experimental_stims/objects/art-lasovsky-8XddFc6NkBY-unsplash.jpg,Stimuli/Experimental_stims/objects/alexander-andrews-JYGnB9gTCls-unsplash.jpg,0,0,810,1,unchosen,36,38,objects,objects,1100,0,8,4
240,64283,0,241,4,4,0,no_gain4,gain3,G,H,44,12,objects,faces,46,46,Stimuli/Experimental_stims/objects/kuiye-chen-NuOGFo4PudE-unsplash.jpg,Stimuli/Experimental_stims/faces/aiony-haust-jmATI5Q_YgY-unsplash.jpg,0,1,571,0,unchosen,44,12,objects,faces,1600,0,8,4
241,64283,0,242,4,4,0,no_gain5,gain4,L,B,17,19,faces,faces,28,49,Stimuli/Experimental_stims/faces/good-faces-xmSWVeGEnJw-unsplash.jpg,Stimuli/Experimental_stims/faces/joel-mott-LaK153ghdig-unsplash.jpg,0,0,730,1,chosen,19,17,faces,faces,1100,0,8,4
242,64283,0,243,4,4,1,gain6,no_gain6,F,K,14,45,faces,objects,56,65,Stimuli/Experimental_stims/faces/david-siglin-UuW4psOb388-unsplash.jpg,Stimuli/Experimental_stims/objects/leohoho-rngTKHXumy0-unsplash.jpg,0,1,1202,1,unchosen,14,45,faces,objects,1100,0,8,4
243,64283,0,244,4,4,1,gain3,no_gain2,H,D,3,21,outdoor_scenes,faces,91,45,Stimuli/Experimental_stims/outdoor_scenes/henry-be-NLF6hTe4PAg-unsplash.jpg,Stimuli/Experimental_stims/faces/leilani-angel-K84vnnzxmTQ-unsplash.jpg,0,1,624,1,chosen,3,21,outdoor_scenes,faces,1800,0,8,4
244,64283,0,245,4,4,0,no_gain1,gain1,E,C,34,29,body_parts,body_parts,36,63,Stimuli/Experimental_stims/body_parts/wagner-santos-mBWMvIuVnso-unsplash.jpg,Stimuli/Experimental_stims/body_parts/manuel-schinner-ZwjFuJ7ebpk-unsplash.jpg,0,0,647,1,chosen,29,34,body_parts,body_parts,1400,0,8,4
245,64283,0,246,4,4,0,no_gain4,gain5,G,J,44,40,objects,objects,46,49,Stimuli/Experimental_stims/objects/kuiye-chen-NuOGFo4PudE-unsplash.jpg,Stimuli/Experimental_stims/objects/fabian-blank-pElSkGRA2NU-unsplash.jpg,0,0,618,1,unchosen,40,44,objects,objects,1600,0,8,4
246,64283,0,247,4,4,1,gain2,no_gain2,A,D,1,21,outdoor_scenes,faces,79,45,Stimuli/Experimental_stims/outdoor_scenes/ashim-d-silva-S2Q5mdOrrVc-unsplash.jpg,Stimuli/Experimental_stims/faces/leilani-angel-K84vnnzxmTQ-unsplash.jpg,0,1,610,1,chosen,1,21,outdoor_scenes,faces,2000,0,8,4
247,64283,0,248,4,4,0,no_gain1,gain3,E,H,38,12,objects,faces,63,46,Stimuli/Experimental_stims/objects/art-lasovsky-8XddFc6NkBY-unsplash.jpg,Stimuli/Experimental_stims/faces/aiony-haust-jmATI5Q_YgY-unsplash.jpg,0,1,819,0,unchosen,38,12,objects,faces,2200,0,8,4
248,64283,0,249,4,4,0,no_gain4,gain2,G,A,8,1,outdoor_scenes,outdoor_scenes,81,79,Stimuli/Experimental_stims/outdoor_scenes/samsommer-vddccTqwal8-unsplash.jpg,Stimuli/Experimental_stims/outdoor_scenes/ashim-d-silva-S2Q5mdOrrVc-unsplash.jpg,0,0,647,1,chosen,1,8,outdoor_scenes,outdoor_scenes,2100,0,8,4
249,64283,0,250,4,4,0,no_gain3,gain2,I,A,0,1,outdoor_scenes,outdoor_scenes,72,79,Stimuli/Experimental_stims/outdoor_scenes/aleksandra-boguslawska-MS7KD9Ti7FQ-unsplash.jpg,Stimuli/Experimental_stims/outdoor_scenes/ashim-d-silva-S2Q5mdOrrVc-unsplash.jpg,0,0,615,1,chosen,1,0,outdoor_scenes,outdoor_scenes,2900,0,8,4
250,64283,0,251,4,4,0,no_gain6,gain5,K,J,45,40,objects,objects,65,49,Stimuli/Experimental_stims/objects/leohoho-rngTKHXumy0-unsplash.jpg,Stimuli/Experimental_stims/objects/fabian-blank-pElSkGRA2NU-unsplash.jpg,0,0,776,1,unchosen,40,45,objects,objects,1600,0,8,4
251,64283,0,252,4,4,1,gain3,no_gain4,H,G,3,8,outdoor_scenes,outdoor_scenes,91,81,Stimuli/Experimental_stims/outdoor_scenes/henry-be-NLF6hTe4PAg-unsplash.jpg,Stimuli/Experimental_stims/outdoor_scenes/samsommer-vddccTqwal8-unsplash.jpg,0,1,579,1,chosen,3,8,outdoor_scenes,outdoor_scenes,1600,0,8,4
252,64283,0,253,4,4,0,no_gain1,gain1,E,C,38,10,objects,outdoor_scenes,63,78,Stimuli/Experimental_stims/objects/art-lasovsky-8XddFc6NkBY-unsplash.jpg,Stimuli/Experimental_stims/outdoor_scenes/shannon-kunkle-dM8INmkyDas-unsplash.jpg,0,0,856,1,unchosen,10,38,outdoor_scenes,objects,4900,1,8,4
253,64283,0,254,4,4,0,no_gain5,gain1,L,C,32,10,body_parts,outdoor_scenes,41,78,Stimuli/Experimental_stims/body_parts/towfiqu-barbhuiya-3AsiVDsZnHg-unsplash.jpg,Stimuli/Experimental_stims/outdoor_scenes/shannon-kunkle-dM8INmkyDas-unsplash.jpg,0,0,1045,1,unchosen,10,32,outdoor_scenes,body_parts,2600,0,8,4
254,64283,0,255,4,4,1,gain5,no_gain5,J,L,18,17,faces,faces,40,28,Stimuli/Experimental_stims/faces/jessica-radanavong-mrYkTuAesKE-unsplash.jpg,Stimuli/Experimental_stims/faces/good-faces-xmSWVeGEnJw-unsplash.jpg,0,1,720,1,chosen,18,17,faces,faces,1800,0,8,4
255,64283,0,256,4,4,0,no_gain1,gain3,E,H,34,3,body_parts,outdoor_scenes,36,91,Stimuli/Experimental_stims/body_parts/wagner-santos-mBWMvIuVnso-unsplash.jpg,Stimuli/Experimental_stims/outdoor_scenes/henry-be-NLF6hTe4PAg-unsplash.jpg,0,0,669,1,chosen,3,34,outdoor_scenes,body_parts,1500,0,8,4
256,64283,0,257,4,4,1,gain5,no_gain3,J,I,18,0,faces,outdoor_scenes,40,72,Stimuli/Experimental_stims/faces/jessica-radanavong-mrYkTuAesKE-unsplash.jpg,Stimuli/Experimental_stims/outdoor_scenes/aleksandra-boguslawska-MS7KD9Ti7FQ-unsplash.jpg,0,1,1290,1,chosen,18,0,faces,outdoor_scenes,1700,0,8,4
257,64283,0,258,4,4,1,gain2,no_gain4,A,G,36,44,objects,objects,55,46,Stimuli/Experimental_stims/objects/alexander-andrews-JYGnB9gTCls-unsplash.jpg,Stimuli/Experimental_stims/objects/kuiye-chen-NuOGFo4PudE-unsplash.jpg,0,0,667,0,unchosen,44,36,objects,objects,3200,1,8,4
258,64283,0,259,4,4,1,gain3,no_gain3,H,I,3,0,outdoor_scenes,outdoor_scenes,91,72,Stimuli/Experimental_stims/outdoor_scenes/henry-be-NLF6hTe4PAg-unsplash.jpg,Stimuli/Experimental_stims/outdoor_scenes/aleksandra-boguslawska-MS7KD9Ti7FQ-unsplash.jpg,0,1,506,1,chosen,3,0,outdoor_scenes,outdoor_scenes,2100,0,8,4
259,64283,0,260,4,4,0,no_gain6,gain1,K,C,30,29,body_parts,body_parts,30,63,Stimuli/Experimental_stims/body_parts/mika-korhonen-Xodzxosar18-unsplash.jpg,Stimuli/Experimental_stims/body_parts/manuel-schinner-ZwjFuJ7ebpk-unsplash.jpg,0,0,542,1,chosen,29,30,body_parts,body_parts,1600,0,8,4
260,64283,0,261,4,4,0,no_gain2,gain3,D,H,41,12,objects,faces,53,46,Stimuli/Experimental_stims/objects/insung-yoon-w2JtIQQXoRU-unsplash.jpg,Stimuli/Experimental_stims/faces/aiony-haust-jmATI5Q_YgY-unsplash.jpg,0,1,768,0,unchosen,41,12,objects,faces,1700,0,8,4
261,64283,0,262,4,4,0,no_gain4,gain4,G,B,8,19,outdoor_scenes,faces,81,49,Stimuli/Experimental_stims/outdoor_scenes/samsommer-vddccTqwal8-unsplash.jpg,Stimuli/Experimental_stims/faces/joel-mott-LaK153ghdig-unsplash.jpg,0,0,756,1,chosen,19,8,faces,outdoor_scenes,1300,0,8,4
262,64283,0,263,4,4,1,gain6,no_gain1,F,E,28,34,body_parts,body_parts,30,36,Stimuli/Experimental_stims/body_parts/ira-vishnevskaya-8DQAvdCby1I-unsplash.jpg,Stimuli/Experimental_stims/body_parts/wagner-santos-mBWMvIuVnso-unsplash.jpg,0,1,559,1,chosen,28,34,body_parts,body_parts,3700,1,8,4
263,64283,0,264,4,4,1,gain1,no_gain4,C,G,10,44,outdoor_scenes,objects,78,46,Stimuli/Experimental_stims/outdoor_scenes/shannon-kunkle-dM8INmkyDas-unsplash.jpg,Stimuli/Experimental_stims/objects/kuiye-chen-NuOGFo4PudE-unsplash.jpg,0,1,604,1,unchosen,10,44,outdoor_scenes,objects,1500,0,8,4
264,64283,0,265,4,4,1,gain4,no_gain1,B,E,19,34,faces,body_parts,49,36,Stimuli/Experimental_stims/faces/joel-mott-LaK153ghdig-unsplash.jpg,Stimuli/Experimental_stims/body_parts/wagner-santos-mBWMvIuVnso-unsplash.jpg,0,0,528,0,chosen,34,19,body_parts,faces,1500,0,8,4
265,64283,0,266,4,4,1,gain2,no_gain5,A,L,36,32,objects,body_parts,55,41,Stimuli/Experimental_stims/objects/alexander-andrews-JYGnB9gTCls-unsplash.jpg,Stimuli/Experimental_stims/body_parts/towfiqu-barbhuiya-3AsiVDsZnHg-unsplash.jpg,0,1,913,1,unchosen,36,32,objects,body_parts,1400,0,8,4
266,64283,0,267,4,4,0,no_gain2,gain4,D,B,21,19,faces,faces,45,49,Stimuli/Experimental_stims/faces/leilani-angel-K84vnnzxmTQ-unsplash.jpg,Stimuli/Experimental_stims/faces/joel-mott-LaK153ghdig-unsplash.jpg,0,0,862,1,chosen,19,21,faces,faces,1700,0,8,4
267,64283,0,268,4,4,0,no_gain4,gain6,G,F,8,28,outdoor_scenes,body_parts,81,30,Stimuli/Experimental_stims/outdoor_scenes/samsommer-vddccTqwal8-unsplash.jpg,Stimuli/Experimental_stims/body_parts/ira-vishnevskaya-8DQAvdCby1I-unsplash.jpg,0,0,763,1,chosen,28,8,body_parts,outdoor_scenes,2500,0,8,4
268,64283,0,269,4,4,0,no_gain6,gain6,K,F,30,28,body_parts,body_parts,30,30,Stimuli/Experimental_stims/body_parts/mika-korhonen-Xodzxosar18-unsplash.jpg,Stimuli/Experimental_stims/body_parts/ira-vishnevskaya-8DQAvdCby1I-unsplash.jpg,0,0,885,1,chosen,28,30,body_parts,body_parts,1800,0,8,4
269,64283,0,270,4,4,0,no_gain2,gain6,D,F,41,14,objects,faces,53,56,Stimuli/Experimental_stims/objects/insung-yoon-w2JtIQQXoRU-unsplash.jpg,Stimuli/Experimental_stims/faces/david-siglin-UuW4psOb388-unsplash.jpg,0,0,959,1,unchosen,14,41,faces,objects,2200,0,8,4
270,64283,0,271,4,4,0,no_gain5,gain6,L,F,32,14,body_parts,faces,41,56,Stimuli/Experimental_stims/body_parts/towfiqu-barbhuiya-3AsiVDsZnHg-unsplash.jpg,Stimuli/Experimental_stims/faces/david-siglin-UuW4psOb388-unsplash.jpg,0,0,895,1,unchosen,14,32,faces,body_parts,1400,0,8,4
271,64283,0,272,4,4,1,gain3,no_gain6,H,K,3,30,outdoor_scenes,body_parts,91,30,Stimuli/Experimental_stims/outdoor_scenes/henry-be-NLF6hTe4PAg-unsplash.jpg,Stimuli/Experimental_stims/body_parts/mika-korhonen-Xodzxosar18-unsplash.jpg,0,1,749,1,chosen,3,30,outdoor_scenes,body_parts,4200,1,8,4
272,64283,0,273,4,4,1,gain5,no_gain5,J,L,40,32,objects,body_parts,49,41,Stimuli/Experimental_stims/objects/fabian-blank-pElSkGRA2NU-unsplash.jpg,Stimuli/Experimental_stims/body_parts/towfiqu-barbhuiya-3AsiVDsZnHg-unsplash.jpg,0,1,734,1,unchosen,40,32,objects,body_parts,2400,0,8,4
273,64283,0,274,4,4,0,no_gain4,gain6,G,F,44,14,objects,faces,46,56,Stimuli/Experimental_stims/objects/kuiye-chen-NuOGFo4PudE-unsplash.jpg,Stimuli/Experimental_stims/faces/david-siglin-UuW4psOb388-unsplash.jpg,0,1,981,0,unchosen,44,14,objects,faces,1100,0,8,4
274,64283,0,275,4,4,0,no_gain2,gain1,D,C,21,29,faces,body_parts,45,63,Stimuli/Experimental_stims/faces/leilani-angel-K84vnnzxmTQ-unsplash.jpg,Stimuli/Experimental_stims/body_parts/manuel-schinner-ZwjFuJ7ebpk-unsplash.jpg,0,0,752,1,chosen,29,21,body_parts,faces,1400,0,8,4
275,64283,0,276,4,4,0,no_gain3,gain3,I,H,33,12,body_parts,faces,10,46,Stimuli/Experimental_stims/body_parts/tucker-good-36skLT5jZcc-unsplash.jpg,Stimuli/Experimental_stims/faces/aiony-haust-jmATI5Q_YgY-unsplash.jpg,0,1,1294,0,unchosen,33,12,body_parts,faces,1400,0,8,4
276,64283,0,277,4,4,1,gain5,no_gain6,J,K,18,30,faces,body_parts,40,30,Stimuli/Experimental_stims/faces/jessica-radanavong-mrYkTuAesKE-unsplash.jpg,Stimuli/Experimental_stims/body_parts/mika-korhonen-Xodzxosar18-unsplash.jpg,0,1,633,1,chosen,18,30,faces,body_parts,1000,0,8,4
277,64283,0,278,4,4,1,gain1,no_gain5,C,L,29,17,body_parts,faces,63,28,Stimuli/Experimental_stims/body_parts/manuel-schinner-ZwjFuJ7ebpk-unsplash.jpg,Stimuli/Experimental_stims/faces/good-faces-xmSWVeGEnJw-unsplash.jpg,0,1,858,1,chosen,29,17,body_parts,faces,1900,0,8,4
278,64283,0,279,4,4,1,gain2,no_gain6,A,K,36,45,objects,objects,55,65,Stimuli/Experimental_stims/objects/alexander-andrews-JYGnB9gTCls-unsplash.jpg,Stimuli/Experimental_stims/objects/leohoho-rngTKHXumy0-unsplash.jpg,0,0,707,0,unchosen,45,36,objects,objects,2100,0,8,4
279,64283,0,280,4,4,1,gain2,no_gain2,A,D,36,41,objects,objects,55,53,Stimuli/Experimental_stims/objects/alexander-andrews-JYGnB9gTCls-unsplash.jpg,Stimuli/Experimental_stims/objects/insung-yoon-w2JtIQQXoRU-unsplash.jpg,0,0,831,0,unchosen,41,36,objects,objects,1100,0,8,4
280,64283,0,281,4,4,1,gain3,no_gain6,H,K,12,45,faces,objects,46,65,Stimuli/Experimental_stims/faces/aiony-haust-jmATI5Q_YgY-unsplash.jpg,Stimuli/Experimental_stims/objects/leohoho-rngTKHXumy0-unsplash.jpg,0,0,997,0,unchosen,45,12,objects,faces,3800,1,8,4
281,64283,0,282,4,4,0,no_gain6,gain2,K,A,30,1,body_parts,outdoor_scenes,30,79,Stimuli/Experimental_stims/body_parts/mika-korhonen-Xodzxosar18-unsplash.jpg,Stimuli/Experimental_stims/outdoor_scenes/ashim-d-silva-S2Q5mdOrrVc-unsplash.jpg,0,0,617,1,chosen,1,30,outdoor_scenes,body_parts,1200,0,8,4
282,64283,0,283,4,4,0,no_gain3,gain4,I,B,0,19,outdoor_scenes,faces,72,49,Stimuli/Experimental_stims/outdoor_scenes/aleksandra-boguslawska-MS7KD9Ti7FQ-unsplash.jpg,Stimuli/Experimental_stims/faces/joel-mott-LaK153ghdig-unsplash.jpg,0,0,689,1,chosen,19,0,faces,outdoor_scenes,2500,0,8,4
283,64283,0,284,4,4,0,no_gain6,gain4,K,B,30,19,body_parts,faces,30,49,Stimuli/Experimental_stims/body_parts/mika-korhonen-Xodzxosar18-unsplash.jpg,Stimuli/Experimental_stims/faces/joel-mott-LaK153ghdig-unsplash.jpg,0,0,1139,1,chosen,19,30,faces,body_parts,1200,0,8,4
284,64283,0,285,4,4,1,gain4,no_gain5,B,L,4,32,outdoor_scenes,body_parts,82,41,Stimuli/Experimental_stims/outdoor_scenes/jarrett-kow-1ZOyYPOBn7I-unsplash.jpg,Stimuli/Experimental_stims/body_parts/towfiqu-barbhuiya-3AsiVDsZnHg-unsplash.jpg,0,1,1006,1,unchosen,4,32,outdoor_scenes,body_parts,1600,0,8,4
285,64283,0,286,4,4,1,gain6,no_gain5,F,L,28,17,body_parts,faces,30,28,Stimuli/Experimental_stims/body_parts/ira-vishnevskaya-8DQAvdCby1I-unsplash.jpg,Stimuli/Experimental_stims/faces/good-faces-xmSWVeGEnJw-unsplash.jpg,0,1,660,1,chosen,28,17,body_parts,faces,1900,0,8,4
286,64283,0,287,4,4,1,gain2,no_gain5,A,L,1,17,outdoor_scenes,faces,79,28,Stimuli/Experimental_stims/outdoor_scenes/ashim-d-silva-S2Q5mdOrrVc-unsplash.jpg,Stimuli/Experimental_stims/faces/good-faces-xmSWVeGEnJw-unsplash.jpg,0,1,581,1,chosen,1,17,outdoor_scenes,faces,1000,0,8,4
287,64283,0,288,4,4,1,gain6,no_gain3,F,I,14,33,faces,body_parts,56,10,Stimuli/Experimental_stims/faces/david-siglin-UuW4psOb388-unsplash.jpg,Stimuli/Experimental_stims/body_parts/tucker-good-36skLT5jZcc-unsplash.jpg,0,1,922,1,unchosen,14,33,faces,body_parts,5000,1,8,4
288,64283,0,289,4,4,0,no_gain4,gain1,G,C,8,29,outdoor_scenes,body_parts,81,63,Stimuli/Experimental_stims/outdoor_scenes/samsommer-vddccTqwal8-unsplash.jpg,Stimuli/Experimental_stims/body_parts/manuel-schinner-ZwjFuJ7ebpk-unsplash.jpg,0,0,657,1,chosen,29,8,body_parts,outdoor_scenes,2400,0,8,4
289,64283,0,290,4,4,0,no_gain3,gain5,I,J,33,40,body_parts,objects,10,49,Stimuli/Experimental_stims/body_parts/tucker-good-36skLT5jZcc-unsplash.jpg,Stimuli/Experimental_stims/objects/fabian-blank-pElSkGRA2NU-unsplash.jpg,0,1,964,0,unchosen,33,40,body_parts,objects,1500,0,8,4
290,64283,0,291,4,4,1,gain6,no_gain3,F,I,28,0,body_parts,outdoor_scenes,30,72,Stimuli/Experimental_stims/body_parts/ira-vishnevskaya-8DQAvdCby1I-unsplash.jpg,Stimuli/Experimental_stims/outdoor_scenes/aleksandra-boguslawska-MS7KD9Ti7FQ-unsplash.jpg,0,1,749,1,chosen,28,0,body_parts,outdoor_scenes,1500,0,8,4
291,64283,0,292,4,4,1,gain4,no_gain4,B,G,4,44,outdoor_scenes,objects,82,46,Stimuli/Experimental_stims/outdoor_scenes/jarrett-kow-1ZOyYPOBn7I-unsplash.jpg,Stimuli/Experimental_stims/objects/kuiye-chen-NuOGFo4PudE-unsplash.jpg,0,0,830,0,unchosen,44,4,objects,outdoor_scenes,1300,0,8,4