,PID,practice,trial,block,run,gain_left,left_item_id,right_item_id,left_pair_id,right_pair_id,left_stimulus,right_stimulus,left_category,right_category,left_rating,right_rating,left_path,right_path,no_response,left_chosen,rt,higher_outcome_chosen,choice_type,chosen_stimulus,unchosen_stimulus,chosen_category,unchosen_category,iti,long_iti,simulation,version
0,47658,1,1,0,0,0,,,,,,,,,,,Stimuli/Practice_stims/Final_decisions/debby-hudson-FmCSSSGge-0-unsplash.jpg,Stimuli/Practice_stims/Final_decisions/yassine-khalfalli-adsQ9d_Cx0c-unsplash.jpg,0,0,1028,1,,,,,,3000,0,9,3
1,47658,1,2,0,0,0,,,,,,,,,,,Stimuli/Practice_stims/Final_decisions/florian-wehde-iVW7mZPwd4g-unsplash.jpg,Stimuli/Practice_stims/Final_decisions/patrick-perkins-3wylDrjxH-E-unsplash.jpg,0,1,732,0,,,,,,1500,0,9,3
2,47658,1,3,0,0,0,,,,,,,,,,,Stimuli/Practice_stims/Final_decisions/debby-hudson-FmCSSSGge-0-unsplash.jpg,Stimuli/Practice_stims/Final_decisions/florian-wehde-iVW7mZPwd4g-unsplash.jpg,0,0,689,1,,,,,,2000,0,9,3
3,47658,1,4,0,0,0,,,,,,,,,,,Stimuli/Practice_stims/Final_decisions/yassine-khalfalli-adsQ9d_Cx0c-unsplash.jpg,Stimuli/Practice_stims/Final_decisions/debby-hudson-FmCSSSGge-0-unsplash.jpg,0,1,598,0,,,,,,1000,0,9,3
4,47658,0,5,1,1,1,gain5,no_gain5,C,K,35,27,body_parts,body_parts,44,42,Stimuli/Experimental_stims/body_parts/wc-so-KH4AAPjb-tI-unsplash.jpg,Stimuli/Experimental_stims/body_parts/heike-mintel-i_Gns0ELnLw-unsplash.jpg,0,0,843,0,unchosen,27,35,body_parts,body_parts,4700,1,9,3
5,47658,0,6,1,1,1,gain3,no_gain2,F,B,34,14,body_parts,faces,41,42,Stimuli/Experimental_stims/body_parts/wagner-santos-mBWMvIuVnso-unsplash.jpg,Stimuli/Experimental_stims/faces/david-siglin-UuW4psOb388-unsplash.jpg,0,1,745,1,unchosen,34,14,body_parts,faces,2300,0,9,3
6,47658,0,7,1,1,1,gain1,no_gain2,H,B,12,14,faces,faces,63,42,Stimuli/Experimental_stims/faces/aiony-haust-jmATI5Q_YgY-unsplash.jpg,Stimuli/Experimental_stims/faces/david-siglin-UuW4psOb388-unsplash.jpg,0,1,747,1,unchosen,12,14,faces,faces,1100,0,9,3
7,47658,0,8,1,1,0,no_gain4,gain5,G,C,4,11,outdoor_scenes,outdoor_scenes,59,71,Stimuli/Experimental_stims/outdoor_scenes/jarrett-kow-1ZOyYPOBn7I-unsplash.jpg,Stimuli/Experimental_stims/outdoor_scenes/stephen-leonardi-gyIRjKPXupE-unsplash.jpg,0,1,665,0,chosen,4,11,outdoor_scenes,outdoor_scenes,1600,0,9,3
8,47658,0,9,1,1,0,no_gain5,gain1,K,H,27,12,body_parts,faces,42,63,Stimuli/Experimental_stims/body_parts/heike-mintel-i_Gns0ELnLw-unsplash.jpg,Stimuli/Experimental_stims/faces/aiony-haust-jmATI5Q_YgY-unsplash.jpg,0,1,845,0,unchosen,27,12,body_parts,faces,2300,0,9,3
9,47658,0,10,1,1,0,no_gain4,gain1,G,H,4,5,outdoor_scenes,outdoor_scenes,59,67,Stimuli/Experimental_stims/outdoor_scenes/jarrett-kow-1ZOyYPOBn7I-unsplash.jpg,Stimuli/Experimental_stims/outdoor_scenes/jeff-king-bJHWJeiHfHc-unsplash.jpg,0,1,673,0,chosen,4,5,outdoor_scenes,outdoor_scenes,1500,0,9,3
10,47658,0,11,1,1,1,gain1,no_gain3,H,L,5,26,outdoor_scenes,body_parts,67,40,Stimuli/Experimental_stims/outdoor_scenes/jeff-king-bJHWJeiHfHc-unsplash.jpg,Stimuli/Experimental_stims/body_parts/engin-akyurt-x_3gyC42btc-unsplash.jpg,0,1,923,1,chosen,5,26,outdoor_scenes,body_parts,1500,0,9,3
11,47658,0,12,1,1,0,no_gain1,gain1,D,H,46,5,objects,outdoor_scenes,59,67,Stimuli/Experimental_stims/objects/mockup-graphics-PNsj6RiHAF4-unsplash.jpg,Stimuli/Experimental_stims/outdoor_scenes/jeff-king-bJHWJeiHfHc-unsplash.jpg,0,1,753,0,chosen,46,5,objects,outdoor_scenes,1200,0,9,3
12,47658,0,13,1,1,1,gain6,no_gain1,J,D,23,21,faces,faces,62,50,Stimuli/Experimental_stims/faces/rikonavt-HQjfrvdTfak-unsplash.jpg,Stimuli/Experimental_stims/faces/leilani-angel-K84vnnzxmTQ-unsplash.jpg,0,0,862,0,unchosen,21,23,faces,faces,1300,0,9,3
13,47658,0,14,1,1,0,no_gain1,gain4,D,A,46,7,objects,outdoor_scenes,59,71,Stimuli/Experimental_stims/objects/mockup-graphics-PNsj6RiHAF4-unsplash.jpg,Stimuli/Experimental_stims/outdoor_scenes/petr-vysohlid-9fqwGqGLUxc-unsplash.jpg,0,0,786,1,chosen,7,46,outdoor_scenes,objects,1200,0,9,3
14,47658,0,15,1,1,1,gain6,no_gain4,J,G,23,47,faces,objects,62,55,Stimuli/Experimental_stims/faces/rikonavt-HQjfrvdTfak-unsplash.jpg,Stimuli/Experimental_stims/objects/ronaldo-arthur-vidal-Cdz_lvnl37k-unsplash.jpg,0,0,757,0,unchosen,47,23,objects,faces,4100,1,9,3
15,47658,0,16,1,1,1,gain4,no_gain4,A,G,36,47,objects,objects,59,55,Stimuli/Experimental_stims/objects/alexander-andrews-JYGnB9gTCls-unsplash.jpg,Stimuli/Experimental_stims/objects/ronaldo-arthur-vidal-Cdz_lvnl37k-unsplash.jpg,0,0,839,0,unchosen,47,36,objects,objects,1200,0,9,3
16,47658,0,17,1,1,1,gain5,no_gain6,C,I,11,10,outdoor_scenes,outdoor_scenes,71,78,Stimuli/Experimental_stims/outdoor_scenes/stephen-leonardi-gyIRjKPXupE-unsplash.jpg,Stimuli/Experimental_stims/outdoor_scenes/shannon-kunkle-dM8INmkyDas-unsplash.jpg,0,1,861,1,chosen,11,10,outdoor_scenes,outdoor_scenes,1200,0,9,3
17,47658,0,18,1,1,0,no_gain3,gain3,L,F,20,34,faces,body_parts,63,41,Stimuli/Experimental_stims/faces/justin-chen-J7Cf1Gch49E-unsplash.jpg,Stimuli/Experimental_stims/body_parts/wagner-santos-mBWMvIuVnso-unsplash.jpg,0,0,772,1,unchosen,34,20,body_parts,faces,1600,0,9,3
18,47658,0,19,1,1,0,no_gain4,gain3,G,F,4,19,outdoor_scenes,faces,59,71,Stimuli/Experimental_stims/outdoor_scenes/jarrett-kow-1ZOyYPOBn7I-unsplash.jpg,Stimuli/Experimental_stims/faces/joel-mott-LaK153ghdig-unsplash.jpg,0,1,638,0,chosen,4,19,outdoor_scenes,faces,1400,0,9,3
19,47658,0,20,1,1,0,no_gain2,gain2,B,E,14,44,faces,objects,42,27,Stimuli/Experimental_stims/faces/david-siglin-UuW4psOb388-unsplash.jpg,Stimuli/Experimental_stims/objects/kuiye-chen-NuOGFo4PudE-unsplash.jpg,0,0,749,1,unchosen,44,14,objects,faces,4300,1,9,3
20,47658,0,21,1,1,1,gain2,no_gain4,E,G,31,4,body_parts,outdoor_scenes,36,59,Stimuli/Experimental_stims/body_parts/sincerely-media-VN6DbKajo5s-unsplash.jpg,Stimuli/Experimental_stims/outdoor_scenes/jarrett-kow-1ZOyYPOBn7I-unsplash.jpg,0,0,864,0,chosen,4,31,outdoor_scenes,body_parts,1500,0,9,3
21,47658,0,22,1,1,1,gain2,no_gain5,E,K,31,39,body_parts,objects,36,50,Stimuli/Experimental_stims/body_parts/sincerely-media-VN6DbKajo5s-unsplash.jpg,Stimuli/Experimental_stims/objects/charlesdeluvio-1-nx1QR5dTE-unsplash.jpg,0,1,650,1,chosen,31,39,body_parts,objects,1400,0,9,3
22,47658,0,23,1,1,1,gain4,no_gain2,A,B,36,14,objects,faces,59,42,Stimuli/Experimental_stims/objects/alexander-andrews-JYGnB9gTCls-unsplash.jpg,Stimuli/Experimental_stims/faces/david-siglin-UuW4psOb388-unsplash.jpg,0,1,741,1,unchosen,36,14,objects,faces,1300,0,9,3
23,47658,0,24,1,1,1,gain2,no_gain6,E,I,44,32,objects,body_parts,27,37,Stimuli/Experimental_stims/objects/kuiye-chen-NuOGFo4PudE-unsplash.jpg,Stimuli/Experimental_stims/body_parts/towfiqu-barbhuiya-3AsiVDsZnHg-unsplash.jpg,0,0,664,0,unchosen,32,44,body_parts,objects,1000,0,9,3
24,47658,0,25,1,1,0,no_gain1,gain5,D,C,46,11,objects,outdoor_scenes,59,71,Stimuli/Experimental_stims/objects/mockup-graphics-PNsj6RiHAF4-unsplash.jpg,Stimuli/Experimental_stims/outdoor_scenes/stephen-leonardi-gyIRjKPXupE-unsplash.jpg,0,0,724,1,chosen,11,46,outdoor_scenes,objects,3100,1,9,3
25,47658,0,26,1,1,1,gain2,no_gain1,E,D,31,46,body_parts,objects,36,59,Stimuli/Experimental_stims/body_parts/sincerely-media-VN6DbKajo5s-unsplash.jpg,Stimuli/Experimental_stims/objects/mockup-graphics-PNsj6RiHAF4-unsplash.jpg,0,0,944,0,chosen,46,31,objects,body_parts,2700,0,9,3
26,47658,0,27,1,1,1,gain2,no_gain2,E,B,31,9,body_parts,outdoor_scenes,36,82,Stimuli/Experimental_stims/body_parts/sincerely-media-VN6DbKajo5s-unsplash.jpg,Stimuli/Experimental_stims/outdoor_scenes/sergey-pesterev-y-b_FOmJXdg-unsplash.jpg,0,0,799,0,chosen,9,31,outdoor_scenes,body_parts,1400,0,9,3
27,47658,0,28,1,1,1,gain4,no_gain3,A,L,36,20,objects,faces,59,63,Stimuli/Experimental_stims/objects/alexander-andrews-JYGnB9gTCls-unsplash.jpg,Stimuli/Experimental_stims/faces/justin-chen-J7Cf1Gch49E-unsplash.jpg,0,1,837,1,unchosen,36,20,objects,faces,1100,0,9,3
28,47658,0,29,1,1,0,no_gain1,gain3,D,F,21,34,faces,body_parts,50,41,Stimuli/Experimental_stims/faces/leilani-angel-K84vnnzxmTQ-unsplash.jpg,Stimuli/Experimental_stims/body_parts/wagner-santos-mBWMvIuVnso-unsplash.jpg,0,0,754,1,unchosen,34,21,body_parts,faces,1900,0,9,3
29,47658,0,30,1,1,1,gain6,no_gain4,J,G,45,4,objects,outdoor_scenes,62,59,Stimuli/Experimental_stims/objects/leohoho-rngTKHXumy0-unsplash.jpg,Stimuli/Experimental_stims/outdoor_scenes/jarrett-kow-1ZOyYPOBn7I-unsplash.jpg,0,0,795,0,chosen,4,45,outdoor_scenes,objects,1200,0,9,3
30,47658,0,31,1,1,1,gain5,no_gain3,C,L,11,26,outdoor_scenes,body_parts,71,40,Stimuli/Experimental_stims/outdoor_scenes/stephen-leonardi-gyIRjKPXupE-unsplash.jpg,Stimuli/Experimental_stims/body_parts/engin-akyurt-x_3gyC42btc-unsplash.jpg,0,1,718,1,chosen,11,26,outdoor_scenes,body_parts,2300,0,9,3
31,47658,0,32,1,1,0,no_gain3,gain5,L,C,20,35,faces,body_parts,63,44,Stimuli/Experimental_stims/faces/justin-chen-J7Cf1Gch49E-unsplash.jpg,Stimuli/Experimental_stims/body_parts/wc-so-KH4AAPjb-tI-unsplash.jpg,0,0,801,1,unchosen,35,20,body_parts,faces,2000,0,9,3
32,47658,0,33,1,1,1,gain6,no_gain6,J,I,45,10,objects,outdoor_scenes,62,78,Stimuli/Experimental_stims/objects/leohoho-rngTKHXumy0-unsplash.jpg,Stimuli/Experimental_stims/outdoor_scenes/shannon-kunkle-dM8INmkyDas-unsplash.jpg,0,1,819,1,chosen,45,10,objects,outdoor_scenes,2000,0,9,3
33,47658,0,34,1,1,0,no_gain6,gain6,I,J,32,23,body_parts,faces,37,62,Stimuli/Experimental_stims/body_parts/towfiqu-barbhuiya-3AsiVDsZnHg-unsplash.jpg,Stimuli/Experimental_stims/faces/rikonavt-HQjfrvdTfak-unsplash.jpg,0,0,863,1,unchosen,23,32,faces,body_parts,1300,0,9,3
34,47658,0,35,1,1,0,no_gain6,gain1,I,H,32,12,body_parts,faces,37,63,Stimuli/Experimental_stims/body_parts/towfiqu-barbhuiya-3AsiVDsZnHg-unsplash.jpg,Stimuli/Experimental_stims/faces/aiony-haust-jmATI5Q_YgY-unsplash.jpg,0,0,680,1,unchosen,12,32,faces,body_parts,3100,1,9,3
35,47658,0,36,1,1,0,no_gain3,gain2,L,E,26,31,body_parts,body_parts,40,36,Stimuli/Experimental_stims/body_parts/engin-akyurt-x_3gyC42btc-unsplash.jpg,Stimuli/Experimental_stims/body_parts/sincerely-media-VN6DbKajo5s-unsplash.jpg,0,0,1161,1,chosen,31,26,body_parts,body_parts,2600,0,9,3
36,47658,0,37,1,1,0,no_gain6,gain4,I,A,32,36,body_parts,objects,37,59,Stimuli/Experimental_stims/body_parts/towfiqu-barbhuiya-3AsiVDsZnHg-unsplash.jpg,Stimuli/Experimental_stims/objects/alexander-andrews-JYGnB9gTCls-unsplash.jpg,0,0,787,1,unchosen,36,32,objects,body_parts,1200,0,9,3
37,47658,0,38,1,1,1,gain4,no_gain5,A,K,36,27,objects,body_parts,59,42,Stimuli/Experimental_stims/objects/alexander-andrews-JYGnB9gTCls-unsplash.jpg,Stimuli/Experimental_stims/body_parts/heike-mintel-i_Gns0ELnLw-unsplash.jpg,0,0,830,0,unchosen,27,36,body_parts,objects,1700,0,9,3
38,47658,0,39,1,1,1,gain2,no_gain5,E,K,44,27,objects,body_parts,27,42,Stimuli/Experimental_stims/objects/kuiye-chen-NuOGFo4PudE-unsplash.jpg,Stimuli/Experimental_stims/body_parts/heike-mintel-i_Gns0ELnLw-unsplash.jpg,0,0,681,0,unchosen,27,44,body_parts,objects,1600,0,9,3
39,47658,0,40,1,1,0,no_gain1,gain3,D,F,46,19,objects,faces,59,71,Stimuli/Experimental_stims/objects/mockup-graphics-PNsj6RiHAF4-unsplash.jpg,Stimuli/Experimental_stims/faces/joel-mott-LaK153ghdig-unsplash.jpg,0,0,686,1,chosen,19,46,faces,objects,4400,1,9,3
40,47658,0,41,1,1,1,gain1,no_gain5,H,K,5,39,outdoor_scenes,objects,67,50,Stimuli/Experimental_stims/outdoor_scenes/jeff-king-bJHWJeiHfHc-unsplash.jpg,Stimuli/Experimental_stims/objects/charlesdeluvio-1-nx1QR5dTE-unsplash.jpg,0,1,732,1,chosen,5,39,outdoor_scenes,objects,1600,0,9,3
41,47658,0,42,1,1,0,no_gain4,gain3,G,F,47,34,objects,body_parts,55,41,Stimuli/Experimental_stims/objects/ronaldo-arthur-vidal-Cdz_lvnl37k-unsplash.jpg,Stimuli/Experimental_stims/body_parts/wagner-santos-mBWMvIuVnso-unsplash.jpg,0,0,716,1,unchosen,34,47,body_parts,objects,1700,0,9,3
42,47658,0,43,1,1,1,gain6,no_gain2,J,B,45,9,objects,outdoor_scenes,62,82,Stimuli/Experimental_stims/objects/leohoho-rngTKHXumy0-unsplash.jpg,Stimuli/Experimental_stims/outdoor_scenes/sergey-pesterev-y-b_FOmJXdg-unsplash.jpg,0,1,681,1,chosen,45,9,objects,outdoor_scenes,1900,0,9,3
43,47658,0,44,1,1,1,gain4,no_gain4,A,G,7,4,outdoor_scenes,outdoor_scenes,71,59,Stimuli/Experimental_stims/outdoor_scenes/petr-vysohlid-9fqwGqGLUxc-unsplash.jpg,Stimuli/Experimental_stims/outdoor_scenes/jarrett-kow-1ZOyYPOBn7I-unsplash.jpg,0,0,944,0,chosen,4,7,outdoor_scenes,outdoor_scenes,1900,0,9,3
44,47658,0,45,1,1,0,no_gain4,gain1,G,H,47,12,objects,faces,55,63,Stimuli/Experimental_stims/objects/ronaldo-arthur-vidal-Cdz_lvnl37k-unsplash.jpg,Stimuli/Experimental_stims/faces/aiony-haust-jmATI5Q_YgY-unsplash.jpg,0,0,962,1,unchosen,12,47,faces,objects,2000,0,9,3
45,47658,0,46,1,1,0,no_gain2,gain1,B,H,9,5,outdoor_scenes,outdoor_scenes,82,67,Stimuli/Experimental_stims/outdoor_scenes/sergey-pesterev-y-b_FOmJXdg-unsplash.jpg,Stimuli/Experimental_stims/outdoor_scenes/jeff-king-bJHWJeiHfHc-unsplash.jpg,0,1,661,0,chosen,9,5,outdoor_scenes,outdoor_scenes,2200,0,9,3
46,47658,0,47,1,1,0,no_gain5,gain5,K,C,39,11,objects,outdoor_scenes,50,71,Stimuli/Experimental_stims/objects/charlesdeluvio-1-nx1QR5dTE-unsplash.jpg,Stimuli/Experimental_stims/outdoor_scenes/stephen-leonardi-gyIRjKPXupE-unsplash.jpg,0,0,700,1,chosen,11,39,outdoor_scenes,objects,3000,0,9,3
47,47658,0,48,1,1,0,no_gain2,gain3,B,F,9,19,outdoor_scenes,faces,82,71,Stimuli/Experimental_stims/outdoor_scenes/sergey-pesterev-y-b_FOmJXdg-unsplash.jpg,Stimuli/Experimental_stims/faces/joel-mott-LaK153ghdig-unsplash.jpg,0,1,629,0,chosen,9,19,outdoor_scenes,faces,4200,1,9,3
48,47658,0,49,1,1,0,no_gain6,gain3,I,F,32,34,body_parts,body_parts,37,41,Stimuli/Experimental_stims/body_parts/towfiqu-barbhuiya-3AsiVDsZnHg-unsplash.jpg,Stimuli/Experimental_stims/body_parts/wagner-santos-mBWMvIuVnso-unsplash.jpg,0,0,669,1,unchosen,34,32,body_parts,body_parts,2100,0,9,3
49,47658,0,50,1,1,0,no_gain5,gain4,K,A,39,7,objects,outdoor_scenes,50,71,Stimuli/Experimental_stims/objects/charlesdeluvio-1-nx1QR5dTE-unsplash.jpg,Stimuli/Experimental_stims/outdoor_scenes/petr-vysohlid-9fqwGqGLUxc-unsplash.jpg,0,0,899,1,chosen,7,39,outdoor_scenes,objects,1800,0,9,3
50,47658,0,51,1,1,1,gain3,no_gain5,F,K,19,39,faces,objects,71,50,Stimuli/Experimental_stims/faces/joel-mott-LaK153ghdig-unsplash.jpg,Stimuli/Experimental_stims/objects/charlesdeluvio-1-nx1QR5dTE-unsplash.jpg,0,1,557,1,chosen,19,39,faces,objects,2400,0,9,3
51,47658,0,52,1,1,0,no_gain4,gain2,G,E,47,44,objects,objects,55,27,Stimuli/Experimental_stims/objects/ronaldo-arthur-vidal-Cdz_lvnl37k-unsplash.jpg,Stimuli/Experimental_stims/objects/kuiye-chen-NuOGFo4PudE-unsplash.jpg,0,1,974,0,unchosen,47,44,objects,objects,1100,0,9,3
52,47658,0,53,1,1,0,no_gain2,gain5,B,C,9,11,outdoor_scenes,outdoor_scenes,82,71,Stimuli/Experimental_stims/outdoor_scenes/sergey-pesterev-y-b_FOmJXdg-unsplash.jpg,Stimuli/Experimental_stims/outdoor_scenes/stephen-leonardi-gyIRjKPXupE-unsplash.jpg,0,0,649,1,chosen,11,9,outdoor_scenes,outdoor_scenes,1100,0,9,3
53,47658,0,54,1,1,0,no_gain2,gain6,B,J,14,23,faces,faces,42,62,Stimuli/Experimental_stims/faces/david-siglin-UuW4psOb388-unsplash.jpg,Stimuli/Experimental_stims/faces/rikonavt-HQjfrvdTfak-unsplash.jpg,0,0,859,1,unchosen,23,14,faces,faces,1100,0,9,3
54,47658,0,55,1,1,1,gain6,no_gain3,J,L,45,26,objects,body_parts,62,40,Stimuli/Experimental_stims/objects/leohoho-rngTKHXumy0-unsplash.jpg,Stimuli/Experimental_stims/body_parts/engin-akyurt-x_3gyC42btc-unsplash.jpg,0,1,664,1,chosen,45,26,objects,body_parts,3900,1,9,3
55,47658,0,56,1,1,0,no_gain1,gain5,D,C,21,35,faces,body_parts,50,44,Stimuli/Experimental_stims/faces/leilani-angel-K84vnnzxmTQ-unsplash.jpg,Stimuli/Experimental_stims/body_parts/wc-so-KH4AAPjb-tI-unsplash.jpg,0,0,809,1,unchosen,35,21,body_parts,faces,2100,0,9,3
56,47658,0,57,1,1,1,gain5,no_gain4,C,G,35,47,body_parts,objects,44,55,Stimuli/Experimental_stims/body_parts/wc-so-KH4AAPjb-tI-unsplash.jpg,Stimuli/Experimental_stims/objects/ronaldo-arthur-vidal-Cdz_lvnl37k-unsplash.jpg,0,0,1167,0,unchosen,47,35,objects,body_parts,1000,0,9,3
57,47658,0,58,1,1,0,no_gain1,gain4,D,A,21,36,faces,objects,50,59,Stimuli/Experimental_stims/faces/leilani-angel-K84vnnzxmTQ-unsplash.jpg,Stimuli/Experimental_stims/objects/alexander-andrews-JYGnB9gTCls-unsplash.jpg,0,0,781,1,unchosen,36,21,objects,faces,1200,0,9,3
58,47658,0,59,1,1,1,gain3,no_gain6,F,I,19,10,faces,outdoor_scenes,71,78,Stimuli/Experimental_stims/faces/joel-mott-LaK153ghdig-unsplash.jpg,Stimuli/Experimental_stims/outdoor_scenes/shannon-kunkle-dM8INmkyDas-unsplash.jpg,0,1,732,1,chosen,19,10,faces,outdoor_scenes,1300,0,9,3
59,47658,0,60,1,1,1,gain4,no_gain6,A,I,7,10,outdoor_scenes,outdoor_scenes,71,78,Stimuli/Experimental_stims/outdoor_scenes/petr-vysohlid-9fqwGqGLUxc-unsplash.jpg,Stimuli/Experimental_stims/outdoor_scenes/shannon-kunkle-dM8INmkyDas-unsplash.jpg,0,0,682,0,chosen,10,7,outdoor_scenes,outdoor_scenes,1300,0,9,3
60,47658,0,61,1,1,1,gain2,no_gain1,E,D,44,21,objects,faces,27,50,Stimuli/Experimental_stims/objects/kuiye-chen-NuOGFo4PudE-unsplash.jpg,Stimuli/Experimental_stims/faces/leilani-angel-K84vnnzxmTQ-unsplash.jpg,0,1,903,1,unchosen,44,21,objects,faces,3300,1,9,3
61,47658,0,62,1,1,1,gain2,no_gain3,E,L,44,20,objects,faces,27,63,Stimuli/Experimental_stims/objects/kuiye-chen-NuOGFo4PudE-unsplash.jpg,Stimuli/Experimental_stims/faces/justin-chen-J7Cf1Gch49E-unsplash.jpg,0,1,882,1,unchosen,44,20,objects,faces,1100,0,9,3
62,47658,0,63,1,1,0,no_gain5,gain6,K,J,39,45,objects,objects,50,62,Stimuli/Experimental_stims/objects/charlesdeluvio-1-nx1QR5dTE-unsplash.jpg,Stimuli/Experimental_stims/objects/leohoho-rngTKHXumy0-unsplash.jpg,0,0,647,1,chosen,45,39,objects,objects,1400,0,9,3
63,47658,0,64,1,1,0,no_gain2,gain4,B,A,9,7,outdoor_scenes,outdoor_scenes,82,71,Stimuli/Experimental_stims/outdoor_scenes/sergey-pesterev-y-b_FOmJXdg-unsplash.jpg,Stimuli/Experimental_stims/outdoor_scenes/petr-vysohlid-9fqwGqGLUxc-unsplash.jpg,0,0,1022,1,chosen,7,9,outdoor_scenes,outdoor_scenes,1400,0,9,3
64,47658,0,65,1,1,0,no_gain3,gain3,L,F,26,19,body_parts,faces,40,71,Stimuli/Experimental_stims/body_parts/engin-akyurt-x_3gyC42btc-unsplash.jpg,Stimuli/Experimental_stims/faces/joel-mott-LaK153ghdig-unsplash.jpg,0,0,678,1,chosen,19,26,faces,body_parts,2700,0,9,3
65,47658,0,66,1,1,0,no_gain6,gain5,I,C,32,35,body_parts,body_parts,37,44,Stimuli/Experimental_stims/body_parts/towfiqu-barbhuiya-3AsiVDsZnHg-unsplash.jpg,Stimuli/Experimental_stims/body_parts/wc-so-KH4AAPjb-tI-unsplash.jpg,0,0,762,1,unchosen,35,32,body_parts,body_parts,1500,0,9,3
66,47658,0,67,1,1,1,gain3,no_gain5,F,K,34,27,body_parts,body_parts,41,42,Stimuli/Experimental_stims/body_parts/wagner-santos-mBWMvIuVnso-unsplash.jpg,Stimuli/Experimental_stims/body_parts/heike-mintel-i_Gns0ELnLw-unsplash.jpg,0,1,688,1,unchosen,34,27,body_parts,body_parts,3700,1,9,3
67,47658,0,68,1,1,0,no_gain1,gain1,D,H,21,12,faces,faces,50,63,Stimuli/Experimental_stims/faces/leilani-angel-K84vnnzxmTQ-unsplash.jpg,Stimuli/Experimental_stims/faces/aiony-haust-jmATI5Q_YgY-unsplash.jpg,0,0,666,1,unchosen,12,21,faces,faces,2600,0,9,3
68,47658,0,69,1,1,1,gain4,no_gain3,A,L,7,26,outdoor_scenes,body_parts,71,40,Stimuli/Experimental_stims/outdoor_scenes/petr-vysohlid-9fqwGqGLUxc-unsplash.jpg,Stimuli/Experimental_stims/body_parts/engin-akyurt-x_3gyC42btc-unsplash.jpg,0,1,725,1,chosen,7,26,outdoor_scenes,body_parts,1600,0,9,3
69,47658,0,70,1,1,1,gain6,no_gain3,J,L,23,20,faces,faces,62,63,Stimuli/Experimental_stims/faces/rikonavt-HQjfrvdTfak-unsplash.jpg,Stimuli/Experimental_stims/faces/justin-chen-J7Cf1Gch49E-unsplash.jpg,0,1,973,1,unchosen,23,20,faces,faces,1100,0,9,3
70,47658,0,71,1,1,0,no_gain6,gain2,I,E,10,31,outdoor_scenes,body_parts,78,36,Stimuli/Experimental_stims/outdoor_scenes/shannon-kunkle-dM8INmkyDas-unsplash.jpg,Stimuli/Experimental_stims/body_parts/sincerely-media-VN6DbKajo5s-unsplash.jpg,0,1,826,0,chosen,10,31,outdoor_scenes,body_parts,1600,0,9,3
71,47658,0,72,1,1,0,no_gain6,gain1,I,H,10,5,outdoor_scenes,outdoor_scenes,78,67,Stimuli/Experimental_stims/outdoor_scenes/shannon-kunkle-dM8INmkyDas-unsplash.jpg,Stimuli/Experimental_stims/outdoor_scenes/jeff-king-bJHWJeiHfHc-unsplash.jpg,0,1,756,0,chosen,10,5,outdoor_scenes,outdoor_scenes,4400,1,9,3
72,47658,0,73,1,1,1,gain6,no_gain1,J,D,45,46,objects,objects,62,59,Stimuli/Experimental_stims/objects/leohoho-rngTKHXumy0-unsplash.jpg,Stimuli/Experimental_stims/objects/mockup-graphics-PNsj6RiHAF4-unsplash.jpg,0,1,731,1,chosen,45,46,objects,objects,1100,0,9,3
73,47658,0,74,1,1,0,no_gain5,gain6,K,J,27,23,body_parts,faces,42,62,Stimuli/Experimental_stims/body_parts/heike-mintel-i_Gns0ELnLw-unsplash.jpg,Stimuli/Experimental_stims/faces/rikonavt-HQjfrvdTfak-unsplash.jpg,0,0,737,1,unchosen,23,27,faces,body_parts,1700,0,9,3
74,47658,0,75,1,1,1,gain5,no_gain2,C,B,35,14,body_parts,faces,44,42,Stimuli/Experimental_stims/body_parts/wc-so-KH4AAPjb-tI-unsplash.jpg,Stimuli/Experimental_stims/faces/david-siglin-UuW4psOb388-unsplash.jpg,0,1,762,1,unchosen,35,14,body_parts,faces,2500,0,9,3
75,47658,0,76,1,1,1,gain1,no_gain3,H,L,12,20,faces,faces,63,63,Stimuli/Experimental_stims/faces/aiony-haust-jmATI5Q_YgY-unsplash.jpg,Stimuli/Experimental_stims/faces/justin-chen-J7Cf1Gch49E-unsplash.jpg,0,1,810,1,unchosen,12,20,faces,faces,2100,0,9,3
76,47658,0,77,2,2,0,no_gain2,gain4,B,A,14,36,faces,objects,42,59,Stimuli/Experimental_stims/faces/david-siglin-UuW4psOb388-unsplash.jpg,Stimuli/Experimental_stims/objects/alexander-andrews-JYGnB9gTCls-unsplash.jpg,0,0,899,1,unchosen,36,14,objects,faces,3800,1,9,3
77,47658,0,78,2,2,0,no_gain6,gain5,I,C,10,11,outdoor_scenes,outdoor_scenes,78,71,Stimuli/Experimental_stims/outdoor_scenes/shannon-kunkle-dM8INmkyDas-unsplash.jpg,Stimuli/Experimental_stims/outdoor_scenes/stephen-leonardi-gyIRjKPXupE-unsplash.jpg,0,0,708,1,chosen,11,10,outdoor_scenes,outdoor_scenes,1200,0,9,3
78,47658,0,79,2,2,0,no_gain5,gain5,K,C,39,11,objects,outdoor_scenes,50,71,Stimuli/Experimental_stims/objects/charlesdeluvio-1-nx1QR5dTE-unsplash.jpg,Stimuli/Experimental_stims/outdoor_scenes/stephen-leonardi-gyIRjKPXupE-unsplash.jpg,0,0,667,1,chosen,11,39,outdoor_scenes,objects,1200,0,9,3
79,47658,0,80,2,2,0,no_gain6,gain3,I,F,32,34,body_parts,body_parts,37,41,Stimuli/Experimental_stims/body_parts/towfiqu-barbhuiya-3AsiVDsZnHg-unsplash.jpg,Stimuli/Experimental_stims/body_parts/wagner-santos-mBWMvIuVnso-unsplash.jpg,0,0,598,1,unchosen,34,32,body_parts,body_parts,2700,0,9,3
80,47658,0,81,2,2,0,no_gain2,gain6,B,J,9,45,outdoor_scenes,objects,82,62,Stimuli/Experimental_stims/outdoor_scenes/sergey-pesterev-y-b_FOmJXdg-unsplash.jpg,Stimuli/Experimental_stims/objects/leohoho-rngTKHXumy0-unsplash.jpg,0,0,672,1,chosen,45,9,objects,outdoor_scenes,2900,0,9,3
81,47658,0,82,2,2,1,gain6,no_gain4,J,G,23,47,faces,objects,62,55,Stimuli/Experimental_stims/faces/rikonavt-HQjfrvdTfak-unsplash.jpg,Stimuli/Experimental_stims/objects/ronaldo-arthur-vidal-Cdz_lvnl37k-unsplash.jpg,0,1,593,1,unchosen,23,47,faces,objects,1400,0,9,3
82,47658,0,83,2,2,1,gain2,no_gain1,E,D,31,46,body_parts,objects,36,59,Stimuli/Experimental_stims/body_parts/sincerely-media-VN6DbKajo5s-unsplash.jpg,Stimuli/Experimental_stims/objects/mockup-graphics-PNsj6RiHAF4-unsplash.jpg,0,1,638,1,chosen,31,46,body_parts,objects,1100,0,9,3
83,47658,0,84,2,2,0,no_gain5,gain3,K,F,39,19,objects,faces,50,71,Stimuli/Experimental_stims/objects/charlesdeluvio-1-nx1QR5dTE-unsplash.jpg,Stimuli/Experimental_stims/faces/joel-mott-LaK153ghdig-unsplash.jpg,0,0,518,1,chosen,19,39,faces,objects,2400,0,9,3
84,47658,0,85,2,2,1,gain6,no_gain3,J,L,23,20,faces,faces,62,63,Stimuli/Experimental_stims/faces/rikonavt-HQjfrvdTfak-unsplash.jpg,Stimuli/Experimental_stims/faces/justin-chen-J7Cf1Gch49E-unsplash.jpg,0,1,662,1,unchosen,23,20,faces,faces,2400,0,9,3
85,47658,0,86,2,2,1,gain5,no_gain1,C,D,11,46,outdoor_scenes,objects,71,59,Stimuli/Experimental_stims/outdoor_scenes/stephen-leonardi-gyIRjKPXupE-unsplash.jpg,Stimuli/Experimental_stims/objects/mockup-graphics-PNsj6RiHAF4-unsplash.jpg,0,1,605,1,chosen,11,46,outdoor_scenes,objects,1400,0,9,3
86,47658,0,87,2,2,0,no_gain3,gain1,L,H,26,5,body_parts,outdoor_scenes,40,67,Stimuli/Experimental_stims/body_parts/engin-akyurt-x_3gyC42btc-unsplash.jpg,Stimuli/Experimental_stims/outdoor_scenes/jeff-king-bJHWJeiHfHc-unsplash.jpg,0,0,773,1,chosen,5,26,outdoor_scenes,body_parts,3000,1,9,3
87,47658,0,88,2,2,0,no_gain5,gain1,K,H,27,12,body_parts,faces,42,63,Stimuli/Experimental_stims/body_parts/heike-mintel-i_Gns0ELnLw-unsplash.jpg,Stimuli/Experimental_stims/faces/aiony-haust-jmATI5Q_YgY-unsplash.jpg,0,0,557,1,unchosen,12,27,faces,body_parts,1000,0,9,3
88,47658,0,89,2,2,0,no_gain5,gain4,K,A,27,36,body_parts,objects,42,59,Stimuli/Experimental_stims/body_parts/heike-mintel-i_Gns0ELnLw-unsplash.jpg,Stimuli/Experimental_stims/objects/alexander-andrews-JYGnB9gTCls-unsplash.jpg,0,1,693,0,unchosen,27,36,body_parts,objects,1100,0,9,3
89,47658,0,90,2,2,0,no_gain3,gain2,L,E,20,44,faces,objects,63,27,Stimuli/Experimental_stims/faces/justin-chen-J7Cf1Gch49E-unsplash.jpg,Stimuli/Experimental_stims/objects/kuiye-chen-NuOGFo4PudE-unsplash.jpg,0,0,722,1,unchosen,44,20,objects,faces,2200,0,9,3
90,47658,0,91,2,2,1,gain1,no_gain6,H,I,5,10,outdoor_scenes,outdoor_scenes,67,78,Stimuli/Experimental_stims/outdoor_scenes/jeff-king-bJHWJeiHfHc-unsplash.jpg,Stimuli/Experimental_stims/outdoor_scenes/shannon-kunkle-dM8INmkyDas-unsplash.jpg,0,0,732,0,chosen,10,5,outdoor_scenes,outdoor_scenes,1600,0,9,3
91,47658,0,92,2,2,1,gain2,no_gain6,E,I,44,32,objects,body_parts,27,37,Stimuli/Experimental_stims/objects/kuiye-chen-NuOGFo4PudE-unsplash.jpg,Stimuli/Experimental_stims/body_parts/towfiqu-barbhuiya-3AsiVDsZnHg-unsplash.jpg,0,1,860,1,unchosen,44,32,objects,body_parts,3200,1,9,3
92,47658,0,93,2,2,0,no_gain5,gain6,K,J,27,23,body_parts,faces,42,62,Stimuli/Experimental_stims/body_parts/heike-mintel-i_Gns0ELnLw-unsplash.jpg,Stimuli/Experimental_stims/faces/rikonavt-HQjfrvdTfak-unsplash.jpg,0,0,675,1,unchosen,23,27,faces,body_parts,2100,0,9,3
93,47658,0,94,2,2,1,gain3,no_gain3,F,L,34,20,body_parts,faces,41,63,Stimuli/Experimental_stims/body_parts/wagner-santos-mBWMvIuVnso-unsplash.jpg,Stimuli/Experimental_stims/faces/justin-chen-J7Cf1Gch49E-unsplash.jpg,0,1,615,1,unchosen,34,20,body_parts,faces,1100,0,9,3
94,47658,0,95,2,2,0,no_gain2,gain3,B,F,9,19,outdoor_scenes,faces,82,71,Stimuli/Experimental_stims/outdoor_scenes/sergey-pesterev-y-b_FOmJXdg-unsplash.jpg,Stimuli/Experimental_stims/faces/joel-mott-LaK153ghdig-unsplash.jpg,0,0,621,1,chosen,19,9,faces,outdoor_scenes,2800,0,9,3
95,47658,0,96,2,2,1,gain1,no_gain4,H,G,12,47,faces,objects,63,55,Stimuli/Experimental_stims/faces/aiony-haust-jmATI5Q_YgY-unsplash.jpg,Stimuli/Experimental_stims/objects/ronaldo-arthur-vidal-Cdz_lvnl37k-unsplash.jpg,0,1,876,1,unchosen,12,47,faces,objects,1100,0,9,3
96,47658,0,97,2,2,0,no_gain3,gain4,L,A,26,7,body_parts,outdoor_scenes,40,71,Stimuli/Experimental_stims/body_parts/engin-akyurt-x_3gyC42btc-unsplash.jpg,Stimuli/Experimental_stims/outdoor_scenes/petr-vysohlid-9fqwGqGLUxc-unsplash.jpg,0,0,922,1,chosen,7,26,outdoor_scenes,body_parts,4900,1,9,3
97,47658,0,98,2,2,1,gain3,no_gain3,F,L,19,26,faces,body_parts,71,40,Stimuli/Experimental_stims/faces/joel-mott-LaK153ghdig-unsplash.jpg,Stimuli/Experimental_stims/body_parts/engin-akyurt-x_3gyC42btc-unsplash.jpg,0,1,552,1,chosen,19,26,faces,body_parts,1200,0,9,3
98,47658,0,99,2,2,0,no_gain5,gain5,K,C,27,35,body_parts,body_parts,42,44,Stimuli/Experimental_stims/body_parts/heike-mintel-i_Gns0ELnLw-unsplash.jpg,Stimuli/Experimental_stims/body_parts/wc-so-KH4AAPjb-tI-unsplash.jpg,0,0,820,1,unchosen,35,27,body_parts,body_parts,1200,0,9,3
99,47658,0,100,2,2,1,gain4,no_gain5,A,K,7,39,outdoor_scenes,objects,71,50,Stimuli/Experimental_stims/outdoor_scenes/petr-vysohlid-9fqwGqGLUxc-unsplash.jpg,Stimuli/Experimental_stims/objects/charlesdeluvio-1-nx1QR5dTE-unsplash.jpg,0,1,701,1,chosen,7,39,outdoor_scenes,objects,1900,0,9,3
100,47658,0,101,2,2,0,no_gain6,gain4,I,A,10,7,outdoor_scenes,outdoor_scenes,78,71,Stimuli/Experimental_stims/outdoor_scenes/shannon-kunkle-dM8INmkyDas-unsplash.jpg,Stimuli/Experimental_stims/outdoor_scenes/petr-vysohlid-9fqwGqGLUxc-unsplash.jpg,0,1,727,0,chosen,10,7,outdoor_scenes,outdoor_scenes,1500,0,9,3
101,47658,0,102,2,2,0,no_gain5,gain2,K,E,27,44,body_parts,objects,42,27,Stimuli/Experimental_stims/body_parts/heike-mintel-i_Gns0ELnLw-unsplash.jpg,Stimuli/Experimental_stims/objects/kuiye-chen-NuOGFo4PudE-unsplash.jpg,0,0,864,1,unchosen,44,27,objects,body_parts,1600,0,9,3
102,47658,0,103,2,2,0,no_gain5,gain6,K,J,39,45,objects,objects,50,62,Stimuli/Experimental_stims/objects/charlesdeluvio-1-nx1QR5dTE-unsplash.jpg,Stimuli/Experimental_stims/objects/leohoho-rngTKHXumy0-unsplash.jpg,0,0,669,1,chosen,45,39,objects,objects,1500,0,9,3
103,47658,0,104,2,2,1,gain4,no_gain3,A,L,36,20,objects,faces,59,63,Stimuli/Experimental_stims/objects/alexander-andrews-JYGnB9gTCls-unsplash.jpg,Stimuli/Experimental_stims/faces/justin-chen-J7Cf1Gch49E-unsplash.jpg,0,1,790,1,unchosen,36,20,objects,faces,2000,0,9,3
104,47658,0,105,2,2,1,gain2,no_gain4,E,G,31,4,body_parts,outdoor_scenes,36,59,Stimuli/Experimental_stims/body_parts/sincerely-media-VN6DbKajo5s-unsplash.jpg,Stimuli/Experimental_stims/outdoor_scenes/jarrett-kow-1ZOyYPOBn7I-unsplash.jpg,0,0,693,0,chosen,4,31,outdoor_scenes,body_parts,2000,0,9,3
105,47658,0,106,2,2,0,no_gain2,gain1,B,H,9,5,outdoor_scenes,outdoor_scenes,82,67,Stimuli/Experimental_stims/outdoor_scenes/sergey-pesterev-y-b_FOmJXdg-unsplash.jpg,Stimuli/Experimental_stims/outdoor_scenes/jeff-king-bJHWJeiHfHc-unsplash.jpg,0,1,613,0,chosen,9,5,outdoor_scenes,outdoor_scenes,3400,1,9,3
106,47658,0,107,2,2,1,gain1,no_gain6,H,I,12,32,faces,body_parts,63,37,Stimuli/Experimental_stims/faces/aiony-haust-jmATI5Q_YgY-unsplash.jpg,Stimuli/Experimental_stims/body_parts/towfiqu-barbhuiya-3AsiVDsZnHg-unsplash.jpg,0,1,882,1,unchosen,12,32,faces,body_parts,1600,0,9,3
107,47658,0,108,2,2,0,no_gain1,gain3,D,F,21,34,faces,body_parts,50,41,Stimuli/Experimental_stims/faces/leilani-angel-K84vnnzxmTQ-unsplash.jpg,Stimuli/Experimental_stims/body_parts/wagner-santos-mBWMvIuVnso-unsplash.jpg,0,0,668,1,unchosen,34,21,body_parts,faces,2400,0,9,3
108,47658,0,109,2,2,0,no_gain5,gain2,K,E,39,31,objects,body_parts,50,36,Stimuli/Experimental_stims/objects/charlesdeluvio-1-nx1QR5dTE-unsplash.jpg,Stimuli/Experimental_stims/body_parts/sincerely-media-VN6DbKajo5s-unsplash.jpg,0,0,726,1,chosen,31,39,body_parts,objects,2900,0,9,3
109,47658,0,110,2,2,1,gain2,no_gain2,E,B,31,9,body_parts,outdoor_scenes,36,82,Stimuli/Experimental_stims/body_parts/sincerely-media-VN6DbKajo5s-unsplash.jpg,Stimuli/Experimental_stims/outdoor_scenes/sergey-pesterev-y-b_FOmJXdg-unsplash.jpg,0,0,800,0,chosen,9,31,outdoor_scenes,body_parts,2100,0,9,3
110,47658,0,111,2,2,1,gain5,no_gain6,C,I,35,32,body_parts,body_parts,44,37,Stimuli/Experimental_stims/body_parts/wc-so-KH4AAPjb-tI-unsplash.jpg,Stimuli/Experimental_stims/body_parts/towfiqu-barbhuiya-3AsiVDsZnHg-unsplash.jpg,0,1,793,1,unchosen,35,32,body_parts,body_parts,3600,1,9,3
111,47658,0,112,2,2,1,gain6,no_gain4,J,G,45,4,objects,outdoor_scenes,62,59,Stimuli/Experimental_stims/objects/leohoho-rngTKHXumy0-unsplash.jpg,Stimuli/Experimental_stims/outdoor_scenes/jarrett-kow-1ZOyYPOBn7I-unsplash.jpg,0,1,865,1,chosen,45,4,objects,outdoor_scenes,1900,0,9,3
112,47658,0,113,2,2,1,gain3,no_gain1,F,D,19,46,faces,objects,71,59,Stimuli/Experimental_stims/faces/joel-mott-LaK153ghdig-unsplash.jpg,Stimuli/Experimental_stims/objects/mockup-graphics-PNsj6RiHAF4-unsplash.jpg,0,1,633,1,chosen,19,46,faces,objects,1000,0,9,3
113,47658,0,114,2,2,0,no_gain6,gain2,I,E,10,31,outdoor_scenes,body_parts,78,36,Stimuli/Experimental_stims/outdoor_scenes/shannon-kunkle-dM8INmkyDas-unsplash.jpg,Stimuli/Experimental_stims/body_parts/sincerely-media-VN6DbKajo5s-unsplash.jpg,0,1,949,0,chosen,10,31,outdoor_scenes,body_parts,1500,0,9,3
114,47658,0,115,2,2,1,gain1,no_gain3,H,L,12,20,faces,faces,63,63,Stimuli/Experimental_stims/faces/aiony-haust-jmATI5Q_YgY-unsplash.jpg,Stimuli/Experimental_stims/faces/justin-chen-J7Cf1Gch49E-unsplash.jpg,0,1,825,1,unchosen,12,20,faces,faces,1600,0,9,3
115,47658,0,116,2,2,0,no_gain1,gain1,D,H,21,12,faces,faces,50,63,Stimuli/Experimental_stims/faces/leilani-angel-K84vnnzxmTQ-unsplash.jpg,Stimuli/Experimental_stims/faces/aiony-haust-jmATI5Q_YgY-unsplash.jpg,0,0,670,1,unchosen,12,21,faces,faces,1100,0,9,3
116,47658,0,117,2,2,1,gain6,no_gain1,J,D,45,46,objects,objects,62,59,Stimuli/Experimental_stims/objects/leohoho-rngTKHXumy0-unsplash.jpg,Stimuli/Experimental_stims/objects/mockup-graphics-PNsj6RiHAF4-unsplash.jpg,0,1,586,1,chosen,45,46,objects,objects,4400,1,9,3
117,47658,0,118,2,2,1,gain3,no_gain6,F,I,19,10,faces,outdoor_scenes,71,78,Stimuli/Experimental_stims/faces/joel-mott-LaK153ghdig-unsplash.jpg,Stimuli/Experimental_stims/outdoor_scenes/shannon-kunkle-dM8INmkyDas-unsplash.jpg,0,1,557,1,chosen,19,10,faces,outdoor_scenes,1100,0,9,3
118,47658,0,119,2,2,1,gain3,no_gain4,F,G,34,47,body_parts,objects,41,55,Stimuli/Experimental_stims/body_parts/wagner-santos-mBWMvIuVnso-unsplash.jpg,Stimuli/Experimental_stims/objects/ronaldo-arthur-vidal-Cdz_lvnl37k-unsplash.jpg,0,1,729,1,unchosen,34,47,body_parts,objects,1200,0,9,3
119,47658,0,120,2,2,0,no_gain4,gain1,G,H,4,5,outdoor_scenes,outdoor_scenes,59,67,Stimuli/Experimental_stims/outdoor_scenes/jarrett-kow-1ZOyYPOBn7I-unsplash.jpg,Stimuli/Experimental_stims/outdoor_scenes/jeff-king-bJHWJeiHfHc-unsplash.jpg,0,1,716,0,chosen,4,5,outdoor_scenes,outdoor_scenes,1000,0,9,3
120,47658,0,121,2,2,0,no_gain3,gain5,L,C,20,35,faces,body_parts,63,44,Stimuli/Experimental_stims/faces/justin-chen-J7Cf1Gch49E-unsplash.jpg,Stimuli/Experimental_stims/body_parts/wc-so-KH4AAPjb-tI-unsplash.jpg,0,0,923,1,unchosen,35,20,body_parts,faces,1500,0,9,3
121,47658,0,122,2,2,0,no_gain1,gain4,D,A,21,36,faces,objects,50,59,Stimuli/Experimental_stims/faces/leilani-angel-K84vnnzxmTQ-unsplash.jpg,Stimuli/Experimental_stims/objects/alexander-andrews-JYGnB9gTCls-unsplash.jpg,0,0,953,1,unchosen,36,21,objects,faces,2000,0,9,3
122,47658,0,123,2,2,0,no_gain4,gain3,G,F,4,19,outdoor_scenes,faces,59,71,Stimuli/Experimental_stims/outdoor_scenes/jarrett-kow-1ZOyYPOBn7I-unsplash.jpg,Stimuli/Experimental_stims/faces/joel-mott-LaK153ghdig-unsplash.jpg,0,1,602,0,chosen,4,19,outdoor_scenes,faces,3700,1,9,3
123,47658,0,124,2,2,0,no_gain1,gain2,D,E,21,44,faces,objects,50,27,Stimuli/Experimental_stims/faces/leilani-angel-K84vnnzxmTQ-unsplash.jpg,Stimuli/Experimental_stims/objects/kuiye-chen-NuOGFo4PudE-unsplash.jpg,0,1,1360,0,unchosen,21,44,faces,objects,2100,0,9,3
124,47658,0,125,2,2,1,gain5,no_gain1,C,D,35,21,body_parts,faces,44,50,Stimuli/Experimental_stims/body_parts/wc-so-KH4AAPjb-tI-unsplash.jpg,Stimuli/Experimental_stims/faces/leilani-angel-K84vnnzxmTQ-unsplash.jpg,0,1,869,1,unchosen,35,21,body_parts,faces,1100,0,9,3
125,47658,0,126,2,2,1,gain5,no_gain3,C,L,11,26,outdoor_scenes,body_parts,71,40,Stimuli/Experimental_stims/outdoor_scenes/stephen-leonardi-gyIRjKPXupE-unsplash.jpg,Stimuli/Experimental_stims/body_parts/engin-akyurt-x_3gyC42btc-unsplash.jpg,0,1,873,1,chosen,11,26,outdoor_scenes,body_parts,1500,0,9,3
126,47658,0,127,2,2,0,no_gain5,gain1,K,H,39,5,objects,outdoor_scenes,50,67,Stimuli/Experimental_stims/objects/charlesdeluvio-1-nx1QR5dTE-unsplash.jpg,Stimuli/Experimental_stims/outdoor_scenes/jeff-king-bJHWJeiHfHc-unsplash.jpg,0,1,720,0,chosen,39,5,objects,outdoor_scenes,1900,0,9,3
127,47658,0,128,2,2,0,no_gain2,gain6,B,J,14,23,faces,faces,42,62,Stimuli/Experimental_stims/faces/david-siglin-UuW4psOb388-unsplash.jpg,Stimuli/Experimental_stims/faces/rikonavt-HQjfrvdTfak-unsplash.jpg,0,0,769,1,unchosen,23,14,faces,faces,1600,0,9,3
128,47658,0,129,2,2,1,gain5,no_gain4,C,G,35,47,body_parts,objects,44,55,Stimuli/Experimental_stims/body_parts/wc-so-KH4AAPjb-tI-unsplash.jpg,Stimuli/Experimental_stims/objects/ronaldo-arthur-vidal-Cdz_lvnl37k-unsplash.jpg,0,0,869,0,unchosen,47,35,objects,body_parts,3100,1,9,3
129,47658,0,130,2,2,0,no_gain1,gain1,D,H,46,5,objects,outdoor_scenes,59,67,Stimuli/Experimental_stims/objects/mockup-graphics-PNsj6RiHAF4-unsplash.jpg,Stimuli/Experimental_stims/outdoor_scenes/jeff-king-bJHWJeiHfHc-unsplash.jpg,0,1,1049,0,chosen,46,5,objects,outdoor_scenes,2800,0,9,3
130,47658,0,131,2,2,1,gain5,no_gain4,C,G,11,4,outdoor_scenes,outdoor_scenes,71,59,Stimuli/Experimental_stims/outdoor_scenes/stephen-leonardi-gyIRjKPXupE-unsplash.jpg,Stimuli/Experimental_stims/outdoor_scenes/jarrett-kow-1ZOyYPOBn7I-unsplash.jpg,0,1,733,1,chosen,11,4,outdoor_scenes,outdoor_scenes,1800,0,9,3
131,47658,0,132,2,2,0,no_gain6,gain6,I,J,32,23,body_parts,faces,37,62,Stimuli/Experimental_stims/body_parts/towfiqu-barbhuiya-3AsiVDsZnHg-unsplash.jpg,Stimuli/Experimental_stims/faces/rikonavt-HQjfrvdTfak-unsplash.jpg,0,0,789,1,unchosen,23,32,faces,body_parts,2100,0,9,3
132,47658,0,133,2,2,1,gain6,no_gain3,J,L,45,26,objects,body_parts,62,40,Stimuli/Experimental_stims/objects/leohoho-rngTKHXumy0-unsplash.jpg,Stimuli/Experimental_stims/body_parts/engin-akyurt-x_3gyC42btc-unsplash.jpg,0,1,583,1,chosen,45,26,objects,body_parts,2100,0,9,3
133,47658,0,134,2,2,0,no_gain2,gain5,B,C,9,11,outdoor_scenes,outdoor_scenes,82,71,Stimuli/Experimental_stims/outdoor_scenes/sergey-pesterev-y-b_FOmJXdg-unsplash.jpg,Stimuli/Experimental_stims/outdoor_scenes/stephen-leonardi-gyIRjKPXupE-unsplash.jpg,0,0,741,1,chosen,11,9,outdoor_scenes,outdoor_scenes,1600,0,9,3
134,47658,0,135,2,2,0,no_gain4,gain2,G,E,47,44,objects,objects,55,27,Stimuli/Experimental_stims/objects/ronaldo-arthur-vidal-Cdz_lvnl37k-unsplash.jpg,Stimuli/Experimental_stims/objects/kuiye-chen-NuOGFo4PudE-unsplash.jpg,0,1,645,0,unchosen,47,44,objects,objects,2600,0,9,3
135,47658,0,136,2,2,1,gain4,no_gain4,A,G,7,4,outdoor_scenes,outdoor_scenes,71,59,Stimuli/Experimental_stims/outdoor_scenes/petr-vysohlid-9fqwGqGLUxc-unsplash.jpg,Stimuli/Experimental_stims/outdoor_scenes/jarrett-kow-1ZOyYPOBn7I-unsplash.jpg,0,0,771,0,chosen,4,7,outdoor_scenes,outdoor_scenes,1100,0,9,3
136,47658,0,137,2,2,0,no_gain2,gain2,B,E,14,44,faces,objects,42,27,Stimuli/Experimental_stims/faces/david-siglin-UuW4psOb388-unsplash.jpg,Stimuli/Experimental_stims/objects/kuiye-chen-NuOGFo4PudE-unsplash.jpg,0,0,729,1,unchosen,44,14,objects,faces,2700,0,9,3
137,47658,0,138,2,2,1,gain4,no_gain6,A,I,36,32,objects,body_parts,59,37,Stimuli/Experimental_stims/objects/alexander-andrews-JYGnB9gTCls-unsplash.jpg,Stimuli/Experimental_stims/body_parts/towfiqu-barbhuiya-3AsiVDsZnHg-unsplash.jpg,0,1,649,1,unchosen,36,32,objects,body_parts,1500,0,9,3
138,47658,0,139,2,2,1,gain3,no_gain5,F,K,34,27,body_parts,body_parts,41,42,Stimuli/Experimental_stims/body_parts/wagner-santos-mBWMvIuVnso-unsplash.jpg,Stimuli/Experimental_stims/body_parts/heike-mintel-i_Gns0ELnLw-unsplash.jpg,0,1,752,1,unchosen,34,27,body_parts,body_parts,1100,0,9,3
139,47658,0,140,2,2,1,gain4,no_gain1,A,D,7,46,outdoor_scenes,objects,71,59,Stimuli/Experimental_stims/outdoor_scenes/petr-vysohlid-9fqwGqGLUxc-unsplash.jpg,Stimuli/Experimental_stims/objects/mockup-graphics-PNsj6RiHAF4-unsplash.jpg,0,1,660,1,chosen,7,46,outdoor_scenes,objects,1200,0,9,3
140,47658,0,141,2,2,1,gain3,no_gain2,F,B,34,14,body_parts,faces,41,42,Stimuli/Experimental_stims/body_parts/wagner-santos-mBWMvIuVnso-unsplash.jpg,Stimuli/Experimental_stims/faces/david-siglin-UuW4psOb388-unsplash.jpg,0,1,670,1,unchosen,34,14,body_parts,faces,1200,0,9,3
141,47658,0,142,2,2,0,no_gain2,gain1,B,H,14,12,faces,faces,42,63,Stimuli/Experimental_stims/faces/david-siglin-UuW4psOb388-unsplash.jpg,Stimuli/Experimental_stims/faces/aiony-haust-jmATI5Q_YgY-unsplash.jpg,0,0,637,1,unchosen,12,14,faces,faces,4600,1,9,3
142,47658,0,143,2,2,1,gain6,no_gain6,J,I,45,10,objects,outdoor_scenes,62,78,Stimuli/Experimental_stims/objects/leohoho-rngTKHXumy0-unsplash.jpg,Stimuli/Experimental_stims/outdoor_scenes/shannon-kunkle-dM8INmkyDas-unsplash.jpg,0,1,740,1,chosen,45,10,objects,outdoor_scenes,2000,0,9,3
143,47658,0,144,2,2,1,gain4,no_gain4,A,G,36,47,objects,objects,59,55,Stimuli/Experimental_stims/objects/alexander-andrews-JYGnB9gTCls-unsplash.jpg,Stimuli/Experimental_stims/objects/ronaldo-arthur-vidal-Cdz_lvnl37k-unsplash.jpg,0,0,654,0,unchosen,47,36,objects,objects,1700,0,9,3
144,47658,0,145,2,2,1,gain6,no_gain1,J,D,23,21,faces,faces,62,50,Stimuli/Experimental_stims/faces/rikonavt-HQjfrvdTfak-unsplash.jpg,Stimuli/Experimental_stims/faces/leilani-angel-K84vnnzxmTQ-unsplash.jpg,0,1,750,1,unchosen,23,21,faces,faces,1300,0,9,3
145,47658,0,146,2,2,0,no_gain2,gain4,B,A,9,7,outdoor_scenes,outdoor_scenes,82,71,Stimuli/Experimental_stims/outdoor_scenes/sergey-pesterev-y-b_FOmJXdg-unsplash.jpg,Stimuli/Experimental_stims/outdoor_scenes/petr-vysohlid-9fqwGqGLUxc-unsplash.jpg,0,0,847,1,chosen,7,9,outdoor_scenes,outdoor_scenes,1300,0,9,3
146,47658,0,147,2,2,1,gain5,no_gain2,C,B,35,14,body_parts,faces,44,42,Stimuli/Experimental_stims/body_parts/wc-so-KH4AAPjb-tI-unsplash.jpg,Stimuli/Experimental_stims/faces/david-siglin-UuW4psOb388-unsplash.jpg,0,0,866,0,unchosen,14,35,faces,body_parts,1600,0,9,3
147,47658,0,148,2,2,1,gain2,no_gain3,E,L,31,26,body_parts,body_parts,36,40,Stimuli/Experimental_stims/body_parts/sincerely-media-VN6DbKajo5s-unsplash.jpg,Stimuli/Experimental_stims/body_parts/engin-akyurt-x_3gyC42btc-unsplash.jpg,0,1,1113,1,chosen,31,26,body_parts,body_parts,2900,0,9,3
148,47658,0,149,3,3,0,no_gain1,gain2,D,E,21,44,faces,objects,50,27,Stimuli/Experimental_stims/faces/leilani-angel-K84vnnzxmTQ-unsplash.jpg,Stimuli/Experimental_stims/objects/kuiye-chen-NuOGFo4PudE-unsplash.jpg,0,1,796,0,unchosen,21,44,faces,objects,2500,0,3,3
149,47658,0,150,3,3,0,no_gain2,gain5,B,C,9,11,outdoor_scenes,outdoor_scenes,82,71,Stimuli/Experimental_stims/outdoor_scenes/sergey-pesterev-y-b_FOmJXdg-unsplash.jpg,Stimuli/Experimental_stims/outdoor_scenes/stephen-leonardi-gyIRjKPXupE-unsplash.jpg,0,0,793,1,chosen,11,9,outdoor_scenes,outdoor_scenes,1500,0,3,3
150,47658,0,151,3,3,0,no_gain5,gain1,K,H,27,12,body_parts,faces,42,63,Stimuli/Experimental_stims/body_parts/heike-mintel-i_Gns0ELnLw-unsplash.jpg,Stimuli/Experimental_stims/faces/aiony-haust-jmATI5Q_YgY-unsplash.jpg,0,0,751,1,unchosen,12,27,faces,body_parts,1000,0,3,3
151,47658,0,152,3,3,1,gain3,no_gain3,F,L,34,20,body_parts,faces,41,63,Stimuli/Experimental_stims/body_parts/wagner-santos-mBWMvIuVnso-unsplash.jpg,Stimuli/Experimental_stims/faces/justin-chen-J7Cf1Gch49E-unsplash.jpg,0,1,596,1,unchosen,34,20,body_parts,faces,2000,0,3,3
152,47658,0,153,3,3,0,no_gain4,gain3,G,F,47,34,objects,body_parts,55,41,Stimuli/Experimental_stims/objects/ronaldo-arthur-vidal-Cdz_lvnl37k-unsplash.jpg,Stimuli/Experimental_stims/body_parts/wagner-santos-mBWMvIuVnso-unsplash.jpg,0,0,811,1,unchosen,34,47,body_parts,objects,1600,0,3,3
153,47658,0,154,3,3,0,no_gain6,gain5,I,C,10,11,outdoor_scenes,outdoor_scenes,78,71,Stimuli/Experimental_stims/outdoor_scenes/shannon-kunkle-dM8INmkyDas-unsplash.jpg,Stimuli/Experimental_stims/outdoor_scenes/stephen-leonardi-gyIRjKPXupE-unsplash.jpg,0,0,712,1,chosen,11,10,outdoor_scenes,outdoor_scenes,5000,1,3,3
154,47658,0,155,3,3,1,gain5,no_gain5,C,K,35,27,body_parts,body_parts,44,42,Stimuli/Experimental_stims/body_parts/wc-so-KH4AAPjb-tI-unsplash.jpg,Stimuli/Experimental_stims/body_parts/heike-mintel-i_Gns0ELnLw-unsplash.jpg,0,1,917,1,unchosen,35,27,body_parts,body_parts,1500,0,3,3
155,47658,0,156,3,3,0,no_gain4,gain4,G,A,4,7,outdoor_scenes,outdoor_scenes,59,71,Stimuli/Experimental_stims/outdoor_scenes/jarrett-kow-1ZOyYPOBn7I-unsplash.jpg,Stimuli/Experimental_stims/outdoor_scenes/petr-vysohlid-9fqwGqGLUxc-unsplash.jpg,0,1,920,0,chosen,4,7,outdoor_scenes,outdoor_scenes,1800,0,3,3
156,47658,0,157,3,3,0,no_gain6,gain1,I,H,10,5,outdoor_scenes,outdoor_scenes,78,67,Stimuli/Experimental_stims/outdoor_scenes/shannon-kunkle-dM8INmkyDas-unsplash.jpg,Stimuli/Experimental_stims/outdoor_scenes/jeff-king-bJHWJeiHfHc-unsplash.jpg,0,0,1047,1,chosen,5,10,outdoor_scenes,outdoor_scenes,1900,0,3,3
157,47658,0,158,3,3,1,gain6,no_gain5,J,K,23,27,faces,body_parts,62,42,Stimuli/Experimental_stims/faces/rikonavt-HQjfrvdTfak-unsplash.jpg,Stimuli/Experimental_stims/body_parts/heike-mintel-i_Gns0ELnLw-unsplash.jpg,0,1,702,1,unchosen,23,27,faces,body_parts,2000,0,3,3
158,47658,0,159,3,3,1,gain1,no_gain5,H,K,5,39,outdoor_scenes,objects,67,50,Stimuli/Experimental_stims/outdoor_scenes/jeff-king-bJHWJeiHfHc-unsplash.jpg,Stimuli/Experimental_stims/objects/charlesdeluvio-1-nx1QR5dTE-unsplash.jpg,0,1,1035,1,chosen,5,39,outdoor_scenes,objects,1300,0,3,3
159,47658,0,160,3,3,0,no_gain5,gain4,K,A,39,7,objects,outdoor_scenes,50,71,Stimuli/Experimental_stims/objects/charlesdeluvio-1-nx1QR5dTE-unsplash.jpg,Stimuli/Experimental_stims/outdoor_scenes/petr-vysohlid-9fqwGqGLUxc-unsplash.jpg,0,0,906,1,chosen,7,39,outdoor_scenes,objects,2700,0,3,3
160,47658,0,161,3,3,0,no_gain3,gain4,L,A,26,7,body_parts,outdoor_scenes,40,71,Stimuli/Experimental_stims/body_parts/engin-akyurt-x_3gyC42btc-unsplash.jpg,Stimuli/Experimental_stims/outdoor_scenes/petr-vysohlid-9fqwGqGLUxc-unsplash.jpg,0,0,888,1,chosen,7,26,outdoor_scenes,body_parts,1600,0,3,3
161,47658,0,162,3,3,1,gain4,no_gain3,A,L,36,20,objects,faces,59,63,Stimuli/Experimental_stims/objects/alexander-andrews-JYGnB9gTCls-unsplash.jpg,Stimuli/Experimental_stims/faces/justin-chen-J7Cf1Gch49E-unsplash.jpg,0,1,685,1,unchosen,36,20,objects,faces,4000,1,3,3
162,47658,0,163,3,3,0,no_gain1,gain3,D,F,46,19,objects,faces,59,71,Stimuli/Experimental_stims/objects/mockup-graphics-PNsj6RiHAF4-unsplash.jpg,Stimuli/Experimental_stims/faces/joel-mott-LaK153ghdig-unsplash.jpg,0,0,694,1,chosen,19,46,faces,objects,1900,0,3,3
163,47658,0,164,3,3,0,no_gain4,gain5,G,C,47,35,objects,body_parts,55,44,Stimuli/Experimental_stims/objects/ronaldo-arthur-vidal-Cdz_lvnl37k-unsplash.jpg,Stimuli/Experimental_stims/body_parts/wc-so-KH4AAPjb-tI-unsplash.jpg,0,1,810,0,unchosen,47,35,objects,body_parts,1700,0,3,3
164,47658,0,165,3,3,0,no_gain6,gain4,I,A,10,7,outdoor_scenes,outdoor_scenes,78,71,Stimuli/Experimental_stims/outdoor_scenes/shannon-kunkle-dM8INmkyDas-unsplash.jpg,Stimuli/Experimental_stims/outdoor_scenes/petr-vysohlid-9fqwGqGLUxc-unsplash.jpg,0,0,784,1,chosen,7,10,outdoor_scenes,outdoor_scenes,1800,0,3,3
165,47658,0,166,3,3,1,gain5,no_gain3,C,L,11,26,outdoor_scenes,body_parts,71,40,Stimuli/Experimental_stims/outdoor_scenes/stephen-leonardi-gyIRjKPXupE-unsplash.jpg,Stimuli/Experimental_stims/body_parts/engin-akyurt-x_3gyC42btc-unsplash.jpg,0,1,604,1,chosen,11,26,outdoor_scenes,body_parts,1500,0,3,3
166,47658,0,167,3,3,1,gain4,no_gain2,A,B,7,9,outdoor_scenes,outdoor_scenes,71,82,Stimuli/Experimental_stims/outdoor_scenes/petr-vysohlid-9fqwGqGLUxc-unsplash.jpg,Stimuli/Experimental_stims/outdoor_scenes/sergey-pesterev-y-b_FOmJXdg-unsplash.jpg,0,1,882,1,chosen,7,9,outdoor_scenes,outdoor_scenes,2700,0,3,3
167,47658,0,168,3,3,0,no_gain6,gain6,I,J,32,23,body_parts,faces,37,62,Stimuli/Experimental_stims/body_parts/towfiqu-barbhuiya-3AsiVDsZnHg-unsplash.jpg,Stimuli/Experimental_stims/faces/rikonavt-HQjfrvdTfak-unsplash.jpg,0,1,648,0,unchosen,32,23,body_parts,faces,3600,1,3,3
168,47658,0,169,3,3,0,no_gain2,gain6,B,J,9,45,outdoor_scenes,objects,82,62,Stimuli/Experimental_stims/outdoor_scenes/sergey-pesterev-y-b_FOmJXdg-unsplash.jpg,Stimuli/Experimental_stims/objects/leohoho-rngTKHXumy0-unsplash.jpg,0,0,805,1,chosen,45,9,objects,outdoor_scenes,2100,0,3,3
169,47658,0,170,3,3,1,gain5,no_gain6,C,I,35,32,body_parts,body_parts,44,37,Stimuli/Experimental_stims/body_parts/wc-so-KH4AAPjb-tI-unsplash.jpg,Stimuli/Experimental_stims/body_parts/towfiqu-barbhuiya-3AsiVDsZnHg-unsplash.jpg,0,0,790,0,unchosen,32,35,body_parts,body_parts,2300,0,3,3
170,47658,0,171,3,3,1,gain1,no_gain3,H,L,12,20,faces,faces,63,63,Stimuli/Experimental_stims/faces/aiony-haust-jmATI5Q_YgY-unsplash.jpg,Stimuli/Experimental_stims/faces/justin-chen-J7Cf1Gch49E-unsplash.jpg,0,1,753,1,unchosen,12,20,faces,faces,1400,0,3,3
171,47658,0,172,3,3,1,gain3,no_gain3,F,L,19,26,faces,body_parts,71,40,Stimuli/Experimental_stims/faces/joel-mott-LaK153ghdig-unsplash.jpg,Stimuli/Experimental_stims/body_parts/engin-akyurt-x_3gyC42btc-unsplash.jpg,0,1,572,1,chosen,19,26,faces,body_parts,1200,0,3,3
172,47658,0,173,3,3,1,gain2,no_gain6,E,I,31,10,body_parts,outdoor_scenes,36,78,Stimuli/Experimental_stims/body_parts/sincerely-media-VN6DbKajo5s-unsplash.jpg,Stimuli/Experimental_stims/outdoor_scenes/shannon-kunkle-dM8INmkyDas-unsplash.jpg,0,0,859,0,chosen,10,31,outdoor_scenes,body_parts,1900,0,3,3
173,47658,0,174,3,3,0,no_gain2,gain4,B,A,14,36,faces,objects,42,59,Stimuli/Experimental_stims/faces/david-siglin-UuW4psOb388-unsplash.jpg,Stimuli/Experimental_stims/objects/alexander-andrews-JYGnB9gTCls-unsplash.jpg,0,0,905,1,unchosen,36,14,objects,faces,1800,0,3,3
174,47658,0,175,3,3,1,gain6,no_gain6,J,I,45,10,objects,outdoor_scenes,62,78,Stimuli/Experimental_stims/objects/leohoho-rngTKHXumy0-unsplash.jpg,Stimuli/Experimental_stims/outdoor_scenes/shannon-kunkle-dM8INmkyDas-unsplash.jpg,0,1,669,1,chosen,45,10,objects,outdoor_scenes,4100,1,3,3
175,47658,0,176,3,3,0,no_gain5,gain6,K,J,39,45,objects,objects,50,62,Stimuli/Experimental_stims/objects/charlesdeluvio-1-nx1QR5dTE-unsplash.jpg,Stimuli/Experimental_stims/objects/leohoho-rngTKHXumy0-unsplash.jpg,0,0,656,1,chosen,45,39,objects,objects,1400,0,3,3
176,47658,0,177,3,3,0,no_gain2,gain6,B,J,14,23,faces,faces,42,62,Stimuli/Experimental_stims/faces/david-siglin-UuW4psOb388-unsplash.jpg,Stimuli/Experimental_stims/faces/rikonavt-HQjfrvdTfak-unsplash.jpg,0,0,772,1,unchosen,23,14,faces,faces,2200,0,3,3
177,47658,0,178,3,3,1,gain1,no_gain2,H,B,12,14,faces,faces,63,42,Stimuli/Experimental_stims/faces/aiony-haust-jmATI5Q_YgY-unsplash.jpg,Stimuli/Experimental_stims/faces/david-siglin-UuW4psOb388-unsplash.jpg,0,1,606,1,unchosen,12,14,faces,faces,1400,0,3,3
178,47658,0,179,3,3,1,gain3,no_gain2,F,B,19,9,faces,outdoor_scenes,71,82,Stimuli/Experimental_stims/faces/joel-mott-LaK153ghdig-unsplash.jpg,Stimuli/Experimental_stims/outdoor_scenes/sergey-pesterev-y-b_FOmJXdg-unsplash.jpg,0,1,572,1,chosen,19,9,faces,outdoor_scenes,1100,0,3,3
179,47658,0,180,3,3,1,gain4,no_gain1,A,D,7,46,outdoor_scenes,objects,71,59,Stimuli/Experimental_stims/outdoor_scenes/petr-vysohlid-9fqwGqGLUxc-unsplash.jpg,Stimuli/Experimental_stims/objects/mockup-graphics-PNsj6RiHAF4-unsplash.jpg,0,0,829,0,chosen,46,7,objects,outdoor_scenes,1400,0,3,3
180,47658,0,181,3,3,1,gain1,no_gain4,H,G,12,47,faces,objects,63,55,Stimuli/Experimental_stims/faces/aiony-haust-jmATI5Q_YgY-unsplash.jpg,Stimuli/Experimental_stims/objects/ronaldo-arthur-vidal-Cdz_lvnl37k-unsplash.jpg,0,1,667,1,unchosen,12,47,faces,objects,1700,0,3,3
181,47658,0,182,3,3,1,gain1,no_gain4,H,G,5,4,outdoor_scenes,outdoor_scenes,67,59,Stimuli/Experimental_stims/outdoor_scenes/jeff-king-bJHWJeiHfHc-unsplash.jpg,Stimuli/Experimental_stims/outdoor_scenes/jarrett-kow-1ZOyYPOBn7I-unsplash.jpg,0,0,713,0,chosen,4,5,outdoor_scenes,outdoor_scenes,3400,1,3,3
182,47658,0,183,3,3,1,gain3,no_gain5,F,K,19,39,faces,objects,71,50,Stimuli/Experimental_stims/faces/joel-mott-LaK153ghdig-unsplash.jpg,Stimuli/Experimental_stims/objects/charlesdeluvio-1-nx1QR5dTE-unsplash.jpg,0,1,547,1,chosen,19,39,faces,objects,1000,0,3,3
183,47658,0,184,3,3,1,gain1,no_gain6,H,I,12,32,faces,body_parts,63,37,Stimuli/Experimental_stims/faces/aiony-haust-jmATI5Q_YgY-unsplash.jpg,Stimuli/Experimental_stims/body_parts/towfiqu-barbhuiya-3AsiVDsZnHg-unsplash.jpg,0,1,823,1,unchosen,12,32,faces,body_parts,1200,0,3,3
184,47658,0,185,3,3,0,no_gain5,gain4,K,A,27,36,body_parts,objects,42,59,Stimuli/Experimental_stims/body_parts/heike-mintel-i_Gns0ELnLw-unsplash.jpg,Stimuli/Experimental_stims/objects/alexander-andrews-JYGnB9gTCls-unsplash.jpg,0,0,748,1,unchosen,36,27,objects,body_parts,1200,0,3,3
185,47658,0,186,3,3,0,no_gain1,gain2,D,E,46,31,objects,body_parts,59,36,Stimuli/Experimental_stims/objects/mockup-graphics-PNsj6RiHAF4-unsplash.jpg,Stimuli/Experimental_stims/body_parts/sincerely-media-VN6DbKajo5s-unsplash.jpg,0,1,677,0,chosen,46,31,objects,body_parts,2800,0,3,3
186,47658,0,187,3,3,0,no_gain1,gain4,D,A,21,36,faces,objects,50,59,Stimuli/Experimental_stims/faces/leilani-angel-K84vnnzxmTQ-unsplash.jpg,Stimuli/Experimental_stims/objects/alexander-andrews-JYGnB9gTCls-unsplash.jpg,0,0,699,1,unchosen,36,21,objects,faces,1200,0,3,3
187,47658,0,188,3,3,0,no_gain6,gain3,I,F,10,19,outdoor_scenes,faces,78,71,Stimuli/Experimental_stims/outdoor_scenes/shannon-kunkle-dM8INmkyDas-unsplash.jpg,Stimuli/Experimental_stims/faces/joel-mott-LaK153ghdig-unsplash.jpg,0,0,572,1,chosen,19,10,faces,outdoor_scenes,1200,0,3,3
188,47658,0,189,3,3,1,gain2,no_gain2,E,B,31,9,body_parts,outdoor_scenes,36,82,Stimuli/Experimental_stims/body_parts/sincerely-media-VN6DbKajo5s-unsplash.jpg,Stimuli/Experimental_stims/outdoor_scenes/sergey-pesterev-y-b_FOmJXdg-unsplash.jpg,0,1,820,1,chosen,31,9,body_parts,outdoor_scenes,2100,0,3,3
189,47658,0,190,3,3,1,gain2,no_gain6,E,I,44,32,objects,body_parts,27,37,Stimuli/Experimental_stims/objects/kuiye-chen-NuOGFo4PudE-unsplash.jpg,Stimuli/Experimental_stims/body_parts/towfiqu-barbhuiya-3AsiVDsZnHg-unsplash.jpg,0,0,688,0,unchosen,32,44,body_parts,objects,3800,1,3,3
190,47658,0,191,3,3,0,no_gain3,gain2,L,E,26,31,body_parts,body_parts,40,36,Stimuli/Experimental_stims/body_parts/engin-akyurt-x_3gyC42btc-unsplash.jpg,Stimuli/Experimental_stims/body_parts/sincerely-media-VN6DbKajo5s-unsplash.jpg,0,0,883,1,chosen,31,26,body_parts,body_parts,2200,0,3,3
191,47658,0,192,3,3,1,gain4,no_gain4,A,G,36,47,objects,objects,59,55,Stimuli/Experimental_stims/objects/alexander-andrews-JYGnB9gTCls-unsplash.jpg,Stimuli/Experimental_stims/objects/ronaldo-arthur-vidal-Cdz_lvnl37k-unsplash.jpg,0,0,750,0,unchosen,47,36,objects,objects,2500,0,3,3
192,47658,0,193,3,3,1,gain2,no_gain5,E,K,31,39,body_parts,objects,36,50,Stimuli/Experimental_stims/body_parts/sincerely-media-VN6DbKajo5s-unsplash.jpg,Stimuli/Experimental_stims/objects/charlesdeluvio-1-nx1QR5dTE-unsplash.jpg,0,0,846,0,chosen,39,31,objects,body_parts,1100,0,3,3
193,47658,0,194,3,3,1,gain3,no_gain1,F,D,34,21,body_parts,faces,41,50,Stimuli/Experimental_stims/body_parts/wagner-santos-mBWMvIuVnso-unsplash.jpg,Stimuli/Experimental_stims/faces/leilani-angel-K84vnnzxmTQ-unsplash.jpg,0,1,625,1,unchosen,34,21,body_parts,faces,1800,0,3,3
194,47658,0,195,3,3,1,gain3,no_gain6,F,I,34,32,body_parts,body_parts,41,37,Stimuli/Experimental_stims/body_parts/wagner-santos-mBWMvIuVnso-unsplash.jpg,Stimuli/Experimental_stims/body_parts/towfiqu-barbhuiya-3AsiVDsZnHg-unsplash.jpg,0,1,540,1,unchosen,34,32,body_parts,body_parts,3600,1,3,3
195,47658,0,196,3,3,1,gain4,no_gain6,A,I,36,32,objects,body_parts,59,37,Stimuli/Experimental_stims/objects/alexander-andrews-JYGnB9gTCls-unsplash.jpg,Stimuli/Experimental_stims/body_parts/towfiqu-barbhuiya-3AsiVDsZnHg-unsplash.jpg,0,1,814,1,unchosen,36,32,objects,body_parts,2400,0,3,3
196,47658,0,197,3,3,1,gain1,no_gain1,H,D,5,46,outdoor_scenes,objects,67,59,Stimuli/Experimental_stims/outdoor_scenes/jeff-king-bJHWJeiHfHc-unsplash.jpg,Stimuli/Experimental_stims/objects/mockup-graphics-PNsj6RiHAF4-unsplash.jpg,0,1,564,1,chosen,5,46,outdoor_scenes,objects,2400,0,3,3
197,47658,0,198,3,3,0,no_gain3,gain2,L,E,20,44,faces,objects,63,27,Stimuli/Experimental_stims/faces/justin-chen-J7Cf1Gch49E-unsplash.jpg,Stimuli/Experimental_stims/objects/kuiye-chen-NuOGFo4PudE-unsplash.jpg,0,0,764,1,unchosen,44,20,objects,faces,2200,0,3,3
198,47658,0,199,3,3,1,gain1,no_gain2,H,B,5,9,outdoor_scenes,outdoor_scenes,67,82,Stimuli/Experimental_stims/outdoor_scenes/jeff-king-bJHWJeiHfHc-unsplash.jpg,Stimuli/Experimental_stims/outdoor_scenes/sergey-pesterev-y-b_FOmJXdg-unsplash.jpg,0,1,812,1,chosen,5,9,outdoor_scenes,outdoor_scenes,2800,0,3,3
199,47658,0,200,3,3,0,no_gain2,gain3,B,F,14,34,faces,body_parts,42,41,Stimuli/Experimental_stims/faces/david-siglin-UuW4psOb388-unsplash.jpg,Stimuli/Experimental_stims/body_parts/wagner-santos-mBWMvIuVnso-unsplash.jpg,0,0,700,1,unchosen,34,14,body_parts,faces,1700,0,3,3
200,47658,0,201,3,3,0,no_gain1,gain6,D,J,21,23,faces,faces,50,62,Stimuli/Experimental_stims/faces/leilani-angel-K84vnnzxmTQ-unsplash.jpg,Stimuli/Experimental_stims/faces/rikonavt-HQjfrvdTfak-unsplash.jpg,0,0,742,1,unchosen,23,21,faces,faces,1100,0,3,3
201,47658,0,202,3,3,0,no_gain4,gain3,G,F,4,19,outdoor_scenes,faces,59,71,Stimuli/Experimental_stims/outdoor_scenes/jarrett-kow-1ZOyYPOBn7I-unsplash.jpg,Stimuli/Experimental_stims/faces/joel-mott-LaK153ghdig-unsplash.jpg,0,0,825,1,chosen,19,4,faces,outdoor_scenes,1200,0,3,3
202,47658,0,203,3,3,0,no_gain3,gain5,L,C,20,35,faces,body_parts,63,44,Stimuli/Experimental_stims/faces/justin-chen-J7Cf1Gch49E-unsplash.jpg,Stimuli/Experimental_stims/body_parts/wc-so-KH4AAPjb-tI-unsplash.jpg,0,0,1013,1,unchosen,35,20,body_parts,faces,2700,0,3,3
203,47658,0,204,3,3,0,no_gain1,gain1,D,H,21,12,faces,faces,50,63,Stimuli/Experimental_stims/faces/leilani-angel-K84vnnzxmTQ-unsplash.jpg,Stimuli/Experimental_stims/faces/aiony-haust-jmATI5Q_YgY-unsplash.jpg,0,0,672,1,unchosen,12,21,faces,faces,1100,0,3,3
204,47658,0,205,3,3,1,gain5,no_gain5,C,K,11,39,outdoor_scenes,objects,71,50,Stimuli/Experimental_stims/outdoor_scenes/stephen-leonardi-gyIRjKPXupE-unsplash.jpg,Stimuli/Experimental_stims/objects/charlesdeluvio-1-nx1QR5dTE-unsplash.jpg,0,1,663,1,chosen,11,39,outdoor_scenes,objects,1100,0,3,3
205,47658,0,206,3,3,0,no_gain4,gain6,G,J,4,45,outdoor_scenes,objects,59,62,Stimuli/Experimental_stims/outdoor_scenes/jarrett-kow-1ZOyYPOBn7I-unsplash.jpg,Stimuli/Experimental_stims/objects/leohoho-rngTKHXumy0-unsplash.jpg,0,0,711,1,chosen,45,4,objects,outdoor_scenes,1500,0,3,3
206,47658,0,207,3,3,0,no_gain5,gain3,K,F,27,34,body_parts,body_parts,42,41,Stimuli/Experimental_stims/body_parts/heike-mintel-i_Gns0ELnLw-unsplash.jpg,Stimuli/Experimental_stims/body_parts/wagner-santos-mBWMvIuVnso-unsplash.jpg,0,0,641,1,unchosen,34,27,body_parts,body_parts,1600,0,3,3
207,47658,0,208,3,3,0,no_gain1,gain5,D,C,46,11,objects,outdoor_scenes,59,71,Stimuli/Experimental_stims/objects/mockup-graphics-PNsj6RiHAF4-unsplash.jpg,Stimuli/Experimental_stims/outdoor_scenes/stephen-leonardi-gyIRjKPXupE-unsplash.jpg,0,0,590,1,chosen,11,46,outdoor_scenes,objects,1500,0,3,3
208,47658,0,209,3,3,1,gain1,no_gain3,H,L,5,26,outdoor_scenes,body_parts,67,40,Stimuli/Experimental_stims/outdoor_scenes/jeff-king-bJHWJeiHfHc-unsplash.jpg,Stimuli/Experimental_stims/body_parts/engin-akyurt-x_3gyC42btc-unsplash.jpg,0,1,696,1,chosen,5,26,outdoor_scenes,body_parts,2800,0,3,3
209,47658,0,210,3,3,1,gain6,no_gain3,J,L,45,26,objects,body_parts,62,40,Stimuli/Experimental_stims/objects/leohoho-rngTKHXumy0-unsplash.jpg,Stimuli/Experimental_stims/body_parts/engin-akyurt-x_3gyC42btc-unsplash.jpg,0,1,765,1,chosen,45,26,objects,body_parts,3400,1,3,3
210,47658,0,211,3,3,1,gain2,no_gain4,E,G,44,47,objects,objects,27,55,Stimuli/Experimental_stims/objects/kuiye-chen-NuOGFo4PudE-unsplash.jpg,Stimuli/Experimental_stims/objects/ronaldo-arthur-vidal-Cdz_lvnl37k-unsplash.jpg,0,0,724,0,unchosen,47,44,objects,objects,1500,0,3,3
211,47658,0,212,3,3,1,gain2,no_gain2,E,B,44,14,objects,faces,27,42,Stimuli/Experimental_stims/objects/kuiye-chen-NuOGFo4PudE-unsplash.jpg,Stimuli/Experimental_stims/faces/david-siglin-UuW4psOb388-unsplash.jpg,0,1,721,1,unchosen,44,14,objects,faces,1500,0,3,3
212,47658,0,213,3,3,1,gain6,no_gain1,J,D,45,46,objects,objects,62,59,Stimuli/Experimental_stims/objects/leohoho-rngTKHXumy0-unsplash.jpg,Stimuli/Experimental_stims/objects/mockup-graphics-PNsj6RiHAF4-unsplash.jpg,0,1,594,1,chosen,45,46,objects,objects,1500,0,3,3
213,47658,0,214,3,3,0,no_gain5,gain2,K,E,27,44,body_parts,objects,42,27,Stimuli/Experimental_stims/body_parts/heike-mintel-i_Gns0ELnLw-unsplash.jpg,Stimuli/Experimental_stims/objects/kuiye-chen-NuOGFo4PudE-unsplash.jpg,0,0,897,1,unchosen,44,27,objects,body_parts,1200,0,3,3
214,47658,0,215,3,3,0,no_gain4,gain5,G,C,4,11,outdoor_scenes,outdoor_scenes,59,71,Stimuli/Experimental_stims/outdoor_scenes/jarrett-kow-1ZOyYPOBn7I-unsplash.jpg,Stimuli/Experimental_stims/outdoor_scenes/stephen-leonardi-gyIRjKPXupE-unsplash.jpg,0,0,724,1,chosen,11,4,outdoor_scenes,outdoor_scenes,1900,0,3,3
215,47658,0,216,3,3,1,gain6,no_gain4,J,G,23,47,faces,objects,62,55,Stimuli/Experimental_stims/faces/rikonavt-HQjfrvdTfak-unsplash.jpg,Stimuli/Experimental_stims/objects/ronaldo-arthur-vidal-Cdz_lvnl37k-unsplash.jpg,0,1,617,1,unchosen,23,47,faces,objects,3600,1,3,3
216,47658,0,217,3,3,0,no_gain2,gain5,B,C,14,35,faces,body_parts,42,44,Stimuli/Experimental_stims/faces/david-siglin-UuW4psOb388-unsplash.jpg,Stimuli/Experimental_stims/body_parts/wc-so-KH4AAPjb-tI-unsplash.jpg,0,1,994,0,unchosen,14,35,faces,body_parts,2500,0,3,3
217,47658,0,218,3,3,0,no_gain4,gain2,G,E,4,31,outdoor_scenes,body_parts,59,36,Stimuli/Experimental_stims/outdoor_scenes/jarrett-kow-1ZOyYPOBn7I-unsplash.jpg,Stimuli/Experimental_stims/body_parts/sincerely-media-VN6DbKajo5s-unsplash.jpg,0,0,641,1,chosen,31,4,body_parts,outdoor_scenes,1600,0,3,3
218,47658,0,219,3,3,1,gain6,no_gain3,J,L,23,20,faces,faces,62,63,Stimuli/Experimental_stims/faces/rikonavt-HQjfrvdTfak-unsplash.jpg,Stimuli/Experimental_stims/faces/justin-chen-J7Cf1Gch49E-unsplash.jpg,0,1,729,1,unchosen,23,20,faces,faces,1200,0,3,3
219,47658,0,220,3,3,0,no_gain1,gain5,D,C,21,35,faces,body_parts,50,44,Stimuli/Experimental_stims/faces/leilani-angel-K84vnnzxmTQ-unsplash.jpg,Stimuli/Experimental_stims/body_parts/wc-so-KH4AAPjb-tI-unsplash.jpg,0,0,659,1,unchosen,35,21,body_parts,faces,1300,0,3,3
220,47658,0,221,4,4,0,no_gain6,gain5,I,C,32,35,body_parts,body_parts,37,44,Stimuli/Experimental_stims/body_parts/towfiqu-barbhuiya-3AsiVDsZnHg-unsplash.jpg,Stimuli/Experimental_stims/body_parts/wc-so-KH4AAPjb-tI-unsplash.jpg,0,0,763,1,unchosen,35,32,body_parts,body_parts,3300,1,1,3
221,47658,0,222,4,4,0,no_gain4,gain5,G,C,47,35,objects,body_parts,55,44,Stimuli/Experimental_stims/objects/ronaldo-arthur-vidal-Cdz_lvnl37k-unsplash.jpg,Stimuli/Experimental_stims/body_parts/wc-so-KH4AAPjb-tI-unsplash.jpg,0,1,705,0,unchosen,47,35,objects,body_parts,1400,0,1,3
222,47658,0,223,4,4,1,gain5,no_gain5,C,K,11,39,outdoor_scenes,objects,71,50,Stimuli/Experimental_stims/outdoor_scenes/stephen-leonardi-gyIRjKPXupE-unsplash.jpg,Stimuli/Experimental_stims/objects/charlesdeluvio-1-nx1QR5dTE-unsplash.jpg,0,1,541,1,chosen,11,39,outdoor_scenes,objects,2400,0,1,3
223,47658,0,224,4,4,0,no_gain3,gain4,L,A,26,7,body_parts,outdoor_scenes,40,71,Stimuli/Experimental_stims/body_parts/engin-akyurt-x_3gyC42btc-unsplash.jpg,Stimuli/Experimental_stims/outdoor_scenes/petr-vysohlid-9fqwGqGLUxc-unsplash.jpg,0,0,858,1,chosen,7,26,outdoor_scenes,body_parts,1200,0,1,3
224,47658,0,225,4,4,1,gain4,no_gain1,A,D,36,21,objects,faces,59,50,Stimuli/Experimental_stims/objects/alexander-andrews-JYGnB9gTCls-unsplash.jpg,Stimuli/Experimental_stims/faces/leilani-angel-K84vnnzxmTQ-unsplash.jpg,0,1,835,1,unchosen,36,21,objects,faces,1100,0,1,3
225,47658,0,226,4,4,0,no_gain1,gain1,D,H,21,12,faces,faces,50,63,Stimuli/Experimental_stims/faces/leilani-angel-K84vnnzxmTQ-unsplash.jpg,Stimuli/Experimental_stims/faces/aiony-haust-jmATI5Q_YgY-unsplash.jpg,0,0,663,1,unchosen,12,21,faces,faces,1600,0,1,3
226,47658,0,227,4,4,1,gain6,no_gain3,J,L,23,20,faces,faces,62,63,Stimuli/Experimental_stims/faces/rikonavt-HQjfrvdTfak-unsplash.jpg,Stimuli/Experimental_stims/faces/justin-chen-J7Cf1Gch49E-unsplash.jpg,0,1,828,1,unchosen,23,20,faces,faces,3100,1,1,3
227,47658,0,228,4,4,0,no_gain2,gain4,B,A,9,7,outdoor_scenes,outdoor_scenes,82,71,Stimuli/Experimental_stims/outdoor_scenes/sergey-pesterev-y-b_FOmJXdg-unsplash.jpg,Stimuli/Experimental_stims/outdoor_scenes/petr-vysohlid-9fqwGqGLUxc-unsplash.jpg,0,0,881,1,chosen,7,9,outdoor_scenes,outdoor_scenes,1000,0,1,3
228,47658,0,229,4,4,1,gain6,no_gain5,J,K,45,39,objects,objects,62,50,Stimuli/Experimental_stims/objects/leohoho-rngTKHXumy0-unsplash.jpg,Stimuli/Experimental_stims/objects/charlesdeluvio-1-nx1QR5dTE-unsplash.jpg,0,1,634,1,chosen,45,39,objects,objects,3000,0,1,3
229,47658,0,230,4,4,0,no_gain4,gain5,G,C,4,11,outdoor_scenes,outdoor_scenes,59,71,Stimuli/Experimental_stims/outdoor_scenes/jarrett-kow-1ZOyYPOBn7I-unsplash.jpg,Stimuli/Experimental_stims/outdoor_scenes/stephen-leonardi-gyIRjKPXupE-unsplash.jpg,0,0,709,1,chosen,11,4,outdoor_scenes,outdoor_scenes,1700,0,1,3
230,47658,0,231,4,4,1,gain1,no_gain4,H,G,12,47,faces,objects,63,55,Stimuli/Experimental_stims/faces/aiony-haust-jmATI5Q_YgY-unsplash.jpg,Stimuli/Experimental_stims/objects/ronaldo-arthur-vidal-Cdz_lvnl37k-unsplash.jpg,0,0,743,0,unchosen,47,12,objects,faces,2400,0,1,3
231,47658,0,232,4,4,0,no_gain6,gain2,I,E,10,31,outdoor_scenes,body_parts,78,36,Stimuli/Experimental_stims/outdoor_scenes/shannon-kunkle-dM8INmkyDas-unsplash.jpg,Stimuli/Experimental_stims/body_parts/sincerely-media-VN6DbKajo5s-unsplash.jpg,0,1,559,0,chosen,10,31,outdoor_scenes,body_parts,4000,1,1,3
232,47658,0,233,4,4,0,no_gain6,gain1,I,H,32,12,body_parts,faces,37,63,Stimuli/Experimental_stims/body_parts/towfiqu-barbhuiya-3AsiVDsZnHg-unsplash.jpg,Stimuli/Experimental_stims/faces/aiony-haust-jmATI5Q_YgY-unsplash.jpg,0,0,713,1,unchosen,12,32,faces,body_parts,1900,0,1,3
233,47658,0,234,4,4,1,gain3,no_gain4,F,G,19,4,faces,outdoor_scenes,71,59,Stimuli/Experimental_stims/faces/joel-mott-LaK153ghdig-unsplash.jpg,Stimuli/Experimental_stims/outdoor_scenes/jarrett-kow-1ZOyYPOBn7I-unsplash.jpg,0,1,561,1,chosen,19,4,faces,outdoor_scenes,1100,0,1,3
234,47658,0,235,4,4,1,gain5,no_gain1,C,D,35,21,body_parts,faces,44,50,Stimuli/Experimental_stims/body_parts/wc-so-KH4AAPjb-tI-unsplash.jpg,Stimuli/Experimental_stims/faces/leilani-angel-K84vnnzxmTQ-unsplash.jpg,0,0,864,0,unchosen,21,35,faces,body_parts,1300,0,1,3
235,47658,0,236,4,4,0,no_gain4,gain4,G,A,4,7,outdoor_scenes,outdoor_scenes,59,71,Stimuli/Experimental_stims/outdoor_scenes/jarrett-kow-1ZOyYPOBn7I-unsplash.jpg,Stimuli/Experimental_stims/outdoor_scenes/petr-vysohlid-9fqwGqGLUxc-unsplash.jpg,0,0,696,1,chosen,7,4,outdoor_scenes,outdoor_scenes,1900,0,1,3
236,47658,0,237,4,4,1,gain4,no_gain4,A,G,36,47,objects,objects,59,55,Stimuli/Experimental_stims/objects/alexander-andrews-JYGnB9gTCls-unsplash.jpg,Stimuli/Experimental_stims/objects/ronaldo-arthur-vidal-Cdz_lvnl37k-unsplash.jpg,0,0,665,0,unchosen,47,36,objects,objects,1800,0,1,3
237,47658,0,238,4,4,1,gain4,no_gain5,A,K,36,27,objects,body_parts,59,42,Stimuli/Experimental_stims/objects/alexander-andrews-JYGnB9gTCls-unsplash.jpg,Stimuli/Experimental_stims/body_parts/heike-mintel-i_Gns0ELnLw-unsplash.jpg,0,1,828,1,unchosen,36,27,objects,body_parts,4300,1,1,3
238,47658,0,239,4,4,1,gain5,no_gain5,C,K,35,27,body_parts,body_parts,44,42,Stimuli/Experimental_stims/body_parts/wc-so-KH4AAPjb-tI-unsplash.jpg,Stimuli/Experimental_stims/body_parts/heike-mintel-i_Gns0ELnLw-unsplash.jpg,0,1,1129,1,unchosen,35,27,body_parts,body_parts,2300,0,1,3
239,47658,0,240,4,4,1,gain3,no_gain2,F,B,19,9,faces,outdoor_scenes,71,82,Stimuli/Experimental_stims/faces/joel-mott-LaK153ghdig-unsplash.jpg,Stimuli/Experimental_stims/outdoor_scenes/sergey-pesterev-y-b_FOmJXdg-unsplash.jpg,0,1,568,1,chosen,19,9,faces,outdoor_scenes,1200,0,1,3
240,47658,0,241,4,4,0,no_gain4,gain2,G,E,4,31,outdoor_scenes,body_parts,59,36,Stimuli/Experimental_stims/outdoor_scenes/jarrett-kow-1ZOyYPOBn7I-unsplash.jpg,Stimuli/Experimental_stims/body_parts/sincerely-media-VN6DbKajo5s-unsplash.jpg,0,0,716,1,chosen,31,4,body_parts,outdoor_scenes,1300,0,1,3
241,47658,0,242,4,4,0,no_gain3,gain1,L,H,20,12,faces,faces,63,63,Stimuli/Experimental_stims/faces/justin-chen-J7Cf1Gch49E-unsplash.jpg,Stimuli/Experimental_stims/faces/aiony-haust-jmATI5Q_YgY-unsplash.jpg,0,0,1080,1,unchosen,12,20,faces,faces,1900,0,1,3
242,47658,0,243,4,4,1,gain3,no_gain6,F,I,34,32,body_parts,body_parts,41,37,Stimuli/Experimental_stims/body_parts/wagner-santos-mBWMvIuVnso-unsplash.jpg,Stimuli/Experimental_stims/body_parts/towfiqu-barbhuiya-3AsiVDsZnHg-unsplash.jpg,0,1,607,1,unchosen,34,32,body_parts,body_parts,1300,0,1,3
243,47658,0,244,4,4,1,gain4,no_gain1,A,D,7,46,outdoor_scenes,objects,71,59,Stimuli/Experimental_stims/outdoor_scenes/petr-vysohlid-9fqwGqGLUxc-unsplash.jpg,Stimuli/Experimental_stims/objects/mockup-graphics-PNsj6RiHAF4-unsplash.jpg,0,1,1080,1,chosen,7,46,outdoor_scenes,objects,4200,1,1,3
244,47658,0,245,4,4,0,no_gain2,gain5,B,C,14,35,faces,body_parts,42,44,Stimuli/Experimental_stims/faces/david-siglin-UuW4psOb388-unsplash.jpg,Stimuli/Experimental_stims/body_parts/wc-so-KH4AAPjb-tI-unsplash.jpg,0,1,1012,0,unchosen,14,35,faces,body_parts,2400,0,1,3
245,47658,0,246,4,4,1,gain2,no_gain2,E,B,31,9,body_parts,outdoor_scenes,36,82,Stimuli/Experimental_stims/body_parts/sincerely-media-VN6DbKajo5s-unsplash.jpg,Stimuli/Experimental_stims/outdoor_scenes/sergey-pesterev-y-b_FOmJXdg-unsplash.jpg,0,1,811,1,chosen,31,9,body_parts,outdoor_scenes,1700,0,1,3
246,47658,0,247,4,4,0,no_gain1,gain5,D,C,46,11,objects,outdoor_scenes,59,71,Stimuli/Experimental_stims/objects/mockup-graphics-PNsj6RiHAF4-unsplash.jpg,Stimuli/Experimental_stims/outdoor_scenes/stephen-leonardi-gyIRjKPXupE-unsplash.jpg,0,0,719,1,chosen,11,46,outdoor_scenes,objects,1600,0,1,3
247,47658,0,248,4,4,1,gain3,no_gain5,F,K,34,27,body_parts,body_parts,41,42,Stimuli/Experimental_stims/body_parts/wagner-santos-mBWMvIuVnso-unsplash.jpg,Stimuli/Experimental_stims/body_parts/heike-mintel-i_Gns0ELnLw-unsplash.jpg,0,1,572,1,unchosen,34,27,body_parts,body_parts,1100,0,1,3
248,47658,0,249,4,4,0,no_gain2,gain1,B,H,14,12,faces,faces,42,63,Stimuli/Experimental_stims/faces/david-siglin-UuW4psOb388-unsplash.jpg,Stimuli/Experimental_stims/faces/aiony-haust-jmATI5Q_YgY-unsplash.jpg,0,0,712,1,unchosen,12,14,faces,faces,1200,0,1,3
249,47658,0,250,4,4,1,gain6,no_gain3,J,L,45,26,objects,body_parts,62,40,Stimuli/Experimental_stims/objects/leohoho-rngTKHXumy0-unsplash.jpg,Stimuli/Experimental_stims/body_parts/engin-akyurt-x_3gyC42btc-unsplash.jpg,0,1,652,1,chosen,45,26,objects,body_parts,3100,1,1,3
250,47658,0,251,4,4,1,gain3,no_gain6,F,I,19,10,faces,outdoor_scenes,71,78,Stimuli/Experimental_stims/faces/joel-mott-LaK153ghdig-unsplash.jpg,Stimuli/Experimental_stims/outdoor_scenes/shannon-kunkle-dM8INmkyDas-unsplash.jpg,0,1,626,1,chosen,19,10,faces,outdoor_scenes,2600,0,1,3
251,47658,0,252,4,4,0,no_gain1,gain6,D,J,21,23,faces,faces,50,62,Stimuli/Experimental_stims/faces/leilani-angel-K84vnnzxmTQ-unsplash.jpg,Stimuli/Experimental_stims/faces/rikonavt-HQjfrvdTfak-unsplash.jpg,0,0,709,1,unchosen,23,21,faces,faces,2400,0,1,3
252,47658,0,253,4,4,1,gain2,no_gain3,E,L,44,20,objects,faces,27,63,Stimuli/Experimental_stims/objects/kuiye-chen-NuOGFo4PudE-unsplash.jpg,Stimuli/Experimental_stims/faces/justin-chen-J7Cf1Gch49E-unsplash.jpg,0,1,1038,1,unchosen,44,20,objects,faces,1000,0,1,3
253,47658,0,254,4,4,0,no_gain6,gain4,I,A,10,7,outdoor_scenes,outdoor_scenes,78,71,Stimuli/Experimental_stims/outdoor_scenes/shannon-kunkle-dM8INmkyDas-unsplash.jpg,Stimuli/Experimental_stims/outdoor_scenes/petr-vysohlid-9fqwGqGLUxc-unsplash.jpg,0,0,1235,1,chosen,7,10,outdoor_scenes,outdoor_scenes,3000,0,1,3
254,47658,0,255,4,4,0,no_gain4,gain1,G,H,4,5,outdoor_scenes,outdoor_scenes,59,67,Stimuli/Experimental_stims/outdoor_scenes/jarrett-kow-1ZOyYPOBn7I-unsplash.jpg,Stimuli/Experimental_stims/outdoor_scenes/jeff-king-bJHWJeiHfHc-unsplash.jpg,0,0,708,1,chosen,5,4,outdoor_scenes,outdoor_scenes,2400,0,1,3
255,47658,0,256,4,4,0,no_gain2,gain3,B,F,14,34,faces,body_parts,42,41,Stimuli/Experimental_stims/faces/david-siglin-UuW4psOb388-unsplash.jpg,Stimuli/Experimental_stims/body_parts/wagner-santos-mBWMvIuVnso-unsplash.jpg,0,0,604,1,unchosen,34,14,body_parts,faces,2300,0,1,3
256,47658,0,257,4,4,1,gain3,no_gain3,F,L,19,26,faces,body_parts,71,40,Stimuli/Experimental_stims/faces/joel-mott-LaK153ghdig-unsplash.jpg,Stimuli/Experimental_stims/body_parts/engin-akyurt-x_3gyC42btc-unsplash.jpg,0,1,528,1,chosen,19,26,faces,body_parts,1900,0,1,3
257,47658,0,258,4,4,1,gain4,no_gain2,A,B,36,14,objects,faces,59,42,Stimuli/Experimental_stims/objects/alexander-andrews-JYGnB9gTCls-unsplash.jpg,Stimuli/Experimental_stims/faces/david-siglin-UuW4psOb388-unsplash.jpg,0,1,664,1,unchosen,36,14,objects,faces,3200,1,1,3
258,47658,0,259,4,4,0,no_gain4,gain6,G,J,47,23,objects,faces,55,62,Stimuli/Experimental_stims/objects/ronaldo-arthur-vidal-Cdz_lvnl37k-unsplash.jpg,Stimuli/Experimental_stims/faces/rikonavt-HQjfrvdTfak-unsplash.jpg,0,0,708,1,unchosen,23,47,faces,objects,1000,0,1,3
259,47658,0,260,4,4,1,gain5,no_gain3,C,L,11,26,outdoor_scenes,body_parts,71,40,Stimuli/Experimental_stims/outdoor_scenes/stephen-leonardi-gyIRjKPXupE-unsplash.jpg,Stimuli/Experimental_stims/body_parts/engin-akyurt-x_3gyC42btc-unsplash.jpg,0,1,568,1,chosen,11,26,outdoor_scenes,body_parts,1200,0,1,3
260,47658,0,261,4,4,0,no_gain5,gain4,K,A,39,7,objects,outdoor_scenes,50,71,Stimuli/Experimental_stims/objects/charlesdeluvio-1-nx1QR5dTE-unsplash.jpg,Stimuli/Experimental_stims/outdoor_scenes/petr-vysohlid-9fqwGqGLUxc-unsplash.jpg,0,1,691,0,chosen,39,7,objects,outdoor_scenes,2700,0,1,3
261,47658,0,262,4,4,0,no_gain1,gain1,D,H,46,5,objects,outdoor_scenes,59,67,Stimuli/Experimental_stims/objects/mockup-graphics-PNsj6RiHAF4-unsplash.jpg,Stimuli/Experimental_stims/outdoor_scenes/jeff-king-bJHWJeiHfHc-unsplash.jpg,0,1,825,0,chosen,46,5,objects,outdoor_scenes,1300,0,1,3
262,47658,0,263,4,4,0,no_gain1,gain2,D,E,21,44,faces,objects,50,27,Stimuli/Experimental_stims/faces/leilani-angel-K84vnnzxmTQ-unsplash.jpg,Stimuli/Experimental_stims/objects/kuiye-chen-NuOGFo4PudE-unsplash.jpg,0,1,862,0,unchosen,21,44,faces,objects,1500,0,1,3
263,47658,0,264,4,4,1,gain3,no_gain5,F,K,19,39,faces,objects,71,50,Stimuli/Experimental_stims/faces/joel-mott-LaK153ghdig-unsplash.jpg,Stimuli/Experimental_stims/objects/charlesdeluvio-1-nx1QR5dTE-unsplash.jpg,0,1,608,1,chosen,19,39,faces,objects,3700,1,1,3
264,47658,0,265,4,4,0,no_gain2,gain5,B,C,9,11,outdoor_scenes,outdoor_scenes,82,71,Stimuli/Experimental_stims/outdoor_scenes/sergey-pesterev-y-b_FOmJXdg-unsplash.jpg,Stimuli/Experimental_stims/outdoor_scenes/stephen-leonardi-gyIRjKPXupE-unsplash.jpg,0,0,641,1,chosen,11,9,outdoor_scenes,outdoor_scenes,1000,0,1,3
265,47658,0,266,4,4,1,gain4,no_gain6,A,I,36,32,objects,body_parts,59,37,Stimuli/Experimental_stims/objects/alexander-andrews-JYGnB9gTCls-unsplash.jpg,Stimuli/Experimental_stims/body_parts/towfiqu-barbhuiya-3AsiVDsZnHg-unsplash.jpg,0,0,997,0,unchosen,32,36,body_parts,objects,1700,0,1,3
266,47658,0,267,4,4,1,gain4,no_gain3,A,L,36,20,objects,faces,59,63,Stimuli/Experimental_stims/objects/alexander-andrews-JYGnB9gTCls-unsplash.jpg,Stimuli/Experimental_stims/faces/justin-chen-J7Cf1Gch49E-unsplash.jpg,0,1,719,1,unchosen,36,20,objects,faces,1100,0,1,3
267,47658,0,268,4,4,0,no_gain4,gain3,G,F,47,34,objects,body_parts,55,41,Stimuli/Experimental_stims/objects/ronaldo-arthur-vidal-Cdz_lvnl37k-unsplash.jpg,Stimuli/Experimental_stims/body_parts/wagner-santos-mBWMvIuVnso-unsplash.jpg,0,0,648,1,unchosen,34,47,body_parts,objects,1200,0,1,3
268,47658,0,269,4,4,1,gain5,no_gain6,C,I,11,10,outdoor_scenes,outdoor_scenes,71,78,Stimuli/Experimental_stims/outdoor_scenes/stephen-leonardi-gyIRjKPXupE-unsplash.jpg,Stimuli/Experimental_stims/outdoor_scenes/shannon-kunkle-dM8INmkyDas-unsplash.jpg,0,1,715,1,chosen,11,10,outdoor_scenes,outdoor_scenes,1300,0,1,3
269,47658,0,270,4,4,1,gain6,no_gain1,J,D,45,46,objects,objects,62,59,Stimuli/Experimental_stims/objects/leohoho-rngTKHXumy0-unsplash.jpg,Stimuli/Experimental_stims/objects/mockup-graphics-PNsj6RiHAF4-unsplash.jpg,0,1,625,1,chosen,45,46,objects,objects,1700,0,1,3
270,47658,0,271,4,4,1,gain2,no_gain2,E,B,44,14,objects,faces,27,42,Stimuli/Experimental_stims/objects/kuiye-chen-NuOGFo4PudE-unsplash.jpg,Stimuli/Experimental_stims/faces/david-siglin-UuW4psOb388-unsplash.jpg,0,0,848,0,unchosen,14,44,faces,objects,3400,1,1,3
271,47658,0,272,4,4,0,no_gain5,gain6,K,J,27,23,body_parts,faces,42,62,Stimuli/Experimental_stims/body_parts/heike-mintel-i_Gns0ELnLw-unsplash.jpg,Stimuli/Experimental_stims/faces/rikonavt-HQjfrvdTfak-unsplash.jpg,0,0,804,1,unchosen,23,27,faces,body_parts,2500,0,1,3
272,47658,0,273,4,4,1,gain2,no_gain1,E,D,31,46,body_parts,objects,36,59,Stimuli/Experimental_stims/body_parts/sincerely-media-VN6DbKajo5s-unsplash.jpg,Stimuli/Experimental_stims/objects/mockup-graphics-PNsj6RiHAF4-unsplash.jpg,0,0,992,0,chosen,46,31,objects,body_parts,2600,0,1,3
273,47658,0,274,4,4,1,gain2,no_gain6,E,I,44,32,objects,body_parts,27,37,Stimuli/Experimental_stims/objects/kuiye-chen-NuOGFo4PudE-unsplash.jpg,Stimuli/Experimental_stims/body_parts/towfiqu-barbhuiya-3AsiVDsZnHg-unsplash.jpg,0,0,710,0,unchosen,32,44,body_parts,objects,2000,0,1,3
274,47658,0,275,4,4,0,no_gain1,gain3,D,F,46,19,objects,faces,59,71,Stimuli/Experimental_stims/objects/mockup-graphics-PNsj6RiHAF4-unsplash.jpg,Stimuli/Experimental_stims/faces/joel-mott-LaK153ghdig-unsplash.jpg,0,0,627,1,chosen,19,46,faces,objects,1900,0,1,3
275,47658,0,276,4,4,0,no_gain2,gain6,B,J,14,23,faces,faces,42,62,Stimuli/Experimental_stims/faces/david-siglin-UuW4psOb388-unsplash.jpg,Stimuli/Experimental_stims/faces/rikonavt-HQjfrvdTfak-unsplash.jpg,0,0,633,1,unchosen,23,14,faces,faces,1500,0,1,3
276,47658,0,277,4,4,1,gain2,no_gain5,E,K,44,27,objects,body_parts,27,42,Stimuli/Experimental_stims/objects/kuiye-chen-NuOGFo4PudE-unsplash.jpg,Stimuli/Experimental_stims/body_parts/heike-mintel-i_Gns0ELnLw-unsplash.jpg,0,0,1010,0,unchosen,27,44,body_parts,objects,2500,0,1,3
277,47658,0,278,4,4,0,no_gain6,gain6,I,J,10,45,outdoor_scenes,objects,78,62,Stimuli/Experimental_stims/outdoor_scenes/shannon-kunkle-dM8INmkyDas-unsplash.jpg,Stimuli/Experimental_stims/objects/leohoho-rngTKHXumy0-unsplash.jpg,0,0,664,1,chosen,45,10,objects,outdoor_scenes,1400,0,1,3
278,47658,0,279,4,4,0,no_gain3,gain2,L,E,26,31,body_parts,body_parts,40,36,Stimuli/Experimental_stims/body_parts/engin-akyurt-x_3gyC42btc-unsplash.jpg,Stimuli/Experimental_stims/body_parts/sincerely-media-VN6DbKajo5s-unsplash.jpg,0,0,868,1,chosen,31,26,body_parts,body_parts,1300,0,1,3
279,47658,0,280,4,4,1,gain6,no_gain6,J,I,23,32,faces,body_parts,62,37,Stimuli/Experimental_stims/faces/rikonavt-HQjfrvdTfak-unsplash.jpg,Stimuli/Experimental_stims/body_parts/towfiqu-barbhuiya-3AsiVDsZnHg-unsplash.jpg,0,1,698,1,unchosen,23,32,faces,body_parts,1100,0,1,3
280,47658,0,281,4,4,1,gain6,no_gain2,J,B,45,9,objects,outdoor_scenes,62,82,Stimuli/Experimental_stims/objects/leohoho-rngTKHXumy0-unsplash.jpg,Stimuli/Experimental_stims/outdoor_scenes/sergey-pesterev-y-b_FOmJXdg-unsplash.jpg,0,1,689,1,chosen,45,9,objects,outdoor_scenes,1100,0,1,3
281,47658,0,282,4,4,1,gain2,no_gain5,E,K,31,39,body_parts,objects,36,50,Stimuli/Experimental_stims/body_parts/sincerely-media-VN6DbKajo5s-unsplash.jpg,Stimuli/Experimental_stims/objects/charlesdeluvio-1-nx1QR5dTE-unsplash.jpg,0,0,905,0,chosen,39,31,objects,body_parts,3900,1,1,3
282,47658,0,283,4,4,1,gain2,no_gain4,E,G,44,47,objects,objects,27,55,Stimuli/Experimental_stims/objects/kuiye-chen-NuOGFo4PudE-unsplash.jpg,Stimuli/Experimental_stims/objects/ronaldo-arthur-vidal-Cdz_lvnl37k-unsplash.jpg,0,0,665,0,unchosen,47,44,objects,objects,1200,0,1,3
283,47658,0,284,4,4,0,no_gain4,gain6,G,J,4,45,outdoor_scenes,objects,59,62,Stimuli/Experimental_stims/outdoor_scenes/jarrett-kow-1ZOyYPOBn7I-unsplash.jpg,Stimuli/Experimental_stims/objects/leohoho-rngTKHXumy0-unsplash.jpg,0,0,885,1,chosen,45,4,objects,outdoor_scenes,1800,0,1,3
284,47658,0,285,4,4,0,no_gain1,gain3,D,F,21,34,faces,body_parts,50,41,Stimuli/Experimental_stims/faces/leilani-angel-K84vnnzxmTQ-unsplash.jpg,Stimuli/Experimental_stims/body_parts/wagner-santos-mBWMvIuVnso-unsplash.jpg,0,0,581,1,unchosen,34,21,body_parts,faces,1900,0,1,3
285,47658,0,286,4,4,1,gain1,no_gain3,H,L,5,26,outdoor_scenes,body_parts,67,40,Stimuli/Experimental_stims/outdoor_scenes/jeff-king-bJHWJeiHfHc-unsplash.jpg,Stimuli/Experimental_stims/body_parts/engin-akyurt-x_3gyC42btc-unsplash.jpg,0,1,747,1,chosen,5,26,outdoor_scenes,body_parts,1100,0,1,3
286,47658,0,287,4,4,0,no_gain3,gain3,L,F,20,34,faces,body_parts,63,41,Stimuli/Experimental_stims/faces/justin-chen-J7Cf1Gch49E-unsplash.jpg,Stimuli/Experimental_stims/body_parts/wagner-santos-mBWMvIuVnso-unsplash.jpg,0,0,624,1,unchosen,34,20,body_parts,faces,3000,0,1,3
287,47658,0,288,4,4,0,no_gain5,gain1,K,H,27,12,body_parts,faces,42,63,Stimuli/Experimental_stims/body_parts/heike-mintel-i_Gns0ELnLw-unsplash.jpg,Stimuli/Experimental_stims/faces/aiony-haust-jmATI5Q_YgY-unsplash.jpg,0,0,811,1,unchosen,12,27,faces,body_parts,2800,0,1,3
288,47658,0,289,4,4,0,no_gain3,gain5,L,C,20,35,faces,body_parts,63,44,Stimuli/Experimental_stims/faces/justin-chen-J7Cf1Gch49E-unsplash.jpg,Stimuli/Experimental_stims/body_parts/wc-so-KH4AAPjb-tI-unsplash.jpg,0,1,828,0,unchosen,20,35,faces,body_parts,1600,0,1,3
289,47658,0,290,4,4,0,no_gain6,gain1,I,H,10,5,outdoor_scenes,outdoor_scenes,78,67,Stimuli/Experimental_stims/outdoor_scenes/shannon-kunkle-dM8INmkyDas-unsplash.jpg,Stimuli/Experimental_stims/outdoor_scenes/jeff-king-bJHWJeiHfHc-unsplash.jpg,0,1,907,0,chosen,10,5,outdoor_scenes,outdoor_scenes,1800,0,1,3
290,47658,0,291,4,4,0,no_gain2,gain1,B,H,9,5,outdoor_scenes,outdoor_scenes,82,67,Stimuli/Experimental_stims/outdoor_scenes/sergey-pesterev-y-b_FOmJXdg-unsplash.jpg,Stimuli/Experimental_stims/outdoor_scenes/jeff-king-bJHWJeiHfHc-unsplash.jpg,0,0,917,1,chosen,5,9,outdoor_scenes,outdoor_scenes,1900,0,1,3
291,47658,0,292,4,4,1,gain1,no_gain5,H,K,5,39,outdoor_scenes,objects,67,50,Stimuli/Experimental_stims/outdoor_scenes/jeff-king-bJHWJeiHfHc-unsplash.jpg,Stimuli/Experimental_stims/objects/charlesdeluvio-1-nx1QR5dTE-unsplash.jpg,0,1,722,1,chosen,5,39,outdoor_scenes,objects,1700,0,1,3