,PID,practice,trial,block,run,gain_left,left_item_id,right_item_id,left_pair_id,right_pair_id,left_stimulus,right_stimulus,left_category,left_rating,right_rating,right_category,left_path,right_path,no_response,left_chosen,rt,higher_outcome_chosen,choice_type,chosen_stimulus,unchosen_stimulus,chosen_category,unchosen_category,iti,long_iti,simulation,version
0,22705,1,1,0,0,0,,,,,,,,,,,Stimuli/Practice_stims/Final_decisions/debby-hudson-FmCSSSGge-0-unsplash.jpg,Stimuli/Practice_stims/Final_decisions/yassine-khalfalli-adsQ9d_Cx0c-unsplash.jpg,0,0,778,1,,,,,,3000,0,7,2
1,22705,1,2,0,0,0,,,,,,,,,,,Stimuli/Practice_stims/Final_decisions/florian-wehde-iVW7mZPwd4g-unsplash.jpg,Stimuli/Practice_stims/Final_decisions/patrick-perkins-3wylDrjxH-E-unsplash.jpg,0,1,0,0,,,,,,1500,0,7,2
2,22705,1,3,0,0,0,,,,,,,,,,,Stimuli/Practice_stims/Final_decisions/debby-hudson-FmCSSSGge-0-unsplash.jpg,Stimuli/Practice_stims/Final_decisions/florian-wehde-iVW7mZPwd4g-unsplash.jpg,0,0,462,1,,,,,,2000,0,7,2
3,22705,1,4,0,0,0,,,,,,,,,,,Stimuli/Practice_stims/Final_decisions/yassine-khalfalli-adsQ9d_Cx0c-unsplash.jpg,Stimuli/Practice_stims/Final_decisions/debby-hudson-FmCSSSGge-0-unsplash.jpg,0,1,313,0,,,,,,1000,0,7,2
4,22705,0,5,1,1,1,gain2,no_gain3,I,G,1,0,outdoor_scenes,67,73,outdoor_scenes,Stimuli/Experimental_stims/outdoor_scenes/ashim-d-silva-S2Q5mdOrrVc-unsplash.jpg,Stimuli/Experimental_stims/outdoor_scenes/aleksandra-boguslawska-MS7KD9Ti7FQ-unsplash.jpg,0,0,778,0,unchosen,0,1,outdoor_scenes,outdoor_scenes,4100,1,7,2
5,22705,0,6,1,1,1,gain3,no_gain5,L,F,13,23,faces,68,59,faces,Stimuli/Experimental_stims/faces/daniel-rigdon-dXmXKPP2L4E-unsplash.jpg,Stimuli/Experimental_stims/faces/rikonavt-HQjfrvdTfak-unsplash.jpg,0,1,421,1,chosen,13,23,faces,faces,1200,0,7,2
6,22705,0,7,1,1,1,gain1,no_gain3,E,G,38,47,objects,77,79,objects,Stimuli/Experimental_stims/objects/art-lasovsky-8XddFc6NkBY-unsplash.jpg,Stimuli/Experimental_stims/objects/ronaldo-arthur-vidal-Cdz_lvnl37k-unsplash.jpg,0,0,393,0,chosen,47,38,objects,objects,2600,0,7,2
7,22705,0,8,1,1,1,gain2,no_gain4,I,H,27,10,body_parts,77,75,outdoor_scenes,Stimuli/Experimental_stims/body_parts/heike-mintel-i_Gns0ELnLw-unsplash.jpg,Stimuli/Experimental_stims/outdoor_scenes/shannon-kunkle-dM8INmkyDas-unsplash.jpg,0,1,338,1,chosen,27,10,body_parts,outdoor_scenes,2000,0,7,2
8,22705,0,9,1,1,0,no_gain5,gain1,F,E,24,26,body_parts,70,61,body_parts,Stimuli/Experimental_stims/body_parts/clay-banks-LjqARJaJotc-unsplash.jpg,Stimuli/Experimental_stims/body_parts/engin-akyurt-x_3gyC42btc-unsplash.jpg,0,0,458,1,unchosen,26,24,body_parts,body_parts,1200,0,7,2
9,22705,0,10,1,1,0,no_gain4,gain3,H,L,10,13,outdoor_scenes,75,68,faces,Stimuli/Experimental_stims/outdoor_scenes/shannon-kunkle-dM8INmkyDas-unsplash.jpg,Stimuli/Experimental_stims/faces/daniel-rigdon-dXmXKPP2L4E-unsplash.jpg,0,1,377,0,chosen,10,13,outdoor_scenes,faces,3200,1,7,2
10,22705,0,11,1,1,0,no_gain1,gain3,A,L,46,13,objects,71,68,faces,Stimuli/Experimental_stims/objects/mockup-graphics-PNsj6RiHAF4-unsplash.jpg,Stimuli/Experimental_stims/faces/daniel-rigdon-dXmXKPP2L4E-unsplash.jpg,0,0,394,1,chosen,13,46,faces,objects,1200,0,7,2
11,22705,0,12,1,1,0,no_gain2,gain1,K,E,33,38,body_parts,39,77,objects,Stimuli/Experimental_stims/body_parts/tucker-good-36skLT5jZcc-unsplash.jpg,Stimuli/Experimental_stims/objects/art-lasovsky-8XddFc6NkBY-unsplash.jpg,0,1,459,0,chosen,33,38,body_parts,objects,1800,0,7,2
12,22705,0,13,1,1,1,gain2,no_gain1,I,A,1,8,outdoor_scenes,67,72,outdoor_scenes,Stimuli/Experimental_stims/outdoor_scenes/ashim-d-silva-S2Q5mdOrrVc-unsplash.jpg,Stimuli/Experimental_stims/outdoor_scenes/samsommer-vddccTqwal8-unsplash.jpg,0,0,449,0,unchosen,8,1,outdoor_scenes,outdoor_scenes,1600,0,7,2
13,22705,0,14,1,1,0,no_gain6,gain6,B,J,12,20,faces,72,73,faces,Stimuli/Experimental_stims/faces/aiony-haust-jmATI5Q_YgY-unsplash.jpg,Stimuli/Experimental_stims/faces/justin-chen-J7Cf1Gch49E-unsplash.jpg,0,1,554,0,unchosen,12,20,faces,faces,1300,0,7,2
14,22705,0,15,1,1,0,no_gain1,gain5,A,C,8,25,outdoor_scenes,72,34,body_parts,Stimuli/Experimental_stims/outdoor_scenes/samsommer-vddccTqwal8-unsplash.jpg,Stimuli/Experimental_stims/body_parts/engin-akyurt-Q2rfH3GW39c-unsplash.jpg,0,0,1056,1,unchosen,25,8,body_parts,outdoor_scenes,1900,0,7,2
15,22705,0,16,1,1,0,no_gain3,gain2,G,I,47,27,objects,79,77,body_parts,Stimuli/Experimental_stims/objects/ronaldo-arthur-vidal-Cdz_lvnl37k-unsplash.jpg,Stimuli/Experimental_stims/body_parts/heike-mintel-i_Gns0ELnLw-unsplash.jpg,0,1,462,0,chosen,47,27,objects,body_parts,4100,1,7,2
16,22705,0,17,1,1,1,gain4,no_gain2,D,K,42,41,objects,71,83,objects,Stimuli/Experimental_stims/objects/jess-bailey-nOeVi8DsN8U-unsplash.jpg,Stimuli/Experimental_stims/objects/insung-yoon-w2JtIQQXoRU-unsplash.jpg,0,0,375,0,unchosen,41,42,objects,objects,1100,0,7,2
17,22705,0,18,1,1,1,gain6,no_gain2,J,K,40,33,objects,66,39,body_parts,Stimuli/Experimental_stims/objects/fabian-blank-pElSkGRA2NU-unsplash.jpg,Stimuli/Experimental_stims/body_parts/tucker-good-36skLT5jZcc-unsplash.jpg,0,1,590,1,chosen,40,33,objects,body_parts,1200,0,7,2
18,22705,0,19,1,1,1,gain5,no_gain4,C,H,25,22,body_parts,34,83,faces,Stimuli/Experimental_stims/body_parts/engin-akyurt-Q2rfH3GW39c-unsplash.jpg,Stimuli/Experimental_stims/faces/ravi-patel-VMGAbeeJTKo-unsplash.jpg,0,0,426,0,unchosen,22,25,faces,body_parts,1400,0,7,2
19,22705,0,20,1,1,0,no_gain4,gain1,H,E,10,38,outdoor_scenes,75,77,objects,Stimuli/Experimental_stims/outdoor_scenes/shannon-kunkle-dM8INmkyDas-unsplash.jpg,Stimuli/Experimental_stims/objects/art-lasovsky-8XddFc6NkBY-unsplash.jpg,0,1,385,0,chosen,10,38,outdoor_scenes,objects,1300,0,7,2
20,22705,0,21,1,1,1,gain6,no_gain6,J,B,40,5,objects,66,86,outdoor_scenes,Stimuli/Experimental_stims/objects/fabian-blank-pElSkGRA2NU-unsplash.jpg,Stimuli/Experimental_stims/outdoor_scenes/jeff-king-bJHWJeiHfHc-unsplash.jpg,0,0,283,0,chosen,5,40,outdoor_scenes,objects,4600,1,7,2
21,22705,0,22,1,1,0,no_gain1,gain3,A,L,8,28,outdoor_scenes,72,84,body_parts,Stimuli/Experimental_stims/outdoor_scenes/samsommer-vddccTqwal8-unsplash.jpg,Stimuli/Experimental_stims/body_parts/ira-vishnevskaya-8DQAvdCby1I-unsplash.jpg,0,1,370,0,unchosen,8,28,outdoor_scenes,body_parts,1000,0,7,2
22,22705,0,23,1,1,1,gain4,no_gain4,D,H,16,10,faces,45,75,outdoor_scenes,Stimuli/Experimental_stims/faces/freddy-kearney-o-ioeoATbIM-unsplash.jpg,Stimuli/Experimental_stims/outdoor_scenes/shannon-kunkle-dM8INmkyDas-unsplash.jpg,0,0,334,0,chosen,10,16,outdoor_scenes,faces,1100,0,7,2
23,22705,0,24,1,1,0,no_gain1,gain4,A,D,8,42,outdoor_scenes,72,71,objects,Stimuli/Experimental_stims/outdoor_scenes/samsommer-vddccTqwal8-unsplash.jpg,Stimuli/Experimental_stims/objects/jess-bailey-nOeVi8DsN8U-unsplash.jpg,0,1,365,0,unchosen,8,42,outdoor_scenes,objects,1700,0,7,2
24,22705,0,25,1,1,0,no_gain3,gain5,G,C,0,25,outdoor_scenes,73,34,body_parts,Stimuli/Experimental_stims/outdoor_scenes/aleksandra-boguslawska-MS7KD9Ti7FQ-unsplash.jpg,Stimuli/Experimental_stims/body_parts/engin-akyurt-Q2rfH3GW39c-unsplash.jpg,0,1,339,0,unchosen,0,25,outdoor_scenes,body_parts,2800,0,7,2
25,22705,0,26,1,1,1,gain4,no_gain3,D,G,16,47,faces,45,79,objects,Stimuli/Experimental_stims/faces/freddy-kearney-o-ioeoATbIM-unsplash.jpg,Stimuli/Experimental_stims/objects/ronaldo-arthur-vidal-Cdz_lvnl37k-unsplash.jpg,0,1,474,1,chosen,16,47,faces,objects,3200,1,7,2
26,22705,0,27,1,1,1,gain5,no_gain6,C,B,9,5,outdoor_scenes,84,86,outdoor_scenes,Stimuli/Experimental_stims/outdoor_scenes/sergey-pesterev-y-b_FOmJXdg-unsplash.jpg,Stimuli/Experimental_stims/outdoor_scenes/jeff-king-bJHWJeiHfHc-unsplash.jpg,0,0,377,0,chosen,5,9,outdoor_scenes,outdoor_scenes,2000,0,7,2
27,22705,0,28,1,1,0,no_gain3,gain3,G,L,0,28,outdoor_scenes,73,84,body_parts,Stimuli/Experimental_stims/outdoor_scenes/aleksandra-boguslawska-MS7KD9Ti7FQ-unsplash.jpg,Stimuli/Experimental_stims/body_parts/ira-vishnevskaya-8DQAvdCby1I-unsplash.jpg,1,NaN,,NaN,unchosen,NaN,NaN,NaN,NaN,1600,0,7,2
28,22705,0,29,1,1,1,gain6,no_gain3,J,G,40,47,objects,66,79,objects,Stimuli/Experimental_stims/objects/fabian-blank-pElSkGRA2NU-unsplash.jpg,Stimuli/Experimental_stims/objects/ronaldo-arthur-vidal-Cdz_lvnl37k-unsplash.jpg,0,1,40,1,chosen,40,47,objects,objects,1300,0,7,2
29,22705,0,30,1,1,1,gain5,no_gain5,C,F,25,24,body_parts,34,70,body_parts,Stimuli/Experimental_stims/body_parts/engin-akyurt-Q2rfH3GW39c-unsplash.jpg,Stimuli/Experimental_stims/body_parts/clay-banks-LjqARJaJotc-unsplash.jpg,1,NaN,,NaN,unchosen,NaN,NaN,NaN,NaN,1200,0,7,2
30,22705,0,31,1,1,0,no_gain6,gain3,B,L,12,28,faces,72,84,body_parts,Stimuli/Experimental_stims/faces/aiony-haust-jmATI5Q_YgY-unsplash.jpg,Stimuli/Experimental_stims/body_parts/ira-vishnevskaya-8DQAvdCby1I-unsplash.jpg,0,0,267,1,unchosen,28,12,body_parts,faces,3500,1,7,2
31,22705,0,32,1,1,0,no_gain1,gain1,A,E,46,38,objects,71,77,objects,Stimuli/Experimental_stims/objects/mockup-graphics-PNsj6RiHAF4-unsplash.jpg,Stimuli/Experimental_stims/objects/art-lasovsky-8XddFc6NkBY-unsplash.jpg,0,1,159,0,chosen,46,38,objects,objects,1800,0,7,2
32,22705,0,33,1,1,0,no_gain5,gain6,F,J,24,20,body_parts,70,73,faces,Stimuli/Experimental_stims/body_parts/clay-banks-LjqARJaJotc-unsplash.jpg,Stimuli/Experimental_stims/faces/justin-chen-J7Cf1Gch49E-unsplash.jpg,0,1,2,0,unchosen,24,20,body_parts,faces,1600,0,7,2
33,22705,0,34,1,1,0,no_gain1,gain5,A,C,46,9,objects,71,84,outdoor_scenes,Stimuli/Experimental_stims/objects/mockup-graphics-PNsj6RiHAF4-unsplash.jpg,Stimuli/Experimental_stims/outdoor_scenes/sergey-pesterev-y-b_FOmJXdg-unsplash.jpg,0,1,485,0,chosen,46,9,objects,outdoor_scenes,2000,0,7,2
34,22705,0,35,1,1,0,no_gain5,gain5,F,C,23,9,faces,59,84,outdoor_scenes,Stimuli/Experimental_stims/faces/rikonavt-HQjfrvdTfak-unsplash.jpg,Stimuli/Experimental_stims/outdoor_scenes/sergey-pesterev-y-b_FOmJXdg-unsplash.jpg,0,0,234,1,chosen,9,23,outdoor_scenes,faces,1100,0,7,2
35,22705,0,36,1,1,1,gain1,no_gain2,E,K,26,41,body_parts,61,83,objects,Stimuli/Experimental_stims/body_parts/engin-akyurt-x_3gyC42btc-unsplash.jpg,Stimuli/Experimental_stims/objects/insung-yoon-w2JtIQQXoRU-unsplash.jpg,0,0,703,0,unchosen,41,26,objects,body_parts,2800,0,7,2
36,22705,0,37,1,1,0,no_gain2,gain5,K,C,33,9,body_parts,39,84,outdoor_scenes,Stimuli/Experimental_stims/body_parts/tucker-good-36skLT5jZcc-unsplash.jpg,Stimuli/Experimental_stims/outdoor_scenes/sergey-pesterev-y-b_FOmJXdg-unsplash.jpg,0,1,281,0,chosen,33,9,body_parts,outdoor_scenes,3100,1,7,2
37,22705,0,38,1,1,0,no_gain4,gain2,H,I,22,1,faces,83,67,outdoor_scenes,Stimuli/Experimental_stims/faces/ravi-patel-VMGAbeeJTKo-unsplash.jpg,Stimuli/Experimental_stims/outdoor_scenes/ashim-d-silva-S2Q5mdOrrVc-unsplash.jpg,0,0,189,1,unchosen,1,22,outdoor_scenes,faces,1100,0,7,2
38,22705,0,39,1,1,0,no_gain4,gain1,H,E,22,26,faces,83,61,body_parts,Stimuli/Experimental_stims/faces/ravi-patel-VMGAbeeJTKo-unsplash.jpg,Stimuli/Experimental_stims/body_parts/engin-akyurt-x_3gyC42btc-unsplash.jpg,0,1,29,0,unchosen,22,26,faces,body_parts,1100,0,7,2
39,22705,0,40,1,1,1,gain2,no_gain1,I,A,27,46,body_parts,77,71,objects,Stimuli/Experimental_stims/body_parts/heike-mintel-i_Gns0ELnLw-unsplash.jpg,Stimuli/Experimental_stims/objects/mockup-graphics-PNsj6RiHAF4-unsplash.jpg,0,0,93,0,chosen,46,27,objects,body_parts,1100,0,7,2
40,22705,0,41,1,1,1,gain2,no_gain5,I,F,1,24,outdoor_scenes,67,70,body_parts,Stimuli/Experimental_stims/outdoor_scenes/ashim-d-silva-S2Q5mdOrrVc-unsplash.jpg,Stimuli/Experimental_stims/body_parts/clay-banks-LjqARJaJotc-unsplash.jpg,0,0,125,0,unchosen,24,1,body_parts,outdoor_scenes,2300,0,7,2
41,22705,0,42,1,1,1,gain6,no_gain3,J,G,20,0,faces,73,73,outdoor_scenes,Stimuli/Experimental_stims/faces/justin-chen-J7Cf1Gch49E-unsplash.jpg,Stimuli/Experimental_stims/outdoor_scenes/aleksandra-boguslawska-MS7KD9Ti7FQ-unsplash.jpg,0,0,1,0,unchosen,0,20,outdoor_scenes,faces,3700,1,7,2
42,22705,0,43,1,1,0,no_gain6,gain5,B,C,12,25,faces,72,34,body_parts,Stimuli/Experimental_stims/faces/aiony-haust-jmATI5Q_YgY-unsplash.jpg,Stimuli/Experimental_stims/body_parts/engin-akyurt-Q2rfH3GW39c-unsplash.jpg,0,0,36,1,unchosen,25,12,body_parts,faces,2400,0,7,2
43,22705,0,44,1,1,0,no_gain5,gain6,F,J,23,40,faces,59,66,objects,Stimuli/Experimental_stims/faces/rikonavt-HQjfrvdTfak-unsplash.jpg,Stimuli/Experimental_stims/objects/fabian-blank-pElSkGRA2NU-unsplash.jpg,0,0,121,1,chosen,40,23,objects,faces,1400,0,7,2
44,22705,0,45,1,1,0,no_gain2,gain6,K,J,41,20,objects,83,73,faces,Stimuli/Experimental_stims/objects/insung-yoon-w2JtIQQXoRU-unsplash.jpg,Stimuli/Experimental_stims/faces/justin-chen-J7Cf1Gch49E-unsplash.jpg,0,0,33,1,unchosen,20,41,faces,objects,2500,0,7,2
45,22705,0,46,1,1,1,gain6,no_gain1,J,A,40,46,objects,66,71,objects,Stimuli/Experimental_stims/objects/fabian-blank-pElSkGRA2NU-unsplash.jpg,Stimuli/Experimental_stims/objects/mockup-graphics-PNsj6RiHAF4-unsplash.jpg,0,1,22,1,chosen,40,46,objects,objects,2600,0,7,2
46,22705,0,47,1,1,1,gain2,no_gain2,I,K,27,33,body_parts,77,39,body_parts,Stimuli/Experimental_stims/body_parts/heike-mintel-i_Gns0ELnLw-unsplash.jpg,Stimuli/Experimental_stims/body_parts/tucker-good-36skLT5jZcc-unsplash.jpg,0,1,82,1,chosen,27,33,body_parts,body_parts,1100,0,7,2
47,22705,0,48,1,1,0,no_gain6,gain1,B,E,12,26,faces,72,61,body_parts,Stimuli/Experimental_stims/faces/aiony-haust-jmATI5Q_YgY-unsplash.jpg,Stimuli/Experimental_stims/body_parts/engin-akyurt-x_3gyC42btc-unsplash.jpg,0,1,94,0,unchosen,12,26,faces,body_parts,4800,1,7,2
48,22705,0,49,1,1,1,gain4,no_gain3,D,G,42,0,objects,71,73,outdoor_scenes,Stimuli/Experimental_stims/objects/jess-bailey-nOeVi8DsN8U-unsplash.jpg,Stimuli/Experimental_stims/outdoor_scenes/aleksandra-boguslawska-MS7KD9Ti7FQ-unsplash.jpg,0,1,234,1,unchosen,42,0,objects,outdoor_scenes,1600,0,7,2
49,22705,0,50,1,1,1,gain6,no_gain4,J,H,40,10,objects,66,75,outdoor_scenes,Stimuli/Experimental_stims/objects/fabian-blank-pElSkGRA2NU-unsplash.jpg,Stimuli/Experimental_stims/outdoor_scenes/shannon-kunkle-dM8INmkyDas-unsplash.jpg,0,1,154,1,chosen,40,10,objects,outdoor_scenes,2800,0,7,2
50,22705,0,51,1,1,1,gain1,no_gain3,E,G,26,0,body_parts,61,73,outdoor_scenes,Stimuli/Experimental_stims/body_parts/engin-akyurt-x_3gyC42btc-unsplash.jpg,Stimuli/Experimental_stims/outdoor_scenes/aleksandra-boguslawska-MS7KD9Ti7FQ-unsplash.jpg,0,1,186,1,unchosen,26,0,body_parts,outdoor_scenes,2300,0,7,2
51,22705,0,52,1,1,1,gain3,no_gain5,L,F,28,24,body_parts,84,70,body_parts,Stimuli/Experimental_stims/body_parts/ira-vishnevskaya-8DQAvdCby1I-unsplash.jpg,Stimuli/Experimental_stims/body_parts/clay-banks-LjqARJaJotc-unsplash.jpg,0,1,255,1,unchosen,28,24,body_parts,body_parts,2400,0,7,2
52,22705,0,53,1,1,1,gain4,no_gain4,D,H,42,22,objects,71,83,faces,Stimuli/Experimental_stims/objects/jess-bailey-nOeVi8DsN8U-unsplash.jpg,Stimuli/Experimental_stims/faces/ravi-patel-VMGAbeeJTKo-unsplash.jpg,0,1,91,1,unchosen,42,22,objects,faces,1800,0,7,2
53,22705,0,54,1,1,0,no_gain6,gain1,B,E,5,38,outdoor_scenes,86,77,objects,Stimuli/Experimental_stims/outdoor_scenes/jeff-king-bJHWJeiHfHc-unsplash.jpg,Stimuli/Experimental_stims/objects/art-lasovsky-8XddFc6NkBY-unsplash.jpg,0,0,227,1,chosen,38,5,objects,outdoor_scenes,1500,0,7,2
54,22705,0,55,1,1,1,gain6,no_gain4,J,H,20,22,faces,73,83,faces,Stimuli/Experimental_stims/faces/justin-chen-J7Cf1Gch49E-unsplash.jpg,Stimuli/Experimental_stims/faces/ravi-patel-VMGAbeeJTKo-unsplash.jpg,0,0,172,0,unchosen,22,20,faces,faces,1900,0,7,2
55,22705,0,56,1,1,1,gain3,no_gain2,L,K,28,41,body_parts,84,83,objects,Stimuli/Experimental_stims/body_parts/ira-vishnevskaya-8DQAvdCby1I-unsplash.jpg,Stimuli/Experimental_stims/objects/insung-yoon-w2JtIQQXoRU-unsplash.jpg,0,0,750,0,unchosen,41,28,objects,body_parts,1100,0,7,2
56,22705,0,57,1,1,0,no_gain2,gain2,K,I,41,1,objects,83,67,outdoor_scenes,Stimuli/Experimental_stims/objects/insung-yoon-w2JtIQQXoRU-unsplash.jpg,Stimuli/Experimental_stims/outdoor_scenes/ashim-d-silva-S2Q5mdOrrVc-unsplash.jpg,0,0,1,1,unchosen,1,41,outdoor_scenes,objects,1700,0,7,2
57,22705,0,58,1,1,1,gain5,no_gain3,C,G,9,47,outdoor_scenes,84,79,objects,Stimuli/Experimental_stims/outdoor_scenes/sergey-pesterev-y-b_FOmJXdg-unsplash.jpg,Stimuli/Experimental_stims/objects/ronaldo-arthur-vidal-Cdz_lvnl37k-unsplash.jpg,0,1,34,1,chosen,9,47,outdoor_scenes,objects,1600,0,7,2
58,22705,0,59,1,1,1,gain6,no_gain1,J,A,20,8,faces,73,72,outdoor_scenes,Stimuli/Experimental_stims/faces/justin-chen-J7Cf1Gch49E-unsplash.jpg,Stimuli/Experimental_stims/outdoor_scenes/samsommer-vddccTqwal8-unsplash.jpg,0,1,154,1,unchosen,20,8,faces,outdoor_scenes,1700,0,7,2
59,22705,0,60,1,1,0,no_gain5,gain4,F,D,23,16,faces,59,45,faces,Stimuli/Experimental_stims/faces/rikonavt-HQjfrvdTfak-unsplash.jpg,Stimuli/Experimental_stims/faces/freddy-kearney-o-ioeoATbIM-unsplash.jpg,0,1,71,0,chosen,23,16,faces,faces,3000,0,7,2
60,22705,0,61,1,1,1,gain3,no_gain6,L,B,13,5,faces,68,86,outdoor_scenes,Stimuli/Experimental_stims/faces/daniel-rigdon-dXmXKPP2L4E-unsplash.jpg,Stimuli/Experimental_stims/outdoor_scenes/jeff-king-bJHWJeiHfHc-unsplash.jpg,0,0,130,0,chosen,5,13,outdoor_scenes,faces,2100,0,7,2
61,22705,0,62,1,1,1,gain5,no_gain2,C,K,25,41,body_parts,34,83,objects,Stimuli/Experimental_stims/body_parts/engin-akyurt-Q2rfH3GW39c-unsplash.jpg,Stimuli/Experimental_stims/objects/insung-yoon-w2JtIQQXoRU-unsplash.jpg,0,1,294,1,unchosen,25,41,body_parts,objects,3200,1,7,2
62,22705,0,63,1,1,1,gain1,no_gain5,E,F,38,23,objects,77,59,faces,Stimuli/Experimental_stims/objects/art-lasovsky-8XddFc6NkBY-unsplash.jpg,Stimuli/Experimental_stims/faces/rikonavt-HQjfrvdTfak-unsplash.jpg,0,1,218,1,chosen,38,23,objects,faces,1600,0,7,2
63,22705,0,64,1,1,0,no_gain2,gain4,K,D,33,16,body_parts,39,45,faces,Stimuli/Experimental_stims/body_parts/tucker-good-36skLT5jZcc-unsplash.jpg,Stimuli/Experimental_stims/faces/freddy-kearney-o-ioeoATbIM-unsplash.jpg,0,1,249,0,chosen,33,16,body_parts,faces,1300,0,7,2
64,22705,0,65,1,1,0,no_gain1,gain1,A,E,8,26,outdoor_scenes,72,61,body_parts,Stimuli/Experimental_stims/outdoor_scenes/samsommer-vddccTqwal8-unsplash.jpg,Stimuli/Experimental_stims/body_parts/engin-akyurt-x_3gyC42btc-unsplash.jpg,0,0,185,1,unchosen,26,8,body_parts,outdoor_scenes,1800,0,7,2
65,22705,0,66,1,1,0,no_gain1,gain4,A,D,46,16,objects,71,45,faces,Stimuli/Experimental_stims/objects/mockup-graphics-PNsj6RiHAF4-unsplash.jpg,Stimuli/Experimental_stims/faces/freddy-kearney-o-ioeoATbIM-unsplash.jpg,0,0,18,1,chosen,16,46,faces,objects,1400,0,7,2
66,22705,0,67,1,1,0,no_gain3,gain3,G,L,47,13,objects,79,68,faces,Stimuli/Experimental_stims/objects/ronaldo-arthur-vidal-Cdz_lvnl37k-unsplash.jpg,Stimuli/Experimental_stims/faces/daniel-rigdon-dXmXKPP2L4E-unsplash.jpg,0,0,224,1,chosen,13,47,faces,objects,1500,0,7,2
67,22705,0,68,1,1,0,no_gain6,gain2,B,I,5,27,outdoor_scenes,86,77,body_parts,Stimuli/Experimental_stims/outdoor_scenes/jeff-king-bJHWJeiHfHc-unsplash.jpg,Stimuli/Experimental_stims/body_parts/heike-mintel-i_Gns0ELnLw-unsplash.jpg,0,0,205,1,chosen,27,5,body_parts,outdoor_scenes,1100,0,7,2
68,22705,0,69,1,1,0,no_gain6,gain4,B,D,12,42,faces,72,71,objects,Stimuli/Experimental_stims/faces/aiony-haust-jmATI5Q_YgY-unsplash.jpg,Stimuli/Experimental_stims/objects/jess-bailey-nOeVi8DsN8U-unsplash.jpg,0,0,29,1,unchosen,42,12,objects,faces,4300,1,7,2
69,22705,0,70,1,1,0,no_gain2,gain3,K,L,33,13,body_parts,39,68,faces,Stimuli/Experimental_stims/body_parts/tucker-good-36skLT5jZcc-unsplash.jpg,Stimuli/Experimental_stims/faces/daniel-rigdon-dXmXKPP2L4E-unsplash.jpg,0,1,173,0,chosen,33,13,body_parts,faces,1100,0,7,2
70,22705,0,71,1,1,1,gain2,no_gain5,I,F,27,23,body_parts,77,59,faces,Stimuli/Experimental_stims/body_parts/heike-mintel-i_Gns0ELnLw-unsplash.jpg,Stimuli/Experimental_stims/faces/rikonavt-HQjfrvdTfak-unsplash.jpg,0,1,29,1,chosen,27,23,body_parts,faces,1300,0,7,2
71,22705,0,72,1,1,1,gain2,no_gain6,I,B,1,12,outdoor_scenes,67,72,faces,Stimuli/Experimental_stims/outdoor_scenes/ashim-d-silva-S2Q5mdOrrVc-unsplash.jpg,Stimuli/Experimental_stims/faces/aiony-haust-jmATI5Q_YgY-unsplash.jpg,0,1,246,1,unchosen,1,12,outdoor_scenes,faces,2000,0,7,2
72,22705,0,73,1,1,0,no_gain4,gain3,H,L,22,28,faces,83,84,body_parts,Stimuli/Experimental_stims/faces/ravi-patel-VMGAbeeJTKo-unsplash.jpg,Stimuli/Experimental_stims/body_parts/ira-vishnevskaya-8DQAvdCby1I-unsplash.jpg,0,1,234,0,unchosen,22,28,faces,body_parts,1900,0,7,2
73,22705,0,74,1,1,0,no_gain4,gain5,H,C,10,9,outdoor_scenes,75,84,outdoor_scenes,Stimuli/Experimental_stims/outdoor_scenes/shannon-kunkle-dM8INmkyDas-unsplash.jpg,Stimuli/Experimental_stims/outdoor_scenes/sergey-pesterev-y-b_FOmJXdg-unsplash.jpg,0,1,157,0,chosen,10,9,outdoor_scenes,outdoor_scenes,2200,0,7,2
74,22705,0,75,1,1,1,gain4,no_gain6,D,B,16,5,faces,45,86,outdoor_scenes,Stimuli/Experimental_stims/faces/freddy-kearney-o-ioeoATbIM-unsplash.jpg,Stimuli/Experimental_stims/outdoor_scenes/jeff-king-bJHWJeiHfHc-unsplash.jpg,0,1,33,1,chosen,16,5,faces,outdoor_scenes,1000,0,7,2
75,22705,0,76,1,1,1,gain4,no_gain5,D,F,42,24,objects,71,70,body_parts,Stimuli/Experimental_stims/objects/jess-bailey-nOeVi8DsN8U-unsplash.jpg,Stimuli/Experimental_stims/body_parts/clay-banks-LjqARJaJotc-unsplash.jpg,0,1,3,1,unchosen,42,24,objects,body_parts,1100,0,7,2
76,22705,0,77,2,2,1,gain6,no_gain3,J,G,20,0,faces,73,73,outdoor_scenes,Stimuli/Experimental_stims/faces/justin-chen-J7Cf1Gch49E-unsplash.jpg,Stimuli/Experimental_stims/outdoor_scenes/aleksandra-boguslawska-MS7KD9Ti7FQ-unsplash.jpg,0,1,794,1,unchosen,20,0,faces,outdoor_scenes,3800,1,10,2
77,22705,0,78,2,2,1,gain6,no_gain4,J,H,40,10,objects,66,75,outdoor_scenes,Stimuli/Experimental_stims/objects/fabian-blank-pElSkGRA2NU-unsplash.jpg,Stimuli/Experimental_stims/outdoor_scenes/shannon-kunkle-dM8INmkyDas-unsplash.jpg,0,0,242,0,chosen,10,40,outdoor_scenes,objects,2000,0,10,2
78,22705,0,79,2,2,1,gain3,no_gain1,L,A,13,46,faces,68,71,objects,Stimuli/Experimental_stims/faces/daniel-rigdon-dXmXKPP2L4E-unsplash.jpg,Stimuli/Experimental_stims/objects/mockup-graphics-PNsj6RiHAF4-unsplash.jpg,0,0,74,0,chosen,46,13,objects,faces,3000,0,10,2
79,22705,0,80,2,2,1,gain4,no_gain3,D,G,42,0,objects,71,73,outdoor_scenes,Stimuli/Experimental_stims/objects/jess-bailey-nOeVi8DsN8U-unsplash.jpg,Stimuli/Experimental_stims/outdoor_scenes/aleksandra-boguslawska-MS7KD9Ti7FQ-unsplash.jpg,0,0,49,0,unchosen,0,42,outdoor_scenes,objects,1400,0,10,2
80,22705,0,81,2,2,1,gain6,no_gain6,J,B,40,5,objects,66,86,outdoor_scenes,Stimuli/Experimental_stims/objects/fabian-blank-pElSkGRA2NU-unsplash.jpg,Stimuli/Experimental_stims/outdoor_scenes/jeff-king-bJHWJeiHfHc-unsplash.jpg,0,0,179,0,chosen,5,40,outdoor_scenes,objects,2900,0,10,2
81,22705,0,82,2,2,1,gain2,no_gain1,I,A,27,46,body_parts,77,71,objects,Stimuli/Experimental_stims/body_parts/heike-mintel-i_Gns0ELnLw-unsplash.jpg,Stimuli/Experimental_stims/objects/mockup-graphics-PNsj6RiHAF4-unsplash.jpg,0,1,53,1,chosen,27,46,body_parts,objects,2000,0,10,2
82,22705,0,83,2,2,0,no_gain1,gain3,A,L,8,28,outdoor_scenes,72,84,body_parts,Stimuli/Experimental_stims/outdoor_scenes/samsommer-vddccTqwal8-unsplash.jpg,Stimuli/Experimental_stims/body_parts/ira-vishnevskaya-8DQAvdCby1I-unsplash.jpg,0,0,121,1,unchosen,28,8,body_parts,outdoor_scenes,2700,0,10,2
83,22705,0,84,2,2,0,no_gain6,gain2,B,I,5,27,outdoor_scenes,86,77,body_parts,Stimuli/Experimental_stims/outdoor_scenes/jeff-king-bJHWJeiHfHc-unsplash.jpg,Stimuli/Experimental_stims/body_parts/heike-mintel-i_Gns0ELnLw-unsplash.jpg,0,1,14,0,chosen,5,27,outdoor_scenes,body_parts,3600,1,10,2
84,22705,0,85,2,2,0,no_gain3,gain2,G,I,0,1,outdoor_scenes,73,67,outdoor_scenes,Stimuli/Experimental_stims/outdoor_scenes/aleksandra-boguslawska-MS7KD9Ti7FQ-unsplash.jpg,Stimuli/Experimental_stims/outdoor_scenes/ashim-d-silva-S2Q5mdOrrVc-unsplash.jpg,0,1,57,0,unchosen,0,1,outdoor_scenes,outdoor_scenes,1300,0,10,2
85,22705,0,86,2,2,1,gain6,no_gain1,J,A,20,8,faces,73,72,outdoor_scenes,Stimuli/Experimental_stims/faces/justin-chen-J7Cf1Gch49E-unsplash.jpg,Stimuli/Experimental_stims/outdoor_scenes/samsommer-vddccTqwal8-unsplash.jpg,0,0,39,0,unchosen,8,20,outdoor_scenes,faces,3000,0,10,2
86,22705,0,87,2,2,0,no_gain5,gain4,F,D,24,42,body_parts,70,71,objects,Stimuli/Experimental_stims/body_parts/clay-banks-LjqARJaJotc-unsplash.jpg,Stimuli/Experimental_stims/objects/jess-bailey-nOeVi8DsN8U-unsplash.jpg,0,1,81,0,unchosen,24,42,body_parts,objects,2600,0,10,2
87,22705,0,88,2,2,0,no_gain2,gain3,K,L,33,13,body_parts,39,68,faces,Stimuli/Experimental_stims/body_parts/tucker-good-36skLT5jZcc-unsplash.jpg,Stimuli/Experimental_stims/faces/daniel-rigdon-dXmXKPP2L4E-unsplash.jpg,0,0,251,1,chosen,13,33,faces,body_parts,1100,0,10,2
88,22705,0,89,2,2,0,no_gain1,gain1,A,E,46,38,objects,71,77,objects,Stimuli/Experimental_stims/objects/mockup-graphics-PNsj6RiHAF4-unsplash.jpg,Stimuli/Experimental_stims/objects/art-lasovsky-8XddFc6NkBY-unsplash.jpg,0,0,62,1,chosen,38,46,objects,objects,1400,0,10,2
89,22705,0,90,2,2,0,no_gain5,gain2,F,I,24,1,body_parts,70,67,outdoor_scenes,Stimuli/Experimental_stims/body_parts/clay-banks-LjqARJaJotc-unsplash.jpg,Stimuli/Experimental_stims/outdoor_scenes/ashim-d-silva-S2Q5mdOrrVc-unsplash.jpg,0,0,98,1,unchosen,1,24,outdoor_scenes,body_parts,1100,0,10,2
90,22705,0,91,2,2,1,gain3,no_gain3,L,G,28,0,body_parts,84,73,outdoor_scenes,Stimuli/Experimental_stims/body_parts/ira-vishnevskaya-8DQAvdCby1I-unsplash.jpg,Stimuli/Experimental_stims/outdoor_scenes/aleksandra-boguslawska-MS7KD9Ti7FQ-unsplash.jpg,0,1,13,1,unchosen,28,0,body_parts,outdoor_scenes,2900,0,10,2
91,22705,0,92,2,2,1,gain5,no_gain4,C,H,9,10,outdoor_scenes,84,75,outdoor_scenes,Stimuli/Experimental_stims/outdoor_scenes/sergey-pesterev-y-b_FOmJXdg-unsplash.jpg,Stimuli/Experimental_stims/outdoor_scenes/shannon-kunkle-dM8INmkyDas-unsplash.jpg,0,1,131,1,chosen,9,10,outdoor_scenes,outdoor_scenes,1600,0,10,2
92,22705,0,93,2,2,1,gain2,no_gain6,I,B,1,12,outdoor_scenes,67,72,faces,Stimuli/Experimental_stims/outdoor_scenes/ashim-d-silva-S2Q5mdOrrVc-unsplash.jpg,Stimuli/Experimental_stims/faces/aiony-haust-jmATI5Q_YgY-unsplash.jpg,0,1,218,1,unchosen,1,12,outdoor_scenes,faces,1500,0,10,2
93,22705,0,94,2,2,0,no_gain5,gain6,F,J,24,20,body_parts,70,73,faces,Stimuli/Experimental_stims/body_parts/clay-banks-LjqARJaJotc-unsplash.jpg,Stimuli/Experimental_stims/faces/justin-chen-J7Cf1Gch49E-unsplash.jpg,0,1,110,0,unchosen,24,20,body_parts,faces,3800,1,10,2
94,22705,0,95,2,2,0,no_gain6,gain4,B,D,5,16,outdoor_scenes,86,45,faces,Stimuli/Experimental_stims/outdoor_scenes/jeff-king-bJHWJeiHfHc-unsplash.jpg,Stimuli/Experimental_stims/faces/freddy-kearney-o-ioeoATbIM-unsplash.jpg,0,1,192,0,chosen,5,16,outdoor_scenes,faces,1500,0,10,2
95,22705,0,96,2,2,1,gain5,no_gain2,C,K,25,41,body_parts,34,83,objects,Stimuli/Experimental_stims/body_parts/engin-akyurt-Q2rfH3GW39c-unsplash.jpg,Stimuli/Experimental_stims/objects/insung-yoon-w2JtIQQXoRU-unsplash.jpg,0,1,173,1,unchosen,25,41,body_parts,objects,1000,0,10,2
96,22705,0,97,2,2,1,gain4,no_gain4,D,H,42,22,objects,71,83,faces,Stimuli/Experimental_stims/objects/jess-bailey-nOeVi8DsN8U-unsplash.jpg,Stimuli/Experimental_stims/faces/ravi-patel-VMGAbeeJTKo-unsplash.jpg,0,1,241,1,unchosen,42,22,objects,faces,1600,0,10,2
97,22705,0,98,2,2,0,no_gain5,gain3,F,L,23,13,faces,59,68,faces,Stimuli/Experimental_stims/faces/rikonavt-HQjfrvdTfak-unsplash.jpg,Stimuli/Experimental_stims/faces/daniel-rigdon-dXmXKPP2L4E-unsplash.jpg,0,0,201,1,chosen,13,23,faces,faces,1300,0,10,2
98,22705,0,99,2,2,1,gain2,no_gain4,I,H,27,10,body_parts,77,75,outdoor_scenes,Stimuli/Experimental_stims/body_parts/heike-mintel-i_Gns0ELnLw-unsplash.jpg,Stimuli/Experimental_stims/outdoor_scenes/shannon-kunkle-dM8INmkyDas-unsplash.jpg,0,0,214,0,chosen,10,27,outdoor_scenes,body_parts,3500,1,10,2
99,22705,0,100,2,2,0,no_gain2,gain4,K,D,33,16,body_parts,39,45,faces,Stimuli/Experimental_stims/body_parts/tucker-good-36skLT5jZcc-unsplash.jpg,Stimuli/Experimental_stims/faces/freddy-kearney-o-ioeoATbIM-unsplash.jpg,0,0,235,1,chosen,16,33,faces,body_parts,2500,0,10,2
100,22705,0,101,2,2,1,gain5,no_gain6,C,B,25,12,body_parts,34,72,faces,Stimuli/Experimental_stims/body_parts/engin-akyurt-Q2rfH3GW39c-unsplash.jpg,Stimuli/Experimental_stims/faces/aiony-haust-jmATI5Q_YgY-unsplash.jpg,0,1,20,1,unchosen,25,12,body_parts,faces,1100,0,10,2
101,22705,0,102,2,2,1,gain3,no_gain3,L,G,13,47,faces,68,79,objects,Stimuli/Experimental_stims/faces/daniel-rigdon-dXmXKPP2L4E-unsplash.jpg,Stimuli/Experimental_stims/objects/ronaldo-arthur-vidal-Cdz_lvnl37k-unsplash.jpg,0,1,75,1,chosen,13,47,faces,objects,1000,0,10,2
102,22705,0,103,2,2,0,no_gain2,gain1,K,E,41,26,objects,83,61,body_parts,Stimuli/Experimental_stims/objects/insung-yoon-w2JtIQQXoRU-unsplash.jpg,Stimuli/Experimental_stims/body_parts/engin-akyurt-x_3gyC42btc-unsplash.jpg,0,1,240,0,unchosen,41,26,objects,body_parts,2100,0,10,2
103,22705,0,104,2,2,1,gain4,no_gain4,D,H,16,10,faces,45,75,outdoor_scenes,Stimuli/Experimental_stims/faces/freddy-kearney-o-ioeoATbIM-unsplash.jpg,Stimuli/Experimental_stims/outdoor_scenes/shannon-kunkle-dM8INmkyDas-unsplash.jpg,0,1,85,1,chosen,16,10,faces,outdoor_scenes,1300,0,10,2
104,22705,0,105,2,2,0,no_gain2,gain4,K,D,41,42,objects,83,71,objects,Stimuli/Experimental_stims/objects/insung-yoon-w2JtIQQXoRU-unsplash.jpg,Stimuli/Experimental_stims/objects/jess-bailey-nOeVi8DsN8U-unsplash.jpg,0,1,86,0,unchosen,41,42,objects,objects,2000,0,10,2
105,22705,0,106,2,2,1,gain5,no_gain1,C,A,9,46,outdoor_scenes,84,71,objects,Stimuli/Experimental_stims/outdoor_scenes/sergey-pesterev-y-b_FOmJXdg-unsplash.jpg,Stimuli/Experimental_stims/objects/mockup-graphics-PNsj6RiHAF4-unsplash.jpg,0,1,106,1,chosen,9,46,outdoor_scenes,objects,3100,1,10,2
106,22705,0,107,2,2,0,no_gain6,gain3,B,L,12,28,faces,72,84,body_parts,Stimuli/Experimental_stims/faces/aiony-haust-jmATI5Q_YgY-unsplash.jpg,Stimuli/Experimental_stims/body_parts/ira-vishnevskaya-8DQAvdCby1I-unsplash.jpg,0,0,93,1,unchosen,28,12,body_parts,faces,1400,0,10,2
107,22705,0,108,2,2,1,gain6,no_gain1,J,A,40,46,objects,66,71,objects,Stimuli/Experimental_stims/objects/fabian-blank-pElSkGRA2NU-unsplash.jpg,Stimuli/Experimental_stims/objects/mockup-graphics-PNsj6RiHAF4-unsplash.jpg,0,1,130,1,chosen,40,46,objects,objects,1300,0,10,2
108,22705,0,109,2,2,0,no_gain2,gain5,K,C,33,9,body_parts,39,84,outdoor_scenes,Stimuli/Experimental_stims/body_parts/tucker-good-36skLT5jZcc-unsplash.jpg,Stimuli/Experimental_stims/outdoor_scenes/sergey-pesterev-y-b_FOmJXdg-unsplash.jpg,0,1,102,0,chosen,33,9,body_parts,outdoor_scenes,1300,0,10,2
109,22705,0,110,2,2,0,no_gain5,gain5,F,C,24,25,body_parts,70,34,body_parts,Stimuli/Experimental_stims/body_parts/clay-banks-LjqARJaJotc-unsplash.jpg,Stimuli/Experimental_stims/body_parts/engin-akyurt-Q2rfH3GW39c-unsplash.jpg,0,1,147,0,unchosen,24,25,body_parts,body_parts,1200,0,10,2
110,22705,0,111,2,2,0,no_gain5,gain1,F,E,24,26,body_parts,70,61,body_parts,Stimuli/Experimental_stims/body_parts/clay-banks-LjqARJaJotc-unsplash.jpg,Stimuli/Experimental_stims/body_parts/engin-akyurt-x_3gyC42btc-unsplash.jpg,0,1,91,0,unchosen,24,26,body_parts,body_parts,1300,0,10,2
111,22705,0,112,2,2,0,no_gain6,gain5,B,C,5,9,outdoor_scenes,86,84,outdoor_scenes,Stimuli/Experimental_stims/outdoor_scenes/jeff-king-bJHWJeiHfHc-unsplash.jpg,Stimuli/Experimental_stims/outdoor_scenes/sergey-pesterev-y-b_FOmJXdg-unsplash.jpg,0,1,37,0,chosen,5,9,outdoor_scenes,outdoor_scenes,1100,0,10,2
112,22705,0,113,2,2,1,gain2,no_gain2,I,K,27,33,body_parts,77,39,body_parts,Stimuli/Experimental_stims/body_parts/heike-mintel-i_Gns0ELnLw-unsplash.jpg,Stimuli/Experimental_stims/body_parts/tucker-good-36skLT5jZcc-unsplash.jpg,0,0,28,0,chosen,33,27,body_parts,body_parts,1900,0,10,2
113,22705,0,114,2,2,1,gain1,no_gain6,E,B,26,12,body_parts,61,72,faces,Stimuli/Experimental_stims/body_parts/engin-akyurt-x_3gyC42btc-unsplash.jpg,Stimuli/Experimental_stims/faces/aiony-haust-jmATI5Q_YgY-unsplash.jpg,0,1,188,1,unchosen,26,12,body_parts,faces,2100,0,10,2
114,22705,0,115,2,2,0,no_gain3,gain5,G,C,0,25,outdoor_scenes,73,34,body_parts,Stimuli/Experimental_stims/outdoor_scenes/aleksandra-boguslawska-MS7KD9Ti7FQ-unsplash.jpg,Stimuli/Experimental_stims/body_parts/engin-akyurt-Q2rfH3GW39c-unsplash.jpg,0,1,149,0,unchosen,0,25,outdoor_scenes,body_parts,1400,0,10,2
115,22705,0,116,2,2,1,gain3,no_gain6,L,B,13,5,faces,68,86,outdoor_scenes,Stimuli/Experimental_stims/faces/daniel-rigdon-dXmXKPP2L4E-unsplash.jpg,Stimuli/Experimental_stims/outdoor_scenes/jeff-king-bJHWJeiHfHc-unsplash.jpg,0,1,17,1,chosen,13,5,faces,outdoor_scenes,1100,0,10,2
116,22705,0,117,2,2,0,no_gain5,gain5,F,C,23,9,faces,59,84,outdoor_scenes,Stimuli/Experimental_stims/faces/rikonavt-HQjfrvdTfak-unsplash.jpg,Stimuli/Experimental_stims/outdoor_scenes/sergey-pesterev-y-b_FOmJXdg-unsplash.jpg,0,1,27,0,chosen,23,9,faces,outdoor_scenes,1600,0,10,2
117,22705,0,118,2,2,1,gain3,no_gain4,L,H,28,22,body_parts,84,83,faces,Stimuli/Experimental_stims/body_parts/ira-vishnevskaya-8DQAvdCby1I-unsplash.jpg,Stimuli/Experimental_stims/faces/ravi-patel-VMGAbeeJTKo-unsplash.jpg,0,1,136,1,unchosen,28,22,body_parts,faces,1300,0,10,2
118,22705,0,119,2,2,1,gain4,no_gain1,D,A,16,46,faces,45,71,objects,Stimuli/Experimental_stims/faces/freddy-kearney-o-ioeoATbIM-unsplash.jpg,Stimuli/Experimental_stims/objects/mockup-graphics-PNsj6RiHAF4-unsplash.jpg,0,1,32,1,chosen,16,46,faces,objects,2500,0,10,2
119,22705,0,120,2,2,0,no_gain4,gain2,H,I,22,1,faces,83,67,outdoor_scenes,Stimuli/Experimental_stims/faces/ravi-patel-VMGAbeeJTKo-unsplash.jpg,Stimuli/Experimental_stims/outdoor_scenes/ashim-d-silva-S2Q5mdOrrVc-unsplash.jpg,0,1,149,0,unchosen,22,1,faces,outdoor_scenes,4300,1,10,2
120,22705,0,121,2,2,0,no_gain3,gain4,G,D,47,16,objects,79,45,faces,Stimuli/Experimental_stims/objects/ronaldo-arthur-vidal-Cdz_lvnl37k-unsplash.jpg,Stimuli/Experimental_stims/faces/freddy-kearney-o-ioeoATbIM-unsplash.jpg,0,1,93,0,chosen,47,16,objects,faces,2400,0,10,2
121,22705,0,122,2,2,1,gain1,no_gain4,E,H,26,22,body_parts,61,83,faces,Stimuli/Experimental_stims/body_parts/engin-akyurt-x_3gyC42btc-unsplash.jpg,Stimuli/Experimental_stims/faces/ravi-patel-VMGAbeeJTKo-unsplash.jpg,0,1,186,1,unchosen,26,22,body_parts,faces,1800,0,10,2
122,22705,0,123,2,2,1,gain6,no_gain3,J,G,40,47,objects,66,79,objects,Stimuli/Experimental_stims/objects/fabian-blank-pElSkGRA2NU-unsplash.jpg,Stimuli/Experimental_stims/objects/ronaldo-arthur-vidal-Cdz_lvnl37k-unsplash.jpg,0,1,16,1,chosen,40,47,objects,objects,1000,0,10,2
123,22705,0,124,2,2,1,gain5,no_gain1,C,A,25,8,body_parts,34,72,outdoor_scenes,Stimuli/Experimental_stims/body_parts/engin-akyurt-Q2rfH3GW39c-unsplash.jpg,Stimuli/Experimental_stims/outdoor_scenes/samsommer-vddccTqwal8-unsplash.jpg,0,1,337,1,unchosen,25,8,body_parts,outdoor_scenes,2000,0,10,2
124,22705,0,125,2,2,1,gain3,no_gain2,L,K,28,41,body_parts,84,83,objects,Stimuli/Experimental_stims/body_parts/ira-vishnevskaya-8DQAvdCby1I-unsplash.jpg,Stimuli/Experimental_stims/objects/insung-yoon-w2JtIQQXoRU-unsplash.jpg,0,1,138,1,unchosen,28,41,body_parts,objects,2700,0,10,2
125,22705,0,126,2,2,0,no_gain2,gain2,K,I,41,1,objects,83,67,outdoor_scenes,Stimuli/Experimental_stims/objects/insung-yoon-w2JtIQQXoRU-unsplash.jpg,Stimuli/Experimental_stims/outdoor_scenes/ashim-d-silva-S2Q5mdOrrVc-unsplash.jpg,0,1,125,0,unchosen,41,1,objects,outdoor_scenes,2500,0,10,2
126,22705,0,127,2,2,0,no_gain4,gain1,H,E,10,38,outdoor_scenes,75,77,objects,Stimuli/Experimental_stims/outdoor_scenes/shannon-kunkle-dM8INmkyDas-unsplash.jpg,Stimuli/Experimental_stims/objects/art-lasovsky-8XddFc6NkBY-unsplash.jpg,0,0,6,1,chosen,38,10,objects,outdoor_scenes,1800,0,10,2
127,22705,0,128,2,2,1,gain4,no_gain6,D,B,42,12,objects,71,72,faces,Stimuli/Experimental_stims/objects/jess-bailey-nOeVi8DsN8U-unsplash.jpg,Stimuli/Experimental_stims/faces/aiony-haust-jmATI5Q_YgY-unsplash.jpg,0,1,30,1,unchosen,42,12,objects,faces,1200,0,10,2
128,22705,0,129,2,2,0,no_gain1,gain2,A,I,8,1,outdoor_scenes,72,67,outdoor_scenes,Stimuli/Experimental_stims/outdoor_scenes/samsommer-vddccTqwal8-unsplash.jpg,Stimuli/Experimental_stims/outdoor_scenes/ashim-d-silva-S2Q5mdOrrVc-unsplash.jpg,0,1,122,0,unchosen,8,1,outdoor_scenes,outdoor_scenes,3800,1,10,2
129,22705,0,130,2,2,1,gain1,no_gain6,E,B,38,5,objects,77,86,outdoor_scenes,Stimuli/Experimental_stims/objects/art-lasovsky-8XddFc6NkBY-unsplash.jpg,Stimuli/Experimental_stims/outdoor_scenes/jeff-king-bJHWJeiHfHc-unsplash.jpg,0,1,177,1,chosen,38,5,objects,outdoor_scenes,1300,0,10,2
130,22705,0,131,2,2,1,gain6,no_gain4,J,H,20,22,faces,73,83,faces,Stimuli/Experimental_stims/faces/justin-chen-J7Cf1Gch49E-unsplash.jpg,Stimuli/Experimental_stims/faces/ravi-patel-VMGAbeeJTKo-unsplash.jpg,0,1,101,1,unchosen,20,22,faces,faces,2900,0,10,2
131,22705,0,132,2,2,0,no_gain5,gain2,F,I,23,27,faces,59,77,body_parts,Stimuli/Experimental_stims/faces/rikonavt-HQjfrvdTfak-unsplash.jpg,Stimuli/Experimental_stims/body_parts/heike-mintel-i_Gns0ELnLw-unsplash.jpg,0,1,85,0,chosen,23,27,faces,body_parts,1200,0,10,2
132,22705,0,133,2,2,0,no_gain5,gain6,F,J,23,40,faces,59,66,objects,Stimuli/Experimental_stims/faces/rikonavt-HQjfrvdTfak-unsplash.jpg,Stimuli/Experimental_stims/objects/fabian-blank-pElSkGRA2NU-unsplash.jpg,0,1,10,0,chosen,23,40,faces,objects,1300,0,10,2
133,22705,0,134,2,2,0,no_gain2,gain6,K,J,41,20,objects,83,73,faces,Stimuli/Experimental_stims/objects/insung-yoon-w2JtIQQXoRU-unsplash.jpg,Stimuli/Experimental_stims/faces/justin-chen-J7Cf1Gch49E-unsplash.jpg,0,0,147,1,unchosen,20,41,faces,objects,2500,0,10,2
134,22705,0,135,2,2,1,gain5,no_gain3,C,G,9,47,outdoor_scenes,84,79,objects,Stimuli/Experimental_stims/outdoor_scenes/sergey-pesterev-y-b_FOmJXdg-unsplash.jpg,Stimuli/Experimental_stims/objects/ronaldo-arthur-vidal-Cdz_lvnl37k-unsplash.jpg,0,0,117,0,chosen,47,9,objects,outdoor_scenes,3000,0,10,2
135,22705,0,136,2,2,1,gain4,no_gain5,D,F,16,23,faces,45,59,faces,Stimuli/Experimental_stims/faces/freddy-kearney-o-ioeoATbIM-unsplash.jpg,Stimuli/Experimental_stims/faces/rikonavt-HQjfrvdTfak-unsplash.jpg,0,0,49,0,chosen,23,16,faces,faces,4200,1,10,2
136,22705,0,137,2,2,0,no_gain6,gain6,B,J,12,20,faces,72,73,faces,Stimuli/Experimental_stims/faces/aiony-haust-jmATI5Q_YgY-unsplash.jpg,Stimuli/Experimental_stims/faces/justin-chen-J7Cf1Gch49E-unsplash.jpg,0,1,113,0,unchosen,12,20,faces,faces,1700,0,10,2
137,22705,0,138,2,2,0,no_gain3,gain1,G,E,47,38,objects,79,77,objects,Stimuli/Experimental_stims/objects/ronaldo-arthur-vidal-Cdz_lvnl37k-unsplash.jpg,Stimuli/Experimental_stims/objects/art-lasovsky-8XddFc6NkBY-unsplash.jpg,0,1,117,0,chosen,47,38,objects,objects,1300,0,10,2
138,22705,0,139,2,2,0,no_gain2,gain1,K,E,33,38,body_parts,39,77,objects,Stimuli/Experimental_stims/body_parts/tucker-good-36skLT5jZcc-unsplash.jpg,Stimuli/Experimental_stims/objects/art-lasovsky-8XddFc6NkBY-unsplash.jpg,0,0,278,1,chosen,38,33,objects,body_parts,1100,0,10,2
139,22705,0,140,2,2,0,no_gain2,gain6,K,J,33,40,body_parts,39,66,objects,Stimuli/Experimental_stims/body_parts/tucker-good-36skLT5jZcc-unsplash.jpg,Stimuli/Experimental_stims/objects/fabian-blank-pElSkGRA2NU-unsplash.jpg,0,1,117,0,chosen,33,40,body_parts,objects,1300,0,10,2
140,22705,0,141,2,2,1,gain5,no_gain4,C,H,25,22,body_parts,34,83,faces,Stimuli/Experimental_stims/body_parts/engin-akyurt-Q2rfH3GW39c-unsplash.jpg,Stimuli/Experimental_stims/faces/ravi-patel-VMGAbeeJTKo-unsplash.jpg,0,1,21,1,unchosen,25,22,body_parts,faces,1500,0,10,2
141,22705,0,142,2,2,0,no_gain5,gain1,F,E,23,38,faces,59,77,objects,Stimuli/Experimental_stims/faces/rikonavt-HQjfrvdTfak-unsplash.jpg,Stimuli/Experimental_stims/objects/art-lasovsky-8XddFc6NkBY-unsplash.jpg,0,0,29,1,chosen,38,23,objects,faces,1800,0,10,2
142,22705,0,143,2,2,0,no_gain1,gain4,A,D,8,42,outdoor_scenes,72,71,objects,Stimuli/Experimental_stims/outdoor_scenes/samsommer-vddccTqwal8-unsplash.jpg,Stimuli/Experimental_stims/objects/jess-bailey-nOeVi8DsN8U-unsplash.jpg,0,1,98,0,unchosen,8,42,outdoor_scenes,objects,1400,0,10,2
143,22705,0,144,2,2,1,gain3,no_gain5,L,F,28,24,body_parts,84,70,body_parts,Stimuli/Experimental_stims/body_parts/ira-vishnevskaya-8DQAvdCby1I-unsplash.jpg,Stimuli/Experimental_stims/body_parts/clay-banks-LjqARJaJotc-unsplash.jpg,0,0,130,0,unchosen,24,28,body_parts,body_parts,1400,0,10,2
144,22705,0,145,2,2,0,no_gain4,gain3,H,L,10,13,outdoor_scenes,75,68,faces,Stimuli/Experimental_stims/outdoor_scenes/shannon-kunkle-dM8INmkyDas-unsplash.jpg,Stimuli/Experimental_stims/faces/daniel-rigdon-dXmXKPP2L4E-unsplash.jpg,0,0,50,1,chosen,13,10,faces,outdoor_scenes,1600,0,10,2
145,22705,0,146,2,2,1,gain1,no_gain3,E,G,26,0,body_parts,61,73,outdoor_scenes,Stimuli/Experimental_stims/body_parts/engin-akyurt-x_3gyC42btc-unsplash.jpg,Stimuli/Experimental_stims/outdoor_scenes/aleksandra-boguslawska-MS7KD9Ti7FQ-unsplash.jpg,0,0,42,0,unchosen,0,26,outdoor_scenes,body_parts,2000,0,10,2
146,22705,0,147,2,2,0,no_gain1,gain1,A,E,8,26,outdoor_scenes,72,61,body_parts,Stimuli/Experimental_stims/outdoor_scenes/samsommer-vddccTqwal8-unsplash.jpg,Stimuli/Experimental_stims/body_parts/engin-akyurt-x_3gyC42btc-unsplash.jpg,0,1,90,0,unchosen,8,26,outdoor_scenes,body_parts,2500,0,10,2
147,22705,0,148,2,2,1,gain2,no_gain3,I,G,27,47,body_parts,77,79,objects,Stimuli/Experimental_stims/body_parts/heike-mintel-i_Gns0ELnLw-unsplash.jpg,Stimuli/Experimental_stims/objects/ronaldo-arthur-vidal-Cdz_lvnl37k-unsplash.jpg,0,0,118,0,chosen,47,27,objects,body_parts,3300,1,10,2
148,22705,0,149,3,3,0,no_gain1,gain2,A,I,8,1,outdoor_scenes,72,67,outdoor_scenes,Stimuli/Experimental_stims/outdoor_scenes/samsommer-vddccTqwal8-unsplash.jpg,Stimuli/Experimental_stims/outdoor_scenes/ashim-d-silva-S2Q5mdOrrVc-unsplash.jpg,0,0,778,1,unchosen,1,8,outdoor_scenes,outdoor_scenes,2200,0,10,2
149,22705,0,150,3,3,1,gain2,no_gain4,I,H,1,22,outdoor_scenes,67,83,faces,Stimuli/Experimental_stims/outdoor_scenes/ashim-d-silva-S2Q5mdOrrVc-unsplash.jpg,Stimuli/Experimental_stims/faces/ravi-patel-VMGAbeeJTKo-unsplash.jpg,0,0,97,0,unchosen,22,1,faces,outdoor_scenes,1200,0,10,2
150,22705,0,151,3,3,0,no_gain5,gain1,F,E,24,26,body_parts,70,61,body_parts,Stimuli/Experimental_stims/body_parts/clay-banks-LjqARJaJotc-unsplash.jpg,Stimuli/Experimental_stims/body_parts/engin-akyurt-x_3gyC42btc-unsplash.jpg,0,0,89,1,unchosen,26,24,body_parts,body_parts,1700,0,10,2
151,22705,0,152,3,3,0,no_gain6,gain4,B,D,5,16,outdoor_scenes,86,45,faces,Stimuli/Experimental_stims/outdoor_scenes/jeff-king-bJHWJeiHfHc-unsplash.jpg,Stimuli/Experimental_stims/faces/freddy-kearney-o-ioeoATbIM-unsplash.jpg,0,0,117,1,chosen,16,5,faces,outdoor_scenes,1100,0,10,2
152,22705,0,153,3,3,0,no_gain1,gain3,A,L,46,13,objects,71,68,faces,Stimuli/Experimental_stims/objects/mockup-graphics-PNsj6RiHAF4-unsplash.jpg,Stimuli/Experimental_stims/faces/daniel-rigdon-dXmXKPP2L4E-unsplash.jpg,0,1,0,0,chosen,46,13,objects,faces,1000,0,10,2
153,22705,0,154,3,3,1,gain4,no_gain3,D,G,42,0,objects,71,73,outdoor_scenes,Stimuli/Experimental_stims/objects/jess-bailey-nOeVi8DsN8U-unsplash.jpg,Stimuli/Experimental_stims/outdoor_scenes/aleksandra-boguslawska-MS7KD9Ti7FQ-unsplash.jpg,0,1,45,1,unchosen,42,0,objects,outdoor_scenes,1900,0,10,2
154,22705,0,155,3,3,1,gain3,no_gain3,L,G,28,0,body_parts,84,73,outdoor_scenes,Stimuli/Experimental_stims/body_parts/ira-vishnevskaya-8DQAvdCby1I-unsplash.jpg,Stimuli/Experimental_stims/outdoor_scenes/aleksandra-boguslawska-MS7KD9Ti7FQ-unsplash.jpg,0,1,14,1,unchosen,28,0,body_parts,outdoor_scenes,4700,1,10,2
155,22705,0,156,3,3,1,gain5,no_gain5,C,F,9,23,outdoor_scenes,84,59,faces,Stimuli/Experimental_stims/outdoor_scenes/sergey-pesterev-y-b_FOmJXdg-unsplash.jpg,Stimuli/Experimental_stims/faces/rikonavt-HQjfrvdTfak-unsplash.jpg,0,1,29,1,chosen,9,23,outdoor_scenes,faces,2400,0,10,2
156,22705,0,157,3,3,1,gain6,no_gain3,J,G,20,0,faces,73,73,outdoor_scenes,Stimuli/Experimental_stims/faces/justin-chen-J7Cf1Gch49E-unsplash.jpg,Stimuli/Experimental_stims/outdoor_scenes/aleksandra-boguslawska-MS7KD9Ti7FQ-unsplash.jpg,0,1,41,1,unchosen,20,0,faces,outdoor_scenes,1900,0,10,2
157,22705,0,158,3,3,1,gain1,no_gain4,E,H,38,10,objects,77,75,outdoor_scenes,Stimuli/Experimental_stims/objects/art-lasovsky-8XddFc6NkBY-unsplash.jpg,Stimuli/Experimental_stims/outdoor_scenes/shannon-kunkle-dM8INmkyDas-unsplash.jpg,0,1,110,1,chosen,38,10,objects,outdoor_scenes,1000,0,10,2
158,22705,0,159,3,3,0,no_gain2,gain6,K,J,33,40,body_parts,39,66,objects,Stimuli/Experimental_stims/body_parts/tucker-good-36skLT5jZcc-unsplash.jpg,Stimuli/Experimental_stims/objects/fabian-blank-pElSkGRA2NU-unsplash.jpg,0,1,209,0,chosen,33,40,body_parts,objects,1800,0,10,2
159,22705,0,160,3,3,1,gain4,no_gain4,D,H,42,22,objects,71,83,faces,Stimuli/Experimental_stims/objects/jess-bailey-nOeVi8DsN8U-unsplash.jpg,Stimuli/Experimental_stims/faces/ravi-patel-VMGAbeeJTKo-unsplash.jpg,0,1,130,1,unchosen,42,22,objects,faces,1800,0,10,2
160,22705,0,161,3,3,0,no_gain4,gain3,H,L,22,28,faces,83,84,body_parts,Stimuli/Experimental_stims/faces/ravi-patel-VMGAbeeJTKo-unsplash.jpg,Stimuli/Experimental_stims/body_parts/ira-vishnevskaya-8DQAvdCby1I-unsplash.jpg,0,1,113,0,unchosen,22,28,faces,body_parts,4700,1,10,2
161,22705,0,162,3,3,0,no_gain1,gain4,A,D,8,42,outdoor_scenes,72,71,objects,Stimuli/Experimental_stims/outdoor_scenes/samsommer-vddccTqwal8-unsplash.jpg,Stimuli/Experimental_stims/objects/jess-bailey-nOeVi8DsN8U-unsplash.jpg,0,0,157,1,unchosen,42,8,objects,outdoor_scenes,1300,0,10,2
162,22705,0,163,3,3,1,gain2,no_gain5,I,F,27,23,body_parts,77,59,faces,Stimuli/Experimental_stims/body_parts/heike-mintel-i_Gns0ELnLw-unsplash.jpg,Stimuli/Experimental_stims/faces/rikonavt-HQjfrvdTfak-unsplash.jpg,0,0,148,0,chosen,23,27,faces,body_parts,1200,0,10,2
163,22705,0,164,3,3,0,no_gain3,gain4,G,D,47,16,objects,79,45,faces,Stimuli/Experimental_stims/objects/ronaldo-arthur-vidal-Cdz_lvnl37k-unsplash.jpg,Stimuli/Experimental_stims/faces/freddy-kearney-o-ioeoATbIM-unsplash.jpg,0,0,42,1,chosen,16,47,faces,objects,1600,0,10,2
164,22705,0,165,3,3,0,no_gain2,gain5,K,C,41,25,objects,83,34,body_parts,Stimuli/Experimental_stims/objects/insung-yoon-w2JtIQQXoRU-unsplash.jpg,Stimuli/Experimental_stims/body_parts/engin-akyurt-Q2rfH3GW39c-unsplash.jpg,0,1,106,0,unchosen,41,25,objects,body_parts,1200,0,10,2
165,22705,0,166,3,3,1,gain6,no_gain5,J,F,20,24,faces,73,70,body_parts,Stimuli/Experimental_stims/faces/justin-chen-J7Cf1Gch49E-unsplash.jpg,Stimuli/Experimental_stims/body_parts/clay-banks-LjqARJaJotc-unsplash.jpg,0,1,74,1,unchosen,20,24,faces,body_parts,1100,0,10,2
166,22705,0,167,3,3,0,no_gain6,gain3,B,L,5,13,outdoor_scenes,86,68,faces,Stimuli/Experimental_stims/outdoor_scenes/jeff-king-bJHWJeiHfHc-unsplash.jpg,Stimuli/Experimental_stims/faces/daniel-rigdon-dXmXKPP2L4E-unsplash.jpg,0,1,46,0,chosen,5,13,outdoor_scenes,faces,3100,1,10,2
167,22705,0,168,3,3,0,no_gain5,gain3,F,L,24,28,body_parts,70,84,body_parts,Stimuli/Experimental_stims/body_parts/clay-banks-LjqARJaJotc-unsplash.jpg,Stimuli/Experimental_stims/body_parts/ira-vishnevskaya-8DQAvdCby1I-unsplash.jpg,0,0,125,1,unchosen,28,24,body_parts,body_parts,1500,0,10,2
168,22705,0,169,3,3,0,no_gain4,gain3,H,L,10,13,outdoor_scenes,75,68,faces,Stimuli/Experimental_stims/outdoor_scenes/shannon-kunkle-dM8INmkyDas-unsplash.jpg,Stimuli/Experimental_stims/faces/daniel-rigdon-dXmXKPP2L4E-unsplash.jpg,0,1,45,0,chosen,10,13,outdoor_scenes,faces,1000,0,10,2
169,22705,0,170,3,3,0,no_gain5,gain2,F,I,24,1,body_parts,70,67,outdoor_scenes,Stimuli/Experimental_stims/body_parts/clay-banks-LjqARJaJotc-unsplash.jpg,Stimuli/Experimental_stims/outdoor_scenes/ashim-d-silva-S2Q5mdOrrVc-unsplash.jpg,0,0,97,1,unchosen,1,24,outdoor_scenes,body_parts,1500,0,10,2
170,22705,0,171,3,3,0,no_gain3,gain2,G,I,47,27,objects,79,77,body_parts,Stimuli/Experimental_stims/objects/ronaldo-arthur-vidal-Cdz_lvnl37k-unsplash.jpg,Stimuli/Experimental_stims/body_parts/heike-mintel-i_Gns0ELnLw-unsplash.jpg,0,1,510,0,chosen,47,27,objects,body_parts,1400,0,10,2
171,22705,0,172,3,3,1,gain1,no_gain2,E,K,38,33,objects,77,39,body_parts,Stimuli/Experimental_stims/objects/art-lasovsky-8XddFc6NkBY-unsplash.jpg,Stimuli/Experimental_stims/body_parts/tucker-good-36skLT5jZcc-unsplash.jpg,0,1,193,1,chosen,38,33,objects,body_parts,3500,1,10,2
172,22705,0,173,3,3,0,no_gain4,gain2,H,I,10,27,outdoor_scenes,75,77,body_parts,Stimuli/Experimental_stims/outdoor_scenes/shannon-kunkle-dM8INmkyDas-unsplash.jpg,Stimuli/Experimental_stims/body_parts/heike-mintel-i_Gns0ELnLw-unsplash.jpg,0,0,172,1,chosen,27,10,body_parts,outdoor_scenes,1600,0,10,2
173,22705,0,174,3,3,0,no_gain4,gain5,H,C,22,25,faces,83,34,body_parts,Stimuli/Experimental_stims/faces/ravi-patel-VMGAbeeJTKo-unsplash.jpg,Stimuli/Experimental_stims/body_parts/engin-akyurt-Q2rfH3GW39c-unsplash.jpg,0,0,88,1,unchosen,25,22,body_parts,faces,2200,0,10,2
174,22705,0,175,3,3,0,no_gain3,gain2,G,I,0,1,outdoor_scenes,73,67,outdoor_scenes,Stimuli/Experimental_stims/outdoor_scenes/aleksandra-boguslawska-MS7KD9Ti7FQ-unsplash.jpg,Stimuli/Experimental_stims/outdoor_scenes/ashim-d-silva-S2Q5mdOrrVc-unsplash.jpg,0,0,17,1,unchosen,1,0,outdoor_scenes,outdoor_scenes,1200,0,10,2
175,22705,0,176,3,3,1,gain2,no_gain2,I,K,1,41,outdoor_scenes,67,83,objects,Stimuli/Experimental_stims/outdoor_scenes/ashim-d-silva-S2Q5mdOrrVc-unsplash.jpg,Stimuli/Experimental_stims/objects/insung-yoon-w2JtIQQXoRU-unsplash.jpg,0,0,121,0,unchosen,41,1,objects,outdoor_scenes,1900,0,10,2
176,22705,0,177,3,3,0,no_gain6,gain5,B,C,5,9,outdoor_scenes,86,84,outdoor_scenes,Stimuli/Experimental_stims/outdoor_scenes/jeff-king-bJHWJeiHfHc-unsplash.jpg,Stimuli/Experimental_stims/outdoor_scenes/sergey-pesterev-y-b_FOmJXdg-unsplash.jpg,0,0,108,1,chosen,9,5,outdoor_scenes,outdoor_scenes,2000,0,10,2
177,22705,0,178,3,3,1,gain6,no_gain1,J,A,40,46,objects,66,71,objects,Stimuli/Experimental_stims/objects/fabian-blank-pElSkGRA2NU-unsplash.jpg,Stimuli/Experimental_stims/objects/mockup-graphics-PNsj6RiHAF4-unsplash.jpg,0,1,23,1,chosen,40,46,objects,objects,1800,0,10,2
178,22705,0,179,3,3,0,no_gain1,gain2,A,I,46,27,objects,71,77,body_parts,Stimuli/Experimental_stims/objects/mockup-graphics-PNsj6RiHAF4-unsplash.jpg,Stimuli/Experimental_stims/body_parts/heike-mintel-i_Gns0ELnLw-unsplash.jpg,0,0,194,1,chosen,27,46,body_parts,objects,2200,0,10,2
179,22705,0,180,3,3,0,no_gain2,gain3,K,L,41,28,objects,83,84,body_parts,Stimuli/Experimental_stims/objects/insung-yoon-w2JtIQQXoRU-unsplash.jpg,Stimuli/Experimental_stims/body_parts/ira-vishnevskaya-8DQAvdCby1I-unsplash.jpg,0,1,66,0,unchosen,41,28,objects,body_parts,2300,0,10,2
180,22705,0,181,3,3,1,gain6,no_gain3,J,G,40,47,objects,66,79,objects,Stimuli/Experimental_stims/objects/fabian-blank-pElSkGRA2NU-unsplash.jpg,Stimuli/Experimental_stims/objects/ronaldo-arthur-vidal-Cdz_lvnl37k-unsplash.jpg,0,0,71,0,chosen,47,40,objects,objects,4300,1,10,2
181,22705,0,182,3,3,1,gain5,no_gain3,C,G,9,47,outdoor_scenes,84,79,objects,Stimuli/Experimental_stims/outdoor_scenes/sergey-pesterev-y-b_FOmJXdg-unsplash.jpg,Stimuli/Experimental_stims/objects/ronaldo-arthur-vidal-Cdz_lvnl37k-unsplash.jpg,0,0,29,0,chosen,47,9,objects,outdoor_scenes,1600,0,10,2
182,22705,0,183,3,3,0,no_gain2,gain4,K,D,41,42,objects,83,71,objects,Stimuli/Experimental_stims/objects/insung-yoon-w2JtIQQXoRU-unsplash.jpg,Stimuli/Experimental_stims/objects/jess-bailey-nOeVi8DsN8U-unsplash.jpg,0,0,199,1,unchosen,42,41,objects,objects,1600,0,10,2
183,22705,0,184,3,3,1,gain3,no_gain1,L,A,28,8,body_parts,84,72,outdoor_scenes,Stimuli/Experimental_stims/body_parts/ira-vishnevskaya-8DQAvdCby1I-unsplash.jpg,Stimuli/Experimental_stims/outdoor_scenes/samsommer-vddccTqwal8-unsplash.jpg,0,1,153,1,unchosen,28,8,body_parts,outdoor_scenes,1100,0,10,2
184,22705,0,185,3,3,1,gain6,no_gain6,J,B,40,5,objects,66,86,outdoor_scenes,Stimuli/Experimental_stims/objects/fabian-blank-pElSkGRA2NU-unsplash.jpg,Stimuli/Experimental_stims/outdoor_scenes/jeff-king-bJHWJeiHfHc-unsplash.jpg,0,0,173,0,chosen,5,40,outdoor_scenes,objects,1000,0,10,2
185,22705,0,186,3,3,0,no_gain1,gain5,A,C,46,9,objects,71,84,outdoor_scenes,Stimuli/Experimental_stims/objects/mockup-graphics-PNsj6RiHAF4-unsplash.jpg,Stimuli/Experimental_stims/outdoor_scenes/sergey-pesterev-y-b_FOmJXdg-unsplash.jpg,0,1,97,0,chosen,46,9,objects,outdoor_scenes,1000,0,10,2
186,22705,0,187,3,3,0,no_gain1,gain5,A,C,8,25,outdoor_scenes,72,34,body_parts,Stimuli/Experimental_stims/outdoor_scenes/samsommer-vddccTqwal8-unsplash.jpg,Stimuli/Experimental_stims/body_parts/engin-akyurt-Q2rfH3GW39c-unsplash.jpg,0,1,49,0,unchosen,8,25,outdoor_scenes,body_parts,3000,1,10,2
187,22705,0,188,3,3,1,gain4,no_gain1,D,A,16,46,faces,45,71,objects,Stimuli/Experimental_stims/faces/freddy-kearney-o-ioeoATbIM-unsplash.jpg,Stimuli/Experimental_stims/objects/mockup-graphics-PNsj6RiHAF4-unsplash.jpg,0,0,129,0,chosen,46,16,objects,faces,1000,0,10,2
188,22705,0,189,3,3,1,gain3,no_gain3,L,G,13,47,faces,68,79,objects,Stimuli/Experimental_stims/faces/daniel-rigdon-dXmXKPP2L4E-unsplash.jpg,Stimuli/Experimental_stims/objects/ronaldo-arthur-vidal-Cdz_lvnl37k-unsplash.jpg,0,1,161,1,chosen,13,47,faces,objects,1600,0,10,2
189,22705,0,190,3,3,0,no_gain2,gain5,K,C,33,9,body_parts,39,84,outdoor_scenes,Stimuli/Experimental_stims/body_parts/tucker-good-36skLT5jZcc-unsplash.jpg,Stimuli/Experimental_stims/outdoor_scenes/sergey-pesterev-y-b_FOmJXdg-unsplash.jpg,0,0,281,1,chosen,9,33,outdoor_scenes,body_parts,1500,0,10,2
190,22705,0,191,3,3,0,no_gain1,gain6,A,J,8,20,outdoor_scenes,72,73,faces,Stimuli/Experimental_stims/outdoor_scenes/samsommer-vddccTqwal8-unsplash.jpg,Stimuli/Experimental_stims/faces/justin-chen-J7Cf1Gch49E-unsplash.jpg,0,0,93,1,unchosen,20,8,faces,outdoor_scenes,1700,0,10,2
191,22705,0,192,3,3,1,gain5,no_gain6,C,B,25,12,body_parts,34,72,faces,Stimuli/Experimental_stims/body_parts/engin-akyurt-Q2rfH3GW39c-unsplash.jpg,Stimuli/Experimental_stims/faces/aiony-haust-jmATI5Q_YgY-unsplash.jpg,0,0,37,0,unchosen,12,25,faces,body_parts,1300,0,10,2
192,22705,0,193,3,3,0,no_gain5,gain4,F,D,24,42,body_parts,70,71,objects,Stimuli/Experimental_stims/body_parts/clay-banks-LjqARJaJotc-unsplash.jpg,Stimuli/Experimental_stims/objects/jess-bailey-nOeVi8DsN8U-unsplash.jpg,0,1,166,0,unchosen,24,42,body_parts,objects,1300,0,10,2
193,22705,0,194,3,3,1,gain1,no_gain5,E,F,38,23,objects,77,59,faces,Stimuli/Experimental_stims/objects/art-lasovsky-8XddFc6NkBY-unsplash.jpg,Stimuli/Experimental_stims/faces/rikonavt-HQjfrvdTfak-unsplash.jpg,0,0,309,0,chosen,23,38,faces,objects,3600,1,10,2
194,22705,0,195,3,3,1,gain6,no_gain4,J,H,20,22,faces,73,83,faces,Stimuli/Experimental_stims/faces/justin-chen-J7Cf1Gch49E-unsplash.jpg,Stimuli/Experimental_stims/faces/ravi-patel-VMGAbeeJTKo-unsplash.jpg,0,1,26,1,unchosen,20,22,faces,faces,2100,0,10,2
195,22705,0,196,3,3,1,gain1,no_gain1,E,A,38,46,objects,77,71,objects,Stimuli/Experimental_stims/objects/art-lasovsky-8XddFc6NkBY-unsplash.jpg,Stimuli/Experimental_stims/objects/mockup-graphics-PNsj6RiHAF4-unsplash.jpg,0,0,5,0,chosen,46,38,objects,objects,1600,0,10,2
196,22705,0,197,3,3,1,gain4,no_gain6,D,B,42,12,objects,71,72,faces,Stimuli/Experimental_stims/objects/jess-bailey-nOeVi8DsN8U-unsplash.jpg,Stimuli/Experimental_stims/faces/aiony-haust-jmATI5Q_YgY-unsplash.jpg,0,1,3,1,unchosen,42,12,objects,faces,1800,0,10,2
197,22705,0,198,3,3,1,gain3,no_gain6,L,B,28,12,body_parts,84,72,faces,Stimuli/Experimental_stims/body_parts/ira-vishnevskaya-8DQAvdCby1I-unsplash.jpg,Stimuli/Experimental_stims/faces/aiony-haust-jmATI5Q_YgY-unsplash.jpg,0,0,27,0,unchosen,12,28,faces,body_parts,1600,0,10,2
198,22705,0,199,3,3,1,gain1,no_gain3,E,G,38,47,objects,77,79,objects,Stimuli/Experimental_stims/objects/art-lasovsky-8XddFc6NkBY-unsplash.jpg,Stimuli/Experimental_stims/objects/ronaldo-arthur-vidal-Cdz_lvnl37k-unsplash.jpg,0,1,167,1,chosen,38,47,objects,objects,3100,1,10,2
199,22705,0,200,3,3,0,no_gain5,gain4,F,D,23,16,faces,59,45,faces,Stimuli/Experimental_stims/faces/rikonavt-HQjfrvdTfak-unsplash.jpg,Stimuli/Experimental_stims/faces/freddy-kearney-o-ioeoATbIM-unsplash.jpg,0,0,253,1,chosen,16,23,faces,faces,2500,0,10,2
200,22705,0,201,3,3,0,no_gain1,gain1,A,E,8,26,outdoor_scenes,72,61,body_parts,Stimuli/Experimental_stims/outdoor_scenes/samsommer-vddccTqwal8-unsplash.jpg,Stimuli/Experimental_stims/body_parts/engin-akyurt-x_3gyC42btc-unsplash.jpg,0,0,36,1,unchosen,26,8,body_parts,outdoor_scenes,2000,0,10,2
201,22705,0,202,3,3,0,no_gain4,gain4,H,D,10,16,outdoor_scenes,75,45,faces,Stimuli/Experimental_stims/outdoor_scenes/shannon-kunkle-dM8INmkyDas-unsplash.jpg,Stimuli/Experimental_stims/faces/freddy-kearney-o-ioeoATbIM-unsplash.jpg,0,1,40,0,chosen,10,16,outdoor_scenes,faces,2100,0,10,2
202,22705,0,203,3,3,1,gain3,no_gain5,L,F,13,23,faces,68,59,faces,Stimuli/Experimental_stims/faces/daniel-rigdon-dXmXKPP2L4E-unsplash.jpg,Stimuli/Experimental_stims/faces/rikonavt-HQjfrvdTfak-unsplash.jpg,0,1,165,1,chosen,13,23,faces,faces,1200,0,10,2
203,22705,0,204,3,3,1,gain1,no_gain6,E,B,26,12,body_parts,61,72,faces,Stimuli/Experimental_stims/body_parts/engin-akyurt-x_3gyC42btc-unsplash.jpg,Stimuli/Experimental_stims/faces/aiony-haust-jmATI5Q_YgY-unsplash.jpg,0,0,89,0,unchosen,12,26,faces,body_parts,3300,1,10,2
204,22705,0,205,3,3,1,gain3,no_gain2,L,K,13,33,faces,68,39,body_parts,Stimuli/Experimental_stims/faces/daniel-rigdon-dXmXKPP2L4E-unsplash.jpg,Stimuli/Experimental_stims/body_parts/tucker-good-36skLT5jZcc-unsplash.jpg,0,1,68,1,chosen,13,33,faces,body_parts,2100,0,10,2
205,22705,0,206,3,3,0,no_gain4,gain5,H,C,10,9,outdoor_scenes,75,84,outdoor_scenes,Stimuli/Experimental_stims/outdoor_scenes/shannon-kunkle-dM8INmkyDas-unsplash.jpg,Stimuli/Experimental_stims/outdoor_scenes/sergey-pesterev-y-b_FOmJXdg-unsplash.jpg,0,0,54,1,chosen,9,10,outdoor_scenes,outdoor_scenes,2100,0,10,2
206,22705,0,207,3,3,1,gain2,no_gain6,I,B,27,5,body_parts,77,86,outdoor_scenes,Stimuli/Experimental_stims/body_parts/heike-mintel-i_Gns0ELnLw-unsplash.jpg,Stimuli/Experimental_stims/outdoor_scenes/jeff-king-bJHWJeiHfHc-unsplash.jpg,0,0,21,0,chosen,5,27,outdoor_scenes,body_parts,2600,0,10,2
207,22705,0,208,3,3,1,gain1,no_gain2,E,K,26,41,body_parts,61,83,objects,Stimuli/Experimental_stims/body_parts/engin-akyurt-x_3gyC42btc-unsplash.jpg,Stimuli/Experimental_stims/objects/insung-yoon-w2JtIQQXoRU-unsplash.jpg,0,0,146,0,unchosen,41,26,objects,body_parts,2800,0,10,2
208,22705,0,209,3,3,1,gain1,no_gain4,E,H,26,22,body_parts,61,83,faces,Stimuli/Experimental_stims/body_parts/engin-akyurt-x_3gyC42btc-unsplash.jpg,Stimuli/Experimental_stims/faces/ravi-patel-VMGAbeeJTKo-unsplash.jpg,0,0,73,0,unchosen,22,26,faces,body_parts,2100,0,10,2
209,22705,0,210,3,3,0,no_gain6,gain1,B,E,5,38,outdoor_scenes,86,77,objects,Stimuli/Experimental_stims/outdoor_scenes/jeff-king-bJHWJeiHfHc-unsplash.jpg,Stimuli/Experimental_stims/objects/art-lasovsky-8XddFc6NkBY-unsplash.jpg,0,1,148,0,chosen,5,38,outdoor_scenes,objects,1300,0,10,2
210,22705,0,211,3,3,0,no_gain5,gain6,F,J,23,40,faces,59,66,objects,Stimuli/Experimental_stims/faces/rikonavt-HQjfrvdTfak-unsplash.jpg,Stimuli/Experimental_stims/objects/fabian-blank-pElSkGRA2NU-unsplash.jpg,0,1,6,0,chosen,23,40,faces,objects,3900,1,10,2
211,22705,0,212,3,3,0,no_gain2,gain6,K,J,41,20,objects,83,73,faces,Stimuli/Experimental_stims/objects/insung-yoon-w2JtIQQXoRU-unsplash.jpg,Stimuli/Experimental_stims/faces/justin-chen-J7Cf1Gch49E-unsplash.jpg,0,1,24,0,unchosen,41,20,objects,faces,1600,0,10,2
212,22705,0,213,3,3,1,gain4,no_gain2,D,K,16,33,faces,45,39,body_parts,Stimuli/Experimental_stims/faces/freddy-kearney-o-ioeoATbIM-unsplash.jpg,Stimuli/Experimental_stims/body_parts/tucker-good-36skLT5jZcc-unsplash.jpg,0,0,298,0,chosen,33,16,body_parts,faces,1300,0,10,2
213,22705,0,214,3,3,0,no_gain3,gain5,G,C,0,25,outdoor_scenes,73,34,body_parts,Stimuli/Experimental_stims/outdoor_scenes/aleksandra-boguslawska-MS7KD9Ti7FQ-unsplash.jpg,Stimuli/Experimental_stims/body_parts/engin-akyurt-Q2rfH3GW39c-unsplash.jpg,0,0,261,1,unchosen,25,0,body_parts,outdoor_scenes,1700,0,10,2
214,22705,0,215,3,3,1,gain2,no_gain6,I,B,1,12,outdoor_scenes,67,72,faces,Stimuli/Experimental_stims/outdoor_scenes/ashim-d-silva-S2Q5mdOrrVc-unsplash.jpg,Stimuli/Experimental_stims/faces/aiony-haust-jmATI5Q_YgY-unsplash.jpg,0,0,118,0,unchosen,12,1,faces,outdoor_scenes,1600,0,10,2
215,22705,0,216,3,3,0,no_gain4,gain6,H,J,10,40,outdoor_scenes,75,66,objects,Stimuli/Experimental_stims/outdoor_scenes/shannon-kunkle-dM8INmkyDas-unsplash.jpg,Stimuli/Experimental_stims/objects/fabian-blank-pElSkGRA2NU-unsplash.jpg,0,0,185,1,chosen,40,10,objects,outdoor_scenes,3600,1,10,2
216,22705,0,217,3,3,1,gain5,no_gain5,C,F,25,24,body_parts,34,70,body_parts,Stimuli/Experimental_stims/body_parts/engin-akyurt-Q2rfH3GW39c-unsplash.jpg,Stimuli/Experimental_stims/body_parts/clay-banks-LjqARJaJotc-unsplash.jpg,0,0,56,0,unchosen,24,25,body_parts,body_parts,2700,0,10,2
217,22705,0,218,3,3,1,gain2,no_gain2,I,K,27,33,body_parts,77,39,body_parts,Stimuli/Experimental_stims/body_parts/heike-mintel-i_Gns0ELnLw-unsplash.jpg,Stimuli/Experimental_stims/body_parts/tucker-good-36skLT5jZcc-unsplash.jpg,0,0,0,0,chosen,33,27,body_parts,body_parts,2800,0,10,2
218,22705,0,219,3,3,0,no_gain6,gain6,B,J,12,20,faces,72,73,faces,Stimuli/Experimental_stims/faces/aiony-haust-jmATI5Q_YgY-unsplash.jpg,Stimuli/Experimental_stims/faces/justin-chen-J7Cf1Gch49E-unsplash.jpg,0,1,150,0,unchosen,12,20,faces,faces,2800,0,10,2
219,22705,0,220,3,3,1,gain1,no_gain3,E,G,26,0,body_parts,61,73,outdoor_scenes,Stimuli/Experimental_stims/body_parts/engin-akyurt-x_3gyC42btc-unsplash.jpg,Stimuli/Experimental_stims/outdoor_scenes/aleksandra-boguslawska-MS7KD9Ti7FQ-unsplash.jpg,0,1,233,1,unchosen,26,0,body_parts,outdoor_scenes,1100,0,10,2
220,22705,0,221,4,4,0,no_gain6,gain2,B,I,5,27,outdoor_scenes,86,77,body_parts,Stimuli/Experimental_stims/outdoor_scenes/jeff-king-bJHWJeiHfHc-unsplash.jpg,Stimuli/Experimental_stims/body_parts/heike-mintel-i_Gns0ELnLw-unsplash.jpg,0,1,330,0,chosen,5,27,outdoor_scenes,body_parts,4200,1,9,2
221,22705,0,222,4,4,1,gain4,no_gain2,D,K,42,41,objects,71,83,objects,Stimuli/Experimental_stims/objects/jess-bailey-nOeVi8DsN8U-unsplash.jpg,Stimuli/Experimental_stims/objects/insung-yoon-w2JtIQQXoRU-unsplash.jpg,0,1,97,1,unchosen,42,41,objects,objects,2400,0,9,2
222,22705,0,223,4,4,1,gain2,no_gain1,I,A,27,46,body_parts,77,71,objects,Stimuli/Experimental_stims/body_parts/heike-mintel-i_Gns0ELnLw-unsplash.jpg,Stimuli/Experimental_stims/objects/mockup-graphics-PNsj6RiHAF4-unsplash.jpg,0,1,153,1,chosen,27,46,body_parts,objects,1200,0,9,2
223,22705,0,224,4,4,0,no_gain4,gain4,H,D,10,16,outdoor_scenes,75,45,faces,Stimuli/Experimental_stims/outdoor_scenes/shannon-kunkle-dM8INmkyDas-unsplash.jpg,Stimuli/Experimental_stims/faces/freddy-kearney-o-ioeoATbIM-unsplash.jpg,0,1,181,0,chosen,10,16,outdoor_scenes,faces,1400,0,9,2
224,22705,0,225,4,4,0,no_gain4,gain6,H,J,22,20,faces,83,73,faces,Stimuli/Experimental_stims/faces/ravi-patel-VMGAbeeJTKo-unsplash.jpg,Stimuli/Experimental_stims/faces/justin-chen-J7Cf1Gch49E-unsplash.jpg,0,1,130,0,unchosen,22,20,faces,faces,1800,0,9,2
225,22705,0,226,4,4,0,no_gain4,gain5,H,C,22,25,faces,83,34,body_parts,Stimuli/Experimental_stims/faces/ravi-patel-VMGAbeeJTKo-unsplash.jpg,Stimuli/Experimental_stims/body_parts/engin-akyurt-Q2rfH3GW39c-unsplash.jpg,0,1,97,0,unchosen,22,25,faces,body_parts,2200,0,9,2
226,22705,0,227,4,4,1,gain4,no_gain1,D,A,16,46,faces,45,71,objects,Stimuli/Experimental_stims/faces/freddy-kearney-o-ioeoATbIM-unsplash.jpg,Stimuli/Experimental_stims/objects/mockup-graphics-PNsj6RiHAF4-unsplash.jpg,0,1,97,1,chosen,16,46,faces,objects,4000,1,9,2
227,22705,0,228,4,4,1,gain3,no_gain2,L,K,13,33,faces,68,39,body_parts,Stimuli/Experimental_stims/faces/daniel-rigdon-dXmXKPP2L4E-unsplash.jpg,Stimuli/Experimental_stims/body_parts/tucker-good-36skLT5jZcc-unsplash.jpg,0,0,216,0,chosen,33,13,body_parts,faces,1900,0,9,2
228,22705,0,229,4,4,0,no_gain5,gain4,F,D,23,16,faces,59,45,faces,Stimuli/Experimental_stims/faces/rikonavt-HQjfrvdTfak-unsplash.jpg,Stimuli/Experimental_stims/faces/freddy-kearney-o-ioeoATbIM-unsplash.jpg,0,1,14,0,chosen,23,16,faces,faces,1800,0,9,2
229,22705,0,230,4,4,0,no_gain4,gain3,H,L,22,28,faces,83,84,body_parts,Stimuli/Experimental_stims/faces/ravi-patel-VMGAbeeJTKo-unsplash.jpg,Stimuli/Experimental_stims/body_parts/ira-vishnevskaya-8DQAvdCby1I-unsplash.jpg,0,0,14,1,unchosen,28,22,body_parts,faces,1200,0,9,2
230,22705,0,231,4,4,0,no_gain3,gain5,G,C,0,25,outdoor_scenes,73,34,body_parts,Stimuli/Experimental_stims/outdoor_scenes/aleksandra-boguslawska-MS7KD9Ti7FQ-unsplash.jpg,Stimuli/Experimental_stims/body_parts/engin-akyurt-Q2rfH3GW39c-unsplash.jpg,0,1,40,0,unchosen,0,25,outdoor_scenes,body_parts,1700,0,9,2
231,22705,0,232,4,4,0,no_gain2,gain5,K,C,41,25,objects,83,34,body_parts,Stimuli/Experimental_stims/objects/insung-yoon-w2JtIQQXoRU-unsplash.jpg,Stimuli/Experimental_stims/body_parts/engin-akyurt-Q2rfH3GW39c-unsplash.jpg,0,0,69,1,unchosen,25,41,body_parts,objects,3500,1,9,2
232,22705,0,233,4,4,1,gain3,no_gain3,L,G,13,47,faces,68,79,objects,Stimuli/Experimental_stims/faces/daniel-rigdon-dXmXKPP2L4E-unsplash.jpg,Stimuli/Experimental_stims/objects/ronaldo-arthur-vidal-Cdz_lvnl37k-unsplash.jpg,0,1,109,1,chosen,13,47,faces,objects,1700,0,9,2
233,22705,0,234,4,4,1,gain2,no_gain2,I,K,1,41,outdoor_scenes,67,83,objects,Stimuli/Experimental_stims/outdoor_scenes/ashim-d-silva-S2Q5mdOrrVc-unsplash.jpg,Stimuli/Experimental_stims/objects/insung-yoon-w2JtIQQXoRU-unsplash.jpg,0,0,117,0,unchosen,41,1,objects,outdoor_scenes,2000,0,9,2
234,22705,0,235,4,4,0,no_gain6,gain5,B,C,12,25,faces,72,34,body_parts,Stimuli/Experimental_stims/faces/aiony-haust-jmATI5Q_YgY-unsplash.jpg,Stimuli/Experimental_stims/body_parts/engin-akyurt-Q2rfH3GW39c-unsplash.jpg,0,0,25,1,unchosen,25,12,body_parts,faces,1300,0,9,2
235,22705,0,236,4,4,1,gain6,no_gain1,J,A,40,46,objects,66,71,objects,Stimuli/Experimental_stims/objects/fabian-blank-pElSkGRA2NU-unsplash.jpg,Stimuli/Experimental_stims/objects/mockup-graphics-PNsj6RiHAF4-unsplash.jpg,0,0,36,0,chosen,46,40,objects,objects,1400,0,9,2
236,22705,0,237,4,4,1,gain1,no_gain4,E,H,26,22,body_parts,61,83,faces,Stimuli/Experimental_stims/body_parts/engin-akyurt-x_3gyC42btc-unsplash.jpg,Stimuli/Experimental_stims/faces/ravi-patel-VMGAbeeJTKo-unsplash.jpg,0,0,97,0,unchosen,22,26,faces,body_parts,3600,1,9,2
237,22705,0,238,4,4,0,no_gain3,gain4,G,D,47,16,objects,79,45,faces,Stimuli/Experimental_stims/objects/ronaldo-arthur-vidal-Cdz_lvnl37k-unsplash.jpg,Stimuli/Experimental_stims/faces/freddy-kearney-o-ioeoATbIM-unsplash.jpg,0,0,104,1,chosen,16,47,faces,objects,2700,0,9,2
238,22705,0,239,4,4,0,no_gain5,gain1,F,E,24,26,body_parts,70,61,body_parts,Stimuli/Experimental_stims/body_parts/clay-banks-LjqARJaJotc-unsplash.jpg,Stimuli/Experimental_stims/body_parts/engin-akyurt-x_3gyC42btc-unsplash.jpg,0,1,189,0,unchosen,24,26,body_parts,body_parts,1900,0,9,2
239,22705,0,240,4,4,0,no_gain1,gain3,A,L,8,28,outdoor_scenes,72,84,body_parts,Stimuli/Experimental_stims/outdoor_scenes/samsommer-vddccTqwal8-unsplash.jpg,Stimuli/Experimental_stims/body_parts/ira-vishnevskaya-8DQAvdCby1I-unsplash.jpg,0,1,300,0,unchosen,8,28,outdoor_scenes,body_parts,1200,0,9,2
240,22705,0,241,4,4,0,no_gain2,gain1,K,E,41,26,objects,83,61,body_parts,Stimuli/Experimental_stims/objects/insung-yoon-w2JtIQQXoRU-unsplash.jpg,Stimuli/Experimental_stims/body_parts/engin-akyurt-x_3gyC42btc-unsplash.jpg,0,0,202,1,unchosen,26,41,body_parts,objects,1000,0,9,2
241,22705,0,242,4,4,1,gain3,no_gain4,L,H,13,10,faces,68,75,outdoor_scenes,Stimuli/Experimental_stims/faces/daniel-rigdon-dXmXKPP2L4E-unsplash.jpg,Stimuli/Experimental_stims/outdoor_scenes/shannon-kunkle-dM8INmkyDas-unsplash.jpg,0,0,241,0,chosen,10,13,outdoor_scenes,faces,3700,1,9,2
242,22705,0,243,4,4,0,no_gain4,gain1,H,E,10,38,outdoor_scenes,75,77,objects,Stimuli/Experimental_stims/outdoor_scenes/shannon-kunkle-dM8INmkyDas-unsplash.jpg,Stimuli/Experimental_stims/objects/art-lasovsky-8XddFc6NkBY-unsplash.jpg,0,1,165,0,chosen,10,38,outdoor_scenes,objects,1200,0,9,2
243,22705,0,244,4,4,1,gain2,no_gain3,I,G,1,0,outdoor_scenes,67,73,outdoor_scenes,Stimuli/Experimental_stims/outdoor_scenes/ashim-d-silva-S2Q5mdOrrVc-unsplash.jpg,Stimuli/Experimental_stims/outdoor_scenes/aleksandra-boguslawska-MS7KD9Ti7FQ-unsplash.jpg,0,0,88,0,unchosen,0,1,outdoor_scenes,outdoor_scenes,2600,0,9,2
244,22705,0,245,4,4,1,gain4,no_gain4,D,H,42,22,objects,71,83,faces,Stimuli/Experimental_stims/objects/jess-bailey-nOeVi8DsN8U-unsplash.jpg,Stimuli/Experimental_stims/faces/ravi-patel-VMGAbeeJTKo-unsplash.jpg,0,0,177,0,unchosen,22,42,faces,objects,2400,0,9,2
245,22705,0,246,4,4,1,gain2,no_gain6,I,B,1,12,outdoor_scenes,67,72,faces,Stimuli/Experimental_stims/outdoor_scenes/ashim-d-silva-S2Q5mdOrrVc-unsplash.jpg,Stimuli/Experimental_stims/faces/aiony-haust-jmATI5Q_YgY-unsplash.jpg,0,1,169,1,unchosen,1,12,outdoor_scenes,faces,1200,0,9,2
246,22705,0,247,4,4,0,no_gain6,gain6,B,J,5,40,outdoor_scenes,86,66,objects,Stimuli/Experimental_stims/outdoor_scenes/jeff-king-bJHWJeiHfHc-unsplash.jpg,Stimuli/Experimental_stims/objects/fabian-blank-pElSkGRA2NU-unsplash.jpg,0,0,25,1,chosen,40,5,objects,outdoor_scenes,2500,0,9,2
247,22705,0,248,4,4,1,gain2,no_gain5,I,F,1,24,outdoor_scenes,67,70,body_parts,Stimuli/Experimental_stims/outdoor_scenes/ashim-d-silva-S2Q5mdOrrVc-unsplash.jpg,Stimuli/Experimental_stims/body_parts/clay-banks-LjqARJaJotc-unsplash.jpg,0,0,132,0,unchosen,24,1,body_parts,outdoor_scenes,2200,0,9,2
248,22705,0,249,4,4,0,no_gain1,gain3,A,L,46,13,objects,71,68,faces,Stimuli/Experimental_stims/objects/mockup-graphics-PNsj6RiHAF4-unsplash.jpg,Stimuli/Experimental_stims/faces/daniel-rigdon-dXmXKPP2L4E-unsplash.jpg,0,1,241,0,chosen,46,13,objects,faces,1100,0,9,2
249,22705,0,250,4,4,0,no_gain6,gain1,B,E,5,38,outdoor_scenes,86,77,objects,Stimuli/Experimental_stims/outdoor_scenes/jeff-king-bJHWJeiHfHc-unsplash.jpg,Stimuli/Experimental_stims/objects/art-lasovsky-8XddFc6NkBY-unsplash.jpg,0,1,205,0,chosen,5,38,outdoor_scenes,objects,1700,0,9,2
250,22705,0,251,4,4,0,no_gain1,gain2,A,I,8,1,outdoor_scenes,72,67,outdoor_scenes,Stimuli/Experimental_stims/outdoor_scenes/samsommer-vddccTqwal8-unsplash.jpg,Stimuli/Experimental_stims/outdoor_scenes/ashim-d-silva-S2Q5mdOrrVc-unsplash.jpg,0,1,133,0,unchosen,8,1,outdoor_scenes,outdoor_scenes,1100,0,9,2
251,22705,0,252,4,4,1,gain6,no_gain3,J,G,40,47,objects,66,79,objects,Stimuli/Experimental_stims/objects/fabian-blank-pElSkGRA2NU-unsplash.jpg,Stimuli/Experimental_stims/objects/ronaldo-arthur-vidal-Cdz_lvnl37k-unsplash.jpg,0,1,61,1,chosen,40,47,objects,objects,1900,0,9,2
252,22705,0,253,4,4,1,gain4,no_gain1,D,A,42,8,objects,71,72,outdoor_scenes,Stimuli/Experimental_stims/objects/jess-bailey-nOeVi8DsN8U-unsplash.jpg,Stimuli/Experimental_stims/outdoor_scenes/samsommer-vddccTqwal8-unsplash.jpg,0,1,1,1,unchosen,42,8,objects,outdoor_scenes,1100,0,9,2
253,22705,0,254,4,4,1,gain4,no_gain5,D,F,42,24,objects,71,70,body_parts,Stimuli/Experimental_stims/objects/jess-bailey-nOeVi8DsN8U-unsplash.jpg,Stimuli/Experimental_stims/body_parts/clay-banks-LjqARJaJotc-unsplash.jpg,0,1,89,1,unchosen,42,24,objects,body_parts,1000,0,9,2
254,22705,0,255,4,4,1,gain6,no_gain6,J,B,20,12,faces,73,72,faces,Stimuli/Experimental_stims/faces/justin-chen-J7Cf1Gch49E-unsplash.jpg,Stimuli/Experimental_stims/faces/aiony-haust-jmATI5Q_YgY-unsplash.jpg,0,1,224,1,unchosen,20,12,faces,faces,1600,0,9,2
255,22705,0,256,4,4,0,no_gain4,gain5,H,C,10,9,outdoor_scenes,75,84,outdoor_scenes,Stimuli/Experimental_stims/outdoor_scenes/shannon-kunkle-dM8INmkyDas-unsplash.jpg,Stimuli/Experimental_stims/outdoor_scenes/sergey-pesterev-y-b_FOmJXdg-unsplash.jpg,0,1,201,0,chosen,10,9,outdoor_scenes,outdoor_scenes,2700,0,9,2
256,22705,0,257,4,4,1,gain4,no_gain6,D,B,42,12,objects,71,72,faces,Stimuli/Experimental_stims/objects/jess-bailey-nOeVi8DsN8U-unsplash.jpg,Stimuli/Experimental_stims/faces/aiony-haust-jmATI5Q_YgY-unsplash.jpg,0,1,220,1,unchosen,42,12,objects,faces,3500,1,9,2
257,22705,0,258,4,4,0,no_gain2,gain6,K,J,41,20,objects,83,73,faces,Stimuli/Experimental_stims/objects/insung-yoon-w2JtIQQXoRU-unsplash.jpg,Stimuli/Experimental_stims/faces/justin-chen-J7Cf1Gch49E-unsplash.jpg,0,1,45,0,unchosen,41,20,objects,faces,1000,0,9,2
258,22705,0,259,4,4,0,no_gain2,gain3,K,L,41,28,objects,83,84,body_parts,Stimuli/Experimental_stims/objects/insung-yoon-w2JtIQQXoRU-unsplash.jpg,Stimuli/Experimental_stims/body_parts/ira-vishnevskaya-8DQAvdCby1I-unsplash.jpg,0,1,592,0,unchosen,41,28,objects,body_parts,1700,0,9,2
259,22705,0,260,4,4,1,gain2,no_gain5,I,F,27,23,body_parts,77,59,faces,Stimuli/Experimental_stims/body_parts/heike-mintel-i_Gns0ELnLw-unsplash.jpg,Stimuli/Experimental_stims/faces/rikonavt-HQjfrvdTfak-unsplash.jpg,0,1,37,1,chosen,27,23,body_parts,faces,1500,0,9,2
260,22705,0,261,4,4,1,gain3,no_gain5,L,F,13,23,faces,68,59,faces,Stimuli/Experimental_stims/faces/daniel-rigdon-dXmXKPP2L4E-unsplash.jpg,Stimuli/Experimental_stims/faces/rikonavt-HQjfrvdTfak-unsplash.jpg,0,1,93,1,chosen,13,23,faces,faces,1400,0,9,2
261,22705,0,262,4,4,1,gain5,no_gain3,C,G,9,47,outdoor_scenes,84,79,objects,Stimuli/Experimental_stims/outdoor_scenes/sergey-pesterev-y-b_FOmJXdg-unsplash.jpg,Stimuli/Experimental_stims/objects/ronaldo-arthur-vidal-Cdz_lvnl37k-unsplash.jpg,0,0,96,0,chosen,47,9,objects,outdoor_scenes,1300,0,9,2
262,22705,0,263,4,4,1,gain5,no_gain5,C,F,25,24,body_parts,34,70,body_parts,Stimuli/Experimental_stims/body_parts/engin-akyurt-Q2rfH3GW39c-unsplash.jpg,Stimuli/Experimental_stims/body_parts/clay-banks-LjqARJaJotc-unsplash.jpg,0,1,133,1,unchosen,25,24,body_parts,body_parts,4500,1,9,2
263,22705,0,264,4,4,0,no_gain5,gain6,F,J,24,20,body_parts,70,73,faces,Stimuli/Experimental_stims/body_parts/clay-banks-LjqARJaJotc-unsplash.jpg,Stimuli/Experimental_stims/faces/justin-chen-J7Cf1Gch49E-unsplash.jpg,0,1,5,0,unchosen,24,20,body_parts,faces,1900,0,9,2
264,22705,0,265,4,4,0,no_gain6,gain1,B,E,12,26,faces,72,61,body_parts,Stimuli/Experimental_stims/faces/aiony-haust-jmATI5Q_YgY-unsplash.jpg,Stimuli/Experimental_stims/body_parts/engin-akyurt-x_3gyC42btc-unsplash.jpg,0,0,54,1,unchosen,26,12,body_parts,faces,1900,0,9,2
265,22705,0,266,4,4,1,gain5,no_gain5,C,F,9,23,outdoor_scenes,84,59,faces,Stimuli/Experimental_stims/outdoor_scenes/sergey-pesterev-y-b_FOmJXdg-unsplash.jpg,Stimuli/Experimental_stims/faces/rikonavt-HQjfrvdTfak-unsplash.jpg,0,0,109,0,chosen,23,9,faces,outdoor_scenes,1600,0,9,2
266,22705,0,267,4,4,0,no_gain2,gain4,K,D,33,16,body_parts,39,45,faces,Stimuli/Experimental_stims/body_parts/tucker-good-36skLT5jZcc-unsplash.jpg,Stimuli/Experimental_stims/faces/freddy-kearney-o-ioeoATbIM-unsplash.jpg,0,0,248,1,chosen,16,33,faces,body_parts,2300,0,9,2
267,22705,0,268,4,4,1,gain6,no_gain2,J,K,40,33,objects,66,39,body_parts,Stimuli/Experimental_stims/objects/fabian-blank-pElSkGRA2NU-unsplash.jpg,Stimuli/Experimental_stims/body_parts/tucker-good-36skLT5jZcc-unsplash.jpg,0,0,221,0,chosen,33,40,body_parts,objects,3700,1,9,2
268,22705,0,269,4,4,0,no_gain3,gain3,G,L,0,28,outdoor_scenes,73,84,body_parts,Stimuli/Experimental_stims/outdoor_scenes/aleksandra-boguslawska-MS7KD9Ti7FQ-unsplash.jpg,Stimuli/Experimental_stims/body_parts/ira-vishnevskaya-8DQAvdCby1I-unsplash.jpg,0,0,6,1,unchosen,28,0,body_parts,outdoor_scenes,1200,0,9,2
269,22705,0,270,4,4,1,gain4,no_gain3,D,G,42,0,objects,71,73,outdoor_scenes,Stimuli/Experimental_stims/objects/jess-bailey-nOeVi8DsN8U-unsplash.jpg,Stimuli/Experimental_stims/outdoor_scenes/aleksandra-boguslawska-MS7KD9Ti7FQ-unsplash.jpg,0,0,195,0,unchosen,0,42,outdoor_scenes,objects,1900,0,9,2
270,22705,0,271,4,4,0,no_gain3,gain1,G,E,0,26,outdoor_scenes,73,61,body_parts,Stimuli/Experimental_stims/outdoor_scenes/aleksandra-boguslawska-MS7KD9Ti7FQ-unsplash.jpg,Stimuli/Experimental_stims/body_parts/engin-akyurt-x_3gyC42btc-unsplash.jpg,0,0,1,1,unchosen,26,0,body_parts,outdoor_scenes,2000,0,9,2
271,22705,0,272,4,4,1,gain1,no_gain3,E,G,38,47,objects,77,79,objects,Stimuli/Experimental_stims/objects/art-lasovsky-8XddFc6NkBY-unsplash.jpg,Stimuli/Experimental_stims/objects/ronaldo-arthur-vidal-Cdz_lvnl37k-unsplash.jpg,0,1,84,1,chosen,38,47,objects,objects,2700,0,9,2
272,22705,0,273,4,4,1,gain6,no_gain5,J,F,40,23,objects,66,59,faces,Stimuli/Experimental_stims/objects/fabian-blank-pElSkGRA2NU-unsplash.jpg,Stimuli/Experimental_stims/faces/rikonavt-HQjfrvdTfak-unsplash.jpg,0,1,12,1,chosen,40,23,objects,faces,1100,0,9,2
273,22705,0,274,4,4,0,no_gain2,gain1,K,E,33,38,body_parts,39,77,objects,Stimuli/Experimental_stims/body_parts/tucker-good-36skLT5jZcc-unsplash.jpg,Stimuli/Experimental_stims/objects/art-lasovsky-8XddFc6NkBY-unsplash.jpg,0,0,138,1,chosen,38,33,objects,body_parts,4200,1,9,2
274,22705,0,275,4,4,1,gain3,no_gain6,L,B,28,12,body_parts,84,72,faces,Stimuli/Experimental_stims/body_parts/ira-vishnevskaya-8DQAvdCby1I-unsplash.jpg,Stimuli/Experimental_stims/faces/aiony-haust-jmATI5Q_YgY-unsplash.jpg,0,0,241,0,unchosen,12,28,faces,body_parts,1300,0,9,2
275,22705,0,276,4,4,1,gain1,no_gain5,E,F,38,23,objects,77,59,faces,Stimuli/Experimental_stims/objects/art-lasovsky-8XddFc6NkBY-unsplash.jpg,Stimuli/Experimental_stims/faces/rikonavt-HQjfrvdTfak-unsplash.jpg,0,1,100,1,chosen,38,23,objects,faces,2000,0,9,2
276,22705,0,277,4,4,0,no_gain3,gain2,G,I,47,27,objects,79,77,body_parts,Stimuli/Experimental_stims/objects/ronaldo-arthur-vidal-Cdz_lvnl37k-unsplash.jpg,Stimuli/Experimental_stims/body_parts/heike-mintel-i_Gns0ELnLw-unsplash.jpg,0,1,25,0,chosen,47,27,objects,body_parts,1100,0,9,2
277,22705,0,278,4,4,1,gain5,no_gain1,C,A,25,8,body_parts,34,72,outdoor_scenes,Stimuli/Experimental_stims/body_parts/engin-akyurt-Q2rfH3GW39c-unsplash.jpg,Stimuli/Experimental_stims/outdoor_scenes/samsommer-vddccTqwal8-unsplash.jpg,0,0,124,0,unchosen,8,25,outdoor_scenes,body_parts,2300,0,9,2
278,22705,0,279,4,4,1,gain2,no_gain2,I,K,27,33,body_parts,77,39,body_parts,Stimuli/Experimental_stims/body_parts/heike-mintel-i_Gns0ELnLw-unsplash.jpg,Stimuli/Experimental_stims/body_parts/tucker-good-36skLT5jZcc-unsplash.jpg,0,0,253,0,chosen,33,27,body_parts,body_parts,2900,0,9,2
279,22705,0,280,4,4,0,no_gain2,gain5,K,C,33,9,body_parts,39,84,outdoor_scenes,Stimuli/Experimental_stims/body_parts/tucker-good-36skLT5jZcc-unsplash.jpg,Stimuli/Experimental_stims/outdoor_scenes/sergey-pesterev-y-b_FOmJXdg-unsplash.jpg,0,1,277,0,chosen,33,9,body_parts,outdoor_scenes,1200,0,9,2
280,22705,0,281,4,4,1,gain5,no_gain6,C,B,9,5,outdoor_scenes,84,86,outdoor_scenes,Stimuli/Experimental_stims/outdoor_scenes/sergey-pesterev-y-b_FOmJXdg-unsplash.jpg,Stimuli/Experimental_stims/outdoor_scenes/jeff-king-bJHWJeiHfHc-unsplash.jpg,0,1,8,1,chosen,9,5,outdoor_scenes,outdoor_scenes,1500,0,9,2
281,22705,0,282,4,4,1,gain6,no_gain3,J,G,20,0,faces,73,73,outdoor_scenes,Stimuli/Experimental_stims/faces/justin-chen-J7Cf1Gch49E-unsplash.jpg,Stimuli/Experimental_stims/outdoor_scenes/aleksandra-boguslawska-MS7KD9Ti7FQ-unsplash.jpg,0,0,218,0,unchosen,0,20,outdoor_scenes,faces,1100,0,9,2
282,22705,0,283,4,4,0,no_gain6,gain4,B,D,5,16,outdoor_scenes,86,45,faces,Stimuli/Experimental_stims/outdoor_scenes/jeff-king-bJHWJeiHfHc-unsplash.jpg,Stimuli/Experimental_stims/faces/freddy-kearney-o-ioeoATbIM-unsplash.jpg,0,0,1,1,chosen,16,5,faces,outdoor_scenes,1200,0,9,2
283,22705,0,284,4,4,0,no_gain4,gain2,H,I,10,27,outdoor_scenes,75,77,body_parts,Stimuli/Experimental_stims/outdoor_scenes/shannon-kunkle-dM8INmkyDas-unsplash.jpg,Stimuli/Experimental_stims/body_parts/heike-mintel-i_Gns0ELnLw-unsplash.jpg,0,0,131,1,chosen,27,10,body_parts,outdoor_scenes,1400,0,9,2
284,22705,0,285,4,4,1,gain2,no_gain4,I,H,1,22,outdoor_scenes,67,83,faces,Stimuli/Experimental_stims/outdoor_scenes/ashim-d-silva-S2Q5mdOrrVc-unsplash.jpg,Stimuli/Experimental_stims/faces/ravi-patel-VMGAbeeJTKo-unsplash.jpg,0,0,145,0,unchosen,22,1,faces,outdoor_scenes,1100,0,9,2
285,22705,0,286,4,4,1,gain3,no_gain6,L,B,13,5,faces,68,86,outdoor_scenes,Stimuli/Experimental_stims/faces/daniel-rigdon-dXmXKPP2L4E-unsplash.jpg,Stimuli/Experimental_stims/outdoor_scenes/jeff-king-bJHWJeiHfHc-unsplash.jpg,0,1,74,1,chosen,13,5,faces,outdoor_scenes,2100,0,9,2
286,22705,0,287,4,4,0,no_gain1,gain1,A,E,8,26,outdoor_scenes,72,61,body_parts,Stimuli/Experimental_stims/outdoor_scenes/samsommer-vddccTqwal8-unsplash.jpg,Stimuli/Experimental_stims/body_parts/engin-akyurt-x_3gyC42btc-unsplash.jpg,0,0,12,1,unchosen,26,8,body_parts,outdoor_scenes,3300,1,9,2
287,22705,0,288,4,4,0,no_gain1,gain6,A,J,8,20,outdoor_scenes,72,73,faces,Stimuli/Experimental_stims/outdoor_scenes/samsommer-vddccTqwal8-unsplash.jpg,Stimuli/Experimental_stims/faces/justin-chen-J7Cf1Gch49E-unsplash.jpg,0,0,225,1,unchosen,20,8,faces,outdoor_scenes,1900,0,9,2
288,22705,0,289,4,4,0,no_gain1,gain5,A,C,46,9,objects,71,84,outdoor_scenes,Stimuli/Experimental_stims/objects/mockup-graphics-PNsj6RiHAF4-unsplash.jpg,Stimuli/Experimental_stims/outdoor_scenes/sergey-pesterev-y-b_FOmJXdg-unsplash.jpg,0,0,188,1,chosen,9,46,outdoor_scenes,objects,2000,0,9,2
289,22705,0,290,4,4,0,no_gain4,gain6,H,J,10,40,outdoor_scenes,75,66,objects,Stimuli/Experimental_stims/outdoor_scenes/shannon-kunkle-dM8INmkyDas-unsplash.jpg,Stimuli/Experimental_stims/objects/fabian-blank-pElSkGRA2NU-unsplash.jpg,0,0,105,1,chosen,40,10,objects,outdoor_scenes,1100,0,9,2
290,22705,0,291,4,4,1,gain3,no_gain5,L,F,28,24,body_parts,84,70,body_parts,Stimuli/Experimental_stims/body_parts/ira-vishnevskaya-8DQAvdCby1I-unsplash.jpg,Stimuli/Experimental_stims/body_parts/clay-banks-LjqARJaJotc-unsplash.jpg,0,1,76,1,unchosen,28,24,body_parts,body_parts,1800,0,9,2
291,22705,0,292,4,4,0,no_gain1,gain1,A,E,46,38,objects,71,77,objects,Stimuli/Experimental_stims/objects/mockup-graphics-PNsj6RiHAF4-unsplash.jpg,Stimuli/Experimental_stims/objects/art-lasovsky-8XddFc6NkBY-unsplash.jpg,0,1,207,0,chosen,46,38,objects,objects,3200,1,9,2