,PID,practice,trial,block,run,gain_left,left_item_id,right_item_id,left_pair_id,right_pair_id,left_stimulus,right_stimulus,left_category,left_rating,right_rating,right_category,left_path,right_path,no_response,left_chosen,rt,higher_outcome_chosen,choice_type,chosen_stimulus,unchosen_stimulus,chosen_category,unchosen_category,iti,long_iti,simulation,version
0,70701,1,1,0,0,0,,,,,,,,,,,Stimuli/Practice_stims/Final_decisions/debby-hudson-FmCSSSGge-0-unsplash.jpg,Stimuli/Practice_stims/Final_decisions/yassine-khalfalli-adsQ9d_Cx0c-unsplash.jpg,0,1,861,0,,,,,,3000,0,7,2
1,70701,1,2,0,0,0,,,,,,,,,,,Stimuli/Practice_stims/Final_decisions/florian-wehde-iVW7mZPwd4g-unsplash.jpg,Stimuli/Practice_stims/Final_decisions/patrick-perkins-3wylDrjxH-E-unsplash.jpg,0,0,983,1,,,,,,1500,0,7,2
2,70701,1,3,0,0,0,,,,,,,,,,,Stimuli/Practice_stims/Final_decisions/debby-hudson-FmCSSSGge-0-unsplash.jpg,Stimuli/Practice_stims/Final_decisions/florian-wehde-iVW7mZPwd4g-unsplash.jpg,0,1,649,0,,,,,,2000,0,7,2
3,70701,1,4,0,0,0,,,,,,,,,,,Stimuli/Practice_stims/Final_decisions/yassine-khalfalli-adsQ9d_Cx0c-unsplash.jpg,Stimuli/Practice_stims/Final_decisions/debby-hudson-FmCSSSGge-0-unsplash.jpg,0,0,929,1,,,,,,1000,0,7,2
4,70701,0,5,1,1,1,gain2,no_gain3,C,B,0,22,outdoor_scenes,71,83,faces,Stimuli/Experimental_stims/outdoor_scenes/aleksandra-boguslawska-MS7KD9Ti7FQ-unsplash.jpg,Stimuli/Experimental_stims/faces/ravi-patel-VMGAbeeJTKo-unsplash.jpg,0,1,1056,1,unchosen,0,22,outdoor_scenes,faces,4100,1,7,2
5,70701,0,6,1,1,1,gain3,no_gain5,L,D,23,40,faces,70,76,objects,Stimuli/Experimental_stims/faces/rikonavt-HQjfrvdTfak-unsplash.jpg,Stimuli/Experimental_stims/objects/fabian-blank-pElSkGRA2NU-unsplash.jpg,0,0,734,0,chosen,40,23,objects,faces,1200,0,7,2
6,70701,0,7,1,1,1,gain1,no_gain3,G,B,10,3,outdoor_scenes,72,79,outdoor_scenes,Stimuli/Experimental_stims/outdoor_scenes/shannon-kunkle-dM8INmkyDas-unsplash.jpg,Stimuli/Experimental_stims/outdoor_scenes/henry-be-NLF6hTe4PAg-unsplash.jpg,0,1,948,1,chosen,10,3,outdoor_scenes,outdoor_scenes,2600,0,7,2
7,70701,0,8,1,1,1,gain2,no_gain4,C,E,29,28,body_parts,69,62,body_parts,Stimuli/Experimental_stims/body_parts/manuel-schinner-ZwjFuJ7ebpk-unsplash.jpg,Stimuli/Experimental_stims/body_parts/ira-vishnevskaya-8DQAvdCby1I-unsplash.jpg,0,1,930,1,chosen,29,28,body_parts,body_parts,2000,0,7,2
8,70701,0,9,1,1,0,no_gain5,gain1,D,G,20,43,faces,73,25,objects,Stimuli/Experimental_stims/faces/justin-chen-J7Cf1Gch49E-unsplash.jpg,Stimuli/Experimental_stims/objects/jonathan-greenaway-Y4hGgeiFn3s-unsplash.jpg,0,1,1133,0,unchosen,20,43,faces,objects,1200,0,7,2
9,70701,0,10,1,1,0,no_gain4,gain3,E,L,28,23,body_parts,62,70,faces,Stimuli/Experimental_stims/body_parts/ira-vishnevskaya-8DQAvdCby1I-unsplash.jpg,Stimuli/Experimental_stims/faces/rikonavt-HQjfrvdTfak-unsplash.jpg,0,0,1013,1,chosen,23,28,faces,body_parts,3200,1,7,2
10,70701,0,11,1,1,0,no_gain1,gain3,H,L,19,23,faces,78,70,faces,Stimuli/Experimental_stims/faces/joel-mott-LaK153ghdig-unsplash.jpg,Stimuli/Experimental_stims/faces/rikonavt-HQjfrvdTfak-unsplash.jpg,0,0,915,1,chosen,23,19,faces,faces,1200,0,7,2
11,70701,0,12,1,1,0,no_gain2,gain1,K,G,37,10,objects,79,72,outdoor_scenes,Stimuli/Experimental_stims/objects/alexander-andrews-VLGWE_SumrA-unsplash.jpg,Stimuli/Experimental_stims/outdoor_scenes/shannon-kunkle-dM8INmkyDas-unsplash.jpg,0,1,1363,0,chosen,37,10,objects,outdoor_scenes,1800,0,7,2
12,70701,0,13,1,1,1,gain2,no_gain1,C,H,0,5,outdoor_scenes,71,88,outdoor_scenes,Stimuli/Experimental_stims/outdoor_scenes/aleksandra-boguslawska-MS7KD9Ti7FQ-unsplash.jpg,Stimuli/Experimental_stims/outdoor_scenes/jeff-king-bJHWJeiHfHc-unsplash.jpg,0,0,1098,0,unchosen,5,0,outdoor_scenes,outdoor_scenes,1600,0,7,2
13,70701,0,14,1,1,0,no_gain6,gain6,I,F,35,21,body_parts,32,72,faces,Stimuli/Experimental_stims/body_parts/wc-so-KH4AAPjb-tI-unsplash.jpg,Stimuli/Experimental_stims/faces/leilani-angel-K84vnnzxmTQ-unsplash.jpg,0,0,1334,1,unchosen,21,35,faces,body_parts,1300,0,7,2
14,70701,0,15,1,1,0,no_gain1,gain5,H,J,5,14,outdoor_scenes,88,24,faces,Stimuli/Experimental_stims/outdoor_scenes/jeff-king-bJHWJeiHfHc-unsplash.jpg,Stimuli/Experimental_stims/faces/david-siglin-UuW4psOb388-unsplash.jpg,0,1,1271,0,unchosen,5,14,outdoor_scenes,faces,1900,0,7,2
15,70701,0,16,1,1,0,no_gain3,gain2,B,C,3,29,outdoor_scenes,79,69,body_parts,Stimuli/Experimental_stims/outdoor_scenes/henry-be-NLF6hTe4PAg-unsplash.jpg,Stimuli/Experimental_stims/body_parts/manuel-schinner-ZwjFuJ7ebpk-unsplash.jpg,0,0,806,1,chosen,29,3,body_parts,outdoor_scenes,4100,1,7,2
16,70701,0,17,1,1,1,gain4,no_gain2,A,K,45,30,objects,76,67,body_parts,Stimuli/Experimental_stims/objects/leohoho-rngTKHXumy0-unsplash.jpg,Stimuli/Experimental_stims/body_parts/mika-korhonen-Xodzxosar18-unsplash.jpg,0,1,1122,1,unchosen,45,30,objects,body_parts,1100,0,7,2
17,70701,0,18,1,1,1,gain6,no_gain2,F,K,24,37,body_parts,75,79,objects,Stimuli/Experimental_stims/body_parts/clay-banks-LjqARJaJotc-unsplash.jpg,Stimuli/Experimental_stims/objects/alexander-andrews-VLGWE_SumrA-unsplash.jpg,0,0,1179,0,chosen,37,24,objects,body_parts,1200,0,7,2
18,70701,0,19,1,1,1,gain5,no_gain4,J,E,14,46,faces,24,72,objects,Stimuli/Experimental_stims/faces/david-siglin-UuW4psOb388-unsplash.jpg,Stimuli/Experimental_stims/objects/mockup-graphics-PNsj6RiHAF4-unsplash.jpg,0,1,1287,1,unchosen,14,46,faces,objects,1400,0,7,2
19,70701,0,20,1,1,0,no_gain4,gain1,E,G,28,10,body_parts,62,72,outdoor_scenes,Stimuli/Experimental_stims/body_parts/ira-vishnevskaya-8DQAvdCby1I-unsplash.jpg,Stimuli/Experimental_stims/outdoor_scenes/shannon-kunkle-dM8INmkyDas-unsplash.jpg,0,0,917,1,chosen,10,28,outdoor_scenes,body_parts,1300,0,7,2
20,70701,0,21,1,1,1,gain6,no_gain6,F,I,24,7,body_parts,75,77,outdoor_scenes,Stimuli/Experimental_stims/body_parts/clay-banks-LjqARJaJotc-unsplash.jpg,Stimuli/Experimental_stims/outdoor_scenes/petr-vysohlid-9fqwGqGLUxc-unsplash.jpg,0,1,983,1,chosen,24,7,body_parts,outdoor_scenes,4600,1,7,2
21,70701,0,22,1,1,0,no_gain1,gain3,H,L,5,31,outdoor_scenes,88,75,body_parts,Stimuli/Experimental_stims/outdoor_scenes/jeff-king-bJHWJeiHfHc-unsplash.jpg,Stimuli/Experimental_stims/body_parts/sincerely-media-VN6DbKajo5s-unsplash.jpg,0,1,1472,0,unchosen,5,31,outdoor_scenes,body_parts,1000,0,7,2
22,70701,0,23,1,1,1,gain4,no_gain4,A,E,9,28,outdoor_scenes,90,62,body_parts,Stimuli/Experimental_stims/outdoor_scenes/sergey-pesterev-y-b_FOmJXdg-unsplash.jpg,Stimuli/Experimental_stims/body_parts/ira-vishnevskaya-8DQAvdCby1I-unsplash.jpg,0,1,1174,1,chosen,9,28,outdoor_scenes,body_parts,1100,0,7,2
23,70701,0,24,1,1,0,no_gain1,gain4,H,A,5,45,outdoor_scenes,88,76,objects,Stimuli/Experimental_stims/outdoor_scenes/jeff-king-bJHWJeiHfHc-unsplash.jpg,Stimuli/Experimental_stims/objects/leohoho-rngTKHXumy0-unsplash.jpg,0,1,1373,0,unchosen,5,45,outdoor_scenes,objects,1700,0,7,2
24,70701,0,25,1,1,0,no_gain3,gain5,B,J,22,14,faces,83,24,faces,Stimuli/Experimental_stims/faces/ravi-patel-VMGAbeeJTKo-unsplash.jpg,Stimuli/Experimental_stims/faces/david-siglin-UuW4psOb388-unsplash.jpg,1,NaN,,NaN,unchosen,NaN,NaN,NaN,NaN,2800,0,7,2
25,70701,0,26,1,1,1,gain4,no_gain3,A,B,9,3,outdoor_scenes,90,79,outdoor_scenes,Stimuli/Experimental_stims/outdoor_scenes/sergey-pesterev-y-b_FOmJXdg-unsplash.jpg,Stimuli/Experimental_stims/outdoor_scenes/henry-be-NLF6hTe4PAg-unsplash.jpg,0,1,1264,1,chosen,9,3,outdoor_scenes,outdoor_scenes,3200,1,7,2
26,70701,0,27,1,1,1,gain5,no_gain6,J,I,47,7,objects,66,77,outdoor_scenes,Stimuli/Experimental_stims/objects/ronaldo-arthur-vidal-Cdz_lvnl37k-unsplash.jpg,Stimuli/Experimental_stims/outdoor_scenes/petr-vysohlid-9fqwGqGLUxc-unsplash.jpg,0,1,1018,1,chosen,47,7,objects,outdoor_scenes,2000,0,7,2
27,70701,0,28,1,1,0,no_gain3,gain3,B,L,22,31,faces,83,75,body_parts,Stimuli/Experimental_stims/faces/ravi-patel-VMGAbeeJTKo-unsplash.jpg,Stimuli/Experimental_stims/body_parts/sincerely-media-VN6DbKajo5s-unsplash.jpg,0,1,1379,0,unchosen,22,31,faces,body_parts,1600,0,7,2
28,70701,0,29,1,1,1,gain6,no_gain3,F,B,24,3,body_parts,75,79,outdoor_scenes,Stimuli/Experimental_stims/body_parts/clay-banks-LjqARJaJotc-unsplash.jpg,Stimuli/Experimental_stims/outdoor_scenes/henry-be-NLF6hTe4PAg-unsplash.jpg,0,1,1108,1,chosen,24,3,body_parts,outdoor_scenes,1300,0,7,2
29,70701,0,30,1,1,1,gain5,no_gain5,J,D,14,20,faces,24,73,faces,Stimuli/Experimental_stims/faces/david-siglin-UuW4psOb388-unsplash.jpg,Stimuli/Experimental_stims/faces/justin-chen-J7Cf1Gch49E-unsplash.jpg,0,0,1151,0,unchosen,20,14,faces,faces,1200,0,7,2
30,70701,0,31,1,1,0,no_gain6,gain3,I,L,35,31,body_parts,32,75,body_parts,Stimuli/Experimental_stims/body_parts/wc-so-KH4AAPjb-tI-unsplash.jpg,Stimuli/Experimental_stims/body_parts/sincerely-media-VN6DbKajo5s-unsplash.jpg,0,1,1188,0,unchosen,35,31,body_parts,body_parts,3500,1,7,2
31,70701,0,32,1,1,0,no_gain1,gain1,H,G,19,10,faces,78,72,outdoor_scenes,Stimuli/Experimental_stims/faces/joel-mott-LaK153ghdig-unsplash.jpg,Stimuli/Experimental_stims/outdoor_scenes/shannon-kunkle-dM8INmkyDas-unsplash.jpg,1,NaN,,NaN,chosen,NaN,NaN,NaN,NaN,1800,0,7,2
32,70701,0,33,1,1,0,no_gain5,gain6,D,F,20,21,faces,73,72,faces,Stimuli/Experimental_stims/faces/justin-chen-J7Cf1Gch49E-unsplash.jpg,Stimuli/Experimental_stims/faces/leilani-angel-K84vnnzxmTQ-unsplash.jpg,1,NaN,,NaN,unchosen,NaN,NaN,NaN,NaN,1600,0,7,2
33,70701,0,34,1,1,0,no_gain1,gain5,H,J,19,47,faces,78,66,objects,Stimuli/Experimental_stims/faces/joel-mott-LaK153ghdig-unsplash.jpg,Stimuli/Experimental_stims/objects/ronaldo-arthur-vidal-Cdz_lvnl37k-unsplash.jpg,0,1,1375,0,chosen,19,47,faces,objects,2000,0,7,2
34,70701,0,35,1,1,0,no_gain5,gain5,D,J,40,47,objects,76,66,objects,Stimuli/Experimental_stims/objects/fabian-blank-pElSkGRA2NU-unsplash.jpg,Stimuli/Experimental_stims/objects/ronaldo-arthur-vidal-Cdz_lvnl37k-unsplash.jpg,0,1,732,0,chosen,40,47,objects,objects,1100,0,7,2
35,70701,0,36,1,1,1,gain1,no_gain2,G,K,43,30,objects,25,67,body_parts,Stimuli/Experimental_stims/objects/jonathan-greenaway-Y4hGgeiFn3s-unsplash.jpg,Stimuli/Experimental_stims/body_parts/mika-korhonen-Xodzxosar18-unsplash.jpg,0,0,985,0,unchosen,30,43,body_parts,objects,2800,0,7,2
36,70701,0,37,1,1,0,no_gain2,gain5,K,J,37,47,objects,79,66,objects,Stimuli/Experimental_stims/objects/alexander-andrews-VLGWE_SumrA-unsplash.jpg,Stimuli/Experimental_stims/objects/ronaldo-arthur-vidal-Cdz_lvnl37k-unsplash.jpg,0,1,814,0,chosen,37,47,objects,objects,3100,1,7,2
37,70701,0,38,1,1,0,no_gain4,gain2,E,C,46,0,objects,72,71,outdoor_scenes,Stimuli/Experimental_stims/objects/mockup-graphics-PNsj6RiHAF4-unsplash.jpg,Stimuli/Experimental_stims/outdoor_scenes/aleksandra-boguslawska-MS7KD9Ti7FQ-unsplash.jpg,0,0,1097,1,unchosen,0,46,outdoor_scenes,objects,1100,0,7,2
38,70701,0,39,1,1,0,no_gain4,gain1,E,G,46,43,objects,72,25,objects,Stimuli/Experimental_stims/objects/mockup-graphics-PNsj6RiHAF4-unsplash.jpg,Stimuli/Experimental_stims/objects/jonathan-greenaway-Y4hGgeiFn3s-unsplash.jpg,0,1,1159,0,unchosen,46,43,objects,objects,1100,0,7,2
39,70701,0,40,1,1,1,gain2,no_gain1,C,H,29,19,body_parts,69,78,faces,Stimuli/Experimental_stims/body_parts/manuel-schinner-ZwjFuJ7ebpk-unsplash.jpg,Stimuli/Experimental_stims/faces/joel-mott-LaK153ghdig-unsplash.jpg,0,0,1310,0,chosen,19,29,faces,body_parts,1100,0,7,2
40,70701,0,41,1,1,1,gain2,no_gain5,C,D,0,20,outdoor_scenes,71,73,faces,Stimuli/Experimental_stims/outdoor_scenes/aleksandra-boguslawska-MS7KD9Ti7FQ-unsplash.jpg,Stimuli/Experimental_stims/faces/justin-chen-J7Cf1Gch49E-unsplash.jpg,0,0,1070,0,unchosen,20,0,faces,outdoor_scenes,2300,0,7,2
41,70701,0,42,1,1,1,gain6,no_gain3,F,B,21,22,faces,72,83,faces,Stimuli/Experimental_stims/faces/leilani-angel-K84vnnzxmTQ-unsplash.jpg,Stimuli/Experimental_stims/faces/ravi-patel-VMGAbeeJTKo-unsplash.jpg,0,1,878,1,unchosen,21,22,faces,faces,3700,1,7,2
42,70701,0,43,1,1,0,no_gain6,gain5,I,J,35,14,body_parts,32,24,faces,Stimuli/Experimental_stims/body_parts/wc-so-KH4AAPjb-tI-unsplash.jpg,Stimuli/Experimental_stims/faces/david-siglin-UuW4psOb388-unsplash.jpg,0,0,927,1,unchosen,14,35,faces,body_parts,2400,0,7,2
43,70701,0,44,1,1,0,no_gain5,gain6,D,F,40,24,objects,76,75,body_parts,Stimuli/Experimental_stims/objects/fabian-blank-pElSkGRA2NU-unsplash.jpg,Stimuli/Experimental_stims/body_parts/clay-banks-LjqARJaJotc-unsplash.jpg,0,1,1170,0,chosen,40,24,objects,body_parts,1400,0,7,2
44,70701,0,45,1,1,0,no_gain2,gain6,K,F,30,21,body_parts,67,72,faces,Stimuli/Experimental_stims/body_parts/mika-korhonen-Xodzxosar18-unsplash.jpg,Stimuli/Experimental_stims/faces/leilani-angel-K84vnnzxmTQ-unsplash.jpg,0,0,905,1,unchosen,21,30,faces,body_parts,2500,0,7,2
45,70701,0,46,1,1,1,gain6,no_gain1,F,H,24,19,body_parts,75,78,faces,Stimuli/Experimental_stims/body_parts/clay-banks-LjqARJaJotc-unsplash.jpg,Stimuli/Experimental_stims/faces/joel-mott-LaK153ghdig-unsplash.jpg,0,1,1033,1,chosen,24,19,body_parts,faces,2600,0,7,2
46,70701,0,47,1,1,1,gain2,no_gain2,C,K,29,37,body_parts,69,79,objects,Stimuli/Experimental_stims/body_parts/manuel-schinner-ZwjFuJ7ebpk-unsplash.jpg,Stimuli/Experimental_stims/objects/alexander-andrews-VLGWE_SumrA-unsplash.jpg,0,0,997,0,chosen,37,29,objects,body_parts,1100,0,7,2
47,70701,0,48,1,1,0,no_gain6,gain1,I,G,35,43,body_parts,32,25,objects,Stimuli/Experimental_stims/body_parts/wc-so-KH4AAPjb-tI-unsplash.jpg,Stimuli/Experimental_stims/objects/jonathan-greenaway-Y4hGgeiFn3s-unsplash.jpg,0,1,1489,0,unchosen,35,43,body_parts,objects,4800,1,7,2
48,70701,0,49,1,1,1,gain4,no_gain3,A,B,45,22,objects,76,83,faces,Stimuli/Experimental_stims/objects/leohoho-rngTKHXumy0-unsplash.jpg,Stimuli/Experimental_stims/faces/ravi-patel-VMGAbeeJTKo-unsplash.jpg,0,0,1040,0,unchosen,22,45,faces,objects,1600,0,7,2
49,70701,0,50,1,1,1,gain6,no_gain4,F,E,24,28,body_parts,75,62,body_parts,Stimuli/Experimental_stims/body_parts/clay-banks-LjqARJaJotc-unsplash.jpg,Stimuli/Experimental_stims/body_parts/ira-vishnevskaya-8DQAvdCby1I-unsplash.jpg,0,1,1161,1,chosen,24,28,body_parts,body_parts,2800,0,7,2
50,70701,0,51,1,1,1,gain1,no_gain3,G,B,43,22,objects,25,83,faces,Stimuli/Experimental_stims/objects/jonathan-greenaway-Y4hGgeiFn3s-unsplash.jpg,Stimuli/Experimental_stims/faces/ravi-patel-VMGAbeeJTKo-unsplash.jpg,0,0,932,0,unchosen,22,43,faces,objects,2300,0,7,2
51,70701,0,52,1,1,1,gain3,no_gain5,L,D,31,20,body_parts,75,73,faces,Stimuli/Experimental_stims/body_parts/sincerely-media-VN6DbKajo5s-unsplash.jpg,Stimuli/Experimental_stims/faces/justin-chen-J7Cf1Gch49E-unsplash.jpg,0,1,1107,1,unchosen,31,20,body_parts,faces,2400,0,7,2
52,70701,0,53,1,1,1,gain4,no_gain4,A,E,45,46,objects,76,72,objects,Stimuli/Experimental_stims/objects/leohoho-rngTKHXumy0-unsplash.jpg,Stimuli/Experimental_stims/objects/mockup-graphics-PNsj6RiHAF4-unsplash.jpg,0,0,678,0,unchosen,46,45,objects,objects,1800,0,7,2
53,70701,0,54,1,1,0,no_gain6,gain1,I,G,7,10,outdoor_scenes,77,72,outdoor_scenes,Stimuli/Experimental_stims/outdoor_scenes/petr-vysohlid-9fqwGqGLUxc-unsplash.jpg,Stimuli/Experimental_stims/outdoor_scenes/shannon-kunkle-dM8INmkyDas-unsplash.jpg,0,1,730,0,chosen,7,10,outdoor_scenes,outdoor_scenes,1500,0,7,2
54,70701,0,55,1,1,1,gain6,no_gain4,F,E,21,46,faces,72,72,objects,Stimuli/Experimental_stims/faces/leilani-angel-K84vnnzxmTQ-unsplash.jpg,Stimuli/Experimental_stims/objects/mockup-graphics-PNsj6RiHAF4-unsplash.jpg,1,NaN,,NaN,unchosen,NaN,NaN,NaN,NaN,1900,0,7,2
55,70701,0,56,1,1,1,gain3,no_gain2,L,K,31,30,body_parts,75,67,body_parts,Stimuli/Experimental_stims/body_parts/sincerely-media-VN6DbKajo5s-unsplash.jpg,Stimuli/Experimental_stims/body_parts/mika-korhonen-Xodzxosar18-unsplash.jpg,0,0,886,0,unchosen,30,31,body_parts,body_parts,1100,0,7,2
56,70701,0,57,1,1,0,no_gain2,gain2,K,C,30,0,body_parts,67,71,outdoor_scenes,Stimuli/Experimental_stims/body_parts/mika-korhonen-Xodzxosar18-unsplash.jpg,Stimuli/Experimental_stims/outdoor_scenes/aleksandra-boguslawska-MS7KD9Ti7FQ-unsplash.jpg,0,1,1142,0,unchosen,30,0,body_parts,outdoor_scenes,1700,0,7,2
57,70701,0,58,1,1,1,gain5,no_gain3,J,B,47,3,objects,66,79,outdoor_scenes,Stimuli/Experimental_stims/objects/ronaldo-arthur-vidal-Cdz_lvnl37k-unsplash.jpg,Stimuli/Experimental_stims/outdoor_scenes/henry-be-NLF6hTe4PAg-unsplash.jpg,0,0,907,0,chosen,3,47,outdoor_scenes,objects,1600,0,7,2
58,70701,0,59,1,1,1,gain6,no_gain1,F,H,21,5,faces,72,88,outdoor_scenes,Stimuli/Experimental_stims/faces/leilani-angel-K84vnnzxmTQ-unsplash.jpg,Stimuli/Experimental_stims/outdoor_scenes/jeff-king-bJHWJeiHfHc-unsplash.jpg,0,0,683,0,unchosen,5,21,outdoor_scenes,faces,1700,0,7,2
59,70701,0,60,1,1,0,no_gain5,gain4,D,A,40,9,objects,76,90,outdoor_scenes,Stimuli/Experimental_stims/objects/fabian-blank-pElSkGRA2NU-unsplash.jpg,Stimuli/Experimental_stims/outdoor_scenes/sergey-pesterev-y-b_FOmJXdg-unsplash.jpg,0,1,744,0,chosen,40,9,objects,outdoor_scenes,3000,0,7,2
60,70701,0,61,1,1,1,gain3,no_gain6,L,I,23,7,faces,70,77,outdoor_scenes,Stimuli/Experimental_stims/faces/rikonavt-HQjfrvdTfak-unsplash.jpg,Stimuli/Experimental_stims/outdoor_scenes/petr-vysohlid-9fqwGqGLUxc-unsplash.jpg,0,1,790,1,chosen,23,7,faces,outdoor_scenes,2100,0,7,2
61,70701,0,62,1,1,1,gain5,no_gain2,J,K,14,30,faces,24,67,body_parts,Stimuli/Experimental_stims/faces/david-siglin-UuW4psOb388-unsplash.jpg,Stimuli/Experimental_stims/body_parts/mika-korhonen-Xodzxosar18-unsplash.jpg,0,0,717,0,unchosen,30,14,body_parts,faces,3200,1,7,2
62,70701,0,63,1,1,1,gain1,no_gain5,G,D,10,40,outdoor_scenes,72,76,objects,Stimuli/Experimental_stims/outdoor_scenes/shannon-kunkle-dM8INmkyDas-unsplash.jpg,Stimuli/Experimental_stims/objects/fabian-blank-pElSkGRA2NU-unsplash.jpg,0,1,965,1,chosen,10,40,outdoor_scenes,objects,1600,0,7,2
63,70701,0,64,1,1,0,no_gain2,gain4,K,A,37,9,objects,79,90,outdoor_scenes,Stimuli/Experimental_stims/objects/alexander-andrews-VLGWE_SumrA-unsplash.jpg,Stimuli/Experimental_stims/outdoor_scenes/sergey-pesterev-y-b_FOmJXdg-unsplash.jpg,0,0,723,1,chosen,9,37,outdoor_scenes,objects,1300,0,7,2
64,70701,0,65,1,1,0,no_gain1,gain1,H,G,5,43,outdoor_scenes,88,25,objects,Stimuli/Experimental_stims/outdoor_scenes/jeff-king-bJHWJeiHfHc-unsplash.jpg,Stimuli/Experimental_stims/objects/jonathan-greenaway-Y4hGgeiFn3s-unsplash.jpg,0,0,797,1,unchosen,43,5,objects,outdoor_scenes,1800,0,7,2
65,70701,0,66,1,1,0,no_gain1,gain4,H,A,19,9,faces,78,90,outdoor_scenes,Stimuli/Experimental_stims/faces/joel-mott-LaK153ghdig-unsplash.jpg,Stimuli/Experimental_stims/outdoor_scenes/sergey-pesterev-y-b_FOmJXdg-unsplash.jpg,0,1,733,0,chosen,19,9,faces,outdoor_scenes,1400,0,7,2
66,70701,0,67,1,1,0,no_gain3,gain3,B,L,3,23,outdoor_scenes,79,70,faces,Stimuli/Experimental_stims/outdoor_scenes/henry-be-NLF6hTe4PAg-unsplash.jpg,Stimuli/Experimental_stims/faces/rikonavt-HQjfrvdTfak-unsplash.jpg,0,0,798,1,chosen,23,3,faces,outdoor_scenes,1500,0,7,2
67,70701,0,68,1,1,0,no_gain6,gain2,I,C,7,29,outdoor_scenes,77,69,body_parts,Stimuli/Experimental_stims/outdoor_scenes/petr-vysohlid-9fqwGqGLUxc-unsplash.jpg,Stimuli/Experimental_stims/body_parts/manuel-schinner-ZwjFuJ7ebpk-unsplash.jpg,1,NaN,,NaN,chosen,NaN,NaN,NaN,NaN,1100,0,7,2
68,70701,0,69,1,1,0,no_gain6,gain4,I,A,35,45,body_parts,32,76,objects,Stimuli/Experimental_stims/body_parts/wc-so-KH4AAPjb-tI-unsplash.jpg,Stimuli/Experimental_stims/objects/leohoho-rngTKHXumy0-unsplash.jpg,0,0,797,1,unchosen,45,35,objects,body_parts,4300,1,7,2
69,70701,0,70,1,1,0,no_gain2,gain3,K,L,37,23,objects,79,70,faces,Stimuli/Experimental_stims/objects/alexander-andrews-VLGWE_SumrA-unsplash.jpg,Stimuli/Experimental_stims/faces/rikonavt-HQjfrvdTfak-unsplash.jpg,0,1,753,0,chosen,37,23,objects,faces,1100,0,7,2
70,70701,0,71,1,1,1,gain2,no_gain5,C,D,29,40,body_parts,69,76,objects,Stimuli/Experimental_stims/body_parts/manuel-schinner-ZwjFuJ7ebpk-unsplash.jpg,Stimuli/Experimental_stims/objects/fabian-blank-pElSkGRA2NU-unsplash.jpg,1,NaN,,NaN,chosen,NaN,NaN,NaN,NaN,1300,0,7,2
71,70701,0,72,1,1,1,gain2,no_gain6,C,I,0,35,outdoor_scenes,71,32,body_parts,Stimuli/Experimental_stims/outdoor_scenes/aleksandra-boguslawska-MS7KD9Ti7FQ-unsplash.jpg,Stimuli/Experimental_stims/body_parts/wc-so-KH4AAPjb-tI-unsplash.jpg,1,NaN,,NaN,unchosen,NaN,NaN,NaN,NaN,2000,0,7,2
72,70701,0,73,1,1,0,no_gain4,gain3,E,L,46,31,objects,72,75,body_parts,Stimuli/Experimental_stims/objects/mockup-graphics-PNsj6RiHAF4-unsplash.jpg,Stimuli/Experimental_stims/body_parts/sincerely-media-VN6DbKajo5s-unsplash.jpg,0,1,852,0,unchosen,46,31,objects,body_parts,1900,0,7,2
73,70701,0,74,1,1,0,no_gain4,gain5,E,J,28,47,body_parts,62,66,objects,Stimuli/Experimental_stims/body_parts/ira-vishnevskaya-8DQAvdCby1I-unsplash.jpg,Stimuli/Experimental_stims/objects/ronaldo-arthur-vidal-Cdz_lvnl37k-unsplash.jpg,0,0,663,1,chosen,47,28,objects,body_parts,2200,0,7,2
74,70701,0,75,1,1,1,gain4,no_gain6,A,I,9,7,outdoor_scenes,90,77,outdoor_scenes,Stimuli/Experimental_stims/outdoor_scenes/sergey-pesterev-y-b_FOmJXdg-unsplash.jpg,Stimuli/Experimental_stims/outdoor_scenes/petr-vysohlid-9fqwGqGLUxc-unsplash.jpg,0,1,875,1,chosen,9,7,outdoor_scenes,outdoor_scenes,1000,0,7,2
75,70701,0,76,1,1,1,gain4,no_gain5,A,D,45,20,objects,76,73,faces,Stimuli/Experimental_stims/objects/leohoho-rngTKHXumy0-unsplash.jpg,Stimuli/Experimental_stims/faces/justin-chen-J7Cf1Gch49E-unsplash.jpg,0,1,1052,1,unchosen,45,20,objects,faces,1100,0,7,2
76,70701,0,77,2,2,1,gain6,no_gain3,F,B,21,22,faces,72,83,faces,Stimuli/Experimental_stims/faces/leilani-angel-K84vnnzxmTQ-unsplash.jpg,Stimuli/Experimental_stims/faces/ravi-patel-VMGAbeeJTKo-unsplash.jpg,0,0,1099,0,unchosen,22,21,faces,faces,3800,1,10,2
77,70701,0,78,2,2,1,gain6,no_gain4,F,E,24,28,body_parts,75,62,body_parts,Stimuli/Experimental_stims/body_parts/clay-banks-LjqARJaJotc-unsplash.jpg,Stimuli/Experimental_stims/body_parts/ira-vishnevskaya-8DQAvdCby1I-unsplash.jpg,0,1,708,1,chosen,24,28,body_parts,body_parts,2000,0,10,2
78,70701,0,79,2,2,1,gain3,no_gain1,L,H,23,19,faces,70,78,faces,Stimuli/Experimental_stims/faces/rikonavt-HQjfrvdTfak-unsplash.jpg,Stimuli/Experimental_stims/faces/joel-mott-LaK153ghdig-unsplash.jpg,0,0,578,0,chosen,19,23,faces,faces,3000,0,10,2
79,70701,0,80,2,2,1,gain4,no_gain3,A,B,45,22,objects,76,83,faces,Stimuli/Experimental_stims/objects/leohoho-rngTKHXumy0-unsplash.jpg,Stimuli/Experimental_stims/faces/ravi-patel-VMGAbeeJTKo-unsplash.jpg,0,1,590,1,unchosen,45,22,objects,faces,1400,0,10,2
80,70701,0,81,2,2,1,gain6,no_gain6,F,I,24,7,body_parts,75,77,outdoor_scenes,Stimuli/Experimental_stims/body_parts/clay-banks-LjqARJaJotc-unsplash.jpg,Stimuli/Experimental_stims/outdoor_scenes/petr-vysohlid-9fqwGqGLUxc-unsplash.jpg,0,1,819,1,chosen,24,7,body_parts,outdoor_scenes,2900,0,10,2
81,70701,0,82,2,2,1,gain2,no_gain1,C,H,29,19,body_parts,69,78,faces,Stimuli/Experimental_stims/body_parts/manuel-schinner-ZwjFuJ7ebpk-unsplash.jpg,Stimuli/Experimental_stims/faces/joel-mott-LaK153ghdig-unsplash.jpg,0,1,757,1,chosen,29,19,body_parts,faces,2000,0,10,2
82,70701,0,83,2,2,0,no_gain1,gain3,H,L,5,31,outdoor_scenes,88,75,body_parts,Stimuli/Experimental_stims/outdoor_scenes/jeff-king-bJHWJeiHfHc-unsplash.jpg,Stimuli/Experimental_stims/body_parts/sincerely-media-VN6DbKajo5s-unsplash.jpg,0,1,862,0,unchosen,5,31,outdoor_scenes,body_parts,2700,0,10,2
83,70701,0,84,2,2,0,no_gain6,gain2,I,C,7,29,outdoor_scenes,77,69,body_parts,Stimuli/Experimental_stims/outdoor_scenes/petr-vysohlid-9fqwGqGLUxc-unsplash.jpg,Stimuli/Experimental_stims/body_parts/manuel-schinner-ZwjFuJ7ebpk-unsplash.jpg,0,0,858,1,chosen,29,7,body_parts,outdoor_scenes,3600,1,10,2
84,70701,0,85,2,2,0,no_gain3,gain2,B,C,22,0,faces,83,71,outdoor_scenes,Stimuli/Experimental_stims/faces/ravi-patel-VMGAbeeJTKo-unsplash.jpg,Stimuli/Experimental_stims/outdoor_scenes/aleksandra-boguslawska-MS7KD9Ti7FQ-unsplash.jpg,0,1,762,0,unchosen,22,0,faces,outdoor_scenes,1300,0,10,2
85,70701,0,86,2,2,1,gain6,no_gain1,F,H,21,5,faces,72,88,outdoor_scenes,Stimuli/Experimental_stims/faces/leilani-angel-K84vnnzxmTQ-unsplash.jpg,Stimuli/Experimental_stims/outdoor_scenes/jeff-king-bJHWJeiHfHc-unsplash.jpg,0,0,1004,0,unchosen,5,21,outdoor_scenes,faces,3000,0,10,2
86,70701,0,87,2,2,0,no_gain5,gain4,D,A,20,45,faces,73,76,objects,Stimuli/Experimental_stims/faces/justin-chen-J7Cf1Gch49E-unsplash.jpg,Stimuli/Experimental_stims/objects/leohoho-rngTKHXumy0-unsplash.jpg,0,1,784,0,unchosen,20,45,faces,objects,2600,0,10,2
87,70701,0,88,2,2,0,no_gain2,gain3,K,L,37,23,objects,79,70,faces,Stimuli/Experimental_stims/objects/alexander-andrews-VLGWE_SumrA-unsplash.jpg,Stimuli/Experimental_stims/faces/rikonavt-HQjfrvdTfak-unsplash.jpg,0,0,720,1,chosen,23,37,faces,objects,1100,0,10,2
88,70701,0,89,2,2,0,no_gain1,gain1,H,G,19,10,faces,78,72,outdoor_scenes,Stimuli/Experimental_stims/faces/joel-mott-LaK153ghdig-unsplash.jpg,Stimuli/Experimental_stims/outdoor_scenes/shannon-kunkle-dM8INmkyDas-unsplash.jpg,0,1,773,0,chosen,19,10,faces,outdoor_scenes,1400,0,10,2
89,70701,0,90,2,2,0,no_gain5,gain2,D,C,20,0,faces,73,71,outdoor_scenes,Stimuli/Experimental_stims/faces/justin-chen-J7Cf1Gch49E-unsplash.jpg,Stimuli/Experimental_stims/outdoor_scenes/aleksandra-boguslawska-MS7KD9Ti7FQ-unsplash.jpg,0,0,1031,1,unchosen,0,20,outdoor_scenes,faces,1100,0,10,2
90,70701,0,91,2,2,1,gain3,no_gain3,L,B,31,22,body_parts,75,83,faces,Stimuli/Experimental_stims/body_parts/sincerely-media-VN6DbKajo5s-unsplash.jpg,Stimuli/Experimental_stims/faces/ravi-patel-VMGAbeeJTKo-unsplash.jpg,0,1,846,1,unchosen,31,22,body_parts,faces,2900,0,10,2
91,70701,0,92,2,2,1,gain5,no_gain4,J,E,47,28,objects,66,62,body_parts,Stimuli/Experimental_stims/objects/ronaldo-arthur-vidal-Cdz_lvnl37k-unsplash.jpg,Stimuli/Experimental_stims/body_parts/ira-vishnevskaya-8DQAvdCby1I-unsplash.jpg,0,0,887,0,chosen,28,47,body_parts,objects,1600,0,10,2
92,70701,0,93,2,2,1,gain2,no_gain6,C,I,0,35,outdoor_scenes,71,32,body_parts,Stimuli/Experimental_stims/outdoor_scenes/aleksandra-boguslawska-MS7KD9Ti7FQ-unsplash.jpg,Stimuli/Experimental_stims/body_parts/wc-so-KH4AAPjb-tI-unsplash.jpg,0,1,922,1,unchosen,0,35,outdoor_scenes,body_parts,1500,0,10,2
93,70701,0,94,2,2,0,no_gain5,gain6,D,F,20,21,faces,73,72,faces,Stimuli/Experimental_stims/faces/justin-chen-J7Cf1Gch49E-unsplash.jpg,Stimuli/Experimental_stims/faces/leilani-angel-K84vnnzxmTQ-unsplash.jpg,1,NaN,,NaN,unchosen,NaN,NaN,NaN,NaN,3800,1,10,2
94,70701,0,95,2,2,0,no_gain6,gain4,I,A,7,9,outdoor_scenes,77,90,outdoor_scenes,Stimuli/Experimental_stims/outdoor_scenes/petr-vysohlid-9fqwGqGLUxc-unsplash.jpg,Stimuli/Experimental_stims/outdoor_scenes/sergey-pesterev-y-b_FOmJXdg-unsplash.jpg,0,0,686,1,chosen,9,7,outdoor_scenes,outdoor_scenes,1500,0,10,2
95,70701,0,96,2,2,1,gain5,no_gain2,J,K,14,30,faces,24,67,body_parts,Stimuli/Experimental_stims/faces/david-siglin-UuW4psOb388-unsplash.jpg,Stimuli/Experimental_stims/body_parts/mika-korhonen-Xodzxosar18-unsplash.jpg,0,1,707,1,unchosen,14,30,faces,body_parts,1000,0,10,2
96,70701,0,97,2,2,1,gain4,no_gain4,A,E,45,46,objects,76,72,objects,Stimuli/Experimental_stims/objects/leohoho-rngTKHXumy0-unsplash.jpg,Stimuli/Experimental_stims/objects/mockup-graphics-PNsj6RiHAF4-unsplash.jpg,0,0,1221,0,unchosen,46,45,objects,objects,1600,0,10,2
97,70701,0,98,2,2,0,no_gain5,gain3,D,L,40,23,objects,76,70,faces,Stimuli/Experimental_stims/objects/fabian-blank-pElSkGRA2NU-unsplash.jpg,Stimuli/Experimental_stims/faces/rikonavt-HQjfrvdTfak-unsplash.jpg,0,0,905,1,chosen,23,40,faces,objects,1300,0,10,2
98,70701,0,99,2,2,1,gain2,no_gain4,C,E,29,28,body_parts,69,62,body_parts,Stimuli/Experimental_stims/body_parts/manuel-schinner-ZwjFuJ7ebpk-unsplash.jpg,Stimuli/Experimental_stims/body_parts/ira-vishnevskaya-8DQAvdCby1I-unsplash.jpg,0,1,919,1,chosen,29,28,body_parts,body_parts,3500,1,10,2
99,70701,0,100,2,2,0,no_gain2,gain4,K,A,37,9,objects,79,90,outdoor_scenes,Stimuli/Experimental_stims/objects/alexander-andrews-VLGWE_SumrA-unsplash.jpg,Stimuli/Experimental_stims/outdoor_scenes/sergey-pesterev-y-b_FOmJXdg-unsplash.jpg,0,0,946,1,chosen,9,37,outdoor_scenes,objects,2500,0,10,2
100,70701,0,101,2,2,1,gain5,no_gain6,J,I,14,35,faces,24,32,body_parts,Stimuli/Experimental_stims/faces/david-siglin-UuW4psOb388-unsplash.jpg,Stimuli/Experimental_stims/body_parts/wc-so-KH4AAPjb-tI-unsplash.jpg,1,NaN,,NaN,unchosen,NaN,NaN,NaN,NaN,1100,0,10,2
101,70701,0,102,2,2,1,gain3,no_gain3,L,B,23,3,faces,70,79,outdoor_scenes,Stimuli/Experimental_stims/faces/rikonavt-HQjfrvdTfak-unsplash.jpg,Stimuli/Experimental_stims/outdoor_scenes/henry-be-NLF6hTe4PAg-unsplash.jpg,0,0,1187,0,chosen,3,23,outdoor_scenes,faces,1000,0,10,2
102,70701,0,103,2,2,0,no_gain2,gain1,K,G,30,43,body_parts,67,25,objects,Stimuli/Experimental_stims/body_parts/mika-korhonen-Xodzxosar18-unsplash.jpg,Stimuli/Experimental_stims/objects/jonathan-greenaway-Y4hGgeiFn3s-unsplash.jpg,0,0,1205,1,unchosen,43,30,objects,body_parts,2100,0,10,2
103,70701,0,104,2,2,1,gain4,no_gain4,A,E,9,28,outdoor_scenes,90,62,body_parts,Stimuli/Experimental_stims/outdoor_scenes/sergey-pesterev-y-b_FOmJXdg-unsplash.jpg,Stimuli/Experimental_stims/body_parts/ira-vishnevskaya-8DQAvdCby1I-unsplash.jpg,0,1,914,1,chosen,9,28,outdoor_scenes,body_parts,1300,0,10,2
104,70701,0,105,2,2,0,no_gain2,gain4,K,A,30,45,body_parts,67,76,objects,Stimuli/Experimental_stims/body_parts/mika-korhonen-Xodzxosar18-unsplash.jpg,Stimuli/Experimental_stims/objects/leohoho-rngTKHXumy0-unsplash.jpg,1,NaN,,NaN,unchosen,NaN,NaN,NaN,NaN,2000,0,10,2
105,70701,0,106,2,2,1,gain5,no_gain1,J,H,47,19,objects,66,78,faces,Stimuli/Experimental_stims/objects/ronaldo-arthur-vidal-Cdz_lvnl37k-unsplash.jpg,Stimuli/Experimental_stims/faces/joel-mott-LaK153ghdig-unsplash.jpg,0,1,1041,1,chosen,47,19,objects,faces,3100,1,10,2
106,70701,0,107,2,2,0,no_gain6,gain3,I,L,35,31,body_parts,32,75,body_parts,Stimuli/Experimental_stims/body_parts/wc-so-KH4AAPjb-tI-unsplash.jpg,Stimuli/Experimental_stims/body_parts/sincerely-media-VN6DbKajo5s-unsplash.jpg,0,0,1392,1,unchosen,31,35,body_parts,body_parts,1400,0,10,2
107,70701,0,108,2,2,1,gain6,no_gain1,F,H,24,19,body_parts,75,78,faces,Stimuli/Experimental_stims/body_parts/clay-banks-LjqARJaJotc-unsplash.jpg,Stimuli/Experimental_stims/faces/joel-mott-LaK153ghdig-unsplash.jpg,0,1,972,1,chosen,24,19,body_parts,faces,1300,0,10,2
108,70701,0,109,2,2,0,no_gain2,gain5,K,J,37,47,objects,79,66,objects,Stimuli/Experimental_stims/objects/alexander-andrews-VLGWE_SumrA-unsplash.jpg,Stimuli/Experimental_stims/objects/ronaldo-arthur-vidal-Cdz_lvnl37k-unsplash.jpg,0,0,670,1,chosen,47,37,objects,objects,1300,0,10,2
109,70701,0,110,2,2,0,no_gain5,gain5,D,J,20,14,faces,73,24,faces,Stimuli/Experimental_stims/faces/justin-chen-J7Cf1Gch49E-unsplash.jpg,Stimuli/Experimental_stims/faces/david-siglin-UuW4psOb388-unsplash.jpg,0,1,589,0,unchosen,20,14,faces,faces,1200,0,10,2
110,70701,0,111,2,2,0,no_gain5,gain1,D,G,20,43,faces,73,25,objects,Stimuli/Experimental_stims/faces/justin-chen-J7Cf1Gch49E-unsplash.jpg,Stimuli/Experimental_stims/objects/jonathan-greenaway-Y4hGgeiFn3s-unsplash.jpg,0,0,783,1,unchosen,43,20,objects,faces,1300,0,10,2
111,70701,0,112,2,2,0,no_gain6,gain5,I,J,7,47,outdoor_scenes,77,66,objects,Stimuli/Experimental_stims/outdoor_scenes/petr-vysohlid-9fqwGqGLUxc-unsplash.jpg,Stimuli/Experimental_stims/objects/ronaldo-arthur-vidal-Cdz_lvnl37k-unsplash.jpg,0,1,1228,0,chosen,7,47,outdoor_scenes,objects,1100,0,10,2
112,70701,0,113,2,2,1,gain2,no_gain2,C,K,29,37,body_parts,69,79,objects,Stimuli/Experimental_stims/body_parts/manuel-schinner-ZwjFuJ7ebpk-unsplash.jpg,Stimuli/Experimental_stims/objects/alexander-andrews-VLGWE_SumrA-unsplash.jpg,1,NaN,,NaN,chosen,NaN,NaN,NaN,NaN,1900,0,10,2
113,70701,0,114,2,2,1,gain1,no_gain6,G,I,43,35,objects,25,32,body_parts,Stimuli/Experimental_stims/objects/jonathan-greenaway-Y4hGgeiFn3s-unsplash.jpg,Stimuli/Experimental_stims/body_parts/wc-so-KH4AAPjb-tI-unsplash.jpg,1,NaN,,NaN,unchosen,NaN,NaN,NaN,NaN,2100,0,10,2
114,70701,0,115,2,2,0,no_gain3,gain5,B,J,22,14,faces,83,24,faces,Stimuli/Experimental_stims/faces/ravi-patel-VMGAbeeJTKo-unsplash.jpg,Stimuli/Experimental_stims/faces/david-siglin-UuW4psOb388-unsplash.jpg,1,NaN,,NaN,unchosen,NaN,NaN,NaN,NaN,1400,0,10,2
115,70701,0,116,2,2,1,gain3,no_gain6,L,I,23,7,faces,70,77,outdoor_scenes,Stimuli/Experimental_stims/faces/rikonavt-HQjfrvdTfak-unsplash.jpg,Stimuli/Experimental_stims/outdoor_scenes/petr-vysohlid-9fqwGqGLUxc-unsplash.jpg,0,1,818,1,chosen,23,7,faces,outdoor_scenes,1100,0,10,2
116,70701,0,117,2,2,0,no_gain5,gain5,D,J,40,47,objects,76,66,objects,Stimuli/Experimental_stims/objects/fabian-blank-pElSkGRA2NU-unsplash.jpg,Stimuli/Experimental_stims/objects/ronaldo-arthur-vidal-Cdz_lvnl37k-unsplash.jpg,0,1,215,0,chosen,40,47,objects,objects,1600,0,10,2
117,70701,0,118,2,2,1,gain3,no_gain4,L,E,31,46,body_parts,75,72,objects,Stimuli/Experimental_stims/body_parts/sincerely-media-VN6DbKajo5s-unsplash.jpg,Stimuli/Experimental_stims/objects/mockup-graphics-PNsj6RiHAF4-unsplash.jpg,0,1,523,1,unchosen,31,46,body_parts,objects,1300,0,10,2
118,70701,0,119,2,2,1,gain4,no_gain1,A,H,9,19,outdoor_scenes,90,78,faces,Stimuli/Experimental_stims/outdoor_scenes/sergey-pesterev-y-b_FOmJXdg-unsplash.jpg,Stimuli/Experimental_stims/faces/joel-mott-LaK153ghdig-unsplash.jpg,0,0,219,0,chosen,19,9,faces,outdoor_scenes,2500,0,10,2
119,70701,0,120,2,2,0,no_gain4,gain2,E,C,46,0,objects,72,71,outdoor_scenes,Stimuli/Experimental_stims/objects/mockup-graphics-PNsj6RiHAF4-unsplash.jpg,Stimuli/Experimental_stims/outdoor_scenes/aleksandra-boguslawska-MS7KD9Ti7FQ-unsplash.jpg,0,0,215,1,unchosen,0,46,outdoor_scenes,objects,4300,1,10,2
120,70701,0,121,2,2,0,no_gain3,gain4,B,A,3,9,outdoor_scenes,79,90,outdoor_scenes,Stimuli/Experimental_stims/outdoor_scenes/henry-be-NLF6hTe4PAg-unsplash.jpg,Stimuli/Experimental_stims/outdoor_scenes/sergey-pesterev-y-b_FOmJXdg-unsplash.jpg,0,0,78,1,chosen,9,3,outdoor_scenes,outdoor_scenes,2400,0,10,2
121,70701,0,122,2,2,1,gain1,no_gain4,G,E,43,46,objects,25,72,objects,Stimuli/Experimental_stims/objects/jonathan-greenaway-Y4hGgeiFn3s-unsplash.jpg,Stimuli/Experimental_stims/objects/mockup-graphics-PNsj6RiHAF4-unsplash.jpg,0,1,3,1,unchosen,43,46,objects,objects,1800,0,10,2
122,70701,0,123,2,2,1,gain6,no_gain3,F,B,24,3,body_parts,75,79,outdoor_scenes,Stimuli/Experimental_stims/body_parts/clay-banks-LjqARJaJotc-unsplash.jpg,Stimuli/Experimental_stims/outdoor_scenes/henry-be-NLF6hTe4PAg-unsplash.jpg,0,0,292,0,chosen,3,24,outdoor_scenes,body_parts,1000,0,10,2
123,70701,0,124,2,2,1,gain5,no_gain1,J,H,14,5,faces,24,88,outdoor_scenes,Stimuli/Experimental_stims/faces/david-siglin-UuW4psOb388-unsplash.jpg,Stimuli/Experimental_stims/outdoor_scenes/jeff-king-bJHWJeiHfHc-unsplash.jpg,0,0,32,0,unchosen,5,14,outdoor_scenes,faces,2000,0,10,2
124,70701,0,125,2,2,1,gain3,no_gain2,L,K,31,30,body_parts,75,67,body_parts,Stimuli/Experimental_stims/body_parts/sincerely-media-VN6DbKajo5s-unsplash.jpg,Stimuli/Experimental_stims/body_parts/mika-korhonen-Xodzxosar18-unsplash.jpg,0,1,178,1,unchosen,31,30,body_parts,body_parts,2700,0,10,2
125,70701,0,126,2,2,0,no_gain2,gain2,K,C,30,0,body_parts,67,71,outdoor_scenes,Stimuli/Experimental_stims/body_parts/mika-korhonen-Xodzxosar18-unsplash.jpg,Stimuli/Experimental_stims/outdoor_scenes/aleksandra-boguslawska-MS7KD9Ti7FQ-unsplash.jpg,0,1,1,0,unchosen,30,0,body_parts,outdoor_scenes,2500,0,10,2
126,70701,0,127,2,2,0,no_gain4,gain1,E,G,28,10,body_parts,62,72,outdoor_scenes,Stimuli/Experimental_stims/body_parts/ira-vishnevskaya-8DQAvdCby1I-unsplash.jpg,Stimuli/Experimental_stims/outdoor_scenes/shannon-kunkle-dM8INmkyDas-unsplash.jpg,0,1,3,0,chosen,28,10,body_parts,outdoor_scenes,1800,0,10,2
127,70701,0,128,2,2,1,gain4,no_gain6,A,I,45,35,objects,76,32,body_parts,Stimuli/Experimental_stims/objects/leohoho-rngTKHXumy0-unsplash.jpg,Stimuli/Experimental_stims/body_parts/wc-so-KH4AAPjb-tI-unsplash.jpg,0,1,34,1,unchosen,45,35,objects,body_parts,1200,0,10,2
128,70701,0,129,2,2,0,no_gain1,gain2,H,C,5,0,outdoor_scenes,88,71,outdoor_scenes,Stimuli/Experimental_stims/outdoor_scenes/jeff-king-bJHWJeiHfHc-unsplash.jpg,Stimuli/Experimental_stims/outdoor_scenes/aleksandra-boguslawska-MS7KD9Ti7FQ-unsplash.jpg,0,1,12,0,unchosen,5,0,outdoor_scenes,outdoor_scenes,3800,1,10,2
129,70701,0,130,2,2,1,gain1,no_gain6,G,I,10,7,outdoor_scenes,72,77,outdoor_scenes,Stimuli/Experimental_stims/outdoor_scenes/shannon-kunkle-dM8INmkyDas-unsplash.jpg,Stimuli/Experimental_stims/outdoor_scenes/petr-vysohlid-9fqwGqGLUxc-unsplash.jpg,0,1,500,1,chosen,10,7,outdoor_scenes,outdoor_scenes,1300,0,10,2
130,70701,0,131,2,2,1,gain6,no_gain4,F,E,21,46,faces,72,72,objects,Stimuli/Experimental_stims/faces/leilani-angel-K84vnnzxmTQ-unsplash.jpg,Stimuli/Experimental_stims/objects/mockup-graphics-PNsj6RiHAF4-unsplash.jpg,0,0,202,0,unchosen,46,21,objects,faces,2900,0,10,2
131,70701,0,132,2,2,0,no_gain5,gain2,D,C,40,29,objects,76,69,body_parts,Stimuli/Experimental_stims/objects/fabian-blank-pElSkGRA2NU-unsplash.jpg,Stimuli/Experimental_stims/body_parts/manuel-schinner-ZwjFuJ7ebpk-unsplash.jpg,0,1,206,0,chosen,40,29,objects,body_parts,1200,0,10,2
132,70701,0,133,2,2,0,no_gain5,gain6,D,F,40,24,objects,76,75,body_parts,Stimuli/Experimental_stims/objects/fabian-blank-pElSkGRA2NU-unsplash.jpg,Stimuli/Experimental_stims/body_parts/clay-banks-LjqARJaJotc-unsplash.jpg,0,1,28,0,chosen,40,24,objects,body_parts,1300,0,10,2
133,70701,0,134,2,2,0,no_gain2,gain6,K,F,30,21,body_parts,67,72,faces,Stimuli/Experimental_stims/body_parts/mika-korhonen-Xodzxosar18-unsplash.jpg,Stimuli/Experimental_stims/faces/leilani-angel-K84vnnzxmTQ-unsplash.jpg,0,0,126,1,unchosen,21,30,faces,body_parts,2500,0,10,2
134,70701,0,135,2,2,1,gain5,no_gain3,J,B,47,3,objects,66,79,outdoor_scenes,Stimuli/Experimental_stims/objects/ronaldo-arthur-vidal-Cdz_lvnl37k-unsplash.jpg,Stimuli/Experimental_stims/outdoor_scenes/henry-be-NLF6hTe4PAg-unsplash.jpg,0,0,275,0,chosen,3,47,outdoor_scenes,objects,3000,0,10,2
135,70701,0,136,2,2,1,gain4,no_gain5,A,D,9,40,outdoor_scenes,90,76,objects,Stimuli/Experimental_stims/outdoor_scenes/sergey-pesterev-y-b_FOmJXdg-unsplash.jpg,Stimuli/Experimental_stims/objects/fabian-blank-pElSkGRA2NU-unsplash.jpg,0,1,41,1,chosen,9,40,outdoor_scenes,objects,4200,1,10,2
136,70701,0,137,2,2,0,no_gain6,gain6,I,F,35,21,body_parts,32,72,faces,Stimuli/Experimental_stims/body_parts/wc-so-KH4AAPjb-tI-unsplash.jpg,Stimuli/Experimental_stims/faces/leilani-angel-K84vnnzxmTQ-unsplash.jpg,0,0,213,1,unchosen,21,35,faces,body_parts,1700,0,10,2
137,70701,0,138,2,2,0,no_gain3,gain1,B,G,3,10,outdoor_scenes,79,72,outdoor_scenes,Stimuli/Experimental_stims/outdoor_scenes/henry-be-NLF6hTe4PAg-unsplash.jpg,Stimuli/Experimental_stims/outdoor_scenes/shannon-kunkle-dM8INmkyDas-unsplash.jpg,0,0,134,1,chosen,10,3,outdoor_scenes,outdoor_scenes,1300,0,10,2
138,70701,0,139,2,2,0,no_gain2,gain1,K,G,37,10,objects,79,72,outdoor_scenes,Stimuli/Experimental_stims/objects/alexander-andrews-VLGWE_SumrA-unsplash.jpg,Stimuli/Experimental_stims/outdoor_scenes/shannon-kunkle-dM8INmkyDas-unsplash.jpg,0,1,380,0,chosen,37,10,objects,outdoor_scenes,1100,0,10,2
139,70701,0,140,2,2,0,no_gain2,gain6,K,F,37,24,objects,79,75,body_parts,Stimuli/Experimental_stims/objects/alexander-andrews-VLGWE_SumrA-unsplash.jpg,Stimuli/Experimental_stims/body_parts/clay-banks-LjqARJaJotc-unsplash.jpg,0,0,215,1,chosen,24,37,body_parts,objects,1300,0,10,2
140,70701,0,141,2,2,1,gain5,no_gain4,J,E,14,46,faces,24,72,objects,Stimuli/Experimental_stims/faces/david-siglin-UuW4psOb388-unsplash.jpg,Stimuli/Experimental_stims/objects/mockup-graphics-PNsj6RiHAF4-unsplash.jpg,0,1,402,1,unchosen,14,46,faces,objects,1500,0,10,2
141,70701,0,142,2,2,0,no_gain5,gain1,D,G,40,10,objects,76,72,outdoor_scenes,Stimuli/Experimental_stims/objects/fabian-blank-pElSkGRA2NU-unsplash.jpg,Stimuli/Experimental_stims/outdoor_scenes/shannon-kunkle-dM8INmkyDas-unsplash.jpg,0,0,155,1,chosen,10,40,outdoor_scenes,objects,1800,0,10,2
142,70701,0,143,2,2,0,no_gain1,gain4,H,A,5,45,outdoor_scenes,88,76,objects,Stimuli/Experimental_stims/outdoor_scenes/jeff-king-bJHWJeiHfHc-unsplash.jpg,Stimuli/Experimental_stims/objects/leohoho-rngTKHXumy0-unsplash.jpg,0,0,258,1,unchosen,45,5,objects,outdoor_scenes,1400,0,10,2
143,70701,0,144,2,2,1,gain3,no_gain5,L,D,31,20,body_parts,75,73,faces,Stimuli/Experimental_stims/body_parts/sincerely-media-VN6DbKajo5s-unsplash.jpg,Stimuli/Experimental_stims/faces/justin-chen-J7Cf1Gch49E-unsplash.jpg,0,1,1320,1,unchosen,31,20,body_parts,faces,1400,0,10,2
144,70701,0,145,2,2,0,no_gain4,gain3,E,L,28,23,body_parts,62,70,faces,Stimuli/Experimental_stims/body_parts/ira-vishnevskaya-8DQAvdCby1I-unsplash.jpg,Stimuli/Experimental_stims/faces/rikonavt-HQjfrvdTfak-unsplash.jpg,0,1,298,0,chosen,28,23,body_parts,faces,1600,0,10,2
145,70701,0,146,2,2,1,gain1,no_gain3,G,B,43,22,objects,25,83,faces,Stimuli/Experimental_stims/objects/jonathan-greenaway-Y4hGgeiFn3s-unsplash.jpg,Stimuli/Experimental_stims/faces/ravi-patel-VMGAbeeJTKo-unsplash.jpg,0,0,135,0,unchosen,22,43,faces,objects,2000,0,10,2
146,70701,0,147,2,2,0,no_gain1,gain1,H,G,5,43,outdoor_scenes,88,25,objects,Stimuli/Experimental_stims/outdoor_scenes/jeff-king-bJHWJeiHfHc-unsplash.jpg,Stimuli/Experimental_stims/objects/jonathan-greenaway-Y4hGgeiFn3s-unsplash.jpg,0,0,179,1,unchosen,43,5,objects,outdoor_scenes,2500,0,10,2
147,70701,0,148,2,2,1,gain2,no_gain3,C,B,29,3,body_parts,69,79,outdoor_scenes,Stimuli/Experimental_stims/body_parts/manuel-schinner-ZwjFuJ7ebpk-unsplash.jpg,Stimuli/Experimental_stims/outdoor_scenes/henry-be-NLF6hTe4PAg-unsplash.jpg,0,0,426,0,chosen,3,29,outdoor_scenes,body_parts,3300,1,10,2
148,70701,0,149,3,3,0,no_gain1,gain2,H,C,5,0,outdoor_scenes,88,71,outdoor_scenes,Stimuli/Experimental_stims/outdoor_scenes/jeff-king-bJHWJeiHfHc-unsplash.jpg,Stimuli/Experimental_stims/outdoor_scenes/aleksandra-boguslawska-MS7KD9Ti7FQ-unsplash.jpg,1,NaN,,NaN,unchosen,NaN,NaN,NaN,NaN,2200,0,10,2
149,70701,0,150,3,3,1,gain2,no_gain4,C,E,0,46,outdoor_scenes,71,72,objects,Stimuli/Experimental_stims/outdoor_scenes/aleksandra-boguslawska-MS7KD9Ti7FQ-unsplash.jpg,Stimuli/Experimental_stims/objects/mockup-graphics-PNsj6RiHAF4-unsplash.jpg,1,NaN,,NaN,unchosen,NaN,NaN,NaN,NaN,1200,0,10,2
150,70701,0,151,3,3,0,no_gain5,gain1,D,G,20,43,faces,73,25,objects,Stimuli/Experimental_stims/faces/justin-chen-J7Cf1Gch49E-unsplash.jpg,Stimuli/Experimental_stims/objects/jonathan-greenaway-Y4hGgeiFn3s-unsplash.jpg,0,0,152,1,unchosen,43,20,objects,faces,1700,0,10,2
151,70701,0,152,3,3,0,no_gain6,gain4,I,A,7,9,outdoor_scenes,77,90,outdoor_scenes,Stimuli/Experimental_stims/outdoor_scenes/petr-vysohlid-9fqwGqGLUxc-unsplash.jpg,Stimuli/Experimental_stims/outdoor_scenes/sergey-pesterev-y-b_FOmJXdg-unsplash.jpg,0,0,433,1,chosen,9,7,outdoor_scenes,outdoor_scenes,1100,0,10,2
152,70701,0,153,3,3,0,no_gain1,gain3,H,L,19,23,faces,78,70,faces,Stimuli/Experimental_stims/faces/joel-mott-LaK153ghdig-unsplash.jpg,Stimuli/Experimental_stims/faces/rikonavt-HQjfrvdTfak-unsplash.jpg,0,0,349,1,chosen,23,19,faces,faces,1000,0,10,2
153,70701,0,154,3,3,1,gain4,no_gain3,A,B,45,22,objects,76,83,faces,Stimuli/Experimental_stims/objects/leohoho-rngTKHXumy0-unsplash.jpg,Stimuli/Experimental_stims/faces/ravi-patel-VMGAbeeJTKo-unsplash.jpg,0,0,364,0,unchosen,22,45,faces,objects,1900,0,10,2
154,70701,0,155,3,3,1,gain3,no_gain3,L,B,31,22,body_parts,75,83,faces,Stimuli/Experimental_stims/body_parts/sincerely-media-VN6DbKajo5s-unsplash.jpg,Stimuli/Experimental_stims/faces/ravi-patel-VMGAbeeJTKo-unsplash.jpg,0,0,341,0,unchosen,22,31,faces,body_parts,4700,1,10,2
155,70701,0,156,3,3,1,gain5,no_gain5,J,D,47,40,objects,66,76,objects,Stimuli/Experimental_stims/objects/ronaldo-arthur-vidal-Cdz_lvnl37k-unsplash.jpg,Stimuli/Experimental_stims/objects/fabian-blank-pElSkGRA2NU-unsplash.jpg,0,0,32,0,chosen,40,47,objects,objects,2400,0,10,2
156,70701,0,157,3,3,1,gain6,no_gain3,F,B,21,22,faces,72,83,faces,Stimuli/Experimental_stims/faces/leilani-angel-K84vnnzxmTQ-unsplash.jpg,Stimuli/Experimental_stims/faces/ravi-patel-VMGAbeeJTKo-unsplash.jpg,0,1,109,1,unchosen,21,22,faces,faces,1900,0,10,2
157,70701,0,158,3,3,1,gain1,no_gain4,G,E,10,28,outdoor_scenes,72,62,body_parts,Stimuli/Experimental_stims/outdoor_scenes/shannon-kunkle-dM8INmkyDas-unsplash.jpg,Stimuli/Experimental_stims/body_parts/ira-vishnevskaya-8DQAvdCby1I-unsplash.jpg,0,1,284,1,chosen,10,28,outdoor_scenes,body_parts,1000,0,10,2
158,70701,0,159,3,3,0,no_gain2,gain6,K,F,37,24,objects,79,75,body_parts,Stimuli/Experimental_stims/objects/alexander-andrews-VLGWE_SumrA-unsplash.jpg,Stimuli/Experimental_stims/body_parts/clay-banks-LjqARJaJotc-unsplash.jpg,0,1,420,0,chosen,37,24,objects,body_parts,1800,0,10,2
159,70701,0,160,3,3,1,gain4,no_gain4,A,E,45,46,objects,76,72,objects,Stimuli/Experimental_stims/objects/leohoho-rngTKHXumy0-unsplash.jpg,Stimuli/Experimental_stims/objects/mockup-graphics-PNsj6RiHAF4-unsplash.jpg,0,0,50,0,unchosen,46,45,objects,objects,1800,0,10,2
160,70701,0,161,3,3,0,no_gain4,gain3,E,L,46,31,objects,72,75,body_parts,Stimuli/Experimental_stims/objects/mockup-graphics-PNsj6RiHAF4-unsplash.jpg,Stimuli/Experimental_stims/body_parts/sincerely-media-VN6DbKajo5s-unsplash.jpg,0,0,171,1,unchosen,31,46,body_parts,objects,4700,1,10,2
161,70701,0,162,3,3,0,no_gain1,gain4,H,A,5,45,outdoor_scenes,88,76,objects,Stimuli/Experimental_stims/outdoor_scenes/jeff-king-bJHWJeiHfHc-unsplash.jpg,Stimuli/Experimental_stims/objects/leohoho-rngTKHXumy0-unsplash.jpg,0,1,58,0,unchosen,5,45,outdoor_scenes,objects,1300,0,10,2
162,70701,0,163,3,3,1,gain2,no_gain5,C,D,29,40,body_parts,69,76,objects,Stimuli/Experimental_stims/body_parts/manuel-schinner-ZwjFuJ7ebpk-unsplash.jpg,Stimuli/Experimental_stims/objects/fabian-blank-pElSkGRA2NU-unsplash.jpg,0,0,352,0,chosen,40,29,objects,body_parts,1200,0,10,2
163,70701,0,164,3,3,0,no_gain3,gain4,B,A,3,9,outdoor_scenes,79,90,outdoor_scenes,Stimuli/Experimental_stims/outdoor_scenes/henry-be-NLF6hTe4PAg-unsplash.jpg,Stimuli/Experimental_stims/outdoor_scenes/sergey-pesterev-y-b_FOmJXdg-unsplash.jpg,0,1,352,0,chosen,3,9,outdoor_scenes,outdoor_scenes,1600,0,10,2
164,70701,0,165,3,3,0,no_gain2,gain5,K,J,30,14,body_parts,67,24,faces,Stimuli/Experimental_stims/body_parts/mika-korhonen-Xodzxosar18-unsplash.jpg,Stimuli/Experimental_stims/faces/david-siglin-UuW4psOb388-unsplash.jpg,0,0,310,1,unchosen,14,30,faces,body_parts,1200,0,10,2
165,70701,0,166,3,3,1,gain6,no_gain5,F,D,21,20,faces,72,73,faces,Stimuli/Experimental_stims/faces/leilani-angel-K84vnnzxmTQ-unsplash.jpg,Stimuli/Experimental_stims/faces/justin-chen-J7Cf1Gch49E-unsplash.jpg,0,0,388,0,unchosen,20,21,faces,faces,1100,0,10,2
166,70701,0,167,3,3,0,no_gain6,gain3,I,L,7,23,outdoor_scenes,77,70,faces,Stimuli/Experimental_stims/outdoor_scenes/petr-vysohlid-9fqwGqGLUxc-unsplash.jpg,Stimuli/Experimental_stims/faces/rikonavt-HQjfrvdTfak-unsplash.jpg,0,0,561,1,chosen,23,7,faces,outdoor_scenes,3100,1,10,2
167,70701,0,168,3,3,0,no_gain5,gain3,D,L,20,31,faces,73,75,body_parts,Stimuli/Experimental_stims/faces/justin-chen-J7Cf1Gch49E-unsplash.jpg,Stimuli/Experimental_stims/body_parts/sincerely-media-VN6DbKajo5s-unsplash.jpg,0,1,122,0,unchosen,20,31,faces,body_parts,1500,0,10,2
168,70701,0,169,3,3,0,no_gain4,gain3,E,L,28,23,body_parts,62,70,faces,Stimuli/Experimental_stims/body_parts/ira-vishnevskaya-8DQAvdCby1I-unsplash.jpg,Stimuli/Experimental_stims/faces/rikonavt-HQjfrvdTfak-unsplash.jpg,0,1,52,0,chosen,28,23,body_parts,faces,1000,0,10,2
169,70701,0,170,3,3,0,no_gain5,gain2,D,C,20,0,faces,73,71,outdoor_scenes,Stimuli/Experimental_stims/faces/justin-chen-J7Cf1Gch49E-unsplash.jpg,Stimuli/Experimental_stims/outdoor_scenes/aleksandra-boguslawska-MS7KD9Ti7FQ-unsplash.jpg,0,1,831,0,unchosen,20,0,faces,outdoor_scenes,1500,0,10,2
170,70701,0,171,3,3,0,no_gain3,gain2,B,C,3,29,outdoor_scenes,79,69,body_parts,Stimuli/Experimental_stims/outdoor_scenes/henry-be-NLF6hTe4PAg-unsplash.jpg,Stimuli/Experimental_stims/body_parts/manuel-schinner-ZwjFuJ7ebpk-unsplash.jpg,0,1,315,0,chosen,3,29,outdoor_scenes,body_parts,1400,0,10,2
171,70701,0,172,3,3,1,gain1,no_gain2,G,K,10,37,outdoor_scenes,72,79,objects,Stimuli/Experimental_stims/outdoor_scenes/shannon-kunkle-dM8INmkyDas-unsplash.jpg,Stimuli/Experimental_stims/objects/alexander-andrews-VLGWE_SumrA-unsplash.jpg,0,1,157,1,chosen,10,37,outdoor_scenes,objects,3500,1,10,2
172,70701,0,173,3,3,0,no_gain4,gain2,E,C,28,29,body_parts,62,69,body_parts,Stimuli/Experimental_stims/body_parts/ira-vishnevskaya-8DQAvdCby1I-unsplash.jpg,Stimuli/Experimental_stims/body_parts/manuel-schinner-ZwjFuJ7ebpk-unsplash.jpg,0,0,830,1,chosen,29,28,body_parts,body_parts,1600,0,10,2
173,70701,0,174,3,3,0,no_gain4,gain5,E,J,46,14,objects,72,24,faces,Stimuli/Experimental_stims/objects/mockup-graphics-PNsj6RiHAF4-unsplash.jpg,Stimuli/Experimental_stims/faces/david-siglin-UuW4psOb388-unsplash.jpg,0,0,306,1,unchosen,14,46,faces,objects,2200,0,10,2
174,70701,0,175,3,3,0,no_gain3,gain2,B,C,22,0,faces,83,71,outdoor_scenes,Stimuli/Experimental_stims/faces/ravi-patel-VMGAbeeJTKo-unsplash.jpg,Stimuli/Experimental_stims/outdoor_scenes/aleksandra-boguslawska-MS7KD9Ti7FQ-unsplash.jpg,0,0,516,1,unchosen,0,22,outdoor_scenes,faces,1200,0,10,2
175,70701,0,176,3,3,1,gain2,no_gain2,C,K,0,30,outdoor_scenes,71,67,body_parts,Stimuli/Experimental_stims/outdoor_scenes/aleksandra-boguslawska-MS7KD9Ti7FQ-unsplash.jpg,Stimuli/Experimental_stims/body_parts/mika-korhonen-Xodzxosar18-unsplash.jpg,0,0,292,0,unchosen,30,0,body_parts,outdoor_scenes,1900,0,10,2
176,70701,0,177,3,3,0,no_gain6,gain5,I,J,7,47,outdoor_scenes,77,66,objects,Stimuli/Experimental_stims/outdoor_scenes/petr-vysohlid-9fqwGqGLUxc-unsplash.jpg,Stimuli/Experimental_stims/objects/ronaldo-arthur-vidal-Cdz_lvnl37k-unsplash.jpg,0,0,315,1,chosen,47,7,objects,outdoor_scenes,2000,0,10,2
177,70701,0,178,3,3,1,gain6,no_gain1,F,H,24,19,body_parts,75,78,faces,Stimuli/Experimental_stims/body_parts/clay-banks-LjqARJaJotc-unsplash.jpg,Stimuli/Experimental_stims/faces/joel-mott-LaK153ghdig-unsplash.jpg,0,1,95,1,chosen,24,19,body_parts,faces,1800,0,10,2
178,70701,0,179,3,3,0,no_gain1,gain2,H,C,19,29,faces,78,69,body_parts,Stimuli/Experimental_stims/faces/joel-mott-LaK153ghdig-unsplash.jpg,Stimuli/Experimental_stims/body_parts/manuel-schinner-ZwjFuJ7ebpk-unsplash.jpg,0,0,100,1,chosen,29,19,body_parts,faces,2200,0,10,2
179,70701,0,180,3,3,0,no_gain2,gain3,K,L,30,31,body_parts,67,75,body_parts,Stimuli/Experimental_stims/body_parts/mika-korhonen-Xodzxosar18-unsplash.jpg,Stimuli/Experimental_stims/body_parts/sincerely-media-VN6DbKajo5s-unsplash.jpg,0,0,134,1,unchosen,31,30,body_parts,body_parts,2300,0,10,2
180,70701,0,181,3,3,1,gain6,no_gain3,F,B,24,3,body_parts,75,79,outdoor_scenes,Stimuli/Experimental_stims/body_parts/clay-banks-LjqARJaJotc-unsplash.jpg,Stimuli/Experimental_stims/outdoor_scenes/henry-be-NLF6hTe4PAg-unsplash.jpg,0,1,49,1,chosen,24,3,body_parts,outdoor_scenes,4300,1,10,2
181,70701,0,182,3,3,1,gain5,no_gain3,J,B,47,3,objects,66,79,outdoor_scenes,Stimuli/Experimental_stims/objects/ronaldo-arthur-vidal-Cdz_lvnl37k-unsplash.jpg,Stimuli/Experimental_stims/outdoor_scenes/henry-be-NLF6hTe4PAg-unsplash.jpg,0,0,139,0,chosen,3,47,outdoor_scenes,objects,1600,0,10,2
182,70701,0,183,3,3,0,no_gain2,gain4,K,A,30,45,body_parts,67,76,objects,Stimuli/Experimental_stims/body_parts/mika-korhonen-Xodzxosar18-unsplash.jpg,Stimuli/Experimental_stims/objects/leohoho-rngTKHXumy0-unsplash.jpg,0,1,377,0,unchosen,30,45,body_parts,objects,1600,0,10,2
183,70701,0,184,3,3,1,gain3,no_gain1,L,H,31,5,body_parts,75,88,outdoor_scenes,Stimuli/Experimental_stims/body_parts/sincerely-media-VN6DbKajo5s-unsplash.jpg,Stimuli/Experimental_stims/outdoor_scenes/jeff-king-bJHWJeiHfHc-unsplash.jpg,0,0,326,0,unchosen,5,31,outdoor_scenes,body_parts,1100,0,10,2
184,70701,0,185,3,3,1,gain6,no_gain6,F,I,24,7,body_parts,75,77,outdoor_scenes,Stimuli/Experimental_stims/body_parts/clay-banks-LjqARJaJotc-unsplash.jpg,Stimuli/Experimental_stims/outdoor_scenes/petr-vysohlid-9fqwGqGLUxc-unsplash.jpg,0,0,328,0,chosen,7,24,outdoor_scenes,body_parts,1000,0,10,2
185,70701,0,186,3,3,0,no_gain1,gain5,H,J,19,47,faces,78,66,objects,Stimuli/Experimental_stims/faces/joel-mott-LaK153ghdig-unsplash.jpg,Stimuli/Experimental_stims/objects/ronaldo-arthur-vidal-Cdz_lvnl37k-unsplash.jpg,0,0,567,1,chosen,47,19,objects,faces,1000,0,10,2
186,70701,0,187,3,3,0,no_gain1,gain5,H,J,5,14,outdoor_scenes,88,24,faces,Stimuli/Experimental_stims/outdoor_scenes/jeff-king-bJHWJeiHfHc-unsplash.jpg,Stimuli/Experimental_stims/faces/david-siglin-UuW4psOb388-unsplash.jpg,0,0,364,1,unchosen,14,5,faces,outdoor_scenes,3000,1,10,2
187,70701,0,188,3,3,1,gain4,no_gain1,A,H,9,19,outdoor_scenes,90,78,faces,Stimuli/Experimental_stims/outdoor_scenes/sergey-pesterev-y-b_FOmJXdg-unsplash.jpg,Stimuli/Experimental_stims/faces/joel-mott-LaK153ghdig-unsplash.jpg,0,1,282,1,chosen,9,19,outdoor_scenes,faces,1000,0,10,2
188,70701,0,189,3,3,1,gain3,no_gain3,L,B,23,3,faces,70,79,outdoor_scenes,Stimuli/Experimental_stims/faces/rikonavt-HQjfrvdTfak-unsplash.jpg,Stimuli/Experimental_stims/outdoor_scenes/henry-be-NLF6hTe4PAg-unsplash.jpg,0,1,584,1,chosen,23,3,faces,outdoor_scenes,1600,0,10,2
189,70701,0,190,3,3,0,no_gain2,gain5,K,J,37,47,objects,79,66,objects,Stimuli/Experimental_stims/objects/alexander-andrews-VLGWE_SumrA-unsplash.jpg,Stimuli/Experimental_stims/objects/ronaldo-arthur-vidal-Cdz_lvnl37k-unsplash.jpg,0,0,17,1,chosen,47,37,objects,objects,1500,0,10,2
190,70701,0,191,3,3,0,no_gain1,gain6,H,F,5,21,outdoor_scenes,88,72,faces,Stimuli/Experimental_stims/outdoor_scenes/jeff-king-bJHWJeiHfHc-unsplash.jpg,Stimuli/Experimental_stims/faces/leilani-angel-K84vnnzxmTQ-unsplash.jpg,0,1,365,0,unchosen,5,21,outdoor_scenes,faces,1700,0,10,2
191,70701,0,192,3,3,1,gain5,no_gain6,J,I,14,35,faces,24,32,body_parts,Stimuli/Experimental_stims/faces/david-siglin-UuW4psOb388-unsplash.jpg,Stimuli/Experimental_stims/body_parts/wc-so-KH4AAPjb-tI-unsplash.jpg,0,0,59,0,unchosen,35,14,body_parts,faces,1300,0,10,2
192,70701,0,193,3,3,0,no_gain5,gain4,D,A,20,45,faces,73,76,objects,Stimuli/Experimental_stims/faces/justin-chen-J7Cf1Gch49E-unsplash.jpg,Stimuli/Experimental_stims/objects/leohoho-rngTKHXumy0-unsplash.jpg,0,0,197,1,unchosen,45,20,objects,faces,1300,0,10,2
193,70701,0,194,3,3,1,gain1,no_gain5,G,D,10,40,outdoor_scenes,72,76,objects,Stimuli/Experimental_stims/outdoor_scenes/shannon-kunkle-dM8INmkyDas-unsplash.jpg,Stimuli/Experimental_stims/objects/fabian-blank-pElSkGRA2NU-unsplash.jpg,0,1,386,1,chosen,10,40,outdoor_scenes,objects,3600,1,10,2
194,70701,0,195,3,3,1,gain6,no_gain4,F,E,21,46,faces,72,72,objects,Stimuli/Experimental_stims/faces/leilani-angel-K84vnnzxmTQ-unsplash.jpg,Stimuli/Experimental_stims/objects/mockup-graphics-PNsj6RiHAF4-unsplash.jpg,0,0,342,0,unchosen,46,21,objects,faces,2100,0,10,2
195,70701,0,196,3,3,1,gain1,no_gain1,G,H,10,19,outdoor_scenes,72,78,faces,Stimuli/Experimental_stims/outdoor_scenes/shannon-kunkle-dM8INmkyDas-unsplash.jpg,Stimuli/Experimental_stims/faces/joel-mott-LaK153ghdig-unsplash.jpg,0,1,30,1,chosen,10,19,outdoor_scenes,faces,1600,0,10,2
196,70701,0,197,3,3,1,gain4,no_gain6,A,I,45,35,objects,76,32,body_parts,Stimuli/Experimental_stims/objects/leohoho-rngTKHXumy0-unsplash.jpg,Stimuli/Experimental_stims/body_parts/wc-so-KH4AAPjb-tI-unsplash.jpg,0,0,363,0,unchosen,35,45,body_parts,objects,1800,0,10,2
197,70701,0,198,3,3,1,gain3,no_gain6,L,I,31,35,body_parts,75,32,body_parts,Stimuli/Experimental_stims/body_parts/sincerely-media-VN6DbKajo5s-unsplash.jpg,Stimuli/Experimental_stims/body_parts/wc-so-KH4AAPjb-tI-unsplash.jpg,0,1,174,1,unchosen,31,35,body_parts,body_parts,1600,0,10,2
198,70701,0,199,3,3,1,gain1,no_gain3,G,B,10,3,outdoor_scenes,72,79,outdoor_scenes,Stimuli/Experimental_stims/outdoor_scenes/shannon-kunkle-dM8INmkyDas-unsplash.jpg,Stimuli/Experimental_stims/outdoor_scenes/henry-be-NLF6hTe4PAg-unsplash.jpg,0,1,525,1,chosen,10,3,outdoor_scenes,outdoor_scenes,3100,1,10,2
199,70701,0,200,3,3,0,no_gain5,gain4,D,A,40,9,objects,76,90,outdoor_scenes,Stimuli/Experimental_stims/objects/fabian-blank-pElSkGRA2NU-unsplash.jpg,Stimuli/Experimental_stims/outdoor_scenes/sergey-pesterev-y-b_FOmJXdg-unsplash.jpg,0,0,39,1,chosen,9,40,outdoor_scenes,objects,2500,0,10,2
200,70701,0,201,3,3,0,no_gain1,gain1,H,G,5,43,outdoor_scenes,88,25,objects,Stimuli/Experimental_stims/outdoor_scenes/jeff-king-bJHWJeiHfHc-unsplash.jpg,Stimuli/Experimental_stims/objects/jonathan-greenaway-Y4hGgeiFn3s-unsplash.jpg,0,1,166,0,unchosen,5,43,outdoor_scenes,objects,2000,0,10,2
201,70701,0,202,3,3,0,no_gain4,gain4,E,A,28,9,body_parts,62,90,outdoor_scenes,Stimuli/Experimental_stims/body_parts/ira-vishnevskaya-8DQAvdCby1I-unsplash.jpg,Stimuli/Experimental_stims/outdoor_scenes/sergey-pesterev-y-b_FOmJXdg-unsplash.jpg,0,1,346,0,chosen,28,9,body_parts,outdoor_scenes,2100,0,10,2
202,70701,0,203,3,3,1,gain3,no_gain5,L,D,23,40,faces,70,76,objects,Stimuli/Experimental_stims/faces/rikonavt-HQjfrvdTfak-unsplash.jpg,Stimuli/Experimental_stims/objects/fabian-blank-pElSkGRA2NU-unsplash.jpg,0,1,367,1,chosen,23,40,faces,objects,1200,0,10,2
203,70701,0,204,3,3,1,gain1,no_gain6,G,I,43,35,objects,25,32,body_parts,Stimuli/Experimental_stims/objects/jonathan-greenaway-Y4hGgeiFn3s-unsplash.jpg,Stimuli/Experimental_stims/body_parts/wc-so-KH4AAPjb-tI-unsplash.jpg,0,0,650,0,unchosen,35,43,body_parts,objects,3300,1,10,2
204,70701,0,205,3,3,1,gain3,no_gain2,L,K,23,37,faces,70,79,objects,Stimuli/Experimental_stims/faces/rikonavt-HQjfrvdTfak-unsplash.jpg,Stimuli/Experimental_stims/objects/alexander-andrews-VLGWE_SumrA-unsplash.jpg,0,1,152,1,chosen,23,37,faces,objects,2100,0,10,2
205,70701,0,206,3,3,0,no_gain4,gain5,E,J,28,47,body_parts,62,66,objects,Stimuli/Experimental_stims/body_parts/ira-vishnevskaya-8DQAvdCby1I-unsplash.jpg,Stimuli/Experimental_stims/objects/ronaldo-arthur-vidal-Cdz_lvnl37k-unsplash.jpg,0,0,228,1,chosen,47,28,objects,body_parts,2100,0,10,2
206,70701,0,207,3,3,1,gain2,no_gain6,C,I,29,7,body_parts,69,77,outdoor_scenes,Stimuli/Experimental_stims/body_parts/manuel-schinner-ZwjFuJ7ebpk-unsplash.jpg,Stimuli/Experimental_stims/outdoor_scenes/petr-vysohlid-9fqwGqGLUxc-unsplash.jpg,1,NaN,,NaN,chosen,NaN,NaN,NaN,NaN,2600,0,10,2
207,70701,0,208,3,3,1,gain1,no_gain2,G,K,43,30,objects,25,67,body_parts,Stimuli/Experimental_stims/objects/jonathan-greenaway-Y4hGgeiFn3s-unsplash.jpg,Stimuli/Experimental_stims/body_parts/mika-korhonen-Xodzxosar18-unsplash.jpg,1,NaN,,NaN,unchosen,NaN,NaN,NaN,NaN,2800,0,10,2
208,70701,0,209,3,3,1,gain1,no_gain4,G,E,43,46,objects,25,72,objects,Stimuli/Experimental_stims/objects/jonathan-greenaway-Y4hGgeiFn3s-unsplash.jpg,Stimuli/Experimental_stims/objects/mockup-graphics-PNsj6RiHAF4-unsplash.jpg,1,NaN,,NaN,unchosen,NaN,NaN,NaN,NaN,2100,0,10,2
209,70701,0,210,3,3,0,no_gain6,gain1,I,G,7,10,outdoor_scenes,77,72,outdoor_scenes,Stimuli/Experimental_stims/outdoor_scenes/petr-vysohlid-9fqwGqGLUxc-unsplash.jpg,Stimuli/Experimental_stims/outdoor_scenes/shannon-kunkle-dM8INmkyDas-unsplash.jpg,1,NaN,,NaN,chosen,NaN,NaN,NaN,NaN,1300,0,10,2
210,70701,0,211,3,3,0,no_gain5,gain6,D,F,40,24,objects,76,75,body_parts,Stimuli/Experimental_stims/objects/fabian-blank-pElSkGRA2NU-unsplash.jpg,Stimuli/Experimental_stims/body_parts/clay-banks-LjqARJaJotc-unsplash.jpg,1,NaN,,NaN,chosen,NaN,NaN,NaN,NaN,3900,1,10,2
211,70701,0,212,3,3,0,no_gain2,gain6,K,F,30,21,body_parts,67,72,faces,Stimuli/Experimental_stims/body_parts/mika-korhonen-Xodzxosar18-unsplash.jpg,Stimuli/Experimental_stims/faces/leilani-angel-K84vnnzxmTQ-unsplash.jpg,1,NaN,,NaN,unchosen,NaN,NaN,NaN,NaN,1600,0,10,2
212,70701,0,213,3,3,1,gain4,no_gain2,A,K,9,37,outdoor_scenes,90,79,objects,Stimuli/Experimental_stims/outdoor_scenes/sergey-pesterev-y-b_FOmJXdg-unsplash.jpg,Stimuli/Experimental_stims/objects/alexander-andrews-VLGWE_SumrA-unsplash.jpg,1,NaN,,NaN,chosen,NaN,NaN,NaN,NaN,1300,0,10,2
213,70701,0,214,3,3,0,no_gain3,gain5,B,J,22,14,faces,83,24,faces,Stimuli/Experimental_stims/faces/ravi-patel-VMGAbeeJTKo-unsplash.jpg,Stimuli/Experimental_stims/faces/david-siglin-UuW4psOb388-unsplash.jpg,1,NaN,,NaN,unchosen,NaN,NaN,NaN,NaN,1700,0,10,2
214,70701,0,215,3,3,1,gain2,no_gain6,C,I,0,35,outdoor_scenes,71,32,body_parts,Stimuli/Experimental_stims/outdoor_scenes/aleksandra-boguslawska-MS7KD9Ti7FQ-unsplash.jpg,Stimuli/Experimental_stims/body_parts/wc-so-KH4AAPjb-tI-unsplash.jpg,1,NaN,,NaN,unchosen,NaN,NaN,NaN,NaN,1600,0,10,2
215,70701,0,216,3,3,0,no_gain4,gain6,E,F,28,24,body_parts,62,75,body_parts,Stimuli/Experimental_stims/body_parts/ira-vishnevskaya-8DQAvdCby1I-unsplash.jpg,Stimuli/Experimental_stims/body_parts/clay-banks-LjqARJaJotc-unsplash.jpg,1,NaN,,NaN,chosen,NaN,NaN,NaN,NaN,3600,1,10,2
216,70701,0,217,3,3,1,gain5,no_gain5,J,D,14,20,faces,24,73,faces,Stimuli/Experimental_stims/faces/david-siglin-UuW4psOb388-unsplash.jpg,Stimuli/Experimental_stims/faces/justin-chen-J7Cf1Gch49E-unsplash.jpg,1,NaN,,NaN,unchosen,NaN,NaN,NaN,NaN,2700,0,10,2
217,70701,0,218,3,3,1,gain2,no_gain2,C,K,29,37,body_parts,69,79,objects,Stimuli/Experimental_stims/body_parts/manuel-schinner-ZwjFuJ7ebpk-unsplash.jpg,Stimuli/Experimental_stims/objects/alexander-andrews-VLGWE_SumrA-unsplash.jpg,0,0,649,0,chosen,37,29,objects,body_parts,2800,0,10,2
218,70701,0,219,3,3,0,no_gain6,gain6,I,F,35,21,body_parts,32,72,faces,Stimuli/Experimental_stims/body_parts/wc-so-KH4AAPjb-tI-unsplash.jpg,Stimuli/Experimental_stims/faces/leilani-angel-K84vnnzxmTQ-unsplash.jpg,0,1,192,0,unchosen,35,21,body_parts,faces,2800,0,10,2
219,70701,0,220,3,3,1,gain1,no_gain3,G,B,43,22,objects,25,83,faces,Stimuli/Experimental_stims/objects/jonathan-greenaway-Y4hGgeiFn3s-unsplash.jpg,Stimuli/Experimental_stims/faces/ravi-patel-VMGAbeeJTKo-unsplash.jpg,0,0,417,0,unchosen,22,43,faces,objects,1100,0,10,2
220,70701,0,221,4,4,0,no_gain6,gain2,I,C,7,29,outdoor_scenes,77,69,body_parts,Stimuli/Experimental_stims/outdoor_scenes/petr-vysohlid-9fqwGqGLUxc-unsplash.jpg,Stimuli/Experimental_stims/body_parts/manuel-schinner-ZwjFuJ7ebpk-unsplash.jpg,0,1,764,0,chosen,7,29,outdoor_scenes,body_parts,4200,1,9,2
221,70701,0,222,4,4,1,gain4,no_gain2,A,K,45,30,objects,76,67,body_parts,Stimuli/Experimental_stims/objects/leohoho-rngTKHXumy0-unsplash.jpg,Stimuli/Experimental_stims/body_parts/mika-korhonen-Xodzxosar18-unsplash.jpg,0,1,404,1,unchosen,45,30,objects,body_parts,2400,0,9,2
222,70701,0,223,4,4,1,gain2,no_gain1,C,H,29,19,body_parts,69,78,faces,Stimuli/Experimental_stims/body_parts/manuel-schinner-ZwjFuJ7ebpk-unsplash.jpg,Stimuli/Experimental_stims/faces/joel-mott-LaK153ghdig-unsplash.jpg,0,1,295,1,chosen,29,19,body_parts,faces,1200,0,9,2
223,70701,0,224,4,4,0,no_gain4,gain4,E,A,28,9,body_parts,62,90,outdoor_scenes,Stimuli/Experimental_stims/body_parts/ira-vishnevskaya-8DQAvdCby1I-unsplash.jpg,Stimuli/Experimental_stims/outdoor_scenes/sergey-pesterev-y-b_FOmJXdg-unsplash.jpg,1,NaN,,NaN,chosen,NaN,NaN,NaN,NaN,1400,0,9,2
224,70701,0,225,4,4,0,no_gain4,gain6,E,F,46,21,objects,72,72,faces,Stimuli/Experimental_stims/objects/mockup-graphics-PNsj6RiHAF4-unsplash.jpg,Stimuli/Experimental_stims/faces/leilani-angel-K84vnnzxmTQ-unsplash.jpg,1,NaN,,NaN,unchosen,NaN,NaN,NaN,NaN,1800,0,9,2
225,70701,0,226,4,4,0,no_gain4,gain5,E,J,46,14,objects,72,24,faces,Stimuli/Experimental_stims/objects/mockup-graphics-PNsj6RiHAF4-unsplash.jpg,Stimuli/Experimental_stims/faces/david-siglin-UuW4psOb388-unsplash.jpg,0,1,839,0,unchosen,46,14,objects,faces,2200,0,9,2
226,70701,0,227,4,4,1,gain4,no_gain1,A,H,9,19,outdoor_scenes,90,78,faces,Stimuli/Experimental_stims/outdoor_scenes/sergey-pesterev-y-b_FOmJXdg-unsplash.jpg,Stimuli/Experimental_stims/faces/joel-mott-LaK153ghdig-unsplash.jpg,0,1,236,1,chosen,9,19,outdoor_scenes,faces,4000,1,9,2
227,70701,0,228,4,4,1,gain3,no_gain2,L,K,23,37,faces,70,79,objects,Stimuli/Experimental_stims/faces/rikonavt-HQjfrvdTfak-unsplash.jpg,Stimuli/Experimental_stims/objects/alexander-andrews-VLGWE_SumrA-unsplash.jpg,0,1,256,1,chosen,23,37,faces,objects,1900,0,9,2
228,70701,0,229,4,4,0,no_gain5,gain4,D,A,40,9,objects,76,90,outdoor_scenes,Stimuli/Experimental_stims/objects/fabian-blank-pElSkGRA2NU-unsplash.jpg,Stimuli/Experimental_stims/outdoor_scenes/sergey-pesterev-y-b_FOmJXdg-unsplash.jpg,0,0,111,1,chosen,9,40,outdoor_scenes,objects,1800,0,9,2
229,70701,0,230,4,4,0,no_gain4,gain3,E,L,46,31,objects,72,75,body_parts,Stimuli/Experimental_stims/objects/mockup-graphics-PNsj6RiHAF4-unsplash.jpg,Stimuli/Experimental_stims/body_parts/sincerely-media-VN6DbKajo5s-unsplash.jpg,0,1,4,0,unchosen,46,31,objects,body_parts,1200,0,9,2
230,70701,0,231,4,4,0,no_gain3,gain5,B,J,22,14,faces,83,24,faces,Stimuli/Experimental_stims/faces/ravi-patel-VMGAbeeJTKo-unsplash.jpg,Stimuli/Experimental_stims/faces/david-siglin-UuW4psOb388-unsplash.jpg,0,1,552,0,unchosen,22,14,faces,faces,1700,0,9,2
231,70701,0,232,4,4,0,no_gain2,gain5,K,J,30,14,body_parts,67,24,faces,Stimuli/Experimental_stims/body_parts/mika-korhonen-Xodzxosar18-unsplash.jpg,Stimuli/Experimental_stims/faces/david-siglin-UuW4psOb388-unsplash.jpg,0,0,176,1,unchosen,14,30,faces,body_parts,3500,1,9,2
232,70701,0,233,4,4,1,gain3,no_gain3,L,B,23,3,faces,70,79,outdoor_scenes,Stimuli/Experimental_stims/faces/rikonavt-HQjfrvdTfak-unsplash.jpg,Stimuli/Experimental_stims/outdoor_scenes/henry-be-NLF6hTe4PAg-unsplash.jpg,0,0,114,0,chosen,3,23,outdoor_scenes,faces,1700,0,9,2
233,70701,0,234,4,4,1,gain2,no_gain2,C,K,0,30,outdoor_scenes,71,67,body_parts,Stimuli/Experimental_stims/outdoor_scenes/aleksandra-boguslawska-MS7KD9Ti7FQ-unsplash.jpg,Stimuli/Experimental_stims/body_parts/mika-korhonen-Xodzxosar18-unsplash.jpg,0,0,255,0,unchosen,30,0,body_parts,outdoor_scenes,2000,0,9,2
234,70701,0,235,4,4,0,no_gain6,gain5,I,J,35,14,body_parts,32,24,faces,Stimuli/Experimental_stims/body_parts/wc-so-KH4AAPjb-tI-unsplash.jpg,Stimuli/Experimental_stims/faces/david-siglin-UuW4psOb388-unsplash.jpg,0,0,286,1,unchosen,14,35,faces,body_parts,1300,0,9,2
235,70701,0,236,4,4,1,gain6,no_gain1,F,H,24,19,body_parts,75,78,faces,Stimuli/Experimental_stims/body_parts/clay-banks-LjqARJaJotc-unsplash.jpg,Stimuli/Experimental_stims/faces/joel-mott-LaK153ghdig-unsplash.jpg,0,0,251,0,chosen,19,24,faces,body_parts,1400,0,9,2
236,70701,0,237,4,4,1,gain1,no_gain4,G,E,43,46,objects,25,72,objects,Stimuli/Experimental_stims/objects/jonathan-greenaway-Y4hGgeiFn3s-unsplash.jpg,Stimuli/Experimental_stims/objects/mockup-graphics-PNsj6RiHAF4-unsplash.jpg,0,1,1308,1,unchosen,43,46,objects,objects,3600,1,9,2
237,70701,0,238,4,4,0,no_gain3,gain4,B,A,3,9,outdoor_scenes,79,90,outdoor_scenes,Stimuli/Experimental_stims/outdoor_scenes/henry-be-NLF6hTe4PAg-unsplash.jpg,Stimuli/Experimental_stims/outdoor_scenes/sergey-pesterev-y-b_FOmJXdg-unsplash.jpg,1,NaN,,NaN,chosen,NaN,NaN,NaN,NaN,2700,0,9,2
238,70701,0,239,4,4,0,no_gain5,gain1,D,G,20,43,faces,73,25,objects,Stimuli/Experimental_stims/faces/justin-chen-J7Cf1Gch49E-unsplash.jpg,Stimuli/Experimental_stims/objects/jonathan-greenaway-Y4hGgeiFn3s-unsplash.jpg,1,NaN,,NaN,unchosen,NaN,NaN,NaN,NaN,1900,0,9,2
239,70701,0,240,4,4,0,no_gain1,gain3,H,L,5,31,outdoor_scenes,88,75,body_parts,Stimuli/Experimental_stims/outdoor_scenes/jeff-king-bJHWJeiHfHc-unsplash.jpg,Stimuli/Experimental_stims/body_parts/sincerely-media-VN6DbKajo5s-unsplash.jpg,1,NaN,,NaN,unchosen,NaN,NaN,NaN,NaN,1200,0,9,2
240,70701,0,241,4,4,0,no_gain2,gain1,K,G,30,43,body_parts,67,25,objects,Stimuli/Experimental_stims/body_parts/mika-korhonen-Xodzxosar18-unsplash.jpg,Stimuli/Experimental_stims/objects/jonathan-greenaway-Y4hGgeiFn3s-unsplash.jpg,0,0,295,1,unchosen,43,30,objects,body_parts,1000,0,9,2
241,70701,0,242,4,4,1,gain3,no_gain4,L,E,23,28,faces,70,62,body_parts,Stimuli/Experimental_stims/faces/rikonavt-HQjfrvdTfak-unsplash.jpg,Stimuli/Experimental_stims/body_parts/ira-vishnevskaya-8DQAvdCby1I-unsplash.jpg,0,1,129,1,chosen,23,28,faces,body_parts,3700,1,9,2
242,70701,0,243,4,4,0,no_gain4,gain1,E,G,28,10,body_parts,62,72,outdoor_scenes,Stimuli/Experimental_stims/body_parts/ira-vishnevskaya-8DQAvdCby1I-unsplash.jpg,Stimuli/Experimental_stims/outdoor_scenes/shannon-kunkle-dM8INmkyDas-unsplash.jpg,0,1,162,0,chosen,28,10,body_parts,outdoor_scenes,1200,0,9,2
243,70701,0,244,4,4,1,gain2,no_gain3,C,B,0,22,outdoor_scenes,71,83,faces,Stimuli/Experimental_stims/outdoor_scenes/aleksandra-boguslawska-MS7KD9Ti7FQ-unsplash.jpg,Stimuli/Experimental_stims/faces/ravi-patel-VMGAbeeJTKo-unsplash.jpg,0,1,430,1,unchosen,0,22,outdoor_scenes,faces,2600,0,9,2
244,70701,0,245,4,4,1,gain4,no_gain4,A,E,45,46,objects,76,72,objects,Stimuli/Experimental_stims/objects/leohoho-rngTKHXumy0-unsplash.jpg,Stimuli/Experimental_stims/objects/mockup-graphics-PNsj6RiHAF4-unsplash.jpg,0,1,206,1,unchosen,45,46,objects,objects,2400,0,9,2
245,70701,0,246,4,4,1,gain2,no_gain6,C,I,0,35,outdoor_scenes,71,32,body_parts,Stimuli/Experimental_stims/outdoor_scenes/aleksandra-boguslawska-MS7KD9Ti7FQ-unsplash.jpg,Stimuli/Experimental_stims/body_parts/wc-so-KH4AAPjb-tI-unsplash.jpg,0,1,309,1,unchosen,0,35,outdoor_scenes,body_parts,1200,0,9,2
246,70701,0,247,4,4,0,no_gain6,gain6,I,F,7,24,outdoor_scenes,77,75,body_parts,Stimuli/Experimental_stims/outdoor_scenes/petr-vysohlid-9fqwGqGLUxc-unsplash.jpg,Stimuli/Experimental_stims/body_parts/clay-banks-LjqARJaJotc-unsplash.jpg,0,0,48,1,chosen,24,7,body_parts,outdoor_scenes,2500,0,9,2
247,70701,0,248,4,4,1,gain2,no_gain5,C,D,0,20,outdoor_scenes,71,73,faces,Stimuli/Experimental_stims/outdoor_scenes/aleksandra-boguslawska-MS7KD9Ti7FQ-unsplash.jpg,Stimuli/Experimental_stims/faces/justin-chen-J7Cf1Gch49E-unsplash.jpg,0,1,371,1,unchosen,0,20,outdoor_scenes,faces,2200,0,9,2
248,70701,0,249,4,4,0,no_gain1,gain3,H,L,19,23,faces,78,70,faces,Stimuli/Experimental_stims/faces/joel-mott-LaK153ghdig-unsplash.jpg,Stimuli/Experimental_stims/faces/rikonavt-HQjfrvdTfak-unsplash.jpg,0,0,1029,1,chosen,23,19,faces,faces,1100,0,9,2
249,70701,0,250,4,4,0,no_gain6,gain1,I,G,7,10,outdoor_scenes,77,72,outdoor_scenes,Stimuli/Experimental_stims/outdoor_scenes/petr-vysohlid-9fqwGqGLUxc-unsplash.jpg,Stimuli/Experimental_stims/outdoor_scenes/shannon-kunkle-dM8INmkyDas-unsplash.jpg,0,0,263,1,chosen,10,7,outdoor_scenes,outdoor_scenes,1700,0,9,2
250,70701,0,251,4,4,0,no_gain1,gain2,H,C,5,0,outdoor_scenes,88,71,outdoor_scenes,Stimuli/Experimental_stims/outdoor_scenes/jeff-king-bJHWJeiHfHc-unsplash.jpg,Stimuli/Experimental_stims/outdoor_scenes/aleksandra-boguslawska-MS7KD9Ti7FQ-unsplash.jpg,0,0,647,1,unchosen,0,5,outdoor_scenes,outdoor_scenes,1100,0,9,2
251,70701,0,252,4,4,1,gain6,no_gain3,F,B,24,3,body_parts,75,79,outdoor_scenes,Stimuli/Experimental_stims/body_parts/clay-banks-LjqARJaJotc-unsplash.jpg,Stimuli/Experimental_stims/outdoor_scenes/henry-be-NLF6hTe4PAg-unsplash.jpg,0,0,627,0,chosen,3,24,outdoor_scenes,body_parts,1900,0,9,2
252,70701,0,253,4,4,1,gain4,no_gain1,A,H,45,5,objects,76,88,outdoor_scenes,Stimuli/Experimental_stims/objects/leohoho-rngTKHXumy0-unsplash.jpg,Stimuli/Experimental_stims/outdoor_scenes/jeff-king-bJHWJeiHfHc-unsplash.jpg,0,1,404,1,unchosen,45,5,objects,outdoor_scenes,1100,0,9,2
253,70701,0,254,4,4,1,gain4,no_gain5,A,D,45,20,objects,76,73,faces,Stimuli/Experimental_stims/objects/leohoho-rngTKHXumy0-unsplash.jpg,Stimuli/Experimental_stims/faces/justin-chen-J7Cf1Gch49E-unsplash.jpg,0,0,131,0,unchosen,20,45,faces,objects,1000,0,9,2
254,70701,0,255,4,4,1,gain6,no_gain6,F,I,21,35,faces,72,32,body_parts,Stimuli/Experimental_stims/faces/leilani-angel-K84vnnzxmTQ-unsplash.jpg,Stimuli/Experimental_stims/body_parts/wc-so-KH4AAPjb-tI-unsplash.jpg,0,0,231,0,unchosen,35,21,body_parts,faces,1600,0,9,2
255,70701,0,256,4,4,0,no_gain4,gain5,E,J,28,47,body_parts,62,66,objects,Stimuli/Experimental_stims/body_parts/ira-vishnevskaya-8DQAvdCby1I-unsplash.jpg,Stimuli/Experimental_stims/objects/ronaldo-arthur-vidal-Cdz_lvnl37k-unsplash.jpg,0,1,252,0,chosen,28,47,body_parts,objects,2700,0,9,2
256,70701,0,257,4,4,1,gain4,no_gain6,A,I,45,35,objects,76,32,body_parts,Stimuli/Experimental_stims/objects/leohoho-rngTKHXumy0-unsplash.jpg,Stimuli/Experimental_stims/body_parts/wc-so-KH4AAPjb-tI-unsplash.jpg,0,0,426,0,unchosen,35,45,body_parts,objects,3500,1,9,2
257,70701,0,258,4,4,0,no_gain2,gain6,K,F,30,21,body_parts,67,72,faces,Stimuli/Experimental_stims/body_parts/mika-korhonen-Xodzxosar18-unsplash.jpg,Stimuli/Experimental_stims/faces/leilani-angel-K84vnnzxmTQ-unsplash.jpg,0,0,208,1,unchosen,21,30,faces,body_parts,1000,0,9,2
258,70701,0,259,4,4,0,no_gain2,gain3,K,L,30,31,body_parts,67,75,body_parts,Stimuli/Experimental_stims/body_parts/mika-korhonen-Xodzxosar18-unsplash.jpg,Stimuli/Experimental_stims/body_parts/sincerely-media-VN6DbKajo5s-unsplash.jpg,0,0,507,1,unchosen,31,30,body_parts,body_parts,1700,0,9,2
259,70701,0,260,4,4,1,gain2,no_gain5,C,D,29,40,body_parts,69,76,objects,Stimuli/Experimental_stims/body_parts/manuel-schinner-ZwjFuJ7ebpk-unsplash.jpg,Stimuli/Experimental_stims/objects/fabian-blank-pElSkGRA2NU-unsplash.jpg,0,1,358,1,chosen,29,40,body_parts,objects,1500,0,9,2
260,70701,0,261,4,4,1,gain3,no_gain5,L,D,23,40,faces,70,76,objects,Stimuli/Experimental_stims/faces/rikonavt-HQjfrvdTfak-unsplash.jpg,Stimuli/Experimental_stims/objects/fabian-blank-pElSkGRA2NU-unsplash.jpg,0,1,56,1,chosen,23,40,faces,objects,1400,0,9,2
261,70701,0,262,4,4,1,gain5,no_gain3,J,B,47,3,objects,66,79,outdoor_scenes,Stimuli/Experimental_stims/objects/ronaldo-arthur-vidal-Cdz_lvnl37k-unsplash.jpg,Stimuli/Experimental_stims/outdoor_scenes/henry-be-NLF6hTe4PAg-unsplash.jpg,0,1,397,1,chosen,47,3,objects,outdoor_scenes,1300,0,9,2
262,70701,0,263,4,4,1,gain5,no_gain5,J,D,14,20,faces,24,73,faces,Stimuli/Experimental_stims/faces/david-siglin-UuW4psOb388-unsplash.jpg,Stimuli/Experimental_stims/faces/justin-chen-J7Cf1Gch49E-unsplash.jpg,0,1,556,1,unchosen,14,20,faces,faces,4500,1,9,2
263,70701,0,264,4,4,0,no_gain5,gain6,D,F,20,21,faces,73,72,faces,Stimuli/Experimental_stims/faces/justin-chen-J7Cf1Gch49E-unsplash.jpg,Stimuli/Experimental_stims/faces/leilani-angel-K84vnnzxmTQ-unsplash.jpg,0,1,161,0,unchosen,20,21,faces,faces,1900,0,9,2
264,70701,0,265,4,4,0,no_gain6,gain1,I,G,35,43,body_parts,32,25,objects,Stimuli/Experimental_stims/body_parts/wc-so-KH4AAPjb-tI-unsplash.jpg,Stimuli/Experimental_stims/objects/jonathan-greenaway-Y4hGgeiFn3s-unsplash.jpg,0,0,26,1,unchosen,43,35,objects,body_parts,1900,0,9,2
265,70701,0,266,4,4,1,gain5,no_gain5,J,D,47,40,objects,66,76,objects,Stimuli/Experimental_stims/objects/ronaldo-arthur-vidal-Cdz_lvnl37k-unsplash.jpg,Stimuli/Experimental_stims/objects/fabian-blank-pElSkGRA2NU-unsplash.jpg,0,0,380,0,chosen,40,47,objects,objects,1600,0,9,2
266,70701,0,267,4,4,0,no_gain2,gain4,K,A,37,9,objects,79,90,outdoor_scenes,Stimuli/Experimental_stims/objects/alexander-andrews-VLGWE_SumrA-unsplash.jpg,Stimuli/Experimental_stims/outdoor_scenes/sergey-pesterev-y-b_FOmJXdg-unsplash.jpg,0,0,221,1,chosen,9,37,outdoor_scenes,objects,2300,0,9,2
267,70701,0,268,4,4,1,gain6,no_gain2,F,K,24,37,body_parts,75,79,objects,Stimuli/Experimental_stims/body_parts/clay-banks-LjqARJaJotc-unsplash.jpg,Stimuli/Experimental_stims/objects/alexander-andrews-VLGWE_SumrA-unsplash.jpg,1,NaN,,NaN,chosen,NaN,NaN,NaN,NaN,3700,1,9,2
268,70701,0,269,4,4,0,no_gain3,gain3,B,L,22,31,faces,83,75,body_parts,Stimuli/Experimental_stims/faces/ravi-patel-VMGAbeeJTKo-unsplash.jpg,Stimuli/Experimental_stims/body_parts/sincerely-media-VN6DbKajo5s-unsplash.jpg,0,0,28,1,unchosen,31,22,body_parts,faces,1200,0,9,2
269,70701,0,270,4,4,1,gain4,no_gain3,A,B,45,22,objects,76,83,faces,Stimuli/Experimental_stims/objects/leohoho-rngTKHXumy0-unsplash.jpg,Stimuli/Experimental_stims/faces/ravi-patel-VMGAbeeJTKo-unsplash.jpg,0,1,518,1,unchosen,45,22,objects,faces,1900,0,9,2
270,70701,0,271,4,4,0,no_gain3,gain1,B,G,22,43,faces,83,25,objects,Stimuli/Experimental_stims/faces/ravi-patel-VMGAbeeJTKo-unsplash.jpg,Stimuli/Experimental_stims/objects/jonathan-greenaway-Y4hGgeiFn3s-unsplash.jpg,0,1,26,0,unchosen,22,43,faces,objects,2000,0,9,2
271,70701,0,272,4,4,1,gain1,no_gain3,G,B,10,3,outdoor_scenes,72,79,outdoor_scenes,Stimuli/Experimental_stims/outdoor_scenes/shannon-kunkle-dM8INmkyDas-unsplash.jpg,Stimuli/Experimental_stims/outdoor_scenes/henry-be-NLF6hTe4PAg-unsplash.jpg,0,1,165,1,chosen,10,3,outdoor_scenes,outdoor_scenes,2700,0,9,2
272,70701,0,273,4,4,1,gain6,no_gain5,F,D,24,40,body_parts,75,76,objects,Stimuli/Experimental_stims/body_parts/clay-banks-LjqARJaJotc-unsplash.jpg,Stimuli/Experimental_stims/objects/fabian-blank-pElSkGRA2NU-unsplash.jpg,0,1,585,1,chosen,24,40,body_parts,objects,1100,0,9,2
273,70701,0,274,4,4,0,no_gain2,gain1,K,G,37,10,objects,79,72,outdoor_scenes,Stimuli/Experimental_stims/objects/alexander-andrews-VLGWE_SumrA-unsplash.jpg,Stimuli/Experimental_stims/outdoor_scenes/shannon-kunkle-dM8INmkyDas-unsplash.jpg,0,0,768,1,chosen,10,37,outdoor_scenes,objects,4200,1,9,2
274,70701,0,275,4,4,1,gain3,no_gain6,L,I,31,35,body_parts,75,32,body_parts,Stimuli/Experimental_stims/body_parts/sincerely-media-VN6DbKajo5s-unsplash.jpg,Stimuli/Experimental_stims/body_parts/wc-so-KH4AAPjb-tI-unsplash.jpg,0,0,197,0,unchosen,35,31,body_parts,body_parts,1300,0,9,2
275,70701,0,276,4,4,1,gain1,no_gain5,G,D,10,40,outdoor_scenes,72,76,objects,Stimuli/Experimental_stims/outdoor_scenes/shannon-kunkle-dM8INmkyDas-unsplash.jpg,Stimuli/Experimental_stims/objects/fabian-blank-pElSkGRA2NU-unsplash.jpg,0,0,449,0,chosen,40,10,objects,outdoor_scenes,2000,0,9,2
276,70701,0,277,4,4,0,no_gain3,gain2,B,C,3,29,outdoor_scenes,79,69,body_parts,Stimuli/Experimental_stims/outdoor_scenes/henry-be-NLF6hTe4PAg-unsplash.jpg,Stimuli/Experimental_stims/body_parts/manuel-schinner-ZwjFuJ7ebpk-unsplash.jpg,0,0,90,1,chosen,29,3,body_parts,outdoor_scenes,1100,0,9,2
277,70701,0,278,4,4,1,gain5,no_gain1,J,H,14,5,faces,24,88,outdoor_scenes,Stimuli/Experimental_stims/faces/david-siglin-UuW4psOb388-unsplash.jpg,Stimuli/Experimental_stims/outdoor_scenes/jeff-king-bJHWJeiHfHc-unsplash.jpg,0,0,606,0,unchosen,5,14,outdoor_scenes,faces,2300,0,9,2
278,70701,0,279,4,4,1,gain2,no_gain2,C,K,29,37,body_parts,69,79,objects,Stimuli/Experimental_stims/body_parts/manuel-schinner-ZwjFuJ7ebpk-unsplash.jpg,Stimuli/Experimental_stims/objects/alexander-andrews-VLGWE_SumrA-unsplash.jpg,0,0,220,0,chosen,37,29,objects,body_parts,2900,0,9,2
279,70701,0,280,4,4,0,no_gain2,gain5,K,J,37,47,objects,79,66,objects,Stimuli/Experimental_stims/objects/alexander-andrews-VLGWE_SumrA-unsplash.jpg,Stimuli/Experimental_stims/objects/ronaldo-arthur-vidal-Cdz_lvnl37k-unsplash.jpg,0,1,5,0,chosen,37,47,objects,objects,1200,0,9,2
280,70701,0,281,4,4,1,gain5,no_gain6,J,I,47,7,objects,66,77,outdoor_scenes,Stimuli/Experimental_stims/objects/ronaldo-arthur-vidal-Cdz_lvnl37k-unsplash.jpg,Stimuli/Experimental_stims/outdoor_scenes/petr-vysohlid-9fqwGqGLUxc-unsplash.jpg,0,0,2,0,chosen,7,47,outdoor_scenes,objects,1500,0,9,2
281,70701,0,282,4,4,1,gain6,no_gain3,F,B,21,22,faces,72,83,faces,Stimuli/Experimental_stims/faces/leilani-angel-K84vnnzxmTQ-unsplash.jpg,Stimuli/Experimental_stims/faces/ravi-patel-VMGAbeeJTKo-unsplash.jpg,0,1,33,1,unchosen,21,22,faces,faces,1100,0,9,2
282,70701,0,283,4,4,0,no_gain6,gain4,I,A,7,9,outdoor_scenes,77,90,outdoor_scenes,Stimuli/Experimental_stims/outdoor_scenes/petr-vysohlid-9fqwGqGLUxc-unsplash.jpg,Stimuli/Experimental_stims/outdoor_scenes/sergey-pesterev-y-b_FOmJXdg-unsplash.jpg,0,1,416,0,chosen,7,9,outdoor_scenes,outdoor_scenes,1200,0,9,2
283,70701,0,284,4,4,0,no_gain4,gain2,E,C,28,29,body_parts,62,69,body_parts,Stimuli/Experimental_stims/body_parts/ira-vishnevskaya-8DQAvdCby1I-unsplash.jpg,Stimuli/Experimental_stims/body_parts/manuel-schinner-ZwjFuJ7ebpk-unsplash.jpg,0,0,599,1,chosen,29,28,body_parts,body_parts,1400,0,9,2
284,70701,0,285,4,4,1,gain2,no_gain4,C,E,0,46,outdoor_scenes,71,72,objects,Stimuli/Experimental_stims/outdoor_scenes/aleksandra-boguslawska-MS7KD9Ti7FQ-unsplash.jpg,Stimuli/Experimental_stims/objects/mockup-graphics-PNsj6RiHAF4-unsplash.jpg,0,0,47,0,unchosen,46,0,objects,outdoor_scenes,1100,0,9,2
285,70701,0,286,4,4,1,gain3,no_gain6,L,I,23,7,faces,70,77,outdoor_scenes,Stimuli/Experimental_stims/faces/rikonavt-HQjfrvdTfak-unsplash.jpg,Stimuli/Experimental_stims/outdoor_scenes/petr-vysohlid-9fqwGqGLUxc-unsplash.jpg,0,0,62,0,chosen,7,23,outdoor_scenes,faces,2100,0,9,2
286,70701,0,287,4,4,0,no_gain1,gain1,H,G,5,43,outdoor_scenes,88,25,objects,Stimuli/Experimental_stims/outdoor_scenes/jeff-king-bJHWJeiHfHc-unsplash.jpg,Stimuli/Experimental_stims/objects/jonathan-greenaway-Y4hGgeiFn3s-unsplash.jpg,0,0,593,1,unchosen,43,5,objects,outdoor_scenes,3300,1,9,2
287,70701,0,288,4,4,0,no_gain1,gain6,H,F,5,21,outdoor_scenes,88,72,faces,Stimuli/Experimental_stims/outdoor_scenes/jeff-king-bJHWJeiHfHc-unsplash.jpg,Stimuli/Experimental_stims/faces/leilani-angel-K84vnnzxmTQ-unsplash.jpg,0,1,648,0,unchosen,5,21,outdoor_scenes,faces,1900,0,9,2
288,70701,0,289,4,4,0,no_gain1,gain5,H,J,19,47,faces,78,66,objects,Stimuli/Experimental_stims/faces/joel-mott-LaK153ghdig-unsplash.jpg,Stimuli/Experimental_stims/objects/ronaldo-arthur-vidal-Cdz_lvnl37k-unsplash.jpg,0,1,52,0,chosen,19,47,faces,objects,2000,0,9,2
289,70701,0,290,4,4,0,no_gain4,gain6,E,F,28,24,body_parts,62,75,body_parts,Stimuli/Experimental_stims/body_parts/ira-vishnevskaya-8DQAvdCby1I-unsplash.jpg,Stimuli/Experimental_stims/body_parts/clay-banks-LjqARJaJotc-unsplash.jpg,0,0,444,1,chosen,24,28,body_parts,body_parts,1100,0,9,2
290,70701,0,291,4,4,1,gain3,no_gain5,L,D,31,20,body_parts,75,73,faces,Stimuli/Experimental_stims/body_parts/sincerely-media-VN6DbKajo5s-unsplash.jpg,Stimuli/Experimental_stims/faces/justin-chen-J7Cf1Gch49E-unsplash.jpg,0,1,358,1,unchosen,31,20,body_parts,faces,1800,0,9,2
291,70701,0,292,4,4,0,no_gain1,gain1,H,G,19,10,faces,78,72,outdoor_scenes,Stimuli/Experimental_stims/faces/joel-mott-LaK153ghdig-unsplash.jpg,Stimuli/Experimental_stims/outdoor_scenes/shannon-kunkle-dM8INmkyDas-unsplash.jpg,0,0,492,1,chosen,10,19,outdoor_scenes,faces,3200,1,9,2