,PID,practice,trial,block,run,gain_left,left_item_id,right_item_id,left_pair_id,right_pair_id,left_stimulus,right_stimulus,left_category,right_category,left_rating,right_rating,left_path,right_path,no_response,left_chosen,rt,higher_outcome_chosen,choice_type,chosen_stimulus,unchosen_stimulus,chosen_category,unchosen_category,iti,long_iti,simulation,version
0,46596,1,1,0,0,0,,,,,,,,,,,Stimuli/Practice_stims/Final_decisions/debby-hudson-FmCSSSGge-0-unsplash.jpg,Stimuli/Practice_stims/Final_decisions/yassine-khalfalli-adsQ9d_Cx0c-unsplash.jpg,0,0,51,1,,,,,,3000,0,6,1
1,46596,1,2,0,0,0,,,,,,,,,,,Stimuli/Practice_stims/Final_decisions/florian-wehde-iVW7mZPwd4g-unsplash.jpg,Stimuli/Practice_stims/Final_decisions/patrick-perkins-3wylDrjxH-E-unsplash.jpg,0,0,78,1,,,,,,1500,0,6,1
2,46596,1,3,0,0,0,,,,,,,,,,,Stimuli/Practice_stims/Final_decisions/debby-hudson-FmCSSSGge-0-unsplash.jpg,Stimuli/Practice_stims/Final_decisions/florian-wehde-iVW7mZPwd4g-unsplash.jpg,0,0,70,1,,,,,,2000,0,6,1
3,46596,1,4,0,0,0,,,,,,,,,,,Stimuli/Practice_stims/Final_decisions/yassine-khalfalli-adsQ9d_Cx0c-unsplash.jpg,Stimuli/Practice_stims/Final_decisions/debby-hudson-FmCSSSGge-0-unsplash.jpg,0,1,1,0,,,,,,1000,0,6,1
4,46596,0,5,1,1,0,no_gain4,gain5,L,C,15,3,faces,outdoor_scenes,61,77,Stimuli/Experimental_stims/faces/erik-lucatero-d2MSDujJl2g-unsplash.jpg,Stimuli/Experimental_stims/outdoor_scenes/henry-be-NLF6hTe4PAg-unsplash.jpg,0,0,1329,1,chosen,3,15,outdoor_scenes,faces,1800,0,6,1
5,46596,0,6,1,1,1,gain3,no_gain6,J,I,38,9,objects,outdoor_scenes,82,69,Stimuli/Experimental_stims/objects/art-lasovsky-8XddFc6NkBY-unsplash.jpg,Stimuli/Experimental_stims/outdoor_scenes/sergey-pesterev-y-b_FOmJXdg-unsplash.jpg,0,0,142,0,chosen,9,38,outdoor_scenes,objects,1700,0,6,1
6,46596,0,7,1,1,1,gain6,no_gain3,E,F,42,21,objects,faces,70,72,Stimuli/Experimental_stims/objects/jess-bailey-nOeVi8DsN8U-unsplash.jpg,Stimuli/Experimental_stims/faces/leilani-angel-K84vnnzxmTQ-unsplash.jpg,0,1,122,1,unchosen,42,21,objects,faces,2300,0,6,1
7,46596,0,8,1,1,0,no_gain2,gain3,G,J,8,38,outdoor_scenes,objects,73,82,Stimuli/Experimental_stims/outdoor_scenes/samsommer-vddccTqwal8-unsplash.jpg,Stimuli/Experimental_stims/objects/art-lasovsky-8XddFc6NkBY-unsplash.jpg,0,0,156,1,chosen,38,8,objects,outdoor_scenes,1700,0,6,1
8,46596,0,9,1,1,1,gain4,no_gain5,B,K,5,24,outdoor_scenes,body_parts,66,72,Stimuli/Experimental_stims/outdoor_scenes/jeff-king-bJHWJeiHfHc-unsplash.jpg,Stimuli/Experimental_stims/body_parts/clay-banks-LjqARJaJotc-unsplash.jpg,0,1,181,1,unchosen,5,24,outdoor_scenes,body_parts,3900,1,6,1
9,46596,0,10,1,1,1,gain2,no_gain5,A,K,11,24,outdoor_scenes,body_parts,88,72,Stimuli/Experimental_stims/outdoor_scenes/stephen-leonardi-gyIRjKPXupE-unsplash.jpg,Stimuli/Experimental_stims/body_parts/clay-banks-LjqARJaJotc-unsplash.jpg,0,1,112,1,unchosen,11,24,outdoor_scenes,body_parts,1200,0,6,1
10,46596,0,11,1,1,1,gain2,no_gain5,A,K,39,46,objects,objects,67,73,Stimuli/Experimental_stims/objects/charlesdeluvio-1-nx1QR5dTE-unsplash.jpg,Stimuli/Experimental_stims/objects/mockup-graphics-PNsj6RiHAF4-unsplash.jpg,0,1,133,1,chosen,39,46,objects,objects,1200,0,6,1
11,46596,0,12,1,1,0,no_gain5,gain5,K,C,46,3,objects,outdoor_scenes,73,77,Stimuli/Experimental_stims/objects/mockup-graphics-PNsj6RiHAF4-unsplash.jpg,Stimuli/Experimental_stims/outdoor_scenes/henry-be-NLF6hTe4PAg-unsplash.jpg,0,0,101,1,chosen,3,46,outdoor_scenes,objects,2600,0,6,1
12,46596,0,13,1,1,0,no_gain1,gain4,D,B,13,5,faces,outdoor_scenes,40,66,Stimuli/Experimental_stims/faces/daniel-rigdon-dXmXKPP2L4E-unsplash.jpg,Stimuli/Experimental_stims/outdoor_scenes/jeff-king-bJHWJeiHfHc-unsplash.jpg,0,0,49,1,unchosen,5,13,outdoor_scenes,faces,2200,0,6,1
13,46596,0,14,1,1,1,gain4,no_gain6,B,I,12,9,faces,outdoor_scenes,73,69,Stimuli/Experimental_stims/faces/aiony-haust-jmATI5Q_YgY-unsplash.jpg,Stimuli/Experimental_stims/outdoor_scenes/sergey-pesterev-y-b_FOmJXdg-unsplash.jpg,0,1,46,1,chosen,12,9,faces,outdoor_scenes,1700,0,6,1
14,46596,0,15,1,1,1,gain4,no_gain4,B,L,12,15,faces,faces,73,61,Stimuli/Experimental_stims/faces/aiony-haust-jmATI5Q_YgY-unsplash.jpg,Stimuli/Experimental_stims/faces/erik-lucatero-d2MSDujJl2g-unsplash.jpg,0,0,17,0,chosen,15,12,faces,faces,3100,1,6,1
15,46596,0,16,1,1,1,gain2,no_gain1,A,D,11,13,outdoor_scenes,faces,88,40,Stimuli/Experimental_stims/outdoor_scenes/stephen-leonardi-gyIRjKPXupE-unsplash.jpg,Stimuli/Experimental_stims/faces/daniel-rigdon-dXmXKPP2L4E-unsplash.jpg,0,0,91,0,unchosen,13,11,faces,outdoor_scenes,2100,0,6,1
16,46596,0,17,1,1,0,no_gain2,gain5,G,C,8,3,outdoor_scenes,outdoor_scenes,73,77,Stimuli/Experimental_stims/outdoor_scenes/samsommer-vddccTqwal8-unsplash.jpg,Stimuli/Experimental_stims/outdoor_scenes/henry-be-NLF6hTe4PAg-unsplash.jpg,0,0,86,1,chosen,3,8,outdoor_scenes,outdoor_scenes,1900,0,6,1
17,46596,0,18,1,1,0,no_gain1,gain5,D,C,45,3,objects,outdoor_scenes,67,77,Stimuli/Experimental_stims/objects/leohoho-rngTKHXumy0-unsplash.jpg,Stimuli/Experimental_stims/outdoor_scenes/henry-be-NLF6hTe4PAg-unsplash.jpg,0,0,35,1,chosen,3,45,outdoor_scenes,objects,1400,0,6,1
18,46596,0,19,1,1,1,gain3,no_gain5,J,K,38,46,objects,objects,82,73,Stimuli/Experimental_stims/objects/art-lasovsky-8XddFc6NkBY-unsplash.jpg,Stimuli/Experimental_stims/objects/mockup-graphics-PNsj6RiHAF4-unsplash.jpg,0,1,11,1,chosen,38,46,objects,objects,1500,0,6,1
19,46596,0,20,1,1,0,no_gain4,gain2,L,A,26,11,body_parts,outdoor_scenes,81,88,Stimuli/Experimental_stims/body_parts/engin-akyurt-x_3gyC42btc-unsplash.jpg,Stimuli/Experimental_stims/outdoor_scenes/stephen-leonardi-gyIRjKPXupE-unsplash.jpg,0,0,49,1,unchosen,11,26,outdoor_scenes,body_parts,1600,0,6,1
20,46596,0,21,1,1,0,no_gain1,gain3,D,J,45,38,objects,objects,67,82,Stimuli/Experimental_stims/objects/leohoho-rngTKHXumy0-unsplash.jpg,Stimuli/Experimental_stims/objects/art-lasovsky-8XddFc6NkBY-unsplash.jpg,0,1,36,0,chosen,45,38,objects,objects,3200,1,6,1
21,46596,0,22,1,1,1,gain5,no_gain5,C,K,27,24,body_parts,body_parts,66,72,Stimuli/Experimental_stims/body_parts/heike-mintel-i_Gns0ELnLw-unsplash.jpg,Stimuli/Experimental_stims/body_parts/clay-banks-LjqARJaJotc-unsplash.jpg,0,1,279,1,unchosen,27,24,body_parts,body_parts,1900,0,6,1
22,46596,0,23,1,1,0,no_gain6,gain6,I,E,29,42,body_parts,objects,73,70,Stimuli/Experimental_stims/body_parts/manuel-schinner-ZwjFuJ7ebpk-unsplash.jpg,Stimuli/Experimental_stims/objects/jess-bailey-nOeVi8DsN8U-unsplash.jpg,0,1,100,0,unchosen,29,42,body_parts,objects,1600,0,6,1
23,46596,0,24,1,1,0,no_gain6,gain2,I,A,9,39,outdoor_scenes,objects,69,67,Stimuli/Experimental_stims/outdoor_scenes/sergey-pesterev-y-b_FOmJXdg-unsplash.jpg,Stimuli/Experimental_stims/objects/charlesdeluvio-1-nx1QR5dTE-unsplash.jpg,0,1,123,0,chosen,9,39,outdoor_scenes,objects,1100,0,6,1
24,46596,0,25,1,1,1,gain4,no_gain2,B,G,5,41,outdoor_scenes,objects,66,68,Stimuli/Experimental_stims/outdoor_scenes/jeff-king-bJHWJeiHfHc-unsplash.jpg,Stimuli/Experimental_stims/objects/insung-yoon-w2JtIQQXoRU-unsplash.jpg,0,1,9,1,unchosen,5,41,outdoor_scenes,objects,2200,0,6,1
25,46596,0,26,1,1,1,gain2,no_gain3,A,F,11,21,outdoor_scenes,faces,88,72,Stimuli/Experimental_stims/outdoor_scenes/stephen-leonardi-gyIRjKPXupE-unsplash.jpg,Stimuli/Experimental_stims/faces/leilani-angel-K84vnnzxmTQ-unsplash.jpg,0,0,10,0,unchosen,21,11,faces,outdoor_scenes,3300,1,6,1
26,46596,0,27,1,1,0,no_gain2,gain4,G,B,8,12,outdoor_scenes,faces,73,73,Stimuli/Experimental_stims/outdoor_scenes/samsommer-vddccTqwal8-unsplash.jpg,Stimuli/Experimental_stims/faces/aiony-haust-jmATI5Q_YgY-unsplash.jpg,0,1,1,0,chosen,8,12,outdoor_scenes,faces,2100,0,6,1
27,46596,0,28,1,1,0,no_gain2,gain2,G,A,41,11,objects,outdoor_scenes,68,88,Stimuli/Experimental_stims/objects/insung-yoon-w2JtIQQXoRU-unsplash.jpg,Stimuli/Experimental_stims/outdoor_scenes/stephen-leonardi-gyIRjKPXupE-unsplash.jpg,0,0,631,1,unchosen,11,41,outdoor_scenes,objects,1000,0,6,1
28,46596,0,29,1,1,0,no_gain4,gain3,L,J,26,20,body_parts,faces,81,65,Stimuli/Experimental_stims/body_parts/engin-akyurt-x_3gyC42btc-unsplash.jpg,Stimuli/Experimental_stims/faces/justin-chen-J7Cf1Gch49E-unsplash.jpg,1,NaN,,NaN,unchosen,NaN,NaN,NaN,NaN,2600,0,6,1
29,46596,0,30,1,1,0,no_gain3,gain2,F,A,33,39,body_parts,objects,63,67,Stimuli/Experimental_stims/body_parts/tucker-good-36skLT5jZcc-unsplash.jpg,Stimuli/Experimental_stims/objects/charlesdeluvio-1-nx1QR5dTE-unsplash.jpg,0,0,40,1,chosen,39,33,objects,body_parts,1500,0,6,1
30,46596,0,31,1,1,1,gain5,no_gain4,C,L,27,26,body_parts,body_parts,66,81,Stimuli/Experimental_stims/body_parts/heike-mintel-i_Gns0ELnLw-unsplash.jpg,Stimuli/Experimental_stims/body_parts/engin-akyurt-x_3gyC42btc-unsplash.jpg,0,1,43,1,unchosen,27,26,body_parts,body_parts,1200,0,6,1
31,46596,0,32,1,1,0,no_gain3,gain5,F,C,21,27,faces,body_parts,72,66,Stimuli/Experimental_stims/faces/leilani-angel-K84vnnzxmTQ-unsplash.jpg,Stimuli/Experimental_stims/body_parts/heike-mintel-i_Gns0ELnLw-unsplash.jpg,0,0,91,1,unchosen,27,21,body_parts,faces,2100,0,6,1
32,46596,0,33,1,1,0,no_gain5,gain4,K,B,46,12,objects,faces,73,73,Stimuli/Experimental_stims/objects/mockup-graphics-PNsj6RiHAF4-unsplash.jpg,Stimuli/Experimental_stims/faces/aiony-haust-jmATI5Q_YgY-unsplash.jpg,0,1,9,0,chosen,46,12,objects,faces,4300,1,6,1
33,46596,0,34,1,1,0,no_gain1,gain5,D,C,13,27,faces,body_parts,40,66,Stimuli/Experimental_stims/faces/daniel-rigdon-dXmXKPP2L4E-unsplash.jpg,Stimuli/Experimental_stims/body_parts/heike-mintel-i_Gns0ELnLw-unsplash.jpg,0,1,1,0,unchosen,13,27,faces,body_parts,1000,0,6,1
34,46596,0,35,1,1,1,gain1,no_gain3,H,F,2,33,outdoor_scenes,body_parts,68,63,Stimuli/Experimental_stims/outdoor_scenes/bruno-van-der-kraan-qez8mNJ3ilU-unsplash.jpg,Stimuli/Experimental_stims/body_parts/tucker-good-36skLT5jZcc-unsplash.jpg,0,1,51,1,chosen,2,33,outdoor_scenes,body_parts,2300,0,6,1
35,46596,0,36,1,1,0,no_gain6,gain5,I,C,29,27,body_parts,body_parts,73,66,Stimuli/Experimental_stims/body_parts/manuel-schinner-ZwjFuJ7ebpk-unsplash.jpg,Stimuli/Experimental_stims/body_parts/heike-mintel-i_Gns0ELnLw-unsplash.jpg,0,0,126,1,unchosen,27,29,body_parts,body_parts,1200,0,6,1
36,46596,0,37,1,1,1,gain6,no_gain1,E,D,34,45,body_parts,objects,69,67,Stimuli/Experimental_stims/body_parts/wagner-santos-mBWMvIuVnso-unsplash.jpg,Stimuli/Experimental_stims/objects/leohoho-rngTKHXumy0-unsplash.jpg,0,0,201,0,chosen,45,34,objects,body_parts,1300,0,6,1
37,46596,0,38,1,1,1,gain4,no_gain3,B,F,12,33,faces,body_parts,73,63,Stimuli/Experimental_stims/faces/aiony-haust-jmATI5Q_YgY-unsplash.jpg,Stimuli/Experimental_stims/body_parts/tucker-good-36skLT5jZcc-unsplash.jpg,0,0,108,0,chosen,33,12,body_parts,faces,1700,0,6,1
38,46596,0,39,1,1,1,gain1,no_gain5,H,K,2,46,outdoor_scenes,objects,68,73,Stimuli/Experimental_stims/outdoor_scenes/bruno-van-der-kraan-qez8mNJ3ilU-unsplash.jpg,Stimuli/Experimental_stims/objects/mockup-graphics-PNsj6RiHAF4-unsplash.jpg,0,0,6,0,chosen,46,2,objects,outdoor_scenes,1300,0,6,1
39,46596,0,40,1,1,0,no_gain6,gain3,I,J,29,20,body_parts,faces,73,65,Stimuli/Experimental_stims/body_parts/manuel-schinner-ZwjFuJ7ebpk-unsplash.jpg,Stimuli/Experimental_stims/faces/justin-chen-J7Cf1Gch49E-unsplash.jpg,0,0,46,1,unchosen,20,29,faces,body_parts,1200,0,6,1
40,46596,0,41,1,1,0,no_gain2,gain1,G,H,8,2,outdoor_scenes,outdoor_scenes,73,68,Stimuli/Experimental_stims/outdoor_scenes/samsommer-vddccTqwal8-unsplash.jpg,Stimuli/Experimental_stims/outdoor_scenes/bruno-van-der-kraan-qez8mNJ3ilU-unsplash.jpg,0,1,181,0,chosen,8,2,outdoor_scenes,outdoor_scenes,1900,0,6,1
41,46596,0,42,1,1,1,gain4,no_gain3,B,F,5,21,outdoor_scenes,faces,66,72,Stimuli/Experimental_stims/outdoor_scenes/jeff-king-bJHWJeiHfHc-unsplash.jpg,Stimuli/Experimental_stims/faces/leilani-angel-K84vnnzxmTQ-unsplash.jpg,0,0,66,0,unchosen,21,5,faces,outdoor_scenes,1200,0,6,1
42,46596,0,43,1,1,1,gain6,no_gain6,E,I,34,9,body_parts,outdoor_scenes,69,69,Stimuli/Experimental_stims/body_parts/wagner-santos-mBWMvIuVnso-unsplash.jpg,Stimuli/Experimental_stims/outdoor_scenes/sergey-pesterev-y-b_FOmJXdg-unsplash.jpg,0,1,146,1,chosen,34,9,body_parts,outdoor_scenes,4000,1,6,1
43,46596,0,44,1,1,0,no_gain3,gain3,F,J,33,38,body_parts,objects,63,82,Stimuli/Experimental_stims/body_parts/tucker-good-36skLT5jZcc-unsplash.jpg,Stimuli/Experimental_stims/objects/art-lasovsky-8XddFc6NkBY-unsplash.jpg,0,1,9,0,chosen,33,38,body_parts,objects,2300,0,6,1
44,46596,0,45,1,1,1,gain2,no_gain6,A,I,11,29,outdoor_scenes,body_parts,88,73,Stimuli/Experimental_stims/outdoor_scenes/stephen-leonardi-gyIRjKPXupE-unsplash.jpg,Stimuli/Experimental_stims/body_parts/manuel-schinner-ZwjFuJ7ebpk-unsplash.jpg,0,0,49,0,unchosen,29,11,body_parts,outdoor_scenes,1500,0,6,1
45,46596,0,46,1,1,0,no_gain1,gain1,D,H,45,2,objects,outdoor_scenes,67,68,Stimuli/Experimental_stims/objects/leohoho-rngTKHXumy0-unsplash.jpg,Stimuli/Experimental_stims/outdoor_scenes/bruno-van-der-kraan-qez8mNJ3ilU-unsplash.jpg,0,0,69,1,chosen,2,45,outdoor_scenes,objects,1100,0,6,1
46,46596,0,47,1,1,0,no_gain5,gain6,K,E,24,42,body_parts,objects,72,70,Stimuli/Experimental_stims/body_parts/clay-banks-LjqARJaJotc-unsplash.jpg,Stimuli/Experimental_stims/objects/jess-bailey-nOeVi8DsN8U-unsplash.jpg,0,0,62,1,unchosen,42,24,objects,body_parts,1100,0,6,1
47,46596,0,48,1,1,0,no_gain5,gain6,K,E,46,34,objects,body_parts,73,69,Stimuli/Experimental_stims/objects/mockup-graphics-PNsj6RiHAF4-unsplash.jpg,Stimuli/Experimental_stims/body_parts/wagner-santos-mBWMvIuVnso-unsplash.jpg,0,0,94,1,chosen,34,46,body_parts,objects,3200,1,6,1
48,46596,0,49,1,1,0,no_gain2,gain6,G,E,41,42,objects,objects,68,70,Stimuli/Experimental_stims/objects/insung-yoon-w2JtIQQXoRU-unsplash.jpg,Stimuli/Experimental_stims/objects/jess-bailey-nOeVi8DsN8U-unsplash.jpg,0,0,120,1,unchosen,42,41,objects,objects,1900,0,6,1
49,46596,0,50,1,1,1,gain4,no_gain4,B,L,5,26,outdoor_scenes,body_parts,66,81,Stimuli/Experimental_stims/outdoor_scenes/jeff-king-bJHWJeiHfHc-unsplash.jpg,Stimuli/Experimental_stims/body_parts/engin-akyurt-x_3gyC42btc-unsplash.jpg,0,1,601,1,unchosen,5,26,outdoor_scenes,body_parts,2300,0,6,1
50,46596,0,51,1,1,1,gain6,no_gain4,E,L,42,26,objects,body_parts,70,81,Stimuli/Experimental_stims/objects/jess-bailey-nOeVi8DsN8U-unsplash.jpg,Stimuli/Experimental_stims/body_parts/engin-akyurt-x_3gyC42btc-unsplash.jpg,0,1,124,1,unchosen,42,26,objects,body_parts,1200,0,6,1
51,46596,0,52,1,1,0,no_gain6,gain1,I,H,9,2,outdoor_scenes,outdoor_scenes,69,68,Stimuli/Experimental_stims/outdoor_scenes/sergey-pesterev-y-b_FOmJXdg-unsplash.jpg,Stimuli/Experimental_stims/outdoor_scenes/bruno-van-der-kraan-qez8mNJ3ilU-unsplash.jpg,0,0,185,1,chosen,2,9,outdoor_scenes,outdoor_scenes,2400,0,6,1
52,46596,0,53,1,1,1,gain2,no_gain1,A,D,39,45,objects,objects,67,67,Stimuli/Experimental_stims/objects/charlesdeluvio-1-nx1QR5dTE-unsplash.jpg,Stimuli/Experimental_stims/objects/leohoho-rngTKHXumy0-unsplash.jpg,0,1,114,1,chosen,39,45,objects,objects,1600,0,6,1
53,46596,0,54,1,1,1,gain5,no_gain6,C,I,3,9,outdoor_scenes,outdoor_scenes,77,69,Stimuli/Experimental_stims/outdoor_scenes/henry-be-NLF6hTe4PAg-unsplash.jpg,Stimuli/Experimental_stims/outdoor_scenes/sergey-pesterev-y-b_FOmJXdg-unsplash.jpg,0,1,36,1,chosen,3,9,outdoor_scenes,outdoor_scenes,3100,1,6,1
54,46596,0,55,1,1,0,no_gain5,gain1,K,H,24,23,body_parts,faces,72,79,Stimuli/Experimental_stims/body_parts/clay-banks-LjqARJaJotc-unsplash.jpg,Stimuli/Experimental_stims/faces/rikonavt-HQjfrvdTfak-unsplash.jpg,0,0,26,1,unchosen,23,24,faces,body_parts,2300,0,6,1
55,46596,0,56,1,1,1,gain2,no_gain2,A,G,39,8,objects,outdoor_scenes,67,73,Stimuli/Experimental_stims/objects/charlesdeluvio-1-nx1QR5dTE-unsplash.jpg,Stimuli/Experimental_stims/outdoor_scenes/samsommer-vddccTqwal8-unsplash.jpg,0,1,283,1,chosen,39,8,objects,outdoor_scenes,2600,0,6,1
56,46596,0,57,1,1,1,gain3,no_gain2,J,G,20,41,faces,objects,65,68,Stimuli/Experimental_stims/faces/justin-chen-J7Cf1Gch49E-unsplash.jpg,Stimuli/Experimental_stims/objects/insung-yoon-w2JtIQQXoRU-unsplash.jpg,0,1,180,1,unchosen,20,41,faces,objects,1700,0,6,1
57,46596,0,58,1,1,0,no_gain1,gain3,D,J,13,20,faces,faces,40,65,Stimuli/Experimental_stims/faces/daniel-rigdon-dXmXKPP2L4E-unsplash.jpg,Stimuli/Experimental_stims/faces/justin-chen-J7Cf1Gch49E-unsplash.jpg,0,0,152,1,unchosen,20,13,faces,faces,1100,0,6,1
58,46596,0,59,1,1,1,gain6,no_gain4,E,L,34,15,body_parts,faces,69,61,Stimuli/Experimental_stims/body_parts/wagner-santos-mBWMvIuVnso-unsplash.jpg,Stimuli/Experimental_stims/faces/erik-lucatero-d2MSDujJl2g-unsplash.jpg,0,0,193,0,chosen,15,34,faces,body_parts,2600,0,6,1
59,46596,0,60,1,1,1,gain6,no_gain1,E,D,42,13,objects,faces,70,40,Stimuli/Experimental_stims/objects/jess-bailey-nOeVi8DsN8U-unsplash.jpg,Stimuli/Experimental_stims/faces/daniel-rigdon-dXmXKPP2L4E-unsplash.jpg,0,0,147,0,unchosen,13,42,faces,objects,1000,0,6,1
60,46596,0,61,1,1,1,gain1,no_gain3,H,F,23,21,faces,faces,79,72,Stimuli/Experimental_stims/faces/rikonavt-HQjfrvdTfak-unsplash.jpg,Stimuli/Experimental_stims/faces/leilani-angel-K84vnnzxmTQ-unsplash.jpg,0,1,173,1,unchosen,23,21,faces,faces,2400,0,6,1
61,46596,0,62,1,1,0,no_gain6,gain4,I,B,29,5,body_parts,outdoor_scenes,73,66,Stimuli/Experimental_stims/body_parts/manuel-schinner-ZwjFuJ7ebpk-unsplash.jpg,Stimuli/Experimental_stims/outdoor_scenes/jeff-king-bJHWJeiHfHc-unsplash.jpg,0,0,72,1,unchosen,5,29,outdoor_scenes,body_parts,3500,1,6,1
62,46596,0,63,1,1,1,gain6,no_gain3,E,F,34,33,body_parts,body_parts,69,63,Stimuli/Experimental_stims/body_parts/wagner-santos-mBWMvIuVnso-unsplash.jpg,Stimuli/Experimental_stims/body_parts/tucker-good-36skLT5jZcc-unsplash.jpg,0,0,171,0,chosen,33,34,body_parts,body_parts,1700,0,6,1
63,46596,0,64,1,1,1,gain2,no_gain4,A,L,39,15,objects,faces,67,61,Stimuli/Experimental_stims/objects/charlesdeluvio-1-nx1QR5dTE-unsplash.jpg,Stimuli/Experimental_stims/faces/erik-lucatero-d2MSDujJl2g-unsplash.jpg,0,1,130,1,chosen,39,15,objects,faces,1200,0,6,1
64,46596,0,65,1,1,0,no_gain6,gain1,I,H,29,23,body_parts,faces,73,79,Stimuli/Experimental_stims/body_parts/manuel-schinner-ZwjFuJ7ebpk-unsplash.jpg,Stimuli/Experimental_stims/faces/rikonavt-HQjfrvdTfak-unsplash.jpg,0,1,460,0,unchosen,29,23,body_parts,faces,1600,0,6,1
65,46596,0,66,1,1,0,no_gain4,gain1,L,H,26,23,body_parts,faces,81,79,Stimuli/Experimental_stims/body_parts/engin-akyurt-x_3gyC42btc-unsplash.jpg,Stimuli/Experimental_stims/faces/rikonavt-HQjfrvdTfak-unsplash.jpg,0,1,278,0,unchosen,26,23,body_parts,faces,1200,0,6,1
66,46596,0,67,1,1,1,gain5,no_gain2,C,G,27,41,body_parts,objects,66,68,Stimuli/Experimental_stims/body_parts/heike-mintel-i_Gns0ELnLw-unsplash.jpg,Stimuli/Experimental_stims/objects/insung-yoon-w2JtIQQXoRU-unsplash.jpg,0,0,233,0,unchosen,41,27,objects,body_parts,3400,1,6,1
67,46596,0,68,1,1,0,no_gain1,gain4,D,B,45,12,objects,faces,67,73,Stimuli/Experimental_stims/objects/leohoho-rngTKHXumy0-unsplash.jpg,Stimuli/Experimental_stims/faces/aiony-haust-jmATI5Q_YgY-unsplash.jpg,1,NaN,,NaN,chosen,NaN,NaN,NaN,NaN,1900,0,6,1
68,46596,0,69,1,1,1,gain6,no_gain2,E,G,34,8,body_parts,outdoor_scenes,69,73,Stimuli/Experimental_stims/body_parts/wagner-santos-mBWMvIuVnso-unsplash.jpg,Stimuli/Experimental_stims/outdoor_scenes/samsommer-vddccTqwal8-unsplash.jpg,0,0,166,0,chosen,8,34,outdoor_scenes,body_parts,2200,0,6,1
69,46596,0,70,1,1,1,gain5,no_gain3,C,F,3,33,outdoor_scenes,body_parts,77,63,Stimuli/Experimental_stims/outdoor_scenes/henry-be-NLF6hTe4PAg-unsplash.jpg,Stimuli/Experimental_stims/body_parts/tucker-good-36skLT5jZcc-unsplash.jpg,0,0,4,0,chosen,33,3,body_parts,outdoor_scenes,1100,0,6,1
70,46596,0,71,1,1,0,no_gain1,gain1,D,H,13,23,faces,faces,40,79,Stimuli/Experimental_stims/faces/daniel-rigdon-dXmXKPP2L4E-unsplash.jpg,Stimuli/Experimental_stims/faces/rikonavt-HQjfrvdTfak-unsplash.jpg,0,0,270,1,unchosen,23,13,faces,faces,2600,0,6,1
71,46596,0,72,1,1,1,gain1,no_gain2,H,G,23,41,faces,objects,79,68,Stimuli/Experimental_stims/faces/rikonavt-HQjfrvdTfak-unsplash.jpg,Stimuli/Experimental_stims/objects/insung-yoon-w2JtIQQXoRU-unsplash.jpg,0,0,7,0,unchosen,41,23,objects,faces,2100,0,6,1
72,46596,0,73,1,1,0,no_gain3,gain3,F,J,21,20,faces,faces,72,65,Stimuli/Experimental_stims/faces/leilani-angel-K84vnnzxmTQ-unsplash.jpg,Stimuli/Experimental_stims/faces/justin-chen-J7Cf1Gch49E-unsplash.jpg,0,1,26,0,unchosen,21,20,faces,faces,1600,0,6,1
73,46596,0,74,1,1,0,no_gain4,gain1,L,H,15,2,faces,outdoor_scenes,61,68,Stimuli/Experimental_stims/faces/erik-lucatero-d2MSDujJl2g-unsplash.jpg,Stimuli/Experimental_stims/outdoor_scenes/bruno-van-der-kraan-qez8mNJ3ilU-unsplash.jpg,0,0,0,1,chosen,2,15,outdoor_scenes,faces,1200,0,6,1
74,46596,0,75,1,1,1,gain3,no_gain5,J,K,20,24,faces,body_parts,65,72,Stimuli/Experimental_stims/faces/justin-chen-J7Cf1Gch49E-unsplash.jpg,Stimuli/Experimental_stims/body_parts/clay-banks-LjqARJaJotc-unsplash.jpg,0,0,226,0,unchosen,24,20,body_parts,faces,2600,0,6,1
75,46596,0,76,1,1,0,no_gain4,gain3,L,J,15,38,faces,objects,61,82,Stimuli/Experimental_stims/faces/erik-lucatero-d2MSDujJl2g-unsplash.jpg,Stimuli/Experimental_stims/objects/art-lasovsky-8XddFc6NkBY-unsplash.jpg,0,1,82,0,chosen,15,38,faces,objects,3600,1,6,1
76,46596,0,77,2,2,1,gain4,no_gain6,B,I,5,29,outdoor_scenes,body_parts,66,73,Stimuli/Experimental_stims/outdoor_scenes/jeff-king-bJHWJeiHfHc-unsplash.jpg,Stimuli/Experimental_stims/body_parts/manuel-schinner-ZwjFuJ7ebpk-unsplash.jpg,1,NaN,,NaN,unchosen,NaN,NaN,NaN,NaN,3100,1,4,1
77,46596,0,78,2,2,1,gain3,no_gain1,J,D,38,45,objects,objects,82,67,Stimuli/Experimental_stims/objects/art-lasovsky-8XddFc6NkBY-unsplash.jpg,Stimuli/Experimental_stims/objects/leohoho-rngTKHXumy0-unsplash.jpg,0,0,28,0,chosen,45,38,objects,objects,2600,0,4,1
78,46596,0,79,2,2,0,no_gain5,gain5,K,C,46,3,objects,outdoor_scenes,73,77,Stimuli/Experimental_stims/objects/mockup-graphics-PNsj6RiHAF4-unsplash.jpg,Stimuli/Experimental_stims/outdoor_scenes/henry-be-NLF6hTe4PAg-unsplash.jpg,0,0,10,1,chosen,3,46,outdoor_scenes,objects,1800,0,4,1
79,46596,0,80,2,2,0,no_gain5,gain2,K,A,24,11,body_parts,outdoor_scenes,72,88,Stimuli/Experimental_stims/body_parts/clay-banks-LjqARJaJotc-unsplash.jpg,Stimuli/Experimental_stims/outdoor_scenes/stephen-leonardi-gyIRjKPXupE-unsplash.jpg,0,0,234,1,unchosen,11,24,outdoor_scenes,body_parts,1000,0,4,1
80,46596,0,81,2,2,0,no_gain5,gain6,K,E,46,34,objects,body_parts,73,69,Stimuli/Experimental_stims/objects/mockup-graphics-PNsj6RiHAF4-unsplash.jpg,Stimuli/Experimental_stims/body_parts/wagner-santos-mBWMvIuVnso-unsplash.jpg,0,0,101,1,chosen,34,46,body_parts,objects,2300,0,4,1
81,46596,0,82,2,2,1,gain2,no_gain1,A,D,39,45,objects,objects,67,67,Stimuli/Experimental_stims/objects/charlesdeluvio-1-nx1QR5dTE-unsplash.jpg,Stimuli/Experimental_stims/objects/leohoho-rngTKHXumy0-unsplash.jpg,0,0,147,0,chosen,45,39,objects,objects,1100,0,4,1
82,46596,0,83,2,2,1,gain6,no_gain4,E,L,34,15,body_parts,faces,69,61,Stimuli/Experimental_stims/body_parts/wagner-santos-mBWMvIuVnso-unsplash.jpg,Stimuli/Experimental_stims/faces/erik-lucatero-d2MSDujJl2g-unsplash.jpg,0,0,3,0,chosen,15,34,faces,body_parts,1500,0,4,1
83,46596,0,84,2,2,1,gain1,no_gain4,H,L,23,26,faces,body_parts,79,81,Stimuli/Experimental_stims/faces/rikonavt-HQjfrvdTfak-unsplash.jpg,Stimuli/Experimental_stims/body_parts/engin-akyurt-x_3gyC42btc-unsplash.jpg,0,0,173,0,unchosen,26,23,body_parts,faces,2400,0,4,1
84,46596,0,85,2,2,0,no_gain2,gain2,G,A,41,11,objects,outdoor_scenes,68,88,Stimuli/Experimental_stims/objects/insung-yoon-w2JtIQQXoRU-unsplash.jpg,Stimuli/Experimental_stims/outdoor_scenes/stephen-leonardi-gyIRjKPXupE-unsplash.jpg,0,0,126,1,unchosen,11,41,outdoor_scenes,objects,2300,0,4,1
85,46596,0,86,2,2,1,gain6,no_gain3,E,F,34,33,body_parts,body_parts,69,63,Stimuli/Experimental_stims/body_parts/wagner-santos-mBWMvIuVnso-unsplash.jpg,Stimuli/Experimental_stims/body_parts/tucker-good-36skLT5jZcc-unsplash.jpg,0,1,30,1,chosen,34,33,body_parts,body_parts,1200,0,4,1
86,46596,0,87,2,2,0,no_gain5,gain4,K,B,24,5,body_parts,outdoor_scenes,72,66,Stimuli/Experimental_stims/body_parts/clay-banks-LjqARJaJotc-unsplash.jpg,Stimuli/Experimental_stims/outdoor_scenes/jeff-king-bJHWJeiHfHc-unsplash.jpg,0,0,215,1,unchosen,5,24,outdoor_scenes,body_parts,1300,0,4,1
87,46596,0,88,2,2,1,gain2,no_gain2,A,G,39,8,objects,outdoor_scenes,67,73,Stimuli/Experimental_stims/objects/charlesdeluvio-1-nx1QR5dTE-unsplash.jpg,Stimuli/Experimental_stims/outdoor_scenes/samsommer-vddccTqwal8-unsplash.jpg,0,0,2,0,chosen,8,39,outdoor_scenes,objects,3700,1,4,1
88,46596,0,89,2,2,1,gain5,no_gain3,C,F,3,33,outdoor_scenes,body_parts,77,63,Stimuli/Experimental_stims/outdoor_scenes/henry-be-NLF6hTe4PAg-unsplash.jpg,Stimuli/Experimental_stims/body_parts/tucker-good-36skLT5jZcc-unsplash.jpg,0,1,103,1,chosen,3,33,outdoor_scenes,body_parts,1600,0,4,1
89,46596,0,90,2,2,0,no_gain3,gain1,F,H,33,2,body_parts,outdoor_scenes,63,68,Stimuli/Experimental_stims/body_parts/tucker-good-36skLT5jZcc-unsplash.jpg,Stimuli/Experimental_stims/outdoor_scenes/bruno-van-der-kraan-qez8mNJ3ilU-unsplash.jpg,0,0,133,1,chosen,2,33,outdoor_scenes,body_parts,1700,0,4,1
90,46596,0,91,2,2,0,no_gain2,gain1,G,H,41,23,objects,faces,68,79,Stimuli/Experimental_stims/objects/insung-yoon-w2JtIQQXoRU-unsplash.jpg,Stimuli/Experimental_stims/faces/rikonavt-HQjfrvdTfak-unsplash.jpg,0,0,6,1,unchosen,23,41,faces,objects,1200,0,4,1
91,46596,0,92,2,2,0,no_gain6,gain5,I,C,9,3,outdoor_scenes,outdoor_scenes,69,77,Stimuli/Experimental_stims/outdoor_scenes/sergey-pesterev-y-b_FOmJXdg-unsplash.jpg,Stimuli/Experimental_stims/outdoor_scenes/henry-be-NLF6hTe4PAg-unsplash.jpg,0,1,45,0,chosen,9,3,outdoor_scenes,outdoor_scenes,1100,0,4,1
92,46596,0,93,2,2,0,no_gain4,gain3,L,J,15,38,faces,objects,61,82,Stimuli/Experimental_stims/faces/erik-lucatero-d2MSDujJl2g-unsplash.jpg,Stimuli/Experimental_stims/objects/art-lasovsky-8XddFc6NkBY-unsplash.jpg,0,0,138,1,chosen,38,15,objects,faces,1300,0,4,1
93,46596,0,94,2,2,1,gain4,no_gain5,B,K,12,46,faces,objects,73,73,Stimuli/Experimental_stims/faces/aiony-haust-jmATI5Q_YgY-unsplash.jpg,Stimuli/Experimental_stims/objects/mockup-graphics-PNsj6RiHAF4-unsplash.jpg,0,0,122,0,chosen,46,12,objects,faces,4500,1,4,1
94,46596,0,95,2,2,0,no_gain5,gain1,K,H,24,23,body_parts,faces,72,79,Stimuli/Experimental_stims/body_parts/clay-banks-LjqARJaJotc-unsplash.jpg,Stimuli/Experimental_stims/faces/rikonavt-HQjfrvdTfak-unsplash.jpg,0,0,122,1,unchosen,23,24,faces,body_parts,1900,0,4,1
95,46596,0,96,2,2,1,gain1,no_gain3,H,F,23,21,faces,faces,79,72,Stimuli/Experimental_stims/faces/rikonavt-HQjfrvdTfak-unsplash.jpg,Stimuli/Experimental_stims/faces/leilani-angel-K84vnnzxmTQ-unsplash.jpg,0,0,89,0,unchosen,21,23,faces,faces,1100,0,4,1
96,46596,0,97,2,2,1,gain3,no_gain3,J,F,20,21,faces,faces,65,72,Stimuli/Experimental_stims/faces/justin-chen-J7Cf1Gch49E-unsplash.jpg,Stimuli/Experimental_stims/faces/leilani-angel-K84vnnzxmTQ-unsplash.jpg,0,0,160,0,unchosen,21,20,faces,faces,2300,0,4,1
97,46596,0,98,2,2,0,no_gain5,gain1,K,H,46,2,objects,outdoor_scenes,73,68,Stimuli/Experimental_stims/objects/mockup-graphics-PNsj6RiHAF4-unsplash.jpg,Stimuli/Experimental_stims/outdoor_scenes/bruno-van-der-kraan-qez8mNJ3ilU-unsplash.jpg,0,0,16,1,chosen,2,46,outdoor_scenes,objects,2800,0,4,1
98,46596,0,99,2,2,0,no_gain5,gain5,K,C,24,27,body_parts,body_parts,72,66,Stimuli/Experimental_stims/body_parts/clay-banks-LjqARJaJotc-unsplash.jpg,Stimuli/Experimental_stims/body_parts/heike-mintel-i_Gns0ELnLw-unsplash.jpg,0,0,424,1,unchosen,27,24,body_parts,body_parts,3200,1,4,1
99,46596,0,100,2,2,1,gain5,no_gain1,C,D,3,45,outdoor_scenes,objects,77,67,Stimuli/Experimental_stims/outdoor_scenes/henry-be-NLF6hTe4PAg-unsplash.jpg,Stimuli/Experimental_stims/objects/leohoho-rngTKHXumy0-unsplash.jpg,0,0,223,0,chosen,45,3,objects,outdoor_scenes,2000,0,4,1
100,46596,0,101,2,2,0,no_gain2,gain6,G,E,8,34,outdoor_scenes,body_parts,73,69,Stimuli/Experimental_stims/outdoor_scenes/samsommer-vddccTqwal8-unsplash.jpg,Stimuli/Experimental_stims/body_parts/wagner-santos-mBWMvIuVnso-unsplash.jpg,0,0,3,1,chosen,34,8,body_parts,outdoor_scenes,2500,0,4,1
101,46596,0,102,2,2,1,gain3,no_gain5,J,K,20,24,faces,body_parts,65,72,Stimuli/Experimental_stims/faces/justin-chen-J7Cf1Gch49E-unsplash.jpg,Stimuli/Experimental_stims/body_parts/clay-banks-LjqARJaJotc-unsplash.jpg,0,1,238,1,unchosen,20,24,faces,body_parts,1300,0,4,1
102,46596,0,103,2,2,1,gain6,no_gain3,E,F,42,21,objects,faces,70,72,Stimuli/Experimental_stims/objects/jess-bailey-nOeVi8DsN8U-unsplash.jpg,Stimuli/Experimental_stims/faces/leilani-angel-K84vnnzxmTQ-unsplash.jpg,0,0,41,0,unchosen,21,42,faces,objects,1300,0,4,1
103,46596,0,104,2,2,1,gain4,no_gain4,B,L,5,26,outdoor_scenes,body_parts,66,81,Stimuli/Experimental_stims/outdoor_scenes/jeff-king-bJHWJeiHfHc-unsplash.jpg,Stimuli/Experimental_stims/body_parts/engin-akyurt-x_3gyC42btc-unsplash.jpg,0,0,206,0,unchosen,26,5,body_parts,outdoor_scenes,4500,1,4,1
104,46596,0,105,2,2,1,gain6,no_gain1,E,D,34,45,body_parts,objects,69,67,Stimuli/Experimental_stims/body_parts/wagner-santos-mBWMvIuVnso-unsplash.jpg,Stimuli/Experimental_stims/objects/leohoho-rngTKHXumy0-unsplash.jpg,0,0,139,0,chosen,45,34,objects,body_parts,1400,0,4,1
105,46596,0,106,2,2,1,gain2,no_gain6,A,I,11,29,outdoor_scenes,body_parts,88,73,Stimuli/Experimental_stims/outdoor_scenes/stephen-leonardi-gyIRjKPXupE-unsplash.jpg,Stimuli/Experimental_stims/body_parts/manuel-schinner-ZwjFuJ7ebpk-unsplash.jpg,0,0,23,0,unchosen,29,11,body_parts,outdoor_scenes,2600,0,4,1
106,46596,0,107,2,2,1,gain4,no_gain4,B,L,12,15,faces,faces,73,61,Stimuli/Experimental_stims/faces/aiony-haust-jmATI5Q_YgY-unsplash.jpg,Stimuli/Experimental_stims/faces/erik-lucatero-d2MSDujJl2g-unsplash.jpg,0,0,105,0,chosen,15,12,faces,faces,2100,0,4,1
107,46596,0,108,2,2,0,no_gain6,gain6,I,E,29,42,body_parts,objects,73,70,Stimuli/Experimental_stims/body_parts/manuel-schinner-ZwjFuJ7ebpk-unsplash.jpg,Stimuli/Experimental_stims/objects/jess-bailey-nOeVi8DsN8U-unsplash.jpg,0,0,23,1,unchosen,42,29,objects,body_parts,2100,0,4,1
108,46596,0,109,2,2,1,gain4,no_gain3,B,F,5,21,outdoor_scenes,faces,66,72,Stimuli/Experimental_stims/outdoor_scenes/jeff-king-bJHWJeiHfHc-unsplash.jpg,Stimuli/Experimental_stims/faces/leilani-angel-K84vnnzxmTQ-unsplash.jpg,0,0,93,0,unchosen,21,5,faces,outdoor_scenes,2600,0,4,1
109,46596,0,110,2,2,0,no_gain1,gain1,D,H,45,2,objects,outdoor_scenes,67,68,Stimuli/Experimental_stims/objects/leohoho-rngTKHXumy0-unsplash.jpg,Stimuli/Experimental_stims/outdoor_scenes/bruno-van-der-kraan-qez8mNJ3ilU-unsplash.jpg,0,0,175,1,chosen,2,45,outdoor_scenes,objects,3000,1,4,1
110,46596,0,111,2,2,1,gain2,no_gain4,A,L,39,15,objects,faces,67,61,Stimuli/Experimental_stims/objects/charlesdeluvio-1-nx1QR5dTE-unsplash.jpg,Stimuli/Experimental_stims/faces/erik-lucatero-d2MSDujJl2g-unsplash.jpg,0,0,200,0,chosen,15,39,faces,objects,1100,0,4,1
111,46596,0,112,2,2,0,no_gain1,gain3,D,J,13,20,faces,faces,40,65,Stimuli/Experimental_stims/faces/daniel-rigdon-dXmXKPP2L4E-unsplash.jpg,Stimuli/Experimental_stims/faces/justin-chen-J7Cf1Gch49E-unsplash.jpg,0,0,246,1,unchosen,20,13,faces,faces,1000,0,4,1
112,46596,0,113,2,2,1,gain5,no_gain1,C,D,27,13,body_parts,faces,66,40,Stimuli/Experimental_stims/body_parts/heike-mintel-i_Gns0ELnLw-unsplash.jpg,Stimuli/Experimental_stims/faces/daniel-rigdon-dXmXKPP2L4E-unsplash.jpg,0,0,100,0,unchosen,13,27,faces,body_parts,1300,0,4,1
113,46596,0,114,2,2,1,gain3,no_gain6,J,I,38,9,objects,outdoor_scenes,82,69,Stimuli/Experimental_stims/objects/art-lasovsky-8XddFc6NkBY-unsplash.jpg,Stimuli/Experimental_stims/outdoor_scenes/sergey-pesterev-y-b_FOmJXdg-unsplash.jpg,0,0,195,0,chosen,9,38,outdoor_scenes,objects,1000,0,4,1
114,46596,0,115,2,2,0,no_gain1,gain1,D,H,13,23,faces,faces,40,79,Stimuli/Experimental_stims/faces/daniel-rigdon-dXmXKPP2L4E-unsplash.jpg,Stimuli/Experimental_stims/faces/rikonavt-HQjfrvdTfak-unsplash.jpg,0,0,253,1,unchosen,23,13,faces,faces,1200,0,4,1
115,46596,0,116,2,2,0,no_gain5,gain3,K,J,46,38,objects,objects,73,82,Stimuli/Experimental_stims/objects/mockup-graphics-PNsj6RiHAF4-unsplash.jpg,Stimuli/Experimental_stims/objects/art-lasovsky-8XddFc6NkBY-unsplash.jpg,0,0,107,1,chosen,38,46,objects,objects,1800,0,4,1
116,46596,0,117,2,2,1,gain5,no_gain2,C,G,27,41,body_parts,objects,66,68,Stimuli/Experimental_stims/body_parts/heike-mintel-i_Gns0ELnLw-unsplash.jpg,Stimuli/Experimental_stims/objects/insung-yoon-w2JtIQQXoRU-unsplash.jpg,0,0,27,0,unchosen,41,27,objects,body_parts,2300,0,4,1
117,46596,0,118,2,2,1,gain4,no_gain1,B,D,12,45,faces,objects,73,67,Stimuli/Experimental_stims/faces/aiony-haust-jmATI5Q_YgY-unsplash.jpg,Stimuli/Experimental_stims/objects/leohoho-rngTKHXumy0-unsplash.jpg,0,1,71,1,chosen,12,45,faces,objects,3500,1,4,1
118,46596,0,119,2,2,0,no_gain2,gain6,G,E,41,42,objects,objects,68,70,Stimuli/Experimental_stims/objects/insung-yoon-w2JtIQQXoRU-unsplash.jpg,Stimuli/Experimental_stims/objects/jess-bailey-nOeVi8DsN8U-unsplash.jpg,0,1,155,0,unchosen,41,42,objects,objects,1300,0,4,1
119,46596,0,120,2,2,0,no_gain2,gain5,G,C,8,3,outdoor_scenes,outdoor_scenes,73,77,Stimuli/Experimental_stims/outdoor_scenes/samsommer-vddccTqwal8-unsplash.jpg,Stimuli/Experimental_stims/outdoor_scenes/henry-be-NLF6hTe4PAg-unsplash.jpg,0,0,203,1,chosen,3,8,outdoor_scenes,outdoor_scenes,1400,0,4,1
120,46596,0,121,2,2,1,gain3,no_gain3,J,F,38,33,objects,body_parts,82,63,Stimuli/Experimental_stims/objects/art-lasovsky-8XddFc6NkBY-unsplash.jpg,Stimuli/Experimental_stims/body_parts/tucker-good-36skLT5jZcc-unsplash.jpg,0,0,102,0,chosen,33,38,body_parts,objects,1300,0,4,1
121,46596,0,122,2,2,1,gain6,no_gain1,E,D,42,13,objects,faces,70,40,Stimuli/Experimental_stims/objects/jess-bailey-nOeVi8DsN8U-unsplash.jpg,Stimuli/Experimental_stims/faces/daniel-rigdon-dXmXKPP2L4E-unsplash.jpg,0,0,158,0,unchosen,13,42,faces,objects,2800,0,4,1
122,46596,0,123,2,2,1,gain5,no_gain6,C,I,27,29,body_parts,body_parts,66,73,Stimuli/Experimental_stims/body_parts/heike-mintel-i_Gns0ELnLw-unsplash.jpg,Stimuli/Experimental_stims/body_parts/manuel-schinner-ZwjFuJ7ebpk-unsplash.jpg,0,1,71,1,unchosen,27,29,body_parts,body_parts,1800,0,4,1
123,46596,0,124,2,2,0,no_gain2,gain4,G,B,41,5,objects,outdoor_scenes,68,66,Stimuli/Experimental_stims/objects/insung-yoon-w2JtIQQXoRU-unsplash.jpg,Stimuli/Experimental_stims/outdoor_scenes/jeff-king-bJHWJeiHfHc-unsplash.jpg,0,0,188,1,unchosen,5,41,outdoor_scenes,objects,1200,0,4,1
124,46596,0,125,2,2,0,no_gain3,gain4,F,B,33,12,body_parts,faces,63,73,Stimuli/Experimental_stims/body_parts/tucker-good-36skLT5jZcc-unsplash.jpg,Stimuli/Experimental_stims/faces/aiony-haust-jmATI5Q_YgY-unsplash.jpg,0,0,103,1,chosen,12,33,faces,body_parts,1000,0,4,1
125,46596,0,126,2,2,1,gain3,no_gain4,J,L,20,26,faces,body_parts,65,81,Stimuli/Experimental_stims/faces/justin-chen-J7Cf1Gch49E-unsplash.jpg,Stimuli/Experimental_stims/body_parts/engin-akyurt-x_3gyC42btc-unsplash.jpg,0,0,165,0,unchosen,26,20,body_parts,faces,1600,0,4,1
126,46596,0,127,2,2,0,no_gain2,gain4,G,B,8,12,outdoor_scenes,faces,73,73,Stimuli/Experimental_stims/outdoor_scenes/samsommer-vddccTqwal8-unsplash.jpg,Stimuli/Experimental_stims/faces/aiony-haust-jmATI5Q_YgY-unsplash.jpg,0,0,143,1,chosen,12,8,faces,outdoor_scenes,1500,0,4,1
127,46596,0,128,2,2,0,no_gain5,gain2,K,A,46,39,objects,objects,73,67,Stimuli/Experimental_stims/objects/mockup-graphics-PNsj6RiHAF4-unsplash.jpg,Stimuli/Experimental_stims/objects/charlesdeluvio-1-nx1QR5dTE-unsplash.jpg,0,0,83,1,chosen,39,46,objects,objects,3300,1,4,1
128,46596,0,129,2,2,0,no_gain4,gain1,L,H,15,2,faces,outdoor_scenes,61,68,Stimuli/Experimental_stims/faces/erik-lucatero-d2MSDujJl2g-unsplash.jpg,Stimuli/Experimental_stims/outdoor_scenes/bruno-van-der-kraan-qez8mNJ3ilU-unsplash.jpg,0,0,171,1,chosen,2,15,outdoor_scenes,faces,2200,0,4,1
129,46596,0,130,2,2,0,no_gain5,gain6,K,E,24,42,body_parts,objects,72,70,Stimuli/Experimental_stims/body_parts/clay-banks-LjqARJaJotc-unsplash.jpg,Stimuli/Experimental_stims/objects/jess-bailey-nOeVi8DsN8U-unsplash.jpg,0,0,18,1,unchosen,42,24,objects,body_parts,2400,0,4,1
130,46596,0,131,2,2,1,gain2,no_gain3,A,F,39,33,objects,body_parts,67,63,Stimuli/Experimental_stims/objects/charlesdeluvio-1-nx1QR5dTE-unsplash.jpg,Stimuli/Experimental_stims/body_parts/tucker-good-36skLT5jZcc-unsplash.jpg,0,0,47,0,chosen,33,39,body_parts,objects,1300,0,4,1
131,46596,0,132,2,2,1,gain6,no_gain4,E,L,42,26,objects,body_parts,70,81,Stimuli/Experimental_stims/objects/jess-bailey-nOeVi8DsN8U-unsplash.jpg,Stimuli/Experimental_stims/body_parts/engin-akyurt-x_3gyC42btc-unsplash.jpg,0,1,253,1,unchosen,42,26,objects,body_parts,2400,0,4,1
132,46596,0,133,2,2,0,no_gain1,gain4,D,B,13,5,faces,outdoor_scenes,40,66,Stimuli/Experimental_stims/faces/daniel-rigdon-dXmXKPP2L4E-unsplash.jpg,Stimuli/Experimental_stims/outdoor_scenes/jeff-king-bJHWJeiHfHc-unsplash.jpg,0,0,182,1,unchosen,5,13,outdoor_scenes,faces,2200,0,4,1
133,46596,0,134,2,2,0,no_gain6,gain4,I,B,9,12,outdoor_scenes,faces,69,73,Stimuli/Experimental_stims/outdoor_scenes/sergey-pesterev-y-b_FOmJXdg-unsplash.jpg,Stimuli/Experimental_stims/faces/aiony-haust-jmATI5Q_YgY-unsplash.jpg,0,0,133,1,chosen,12,9,faces,outdoor_scenes,2900,1,4,1
134,46596,0,135,2,2,1,gain1,no_gain6,H,I,2,9,outdoor_scenes,outdoor_scenes,68,69,Stimuli/Experimental_stims/outdoor_scenes/bruno-van-der-kraan-qez8mNJ3ilU-unsplash.jpg,Stimuli/Experimental_stims/outdoor_scenes/sergey-pesterev-y-b_FOmJXdg-unsplash.jpg,0,0,109,0,chosen,9,2,outdoor_scenes,outdoor_scenes,1900,0,4,1
135,46596,0,136,2,2,0,no_gain1,gain2,D,A,13,11,faces,outdoor_scenes,40,88,Stimuli/Experimental_stims/faces/daniel-rigdon-dXmXKPP2L4E-unsplash.jpg,Stimuli/Experimental_stims/outdoor_scenes/stephen-leonardi-gyIRjKPXupE-unsplash.jpg,0,1,10,0,unchosen,13,11,faces,outdoor_scenes,1700,0,4,1
136,46596,0,137,2,2,0,no_gain4,gain2,L,A,26,11,body_parts,outdoor_scenes,81,88,Stimuli/Experimental_stims/body_parts/engin-akyurt-x_3gyC42btc-unsplash.jpg,Stimuli/Experimental_stims/outdoor_scenes/stephen-leonardi-gyIRjKPXupE-unsplash.jpg,0,0,71,1,unchosen,11,26,outdoor_scenes,body_parts,1900,0,4,1
137,46596,0,138,2,2,1,gain6,no_gain6,E,I,34,9,body_parts,outdoor_scenes,69,69,Stimuli/Experimental_stims/body_parts/wagner-santos-mBWMvIuVnso-unsplash.jpg,Stimuli/Experimental_stims/outdoor_scenes/sergey-pesterev-y-b_FOmJXdg-unsplash.jpg,0,0,23,0,chosen,9,34,outdoor_scenes,body_parts,1700,0,4,1
138,46596,0,139,2,2,0,no_gain3,gain2,F,A,21,11,faces,outdoor_scenes,72,88,Stimuli/Experimental_stims/faces/leilani-angel-K84vnnzxmTQ-unsplash.jpg,Stimuli/Experimental_stims/outdoor_scenes/stephen-leonardi-gyIRjKPXupE-unsplash.jpg,0,0,145,1,unchosen,11,21,outdoor_scenes,faces,1300,0,4,1
139,46596,0,140,2,2,1,gain5,no_gain4,C,L,27,26,body_parts,body_parts,66,81,Stimuli/Experimental_stims/body_parts/heike-mintel-i_Gns0ELnLw-unsplash.jpg,Stimuli/Experimental_stims/body_parts/engin-akyurt-x_3gyC42btc-unsplash.jpg,0,0,113,0,unchosen,26,27,body_parts,body_parts,3600,1,4,1
140,46596,0,141,2,2,1,gain5,no_gain4,C,L,3,15,outdoor_scenes,faces,77,61,Stimuli/Experimental_stims/outdoor_scenes/henry-be-NLF6hTe4PAg-unsplash.jpg,Stimuli/Experimental_stims/faces/erik-lucatero-d2MSDujJl2g-unsplash.jpg,0,1,172,1,chosen,3,15,outdoor_scenes,faces,1700,0,4,1
141,46596,0,142,2,2,0,no_gain6,gain2,I,A,9,39,outdoor_scenes,objects,69,67,Stimuli/Experimental_stims/outdoor_scenes/sergey-pesterev-y-b_FOmJXdg-unsplash.jpg,Stimuli/Experimental_stims/objects/charlesdeluvio-1-nx1QR5dTE-unsplash.jpg,0,0,109,1,chosen,39,9,objects,outdoor_scenes,1900,0,4,1
142,46596,0,143,2,2,0,no_gain2,gain1,G,H,8,2,outdoor_scenes,outdoor_scenes,73,68,Stimuli/Experimental_stims/outdoor_scenes/samsommer-vddccTqwal8-unsplash.jpg,Stimuli/Experimental_stims/outdoor_scenes/bruno-van-der-kraan-qez8mNJ3ilU-unsplash.jpg,0,0,7,1,chosen,2,8,outdoor_scenes,outdoor_scenes,2200,0,4,1
143,46596,0,144,2,2,0,no_gain3,gain5,F,C,21,27,faces,body_parts,72,66,Stimuli/Experimental_stims/faces/leilani-angel-K84vnnzxmTQ-unsplash.jpg,Stimuli/Experimental_stims/body_parts/heike-mintel-i_Gns0ELnLw-unsplash.jpg,0,0,27,1,unchosen,27,21,body_parts,faces,1800,0,4,1
144,46596,0,145,2,2,0,no_gain6,gain3,I,J,29,20,body_parts,faces,73,65,Stimuli/Experimental_stims/body_parts/manuel-schinner-ZwjFuJ7ebpk-unsplash.jpg,Stimuli/Experimental_stims/faces/justin-chen-J7Cf1Gch49E-unsplash.jpg,0,0,200,1,unchosen,20,29,faces,body_parts,1400,0,4,1
145,46596,0,146,2,2,0,no_gain2,gain3,G,J,8,38,outdoor_scenes,objects,73,82,Stimuli/Experimental_stims/outdoor_scenes/samsommer-vddccTqwal8-unsplash.jpg,Stimuli/Experimental_stims/objects/art-lasovsky-8XddFc6NkBY-unsplash.jpg,0,0,38,1,chosen,38,8,objects,outdoor_scenes,1800,0,4,1
146,46596,0,147,2,2,1,gain3,no_gain2,J,G,20,41,faces,objects,65,68,Stimuli/Experimental_stims/faces/justin-chen-J7Cf1Gch49E-unsplash.jpg,Stimuli/Experimental_stims/objects/insung-yoon-w2JtIQQXoRU-unsplash.jpg,0,0,150,0,unchosen,41,20,objects,faces,1300,0,4,1
147,46596,0,148,2,2,1,gain1,no_gain6,H,I,23,29,faces,body_parts,79,73,Stimuli/Experimental_stims/faces/rikonavt-HQjfrvdTfak-unsplash.jpg,Stimuli/Experimental_stims/body_parts/manuel-schinner-ZwjFuJ7ebpk-unsplash.jpg,0,0,76,0,unchosen,29,23,body_parts,faces,3600,1,4,1
148,46596,0,149,3,3,1,gain3,no_gain6,J,I,20,29,faces,body_parts,65,73,Stimuli/Experimental_stims/faces/justin-chen-J7Cf1Gch49E-unsplash.jpg,Stimuli/Experimental_stims/body_parts/manuel-schinner-ZwjFuJ7ebpk-unsplash.jpg,1,NaN,,NaN,unchosen,NaN,NaN,NaN,NaN,1200,0,5,1
149,46596,0,150,3,3,1,gain3,no_gain3,J,F,38,33,objects,body_parts,82,63,Stimuli/Experimental_stims/objects/art-lasovsky-8XddFc6NkBY-unsplash.jpg,Stimuli/Experimental_stims/body_parts/tucker-good-36skLT5jZcc-unsplash.jpg,0,0,173,0,chosen,33,38,body_parts,objects,1100,0,5,1
150,46596,0,151,3,3,1,gain1,no_gain4,H,L,2,15,outdoor_scenes,faces,68,61,Stimuli/Experimental_stims/outdoor_scenes/bruno-van-der-kraan-qez8mNJ3ilU-unsplash.jpg,Stimuli/Experimental_stims/faces/erik-lucatero-d2MSDujJl2g-unsplash.jpg,0,0,3,0,chosen,15,2,faces,outdoor_scenes,1100,0,5,1
151,46596,0,152,3,3,1,gain5,no_gain6,C,I,27,29,body_parts,body_parts,66,73,Stimuli/Experimental_stims/body_parts/heike-mintel-i_Gns0ELnLw-unsplash.jpg,Stimuli/Experimental_stims/body_parts/manuel-schinner-ZwjFuJ7ebpk-unsplash.jpg,0,0,194,0,unchosen,29,27,body_parts,body_parts,1300,0,5,1
152,46596,0,153,3,3,1,gain2,no_gain6,A,I,39,9,objects,outdoor_scenes,67,69,Stimuli/Experimental_stims/objects/charlesdeluvio-1-nx1QR5dTE-unsplash.jpg,Stimuli/Experimental_stims/outdoor_scenes/sergey-pesterev-y-b_FOmJXdg-unsplash.jpg,0,1,37,1,chosen,39,9,objects,outdoor_scenes,3300,1,5,1
153,46596,0,154,3,3,1,gain6,no_gain6,E,I,34,9,body_parts,outdoor_scenes,69,69,Stimuli/Experimental_stims/body_parts/wagner-santos-mBWMvIuVnso-unsplash.jpg,Stimuli/Experimental_stims/outdoor_scenes/sergey-pesterev-y-b_FOmJXdg-unsplash.jpg,0,0,113,0,chosen,9,34,outdoor_scenes,body_parts,1000,0,5,1
154,46596,0,155,3,3,1,gain1,no_gain2,H,G,23,41,faces,objects,79,68,Stimuli/Experimental_stims/faces/rikonavt-HQjfrvdTfak-unsplash.jpg,Stimuli/Experimental_stims/objects/insung-yoon-w2JtIQQXoRU-unsplash.jpg,0,0,15,0,unchosen,41,23,objects,faces,1300,0,5,1
155,46596,0,156,3,3,0,no_gain4,gain3,L,J,15,38,faces,objects,61,82,Stimuli/Experimental_stims/faces/erik-lucatero-d2MSDujJl2g-unsplash.jpg,Stimuli/Experimental_stims/objects/art-lasovsky-8XddFc6NkBY-unsplash.jpg,0,0,1,1,chosen,38,15,objects,faces,1300,0,5,1
156,46596,0,157,3,3,0,no_gain4,gain4,L,B,15,12,faces,faces,61,73,Stimuli/Experimental_stims/faces/erik-lucatero-d2MSDujJl2g-unsplash.jpg,Stimuli/Experimental_stims/faces/aiony-haust-jmATI5Q_YgY-unsplash.jpg,0,0,35,1,chosen,12,15,faces,faces,1600,0,5,1
157,46596,0,158,3,3,1,gain6,no_gain3,E,F,34,33,body_parts,body_parts,69,63,Stimuli/Experimental_stims/body_parts/wagner-santos-mBWMvIuVnso-unsplash.jpg,Stimuli/Experimental_stims/body_parts/tucker-good-36skLT5jZcc-unsplash.jpg,0,0,188,0,chosen,33,34,body_parts,body_parts,1400,0,5,1
158,46596,0,159,3,3,0,no_gain1,gain2,D,A,13,11,faces,outdoor_scenes,40,88,Stimuli/Experimental_stims/faces/daniel-rigdon-dXmXKPP2L4E-unsplash.jpg,Stimuli/Experimental_stims/outdoor_scenes/stephen-leonardi-gyIRjKPXupE-unsplash.jpg,0,0,199,1,unchosen,11,13,outdoor_scenes,faces,2100,0,5,1
159,46596,0,160,3,3,0,no_gain4,gain3,L,J,26,20,body_parts,faces,81,65,Stimuli/Experimental_stims/body_parts/engin-akyurt-x_3gyC42btc-unsplash.jpg,Stimuli/Experimental_stims/faces/justin-chen-J7Cf1Gch49E-unsplash.jpg,0,0,160,1,unchosen,20,26,faces,body_parts,1200,0,5,1
160,46596,0,161,3,3,0,no_gain1,gain3,D,J,45,38,objects,objects,67,82,Stimuli/Experimental_stims/objects/leohoho-rngTKHXumy0-unsplash.jpg,Stimuli/Experimental_stims/objects/art-lasovsky-8XddFc6NkBY-unsplash.jpg,0,0,95,1,chosen,38,45,objects,objects,4100,1,5,1
161,46596,0,162,3,3,0,no_gain1,gain4,D,B,13,5,faces,outdoor_scenes,40,66,Stimuli/Experimental_stims/faces/daniel-rigdon-dXmXKPP2L4E-unsplash.jpg,Stimuli/Experimental_stims/outdoor_scenes/jeff-king-bJHWJeiHfHc-unsplash.jpg,0,1,58,0,unchosen,13,5,faces,outdoor_scenes,1900,0,5,1
162,46596,0,163,3,3,1,gain5,no_gain5,C,K,3,46,outdoor_scenes,objects,77,73,Stimuli/Experimental_stims/outdoor_scenes/henry-be-NLF6hTe4PAg-unsplash.jpg,Stimuli/Experimental_stims/objects/mockup-graphics-PNsj6RiHAF4-unsplash.jpg,0,0,41,0,chosen,46,3,objects,outdoor_scenes,2000,0,5,1
163,46596,0,164,3,3,0,no_gain2,gain5,G,C,41,27,objects,body_parts,68,66,Stimuli/Experimental_stims/objects/insung-yoon-w2JtIQQXoRU-unsplash.jpg,Stimuli/Experimental_stims/body_parts/heike-mintel-i_Gns0ELnLw-unsplash.jpg,0,0,44,1,unchosen,27,41,body_parts,objects,2600,0,5,1
164,46596,0,165,3,3,1,gain1,no_gain4,H,L,23,26,faces,body_parts,79,81,Stimuli/Experimental_stims/faces/rikonavt-HQjfrvdTfak-unsplash.jpg,Stimuli/Experimental_stims/body_parts/engin-akyurt-x_3gyC42btc-unsplash.jpg,0,0,181,0,unchosen,26,23,body_parts,faces,1100,0,5,1
165,46596,0,166,3,3,0,no_gain4,gain5,L,C,15,3,faces,outdoor_scenes,61,77,Stimuli/Experimental_stims/faces/erik-lucatero-d2MSDujJl2g-unsplash.jpg,Stimuli/Experimental_stims/outdoor_scenes/henry-be-NLF6hTe4PAg-unsplash.jpg,0,0,235,1,chosen,3,15,outdoor_scenes,faces,4400,1,5,1
166,46596,0,167,3,3,0,no_gain5,gain4,K,B,24,5,body_parts,outdoor_scenes,72,66,Stimuli/Experimental_stims/body_parts/clay-banks-LjqARJaJotc-unsplash.jpg,Stimuli/Experimental_stims/outdoor_scenes/jeff-king-bJHWJeiHfHc-unsplash.jpg,0,0,139,1,unchosen,5,24,outdoor_scenes,body_parts,1200,0,5,1
167,46596,0,168,3,3,0,no_gain5,gain6,K,E,46,34,objects,body_parts,73,69,Stimuli/Experimental_stims/objects/mockup-graphics-PNsj6RiHAF4-unsplash.jpg,Stimuli/Experimental_stims/body_parts/wagner-santos-mBWMvIuVnso-unsplash.jpg,0,0,257,1,chosen,34,46,body_parts,objects,1100,0,5,1
168,46596,0,169,3,3,1,gain1,no_gain6,H,I,23,29,faces,body_parts,79,73,Stimuli/Experimental_stims/faces/rikonavt-HQjfrvdTfak-unsplash.jpg,Stimuli/Experimental_stims/body_parts/manuel-schinner-ZwjFuJ7ebpk-unsplash.jpg,0,0,142,0,unchosen,29,23,body_parts,faces,1700,0,5,1
169,46596,0,170,3,3,1,gain2,no_gain2,A,G,39,8,objects,outdoor_scenes,67,73,Stimuli/Experimental_stims/objects/charlesdeluvio-1-nx1QR5dTE-unsplash.jpg,Stimuli/Experimental_stims/outdoor_scenes/samsommer-vddccTqwal8-unsplash.jpg,0,0,66,0,chosen,8,39,outdoor_scenes,objects,1100,0,5,1
170,46596,0,171,3,3,0,no_gain2,gain4,G,B,41,5,objects,outdoor_scenes,68,66,Stimuli/Experimental_stims/objects/insung-yoon-w2JtIQQXoRU-unsplash.jpg,Stimuli/Experimental_stims/outdoor_scenes/jeff-king-bJHWJeiHfHc-unsplash.jpg,0,0,83,1,unchosen,5,41,outdoor_scenes,objects,3300,1,5,1
171,46596,0,172,3,3,0,no_gain3,gain2,F,A,33,39,body_parts,objects,63,67,Stimuli/Experimental_stims/body_parts/tucker-good-36skLT5jZcc-unsplash.jpg,Stimuli/Experimental_stims/objects/charlesdeluvio-1-nx1QR5dTE-unsplash.jpg,0,0,38,1,chosen,39,33,objects,body_parts,2800,0,5,1
172,46596,0,173,3,3,0,no_gain4,gain2,L,A,15,39,faces,objects,61,67,Stimuli/Experimental_stims/faces/erik-lucatero-d2MSDujJl2g-unsplash.jpg,Stimuli/Experimental_stims/objects/charlesdeluvio-1-nx1QR5dTE-unsplash.jpg,0,1,182,0,chosen,15,39,faces,objects,1000,0,5,1
173,46596,0,174,3,3,0,no_gain1,gain6,D,E,13,42,faces,objects,40,70,Stimuli/Experimental_stims/faces/daniel-rigdon-dXmXKPP2L4E-unsplash.jpg,Stimuli/Experimental_stims/objects/jess-bailey-nOeVi8DsN8U-unsplash.jpg,0,0,222,1,unchosen,42,13,objects,faces,3100,0,5,1
174,46596,0,175,3,3,1,gain4,no_gain1,B,D,12,45,faces,objects,73,67,Stimuli/Experimental_stims/faces/aiony-haust-jmATI5Q_YgY-unsplash.jpg,Stimuli/Experimental_stims/objects/leohoho-rngTKHXumy0-unsplash.jpg,0,0,216,0,chosen,45,12,objects,faces,2000,0,5,1
175,46596,0,176,3,3,0,no_gain6,gain6,I,E,29,42,body_parts,objects,73,70,Stimuli/Experimental_stims/body_parts/manuel-schinner-ZwjFuJ7ebpk-unsplash.jpg,Stimuli/Experimental_stims/objects/jess-bailey-nOeVi8DsN8U-unsplash.jpg,0,1,21,0,unchosen,29,42,body_parts,objects,2300,0,5,1
176,46596,0,177,3,3,0,no_gain2,gain5,G,C,8,3,outdoor_scenes,outdoor_scenes,73,77,Stimuli/Experimental_stims/outdoor_scenes/samsommer-vddccTqwal8-unsplash.jpg,Stimuli/Experimental_stims/outdoor_scenes/henry-be-NLF6hTe4PAg-unsplash.jpg,0,1,30,0,chosen,8,3,outdoor_scenes,outdoor_scenes,1500,0,5,1
177,46596,0,178,3,3,0,no_gain5,gain2,K,A,24,11,body_parts,outdoor_scenes,72,88,Stimuli/Experimental_stims/body_parts/clay-banks-LjqARJaJotc-unsplash.jpg,Stimuli/Experimental_stims/outdoor_scenes/stephen-leonardi-gyIRjKPXupE-unsplash.jpg,0,1,112,0,unchosen,24,11,body_parts,outdoor_scenes,1600,0,5,1
178,46596,0,179,3,3,1,gain6,no_gain1,E,D,34,45,body_parts,objects,69,67,Stimuli/Experimental_stims/body_parts/wagner-santos-mBWMvIuVnso-unsplash.jpg,Stimuli/Experimental_stims/objects/leohoho-rngTKHXumy0-unsplash.jpg,0,0,56,0,chosen,45,34,objects,body_parts,4200,1,5,1
179,46596,0,180,3,3,0,no_gain5,gain4,K,B,46,12,objects,faces,73,73,Stimuli/Experimental_stims/objects/mockup-graphics-PNsj6RiHAF4-unsplash.jpg,Stimuli/Experimental_stims/faces/aiony-haust-jmATI5Q_YgY-unsplash.jpg,0,0,69,1,chosen,12,46,faces,objects,1000,0,5,1
180,46596,0,181,3,3,0,no_gain6,gain3,I,J,9,38,outdoor_scenes,objects,69,82,Stimuli/Experimental_stims/outdoor_scenes/sergey-pesterev-y-b_FOmJXdg-unsplash.jpg,Stimuli/Experimental_stims/objects/art-lasovsky-8XddFc6NkBY-unsplash.jpg,0,0,118,1,chosen,38,9,objects,outdoor_scenes,2000,0,5,1
181,46596,0,182,3,3,1,gain4,no_gain3,B,F,5,21,outdoor_scenes,faces,66,72,Stimuli/Experimental_stims/outdoor_scenes/jeff-king-bJHWJeiHfHc-unsplash.jpg,Stimuli/Experimental_stims/faces/leilani-angel-K84vnnzxmTQ-unsplash.jpg,0,0,140,0,unchosen,21,5,faces,outdoor_scenes,1700,0,5,1
182,46596,0,183,3,3,1,gain2,no_gain6,A,I,11,29,outdoor_scenes,body_parts,88,73,Stimuli/Experimental_stims/outdoor_scenes/stephen-leonardi-gyIRjKPXupE-unsplash.jpg,Stimuli/Experimental_stims/body_parts/manuel-schinner-ZwjFuJ7ebpk-unsplash.jpg,0,1,1,1,unchosen,11,29,outdoor_scenes,body_parts,2300,0,5,1
183,46596,0,184,3,3,1,gain4,no_gain4,B,L,5,26,outdoor_scenes,body_parts,66,81,Stimuli/Experimental_stims/outdoor_scenes/jeff-king-bJHWJeiHfHc-unsplash.jpg,Stimuli/Experimental_stims/body_parts/engin-akyurt-x_3gyC42btc-unsplash.jpg,0,1,20,1,unchosen,5,26,outdoor_scenes,body_parts,3300,1,5,1
184,46596,0,185,3,3,0,no_gain1,gain2,D,A,45,39,objects,objects,67,67,Stimuli/Experimental_stims/objects/leohoho-rngTKHXumy0-unsplash.jpg,Stimuli/Experimental_stims/objects/charlesdeluvio-1-nx1QR5dTE-unsplash.jpg,0,1,242,0,chosen,45,39,objects,objects,1100,0,5,1
185,46596,0,186,3,3,0,no_gain4,gain6,L,E,15,34,faces,body_parts,61,69,Stimuli/Experimental_stims/faces/erik-lucatero-d2MSDujJl2g-unsplash.jpg,Stimuli/Experimental_stims/body_parts/wagner-santos-mBWMvIuVnso-unsplash.jpg,0,1,5,0,chosen,15,34,faces,body_parts,1900,0,5,1
186,46596,0,187,3,3,1,gain3,no_gain5,J,K,38,46,objects,objects,82,73,Stimuli/Experimental_stims/objects/art-lasovsky-8XddFc6NkBY-unsplash.jpg,Stimuli/Experimental_stims/objects/mockup-graphics-PNsj6RiHAF4-unsplash.jpg,0,0,44,0,chosen,46,38,objects,objects,2400,0,5,1
187,46596,0,188,3,3,0,no_gain2,gain6,G,E,41,42,objects,objects,68,70,Stimuli/Experimental_stims/objects/insung-yoon-w2JtIQQXoRU-unsplash.jpg,Stimuli/Experimental_stims/objects/jess-bailey-nOeVi8DsN8U-unsplash.jpg,0,0,50,1,unchosen,42,41,objects,objects,1900,0,5,1
188,46596,0,189,3,3,0,no_gain1,gain1,D,H,13,23,faces,faces,40,79,Stimuli/Experimental_stims/faces/daniel-rigdon-dXmXKPP2L4E-unsplash.jpg,Stimuli/Experimental_stims/faces/rikonavt-HQjfrvdTfak-unsplash.jpg,0,1,42,0,unchosen,13,23,faces,faces,3300,1,5,1
189,46596,0,190,3,3,0,no_gain3,gain5,F,C,21,27,faces,body_parts,72,66,Stimuli/Experimental_stims/faces/leilani-angel-K84vnnzxmTQ-unsplash.jpg,Stimuli/Experimental_stims/body_parts/heike-mintel-i_Gns0ELnLw-unsplash.jpg,0,1,119,0,unchosen,21,27,faces,body_parts,1200,0,5,1
190,46596,0,191,3,3,1,gain1,no_gain1,H,D,2,45,outdoor_scenes,objects,68,67,Stimuli/Experimental_stims/outdoor_scenes/bruno-van-der-kraan-qez8mNJ3ilU-unsplash.jpg,Stimuli/Experimental_stims/objects/leohoho-rngTKHXumy0-unsplash.jpg,0,0,144,0,chosen,45,2,objects,outdoor_scenes,1100,0,5,1
191,46596,0,192,3,3,0,no_gain4,gain5,L,C,26,27,body_parts,body_parts,81,66,Stimuli/Experimental_stims/body_parts/engin-akyurt-x_3gyC42btc-unsplash.jpg,Stimuli/Experimental_stims/body_parts/heike-mintel-i_Gns0ELnLw-unsplash.jpg,0,0,159,1,unchosen,27,26,body_parts,body_parts,1400,0,5,1
192,46596,0,193,3,3,1,gain3,no_gain1,J,D,20,13,faces,faces,65,40,Stimuli/Experimental_stims/faces/justin-chen-J7Cf1Gch49E-unsplash.jpg,Stimuli/Experimental_stims/faces/daniel-rigdon-dXmXKPP2L4E-unsplash.jpg,0,0,28,0,unchosen,13,20,faces,faces,2600,0,5,1
193,46596,0,194,3,3,1,gain6,no_gain4,E,L,42,26,objects,body_parts,70,81,Stimuli/Experimental_stims/objects/jess-bailey-nOeVi8DsN8U-unsplash.jpg,Stimuli/Experimental_stims/body_parts/engin-akyurt-x_3gyC42btc-unsplash.jpg,0,0,37,0,unchosen,26,42,body_parts,objects,1100,0,5,1
194,46596,0,195,3,3,1,gain1,no_gain3,H,F,2,33,outdoor_scenes,body_parts,68,63,Stimuli/Experimental_stims/outdoor_scenes/bruno-van-der-kraan-qez8mNJ3ilU-unsplash.jpg,Stimuli/Experimental_stims/body_parts/tucker-good-36skLT5jZcc-unsplash.jpg,0,1,68,1,chosen,2,33,outdoor_scenes,body_parts,4100,1,5,1
195,46596,0,196,3,3,1,gain6,no_gain3,E,F,42,21,objects,faces,70,72,Stimuli/Experimental_stims/objects/jess-bailey-nOeVi8DsN8U-unsplash.jpg,Stimuli/Experimental_stims/faces/leilani-angel-K84vnnzxmTQ-unsplash.jpg,0,1,12,1,unchosen,42,21,objects,faces,1000,0,5,1
196,46596,0,197,3,3,0,no_gain3,gain4,F,B,33,12,body_parts,faces,63,73,Stimuli/Experimental_stims/body_parts/tucker-good-36skLT5jZcc-unsplash.jpg,Stimuli/Experimental_stims/faces/aiony-haust-jmATI5Q_YgY-unsplash.jpg,0,0,138,1,chosen,12,33,faces,body_parts,1800,0,5,1
197,46596,0,198,3,3,1,gain1,no_gain3,H,F,23,21,faces,faces,79,72,Stimuli/Experimental_stims/faces/rikonavt-HQjfrvdTfak-unsplash.jpg,Stimuli/Experimental_stims/faces/leilani-angel-K84vnnzxmTQ-unsplash.jpg,0,0,166,0,unchosen,21,23,faces,faces,1600,0,5,1
198,46596,0,199,3,3,1,gain4,no_gain6,B,I,5,29,outdoor_scenes,body_parts,66,73,Stimuli/Experimental_stims/outdoor_scenes/jeff-king-bJHWJeiHfHc-unsplash.jpg,Stimuli/Experimental_stims/body_parts/manuel-schinner-ZwjFuJ7ebpk-unsplash.jpg,0,1,405,1,unchosen,5,29,outdoor_scenes,body_parts,2100,0,5,1
199,46596,0,200,3,3,1,gain2,no_gain4,A,L,11,26,outdoor_scenes,body_parts,88,81,Stimuli/Experimental_stims/outdoor_scenes/stephen-leonardi-gyIRjKPXupE-unsplash.jpg,Stimuli/Experimental_stims/body_parts/engin-akyurt-x_3gyC42btc-unsplash.jpg,0,0,85,0,unchosen,26,11,body_parts,outdoor_scenes,1700,0,5,1
200,46596,0,201,3,3,1,gain5,no_gain3,C,F,3,33,outdoor_scenes,body_parts,77,63,Stimuli/Experimental_stims/outdoor_scenes/henry-be-NLF6hTe4PAg-unsplash.jpg,Stimuli/Experimental_stims/body_parts/tucker-good-36skLT5jZcc-unsplash.jpg,0,0,71,0,chosen,33,3,body_parts,outdoor_scenes,3200,1,5,1
201,46596,0,202,3,3,0,no_gain6,gain4,I,B,9,12,outdoor_scenes,faces,69,73,Stimuli/Experimental_stims/outdoor_scenes/sergey-pesterev-y-b_FOmJXdg-unsplash.jpg,Stimuli/Experimental_stims/faces/aiony-haust-jmATI5Q_YgY-unsplash.jpg,0,0,4,1,chosen,12,9,faces,outdoor_scenes,1100,0,5,1
202,46596,0,203,3,3,1,gain2,no_gain2,A,G,11,41,outdoor_scenes,objects,88,68,Stimuli/Experimental_stims/outdoor_scenes/stephen-leonardi-gyIRjKPXupE-unsplash.jpg,Stimuli/Experimental_stims/objects/insung-yoon-w2JtIQQXoRU-unsplash.jpg,0,1,11,1,unchosen,11,41,outdoor_scenes,objects,2800,0,5,1
203,46596,0,204,3,3,1,gain2,no_gain5,A,K,39,46,objects,objects,67,73,Stimuli/Experimental_stims/objects/charlesdeluvio-1-nx1QR5dTE-unsplash.jpg,Stimuli/Experimental_stims/objects/mockup-graphics-PNsj6RiHAF4-unsplash.jpg,0,1,2,1,chosen,39,46,objects,objects,1400,0,5,1
204,46596,0,205,3,3,1,gain1,no_gain2,H,G,2,8,outdoor_scenes,outdoor_scenes,68,73,Stimuli/Experimental_stims/outdoor_scenes/bruno-van-der-kraan-qez8mNJ3ilU-unsplash.jpg,Stimuli/Experimental_stims/outdoor_scenes/samsommer-vddccTqwal8-unsplash.jpg,0,0,222,0,chosen,8,2,outdoor_scenes,outdoor_scenes,2200,0,5,1
205,46596,0,206,3,3,1,gain3,no_gain3,J,F,20,21,faces,faces,65,72,Stimuli/Experimental_stims/faces/justin-chen-J7Cf1Gch49E-unsplash.jpg,Stimuli/Experimental_stims/faces/leilani-angel-K84vnnzxmTQ-unsplash.jpg,0,0,18,0,unchosen,21,20,faces,faces,1200,0,5,1
206,46596,0,207,3,3,0,no_gain6,gain5,I,C,9,3,outdoor_scenes,outdoor_scenes,69,77,Stimuli/Experimental_stims/outdoor_scenes/sergey-pesterev-y-b_FOmJXdg-unsplash.jpg,Stimuli/Experimental_stims/outdoor_scenes/henry-be-NLF6hTe4PAg-unsplash.jpg,0,0,165,1,chosen,3,9,outdoor_scenes,outdoor_scenes,2100,0,5,1
207,46596,0,208,3,3,1,gain1,no_gain5,H,K,2,46,outdoor_scenes,objects,68,73,Stimuli/Experimental_stims/outdoor_scenes/bruno-van-der-kraan-qez8mNJ3ilU-unsplash.jpg,Stimuli/Experimental_stims/objects/mockup-graphics-PNsj6RiHAF4-unsplash.jpg,0,1,184,1,chosen,2,46,outdoor_scenes,objects,2600,0,5,1
208,46596,0,209,3,3,0,no_gain2,gain3,G,J,41,20,objects,faces,68,65,Stimuli/Experimental_stims/objects/insung-yoon-w2JtIQQXoRU-unsplash.jpg,Stimuli/Experimental_stims/faces/justin-chen-J7Cf1Gch49E-unsplash.jpg,0,0,190,1,unchosen,20,41,faces,objects,3800,1,5,1
209,46596,0,210,3,3,0,no_gain6,gain1,I,H,9,2,outdoor_scenes,outdoor_scenes,69,68,Stimuli/Experimental_stims/outdoor_scenes/sergey-pesterev-y-b_FOmJXdg-unsplash.jpg,Stimuli/Experimental_stims/outdoor_scenes/bruno-van-der-kraan-qez8mNJ3ilU-unsplash.jpg,0,0,91,1,chosen,2,9,outdoor_scenes,outdoor_scenes,2300,0,5,1
210,46596,0,211,3,3,1,gain3,no_gain2,J,G,38,8,objects,outdoor_scenes,82,73,Stimuli/Experimental_stims/objects/art-lasovsky-8XddFc6NkBY-unsplash.jpg,Stimuli/Experimental_stims/outdoor_scenes/samsommer-vddccTqwal8-unsplash.jpg,0,0,238,0,chosen,8,38,outdoor_scenes,objects,1500,0,5,1
211,46596,0,212,3,3,0,no_gain3,gain2,F,A,21,11,faces,outdoor_scenes,72,88,Stimuli/Experimental_stims/faces/leilani-angel-K84vnnzxmTQ-unsplash.jpg,Stimuli/Experimental_stims/outdoor_scenes/stephen-leonardi-gyIRjKPXupE-unsplash.jpg,0,0,126,1,unchosen,11,21,outdoor_scenes,faces,1700,0,5,1
212,46596,0,213,3,3,1,gain5,no_gain5,C,K,27,24,body_parts,body_parts,66,72,Stimuli/Experimental_stims/body_parts/heike-mintel-i_Gns0ELnLw-unsplash.jpg,Stimuli/Experimental_stims/body_parts/clay-banks-LjqARJaJotc-unsplash.jpg,0,0,71,0,unchosen,24,27,body_parts,body_parts,1000,0,5,1
213,46596,0,214,3,3,1,gain6,no_gain5,E,K,42,24,objects,body_parts,70,72,Stimuli/Experimental_stims/objects/jess-bailey-nOeVi8DsN8U-unsplash.jpg,Stimuli/Experimental_stims/body_parts/clay-banks-LjqARJaJotc-unsplash.jpg,0,0,66,0,unchosen,24,42,body_parts,objects,2800,0,5,1
214,46596,0,215,3,3,0,no_gain1,gain5,D,C,45,3,objects,outdoor_scenes,67,77,Stimuli/Experimental_stims/objects/leohoho-rngTKHXumy0-unsplash.jpg,Stimuli/Experimental_stims/outdoor_scenes/henry-be-NLF6hTe4PAg-unsplash.jpg,0,1,25,0,chosen,45,3,objects,outdoor_scenes,2400,0,5,1
215,46596,0,216,3,3,0,no_gain1,gain5,D,C,13,27,faces,body_parts,40,66,Stimuli/Experimental_stims/faces/daniel-rigdon-dXmXKPP2L4E-unsplash.jpg,Stimuli/Experimental_stims/body_parts/heike-mintel-i_Gns0ELnLw-unsplash.jpg,0,0,121,1,unchosen,27,13,body_parts,faces,3800,1,5,1
216,46596,0,217,3,3,0,no_gain5,gain3,K,J,24,20,body_parts,faces,72,65,Stimuli/Experimental_stims/body_parts/clay-banks-LjqARJaJotc-unsplash.jpg,Stimuli/Experimental_stims/faces/justin-chen-J7Cf1Gch49E-unsplash.jpg,0,0,47,1,unchosen,20,24,faces,body_parts,1500,0,5,1
217,46596,0,218,3,3,0,no_gain5,gain1,K,H,24,23,body_parts,faces,72,79,Stimuli/Experimental_stims/body_parts/clay-banks-LjqARJaJotc-unsplash.jpg,Stimuli/Experimental_stims/faces/rikonavt-HQjfrvdTfak-unsplash.jpg,0,0,98,1,unchosen,23,24,faces,body_parts,1100,0,5,1
218,46596,0,219,3,3,1,gain4,no_gain2,B,G,12,8,faces,outdoor_scenes,73,73,Stimuli/Experimental_stims/faces/aiony-haust-jmATI5Q_YgY-unsplash.jpg,Stimuli/Experimental_stims/outdoor_scenes/samsommer-vddccTqwal8-unsplash.jpg,0,0,115,0,chosen,8,12,outdoor_scenes,faces,1500,0,5,1
219,46596,0,220,3,3,0,no_gain2,gain6,G,E,8,34,outdoor_scenes,body_parts,73,69,Stimuli/Experimental_stims/outdoor_scenes/samsommer-vddccTqwal8-unsplash.jpg,Stimuli/Experimental_stims/body_parts/wagner-santos-mBWMvIuVnso-unsplash.jpg,0,0,182,1,chosen,34,8,body_parts,outdoor_scenes,2500,0,5,1
220,46596,0,221,4,4,0,no_gain5,gain1,K,H,24,23,body_parts,faces,72,79,Stimuli/Experimental_stims/body_parts/clay-banks-LjqARJaJotc-unsplash.jpg,Stimuli/Experimental_stims/faces/rikonavt-HQjfrvdTfak-unsplash.jpg,1,NaN,,NaN,unchosen,NaN,NaN,NaN,NaN,3400,1,3,1
221,46596,0,222,4,4,0,no_gain5,gain4,K,B,46,12,objects,faces,73,73,Stimuli/Experimental_stims/objects/mockup-graphics-PNsj6RiHAF4-unsplash.jpg,Stimuli/Experimental_stims/faces/aiony-haust-jmATI5Q_YgY-unsplash.jpg,0,1,18,0,chosen,46,12,objects,faces,1500,0,3,1
222,46596,0,223,4,4,0,no_gain2,gain3,G,J,41,20,objects,faces,68,65,Stimuli/Experimental_stims/objects/insung-yoon-w2JtIQQXoRU-unsplash.jpg,Stimuli/Experimental_stims/faces/justin-chen-J7Cf1Gch49E-unsplash.jpg,0,1,4,0,unchosen,41,20,objects,faces,2000,0,3,1
223,46596,0,224,4,4,0,no_gain4,gain3,L,J,26,20,body_parts,faces,81,65,Stimuli/Experimental_stims/body_parts/engin-akyurt-x_3gyC42btc-unsplash.jpg,Stimuli/Experimental_stims/faces/justin-chen-J7Cf1Gch49E-unsplash.jpg,0,0,265,1,unchosen,20,26,faces,body_parts,1100,0,3,1
224,46596,0,225,4,4,0,no_gain1,gain6,D,E,13,42,faces,objects,40,70,Stimuli/Experimental_stims/faces/daniel-rigdon-dXmXKPP2L4E-unsplash.jpg,Stimuli/Experimental_stims/objects/jess-bailey-nOeVi8DsN8U-unsplash.jpg,0,0,2,1,unchosen,42,13,objects,faces,2700,0,3,1
225,46596,0,226,4,4,0,no_gain4,gain2,L,A,15,39,faces,objects,61,67,Stimuli/Experimental_stims/faces/erik-lucatero-d2MSDujJl2g-unsplash.jpg,Stimuli/Experimental_stims/objects/charlesdeluvio-1-nx1QR5dTE-unsplash.jpg,0,0,1,1,chosen,39,15,objects,faces,1700,0,3,1
226,46596,0,227,4,4,0,no_gain1,gain1,D,H,45,2,objects,outdoor_scenes,67,68,Stimuli/Experimental_stims/objects/leohoho-rngTKHXumy0-unsplash.jpg,Stimuli/Experimental_stims/outdoor_scenes/bruno-van-der-kraan-qez8mNJ3ilU-unsplash.jpg,0,0,209,1,chosen,2,45,outdoor_scenes,objects,3500,1,3,1
227,46596,0,228,4,4,0,no_gain3,gain3,F,J,21,20,faces,faces,72,65,Stimuli/Experimental_stims/faces/leilani-angel-K84vnnzxmTQ-unsplash.jpg,Stimuli/Experimental_stims/faces/justin-chen-J7Cf1Gch49E-unsplash.jpg,0,0,159,1,unchosen,20,21,faces,faces,2700,0,3,1
228,46596,0,229,4,4,1,gain4,no_gain5,B,K,5,24,outdoor_scenes,body_parts,66,72,Stimuli/Experimental_stims/outdoor_scenes/jeff-king-bJHWJeiHfHc-unsplash.jpg,Stimuli/Experimental_stims/body_parts/clay-banks-LjqARJaJotc-unsplash.jpg,0,0,117,0,unchosen,24,5,body_parts,outdoor_scenes,1500,0,3,1
229,46596,0,230,4,4,0,no_gain6,gain1,I,H,9,2,outdoor_scenes,outdoor_scenes,69,68,Stimuli/Experimental_stims/outdoor_scenes/sergey-pesterev-y-b_FOmJXdg-unsplash.jpg,Stimuli/Experimental_stims/outdoor_scenes/bruno-van-der-kraan-qez8mNJ3ilU-unsplash.jpg,0,0,62,1,chosen,2,9,outdoor_scenes,outdoor_scenes,1700,0,3,1
230,46596,0,231,4,4,0,no_gain1,gain2,D,A,13,11,faces,outdoor_scenes,40,88,Stimuli/Experimental_stims/faces/daniel-rigdon-dXmXKPP2L4E-unsplash.jpg,Stimuli/Experimental_stims/outdoor_scenes/stephen-leonardi-gyIRjKPXupE-unsplash.jpg,0,1,152,0,unchosen,13,11,faces,outdoor_scenes,2300,0,3,1
231,46596,0,232,4,4,0,no_gain4,gain6,L,E,15,34,faces,body_parts,61,69,Stimuli/Experimental_stims/faces/erik-lucatero-d2MSDujJl2g-unsplash.jpg,Stimuli/Experimental_stims/body_parts/wagner-santos-mBWMvIuVnso-unsplash.jpg,0,0,184,1,chosen,34,15,body_parts,faces,3100,1,3,1
232,46596,0,233,4,4,1,gain5,no_gain3,C,F,3,33,outdoor_scenes,body_parts,77,63,Stimuli/Experimental_stims/outdoor_scenes/henry-be-NLF6hTe4PAg-unsplash.jpg,Stimuli/Experimental_stims/body_parts/tucker-good-36skLT5jZcc-unsplash.jpg,0,0,39,0,chosen,33,3,body_parts,outdoor_scenes,1300,0,3,1
233,46596,0,234,4,4,1,gain1,no_gain3,H,F,2,33,outdoor_scenes,body_parts,68,63,Stimuli/Experimental_stims/outdoor_scenes/bruno-van-der-kraan-qez8mNJ3ilU-unsplash.jpg,Stimuli/Experimental_stims/body_parts/tucker-good-36skLT5jZcc-unsplash.jpg,0,0,143,0,chosen,33,2,body_parts,outdoor_scenes,1400,0,3,1
234,46596,0,235,4,4,1,gain2,no_gain4,A,L,11,26,outdoor_scenes,body_parts,88,81,Stimuli/Experimental_stims/outdoor_scenes/stephen-leonardi-gyIRjKPXupE-unsplash.jpg,Stimuli/Experimental_stims/body_parts/engin-akyurt-x_3gyC42btc-unsplash.jpg,0,0,148,0,unchosen,26,11,body_parts,outdoor_scenes,2500,0,3,1
235,46596,0,236,4,4,1,gain2,no_gain5,A,K,11,24,outdoor_scenes,body_parts,88,72,Stimuli/Experimental_stims/outdoor_scenes/stephen-leonardi-gyIRjKPXupE-unsplash.jpg,Stimuli/Experimental_stims/body_parts/clay-banks-LjqARJaJotc-unsplash.jpg,0,1,79,1,unchosen,11,24,outdoor_scenes,body_parts,1500,0,3,1
236,46596,0,237,4,4,1,gain4,no_gain1,B,D,5,13,outdoor_scenes,faces,66,40,Stimuli/Experimental_stims/outdoor_scenes/jeff-king-bJHWJeiHfHc-unsplash.jpg,Stimuli/Experimental_stims/faces/daniel-rigdon-dXmXKPP2L4E-unsplash.jpg,0,0,133,0,unchosen,13,5,faces,outdoor_scenes,1900,0,3,1
237,46596,0,238,4,4,1,gain6,no_gain3,E,F,34,33,body_parts,body_parts,69,63,Stimuli/Experimental_stims/body_parts/wagner-santos-mBWMvIuVnso-unsplash.jpg,Stimuli/Experimental_stims/body_parts/tucker-good-36skLT5jZcc-unsplash.jpg,0,0,77,0,chosen,33,34,body_parts,body_parts,1200,0,3,1
238,46596,0,239,4,4,1,gain2,no_gain5,A,K,39,46,objects,objects,67,73,Stimuli/Experimental_stims/objects/charlesdeluvio-1-nx1QR5dTE-unsplash.jpg,Stimuli/Experimental_stims/objects/mockup-graphics-PNsj6RiHAF4-unsplash.jpg,0,0,1,0,chosen,46,39,objects,objects,3500,1,3,1
239,46596,0,240,4,4,0,no_gain2,gain6,G,E,41,42,objects,objects,68,70,Stimuli/Experimental_stims/objects/insung-yoon-w2JtIQQXoRU-unsplash.jpg,Stimuli/Experimental_stims/objects/jess-bailey-nOeVi8DsN8U-unsplash.jpg,0,1,30,0,unchosen,41,42,objects,objects,1500,0,3,1
240,46596,0,241,4,4,1,gain5,no_gain6,C,I,3,9,outdoor_scenes,outdoor_scenes,77,69,Stimuli/Experimental_stims/outdoor_scenes/henry-be-NLF6hTe4PAg-unsplash.jpg,Stimuli/Experimental_stims/outdoor_scenes/sergey-pesterev-y-b_FOmJXdg-unsplash.jpg,0,0,145,0,chosen,9,3,outdoor_scenes,outdoor_scenes,2200,0,3,1
241,46596,0,242,4,4,1,gain6,no_gain2,E,G,34,8,body_parts,outdoor_scenes,69,73,Stimuli/Experimental_stims/body_parts/wagner-santos-mBWMvIuVnso-unsplash.jpg,Stimuli/Experimental_stims/outdoor_scenes/samsommer-vddccTqwal8-unsplash.jpg,0,0,116,0,chosen,8,34,outdoor_scenes,body_parts,1100,0,3,1
242,46596,0,243,4,4,0,no_gain3,gain2,F,A,33,39,body_parts,objects,63,67,Stimuli/Experimental_stims/body_parts/tucker-good-36skLT5jZcc-unsplash.jpg,Stimuli/Experimental_stims/objects/charlesdeluvio-1-nx1QR5dTE-unsplash.jpg,0,0,26,1,chosen,39,33,objects,body_parts,1300,0,3,1
243,46596,0,244,4,4,0,no_gain3,gain5,F,C,21,27,faces,body_parts,72,66,Stimuli/Experimental_stims/faces/leilani-angel-K84vnnzxmTQ-unsplash.jpg,Stimuli/Experimental_stims/body_parts/heike-mintel-i_Gns0ELnLw-unsplash.jpg,0,0,29,1,unchosen,27,21,body_parts,faces,1500,0,3,1
244,46596,0,245,4,4,0,no_gain6,gain6,I,E,9,34,outdoor_scenes,body_parts,69,69,Stimuli/Experimental_stims/outdoor_scenes/sergey-pesterev-y-b_FOmJXdg-unsplash.jpg,Stimuli/Experimental_stims/body_parts/wagner-santos-mBWMvIuVnso-unsplash.jpg,0,1,142,0,chosen,9,34,outdoor_scenes,body_parts,1100,0,3,1
245,46596,0,246,4,4,1,gain3,no_gain6,J,I,38,9,objects,outdoor_scenes,82,69,Stimuli/Experimental_stims/objects/art-lasovsky-8XddFc6NkBY-unsplash.jpg,Stimuli/Experimental_stims/outdoor_scenes/sergey-pesterev-y-b_FOmJXdg-unsplash.jpg,0,0,36,0,chosen,9,38,outdoor_scenes,objects,2000,0,3,1
246,46596,0,247,4,4,0,no_gain2,gain5,G,C,41,27,objects,body_parts,68,66,Stimuli/Experimental_stims/objects/insung-yoon-w2JtIQQXoRU-unsplash.jpg,Stimuli/Experimental_stims/body_parts/heike-mintel-i_Gns0ELnLw-unsplash.jpg,0,0,48,1,unchosen,27,41,body_parts,objects,4700,1,3,1
247,46596,0,248,4,4,0,no_gain1,gain3,D,J,45,38,objects,objects,67,82,Stimuli/Experimental_stims/objects/leohoho-rngTKHXumy0-unsplash.jpg,Stimuli/Experimental_stims/objects/art-lasovsky-8XddFc6NkBY-unsplash.jpg,0,0,97,1,chosen,38,45,objects,objects,2400,0,3,1
248,46596,0,249,4,4,1,gain4,no_gain2,B,G,5,41,outdoor_scenes,objects,66,68,Stimuli/Experimental_stims/outdoor_scenes/jeff-king-bJHWJeiHfHc-unsplash.jpg,Stimuli/Experimental_stims/objects/insung-yoon-w2JtIQQXoRU-unsplash.jpg,0,0,100,0,unchosen,41,5,objects,outdoor_scenes,1100,0,3,1
249,46596,0,250,4,4,1,gain6,no_gain5,E,K,34,46,body_parts,objects,69,73,Stimuli/Experimental_stims/body_parts/wagner-santos-mBWMvIuVnso-unsplash.jpg,Stimuli/Experimental_stims/objects/mockup-graphics-PNsj6RiHAF4-unsplash.jpg,0,0,2,0,chosen,46,34,objects,body_parts,2400,0,3,1
250,46596,0,251,4,4,1,gain4,no_gain6,B,I,5,29,outdoor_scenes,body_parts,66,73,Stimuli/Experimental_stims/outdoor_scenes/jeff-king-bJHWJeiHfHc-unsplash.jpg,Stimuli/Experimental_stims/body_parts/manuel-schinner-ZwjFuJ7ebpk-unsplash.jpg,0,0,66,0,unchosen,29,5,body_parts,outdoor_scenes,1600,0,3,1
251,46596,0,252,4,4,0,no_gain1,gain1,D,H,13,23,faces,faces,40,79,Stimuli/Experimental_stims/faces/daniel-rigdon-dXmXKPP2L4E-unsplash.jpg,Stimuli/Experimental_stims/faces/rikonavt-HQjfrvdTfak-unsplash.jpg,0,1,70,0,unchosen,13,23,faces,faces,2300,0,3,1
252,46596,0,253,4,4,0,no_gain3,gain4,F,B,33,12,body_parts,faces,63,73,Stimuli/Experimental_stims/body_parts/tucker-good-36skLT5jZcc-unsplash.jpg,Stimuli/Experimental_stims/faces/aiony-haust-jmATI5Q_YgY-unsplash.jpg,0,0,98,1,chosen,12,33,faces,body_parts,2500,0,3,1
253,46596,0,254,4,4,1,gain3,no_gain5,J,K,38,46,objects,objects,82,73,Stimuli/Experimental_stims/objects/art-lasovsky-8XddFc6NkBY-unsplash.jpg,Stimuli/Experimental_stims/objects/mockup-graphics-PNsj6RiHAF4-unsplash.jpg,0,1,13,1,chosen,38,46,objects,objects,3700,1,3,1
254,46596,0,255,4,4,1,gain2,no_gain1,A,D,39,45,objects,objects,67,67,Stimuli/Experimental_stims/objects/charlesdeluvio-1-nx1QR5dTE-unsplash.jpg,Stimuli/Experimental_stims/objects/leohoho-rngTKHXumy0-unsplash.jpg,0,0,130,0,chosen,45,39,objects,objects,2100,0,3,1
255,46596,0,256,4,4,1,gain6,no_gain3,E,F,42,21,objects,faces,70,72,Stimuli/Experimental_stims/objects/jess-bailey-nOeVi8DsN8U-unsplash.jpg,Stimuli/Experimental_stims/faces/leilani-angel-K84vnnzxmTQ-unsplash.jpg,0,0,2,0,unchosen,21,42,faces,objects,2300,0,3,1
256,46596,0,257,4,4,0,no_gain6,gain1,I,H,29,23,body_parts,faces,73,79,Stimuli/Experimental_stims/body_parts/manuel-schinner-ZwjFuJ7ebpk-unsplash.jpg,Stimuli/Experimental_stims/faces/rikonavt-HQjfrvdTfak-unsplash.jpg,0,0,238,1,unchosen,23,29,faces,body_parts,1700,0,3,1
257,46596,0,258,4,4,0,no_gain4,gain6,L,E,26,42,body_parts,objects,81,70,Stimuli/Experimental_stims/body_parts/engin-akyurt-x_3gyC42btc-unsplash.jpg,Stimuli/Experimental_stims/objects/jess-bailey-nOeVi8DsN8U-unsplash.jpg,0,1,102,0,unchosen,26,42,body_parts,objects,2900,0,3,1
258,46596,0,259,4,4,0,no_gain4,gain1,L,H,15,2,faces,outdoor_scenes,61,68,Stimuli/Experimental_stims/faces/erik-lucatero-d2MSDujJl2g-unsplash.jpg,Stimuli/Experimental_stims/outdoor_scenes/bruno-van-der-kraan-qez8mNJ3ilU-unsplash.jpg,0,0,153,1,chosen,2,15,outdoor_scenes,faces,3000,1,3,1
259,46596,0,260,4,4,1,gain2,no_gain3,A,F,11,21,outdoor_scenes,faces,88,72,Stimuli/Experimental_stims/outdoor_scenes/stephen-leonardi-gyIRjKPXupE-unsplash.jpg,Stimuli/Experimental_stims/faces/leilani-angel-K84vnnzxmTQ-unsplash.jpg,0,1,18,1,unchosen,11,21,outdoor_scenes,faces,2600,0,3,1
260,46596,0,261,4,4,0,no_gain6,gain5,I,C,29,27,body_parts,body_parts,73,66,Stimuli/Experimental_stims/body_parts/manuel-schinner-ZwjFuJ7ebpk-unsplash.jpg,Stimuli/Experimental_stims/body_parts/heike-mintel-i_Gns0ELnLw-unsplash.jpg,0,0,238,1,unchosen,27,29,body_parts,body_parts,1700,0,3,1
261,46596,0,262,4,4,0,no_gain3,gain1,F,H,21,23,faces,faces,72,79,Stimuli/Experimental_stims/faces/leilani-angel-K84vnnzxmTQ-unsplash.jpg,Stimuli/Experimental_stims/faces/rikonavt-HQjfrvdTfak-unsplash.jpg,0,0,147,1,unchosen,23,21,faces,faces,1800,0,3,1
262,46596,0,263,4,4,1,gain5,no_gain5,C,K,3,46,outdoor_scenes,objects,77,73,Stimuli/Experimental_stims/outdoor_scenes/henry-be-NLF6hTe4PAg-unsplash.jpg,Stimuli/Experimental_stims/objects/mockup-graphics-PNsj6RiHAF4-unsplash.jpg,0,1,176,1,chosen,3,46,outdoor_scenes,objects,1400,0,3,1
263,46596,0,264,4,4,0,no_gain2,gain1,G,H,8,2,outdoor_scenes,outdoor_scenes,73,68,Stimuli/Experimental_stims/outdoor_scenes/samsommer-vddccTqwal8-unsplash.jpg,Stimuli/Experimental_stims/outdoor_scenes/bruno-van-der-kraan-qez8mNJ3ilU-unsplash.jpg,0,0,181,1,chosen,2,8,outdoor_scenes,outdoor_scenes,2200,0,3,1
264,46596,0,265,4,4,0,no_gain2,gain1,G,H,41,23,objects,faces,68,79,Stimuli/Experimental_stims/objects/insung-yoon-w2JtIQQXoRU-unsplash.jpg,Stimuli/Experimental_stims/faces/rikonavt-HQjfrvdTfak-unsplash.jpg,0,0,19,1,unchosen,23,41,faces,objects,3500,1,3,1
265,46596,0,266,4,4,1,gain3,no_gain3,J,F,38,33,objects,body_parts,82,63,Stimuli/Experimental_stims/objects/art-lasovsky-8XddFc6NkBY-unsplash.jpg,Stimuli/Experimental_stims/body_parts/tucker-good-36skLT5jZcc-unsplash.jpg,0,0,124,0,chosen,33,38,body_parts,objects,1400,0,3,1
266,46596,0,267,4,4,0,no_gain2,gain4,G,B,8,12,outdoor_scenes,faces,73,73,Stimuli/Experimental_stims/outdoor_scenes/samsommer-vddccTqwal8-unsplash.jpg,Stimuli/Experimental_stims/faces/aiony-haust-jmATI5Q_YgY-unsplash.jpg,0,1,493,0,chosen,8,12,outdoor_scenes,faces,1100,0,3,1
267,46596,0,268,4,4,1,gain6,no_gain1,E,D,34,45,body_parts,objects,69,67,Stimuli/Experimental_stims/body_parts/wagner-santos-mBWMvIuVnso-unsplash.jpg,Stimuli/Experimental_stims/objects/leohoho-rngTKHXumy0-unsplash.jpg,0,0,170,0,chosen,45,34,objects,body_parts,1300,0,3,1
268,46596,0,269,4,4,0,no_gain1,gain3,D,J,13,20,faces,faces,40,65,Stimuli/Experimental_stims/faces/daniel-rigdon-dXmXKPP2L4E-unsplash.jpg,Stimuli/Experimental_stims/faces/justin-chen-J7Cf1Gch49E-unsplash.jpg,0,0,202,1,unchosen,20,13,faces,faces,2600,0,3,1
269,46596,0,270,4,4,0,no_gain4,gain4,L,B,15,12,faces,faces,61,73,Stimuli/Experimental_stims/faces/erik-lucatero-d2MSDujJl2g-unsplash.jpg,Stimuli/Experimental_stims/faces/aiony-haust-jmATI5Q_YgY-unsplash.jpg,0,0,164,1,chosen,12,15,faces,faces,1100,0,3,1
270,46596,0,271,4,4,1,gain1,no_gain4,H,L,23,26,faces,body_parts,79,81,Stimuli/Experimental_stims/faces/rikonavt-HQjfrvdTfak-unsplash.jpg,Stimuli/Experimental_stims/body_parts/engin-akyurt-x_3gyC42btc-unsplash.jpg,0,0,40,0,unchosen,26,23,body_parts,faces,1400,0,3,1
271,46596,0,272,4,4,1,gain4,no_gain3,B,F,5,21,outdoor_scenes,faces,66,72,Stimuli/Experimental_stims/outdoor_scenes/jeff-king-bJHWJeiHfHc-unsplash.jpg,Stimuli/Experimental_stims/faces/leilani-angel-K84vnnzxmTQ-unsplash.jpg,0,0,237,0,unchosen,21,5,faces,outdoor_scenes,3200,1,3,1
272,46596,0,273,4,4,0,no_gain6,gain2,I,A,9,39,outdoor_scenes,objects,69,67,Stimuli/Experimental_stims/outdoor_scenes/sergey-pesterev-y-b_FOmJXdg-unsplash.jpg,Stimuli/Experimental_stims/objects/charlesdeluvio-1-nx1QR5dTE-unsplash.jpg,0,0,211,1,chosen,39,9,objects,outdoor_scenes,1600,0,3,1
273,46596,0,274,4,4,0,no_gain2,gain5,G,C,8,3,outdoor_scenes,outdoor_scenes,73,77,Stimuli/Experimental_stims/outdoor_scenes/samsommer-vddccTqwal8-unsplash.jpg,Stimuli/Experimental_stims/outdoor_scenes/henry-be-NLF6hTe4PAg-unsplash.jpg,0,0,17,1,chosen,3,8,outdoor_scenes,outdoor_scenes,1000,0,3,1
274,46596,0,275,4,4,1,gain1,no_gain5,H,K,2,46,outdoor_scenes,objects,68,73,Stimuli/Experimental_stims/outdoor_scenes/bruno-van-der-kraan-qez8mNJ3ilU-unsplash.jpg,Stimuli/Experimental_stims/objects/mockup-graphics-PNsj6RiHAF4-unsplash.jpg,0,0,44,0,chosen,46,2,objects,outdoor_scenes,1700,0,3,1
275,46596,0,276,4,4,1,gain4,no_gain4,B,L,5,26,outdoor_scenes,body_parts,66,81,Stimuli/Experimental_stims/outdoor_scenes/jeff-king-bJHWJeiHfHc-unsplash.jpg,Stimuli/Experimental_stims/body_parts/engin-akyurt-x_3gyC42btc-unsplash.jpg,0,0,105,0,unchosen,26,5,body_parts,outdoor_scenes,1200,0,3,1
276,46596,0,277,4,4,1,gain3,no_gain5,J,K,20,24,faces,body_parts,65,72,Stimuli/Experimental_stims/faces/justin-chen-J7Cf1Gch49E-unsplash.jpg,Stimuli/Experimental_stims/body_parts/clay-banks-LjqARJaJotc-unsplash.jpg,0,1,19,1,unchosen,20,24,faces,body_parts,2200,0,3,1
277,46596,0,278,4,4,0,no_gain5,gain6,K,E,24,42,body_parts,objects,72,70,Stimuli/Experimental_stims/body_parts/clay-banks-LjqARJaJotc-unsplash.jpg,Stimuli/Experimental_stims/objects/jess-bailey-nOeVi8DsN8U-unsplash.jpg,0,0,98,1,unchosen,42,24,objects,body_parts,2000,0,3,1
278,46596,0,279,4,4,1,gain3,no_gain4,J,L,38,15,objects,faces,82,61,Stimuli/Experimental_stims/objects/art-lasovsky-8XddFc6NkBY-unsplash.jpg,Stimuli/Experimental_stims/faces/erik-lucatero-d2MSDujJl2g-unsplash.jpg,0,1,373,1,chosen,38,15,objects,faces,3100,1,3,1
279,46596,0,280,4,4,1,gain5,no_gain5,C,K,27,24,body_parts,body_parts,66,72,Stimuli/Experimental_stims/body_parts/heike-mintel-i_Gns0ELnLw-unsplash.jpg,Stimuli/Experimental_stims/body_parts/clay-banks-LjqARJaJotc-unsplash.jpg,0,1,84,1,unchosen,27,24,body_parts,body_parts,2400,0,3,1
280,46596,0,281,4,4,1,gain4,no_gain1,B,D,12,45,faces,objects,73,67,Stimuli/Experimental_stims/faces/aiony-haust-jmATI5Q_YgY-unsplash.jpg,Stimuli/Experimental_stims/objects/leohoho-rngTKHXumy0-unsplash.jpg,0,0,139,0,chosen,45,12,objects,faces,1000,0,3,1
281,46596,0,282,4,4,0,no_gain1,gain5,D,C,45,3,objects,outdoor_scenes,67,77,Stimuli/Experimental_stims/objects/leohoho-rngTKHXumy0-unsplash.jpg,Stimuli/Experimental_stims/outdoor_scenes/henry-be-NLF6hTe4PAg-unsplash.jpg,0,0,77,1,chosen,3,45,outdoor_scenes,objects,1900,0,3,1
282,46596,0,283,4,4,0,no_gain4,gain5,L,C,26,27,body_parts,body_parts,81,66,Stimuli/Experimental_stims/body_parts/engin-akyurt-x_3gyC42btc-unsplash.jpg,Stimuli/Experimental_stims/body_parts/heike-mintel-i_Gns0ELnLw-unsplash.jpg,0,1,42,0,unchosen,26,27,body_parts,body_parts,2400,0,3,1
283,46596,0,284,4,4,1,gain2,no_gain2,A,G,39,8,objects,outdoor_scenes,67,73,Stimuli/Experimental_stims/objects/charlesdeluvio-1-nx1QR5dTE-unsplash.jpg,Stimuli/Experimental_stims/outdoor_scenes/samsommer-vddccTqwal8-unsplash.jpg,0,0,140,0,chosen,8,39,outdoor_scenes,objects,1300,0,3,1
284,46596,0,285,4,4,0,no_gain4,gain5,L,C,15,3,faces,outdoor_scenes,61,77,Stimuli/Experimental_stims/faces/erik-lucatero-d2MSDujJl2g-unsplash.jpg,Stimuli/Experimental_stims/outdoor_scenes/henry-be-NLF6hTe4PAg-unsplash.jpg,0,0,88,1,chosen,3,15,outdoor_scenes,faces,1600,0,3,1
285,46596,0,286,4,4,1,gain6,no_gain6,E,I,42,29,objects,body_parts,70,73,Stimuli/Experimental_stims/objects/jess-bailey-nOeVi8DsN8U-unsplash.jpg,Stimuli/Experimental_stims/body_parts/manuel-schinner-ZwjFuJ7ebpk-unsplash.jpg,0,0,196,0,unchosen,29,42,body_parts,objects,1000,0,3,1
286,46596,0,287,4,4,0,no_gain6,gain4,I,B,9,12,outdoor_scenes,faces,69,73,Stimuli/Experimental_stims/outdoor_scenes/sergey-pesterev-y-b_FOmJXdg-unsplash.jpg,Stimuli/Experimental_stims/faces/aiony-haust-jmATI5Q_YgY-unsplash.jpg,0,1,77,0,chosen,9,12,outdoor_scenes,faces,1500,0,3,1
287,46596,0,288,4,4,1,gain5,no_gain1,C,D,27,13,body_parts,faces,66,40,Stimuli/Experimental_stims/body_parts/heike-mintel-i_Gns0ELnLw-unsplash.jpg,Stimuli/Experimental_stims/faces/daniel-rigdon-dXmXKPP2L4E-unsplash.jpg,0,1,15,1,unchosen,27,13,body_parts,faces,1900,0,3,1
288,46596,0,289,4,4,1,gain3,no_gain2,J,G,38,8,objects,outdoor_scenes,82,73,Stimuli/Experimental_stims/objects/art-lasovsky-8XddFc6NkBY-unsplash.jpg,Stimuli/Experimental_stims/outdoor_scenes/samsommer-vddccTqwal8-unsplash.jpg,0,1,23,1,chosen,38,8,objects,outdoor_scenes,1600,0,3,1
289,46596,0,290,4,4,1,gain3,no_gain6,J,I,20,29,faces,body_parts,65,73,Stimuli/Experimental_stims/faces/justin-chen-J7Cf1Gch49E-unsplash.jpg,Stimuli/Experimental_stims/body_parts/manuel-schinner-ZwjFuJ7ebpk-unsplash.jpg,0,0,148,0,unchosen,29,20,body_parts,faces,1200,0,3,1
290,46596,0,291,4,4,1,gain2,no_gain2,A,G,11,41,outdoor_scenes,objects,88,68,Stimuli/Experimental_stims/outdoor_scenes/stephen-leonardi-gyIRjKPXupE-unsplash.jpg,Stimuli/Experimental_stims/objects/insung-yoon-w2JtIQQXoRU-unsplash.jpg,0,0,32,0,unchosen,41,11,objects,outdoor_scenes,1000,0,3,1
291,46596,0,292,4,4,1,gain2,no_gain6,A,I,11,29,outdoor_scenes,body_parts,88,73,Stimuli/Experimental_stims/outdoor_scenes/stephen-leonardi-gyIRjKPXupE-unsplash.jpg,Stimuli/Experimental_stims/body_parts/manuel-schinner-ZwjFuJ7ebpk-unsplash.jpg,0,1,21,1,unchosen,11,29,outdoor_scenes,body_parts,3200,1,3,1