,PID,practice,trial,block,run,gain_left,left_item_id,right_item_id,left_pair_id,right_pair_id,left_stimulus,right_stimulus,left_category,left_rating,right_rating,right_category,left_path,right_path,no_response,left_chosen,rt,higher_outcome_chosen,choice_type,chosen_stimulus,unchosen_stimulus,chosen_category,unchosen_category,iti,long_iti,simulation,version
0,45313,1,1,0,0,0,,,,,,,,,,,Stimuli/Practice_stims/Final_decisions/debby-hudson-FmCSSSGge-0-unsplash.jpg,Stimuli/Practice_stims/Final_decisions/yassine-khalfalli-adsQ9d_Cx0c-unsplash.jpg,0,0,682,1,,,,,,3000,0,7,2
1,45313,1,2,0,0,0,,,,,,,,,,,Stimuli/Practice_stims/Final_decisions/florian-wehde-iVW7mZPwd4g-unsplash.jpg,Stimuli/Practice_stims/Final_decisions/patrick-perkins-3wylDrjxH-E-unsplash.jpg,0,1,767,0,,,,,,1500,0,7,2
2,45313,1,3,0,0,0,,,,,,,,,,,Stimuli/Practice_stims/Final_decisions/debby-hudson-FmCSSSGge-0-unsplash.jpg,Stimuli/Practice_stims/Final_decisions/florian-wehde-iVW7mZPwd4g-unsplash.jpg,0,0,593,1,,,,,,2000,0,7,2
3,45313,1,4,0,0,0,,,,,,,,,,,Stimuli/Practice_stims/Final_decisions/yassine-khalfalli-adsQ9d_Cx0c-unsplash.jpg,Stimuli/Practice_stims/Final_decisions/debby-hudson-FmCSSSGge-0-unsplash.jpg,0,0,853,1,,,,,,1000,0,7,2
4,45313,0,5,1,1,1,gain2,no_gain3,J,B,46,18,objects,68,0,faces,Stimuli/Experimental_stims/objects/mockup-graphics-PNsj6RiHAF4-unsplash.jpg,Stimuli/Experimental_stims/faces/jessica-radanavong-mrYkTuAesKE-unsplash.jpg,1,NaN,,NaN,unchosen,NaN,NaN,NaN,NaN,4100,1,7,2
5,45313,0,6,1,1,1,gain3,no_gain5,A,E,47,30,objects,62,36,body_parts,Stimuli/Experimental_stims/objects/ronaldo-arthur-vidal-Cdz_lvnl37k-unsplash.jpg,Stimuli/Experimental_stims/body_parts/mika-korhonen-Xodzxosar18-unsplash.jpg,0,1,884,1,chosen,47,30,objects,body_parts,1200,0,7,2
6,45313,0,7,1,1,1,gain1,no_gain3,C,B,29,5,body_parts,91,71,outdoor_scenes,Stimuli/Experimental_stims/body_parts/manuel-schinner-ZwjFuJ7ebpk-unsplash.jpg,Stimuli/Experimental_stims/outdoor_scenes/jeff-king-bJHWJeiHfHc-unsplash.jpg,0,1,839,1,chosen,29,5,body_parts,outdoor_scenes,2600,0,7,2
7,45313,0,8,1,1,1,gain2,no_gain4,J,D,23,36,faces,75,72,objects,Stimuli/Experimental_stims/faces/rikonavt-HQjfrvdTfak-unsplash.jpg,Stimuli/Experimental_stims/objects/alexander-andrews-JYGnB9gTCls-unsplash.jpg,0,1,686,1,chosen,23,36,faces,objects,2000,0,7,2
8,45313,0,9,1,1,0,no_gain5,gain1,E,C,39,2,objects,5,73,outdoor_scenes,Stimuli/Experimental_stims/objects/charlesdeluvio-1-nx1QR5dTE-unsplash.jpg,Stimuli/Experimental_stims/outdoor_scenes/bruno-van-der-kraan-qez8mNJ3ilU-unsplash.jpg,0,0,1066,1,unchosen,2,39,outdoor_scenes,objects,1200,0,7,2
9,45313,0,10,1,1,0,no_gain4,gain3,D,A,36,47,objects,72,62,objects,Stimuli/Experimental_stims/objects/alexander-andrews-JYGnB9gTCls-unsplash.jpg,Stimuli/Experimental_stims/objects/ronaldo-arthur-vidal-Cdz_lvnl37k-unsplash.jpg,0,1,758,0,chosen,36,47,objects,objects,3200,1,7,2
10,45313,0,11,1,1,0,no_gain1,gain3,F,A,12,47,faces,19,62,objects,Stimuli/Experimental_stims/faces/aiony-haust-jmATI5Q_YgY-unsplash.jpg,Stimuli/Experimental_stims/objects/ronaldo-arthur-vidal-Cdz_lvnl37k-unsplash.jpg,0,0,729,1,chosen,47,12,objects,faces,1200,0,7,2
11,45313,0,12,1,1,0,no_gain2,gain1,I,C,7,29,outdoor_scenes,64,91,body_parts,Stimuli/Experimental_stims/outdoor_scenes/petr-vysohlid-9fqwGqGLUxc-unsplash.jpg,Stimuli/Experimental_stims/body_parts/manuel-schinner-ZwjFuJ7ebpk-unsplash.jpg,0,0,872,1,chosen,29,7,body_parts,outdoor_scenes,1800,0,7,2
12,45313,0,13,1,1,1,gain2,no_gain1,J,F,46,33,objects,68,0,body_parts,Stimuli/Experimental_stims/objects/mockup-graphics-PNsj6RiHAF4-unsplash.jpg,Stimuli/Experimental_stims/body_parts/tucker-good-36skLT5jZcc-unsplash.jpg,0,1,1142,1,unchosen,46,33,objects,body_parts,1600,0,7,2
13,45313,0,14,1,1,0,no_gain6,gain6,L,H,27,22,body_parts,100,13,faces,Stimuli/Experimental_stims/body_parts/heike-mintel-i_Gns0ELnLw-unsplash.jpg,Stimuli/Experimental_stims/faces/ravi-patel-VMGAbeeJTKo-unsplash.jpg,0,1,962,0,unchosen,27,22,body_parts,faces,1300,0,7,2
14,45313,0,15,1,1,0,no_gain1,gain5,F,K,33,44,body_parts,0,0,objects,Stimuli/Experimental_stims/body_parts/tucker-good-36skLT5jZcc-unsplash.jpg,Stimuli/Experimental_stims/objects/kuiye-chen-NuOGFo4PudE-unsplash.jpg,0,1,927,0,unchosen,33,44,body_parts,objects,1900,0,7,2
15,45313,0,16,1,1,0,no_gain3,gain2,B,J,5,23,outdoor_scenes,71,75,faces,Stimuli/Experimental_stims/outdoor_scenes/jeff-king-bJHWJeiHfHc-unsplash.jpg,Stimuli/Experimental_stims/faces/rikonavt-HQjfrvdTfak-unsplash.jpg,0,0,611,1,chosen,23,5,faces,outdoor_scenes,4100,1,7,2
16,45313,0,17,1,1,1,gain4,no_gain2,G,I,10,35,outdoor_scenes,69,21,body_parts,Stimuli/Experimental_stims/outdoor_scenes/shannon-kunkle-dM8INmkyDas-unsplash.jpg,Stimuli/Experimental_stims/body_parts/wc-so-KH4AAPjb-tI-unsplash.jpg,0,1,1175,1,unchosen,10,35,outdoor_scenes,body_parts,1100,0,7,2
17,45313,0,18,1,1,1,gain6,no_gain2,H,I,0,7,outdoor_scenes,100,64,outdoor_scenes,Stimuli/Experimental_stims/outdoor_scenes/aleksandra-boguslawska-MS7KD9Ti7FQ-unsplash.jpg,Stimuli/Experimental_stims/outdoor_scenes/petr-vysohlid-9fqwGqGLUxc-unsplash.jpg,0,0,1171,0,chosen,7,0,outdoor_scenes,outdoor_scenes,1200,0,7,2
18,45313,0,19,1,1,1,gain5,no_gain4,K,D,44,20,objects,0,19,faces,Stimuli/Experimental_stims/objects/kuiye-chen-NuOGFo4PudE-unsplash.jpg,Stimuli/Experimental_stims/faces/justin-chen-J7Cf1Gch49E-unsplash.jpg,0,0,691,0,unchosen,20,44,faces,objects,1400,0,7,2
19,45313,0,20,1,1,0,no_gain4,gain1,D,C,36,29,objects,72,91,body_parts,Stimuli/Experimental_stims/objects/alexander-andrews-JYGnB9gTCls-unsplash.jpg,Stimuli/Experimental_stims/body_parts/manuel-schinner-ZwjFuJ7ebpk-unsplash.jpg,0,0,693,1,chosen,29,36,body_parts,objects,1300,0,7,2
20,45313,0,21,1,1,1,gain6,no_gain6,H,L,0,14,outdoor_scenes,100,88,faces,Stimuli/Experimental_stims/outdoor_scenes/aleksandra-boguslawska-MS7KD9Ti7FQ-unsplash.jpg,Stimuli/Experimental_stims/faces/david-siglin-UuW4psOb388-unsplash.jpg,0,1,924,1,chosen,0,14,outdoor_scenes,faces,4600,1,7,2
21,45313,0,22,1,1,0,no_gain1,gain3,F,A,33,6,body_parts,0,24,outdoor_scenes,Stimuli/Experimental_stims/body_parts/tucker-good-36skLT5jZcc-unsplash.jpg,Stimuli/Experimental_stims/outdoor_scenes/meng-ji-8BH_M-53CyA-unsplash.jpg,0,0,1137,1,unchosen,6,33,outdoor_scenes,body_parts,1000,0,7,2
22,45313,0,23,1,1,1,gain4,no_gain4,G,D,43,36,objects,66,72,objects,Stimuli/Experimental_stims/objects/jonathan-greenaway-Y4hGgeiFn3s-unsplash.jpg,Stimuli/Experimental_stims/objects/alexander-andrews-JYGnB9gTCls-unsplash.jpg,0,1,703,1,chosen,43,36,objects,objects,1100,0,7,2
23,45313,0,24,1,1,0,no_gain1,gain4,F,G,33,10,body_parts,0,69,outdoor_scenes,Stimuli/Experimental_stims/body_parts/tucker-good-36skLT5jZcc-unsplash.jpg,Stimuli/Experimental_stims/outdoor_scenes/shannon-kunkle-dM8INmkyDas-unsplash.jpg,0,0,982,1,unchosen,10,33,outdoor_scenes,body_parts,1700,0,7,2
24,45313,0,25,1,1,0,no_gain3,gain5,B,K,18,44,faces,0,0,objects,Stimuli/Experimental_stims/faces/jessica-radanavong-mrYkTuAesKE-unsplash.jpg,Stimuli/Experimental_stims/objects/kuiye-chen-NuOGFo4PudE-unsplash.jpg,0,1,780,0,unchosen,18,44,faces,objects,2800,0,7,2
25,45313,0,26,1,1,1,gain4,no_gain3,G,B,43,5,objects,66,71,outdoor_scenes,Stimuli/Experimental_stims/objects/jonathan-greenaway-Y4hGgeiFn3s-unsplash.jpg,Stimuli/Experimental_stims/outdoor_scenes/jeff-king-bJHWJeiHfHc-unsplash.jpg,0,1,834,1,chosen,43,5,objects,outdoor_scenes,3200,1,7,2
26,45313,0,27,1,1,1,gain5,no_gain6,K,L,26,14,body_parts,0,88,faces,Stimuli/Experimental_stims/body_parts/engin-akyurt-x_3gyC42btc-unsplash.jpg,Stimuli/Experimental_stims/faces/david-siglin-UuW4psOb388-unsplash.jpg,0,1,876,1,chosen,26,14,body_parts,faces,2000,0,7,2
27,45313,0,28,1,1,0,no_gain3,gain3,B,A,18,6,faces,0,24,outdoor_scenes,Stimuli/Experimental_stims/faces/jessica-radanavong-mrYkTuAesKE-unsplash.jpg,Stimuli/Experimental_stims/outdoor_scenes/meng-ji-8BH_M-53CyA-unsplash.jpg,0,1,963,0,unchosen,18,6,faces,outdoor_scenes,1600,0,7,2
28,45313,0,29,1,1,1,gain6,no_gain3,H,B,0,5,outdoor_scenes,100,71,outdoor_scenes,Stimuli/Experimental_stims/outdoor_scenes/aleksandra-boguslawska-MS7KD9Ti7FQ-unsplash.jpg,Stimuli/Experimental_stims/outdoor_scenes/jeff-king-bJHWJeiHfHc-unsplash.jpg,1,NaN,,NaN,chosen,NaN,NaN,NaN,NaN,1300,0,7,2
29,45313,0,30,1,1,1,gain5,no_gain5,K,E,44,39,objects,0,5,objects,Stimuli/Experimental_stims/objects/kuiye-chen-NuOGFo4PudE-unsplash.jpg,Stimuli/Experimental_stims/objects/charlesdeluvio-1-nx1QR5dTE-unsplash.jpg,0,1,777,1,unchosen,44,39,objects,objects,1200,0,7,2
30,45313,0,31,1,1,0,no_gain6,gain3,L,A,27,6,body_parts,100,24,outdoor_scenes,Stimuli/Experimental_stims/body_parts/heike-mintel-i_Gns0ELnLw-unsplash.jpg,Stimuli/Experimental_stims/outdoor_scenes/meng-ji-8BH_M-53CyA-unsplash.jpg,0,0,736,1,unchosen,6,27,outdoor_scenes,body_parts,3500,1,7,2
31,45313,0,32,1,1,0,no_gain1,gain1,F,C,12,29,faces,19,91,body_parts,Stimuli/Experimental_stims/faces/aiony-haust-jmATI5Q_YgY-unsplash.jpg,Stimuli/Experimental_stims/body_parts/manuel-schinner-ZwjFuJ7ebpk-unsplash.jpg,0,0,972,1,chosen,29,12,body_parts,faces,1800,0,7,2
32,45313,0,33,1,1,0,no_gain5,gain6,E,H,39,22,objects,5,13,faces,Stimuli/Experimental_stims/objects/charlesdeluvio-1-nx1QR5dTE-unsplash.jpg,Stimuli/Experimental_stims/faces/ravi-patel-VMGAbeeJTKo-unsplash.jpg,0,1,771,0,unchosen,39,22,objects,faces,1600,0,7,2
33,45313,0,34,1,1,0,no_gain1,gain5,F,K,12,26,faces,19,0,body_parts,Stimuli/Experimental_stims/faces/aiony-haust-jmATI5Q_YgY-unsplash.jpg,Stimuli/Experimental_stims/body_parts/engin-akyurt-x_3gyC42btc-unsplash.jpg,0,0,961,1,chosen,26,12,body_parts,faces,2000,0,7,2
34,45313,0,35,1,1,0,no_gain5,gain5,E,K,30,26,body_parts,36,0,body_parts,Stimuli/Experimental_stims/body_parts/mika-korhonen-Xodzxosar18-unsplash.jpg,Stimuli/Experimental_stims/body_parts/engin-akyurt-x_3gyC42btc-unsplash.jpg,0,0,1242,1,chosen,26,30,body_parts,body_parts,1100,0,7,2
35,45313,0,36,1,1,1,gain1,no_gain2,C,I,2,35,outdoor_scenes,73,21,body_parts,Stimuli/Experimental_stims/outdoor_scenes/bruno-van-der-kraan-qez8mNJ3ilU-unsplash.jpg,Stimuli/Experimental_stims/body_parts/wc-so-KH4AAPjb-tI-unsplash.jpg,0,1,1013,1,unchosen,2,35,outdoor_scenes,body_parts,2800,0,7,2
36,45313,0,37,1,1,0,no_gain2,gain5,I,K,7,26,outdoor_scenes,64,0,body_parts,Stimuli/Experimental_stims/outdoor_scenes/petr-vysohlid-9fqwGqGLUxc-unsplash.jpg,Stimuli/Experimental_stims/body_parts/engin-akyurt-x_3gyC42btc-unsplash.jpg,0,1,920,0,chosen,7,26,outdoor_scenes,body_parts,3100,1,7,2
37,45313,0,38,1,1,0,no_gain4,gain2,D,J,20,46,faces,19,68,objects,Stimuli/Experimental_stims/faces/justin-chen-J7Cf1Gch49E-unsplash.jpg,Stimuli/Experimental_stims/objects/mockup-graphics-PNsj6RiHAF4-unsplash.jpg,0,0,1181,1,unchosen,46,20,objects,faces,1100,0,7,2
38,45313,0,39,1,1,0,no_gain4,gain1,D,C,20,2,faces,19,73,outdoor_scenes,Stimuli/Experimental_stims/faces/justin-chen-J7Cf1Gch49E-unsplash.jpg,Stimuli/Experimental_stims/outdoor_scenes/bruno-van-der-kraan-qez8mNJ3ilU-unsplash.jpg,0,0,929,1,unchosen,2,20,outdoor_scenes,faces,1100,0,7,2
39,45313,0,40,1,1,1,gain2,no_gain1,J,F,23,12,faces,75,19,faces,Stimuli/Experimental_stims/faces/rikonavt-HQjfrvdTfak-unsplash.jpg,Stimuli/Experimental_stims/faces/aiony-haust-jmATI5Q_YgY-unsplash.jpg,0,1,702,1,chosen,23,12,faces,faces,1100,0,7,2
40,45313,0,41,1,1,1,gain2,no_gain5,J,E,46,39,objects,68,5,objects,Stimuli/Experimental_stims/objects/mockup-graphics-PNsj6RiHAF4-unsplash.jpg,Stimuli/Experimental_stims/objects/charlesdeluvio-1-nx1QR5dTE-unsplash.jpg,0,1,848,1,unchosen,46,39,objects,objects,2300,0,7,2
41,45313,0,42,1,1,1,gain6,no_gain3,H,B,22,18,faces,13,0,faces,Stimuli/Experimental_stims/faces/ravi-patel-VMGAbeeJTKo-unsplash.jpg,Stimuli/Experimental_stims/faces/jessica-radanavong-mrYkTuAesKE-unsplash.jpg,0,1,1412,1,unchosen,22,18,faces,faces,3700,1,7,2
42,45313,0,43,1,1,0,no_gain6,gain5,L,K,27,44,body_parts,100,0,objects,Stimuli/Experimental_stims/body_parts/heike-mintel-i_Gns0ELnLw-unsplash.jpg,Stimuli/Experimental_stims/objects/kuiye-chen-NuOGFo4PudE-unsplash.jpg,0,1,804,0,unchosen,27,44,body_parts,objects,2400,0,7,2
43,45313,0,44,1,1,0,no_gain5,gain6,E,H,30,0,body_parts,36,100,outdoor_scenes,Stimuli/Experimental_stims/body_parts/mika-korhonen-Xodzxosar18-unsplash.jpg,Stimuli/Experimental_stims/outdoor_scenes/aleksandra-boguslawska-MS7KD9Ti7FQ-unsplash.jpg,0,0,1073,1,chosen,0,30,outdoor_scenes,body_parts,1400,0,7,2
44,45313,0,45,1,1,0,no_gain2,gain6,I,H,35,22,body_parts,21,13,faces,Stimuli/Experimental_stims/body_parts/wc-so-KH4AAPjb-tI-unsplash.jpg,Stimuli/Experimental_stims/faces/ravi-patel-VMGAbeeJTKo-unsplash.jpg,0,0,1225,1,unchosen,22,35,faces,body_parts,2500,0,7,2
45,45313,0,46,1,1,1,gain6,no_gain1,H,F,0,12,outdoor_scenes,100,19,faces,Stimuli/Experimental_stims/outdoor_scenes/aleksandra-boguslawska-MS7KD9Ti7FQ-unsplash.jpg,Stimuli/Experimental_stims/faces/aiony-haust-jmATI5Q_YgY-unsplash.jpg,0,1,710,1,chosen,0,12,outdoor_scenes,faces,2600,0,7,2
46,45313,0,47,1,1,1,gain2,no_gain2,J,I,23,7,faces,75,64,outdoor_scenes,Stimuli/Experimental_stims/faces/rikonavt-HQjfrvdTfak-unsplash.jpg,Stimuli/Experimental_stims/outdoor_scenes/petr-vysohlid-9fqwGqGLUxc-unsplash.jpg,0,1,744,1,chosen,23,7,faces,outdoor_scenes,1100,0,7,2
47,45313,0,48,1,1,0,no_gain6,gain1,L,C,27,2,body_parts,100,73,outdoor_scenes,Stimuli/Experimental_stims/body_parts/heike-mintel-i_Gns0ELnLw-unsplash.jpg,Stimuli/Experimental_stims/outdoor_scenes/bruno-van-der-kraan-qez8mNJ3ilU-unsplash.jpg,0,1,1088,0,unchosen,27,2,body_parts,outdoor_scenes,4800,1,7,2
48,45313,0,49,1,1,1,gain4,no_gain3,G,B,10,18,outdoor_scenes,69,0,faces,Stimuli/Experimental_stims/outdoor_scenes/shannon-kunkle-dM8INmkyDas-unsplash.jpg,Stimuli/Experimental_stims/faces/jessica-radanavong-mrYkTuAesKE-unsplash.jpg,0,1,906,1,unchosen,10,18,outdoor_scenes,faces,1600,0,7,2
49,45313,0,50,1,1,1,gain6,no_gain4,H,D,0,36,outdoor_scenes,100,72,objects,Stimuli/Experimental_stims/outdoor_scenes/aleksandra-boguslawska-MS7KD9Ti7FQ-unsplash.jpg,Stimuli/Experimental_stims/objects/alexander-andrews-JYGnB9gTCls-unsplash.jpg,0,1,1212,1,chosen,0,36,outdoor_scenes,objects,2800,0,7,2
50,45313,0,51,1,1,1,gain1,no_gain3,C,B,2,18,outdoor_scenes,73,0,faces,Stimuli/Experimental_stims/outdoor_scenes/bruno-van-der-kraan-qez8mNJ3ilU-unsplash.jpg,Stimuli/Experimental_stims/faces/jessica-radanavong-mrYkTuAesKE-unsplash.jpg,0,1,825,1,unchosen,2,18,outdoor_scenes,faces,2300,0,7,2
51,45313,0,52,1,1,1,gain3,no_gain5,A,E,6,39,outdoor_scenes,24,5,objects,Stimuli/Experimental_stims/outdoor_scenes/meng-ji-8BH_M-53CyA-unsplash.jpg,Stimuli/Experimental_stims/objects/charlesdeluvio-1-nx1QR5dTE-unsplash.jpg,0,1,810,1,unchosen,6,39,outdoor_scenes,objects,2400,0,7,2
52,45313,0,53,1,1,1,gain4,no_gain4,G,D,10,20,outdoor_scenes,69,19,faces,Stimuli/Experimental_stims/outdoor_scenes/shannon-kunkle-dM8INmkyDas-unsplash.jpg,Stimuli/Experimental_stims/faces/justin-chen-J7Cf1Gch49E-unsplash.jpg,0,1,726,1,unchosen,10,20,outdoor_scenes,faces,1800,0,7,2
53,45313,0,54,1,1,0,no_gain6,gain1,L,C,14,29,faces,88,91,body_parts,Stimuli/Experimental_stims/faces/david-siglin-UuW4psOb388-unsplash.jpg,Stimuli/Experimental_stims/body_parts/manuel-schinner-ZwjFuJ7ebpk-unsplash.jpg,0,0,684,1,chosen,29,14,body_parts,faces,1500,0,7,2
54,45313,0,55,1,1,1,gain6,no_gain4,H,D,22,20,faces,13,19,faces,Stimuli/Experimental_stims/faces/ravi-patel-VMGAbeeJTKo-unsplash.jpg,Stimuli/Experimental_stims/faces/justin-chen-J7Cf1Gch49E-unsplash.jpg,0,0,1181,0,unchosen,20,22,faces,faces,1900,0,7,2
55,45313,0,56,1,1,1,gain3,no_gain2,A,I,6,35,outdoor_scenes,24,21,body_parts,Stimuli/Experimental_stims/outdoor_scenes/meng-ji-8BH_M-53CyA-unsplash.jpg,Stimuli/Experimental_stims/body_parts/wc-so-KH4AAPjb-tI-unsplash.jpg,0,1,814,1,unchosen,6,35,outdoor_scenes,body_parts,1100,0,7,2
56,45313,0,57,1,1,0,no_gain2,gain2,I,J,35,46,body_parts,21,68,objects,Stimuli/Experimental_stims/body_parts/wc-so-KH4AAPjb-tI-unsplash.jpg,Stimuli/Experimental_stims/objects/mockup-graphics-PNsj6RiHAF4-unsplash.jpg,0,0,1004,1,unchosen,46,35,objects,body_parts,1700,0,7,2
57,45313,0,58,1,1,1,gain5,no_gain3,K,B,26,5,body_parts,0,71,outdoor_scenes,Stimuli/Experimental_stims/body_parts/engin-akyurt-x_3gyC42btc-unsplash.jpg,Stimuli/Experimental_stims/outdoor_scenes/jeff-king-bJHWJeiHfHc-unsplash.jpg,0,0,976,0,chosen,5,26,outdoor_scenes,body_parts,1600,0,7,2
58,45313,0,59,1,1,1,gain6,no_gain1,H,F,22,33,faces,13,0,body_parts,Stimuli/Experimental_stims/faces/ravi-patel-VMGAbeeJTKo-unsplash.jpg,Stimuli/Experimental_stims/body_parts/tucker-good-36skLT5jZcc-unsplash.jpg,0,1,1077,1,unchosen,22,33,faces,body_parts,1700,0,7,2
59,45313,0,60,1,1,0,no_gain5,gain4,E,G,30,43,body_parts,36,66,objects,Stimuli/Experimental_stims/body_parts/mika-korhonen-Xodzxosar18-unsplash.jpg,Stimuli/Experimental_stims/objects/jonathan-greenaway-Y4hGgeiFn3s-unsplash.jpg,0,0,708,1,chosen,43,30,objects,body_parts,3000,0,7,2
60,45313,0,61,1,1,1,gain3,no_gain6,A,L,47,14,objects,62,88,faces,Stimuli/Experimental_stims/objects/ronaldo-arthur-vidal-Cdz_lvnl37k-unsplash.jpg,Stimuli/Experimental_stims/faces/david-siglin-UuW4psOb388-unsplash.jpg,0,1,727,1,chosen,47,14,objects,faces,2100,0,7,2
61,45313,0,62,1,1,1,gain5,no_gain2,K,I,44,35,objects,0,21,body_parts,Stimuli/Experimental_stims/objects/kuiye-chen-NuOGFo4PudE-unsplash.jpg,Stimuli/Experimental_stims/body_parts/wc-so-KH4AAPjb-tI-unsplash.jpg,0,0,1087,0,unchosen,35,44,body_parts,objects,3200,1,7,2
62,45313,0,63,1,1,1,gain1,no_gain5,C,E,29,30,body_parts,91,36,body_parts,Stimuli/Experimental_stims/body_parts/manuel-schinner-ZwjFuJ7ebpk-unsplash.jpg,Stimuli/Experimental_stims/body_parts/mika-korhonen-Xodzxosar18-unsplash.jpg,0,1,995,1,chosen,29,30,body_parts,body_parts,1600,0,7,2
63,45313,0,64,1,1,0,no_gain2,gain4,I,G,7,43,outdoor_scenes,64,66,objects,Stimuli/Experimental_stims/outdoor_scenes/petr-vysohlid-9fqwGqGLUxc-unsplash.jpg,Stimuli/Experimental_stims/objects/jonathan-greenaway-Y4hGgeiFn3s-unsplash.jpg,0,0,702,1,chosen,43,7,objects,outdoor_scenes,1300,0,7,2
64,45313,0,65,1,1,0,no_gain1,gain1,F,C,33,2,body_parts,0,73,outdoor_scenes,Stimuli/Experimental_stims/body_parts/tucker-good-36skLT5jZcc-unsplash.jpg,Stimuli/Experimental_stims/outdoor_scenes/bruno-van-der-kraan-qez8mNJ3ilU-unsplash.jpg,0,0,1033,1,unchosen,2,33,outdoor_scenes,body_parts,1800,0,7,2
65,45313,0,66,1,1,0,no_gain1,gain4,F,G,12,43,faces,19,66,objects,Stimuli/Experimental_stims/faces/aiony-haust-jmATI5Q_YgY-unsplash.jpg,Stimuli/Experimental_stims/objects/jonathan-greenaway-Y4hGgeiFn3s-unsplash.jpg,0,0,800,1,chosen,43,12,objects,faces,1400,0,7,2
66,45313,0,67,1,1,0,no_gain3,gain3,B,A,5,47,outdoor_scenes,71,62,objects,Stimuli/Experimental_stims/outdoor_scenes/jeff-king-bJHWJeiHfHc-unsplash.jpg,Stimuli/Experimental_stims/objects/ronaldo-arthur-vidal-Cdz_lvnl37k-unsplash.jpg,0,0,654,1,chosen,47,5,objects,outdoor_scenes,1500,0,7,2
67,45313,0,68,1,1,0,no_gain6,gain2,L,J,14,23,faces,88,75,faces,Stimuli/Experimental_stims/faces/david-siglin-UuW4psOb388-unsplash.jpg,Stimuli/Experimental_stims/faces/rikonavt-HQjfrvdTfak-unsplash.jpg,0,0,677,1,chosen,23,14,faces,faces,1100,0,7,2
68,45313,0,69,1,1,0,no_gain6,gain4,L,G,27,10,body_parts,100,69,outdoor_scenes,Stimuli/Experimental_stims/body_parts/heike-mintel-i_Gns0ELnLw-unsplash.jpg,Stimuli/Experimental_stims/outdoor_scenes/shannon-kunkle-dM8INmkyDas-unsplash.jpg,0,0,984,1,unchosen,10,27,outdoor_scenes,body_parts,4300,1,7,2
69,45313,0,70,1,1,0,no_gain2,gain3,I,A,7,47,outdoor_scenes,64,62,objects,Stimuli/Experimental_stims/outdoor_scenes/petr-vysohlid-9fqwGqGLUxc-unsplash.jpg,Stimuli/Experimental_stims/objects/ronaldo-arthur-vidal-Cdz_lvnl37k-unsplash.jpg,0,0,614,1,chosen,47,7,objects,outdoor_scenes,1100,0,7,2
70,45313,0,71,1,1,1,gain2,no_gain5,J,E,23,30,faces,75,36,body_parts,Stimuli/Experimental_stims/faces/rikonavt-HQjfrvdTfak-unsplash.jpg,Stimuli/Experimental_stims/body_parts/mika-korhonen-Xodzxosar18-unsplash.jpg,0,1,632,1,chosen,23,30,faces,body_parts,1300,0,7,2
71,45313,0,72,1,1,1,gain2,no_gain6,J,L,46,27,objects,68,100,body_parts,Stimuli/Experimental_stims/objects/mockup-graphics-PNsj6RiHAF4-unsplash.jpg,Stimuli/Experimental_stims/body_parts/heike-mintel-i_Gns0ELnLw-unsplash.jpg,0,0,1191,0,unchosen,27,46,body_parts,objects,2000,0,7,2
72,45313,0,73,1,1,0,no_gain4,gain3,D,A,20,6,faces,19,24,outdoor_scenes,Stimuli/Experimental_stims/faces/justin-chen-J7Cf1Gch49E-unsplash.jpg,Stimuli/Experimental_stims/outdoor_scenes/meng-ji-8BH_M-53CyA-unsplash.jpg,0,0,822,1,unchosen,6,20,outdoor_scenes,faces,1900,0,7,2
73,45313,0,74,1,1,0,no_gain4,gain5,D,K,36,26,objects,72,0,body_parts,Stimuli/Experimental_stims/objects/alexander-andrews-JYGnB9gTCls-unsplash.jpg,Stimuli/Experimental_stims/body_parts/engin-akyurt-x_3gyC42btc-unsplash.jpg,0,0,776,1,chosen,26,36,body_parts,objects,2200,0,7,2
74,45313,0,75,1,1,1,gain4,no_gain6,G,L,43,14,objects,66,88,faces,Stimuli/Experimental_stims/objects/jonathan-greenaway-Y4hGgeiFn3s-unsplash.jpg,Stimuli/Experimental_stims/faces/david-siglin-UuW4psOb388-unsplash.jpg,0,1,620,1,chosen,43,14,objects,faces,1000,0,7,2
75,45313,0,76,1,1,1,gain4,no_gain5,G,E,10,39,outdoor_scenes,69,5,objects,Stimuli/Experimental_stims/outdoor_scenes/shannon-kunkle-dM8INmkyDas-unsplash.jpg,Stimuli/Experimental_stims/objects/charlesdeluvio-1-nx1QR5dTE-unsplash.jpg,0,1,1026,1,unchosen,10,39,outdoor_scenes,objects,1100,0,7,2
76,45313,0,77,2,2,1,gain6,no_gain3,H,B,22,18,faces,13,0,faces,Stimuli/Experimental_stims/faces/ravi-patel-VMGAbeeJTKo-unsplash.jpg,Stimuli/Experimental_stims/faces/jessica-radanavong-mrYkTuAesKE-unsplash.jpg,0,1,961,1,unchosen,22,18,faces,faces,3800,1,10,2
77,45313,0,78,2,2,1,gain6,no_gain4,H,D,0,36,outdoor_scenes,100,72,objects,Stimuli/Experimental_stims/outdoor_scenes/aleksandra-boguslawska-MS7KD9Ti7FQ-unsplash.jpg,Stimuli/Experimental_stims/objects/alexander-andrews-JYGnB9gTCls-unsplash.jpg,0,1,1054,1,chosen,0,36,outdoor_scenes,objects,2000,0,10,2
78,45313,0,79,2,2,1,gain3,no_gain1,A,F,47,12,objects,62,19,faces,Stimuli/Experimental_stims/objects/ronaldo-arthur-vidal-Cdz_lvnl37k-unsplash.jpg,Stimuli/Experimental_stims/faces/aiony-haust-jmATI5Q_YgY-unsplash.jpg,0,0,140,0,chosen,12,47,faces,objects,3000,0,10,2
79,45313,0,80,2,2,1,gain4,no_gain3,G,B,10,18,outdoor_scenes,69,0,faces,Stimuli/Experimental_stims/outdoor_scenes/shannon-kunkle-dM8INmkyDas-unsplash.jpg,Stimuli/Experimental_stims/faces/jessica-radanavong-mrYkTuAesKE-unsplash.jpg,0,1,842,1,unchosen,10,18,outdoor_scenes,faces,1400,0,10,2
80,45313,0,81,2,2,1,gain6,no_gain6,H,L,0,14,outdoor_scenes,100,88,faces,Stimuli/Experimental_stims/outdoor_scenes/aleksandra-boguslawska-MS7KD9Ti7FQ-unsplash.jpg,Stimuli/Experimental_stims/faces/david-siglin-UuW4psOb388-unsplash.jpg,0,1,570,1,chosen,0,14,outdoor_scenes,faces,2900,0,10,2
81,45313,0,82,2,2,1,gain2,no_gain1,J,F,23,12,faces,75,19,faces,Stimuli/Experimental_stims/faces/rikonavt-HQjfrvdTfak-unsplash.jpg,Stimuli/Experimental_stims/faces/aiony-haust-jmATI5Q_YgY-unsplash.jpg,0,1,664,1,chosen,23,12,faces,faces,2000,0,10,2
82,45313,0,83,2,2,0,no_gain1,gain3,F,A,33,6,body_parts,0,24,outdoor_scenes,Stimuli/Experimental_stims/body_parts/tucker-good-36skLT5jZcc-unsplash.jpg,Stimuli/Experimental_stims/outdoor_scenes/meng-ji-8BH_M-53CyA-unsplash.jpg,0,1,1320,0,unchosen,33,6,body_parts,outdoor_scenes,2700,0,10,2
83,45313,0,84,2,2,0,no_gain6,gain2,L,J,14,23,faces,88,75,faces,Stimuli/Experimental_stims/faces/david-siglin-UuW4psOb388-unsplash.jpg,Stimuli/Experimental_stims/faces/rikonavt-HQjfrvdTfak-unsplash.jpg,0,0,641,1,chosen,23,14,faces,faces,3600,1,10,2
84,45313,0,85,2,2,0,no_gain3,gain2,B,J,18,46,faces,0,68,objects,Stimuli/Experimental_stims/faces/jessica-radanavong-mrYkTuAesKE-unsplash.jpg,Stimuli/Experimental_stims/objects/mockup-graphics-PNsj6RiHAF4-unsplash.jpg,0,0,963,1,unchosen,46,18,objects,faces,1300,0,10,2
85,45313,0,86,2,2,1,gain6,no_gain1,H,F,22,33,faces,13,0,body_parts,Stimuli/Experimental_stims/faces/ravi-patel-VMGAbeeJTKo-unsplash.jpg,Stimuli/Experimental_stims/body_parts/tucker-good-36skLT5jZcc-unsplash.jpg,0,1,1266,1,unchosen,22,33,faces,body_parts,3000,0,10,2
86,45313,0,87,2,2,0,no_gain5,gain4,E,G,39,10,objects,5,69,outdoor_scenes,Stimuli/Experimental_stims/objects/charlesdeluvio-1-nx1QR5dTE-unsplash.jpg,Stimuli/Experimental_stims/outdoor_scenes/shannon-kunkle-dM8INmkyDas-unsplash.jpg,0,0,781,1,unchosen,10,39,outdoor_scenes,objects,2600,0,10,2
87,45313,0,88,2,2,0,no_gain2,gain3,I,A,7,47,outdoor_scenes,64,62,objects,Stimuli/Experimental_stims/outdoor_scenes/petr-vysohlid-9fqwGqGLUxc-unsplash.jpg,Stimuli/Experimental_stims/objects/ronaldo-arthur-vidal-Cdz_lvnl37k-unsplash.jpg,0,0,551,1,chosen,47,7,objects,outdoor_scenes,1100,0,10,2
88,45313,0,89,2,2,0,no_gain1,gain1,F,C,12,29,faces,19,91,body_parts,Stimuli/Experimental_stims/faces/aiony-haust-jmATI5Q_YgY-unsplash.jpg,Stimuli/Experimental_stims/body_parts/manuel-schinner-ZwjFuJ7ebpk-unsplash.jpg,0,0,837,1,chosen,29,12,body_parts,faces,1400,0,10,2
89,45313,0,90,2,2,0,no_gain5,gain2,E,J,39,46,objects,5,68,objects,Stimuli/Experimental_stims/objects/charlesdeluvio-1-nx1QR5dTE-unsplash.jpg,Stimuli/Experimental_stims/objects/mockup-graphics-PNsj6RiHAF4-unsplash.jpg,0,0,803,1,unchosen,46,39,objects,objects,1100,0,10,2
90,45313,0,91,2,2,1,gain3,no_gain3,A,B,6,18,outdoor_scenes,24,0,faces,Stimuli/Experimental_stims/outdoor_scenes/meng-ji-8BH_M-53CyA-unsplash.jpg,Stimuli/Experimental_stims/faces/jessica-radanavong-mrYkTuAesKE-unsplash.jpg,0,1,706,1,unchosen,6,18,outdoor_scenes,faces,2900,0,10,2
91,45313,0,92,2,2,1,gain5,no_gain4,K,D,26,36,body_parts,0,72,objects,Stimuli/Experimental_stims/body_parts/engin-akyurt-x_3gyC42btc-unsplash.jpg,Stimuli/Experimental_stims/objects/alexander-andrews-JYGnB9gTCls-unsplash.jpg,0,1,1094,1,chosen,26,36,body_parts,objects,1600,0,10,2
92,45313,0,93,2,2,1,gain2,no_gain6,J,L,46,27,objects,68,100,body_parts,Stimuli/Experimental_stims/objects/mockup-graphics-PNsj6RiHAF4-unsplash.jpg,Stimuli/Experimental_stims/body_parts/heike-mintel-i_Gns0ELnLw-unsplash.jpg,0,0,912,0,unchosen,27,46,body_parts,objects,1500,0,10,2
93,45313,0,94,2,2,0,no_gain5,gain6,E,H,39,22,objects,5,13,faces,Stimuli/Experimental_stims/objects/charlesdeluvio-1-nx1QR5dTE-unsplash.jpg,Stimuli/Experimental_stims/faces/ravi-patel-VMGAbeeJTKo-unsplash.jpg,0,0,853,1,unchosen,22,39,faces,objects,3800,1,10,2
94,45313,0,95,2,2,0,no_gain6,gain4,L,G,14,43,faces,88,66,objects,Stimuli/Experimental_stims/faces/david-siglin-UuW4psOb388-unsplash.jpg,Stimuli/Experimental_stims/objects/jonathan-greenaway-Y4hGgeiFn3s-unsplash.jpg,0,0,720,1,chosen,43,14,objects,faces,1500,0,10,2
95,45313,0,96,2,2,1,gain5,no_gain2,K,I,44,35,objects,0,21,body_parts,Stimuli/Experimental_stims/objects/kuiye-chen-NuOGFo4PudE-unsplash.jpg,Stimuli/Experimental_stims/body_parts/wc-so-KH4AAPjb-tI-unsplash.jpg,0,0,887,0,unchosen,35,44,body_parts,objects,1000,0,10,2
96,45313,0,97,2,2,1,gain4,no_gain4,G,D,10,20,outdoor_scenes,69,19,faces,Stimuli/Experimental_stims/outdoor_scenes/shannon-kunkle-dM8INmkyDas-unsplash.jpg,Stimuli/Experimental_stims/faces/justin-chen-J7Cf1Gch49E-unsplash.jpg,0,1,858,1,unchosen,10,20,outdoor_scenes,faces,1600,0,10,2
97,45313,0,98,2,2,0,no_gain5,gain3,E,A,30,47,body_parts,36,62,objects,Stimuli/Experimental_stims/body_parts/mika-korhonen-Xodzxosar18-unsplash.jpg,Stimuli/Experimental_stims/objects/ronaldo-arthur-vidal-Cdz_lvnl37k-unsplash.jpg,0,0,631,1,chosen,47,30,objects,body_parts,1300,0,10,2
98,45313,0,99,2,2,1,gain2,no_gain4,J,D,23,36,faces,75,72,objects,Stimuli/Experimental_stims/faces/rikonavt-HQjfrvdTfak-unsplash.jpg,Stimuli/Experimental_stims/objects/alexander-andrews-JYGnB9gTCls-unsplash.jpg,0,1,896,1,chosen,23,36,faces,objects,3500,1,10,2
99,45313,0,100,2,2,0,no_gain2,gain4,I,G,7,43,outdoor_scenes,64,66,objects,Stimuli/Experimental_stims/outdoor_scenes/petr-vysohlid-9fqwGqGLUxc-unsplash.jpg,Stimuli/Experimental_stims/objects/jonathan-greenaway-Y4hGgeiFn3s-unsplash.jpg,0,0,573,1,chosen,43,7,objects,outdoor_scenes,2500,0,10,2
100,45313,0,101,2,2,1,gain5,no_gain6,K,L,44,27,objects,0,100,body_parts,Stimuli/Experimental_stims/objects/kuiye-chen-NuOGFo4PudE-unsplash.jpg,Stimuli/Experimental_stims/body_parts/heike-mintel-i_Gns0ELnLw-unsplash.jpg,0,0,618,0,unchosen,27,44,body_parts,objects,1100,0,10,2
101,45313,0,102,2,2,1,gain3,no_gain3,A,B,47,5,objects,62,71,outdoor_scenes,Stimuli/Experimental_stims/objects/ronaldo-arthur-vidal-Cdz_lvnl37k-unsplash.jpg,Stimuli/Experimental_stims/outdoor_scenes/jeff-king-bJHWJeiHfHc-unsplash.jpg,0,1,679,1,chosen,47,5,objects,outdoor_scenes,1000,0,10,2
102,45313,0,103,2,2,0,no_gain2,gain1,I,C,35,2,body_parts,21,73,outdoor_scenes,Stimuli/Experimental_stims/body_parts/wc-so-KH4AAPjb-tI-unsplash.jpg,Stimuli/Experimental_stims/outdoor_scenes/bruno-van-der-kraan-qez8mNJ3ilU-unsplash.jpg,0,0,866,1,unchosen,2,35,outdoor_scenes,body_parts,2100,0,10,2
103,45313,0,104,2,2,1,gain4,no_gain4,G,D,43,36,objects,66,72,objects,Stimuli/Experimental_stims/objects/jonathan-greenaway-Y4hGgeiFn3s-unsplash.jpg,Stimuli/Experimental_stims/objects/alexander-andrews-JYGnB9gTCls-unsplash.jpg,0,1,662,1,chosen,43,36,objects,objects,1300,0,10,2
104,45313,0,105,2,2,0,no_gain2,gain4,I,G,35,10,body_parts,21,69,outdoor_scenes,Stimuli/Experimental_stims/body_parts/wc-so-KH4AAPjb-tI-unsplash.jpg,Stimuli/Experimental_stims/outdoor_scenes/shannon-kunkle-dM8INmkyDas-unsplash.jpg,0,0,1306,1,unchosen,10,35,outdoor_scenes,body_parts,2000,0,10,2
105,45313,0,106,2,2,1,gain5,no_gain1,K,F,26,12,body_parts,0,19,faces,Stimuli/Experimental_stims/body_parts/engin-akyurt-x_3gyC42btc-unsplash.jpg,Stimuli/Experimental_stims/faces/aiony-haust-jmATI5Q_YgY-unsplash.jpg,0,1,644,1,chosen,26,12,body_parts,faces,3100,1,10,2
106,45313,0,107,2,2,0,no_gain6,gain3,L,A,27,6,body_parts,100,24,outdoor_scenes,Stimuli/Experimental_stims/body_parts/heike-mintel-i_Gns0ELnLw-unsplash.jpg,Stimuli/Experimental_stims/outdoor_scenes/meng-ji-8BH_M-53CyA-unsplash.jpg,0,1,611,0,unchosen,27,6,body_parts,outdoor_scenes,1400,0,10,2
107,45313,0,108,2,2,1,gain6,no_gain1,H,F,0,12,outdoor_scenes,100,19,faces,Stimuli/Experimental_stims/outdoor_scenes/aleksandra-boguslawska-MS7KD9Ti7FQ-unsplash.jpg,Stimuli/Experimental_stims/faces/aiony-haust-jmATI5Q_YgY-unsplash.jpg,0,1,669,1,chosen,0,12,outdoor_scenes,faces,1300,0,10,2
108,45313,0,109,2,2,0,no_gain2,gain5,I,K,7,26,outdoor_scenes,64,0,body_parts,Stimuli/Experimental_stims/outdoor_scenes/petr-vysohlid-9fqwGqGLUxc-unsplash.jpg,Stimuli/Experimental_stims/body_parts/engin-akyurt-x_3gyC42btc-unsplash.jpg,0,1,1062,0,chosen,7,26,outdoor_scenes,body_parts,1300,0,10,2
109,45313,0,110,2,2,0,no_gain5,gain5,E,K,39,44,objects,5,0,objects,Stimuli/Experimental_stims/objects/charlesdeluvio-1-nx1QR5dTE-unsplash.jpg,Stimuli/Experimental_stims/objects/kuiye-chen-NuOGFo4PudE-unsplash.jpg,0,1,1068,0,unchosen,39,44,objects,objects,1200,0,10,2
110,45313,0,111,2,2,0,no_gain5,gain1,E,C,39,2,objects,5,73,outdoor_scenes,Stimuli/Experimental_stims/objects/charlesdeluvio-1-nx1QR5dTE-unsplash.jpg,Stimuli/Experimental_stims/outdoor_scenes/bruno-van-der-kraan-qez8mNJ3ilU-unsplash.jpg,0,0,827,1,unchosen,2,39,outdoor_scenes,objects,1300,0,10,2
111,45313,0,112,2,2,0,no_gain6,gain5,L,K,14,26,faces,88,0,body_parts,Stimuli/Experimental_stims/faces/david-siglin-UuW4psOb388-unsplash.jpg,Stimuli/Experimental_stims/body_parts/engin-akyurt-x_3gyC42btc-unsplash.jpg,0,0,588,1,chosen,26,14,body_parts,faces,1100,0,10,2
112,45313,0,113,2,2,1,gain2,no_gain2,J,I,23,7,faces,75,64,outdoor_scenes,Stimuli/Experimental_stims/faces/rikonavt-HQjfrvdTfak-unsplash.jpg,Stimuli/Experimental_stims/outdoor_scenes/petr-vysohlid-9fqwGqGLUxc-unsplash.jpg,0,1,790,1,chosen,23,7,faces,outdoor_scenes,1900,0,10,2
113,45313,0,114,2,2,1,gain1,no_gain6,C,L,2,27,outdoor_scenes,73,100,body_parts,Stimuli/Experimental_stims/outdoor_scenes/bruno-van-der-kraan-qez8mNJ3ilU-unsplash.jpg,Stimuli/Experimental_stims/body_parts/heike-mintel-i_Gns0ELnLw-unsplash.jpg,0,0,1226,0,unchosen,27,2,body_parts,outdoor_scenes,2100,0,10,2
114,45313,0,115,2,2,0,no_gain3,gain5,B,K,18,44,faces,0,0,objects,Stimuli/Experimental_stims/faces/jessica-radanavong-mrYkTuAesKE-unsplash.jpg,Stimuli/Experimental_stims/objects/kuiye-chen-NuOGFo4PudE-unsplash.jpg,1,NaN,,NaN,unchosen,NaN,NaN,NaN,NaN,1400,0,10,2
115,45313,0,116,2,2,1,gain3,no_gain6,A,L,47,14,objects,62,88,faces,Stimuli/Experimental_stims/objects/ronaldo-arthur-vidal-Cdz_lvnl37k-unsplash.jpg,Stimuli/Experimental_stims/faces/david-siglin-UuW4psOb388-unsplash.jpg,0,1,668,1,chosen,47,14,objects,faces,1100,0,10,2
116,45313,0,117,2,2,0,no_gain5,gain5,E,K,30,26,body_parts,36,0,body_parts,Stimuli/Experimental_stims/body_parts/mika-korhonen-Xodzxosar18-unsplash.jpg,Stimuli/Experimental_stims/body_parts/engin-akyurt-x_3gyC42btc-unsplash.jpg,0,0,924,1,chosen,26,30,body_parts,body_parts,1600,0,10,2
117,45313,0,118,2,2,1,gain3,no_gain4,A,D,6,20,outdoor_scenes,24,19,faces,Stimuli/Experimental_stims/outdoor_scenes/meng-ji-8BH_M-53CyA-unsplash.jpg,Stimuli/Experimental_stims/faces/justin-chen-J7Cf1Gch49E-unsplash.jpg,0,1,646,1,unchosen,6,20,outdoor_scenes,faces,1300,0,10,2
118,45313,0,119,2,2,1,gain4,no_gain1,G,F,43,12,objects,66,19,faces,Stimuli/Experimental_stims/objects/jonathan-greenaway-Y4hGgeiFn3s-unsplash.jpg,Stimuli/Experimental_stims/faces/aiony-haust-jmATI5Q_YgY-unsplash.jpg,0,1,570,1,chosen,43,12,objects,faces,2500,0,10,2
119,45313,0,120,2,2,0,no_gain4,gain2,D,J,20,46,faces,19,68,objects,Stimuli/Experimental_stims/faces/justin-chen-J7Cf1Gch49E-unsplash.jpg,Stimuli/Experimental_stims/objects/mockup-graphics-PNsj6RiHAF4-unsplash.jpg,0,0,908,1,unchosen,46,20,objects,faces,4300,1,10,2
120,45313,0,121,2,2,0,no_gain3,gain4,B,G,5,43,outdoor_scenes,71,66,objects,Stimuli/Experimental_stims/outdoor_scenes/jeff-king-bJHWJeiHfHc-unsplash.jpg,Stimuli/Experimental_stims/objects/jonathan-greenaway-Y4hGgeiFn3s-unsplash.jpg,0,0,768,1,chosen,43,5,objects,outdoor_scenes,2400,0,10,2
121,45313,0,122,2,2,1,gain1,no_gain4,C,D,2,20,outdoor_scenes,73,19,faces,Stimuli/Experimental_stims/outdoor_scenes/bruno-van-der-kraan-qez8mNJ3ilU-unsplash.jpg,Stimuli/Experimental_stims/faces/justin-chen-J7Cf1Gch49E-unsplash.jpg,0,1,597,1,unchosen,2,20,outdoor_scenes,faces,1800,0,10,2
122,45313,0,123,2,2,1,gain6,no_gain3,H,B,0,5,outdoor_scenes,100,71,outdoor_scenes,Stimuli/Experimental_stims/outdoor_scenes/aleksandra-boguslawska-MS7KD9Ti7FQ-unsplash.jpg,Stimuli/Experimental_stims/outdoor_scenes/jeff-king-bJHWJeiHfHc-unsplash.jpg,0,0,903,0,chosen,5,0,outdoor_scenes,outdoor_scenes,1000,0,10,2
123,45313,0,124,2,2,1,gain5,no_gain1,K,F,44,33,objects,0,0,body_parts,Stimuli/Experimental_stims/objects/kuiye-chen-NuOGFo4PudE-unsplash.jpg,Stimuli/Experimental_stims/body_parts/tucker-good-36skLT5jZcc-unsplash.jpg,0,0,1095,0,unchosen,33,44,body_parts,objects,2000,0,10,2
124,45313,0,125,2,2,1,gain3,no_gain2,A,I,6,35,outdoor_scenes,24,21,body_parts,Stimuli/Experimental_stims/outdoor_scenes/meng-ji-8BH_M-53CyA-unsplash.jpg,Stimuli/Experimental_stims/body_parts/wc-so-KH4AAPjb-tI-unsplash.jpg,0,1,598,1,unchosen,6,35,outdoor_scenes,body_parts,2700,0,10,2
125,45313,0,126,2,2,0,no_gain2,gain2,I,J,35,46,body_parts,21,68,objects,Stimuli/Experimental_stims/body_parts/wc-so-KH4AAPjb-tI-unsplash.jpg,Stimuli/Experimental_stims/objects/mockup-graphics-PNsj6RiHAF4-unsplash.jpg,0,0,758,1,unchosen,46,35,objects,body_parts,2500,0,10,2
126,45313,0,127,2,2,0,no_gain4,gain1,D,C,36,29,objects,72,91,body_parts,Stimuli/Experimental_stims/objects/alexander-andrews-JYGnB9gTCls-unsplash.jpg,Stimuli/Experimental_stims/body_parts/manuel-schinner-ZwjFuJ7ebpk-unsplash.jpg,0,0,686,1,chosen,29,36,body_parts,objects,1800,0,10,2
127,45313,0,128,2,2,1,gain4,no_gain6,G,L,10,27,outdoor_scenes,69,100,body_parts,Stimuli/Experimental_stims/outdoor_scenes/shannon-kunkle-dM8INmkyDas-unsplash.jpg,Stimuli/Experimental_stims/body_parts/heike-mintel-i_Gns0ELnLw-unsplash.jpg,0,0,817,0,unchosen,27,10,body_parts,outdoor_scenes,1200,0,10,2
128,45313,0,129,2,2,0,no_gain1,gain2,F,J,33,46,body_parts,0,68,objects,Stimuli/Experimental_stims/body_parts/tucker-good-36skLT5jZcc-unsplash.jpg,Stimuli/Experimental_stims/objects/mockup-graphics-PNsj6RiHAF4-unsplash.jpg,0,0,815,1,unchosen,46,33,objects,body_parts,3800,1,10,2
129,45313,0,130,2,2,1,gain1,no_gain6,C,L,29,14,body_parts,91,88,faces,Stimuli/Experimental_stims/body_parts/manuel-schinner-ZwjFuJ7ebpk-unsplash.jpg,Stimuli/Experimental_stims/faces/david-siglin-UuW4psOb388-unsplash.jpg,0,1,834,1,chosen,29,14,body_parts,faces,1300,0,10,2
130,45313,0,131,2,2,1,gain6,no_gain4,H,D,22,20,faces,13,19,faces,Stimuli/Experimental_stims/faces/ravi-patel-VMGAbeeJTKo-unsplash.jpg,Stimuli/Experimental_stims/faces/justin-chen-J7Cf1Gch49E-unsplash.jpg,0,1,1016,1,unchosen,22,20,faces,faces,2900,0,10,2
131,45313,0,132,2,2,0,no_gain5,gain2,E,J,30,23,body_parts,36,75,faces,Stimuli/Experimental_stims/body_parts/mika-korhonen-Xodzxosar18-unsplash.jpg,Stimuli/Experimental_stims/faces/rikonavt-HQjfrvdTfak-unsplash.jpg,0,0,581,1,chosen,23,30,faces,body_parts,1200,0,10,2
132,45313,0,133,2,2,0,no_gain5,gain6,E,H,30,0,body_parts,36,100,outdoor_scenes,Stimuli/Experimental_stims/body_parts/mika-korhonen-Xodzxosar18-unsplash.jpg,Stimuli/Experimental_stims/outdoor_scenes/aleksandra-boguslawska-MS7KD9Ti7FQ-unsplash.jpg,0,0,865,1,chosen,0,30,outdoor_scenes,body_parts,1300,0,10,2
133,45313,0,134,2,2,0,no_gain2,gain6,I,H,35,22,body_parts,21,13,faces,Stimuli/Experimental_stims/body_parts/wc-so-KH4AAPjb-tI-unsplash.jpg,Stimuli/Experimental_stims/faces/ravi-patel-VMGAbeeJTKo-unsplash.jpg,0,0,972,1,unchosen,22,35,faces,body_parts,2500,0,10,2
134,45313,0,135,2,2,1,gain5,no_gain3,K,B,26,5,body_parts,0,71,outdoor_scenes,Stimuli/Experimental_stims/body_parts/engin-akyurt-x_3gyC42btc-unsplash.jpg,Stimuli/Experimental_stims/outdoor_scenes/jeff-king-bJHWJeiHfHc-unsplash.jpg,0,0,896,0,chosen,5,26,outdoor_scenes,body_parts,3000,0,10,2
135,45313,0,136,2,2,1,gain4,no_gain5,G,E,43,30,objects,66,36,body_parts,Stimuli/Experimental_stims/objects/jonathan-greenaway-Y4hGgeiFn3s-unsplash.jpg,Stimuli/Experimental_stims/body_parts/mika-korhonen-Xodzxosar18-unsplash.jpg,0,1,574,1,chosen,43,30,objects,body_parts,4200,1,10,2
136,45313,0,137,2,2,0,no_gain6,gain6,L,H,27,22,body_parts,100,13,faces,Stimuli/Experimental_stims/body_parts/heike-mintel-i_Gns0ELnLw-unsplash.jpg,Stimuli/Experimental_stims/faces/ravi-patel-VMGAbeeJTKo-unsplash.jpg,0,1,931,0,unchosen,27,22,body_parts,faces,1700,0,10,2
137,45313,0,138,2,2,0,no_gain3,gain1,B,C,5,29,outdoor_scenes,71,91,body_parts,Stimuli/Experimental_stims/outdoor_scenes/jeff-king-bJHWJeiHfHc-unsplash.jpg,Stimuli/Experimental_stims/body_parts/manuel-schinner-ZwjFuJ7ebpk-unsplash.jpg,0,0,1069,1,chosen,29,5,body_parts,outdoor_scenes,1300,0,10,2
138,45313,0,139,2,2,0,no_gain2,gain1,I,C,7,29,outdoor_scenes,64,91,body_parts,Stimuli/Experimental_stims/outdoor_scenes/petr-vysohlid-9fqwGqGLUxc-unsplash.jpg,Stimuli/Experimental_stims/body_parts/manuel-schinner-ZwjFuJ7ebpk-unsplash.jpg,0,0,950,1,chosen,29,7,body_parts,outdoor_scenes,1100,0,10,2
139,45313,0,140,2,2,0,no_gain2,gain6,I,H,7,0,outdoor_scenes,64,100,outdoor_scenes,Stimuli/Experimental_stims/outdoor_scenes/petr-vysohlid-9fqwGqGLUxc-unsplash.jpg,Stimuli/Experimental_stims/outdoor_scenes/aleksandra-boguslawska-MS7KD9Ti7FQ-unsplash.jpg,0,1,1037,0,chosen,7,0,outdoor_scenes,outdoor_scenes,1300,0,10,2
140,45313,0,141,2,2,1,gain5,no_gain4,K,D,44,20,objects,0,19,faces,Stimuli/Experimental_stims/objects/kuiye-chen-NuOGFo4PudE-unsplash.jpg,Stimuli/Experimental_stims/faces/justin-chen-J7Cf1Gch49E-unsplash.jpg,0,0,681,0,unchosen,20,44,faces,objects,1500,0,10,2
141,45313,0,142,2,2,0,no_gain5,gain1,E,C,30,29,body_parts,36,91,body_parts,Stimuli/Experimental_stims/body_parts/mika-korhonen-Xodzxosar18-unsplash.jpg,Stimuli/Experimental_stims/body_parts/manuel-schinner-ZwjFuJ7ebpk-unsplash.jpg,0,0,744,1,chosen,29,30,body_parts,body_parts,1800,0,10,2
142,45313,0,143,2,2,0,no_gain1,gain4,F,G,33,10,body_parts,0,69,outdoor_scenes,Stimuli/Experimental_stims/body_parts/tucker-good-36skLT5jZcc-unsplash.jpg,Stimuli/Experimental_stims/outdoor_scenes/shannon-kunkle-dM8INmkyDas-unsplash.jpg,0,0,810,1,unchosen,10,33,outdoor_scenes,body_parts,1400,0,10,2
143,45313,0,144,2,2,1,gain3,no_gain5,A,E,6,39,outdoor_scenes,24,5,objects,Stimuli/Experimental_stims/outdoor_scenes/meng-ji-8BH_M-53CyA-unsplash.jpg,Stimuli/Experimental_stims/objects/charlesdeluvio-1-nx1QR5dTE-unsplash.jpg,0,1,873,1,unchosen,6,39,outdoor_scenes,objects,1400,0,10,2
144,45313,0,145,2,2,0,no_gain4,gain3,D,A,36,47,objects,72,62,objects,Stimuli/Experimental_stims/objects/alexander-andrews-JYGnB9gTCls-unsplash.jpg,Stimuli/Experimental_stims/objects/ronaldo-arthur-vidal-Cdz_lvnl37k-unsplash.jpg,0,0,768,1,chosen,47,36,objects,objects,1600,0,10,2
145,45313,0,146,2,2,1,gain1,no_gain3,C,B,2,18,outdoor_scenes,73,0,faces,Stimuli/Experimental_stims/outdoor_scenes/bruno-van-der-kraan-qez8mNJ3ilU-unsplash.jpg,Stimuli/Experimental_stims/faces/jessica-radanavong-mrYkTuAesKE-unsplash.jpg,0,1,896,1,unchosen,2,18,outdoor_scenes,faces,2000,0,10,2
146,45313,0,147,2,2,0,no_gain1,gain1,F,C,33,2,body_parts,0,73,outdoor_scenes,Stimuli/Experimental_stims/body_parts/tucker-good-36skLT5jZcc-unsplash.jpg,Stimuli/Experimental_stims/outdoor_scenes/bruno-van-der-kraan-qez8mNJ3ilU-unsplash.jpg,0,0,616,1,unchosen,2,33,outdoor_scenes,body_parts,2500,0,10,2
147,45313,0,148,2,2,1,gain2,no_gain3,J,B,23,5,faces,75,71,outdoor_scenes,Stimuli/Experimental_stims/faces/rikonavt-HQjfrvdTfak-unsplash.jpg,Stimuli/Experimental_stims/outdoor_scenes/jeff-king-bJHWJeiHfHc-unsplash.jpg,0,1,728,1,chosen,23,5,faces,outdoor_scenes,3300,1,10,2
148,45313,0,149,3,3,0,no_gain1,gain2,F,J,33,46,body_parts,0,68,objects,Stimuli/Experimental_stims/body_parts/tucker-good-36skLT5jZcc-unsplash.jpg,Stimuli/Experimental_stims/objects/mockup-graphics-PNsj6RiHAF4-unsplash.jpg,0,0,974,1,unchosen,46,33,objects,body_parts,2200,0,10,2
149,45313,0,150,3,3,1,gain2,no_gain4,J,D,46,20,objects,68,19,faces,Stimuli/Experimental_stims/objects/mockup-graphics-PNsj6RiHAF4-unsplash.jpg,Stimuli/Experimental_stims/faces/justin-chen-J7Cf1Gch49E-unsplash.jpg,0,1,916,1,unchosen,46,20,objects,faces,1200,0,10,2
150,45313,0,151,3,3,0,no_gain5,gain1,E,C,39,2,objects,5,73,outdoor_scenes,Stimuli/Experimental_stims/objects/charlesdeluvio-1-nx1QR5dTE-unsplash.jpg,Stimuli/Experimental_stims/outdoor_scenes/bruno-van-der-kraan-qez8mNJ3ilU-unsplash.jpg,0,0,863,1,unchosen,2,39,outdoor_scenes,objects,1700,0,10,2
151,45313,0,152,3,3,0,no_gain6,gain4,L,G,14,43,faces,88,66,objects,Stimuli/Experimental_stims/faces/david-siglin-UuW4psOb388-unsplash.jpg,Stimuli/Experimental_stims/objects/jonathan-greenaway-Y4hGgeiFn3s-unsplash.jpg,0,0,625,1,chosen,43,14,objects,faces,1100,0,10,2
152,45313,0,153,3,3,0,no_gain1,gain3,F,A,12,47,faces,19,62,objects,Stimuli/Experimental_stims/faces/aiony-haust-jmATI5Q_YgY-unsplash.jpg,Stimuli/Experimental_stims/objects/ronaldo-arthur-vidal-Cdz_lvnl37k-unsplash.jpg,0,0,556,1,chosen,47,12,objects,faces,1000,0,10,2
153,45313,0,154,3,3,1,gain4,no_gain3,G,B,10,18,outdoor_scenes,69,0,faces,Stimuli/Experimental_stims/outdoor_scenes/shannon-kunkle-dM8INmkyDas-unsplash.jpg,Stimuli/Experimental_stims/faces/jessica-radanavong-mrYkTuAesKE-unsplash.jpg,0,1,683,1,unchosen,10,18,outdoor_scenes,faces,1900,0,10,2
154,45313,0,155,3,3,1,gain3,no_gain3,A,B,6,18,outdoor_scenes,24,0,faces,Stimuli/Experimental_stims/outdoor_scenes/meng-ji-8BH_M-53CyA-unsplash.jpg,Stimuli/Experimental_stims/faces/jessica-radanavong-mrYkTuAesKE-unsplash.jpg,0,1,503,1,unchosen,6,18,outdoor_scenes,faces,4700,1,10,2
155,45313,0,156,3,3,1,gain5,no_gain5,K,E,26,30,body_parts,0,36,body_parts,Stimuli/Experimental_stims/body_parts/engin-akyurt-x_3gyC42btc-unsplash.jpg,Stimuli/Experimental_stims/body_parts/mika-korhonen-Xodzxosar18-unsplash.jpg,0,1,1304,1,chosen,26,30,body_parts,body_parts,2400,0,10,2
156,45313,0,157,3,3,1,gain6,no_gain3,H,B,22,18,faces,13,0,faces,Stimuli/Experimental_stims/faces/ravi-patel-VMGAbeeJTKo-unsplash.jpg,Stimuli/Experimental_stims/faces/jessica-radanavong-mrYkTuAesKE-unsplash.jpg,0,0,546,0,unchosen,18,22,faces,faces,1900,0,10,2
157,45313,0,158,3,3,1,gain1,no_gain4,C,D,29,36,body_parts,91,72,objects,Stimuli/Experimental_stims/body_parts/manuel-schinner-ZwjFuJ7ebpk-unsplash.jpg,Stimuli/Experimental_stims/objects/alexander-andrews-JYGnB9gTCls-unsplash.jpg,0,1,882,1,chosen,29,36,body_parts,objects,1000,0,10,2
158,45313,0,159,3,3,0,no_gain2,gain6,I,H,7,0,outdoor_scenes,64,100,outdoor_scenes,Stimuli/Experimental_stims/outdoor_scenes/petr-vysohlid-9fqwGqGLUxc-unsplash.jpg,Stimuli/Experimental_stims/outdoor_scenes/aleksandra-boguslawska-MS7KD9Ti7FQ-unsplash.jpg,0,1,849,0,chosen,7,0,outdoor_scenes,outdoor_scenes,1800,0,10,2
159,45313,0,160,3,3,1,gain4,no_gain4,G,D,10,20,outdoor_scenes,69,19,faces,Stimuli/Experimental_stims/outdoor_scenes/shannon-kunkle-dM8INmkyDas-unsplash.jpg,Stimuli/Experimental_stims/faces/justin-chen-J7Cf1Gch49E-unsplash.jpg,0,1,543,1,unchosen,10,20,outdoor_scenes,faces,1800,0,10,2
160,45313,0,161,3,3,0,no_gain4,gain3,D,A,20,6,faces,19,24,outdoor_scenes,Stimuli/Experimental_stims/faces/justin-chen-J7Cf1Gch49E-unsplash.jpg,Stimuli/Experimental_stims/outdoor_scenes/meng-ji-8BH_M-53CyA-unsplash.jpg,0,1,432,0,unchosen,20,6,faces,outdoor_scenes,4700,1,10,2
161,45313,0,162,3,3,0,no_gain1,gain4,F,G,33,10,body_parts,0,69,outdoor_scenes,Stimuli/Experimental_stims/body_parts/tucker-good-36skLT5jZcc-unsplash.jpg,Stimuli/Experimental_stims/outdoor_scenes/shannon-kunkle-dM8INmkyDas-unsplash.jpg,0,0,923,1,unchosen,10,33,outdoor_scenes,body_parts,1300,0,10,2
162,45313,0,163,3,3,1,gain2,no_gain5,J,E,23,30,faces,75,36,body_parts,Stimuli/Experimental_stims/faces/rikonavt-HQjfrvdTfak-unsplash.jpg,Stimuli/Experimental_stims/body_parts/mika-korhonen-Xodzxosar18-unsplash.jpg,0,1,589,1,chosen,23,30,faces,body_parts,1200,0,10,2
163,45313,0,164,3,3,0,no_gain3,gain4,B,G,5,43,outdoor_scenes,71,66,objects,Stimuli/Experimental_stims/outdoor_scenes/jeff-king-bJHWJeiHfHc-unsplash.jpg,Stimuli/Experimental_stims/objects/jonathan-greenaway-Y4hGgeiFn3s-unsplash.jpg,0,0,631,1,chosen,43,5,objects,outdoor_scenes,1600,0,10,2
164,45313,0,165,3,3,0,no_gain2,gain5,I,K,35,44,body_parts,21,0,objects,Stimuli/Experimental_stims/body_parts/wc-so-KH4AAPjb-tI-unsplash.jpg,Stimuli/Experimental_stims/objects/kuiye-chen-NuOGFo4PudE-unsplash.jpg,0,1,847,0,unchosen,35,44,body_parts,objects,1200,0,10,2
165,45313,0,166,3,3,1,gain6,no_gain5,H,E,22,39,faces,13,5,objects,Stimuli/Experimental_stims/faces/ravi-patel-VMGAbeeJTKo-unsplash.jpg,Stimuli/Experimental_stims/objects/charlesdeluvio-1-nx1QR5dTE-unsplash.jpg,0,1,859,1,unchosen,22,39,faces,objects,1100,0,10,2
166,45313,0,167,3,3,0,no_gain6,gain3,L,A,14,47,faces,88,62,objects,Stimuli/Experimental_stims/faces/david-siglin-UuW4psOb388-unsplash.jpg,Stimuli/Experimental_stims/objects/ronaldo-arthur-vidal-Cdz_lvnl37k-unsplash.jpg,0,0,709,1,chosen,47,14,objects,faces,3100,1,10,2
167,45313,0,168,3,3,0,no_gain5,gain3,E,A,39,6,objects,5,24,outdoor_scenes,Stimuli/Experimental_stims/objects/charlesdeluvio-1-nx1QR5dTE-unsplash.jpg,Stimuli/Experimental_stims/outdoor_scenes/meng-ji-8BH_M-53CyA-unsplash.jpg,0,0,781,1,unchosen,6,39,outdoor_scenes,objects,1500,0,10,2
168,45313,0,169,3,3,0,no_gain4,gain3,D,A,36,47,objects,72,62,objects,Stimuli/Experimental_stims/objects/alexander-andrews-JYGnB9gTCls-unsplash.jpg,Stimuli/Experimental_stims/objects/ronaldo-arthur-vidal-Cdz_lvnl37k-unsplash.jpg,0,0,677,1,chosen,47,36,objects,objects,1000,0,10,2
169,45313,0,170,3,3,0,no_gain5,gain2,E,J,39,46,objects,5,68,objects,Stimuli/Experimental_stims/objects/charlesdeluvio-1-nx1QR5dTE-unsplash.jpg,Stimuli/Experimental_stims/objects/mockup-graphics-PNsj6RiHAF4-unsplash.jpg,0,0,709,1,unchosen,46,39,objects,objects,1500,0,10,2
170,45313,0,171,3,3,0,no_gain3,gain2,B,J,5,23,outdoor_scenes,71,75,faces,Stimuli/Experimental_stims/outdoor_scenes/jeff-king-bJHWJeiHfHc-unsplash.jpg,Stimuli/Experimental_stims/faces/rikonavt-HQjfrvdTfak-unsplash.jpg,0,0,651,1,chosen,23,5,faces,outdoor_scenes,1400,0,10,2
171,45313,0,172,3,3,1,gain1,no_gain2,C,I,29,7,body_parts,91,64,outdoor_scenes,Stimuli/Experimental_stims/body_parts/manuel-schinner-ZwjFuJ7ebpk-unsplash.jpg,Stimuli/Experimental_stims/outdoor_scenes/petr-vysohlid-9fqwGqGLUxc-unsplash.jpg,0,1,876,1,chosen,29,7,body_parts,outdoor_scenes,3500,1,10,2
172,45313,0,173,3,3,0,no_gain4,gain2,D,J,36,23,objects,72,75,faces,Stimuli/Experimental_stims/objects/alexander-andrews-JYGnB9gTCls-unsplash.jpg,Stimuli/Experimental_stims/faces/rikonavt-HQjfrvdTfak-unsplash.jpg,0,0,636,1,chosen,23,36,faces,objects,1600,0,10,2
173,45313,0,174,3,3,0,no_gain4,gain5,D,K,20,44,faces,19,0,objects,Stimuli/Experimental_stims/faces/justin-chen-J7Cf1Gch49E-unsplash.jpg,Stimuli/Experimental_stims/objects/kuiye-chen-NuOGFo4PudE-unsplash.jpg,0,1,1001,0,unchosen,20,44,faces,objects,2200,0,10,2
174,45313,0,175,3,3,0,no_gain3,gain2,B,J,18,46,faces,0,68,objects,Stimuli/Experimental_stims/faces/jessica-radanavong-mrYkTuAesKE-unsplash.jpg,Stimuli/Experimental_stims/objects/mockup-graphics-PNsj6RiHAF4-unsplash.jpg,0,0,673,1,unchosen,46,18,objects,faces,1200,0,10,2
175,45313,0,176,3,3,1,gain2,no_gain2,J,I,46,35,objects,68,21,body_parts,Stimuli/Experimental_stims/objects/mockup-graphics-PNsj6RiHAF4-unsplash.jpg,Stimuli/Experimental_stims/body_parts/wc-so-KH4AAPjb-tI-unsplash.jpg,0,1,930,1,unchosen,46,35,objects,body_parts,1900,0,10,2
176,45313,0,177,3,3,0,no_gain6,gain5,L,K,14,26,faces,88,0,body_parts,Stimuli/Experimental_stims/faces/david-siglin-UuW4psOb388-unsplash.jpg,Stimuli/Experimental_stims/body_parts/engin-akyurt-x_3gyC42btc-unsplash.jpg,0,0,663,1,chosen,26,14,body_parts,faces,2000,0,10,2
177,45313,0,178,3,3,1,gain6,no_gain1,H,F,0,12,outdoor_scenes,100,19,faces,Stimuli/Experimental_stims/outdoor_scenes/aleksandra-boguslawska-MS7KD9Ti7FQ-unsplash.jpg,Stimuli/Experimental_stims/faces/aiony-haust-jmATI5Q_YgY-unsplash.jpg,0,1,614,1,chosen,0,12,outdoor_scenes,faces,1800,0,10,2
178,45313,0,179,3,3,0,no_gain1,gain2,F,J,12,23,faces,19,75,faces,Stimuli/Experimental_stims/faces/aiony-haust-jmATI5Q_YgY-unsplash.jpg,Stimuli/Experimental_stims/faces/rikonavt-HQjfrvdTfak-unsplash.jpg,0,0,649,1,chosen,23,12,faces,faces,2200,0,10,2
179,45313,0,180,3,3,0,no_gain2,gain3,I,A,35,6,body_parts,21,24,outdoor_scenes,Stimuli/Experimental_stims/body_parts/wc-so-KH4AAPjb-tI-unsplash.jpg,Stimuli/Experimental_stims/outdoor_scenes/meng-ji-8BH_M-53CyA-unsplash.jpg,0,0,905,1,unchosen,6,35,outdoor_scenes,body_parts,2300,0,10,2
180,45313,0,181,3,3,1,gain6,no_gain3,H,B,0,5,outdoor_scenes,100,71,outdoor_scenes,Stimuli/Experimental_stims/outdoor_scenes/aleksandra-boguslawska-MS7KD9Ti7FQ-unsplash.jpg,Stimuli/Experimental_stims/outdoor_scenes/jeff-king-bJHWJeiHfHc-unsplash.jpg,0,0,992,0,chosen,5,0,outdoor_scenes,outdoor_scenes,4300,1,10,2
181,45313,0,182,3,3,1,gain5,no_gain3,K,B,26,5,body_parts,0,71,outdoor_scenes,Stimuli/Experimental_stims/body_parts/engin-akyurt-x_3gyC42btc-unsplash.jpg,Stimuli/Experimental_stims/outdoor_scenes/jeff-king-bJHWJeiHfHc-unsplash.jpg,0,1,1079,1,chosen,26,5,body_parts,outdoor_scenes,1600,0,10,2
182,45313,0,183,3,3,0,no_gain2,gain4,I,G,35,10,body_parts,21,69,outdoor_scenes,Stimuli/Experimental_stims/body_parts/wc-so-KH4AAPjb-tI-unsplash.jpg,Stimuli/Experimental_stims/outdoor_scenes/shannon-kunkle-dM8INmkyDas-unsplash.jpg,0,0,790,1,unchosen,10,35,outdoor_scenes,body_parts,1600,0,10,2
183,45313,0,184,3,3,1,gain3,no_gain1,A,F,6,33,outdoor_scenes,24,0,body_parts,Stimuli/Experimental_stims/outdoor_scenes/meng-ji-8BH_M-53CyA-unsplash.jpg,Stimuli/Experimental_stims/body_parts/tucker-good-36skLT5jZcc-unsplash.jpg,0,1,1052,1,unchosen,6,33,outdoor_scenes,body_parts,1100,0,10,2
184,45313,0,185,3,3,1,gain6,no_gain6,H,L,0,14,outdoor_scenes,100,88,faces,Stimuli/Experimental_stims/outdoor_scenes/aleksandra-boguslawska-MS7KD9Ti7FQ-unsplash.jpg,Stimuli/Experimental_stims/faces/david-siglin-UuW4psOb388-unsplash.jpg,0,1,617,1,chosen,0,14,outdoor_scenes,faces,1000,0,10,2
185,45313,0,186,3,3,0,no_gain1,gain5,F,K,12,26,faces,19,0,body_parts,Stimuli/Experimental_stims/faces/aiony-haust-jmATI5Q_YgY-unsplash.jpg,Stimuli/Experimental_stims/body_parts/engin-akyurt-x_3gyC42btc-unsplash.jpg,0,0,538,1,chosen,26,12,body_parts,faces,1000,0,10,2
186,45313,0,187,3,3,0,no_gain1,gain5,F,K,33,44,body_parts,0,0,objects,Stimuli/Experimental_stims/body_parts/tucker-good-36skLT5jZcc-unsplash.jpg,Stimuli/Experimental_stims/objects/kuiye-chen-NuOGFo4PudE-unsplash.jpg,0,1,731,0,unchosen,33,44,body_parts,objects,3000,1,10,2
187,45313,0,188,3,3,1,gain4,no_gain1,G,F,43,12,objects,66,19,faces,Stimuli/Experimental_stims/objects/jonathan-greenaway-Y4hGgeiFn3s-unsplash.jpg,Stimuli/Experimental_stims/faces/aiony-haust-jmATI5Q_YgY-unsplash.jpg,0,1,633,1,chosen,43,12,objects,faces,1000,0,10,2
188,45313,0,189,3,3,1,gain3,no_gain3,A,B,47,5,objects,62,71,outdoor_scenes,Stimuli/Experimental_stims/objects/ronaldo-arthur-vidal-Cdz_lvnl37k-unsplash.jpg,Stimuli/Experimental_stims/outdoor_scenes/jeff-king-bJHWJeiHfHc-unsplash.jpg,0,1,583,1,chosen,47,5,objects,outdoor_scenes,1600,0,10,2
189,45313,0,190,3,3,0,no_gain2,gain5,I,K,7,26,outdoor_scenes,64,0,body_parts,Stimuli/Experimental_stims/outdoor_scenes/petr-vysohlid-9fqwGqGLUxc-unsplash.jpg,Stimuli/Experimental_stims/body_parts/engin-akyurt-x_3gyC42btc-unsplash.jpg,0,1,710,0,chosen,7,26,outdoor_scenes,body_parts,1500,0,10,2
190,45313,0,191,3,3,0,no_gain1,gain6,F,H,33,22,body_parts,0,13,faces,Stimuli/Experimental_stims/body_parts/tucker-good-36skLT5jZcc-unsplash.jpg,Stimuli/Experimental_stims/faces/ravi-patel-VMGAbeeJTKo-unsplash.jpg,0,1,544,0,unchosen,33,22,body_parts,faces,1700,0,10,2
191,45313,0,192,3,3,1,gain5,no_gain6,K,L,44,27,objects,0,100,body_parts,Stimuli/Experimental_stims/objects/kuiye-chen-NuOGFo4PudE-unsplash.jpg,Stimuli/Experimental_stims/body_parts/heike-mintel-i_Gns0ELnLw-unsplash.jpg,0,0,539,0,unchosen,27,44,body_parts,objects,1300,0,10,2
192,45313,0,193,3,3,0,no_gain5,gain4,E,G,39,10,objects,5,69,outdoor_scenes,Stimuli/Experimental_stims/objects/charlesdeluvio-1-nx1QR5dTE-unsplash.jpg,Stimuli/Experimental_stims/outdoor_scenes/shannon-kunkle-dM8INmkyDas-unsplash.jpg,0,0,612,1,unchosen,10,39,outdoor_scenes,objects,1300,0,10,2
193,45313,0,194,3,3,1,gain1,no_gain5,C,E,29,30,body_parts,91,36,body_parts,Stimuli/Experimental_stims/body_parts/manuel-schinner-ZwjFuJ7ebpk-unsplash.jpg,Stimuli/Experimental_stims/body_parts/mika-korhonen-Xodzxosar18-unsplash.jpg,0,1,624,1,chosen,29,30,body_parts,body_parts,3600,1,10,2
194,45313,0,195,3,3,1,gain6,no_gain4,H,D,22,20,faces,13,19,faces,Stimuli/Experimental_stims/faces/ravi-patel-VMGAbeeJTKo-unsplash.jpg,Stimuli/Experimental_stims/faces/justin-chen-J7Cf1Gch49E-unsplash.jpg,0,1,1043,1,unchosen,22,20,faces,faces,2100,0,10,2
195,45313,0,196,3,3,1,gain1,no_gain1,C,F,29,12,body_parts,91,19,faces,Stimuli/Experimental_stims/body_parts/manuel-schinner-ZwjFuJ7ebpk-unsplash.jpg,Stimuli/Experimental_stims/faces/aiony-haust-jmATI5Q_YgY-unsplash.jpg,0,1,692,1,chosen,29,12,body_parts,faces,1600,0,10,2
196,45313,0,197,3,3,1,gain4,no_gain6,G,L,10,27,outdoor_scenes,69,100,body_parts,Stimuli/Experimental_stims/outdoor_scenes/shannon-kunkle-dM8INmkyDas-unsplash.jpg,Stimuli/Experimental_stims/body_parts/heike-mintel-i_Gns0ELnLw-unsplash.jpg,0,1,566,1,unchosen,10,27,outdoor_scenes,body_parts,1800,0,10,2
197,45313,0,198,3,3,1,gain3,no_gain6,A,L,6,27,outdoor_scenes,24,100,body_parts,Stimuli/Experimental_stims/outdoor_scenes/meng-ji-8BH_M-53CyA-unsplash.jpg,Stimuli/Experimental_stims/body_parts/heike-mintel-i_Gns0ELnLw-unsplash.jpg,0,0,951,0,unchosen,27,6,body_parts,outdoor_scenes,1600,0,10,2
198,45313,0,199,3,3,1,gain1,no_gain3,C,B,29,5,body_parts,91,71,outdoor_scenes,Stimuli/Experimental_stims/body_parts/manuel-schinner-ZwjFuJ7ebpk-unsplash.jpg,Stimuli/Experimental_stims/outdoor_scenes/jeff-king-bJHWJeiHfHc-unsplash.jpg,0,1,682,1,chosen,29,5,body_parts,outdoor_scenes,3100,1,10,2
199,45313,0,200,3,3,0,no_gain5,gain4,E,G,30,43,body_parts,36,66,objects,Stimuli/Experimental_stims/body_parts/mika-korhonen-Xodzxosar18-unsplash.jpg,Stimuli/Experimental_stims/objects/jonathan-greenaway-Y4hGgeiFn3s-unsplash.jpg,0,0,549,1,chosen,43,30,objects,body_parts,2500,0,10,2
200,45313,0,201,3,3,0,no_gain1,gain1,F,C,33,2,body_parts,0,73,outdoor_scenes,Stimuli/Experimental_stims/body_parts/tucker-good-36skLT5jZcc-unsplash.jpg,Stimuli/Experimental_stims/outdoor_scenes/bruno-van-der-kraan-qez8mNJ3ilU-unsplash.jpg,0,1,637,0,unchosen,33,2,body_parts,outdoor_scenes,2000,0,10,2
201,45313,0,202,3,3,0,no_gain4,gain4,D,G,36,43,objects,72,66,objects,Stimuli/Experimental_stims/objects/alexander-andrews-JYGnB9gTCls-unsplash.jpg,Stimuli/Experimental_stims/objects/jonathan-greenaway-Y4hGgeiFn3s-unsplash.jpg,0,0,549,1,chosen,43,36,objects,objects,2100,0,10,2
202,45313,0,203,3,3,1,gain3,no_gain5,A,E,47,30,objects,62,36,body_parts,Stimuli/Experimental_stims/objects/ronaldo-arthur-vidal-Cdz_lvnl37k-unsplash.jpg,Stimuli/Experimental_stims/body_parts/mika-korhonen-Xodzxosar18-unsplash.jpg,0,1,563,1,chosen,47,30,objects,body_parts,1200,0,10,2
203,45313,0,204,3,3,1,gain1,no_gain6,C,L,2,27,outdoor_scenes,73,100,body_parts,Stimuli/Experimental_stims/outdoor_scenes/bruno-van-der-kraan-qez8mNJ3ilU-unsplash.jpg,Stimuli/Experimental_stims/body_parts/heike-mintel-i_Gns0ELnLw-unsplash.jpg,0,1,1004,1,unchosen,2,27,outdoor_scenes,body_parts,3300,1,10,2
204,45313,0,205,3,3,1,gain3,no_gain2,A,I,47,7,objects,62,64,outdoor_scenes,Stimuli/Experimental_stims/objects/ronaldo-arthur-vidal-Cdz_lvnl37k-unsplash.jpg,Stimuli/Experimental_stims/outdoor_scenes/petr-vysohlid-9fqwGqGLUxc-unsplash.jpg,0,1,511,1,chosen,47,7,objects,outdoor_scenes,2100,0,10,2
205,45313,0,206,3,3,0,no_gain4,gain5,D,K,36,26,objects,72,0,body_parts,Stimuli/Experimental_stims/objects/alexander-andrews-JYGnB9gTCls-unsplash.jpg,Stimuli/Experimental_stims/body_parts/engin-akyurt-x_3gyC42btc-unsplash.jpg,0,0,708,1,chosen,26,36,body_parts,objects,2100,0,10,2
206,45313,0,207,3,3,1,gain2,no_gain6,J,L,23,14,faces,75,88,faces,Stimuli/Experimental_stims/faces/rikonavt-HQjfrvdTfak-unsplash.jpg,Stimuli/Experimental_stims/faces/david-siglin-UuW4psOb388-unsplash.jpg,0,1,589,1,chosen,23,14,faces,faces,2600,0,10,2
207,45313,0,208,3,3,1,gain1,no_gain2,C,I,2,35,outdoor_scenes,73,21,body_parts,Stimuli/Experimental_stims/outdoor_scenes/bruno-van-der-kraan-qez8mNJ3ilU-unsplash.jpg,Stimuli/Experimental_stims/body_parts/wc-so-KH4AAPjb-tI-unsplash.jpg,0,1,988,1,unchosen,2,35,outdoor_scenes,body_parts,2800,0,10,2
208,45313,0,209,3,3,1,gain1,no_gain4,C,D,2,20,outdoor_scenes,73,19,faces,Stimuli/Experimental_stims/outdoor_scenes/bruno-van-der-kraan-qez8mNJ3ilU-unsplash.jpg,Stimuli/Experimental_stims/faces/justin-chen-J7Cf1Gch49E-unsplash.jpg,0,1,705,1,unchosen,2,20,outdoor_scenes,faces,2100,0,10,2
209,45313,0,210,3,3,0,no_gain6,gain1,L,C,14,29,faces,88,91,body_parts,Stimuli/Experimental_stims/faces/david-siglin-UuW4psOb388-unsplash.jpg,Stimuli/Experimental_stims/body_parts/manuel-schinner-ZwjFuJ7ebpk-unsplash.jpg,0,0,620,1,chosen,29,14,body_parts,faces,1300,0,10,2
210,45313,0,211,3,3,0,no_gain5,gain6,E,H,30,0,body_parts,36,100,outdoor_scenes,Stimuli/Experimental_stims/body_parts/mika-korhonen-Xodzxosar18-unsplash.jpg,Stimuli/Experimental_stims/outdoor_scenes/aleksandra-boguslawska-MS7KD9Ti7FQ-unsplash.jpg,0,1,664,0,chosen,30,0,body_parts,outdoor_scenes,3900,1,10,2
211,45313,0,212,3,3,0,no_gain2,gain6,I,H,35,22,body_parts,21,13,faces,Stimuli/Experimental_stims/body_parts/wc-so-KH4AAPjb-tI-unsplash.jpg,Stimuli/Experimental_stims/faces/ravi-patel-VMGAbeeJTKo-unsplash.jpg,0,1,760,0,unchosen,35,22,body_parts,faces,1600,0,10,2
212,45313,0,213,3,3,1,gain4,no_gain2,G,I,43,7,objects,66,64,outdoor_scenes,Stimuli/Experimental_stims/objects/jonathan-greenaway-Y4hGgeiFn3s-unsplash.jpg,Stimuli/Experimental_stims/outdoor_scenes/petr-vysohlid-9fqwGqGLUxc-unsplash.jpg,0,1,577,1,chosen,43,7,objects,outdoor_scenes,1300,0,10,2
213,45313,0,214,3,3,0,no_gain3,gain5,B,K,18,44,faces,0,0,objects,Stimuli/Experimental_stims/faces/jessica-radanavong-mrYkTuAesKE-unsplash.jpg,Stimuli/Experimental_stims/objects/kuiye-chen-NuOGFo4PudE-unsplash.jpg,0,1,645,0,unchosen,18,44,faces,objects,1700,0,10,2
214,45313,0,215,3,3,1,gain2,no_gain6,J,L,46,27,objects,68,100,body_parts,Stimuli/Experimental_stims/objects/mockup-graphics-PNsj6RiHAF4-unsplash.jpg,Stimuli/Experimental_stims/body_parts/heike-mintel-i_Gns0ELnLw-unsplash.jpg,0,1,653,1,unchosen,46,27,objects,body_parts,1600,0,10,2
215,45313,0,216,3,3,0,no_gain4,gain6,D,H,36,0,objects,72,100,outdoor_scenes,Stimuli/Experimental_stims/objects/alexander-andrews-JYGnB9gTCls-unsplash.jpg,Stimuli/Experimental_stims/outdoor_scenes/aleksandra-boguslawska-MS7KD9Ti7FQ-unsplash.jpg,0,0,827,1,chosen,0,36,outdoor_scenes,objects,3600,1,10,2
216,45313,0,217,3,3,1,gain5,no_gain5,K,E,44,39,objects,0,5,objects,Stimuli/Experimental_stims/objects/kuiye-chen-NuOGFo4PudE-unsplash.jpg,Stimuli/Experimental_stims/objects/charlesdeluvio-1-nx1QR5dTE-unsplash.jpg,0,0,951,0,unchosen,39,44,objects,objects,2700,0,10,2
217,45313,0,218,3,3,1,gain2,no_gain2,J,I,23,7,faces,75,64,outdoor_scenes,Stimuli/Experimental_stims/faces/rikonavt-HQjfrvdTfak-unsplash.jpg,Stimuli/Experimental_stims/outdoor_scenes/petr-vysohlid-9fqwGqGLUxc-unsplash.jpg,0,1,584,1,chosen,23,7,faces,outdoor_scenes,2800,0,10,2
218,45313,0,219,3,3,0,no_gain6,gain6,L,H,27,22,body_parts,100,13,faces,Stimuli/Experimental_stims/body_parts/heike-mintel-i_Gns0ELnLw-unsplash.jpg,Stimuli/Experimental_stims/faces/ravi-patel-VMGAbeeJTKo-unsplash.jpg,0,1,904,0,unchosen,27,22,body_parts,faces,2800,0,10,2
219,45313,0,220,3,3,1,gain1,no_gain3,C,B,2,18,outdoor_scenes,73,0,faces,Stimuli/Experimental_stims/outdoor_scenes/bruno-van-der-kraan-qez8mNJ3ilU-unsplash.jpg,Stimuli/Experimental_stims/faces/jessica-radanavong-mrYkTuAesKE-unsplash.jpg,0,1,918,1,unchosen,2,18,outdoor_scenes,faces,1100,0,10,2
220,45313,0,221,4,4,0,no_gain6,gain2,L,J,14,23,faces,88,75,faces,Stimuli/Experimental_stims/faces/david-siglin-UuW4psOb388-unsplash.jpg,Stimuli/Experimental_stims/faces/rikonavt-HQjfrvdTfak-unsplash.jpg,0,0,638,1,chosen,23,14,faces,faces,4200,1,9,2
221,45313,0,222,4,4,1,gain4,no_gain2,G,I,10,35,outdoor_scenes,69,21,body_parts,Stimuli/Experimental_stims/outdoor_scenes/shannon-kunkle-dM8INmkyDas-unsplash.jpg,Stimuli/Experimental_stims/body_parts/wc-so-KH4AAPjb-tI-unsplash.jpg,0,1,1145,1,unchosen,10,35,outdoor_scenes,body_parts,2400,0,9,2
222,45313,0,223,4,4,1,gain2,no_gain1,J,F,23,12,faces,75,19,faces,Stimuli/Experimental_stims/faces/rikonavt-HQjfrvdTfak-unsplash.jpg,Stimuli/Experimental_stims/faces/aiony-haust-jmATI5Q_YgY-unsplash.jpg,0,1,721,1,chosen,23,12,faces,faces,1200,0,9,2
223,45313,0,224,4,4,0,no_gain4,gain4,D,G,36,43,objects,72,66,objects,Stimuli/Experimental_stims/objects/alexander-andrews-JYGnB9gTCls-unsplash.jpg,Stimuli/Experimental_stims/objects/jonathan-greenaway-Y4hGgeiFn3s-unsplash.jpg,0,0,840,1,chosen,43,36,objects,objects,1400,0,9,2
224,45313,0,225,4,4,0,no_gain4,gain6,D,H,20,22,faces,19,13,faces,Stimuli/Experimental_stims/faces/justin-chen-J7Cf1Gch49E-unsplash.jpg,Stimuli/Experimental_stims/faces/ravi-patel-VMGAbeeJTKo-unsplash.jpg,0,0,933,1,unchosen,22,20,faces,faces,1800,0,9,2
225,45313,0,226,4,4,0,no_gain4,gain5,D,K,20,44,faces,19,0,objects,Stimuli/Experimental_stims/faces/justin-chen-J7Cf1Gch49E-unsplash.jpg,Stimuli/Experimental_stims/objects/kuiye-chen-NuOGFo4PudE-unsplash.jpg,0,1,782,0,unchosen,20,44,faces,objects,2200,0,9,2
226,45313,0,227,4,4,1,gain4,no_gain1,G,F,43,12,objects,66,19,faces,Stimuli/Experimental_stims/objects/jonathan-greenaway-Y4hGgeiFn3s-unsplash.jpg,Stimuli/Experimental_stims/faces/aiony-haust-jmATI5Q_YgY-unsplash.jpg,0,0,547,0,chosen,12,43,faces,objects,4000,1,9,2
227,45313,0,228,4,4,1,gain3,no_gain2,A,I,47,7,objects,62,64,outdoor_scenes,Stimuli/Experimental_stims/objects/ronaldo-arthur-vidal-Cdz_lvnl37k-unsplash.jpg,Stimuli/Experimental_stims/outdoor_scenes/petr-vysohlid-9fqwGqGLUxc-unsplash.jpg,0,1,619,1,chosen,47,7,objects,outdoor_scenes,1900,0,9,2
228,45313,0,229,4,4,0,no_gain5,gain4,E,G,30,43,body_parts,36,66,objects,Stimuli/Experimental_stims/body_parts/mika-korhonen-Xodzxosar18-unsplash.jpg,Stimuli/Experimental_stims/objects/jonathan-greenaway-Y4hGgeiFn3s-unsplash.jpg,0,0,638,1,chosen,43,30,objects,body_parts,1800,0,9,2
229,45313,0,230,4,4,0,no_gain4,gain3,D,A,20,6,faces,19,24,outdoor_scenes,Stimuli/Experimental_stims/faces/justin-chen-J7Cf1Gch49E-unsplash.jpg,Stimuli/Experimental_stims/outdoor_scenes/meng-ji-8BH_M-53CyA-unsplash.jpg,0,0,808,1,unchosen,6,20,outdoor_scenes,faces,1200,0,9,2
230,45313,0,231,4,4,0,no_gain3,gain5,B,K,18,44,faces,0,0,objects,Stimuli/Experimental_stims/faces/jessica-radanavong-mrYkTuAesKE-unsplash.jpg,Stimuli/Experimental_stims/objects/kuiye-chen-NuOGFo4PudE-unsplash.jpg,0,1,1292,0,unchosen,18,44,faces,objects,1700,0,9,2
231,45313,0,232,4,4,0,no_gain2,gain5,I,K,35,44,body_parts,21,0,objects,Stimuli/Experimental_stims/body_parts/wc-so-KH4AAPjb-tI-unsplash.jpg,Stimuli/Experimental_stims/objects/kuiye-chen-NuOGFo4PudE-unsplash.jpg,0,1,827,0,unchosen,35,44,body_parts,objects,3500,1,9,2
232,45313,0,233,4,4,1,gain3,no_gain3,A,B,47,5,objects,62,71,outdoor_scenes,Stimuli/Experimental_stims/objects/ronaldo-arthur-vidal-Cdz_lvnl37k-unsplash.jpg,Stimuli/Experimental_stims/outdoor_scenes/jeff-king-bJHWJeiHfHc-unsplash.jpg,0,1,885,1,chosen,47,5,objects,outdoor_scenes,1700,0,9,2
233,45313,0,234,4,4,1,gain2,no_gain2,J,I,46,35,objects,68,21,body_parts,Stimuli/Experimental_stims/objects/mockup-graphics-PNsj6RiHAF4-unsplash.jpg,Stimuli/Experimental_stims/body_parts/wc-so-KH4AAPjb-tI-unsplash.jpg,0,1,997,1,unchosen,46,35,objects,body_parts,2000,0,9,2
234,45313,0,235,4,4,0,no_gain6,gain5,L,K,27,44,body_parts,100,0,objects,Stimuli/Experimental_stims/body_parts/heike-mintel-i_Gns0ELnLw-unsplash.jpg,Stimuli/Experimental_stims/objects/kuiye-chen-NuOGFo4PudE-unsplash.jpg,0,1,671,0,unchosen,27,44,body_parts,objects,1300,0,9,2
235,45313,0,236,4,4,1,gain6,no_gain1,H,F,0,12,outdoor_scenes,100,19,faces,Stimuli/Experimental_stims/outdoor_scenes/aleksandra-boguslawska-MS7KD9Ti7FQ-unsplash.jpg,Stimuli/Experimental_stims/faces/aiony-haust-jmATI5Q_YgY-unsplash.jpg,0,1,851,1,chosen,0,12,outdoor_scenes,faces,1400,0,9,2
236,45313,0,237,4,4,1,gain1,no_gain4,C,D,2,20,outdoor_scenes,73,19,faces,Stimuli/Experimental_stims/outdoor_scenes/bruno-van-der-kraan-qez8mNJ3ilU-unsplash.jpg,Stimuli/Experimental_stims/faces/justin-chen-J7Cf1Gch49E-unsplash.jpg,0,1,789,1,unchosen,2,20,outdoor_scenes,faces,3600,1,9,2
237,45313,0,238,4,4,0,no_gain3,gain4,B,G,5,43,outdoor_scenes,71,66,objects,Stimuli/Experimental_stims/outdoor_scenes/jeff-king-bJHWJeiHfHc-unsplash.jpg,Stimuli/Experimental_stims/objects/jonathan-greenaway-Y4hGgeiFn3s-unsplash.jpg,0,0,578,1,chosen,43,5,objects,outdoor_scenes,2700,0,9,2
238,45313,0,239,4,4,0,no_gain5,gain1,E,C,39,2,objects,5,73,outdoor_scenes,Stimuli/Experimental_stims/objects/charlesdeluvio-1-nx1QR5dTE-unsplash.jpg,Stimuli/Experimental_stims/outdoor_scenes/bruno-van-der-kraan-qez8mNJ3ilU-unsplash.jpg,0,0,853,1,unchosen,2,39,outdoor_scenes,objects,1900,0,9,2
239,45313,0,240,4,4,0,no_gain1,gain3,F,A,33,6,body_parts,0,24,outdoor_scenes,Stimuli/Experimental_stims/body_parts/tucker-good-36skLT5jZcc-unsplash.jpg,Stimuli/Experimental_stims/outdoor_scenes/meng-ji-8BH_M-53CyA-unsplash.jpg,0,0,1150,1,unchosen,6,33,outdoor_scenes,body_parts,1200,0,9,2
240,45313,0,241,4,4,0,no_gain2,gain1,I,C,35,2,body_parts,21,73,outdoor_scenes,Stimuli/Experimental_stims/body_parts/wc-so-KH4AAPjb-tI-unsplash.jpg,Stimuli/Experimental_stims/outdoor_scenes/bruno-van-der-kraan-qez8mNJ3ilU-unsplash.jpg,0,0,898,1,unchosen,2,35,outdoor_scenes,body_parts,1000,0,9,2
241,45313,0,242,4,4,1,gain3,no_gain4,A,D,47,36,objects,62,72,objects,Stimuli/Experimental_stims/objects/ronaldo-arthur-vidal-Cdz_lvnl37k-unsplash.jpg,Stimuli/Experimental_stims/objects/alexander-andrews-JYGnB9gTCls-unsplash.jpg,0,1,766,1,chosen,47,36,objects,objects,3700,1,9,2
242,45313,0,243,4,4,0,no_gain4,gain1,D,C,36,29,objects,72,91,body_parts,Stimuli/Experimental_stims/objects/alexander-andrews-JYGnB9gTCls-unsplash.jpg,Stimuli/Experimental_stims/body_parts/manuel-schinner-ZwjFuJ7ebpk-unsplash.jpg,0,0,814,1,chosen,29,36,body_parts,objects,1200,0,9,2
243,45313,0,244,4,4,1,gain2,no_gain3,J,B,46,18,objects,68,0,faces,Stimuli/Experimental_stims/objects/mockup-graphics-PNsj6RiHAF4-unsplash.jpg,Stimuli/Experimental_stims/faces/jessica-radanavong-mrYkTuAesKE-unsplash.jpg,0,0,1073,0,unchosen,18,46,faces,objects,2600,0,9,2
244,45313,0,245,4,4,1,gain4,no_gain4,G,D,10,20,outdoor_scenes,69,19,faces,Stimuli/Experimental_stims/outdoor_scenes/shannon-kunkle-dM8INmkyDas-unsplash.jpg,Stimuli/Experimental_stims/faces/justin-chen-J7Cf1Gch49E-unsplash.jpg,0,1,773,1,unchosen,10,20,outdoor_scenes,faces,2400,0,9,2
245,45313,0,246,4,4,1,gain2,no_gain6,J,L,46,27,objects,68,100,body_parts,Stimuli/Experimental_stims/objects/mockup-graphics-PNsj6RiHAF4-unsplash.jpg,Stimuli/Experimental_stims/body_parts/heike-mintel-i_Gns0ELnLw-unsplash.jpg,0,0,975,0,unchosen,27,46,body_parts,objects,1200,0,9,2
246,45313,0,247,4,4,0,no_gain6,gain6,L,H,14,0,faces,88,100,outdoor_scenes,Stimuli/Experimental_stims/faces/david-siglin-UuW4psOb388-unsplash.jpg,Stimuli/Experimental_stims/outdoor_scenes/aleksandra-boguslawska-MS7KD9Ti7FQ-unsplash.jpg,0,0,606,1,chosen,0,14,outdoor_scenes,faces,2500,0,9,2
247,45313,0,248,4,4,1,gain2,no_gain5,J,E,46,39,objects,68,5,objects,Stimuli/Experimental_stims/objects/mockup-graphics-PNsj6RiHAF4-unsplash.jpg,Stimuli/Experimental_stims/objects/charlesdeluvio-1-nx1QR5dTE-unsplash.jpg,0,1,766,1,unchosen,46,39,objects,objects,2200,0,9,2
248,45313,0,249,4,4,0,no_gain1,gain3,F,A,12,47,faces,19,62,objects,Stimuli/Experimental_stims/faces/aiony-haust-jmATI5Q_YgY-unsplash.jpg,Stimuli/Experimental_stims/objects/ronaldo-arthur-vidal-Cdz_lvnl37k-unsplash.jpg,0,0,680,1,chosen,47,12,objects,faces,1100,0,9,2
249,45313,0,250,4,4,0,no_gain6,gain1,L,C,14,29,faces,88,91,body_parts,Stimuli/Experimental_stims/faces/david-siglin-UuW4psOb388-unsplash.jpg,Stimuli/Experimental_stims/body_parts/manuel-schinner-ZwjFuJ7ebpk-unsplash.jpg,0,0,577,1,chosen,29,14,body_parts,faces,1700,0,9,2
250,45313,0,251,4,4,0,no_gain1,gain2,F,J,33,46,body_parts,0,68,objects,Stimuli/Experimental_stims/body_parts/tucker-good-36skLT5jZcc-unsplash.jpg,Stimuli/Experimental_stims/objects/mockup-graphics-PNsj6RiHAF4-unsplash.jpg,0,1,726,0,unchosen,33,46,body_parts,objects,1100,0,9,2
251,45313,0,252,4,4,1,gain6,no_gain3,H,B,0,5,outdoor_scenes,100,71,outdoor_scenes,Stimuli/Experimental_stims/outdoor_scenes/aleksandra-boguslawska-MS7KD9Ti7FQ-unsplash.jpg,Stimuli/Experimental_stims/outdoor_scenes/jeff-king-bJHWJeiHfHc-unsplash.jpg,0,0,837,0,chosen,5,0,outdoor_scenes,outdoor_scenes,1900,0,9,2
252,45313,0,253,4,4,1,gain4,no_gain1,G,F,10,33,outdoor_scenes,69,0,body_parts,Stimuli/Experimental_stims/outdoor_scenes/shannon-kunkle-dM8INmkyDas-unsplash.jpg,Stimuli/Experimental_stims/body_parts/tucker-good-36skLT5jZcc-unsplash.jpg,0,1,750,1,unchosen,10,33,outdoor_scenes,body_parts,1100,0,9,2
253,45313,0,254,4,4,1,gain4,no_gain5,G,E,10,39,outdoor_scenes,69,5,objects,Stimuli/Experimental_stims/outdoor_scenes/shannon-kunkle-dM8INmkyDas-unsplash.jpg,Stimuli/Experimental_stims/objects/charlesdeluvio-1-nx1QR5dTE-unsplash.jpg,0,1,859,1,unchosen,10,39,outdoor_scenes,objects,1000,0,9,2
254,45313,0,255,4,4,1,gain6,no_gain6,H,L,22,27,faces,13,100,body_parts,Stimuli/Experimental_stims/faces/ravi-patel-VMGAbeeJTKo-unsplash.jpg,Stimuli/Experimental_stims/body_parts/heike-mintel-i_Gns0ELnLw-unsplash.jpg,0,0,743,0,unchosen,27,22,body_parts,faces,1600,0,9,2
255,45313,0,256,4,4,0,no_gain4,gain5,D,K,36,26,objects,72,0,body_parts,Stimuli/Experimental_stims/objects/alexander-andrews-JYGnB9gTCls-unsplash.jpg,Stimuli/Experimental_stims/body_parts/engin-akyurt-x_3gyC42btc-unsplash.jpg,0,0,783,1,chosen,26,36,body_parts,objects,2700,0,9,2
256,45313,0,257,4,4,1,gain4,no_gain6,G,L,10,27,outdoor_scenes,69,100,body_parts,Stimuli/Experimental_stims/outdoor_scenes/shannon-kunkle-dM8INmkyDas-unsplash.jpg,Stimuli/Experimental_stims/body_parts/heike-mintel-i_Gns0ELnLw-unsplash.jpg,0,1,959,1,unchosen,10,27,outdoor_scenes,body_parts,3500,1,9,2
257,45313,0,258,4,4,0,no_gain2,gain6,I,H,35,22,body_parts,21,13,faces,Stimuli/Experimental_stims/body_parts/wc-so-KH4AAPjb-tI-unsplash.jpg,Stimuli/Experimental_stims/faces/ravi-patel-VMGAbeeJTKo-unsplash.jpg,0,1,772,0,unchosen,35,22,body_parts,faces,1000,0,9,2
258,45313,0,259,4,4,0,no_gain2,gain3,I,A,35,6,body_parts,21,24,outdoor_scenes,Stimuli/Experimental_stims/body_parts/wc-so-KH4AAPjb-tI-unsplash.jpg,Stimuli/Experimental_stims/outdoor_scenes/meng-ji-8BH_M-53CyA-unsplash.jpg,0,0,711,1,unchosen,6,35,outdoor_scenes,body_parts,1700,0,9,2
259,45313,0,260,4,4,1,gain2,no_gain5,J,E,23,30,faces,75,36,body_parts,Stimuli/Experimental_stims/faces/rikonavt-HQjfrvdTfak-unsplash.jpg,Stimuli/Experimental_stims/body_parts/mika-korhonen-Xodzxosar18-unsplash.jpg,0,1,599,1,chosen,23,30,faces,body_parts,1500,0,9,2
260,45313,0,261,4,4,1,gain3,no_gain5,A,E,47,30,objects,62,36,body_parts,Stimuli/Experimental_stims/objects/ronaldo-arthur-vidal-Cdz_lvnl37k-unsplash.jpg,Stimuli/Experimental_stims/body_parts/mika-korhonen-Xodzxosar18-unsplash.jpg,0,1,604,1,chosen,47,30,objects,body_parts,1400,0,9,2
261,45313,0,262,4,4,1,gain5,no_gain3,K,B,26,5,body_parts,0,71,outdoor_scenes,Stimuli/Experimental_stims/body_parts/engin-akyurt-x_3gyC42btc-unsplash.jpg,Stimuli/Experimental_stims/outdoor_scenes/jeff-king-bJHWJeiHfHc-unsplash.jpg,0,0,688,0,chosen,5,26,outdoor_scenes,body_parts,1300,0,9,2
262,45313,0,263,4,4,1,gain5,no_gain5,K,E,44,39,objects,0,5,objects,Stimuli/Experimental_stims/objects/kuiye-chen-NuOGFo4PudE-unsplash.jpg,Stimuli/Experimental_stims/objects/charlesdeluvio-1-nx1QR5dTE-unsplash.jpg,0,0,937,0,unchosen,39,44,objects,objects,4500,1,9,2
263,45313,0,264,4,4,0,no_gain5,gain6,E,H,39,22,objects,5,13,faces,Stimuli/Experimental_stims/objects/charlesdeluvio-1-nx1QR5dTE-unsplash.jpg,Stimuli/Experimental_stims/faces/ravi-patel-VMGAbeeJTKo-unsplash.jpg,0,1,683,0,unchosen,39,22,objects,faces,1900,0,9,2
264,45313,0,265,4,4,0,no_gain6,gain1,L,C,27,2,body_parts,100,73,outdoor_scenes,Stimuli/Experimental_stims/body_parts/heike-mintel-i_Gns0ELnLw-unsplash.jpg,Stimuli/Experimental_stims/outdoor_scenes/bruno-van-der-kraan-qez8mNJ3ilU-unsplash.jpg,0,1,700,0,unchosen,27,2,body_parts,outdoor_scenes,1900,0,9,2
265,45313,0,266,4,4,1,gain5,no_gain5,K,E,26,30,body_parts,0,36,body_parts,Stimuli/Experimental_stims/body_parts/engin-akyurt-x_3gyC42btc-unsplash.jpg,Stimuli/Experimental_stims/body_parts/mika-korhonen-Xodzxosar18-unsplash.jpg,0,1,1005,1,chosen,26,30,body_parts,body_parts,1600,0,9,2
266,45313,0,267,4,4,0,no_gain2,gain4,I,G,7,43,outdoor_scenes,64,66,objects,Stimuli/Experimental_stims/outdoor_scenes/petr-vysohlid-9fqwGqGLUxc-unsplash.jpg,Stimuli/Experimental_stims/objects/jonathan-greenaway-Y4hGgeiFn3s-unsplash.jpg,0,0,591,1,chosen,43,7,objects,outdoor_scenes,2300,0,9,2
267,45313,0,268,4,4,1,gain6,no_gain2,H,I,0,7,outdoor_scenes,100,64,outdoor_scenes,Stimuli/Experimental_stims/outdoor_scenes/aleksandra-boguslawska-MS7KD9Ti7FQ-unsplash.jpg,Stimuli/Experimental_stims/outdoor_scenes/petr-vysohlid-9fqwGqGLUxc-unsplash.jpg,0,0,845,0,chosen,7,0,outdoor_scenes,outdoor_scenes,3700,1,9,2
268,45313,0,269,4,4,0,no_gain3,gain3,B,A,18,6,faces,0,24,outdoor_scenes,Stimuli/Experimental_stims/faces/jessica-radanavong-mrYkTuAesKE-unsplash.jpg,Stimuli/Experimental_stims/outdoor_scenes/meng-ji-8BH_M-53CyA-unsplash.jpg,0,0,1188,1,unchosen,6,18,outdoor_scenes,faces,1200,0,9,2
269,45313,0,270,4,4,1,gain4,no_gain3,G,B,10,18,outdoor_scenes,69,0,faces,Stimuli/Experimental_stims/outdoor_scenes/shannon-kunkle-dM8INmkyDas-unsplash.jpg,Stimuli/Experimental_stims/faces/jessica-radanavong-mrYkTuAesKE-unsplash.jpg,0,0,890,0,unchosen,18,10,faces,outdoor_scenes,1900,0,9,2
270,45313,0,271,4,4,0,no_gain3,gain1,B,C,18,2,faces,0,73,outdoor_scenes,Stimuli/Experimental_stims/faces/jessica-radanavong-mrYkTuAesKE-unsplash.jpg,Stimuli/Experimental_stims/outdoor_scenes/bruno-van-der-kraan-qez8mNJ3ilU-unsplash.jpg,0,0,770,1,unchosen,2,18,outdoor_scenes,faces,2000,0,9,2
271,45313,0,272,4,4,1,gain1,no_gain3,C,B,29,5,body_parts,91,71,outdoor_scenes,Stimuli/Experimental_stims/body_parts/manuel-schinner-ZwjFuJ7ebpk-unsplash.jpg,Stimuli/Experimental_stims/outdoor_scenes/jeff-king-bJHWJeiHfHc-unsplash.jpg,0,1,714,1,chosen,29,5,body_parts,outdoor_scenes,2700,0,9,2
272,45313,0,273,4,4,1,gain6,no_gain5,H,E,0,30,outdoor_scenes,100,36,body_parts,Stimuli/Experimental_stims/outdoor_scenes/aleksandra-boguslawska-MS7KD9Ti7FQ-unsplash.jpg,Stimuli/Experimental_stims/body_parts/mika-korhonen-Xodzxosar18-unsplash.jpg,0,1,850,1,chosen,0,30,outdoor_scenes,body_parts,1100,0,9,2
273,45313,0,274,4,4,0,no_gain2,gain1,I,C,7,29,outdoor_scenes,64,91,body_parts,Stimuli/Experimental_stims/outdoor_scenes/petr-vysohlid-9fqwGqGLUxc-unsplash.jpg,Stimuli/Experimental_stims/body_parts/manuel-schinner-ZwjFuJ7ebpk-unsplash.jpg,0,0,995,1,chosen,29,7,body_parts,outdoor_scenes,4200,1,9,2
274,45313,0,275,4,4,1,gain3,no_gain6,A,L,6,27,outdoor_scenes,24,100,body_parts,Stimuli/Experimental_stims/outdoor_scenes/meng-ji-8BH_M-53CyA-unsplash.jpg,Stimuli/Experimental_stims/body_parts/heike-mintel-i_Gns0ELnLw-unsplash.jpg,0,0,840,0,unchosen,27,6,body_parts,outdoor_scenes,1300,0,9,2
275,45313,0,276,4,4,1,gain1,no_gain5,C,E,29,30,body_parts,91,36,body_parts,Stimuli/Experimental_stims/body_parts/manuel-schinner-ZwjFuJ7ebpk-unsplash.jpg,Stimuli/Experimental_stims/body_parts/mika-korhonen-Xodzxosar18-unsplash.jpg,0,1,637,1,chosen,29,30,body_parts,body_parts,2000,0,9,2
276,45313,0,277,4,4,0,no_gain3,gain2,B,J,5,23,outdoor_scenes,71,75,faces,Stimuli/Experimental_stims/outdoor_scenes/jeff-king-bJHWJeiHfHc-unsplash.jpg,Stimuli/Experimental_stims/faces/rikonavt-HQjfrvdTfak-unsplash.jpg,0,0,700,1,chosen,23,5,faces,outdoor_scenes,1100,0,9,2
277,45313,0,278,4,4,1,gain5,no_gain1,K,F,44,33,objects,0,0,body_parts,Stimuli/Experimental_stims/objects/kuiye-chen-NuOGFo4PudE-unsplash.jpg,Stimuli/Experimental_stims/body_parts/tucker-good-36skLT5jZcc-unsplash.jpg,0,0,631,0,unchosen,33,44,body_parts,objects,2300,0,9,2
278,45313,0,279,4,4,1,gain2,no_gain2,J,I,23,7,faces,75,64,outdoor_scenes,Stimuli/Experimental_stims/faces/rikonavt-HQjfrvdTfak-unsplash.jpg,Stimuli/Experimental_stims/outdoor_scenes/petr-vysohlid-9fqwGqGLUxc-unsplash.jpg,0,1,616,1,chosen,23,7,faces,outdoor_scenes,2900,0,9,2
279,45313,0,280,4,4,0,no_gain2,gain5,I,K,7,26,outdoor_scenes,64,0,body_parts,Stimuli/Experimental_stims/outdoor_scenes/petr-vysohlid-9fqwGqGLUxc-unsplash.jpg,Stimuli/Experimental_stims/body_parts/engin-akyurt-x_3gyC42btc-unsplash.jpg,0,1,973,0,chosen,7,26,outdoor_scenes,body_parts,1200,0,9,2
280,45313,0,281,4,4,1,gain5,no_gain6,K,L,26,14,body_parts,0,88,faces,Stimuli/Experimental_stims/body_parts/engin-akyurt-x_3gyC42btc-unsplash.jpg,Stimuli/Experimental_stims/faces/david-siglin-UuW4psOb388-unsplash.jpg,0,1,838,1,chosen,26,14,body_parts,faces,1500,0,9,2
281,45313,0,282,4,4,1,gain6,no_gain3,H,B,22,18,faces,13,0,faces,Stimuli/Experimental_stims/faces/ravi-patel-VMGAbeeJTKo-unsplash.jpg,Stimuli/Experimental_stims/faces/jessica-radanavong-mrYkTuAesKE-unsplash.jpg,0,1,913,1,unchosen,22,18,faces,faces,1100,0,9,2
282,45313,0,283,4,4,0,no_gain6,gain4,L,G,14,43,faces,88,66,objects,Stimuli/Experimental_stims/faces/david-siglin-UuW4psOb388-unsplash.jpg,Stimuli/Experimental_stims/objects/jonathan-greenaway-Y4hGgeiFn3s-unsplash.jpg,0,0,623,1,chosen,43,14,objects,faces,1200,0,9,2
283,45313,0,284,4,4,0,no_gain4,gain2,D,J,36,23,objects,72,75,faces,Stimuli/Experimental_stims/objects/alexander-andrews-JYGnB9gTCls-unsplash.jpg,Stimuli/Experimental_stims/faces/rikonavt-HQjfrvdTfak-unsplash.jpg,0,0,551,1,chosen,23,36,faces,objects,1400,0,9,2
284,45313,0,285,4,4,1,gain2,no_gain4,J,D,46,20,objects,68,19,faces,Stimuli/Experimental_stims/objects/mockup-graphics-PNsj6RiHAF4-unsplash.jpg,Stimuli/Experimental_stims/faces/justin-chen-J7Cf1Gch49E-unsplash.jpg,0,1,674,1,unchosen,46,20,objects,faces,1100,0,9,2
285,45313,0,286,4,4,1,gain3,no_gain6,A,L,47,14,objects,62,88,faces,Stimuli/Experimental_stims/objects/ronaldo-arthur-vidal-Cdz_lvnl37k-unsplash.jpg,Stimuli/Experimental_stims/faces/david-siglin-UuW4psOb388-unsplash.jpg,0,1,652,1,chosen,47,14,objects,faces,2100,0,9,2
286,45313,0,287,4,4,0,no_gain1,gain1,F,C,33,2,body_parts,0,73,outdoor_scenes,Stimuli/Experimental_stims/body_parts/tucker-good-36skLT5jZcc-unsplash.jpg,Stimuli/Experimental_stims/outdoor_scenes/bruno-van-der-kraan-qez8mNJ3ilU-unsplash.jpg,0,1,794,0,unchosen,33,2,body_parts,outdoor_scenes,3300,1,9,2
287,45313,0,288,4,4,0,no_gain1,gain6,F,H,33,22,body_parts,0,13,faces,Stimuli/Experimental_stims/body_parts/tucker-good-36skLT5jZcc-unsplash.jpg,Stimuli/Experimental_stims/faces/ravi-patel-VMGAbeeJTKo-unsplash.jpg,0,1,546,0,unchosen,33,22,body_parts,faces,1900,0,9,2
288,45313,0,289,4,4,0,no_gain1,gain5,F,K,12,26,faces,19,0,body_parts,Stimuli/Experimental_stims/faces/aiony-haust-jmATI5Q_YgY-unsplash.jpg,Stimuli/Experimental_stims/body_parts/engin-akyurt-x_3gyC42btc-unsplash.jpg,0,0,622,1,chosen,26,12,body_parts,faces,2000,0,9,2
289,45313,0,290,4,4,0,no_gain4,gain6,D,H,36,0,objects,72,100,outdoor_scenes,Stimuli/Experimental_stims/objects/alexander-andrews-JYGnB9gTCls-unsplash.jpg,Stimuli/Experimental_stims/outdoor_scenes/aleksandra-boguslawska-MS7KD9Ti7FQ-unsplash.jpg,0,0,574,1,chosen,0,36,outdoor_scenes,objects,1100,0,9,2
290,45313,0,291,4,4,1,gain3,no_gain5,A,E,6,39,outdoor_scenes,24,5,objects,Stimuli/Experimental_stims/outdoor_scenes/meng-ji-8BH_M-53CyA-unsplash.jpg,Stimuli/Experimental_stims/objects/charlesdeluvio-1-nx1QR5dTE-unsplash.jpg,0,1,847,1,unchosen,6,39,outdoor_scenes,objects,1800,0,9,2
291,45313,0,292,4,4,0,no_gain1,gain1,F,C,12,29,faces,19,91,body_parts,Stimuli/Experimental_stims/faces/aiony-haust-jmATI5Q_YgY-unsplash.jpg,Stimuli/Experimental_stims/body_parts/manuel-schinner-ZwjFuJ7ebpk-unsplash.jpg,0,0,649,1,chosen,29,12,body_parts,faces,3200,1,9,2