,PID,practice,trial,block,run,gain_left,left_item_id,right_item_id,left_pair_id,right_pair_id,left_stimulus,right_stimulus,left_category,right_category,left_rating,right_rating,left_path,right_path,no_response,left_chosen,rt,higher_outcome_chosen,choice_type,chosen_stimulus,unchosen_stimulus,chosen_category,unchosen_category,iti,long_iti,simulation,version
0,17620,1,1,0,0,0,,,,,,,,,,,Stimuli/Practice_stims/Final_decisions/debby-hudson-FmCSSSGge-0-unsplash.jpg,Stimuli/Practice_stims/Final_decisions/yassine-khalfalli-adsQ9d_Cx0c-unsplash.jpg,0,1,1015,0,,,,,,3000,0,6,1
1,17620,1,2,0,0,0,,,,,,,,,,,Stimuli/Practice_stims/Final_decisions/florian-wehde-iVW7mZPwd4g-unsplash.jpg,Stimuli/Practice_stims/Final_decisions/patrick-perkins-3wylDrjxH-E-unsplash.jpg,0,0,4,1,,,,,,1500,0,6,1
2,17620,1,3,0,0,0,,,,,,,,,,,Stimuli/Practice_stims/Final_decisions/debby-hudson-FmCSSSGge-0-unsplash.jpg,Stimuli/Practice_stims/Final_decisions/florian-wehde-iVW7mZPwd4g-unsplash.jpg,0,0,591,1,,,,,,2000,0,6,1
3,17620,1,4,0,0,0,,,,,,,,,,,Stimuli/Practice_stims/Final_decisions/yassine-khalfalli-adsQ9d_Cx0c-unsplash.jpg,Stimuli/Practice_stims/Final_decisions/debby-hudson-FmCSSSGge-0-unsplash.jpg,0,1,1421,0,,,,,,1000,0,6,1
4,17620,0,5,1,1,0,no_gain4,gain5,H,A,17,11,faces,outdoor_scenes,51,66,Stimuli/Experimental_stims/faces/good-faces-xmSWVeGEnJw-unsplash.jpg,Stimuli/Experimental_stims/outdoor_scenes/stephen-leonardi-gyIRjKPXupE-unsplash.jpg,0,0,1193,1,chosen,11,17,outdoor_scenes,faces,1800,0,6,1
5,17620,0,6,1,1,1,gain3,no_gain6,C,B,3,10,outdoor_scenes,outdoor_scenes,51,51,Stimuli/Experimental_stims/outdoor_scenes/henry-be-NLF6hTe4PAg-unsplash.jpg,Stimuli/Experimental_stims/outdoor_scenes/shannon-kunkle-dM8INmkyDas-unsplash.jpg,1,NaN,,NaN,chosen,NaN,NaN,NaN,NaN,1700,0,6,1
6,17620,0,7,1,1,1,gain6,no_gain3,G,E,4,30,outdoor_scenes,body_parts,42,51,Stimuli/Experimental_stims/outdoor_scenes/jarrett-kow-1ZOyYPOBn7I-unsplash.jpg,Stimuli/Experimental_stims/body_parts/mika-korhonen-Xodzxosar18-unsplash.jpg,0,0,1175,0,unchosen,30,4,body_parts,outdoor_scenes,2300,0,6,1
7,17620,0,8,1,1,0,no_gain2,gain3,I,C,1,3,outdoor_scenes,outdoor_scenes,51,51,Stimuli/Experimental_stims/outdoor_scenes/ashim-d-silva-S2Q5mdOrrVc-unsplash.jpg,Stimuli/Experimental_stims/outdoor_scenes/henry-be-NLF6hTe4PAg-unsplash.jpg,0,1,130,0,chosen,1,3,outdoor_scenes,outdoor_scenes,1700,0,6,1
8,17620,0,9,1,1,1,gain4,no_gain5,L,K,18,27,faces,body_parts,70,51,Stimuli/Experimental_stims/faces/jessica-radanavong-mrYkTuAesKE-unsplash.jpg,Stimuli/Experimental_stims/body_parts/heike-mintel-i_Gns0ELnLw-unsplash.jpg,0,0,234,0,unchosen,27,18,body_parts,faces,3900,1,6,1
9,17620,0,10,1,1,1,gain2,no_gain5,J,K,45,27,objects,body_parts,51,51,Stimuli/Experimental_stims/objects/leohoho-rngTKHXumy0-unsplash.jpg,Stimuli/Experimental_stims/body_parts/heike-mintel-i_Gns0ELnLw-unsplash.jpg,1,NaN,,NaN,unchosen,NaN,NaN,NaN,NaN,1200,0,6,1
10,17620,0,11,1,1,1,gain2,no_gain5,J,K,22,43,faces,objects,51,51,Stimuli/Experimental_stims/faces/ravi-patel-VMGAbeeJTKo-unsplash.jpg,Stimuli/Experimental_stims/objects/jonathan-greenaway-Y4hGgeiFn3s-unsplash.jpg,0,0,392,0,chosen,43,22,objects,faces,1200,0,6,1
11,17620,0,12,1,1,0,no_gain5,gain5,K,A,43,11,objects,outdoor_scenes,51,66,Stimuli/Experimental_stims/objects/jonathan-greenaway-Y4hGgeiFn3s-unsplash.jpg,Stimuli/Experimental_stims/outdoor_scenes/stephen-leonardi-gyIRjKPXupE-unsplash.jpg,0,0,185,1,chosen,11,43,outdoor_scenes,objects,2600,0,6,1
12,17620,0,13,1,1,0,no_gain1,gain4,D,L,39,18,objects,faces,62,70,Stimuli/Experimental_stims/objects/charlesdeluvio-1-nx1QR5dTE-unsplash.jpg,Stimuli/Experimental_stims/faces/jessica-radanavong-mrYkTuAesKE-unsplash.jpg,1,NaN,,NaN,unchosen,NaN,NaN,NaN,NaN,2200,0,6,1
13,17620,0,14,1,1,1,gain4,no_gain6,L,B,28,10,body_parts,outdoor_scenes,66,51,Stimuli/Experimental_stims/body_parts/ira-vishnevskaya-8DQAvdCby1I-unsplash.jpg,Stimuli/Experimental_stims/outdoor_scenes/shannon-kunkle-dM8INmkyDas-unsplash.jpg,0,1,1384,1,chosen,28,10,body_parts,outdoor_scenes,1700,0,6,1
14,17620,0,15,1,1,1,gain4,no_gain4,L,H,28,17,body_parts,faces,66,51,Stimuli/Experimental_stims/body_parts/ira-vishnevskaya-8DQAvdCby1I-unsplash.jpg,Stimuli/Experimental_stims/faces/good-faces-xmSWVeGEnJw-unsplash.jpg,0,0,518,0,chosen,17,28,faces,body_parts,3100,1,6,1
15,17620,0,16,1,1,1,gain2,no_gain1,J,D,45,39,objects,objects,51,62,Stimuli/Experimental_stims/objects/leohoho-rngTKHXumy0-unsplash.jpg,Stimuli/Experimental_stims/objects/charlesdeluvio-1-nx1QR5dTE-unsplash.jpg,0,0,1472,0,unchosen,39,45,objects,objects,2100,0,6,1
16,17620,0,17,1,1,0,no_gain2,gain5,I,A,1,11,outdoor_scenes,outdoor_scenes,51,66,Stimuli/Experimental_stims/outdoor_scenes/ashim-d-silva-S2Q5mdOrrVc-unsplash.jpg,Stimuli/Experimental_stims/outdoor_scenes/stephen-leonardi-gyIRjKPXupE-unsplash.jpg,0,0,603,1,chosen,11,1,outdoor_scenes,outdoor_scenes,1900,0,6,1
17,17620,0,18,1,1,0,no_gain1,gain5,D,A,15,11,faces,outdoor_scenes,51,66,Stimuli/Experimental_stims/faces/erik-lucatero-d2MSDujJl2g-unsplash.jpg,Stimuli/Experimental_stims/outdoor_scenes/stephen-leonardi-gyIRjKPXupE-unsplash.jpg,0,0,1304,1,chosen,11,15,outdoor_scenes,faces,1400,0,6,1
18,17620,0,19,1,1,1,gain3,no_gain5,C,K,3,43,outdoor_scenes,objects,51,51,Stimuli/Experimental_stims/outdoor_scenes/henry-be-NLF6hTe4PAg-unsplash.jpg,Stimuli/Experimental_stims/objects/jonathan-greenaway-Y4hGgeiFn3s-unsplash.jpg,0,0,724,0,chosen,43,3,objects,outdoor_scenes,1500,0,6,1
19,17620,0,20,1,1,0,no_gain4,gain2,H,J,9,45,outdoor_scenes,objects,51,51,Stimuli/Experimental_stims/outdoor_scenes/sergey-pesterev-y-b_FOmJXdg-unsplash.jpg,Stimuli/Experimental_stims/objects/leohoho-rngTKHXumy0-unsplash.jpg,0,0,487,1,unchosen,45,9,objects,outdoor_scenes,1600,0,6,1
20,17620,0,21,1,1,0,no_gain1,gain3,D,C,15,3,faces,outdoor_scenes,51,51,Stimuli/Experimental_stims/faces/erik-lucatero-d2MSDujJl2g-unsplash.jpg,Stimuli/Experimental_stims/outdoor_scenes/henry-be-NLF6hTe4PAg-unsplash.jpg,1,NaN,,NaN,chosen,NaN,NaN,NaN,NaN,3200,1,6,1
21,17620,0,22,1,1,1,gain5,no_gain5,A,K,47,27,objects,body_parts,62,51,Stimuli/Experimental_stims/objects/ronaldo-arthur-vidal-Cdz_lvnl37k-unsplash.jpg,Stimuli/Experimental_stims/body_parts/heike-mintel-i_Gns0ELnLw-unsplash.jpg,0,1,516,1,unchosen,47,27,objects,body_parts,1900,0,6,1
22,17620,0,23,1,1,0,no_gain6,gain6,B,G,14,4,faces,outdoor_scenes,61,42,Stimuli/Experimental_stims/faces/david-siglin-UuW4psOb388-unsplash.jpg,Stimuli/Experimental_stims/outdoor_scenes/jarrett-kow-1ZOyYPOBn7I-unsplash.jpg,0,0,341,1,unchosen,4,14,outdoor_scenes,faces,1600,0,6,1
23,17620,0,24,1,1,0,no_gain6,gain2,B,J,10,22,outdoor_scenes,faces,51,51,Stimuli/Experimental_stims/outdoor_scenes/shannon-kunkle-dM8INmkyDas-unsplash.jpg,Stimuli/Experimental_stims/faces/ravi-patel-VMGAbeeJTKo-unsplash.jpg,0,1,290,0,chosen,10,22,outdoor_scenes,faces,1100,0,6,1
24,17620,0,25,1,1,1,gain4,no_gain2,L,I,18,32,faces,body_parts,70,51,Stimuli/Experimental_stims/faces/jessica-radanavong-mrYkTuAesKE-unsplash.jpg,Stimuli/Experimental_stims/body_parts/towfiqu-barbhuiya-3AsiVDsZnHg-unsplash.jpg,1,NaN,,NaN,unchosen,NaN,NaN,NaN,NaN,2200,0,6,1
25,17620,0,26,1,1,1,gain2,no_gain3,J,E,45,30,objects,body_parts,51,51,Stimuli/Experimental_stims/objects/leohoho-rngTKHXumy0-unsplash.jpg,Stimuli/Experimental_stims/body_parts/mika-korhonen-Xodzxosar18-unsplash.jpg,1,NaN,,NaN,unchosen,NaN,NaN,NaN,NaN,3300,1,6,1
26,17620,0,27,1,1,0,no_gain2,gain4,I,L,1,28,outdoor_scenes,body_parts,51,66,Stimuli/Experimental_stims/outdoor_scenes/ashim-d-silva-S2Q5mdOrrVc-unsplash.jpg,Stimuli/Experimental_stims/body_parts/ira-vishnevskaya-8DQAvdCby1I-unsplash.jpg,1,NaN,,NaN,chosen,NaN,NaN,NaN,NaN,2100,0,6,1
27,17620,0,28,1,1,0,no_gain2,gain2,I,J,32,45,body_parts,objects,51,51,Stimuli/Experimental_stims/body_parts/towfiqu-barbhuiya-3AsiVDsZnHg-unsplash.jpg,Stimuli/Experimental_stims/objects/leohoho-rngTKHXumy0-unsplash.jpg,1,NaN,,NaN,unchosen,NaN,NaN,NaN,NaN,1000,0,6,1
28,17620,0,29,1,1,0,no_gain4,gain3,H,C,9,31,outdoor_scenes,body_parts,51,50,Stimuli/Experimental_stims/outdoor_scenes/sergey-pesterev-y-b_FOmJXdg-unsplash.jpg,Stimuli/Experimental_stims/body_parts/sincerely-media-VN6DbKajo5s-unsplash.jpg,1,NaN,,NaN,unchosen,NaN,NaN,NaN,NaN,2600,0,6,1
29,17620,0,30,1,1,0,no_gain3,gain2,E,J,41,22,objects,faces,51,51,Stimuli/Experimental_stims/objects/insung-yoon-w2JtIQQXoRU-unsplash.jpg,Stimuli/Experimental_stims/faces/ravi-patel-VMGAbeeJTKo-unsplash.jpg,1,NaN,,NaN,chosen,NaN,NaN,NaN,NaN,1500,0,6,1
30,17620,0,31,1,1,1,gain5,no_gain4,A,H,47,9,objects,outdoor_scenes,62,51,Stimuli/Experimental_stims/objects/ronaldo-arthur-vidal-Cdz_lvnl37k-unsplash.jpg,Stimuli/Experimental_stims/outdoor_scenes/sergey-pesterev-y-b_FOmJXdg-unsplash.jpg,1,NaN,,NaN,unchosen,NaN,NaN,NaN,NaN,1200,0,6,1
31,17620,0,32,1,1,0,no_gain3,gain5,E,A,30,47,body_parts,objects,51,62,Stimuli/Experimental_stims/body_parts/mika-korhonen-Xodzxosar18-unsplash.jpg,Stimuli/Experimental_stims/objects/ronaldo-arthur-vidal-Cdz_lvnl37k-unsplash.jpg,0,1,11,0,unchosen,30,47,body_parts,objects,2100,0,6,1
32,17620,0,33,1,1,0,no_gain5,gain4,K,L,43,28,objects,body_parts,51,66,Stimuli/Experimental_stims/objects/jonathan-greenaway-Y4hGgeiFn3s-unsplash.jpg,Stimuli/Experimental_stims/body_parts/ira-vishnevskaya-8DQAvdCby1I-unsplash.jpg,0,1,772,0,chosen,43,28,objects,body_parts,4300,1,6,1
33,17620,0,34,1,1,0,no_gain1,gain5,D,A,39,47,objects,objects,62,62,Stimuli/Experimental_stims/objects/charlesdeluvio-1-nx1QR5dTE-unsplash.jpg,Stimuli/Experimental_stims/objects/ronaldo-arthur-vidal-Cdz_lvnl37k-unsplash.jpg,0,1,769,0,unchosen,39,47,objects,objects,1000,0,6,1
34,17620,0,35,1,1,1,gain1,no_gain3,F,E,12,41,faces,objects,51,51,Stimuli/Experimental_stims/faces/aiony-haust-jmATI5Q_YgY-unsplash.jpg,Stimuli/Experimental_stims/objects/insung-yoon-w2JtIQQXoRU-unsplash.jpg,1,NaN,,NaN,chosen,NaN,NaN,NaN,NaN,2300,0,6,1
35,17620,0,36,1,1,0,no_gain6,gain5,B,A,14,47,faces,objects,61,62,Stimuli/Experimental_stims/faces/david-siglin-UuW4psOb388-unsplash.jpg,Stimuli/Experimental_stims/objects/ronaldo-arthur-vidal-Cdz_lvnl37k-unsplash.jpg,1,NaN,,NaN,unchosen,NaN,NaN,NaN,NaN,1200,0,6,1
36,17620,0,37,1,1,1,gain6,no_gain1,G,D,46,15,objects,faces,58,51,Stimuli/Experimental_stims/objects/mockup-graphics-PNsj6RiHAF4-unsplash.jpg,Stimuli/Experimental_stims/faces/erik-lucatero-d2MSDujJl2g-unsplash.jpg,0,0,576,0,chosen,15,46,faces,objects,1300,0,6,1
37,17620,0,38,1,1,1,gain4,no_gain3,L,E,28,41,body_parts,objects,66,51,Stimuli/Experimental_stims/body_parts/ira-vishnevskaya-8DQAvdCby1I-unsplash.jpg,Stimuli/Experimental_stims/objects/insung-yoon-w2JtIQQXoRU-unsplash.jpg,1,NaN,,NaN,chosen,NaN,NaN,NaN,NaN,1700,0,6,1
38,17620,0,39,1,1,1,gain1,no_gain5,F,K,12,43,faces,objects,51,51,Stimuli/Experimental_stims/faces/aiony-haust-jmATI5Q_YgY-unsplash.jpg,Stimuli/Experimental_stims/objects/jonathan-greenaway-Y4hGgeiFn3s-unsplash.jpg,1,NaN,,NaN,chosen,NaN,NaN,NaN,NaN,1300,0,6,1
39,17620,0,40,1,1,0,no_gain6,gain3,B,C,14,31,faces,body_parts,61,50,Stimuli/Experimental_stims/faces/david-siglin-UuW4psOb388-unsplash.jpg,Stimuli/Experimental_stims/body_parts/sincerely-media-VN6DbKajo5s-unsplash.jpg,1,NaN,,NaN,unchosen,NaN,NaN,NaN,NaN,1200,0,6,1
40,17620,0,41,1,1,0,no_gain2,gain1,I,F,1,12,outdoor_scenes,faces,51,51,Stimuli/Experimental_stims/outdoor_scenes/ashim-d-silva-S2Q5mdOrrVc-unsplash.jpg,Stimuli/Experimental_stims/faces/aiony-haust-jmATI5Q_YgY-unsplash.jpg,1,NaN,,NaN,chosen,NaN,NaN,NaN,NaN,1900,0,6,1
41,17620,0,42,1,1,1,gain4,no_gain3,L,E,18,30,faces,body_parts,70,51,Stimuli/Experimental_stims/faces/jessica-radanavong-mrYkTuAesKE-unsplash.jpg,Stimuli/Experimental_stims/body_parts/mika-korhonen-Xodzxosar18-unsplash.jpg,0,1,1472,1,unchosen,18,30,faces,body_parts,1200,0,6,1
42,17620,0,43,1,1,1,gain6,no_gain6,G,B,46,10,objects,outdoor_scenes,58,51,Stimuli/Experimental_stims/objects/mockup-graphics-PNsj6RiHAF4-unsplash.jpg,Stimuli/Experimental_stims/outdoor_scenes/shannon-kunkle-dM8INmkyDas-unsplash.jpg,0,1,1465,1,chosen,46,10,objects,outdoor_scenes,4000,1,6,1
43,17620,0,44,1,1,0,no_gain3,gain3,E,C,41,3,objects,outdoor_scenes,51,51,Stimuli/Experimental_stims/objects/insung-yoon-w2JtIQQXoRU-unsplash.jpg,Stimuli/Experimental_stims/outdoor_scenes/henry-be-NLF6hTe4PAg-unsplash.jpg,0,1,1532,0,chosen,41,3,objects,outdoor_scenes,2300,0,6,1
44,17620,0,45,1,1,1,gain2,no_gain6,J,B,45,14,objects,faces,51,61,Stimuli/Experimental_stims/objects/leohoho-rngTKHXumy0-unsplash.jpg,Stimuli/Experimental_stims/faces/david-siglin-UuW4psOb388-unsplash.jpg,0,1,777,1,unchosen,45,14,objects,faces,1500,0,6,1
45,17620,0,46,1,1,0,no_gain1,gain1,D,F,15,12,faces,faces,51,51,Stimuli/Experimental_stims/faces/erik-lucatero-d2MSDujJl2g-unsplash.jpg,Stimuli/Experimental_stims/faces/aiony-haust-jmATI5Q_YgY-unsplash.jpg,0,0,811,1,chosen,12,15,faces,faces,1100,0,6,1
46,17620,0,47,1,1,0,no_gain5,gain6,K,G,27,4,body_parts,outdoor_scenes,51,42,Stimuli/Experimental_stims/body_parts/heike-mintel-i_Gns0ELnLw-unsplash.jpg,Stimuli/Experimental_stims/outdoor_scenes/jarrett-kow-1ZOyYPOBn7I-unsplash.jpg,0,0,1471,1,unchosen,4,27,outdoor_scenes,body_parts,1100,0,6,1
47,17620,0,48,1,1,0,no_gain5,gain6,K,G,43,46,objects,objects,51,58,Stimuli/Experimental_stims/objects/jonathan-greenaway-Y4hGgeiFn3s-unsplash.jpg,Stimuli/Experimental_stims/objects/mockup-graphics-PNsj6RiHAF4-unsplash.jpg,1,NaN,,NaN,chosen,NaN,NaN,NaN,NaN,3200,1,6,1
48,17620,0,49,1,1,0,no_gain2,gain6,I,G,32,4,body_parts,outdoor_scenes,51,42,Stimuli/Experimental_stims/body_parts/towfiqu-barbhuiya-3AsiVDsZnHg-unsplash.jpg,Stimuli/Experimental_stims/outdoor_scenes/jarrett-kow-1ZOyYPOBn7I-unsplash.jpg,0,1,1434,0,unchosen,32,4,body_parts,outdoor_scenes,1900,0,6,1
49,17620,0,50,1,1,1,gain4,no_gain4,L,H,18,9,faces,outdoor_scenes,70,51,Stimuli/Experimental_stims/faces/jessica-radanavong-mrYkTuAesKE-unsplash.jpg,Stimuli/Experimental_stims/outdoor_scenes/sergey-pesterev-y-b_FOmJXdg-unsplash.jpg,0,0,1080,0,unchosen,9,18,outdoor_scenes,faces,2300,0,6,1
50,17620,0,51,1,1,1,gain6,no_gain4,G,H,4,9,outdoor_scenes,outdoor_scenes,42,51,Stimuli/Experimental_stims/outdoor_scenes/jarrett-kow-1ZOyYPOBn7I-unsplash.jpg,Stimuli/Experimental_stims/outdoor_scenes/sergey-pesterev-y-b_FOmJXdg-unsplash.jpg,1,NaN,,NaN,unchosen,NaN,NaN,NaN,NaN,1200,0,6,1
51,17620,0,52,1,1,0,no_gain6,gain1,B,F,10,12,outdoor_scenes,faces,51,51,Stimuli/Experimental_stims/outdoor_scenes/shannon-kunkle-dM8INmkyDas-unsplash.jpg,Stimuli/Experimental_stims/faces/aiony-haust-jmATI5Q_YgY-unsplash.jpg,1,NaN,,NaN,chosen,NaN,NaN,NaN,NaN,2400,0,6,1
52,17620,0,53,1,1,1,gain2,no_gain1,J,D,22,15,faces,faces,51,51,Stimuli/Experimental_stims/faces/ravi-patel-VMGAbeeJTKo-unsplash.jpg,Stimuli/Experimental_stims/faces/erik-lucatero-d2MSDujJl2g-unsplash.jpg,1,NaN,,NaN,chosen,NaN,NaN,NaN,NaN,1600,0,6,1
53,17620,0,54,1,1,1,gain5,no_gain6,A,B,11,10,outdoor_scenes,outdoor_scenes,66,51,Stimuli/Experimental_stims/outdoor_scenes/stephen-leonardi-gyIRjKPXupE-unsplash.jpg,Stimuli/Experimental_stims/outdoor_scenes/shannon-kunkle-dM8INmkyDas-unsplash.jpg,0,0,1156,0,chosen,10,11,outdoor_scenes,outdoor_scenes,3100,1,6,1
54,17620,0,55,1,1,0,no_gain5,gain1,K,F,27,24,body_parts,body_parts,51,73,Stimuli/Experimental_stims/body_parts/heike-mintel-i_Gns0ELnLw-unsplash.jpg,Stimuli/Experimental_stims/body_parts/clay-banks-LjqARJaJotc-unsplash.jpg,0,0,900,1,unchosen,24,27,body_parts,body_parts,2300,0,6,1
55,17620,0,56,1,1,1,gain2,no_gain2,J,I,22,1,faces,outdoor_scenes,51,51,Stimuli/Experimental_stims/faces/ravi-patel-VMGAbeeJTKo-unsplash.jpg,Stimuli/Experimental_stims/outdoor_scenes/ashim-d-silva-S2Q5mdOrrVc-unsplash.jpg,1,NaN,,NaN,chosen,NaN,NaN,NaN,NaN,2600,0,6,1
56,17620,0,57,1,1,1,gain3,no_gain2,C,I,31,32,body_parts,body_parts,50,51,Stimuli/Experimental_stims/body_parts/sincerely-media-VN6DbKajo5s-unsplash.jpg,Stimuli/Experimental_stims/body_parts/towfiqu-barbhuiya-3AsiVDsZnHg-unsplash.jpg,0,0,1403,0,unchosen,32,31,body_parts,body_parts,1700,0,6,1
57,17620,0,58,1,1,0,no_gain1,gain3,D,C,39,31,objects,body_parts,62,50,Stimuli/Experimental_stims/objects/charlesdeluvio-1-nx1QR5dTE-unsplash.jpg,Stimuli/Experimental_stims/body_parts/sincerely-media-VN6DbKajo5s-unsplash.jpg,1,NaN,,NaN,unchosen,NaN,NaN,NaN,NaN,1100,0,6,1
58,17620,0,59,1,1,1,gain6,no_gain4,G,H,46,17,objects,faces,58,51,Stimuli/Experimental_stims/objects/mockup-graphics-PNsj6RiHAF4-unsplash.jpg,Stimuli/Experimental_stims/faces/good-faces-xmSWVeGEnJw-unsplash.jpg,0,1,968,1,chosen,46,17,objects,faces,2600,0,6,1
59,17620,0,60,1,1,1,gain6,no_gain1,G,D,4,39,outdoor_scenes,objects,42,62,Stimuli/Experimental_stims/outdoor_scenes/jarrett-kow-1ZOyYPOBn7I-unsplash.jpg,Stimuli/Experimental_stims/objects/charlesdeluvio-1-nx1QR5dTE-unsplash.jpg,0,1,229,1,unchosen,4,39,outdoor_scenes,objects,1000,0,6,1
60,17620,0,61,1,1,1,gain1,no_gain3,F,E,24,30,body_parts,body_parts,73,51,Stimuli/Experimental_stims/body_parts/clay-banks-LjqARJaJotc-unsplash.jpg,Stimuli/Experimental_stims/body_parts/mika-korhonen-Xodzxosar18-unsplash.jpg,0,0,805,0,unchosen,30,24,body_parts,body_parts,2400,0,6,1
61,17620,0,62,1,1,0,no_gain6,gain4,B,L,14,18,faces,faces,61,70,Stimuli/Experimental_stims/faces/david-siglin-UuW4psOb388-unsplash.jpg,Stimuli/Experimental_stims/faces/jessica-radanavong-mrYkTuAesKE-unsplash.jpg,0,1,951,0,unchosen,14,18,faces,faces,3500,1,6,1
62,17620,0,63,1,1,1,gain6,no_gain3,G,E,46,41,objects,objects,58,51,Stimuli/Experimental_stims/objects/mockup-graphics-PNsj6RiHAF4-unsplash.jpg,Stimuli/Experimental_stims/objects/insung-yoon-w2JtIQQXoRU-unsplash.jpg,0,1,326,1,chosen,46,41,objects,objects,1700,0,6,1
63,17620,0,64,1,1,1,gain2,no_gain4,J,H,22,17,faces,faces,51,51,Stimuli/Experimental_stims/faces/ravi-patel-VMGAbeeJTKo-unsplash.jpg,Stimuli/Experimental_stims/faces/good-faces-xmSWVeGEnJw-unsplash.jpg,1,NaN,,NaN,chosen,NaN,NaN,NaN,NaN,1200,0,6,1
64,17620,0,65,1,1,0,no_gain6,gain1,B,F,14,24,faces,body_parts,61,73,Stimuli/Experimental_stims/faces/david-siglin-UuW4psOb388-unsplash.jpg,Stimuli/Experimental_stims/body_parts/clay-banks-LjqARJaJotc-unsplash.jpg,1,NaN,,NaN,unchosen,NaN,NaN,NaN,NaN,1600,0,6,1
65,17620,0,66,1,1,0,no_gain4,gain1,H,F,9,24,outdoor_scenes,body_parts,51,73,Stimuli/Experimental_stims/outdoor_scenes/sergey-pesterev-y-b_FOmJXdg-unsplash.jpg,Stimuli/Experimental_stims/body_parts/clay-banks-LjqARJaJotc-unsplash.jpg,1,NaN,,NaN,unchosen,NaN,NaN,NaN,NaN,1200,0,6,1
66,17620,0,67,1,1,1,gain5,no_gain2,A,I,47,32,objects,body_parts,62,51,Stimuli/Experimental_stims/objects/ronaldo-arthur-vidal-Cdz_lvnl37k-unsplash.jpg,Stimuli/Experimental_stims/body_parts/towfiqu-barbhuiya-3AsiVDsZnHg-unsplash.jpg,0,1,137,1,unchosen,47,32,objects,body_parts,3400,1,6,1
67,17620,0,68,1,1,0,no_gain1,gain4,D,L,15,28,faces,body_parts,51,66,Stimuli/Experimental_stims/faces/erik-lucatero-d2MSDujJl2g-unsplash.jpg,Stimuli/Experimental_stims/body_parts/ira-vishnevskaya-8DQAvdCby1I-unsplash.jpg,1,NaN,,NaN,chosen,NaN,NaN,NaN,NaN,1900,0,6,1
68,17620,0,69,1,1,1,gain6,no_gain2,G,I,46,1,objects,outdoor_scenes,58,51,Stimuli/Experimental_stims/objects/mockup-graphics-PNsj6RiHAF4-unsplash.jpg,Stimuli/Experimental_stims/outdoor_scenes/ashim-d-silva-S2Q5mdOrrVc-unsplash.jpg,0,0,1119,0,chosen,1,46,outdoor_scenes,objects,2200,0,6,1
69,17620,0,70,1,1,1,gain5,no_gain3,A,E,11,41,outdoor_scenes,objects,66,51,Stimuli/Experimental_stims/outdoor_scenes/stephen-leonardi-gyIRjKPXupE-unsplash.jpg,Stimuli/Experimental_stims/objects/insung-yoon-w2JtIQQXoRU-unsplash.jpg,0,1,1254,1,chosen,11,41,outdoor_scenes,objects,1100,0,6,1
70,17620,0,71,1,1,0,no_gain1,gain1,D,F,39,24,objects,body_parts,62,73,Stimuli/Experimental_stims/objects/charlesdeluvio-1-nx1QR5dTE-unsplash.jpg,Stimuli/Experimental_stims/body_parts/clay-banks-LjqARJaJotc-unsplash.jpg,1,NaN,,NaN,unchosen,NaN,NaN,NaN,NaN,2600,0,6,1
71,17620,0,72,1,1,1,gain1,no_gain2,F,I,24,32,body_parts,body_parts,73,51,Stimuli/Experimental_stims/body_parts/clay-banks-LjqARJaJotc-unsplash.jpg,Stimuli/Experimental_stims/body_parts/towfiqu-barbhuiya-3AsiVDsZnHg-unsplash.jpg,0,0,1464,0,unchosen,32,24,body_parts,body_parts,2100,0,6,1
72,17620,0,73,1,1,0,no_gain3,gain3,E,C,30,31,body_parts,body_parts,51,50,Stimuli/Experimental_stims/body_parts/mika-korhonen-Xodzxosar18-unsplash.jpg,Stimuli/Experimental_stims/body_parts/sincerely-media-VN6DbKajo5s-unsplash.jpg,0,0,252,1,unchosen,31,30,body_parts,body_parts,1600,0,6,1
73,17620,0,74,1,1,0,no_gain4,gain1,H,F,17,12,faces,faces,51,51,Stimuli/Experimental_stims/faces/good-faces-xmSWVeGEnJw-unsplash.jpg,Stimuli/Experimental_stims/faces/aiony-haust-jmATI5Q_YgY-unsplash.jpg,1,NaN,,NaN,chosen,NaN,NaN,NaN,NaN,1200,0,6,1
74,17620,0,75,1,1,1,gain3,no_gain5,C,K,31,27,body_parts,body_parts,50,51,Stimuli/Experimental_stims/body_parts/sincerely-media-VN6DbKajo5s-unsplash.jpg,Stimuli/Experimental_stims/body_parts/heike-mintel-i_Gns0ELnLw-unsplash.jpg,0,0,549,0,unchosen,27,31,body_parts,body_parts,2600,0,6,1
75,17620,0,76,1,1,0,no_gain4,gain3,H,C,17,3,faces,outdoor_scenes,51,51,Stimuli/Experimental_stims/faces/good-faces-xmSWVeGEnJw-unsplash.jpg,Stimuli/Experimental_stims/outdoor_scenes/henry-be-NLF6hTe4PAg-unsplash.jpg,1,NaN,,NaN,chosen,NaN,NaN,NaN,NaN,3600,1,6,1
76,17620,0,77,2,2,1,gain4,no_gain6,L,B,18,14,faces,faces,70,61,Stimuli/Experimental_stims/faces/jessica-radanavong-mrYkTuAesKE-unsplash.jpg,Stimuli/Experimental_stims/faces/david-siglin-UuW4psOb388-unsplash.jpg,0,1,447,1,unchosen,18,14,faces,faces,3100,1,4,1
77,17620,0,78,2,2,1,gain3,no_gain1,C,D,3,15,outdoor_scenes,faces,51,51,Stimuli/Experimental_stims/outdoor_scenes/henry-be-NLF6hTe4PAg-unsplash.jpg,Stimuli/Experimental_stims/faces/erik-lucatero-d2MSDujJl2g-unsplash.jpg,0,1,1558,1,chosen,3,15,outdoor_scenes,faces,2600,0,4,1
78,17620,0,79,2,2,0,no_gain5,gain5,K,A,43,11,objects,outdoor_scenes,51,66,Stimuli/Experimental_stims/objects/jonathan-greenaway-Y4hGgeiFn3s-unsplash.jpg,Stimuli/Experimental_stims/outdoor_scenes/stephen-leonardi-gyIRjKPXupE-unsplash.jpg,0,0,1300,1,chosen,11,43,outdoor_scenes,objects,1800,0,4,1
79,17620,0,80,2,2,0,no_gain5,gain2,K,J,27,45,body_parts,objects,51,51,Stimuli/Experimental_stims/body_parts/heike-mintel-i_Gns0ELnLw-unsplash.jpg,Stimuli/Experimental_stims/objects/leohoho-rngTKHXumy0-unsplash.jpg,1,NaN,,NaN,unchosen,NaN,NaN,NaN,NaN,1000,0,4,1
80,17620,0,81,2,2,0,no_gain5,gain6,K,G,43,46,objects,objects,51,58,Stimuli/Experimental_stims/objects/jonathan-greenaway-Y4hGgeiFn3s-unsplash.jpg,Stimuli/Experimental_stims/objects/mockup-graphics-PNsj6RiHAF4-unsplash.jpg,1,NaN,,NaN,chosen,NaN,NaN,NaN,NaN,2300,0,4,1
81,17620,0,82,2,2,1,gain2,no_gain1,J,D,22,15,faces,faces,51,51,Stimuli/Experimental_stims/faces/ravi-patel-VMGAbeeJTKo-unsplash.jpg,Stimuli/Experimental_stims/faces/erik-lucatero-d2MSDujJl2g-unsplash.jpg,0,0,124,0,chosen,15,22,faces,faces,1100,0,4,1
82,17620,0,83,2,2,1,gain6,no_gain4,G,H,46,17,objects,faces,58,51,Stimuli/Experimental_stims/objects/mockup-graphics-PNsj6RiHAF4-unsplash.jpg,Stimuli/Experimental_stims/faces/good-faces-xmSWVeGEnJw-unsplash.jpg,0,1,693,1,chosen,46,17,objects,faces,1500,0,4,1
83,17620,0,84,2,2,1,gain1,no_gain4,F,H,24,9,body_parts,outdoor_scenes,73,51,Stimuli/Experimental_stims/body_parts/clay-banks-LjqARJaJotc-unsplash.jpg,Stimuli/Experimental_stims/outdoor_scenes/sergey-pesterev-y-b_FOmJXdg-unsplash.jpg,0,1,820,1,unchosen,24,9,body_parts,outdoor_scenes,2400,0,4,1
84,17620,0,85,2,2,0,no_gain2,gain2,I,J,32,45,body_parts,objects,51,51,Stimuli/Experimental_stims/body_parts/towfiqu-barbhuiya-3AsiVDsZnHg-unsplash.jpg,Stimuli/Experimental_stims/objects/leohoho-rngTKHXumy0-unsplash.jpg,0,0,1348,1,unchosen,45,32,objects,body_parts,2300,0,4,1
85,17620,0,86,2,2,1,gain6,no_gain3,G,E,46,41,objects,objects,58,51,Stimuli/Experimental_stims/objects/mockup-graphics-PNsj6RiHAF4-unsplash.jpg,Stimuli/Experimental_stims/objects/insung-yoon-w2JtIQQXoRU-unsplash.jpg,0,0,45,0,chosen,41,46,objects,objects,1200,0,4,1
86,17620,0,87,2,2,0,no_gain5,gain4,K,L,27,18,body_parts,faces,51,70,Stimuli/Experimental_stims/body_parts/heike-mintel-i_Gns0ELnLw-unsplash.jpg,Stimuli/Experimental_stims/faces/jessica-radanavong-mrYkTuAesKE-unsplash.jpg,0,0,737,1,unchosen,18,27,faces,body_parts,1300,0,4,1
87,17620,0,88,2,2,1,gain2,no_gain2,J,I,22,1,faces,outdoor_scenes,51,51,Stimuli/Experimental_stims/faces/ravi-patel-VMGAbeeJTKo-unsplash.jpg,Stimuli/Experimental_stims/outdoor_scenes/ashim-d-silva-S2Q5mdOrrVc-unsplash.jpg,1,NaN,,NaN,chosen,NaN,NaN,NaN,NaN,3700,1,4,1
88,17620,0,89,2,2,1,gain5,no_gain3,A,E,11,41,outdoor_scenes,objects,66,51,Stimuli/Experimental_stims/outdoor_scenes/stephen-leonardi-gyIRjKPXupE-unsplash.jpg,Stimuli/Experimental_stims/objects/insung-yoon-w2JtIQQXoRU-unsplash.jpg,0,0,931,0,chosen,41,11,objects,outdoor_scenes,1600,0,4,1
89,17620,0,90,2,2,0,no_gain3,gain1,E,F,41,12,objects,faces,51,51,Stimuli/Experimental_stims/objects/insung-yoon-w2JtIQQXoRU-unsplash.jpg,Stimuli/Experimental_stims/faces/aiony-haust-jmATI5Q_YgY-unsplash.jpg,0,0,620,1,chosen,12,41,faces,objects,1700,0,4,1
90,17620,0,91,2,2,0,no_gain2,gain1,I,F,32,24,body_parts,body_parts,51,73,Stimuli/Experimental_stims/body_parts/towfiqu-barbhuiya-3AsiVDsZnHg-unsplash.jpg,Stimuli/Experimental_stims/body_parts/clay-banks-LjqARJaJotc-unsplash.jpg,0,0,714,1,unchosen,24,32,body_parts,body_parts,1200,0,4,1
91,17620,0,92,2,2,0,no_gain6,gain5,B,A,10,11,outdoor_scenes,outdoor_scenes,51,66,Stimuli/Experimental_stims/outdoor_scenes/shannon-kunkle-dM8INmkyDas-unsplash.jpg,Stimuli/Experimental_stims/outdoor_scenes/stephen-leonardi-gyIRjKPXupE-unsplash.jpg,1,NaN,,NaN,chosen,NaN,NaN,NaN,NaN,1100,0,4,1
92,17620,0,93,2,2,0,no_gain4,gain3,H,C,17,3,faces,outdoor_scenes,51,51,Stimuli/Experimental_stims/faces/good-faces-xmSWVeGEnJw-unsplash.jpg,Stimuli/Experimental_stims/outdoor_scenes/henry-be-NLF6hTe4PAg-unsplash.jpg,1,NaN,,NaN,chosen,NaN,NaN,NaN,NaN,1300,0,4,1
93,17620,0,94,2,2,1,gain4,no_gain5,L,K,28,43,body_parts,objects,66,51,Stimuli/Experimental_stims/body_parts/ira-vishnevskaya-8DQAvdCby1I-unsplash.jpg,Stimuli/Experimental_stims/objects/jonathan-greenaway-Y4hGgeiFn3s-unsplash.jpg,1,NaN,,NaN,chosen,NaN,NaN,NaN,NaN,4500,1,4,1
94,17620,0,95,2,2,0,no_gain5,gain1,K,F,27,24,body_parts,body_parts,51,73,Stimuli/Experimental_stims/body_parts/heike-mintel-i_Gns0ELnLw-unsplash.jpg,Stimuli/Experimental_stims/body_parts/clay-banks-LjqARJaJotc-unsplash.jpg,0,1,431,0,unchosen,27,24,body_parts,body_parts,1900,0,4,1
95,17620,0,96,2,2,1,gain1,no_gain3,F,E,24,30,body_parts,body_parts,73,51,Stimuli/Experimental_stims/body_parts/clay-banks-LjqARJaJotc-unsplash.jpg,Stimuli/Experimental_stims/body_parts/mika-korhonen-Xodzxosar18-unsplash.jpg,0,1,627,1,unchosen,24,30,body_parts,body_parts,1100,0,4,1
96,17620,0,97,2,2,1,gain3,no_gain3,C,E,31,30,body_parts,body_parts,50,51,Stimuli/Experimental_stims/body_parts/sincerely-media-VN6DbKajo5s-unsplash.jpg,Stimuli/Experimental_stims/body_parts/mika-korhonen-Xodzxosar18-unsplash.jpg,0,0,1588,0,unchosen,30,31,body_parts,body_parts,2300,0,4,1
97,17620,0,98,2,2,0,no_gain5,gain1,K,F,43,12,objects,faces,51,51,Stimuli/Experimental_stims/objects/jonathan-greenaway-Y4hGgeiFn3s-unsplash.jpg,Stimuli/Experimental_stims/faces/aiony-haust-jmATI5Q_YgY-unsplash.jpg,0,1,706,0,chosen,43,12,objects,faces,2800,0,4,1
98,17620,0,99,2,2,0,no_gain5,gain5,K,A,27,47,body_parts,objects,51,62,Stimuli/Experimental_stims/body_parts/heike-mintel-i_Gns0ELnLw-unsplash.jpg,Stimuli/Experimental_stims/objects/ronaldo-arthur-vidal-Cdz_lvnl37k-unsplash.jpg,0,0,479,1,unchosen,47,27,objects,body_parts,3200,1,4,1
99,17620,0,100,2,2,1,gain5,no_gain1,A,D,11,15,outdoor_scenes,faces,66,51,Stimuli/Experimental_stims/outdoor_scenes/stephen-leonardi-gyIRjKPXupE-unsplash.jpg,Stimuli/Experimental_stims/faces/erik-lucatero-d2MSDujJl2g-unsplash.jpg,1,NaN,,NaN,chosen,NaN,NaN,NaN,NaN,2000,0,4,1
100,17620,0,101,2,2,0,no_gain2,gain6,I,G,1,46,outdoor_scenes,objects,51,58,Stimuli/Experimental_stims/outdoor_scenes/ashim-d-silva-S2Q5mdOrrVc-unsplash.jpg,Stimuli/Experimental_stims/objects/mockup-graphics-PNsj6RiHAF4-unsplash.jpg,0,1,329,0,chosen,1,46,outdoor_scenes,objects,2500,0,4,1
101,17620,0,102,2,2,1,gain3,no_gain5,C,K,31,27,body_parts,body_parts,50,51,Stimuli/Experimental_stims/body_parts/sincerely-media-VN6DbKajo5s-unsplash.jpg,Stimuli/Experimental_stims/body_parts/heike-mintel-i_Gns0ELnLw-unsplash.jpg,0,1,1361,1,unchosen,31,27,body_parts,body_parts,1300,0,4,1
102,17620,0,103,2,2,1,gain6,no_gain3,G,E,4,30,outdoor_scenes,body_parts,42,51,Stimuli/Experimental_stims/outdoor_scenes/jarrett-kow-1ZOyYPOBn7I-unsplash.jpg,Stimuli/Experimental_stims/body_parts/mika-korhonen-Xodzxosar18-unsplash.jpg,1,NaN,,NaN,unchosen,NaN,NaN,NaN,NaN,1300,0,4,1
103,17620,0,104,2,2,1,gain4,no_gain4,L,H,18,9,faces,outdoor_scenes,70,51,Stimuli/Experimental_stims/faces/jessica-radanavong-mrYkTuAesKE-unsplash.jpg,Stimuli/Experimental_stims/outdoor_scenes/sergey-pesterev-y-b_FOmJXdg-unsplash.jpg,0,1,579,1,unchosen,18,9,faces,outdoor_scenes,4500,1,4,1
104,17620,0,105,2,2,1,gain6,no_gain1,G,D,46,15,objects,faces,58,51,Stimuli/Experimental_stims/objects/mockup-graphics-PNsj6RiHAF4-unsplash.jpg,Stimuli/Experimental_stims/faces/erik-lucatero-d2MSDujJl2g-unsplash.jpg,1,NaN,,NaN,chosen,NaN,NaN,NaN,NaN,1400,0,4,1
105,17620,0,106,2,2,1,gain2,no_gain6,J,B,45,14,objects,faces,51,61,Stimuli/Experimental_stims/objects/leohoho-rngTKHXumy0-unsplash.jpg,Stimuli/Experimental_stims/faces/david-siglin-UuW4psOb388-unsplash.jpg,0,1,846,1,unchosen,45,14,objects,faces,2600,0,4,1
106,17620,0,107,2,2,1,gain4,no_gain4,L,H,28,17,body_parts,faces,66,51,Stimuli/Experimental_stims/body_parts/ira-vishnevskaya-8DQAvdCby1I-unsplash.jpg,Stimuli/Experimental_stims/faces/good-faces-xmSWVeGEnJw-unsplash.jpg,1,NaN,,NaN,chosen,NaN,NaN,NaN,NaN,2100,0,4,1
107,17620,0,108,2,2,0,no_gain6,gain6,B,G,14,4,faces,outdoor_scenes,61,42,Stimuli/Experimental_stims/faces/david-siglin-UuW4psOb388-unsplash.jpg,Stimuli/Experimental_stims/outdoor_scenes/jarrett-kow-1ZOyYPOBn7I-unsplash.jpg,1,NaN,,NaN,unchosen,NaN,NaN,NaN,NaN,2100,0,4,1
108,17620,0,109,2,2,1,gain4,no_gain3,L,E,18,30,faces,body_parts,70,51,Stimuli/Experimental_stims/faces/jessica-radanavong-mrYkTuAesKE-unsplash.jpg,Stimuli/Experimental_stims/body_parts/mika-korhonen-Xodzxosar18-unsplash.jpg,1,NaN,,NaN,unchosen,NaN,NaN,NaN,NaN,2600,0,4,1
109,17620,0,110,2,2,0,no_gain1,gain1,D,F,15,12,faces,faces,51,51,Stimuli/Experimental_stims/faces/erik-lucatero-d2MSDujJl2g-unsplash.jpg,Stimuli/Experimental_stims/faces/aiony-haust-jmATI5Q_YgY-unsplash.jpg,1,NaN,,NaN,chosen,NaN,NaN,NaN,NaN,3000,1,4,1
110,17620,0,111,2,2,1,gain2,no_gain4,J,H,22,17,faces,faces,51,51,Stimuli/Experimental_stims/faces/ravi-patel-VMGAbeeJTKo-unsplash.jpg,Stimuli/Experimental_stims/faces/good-faces-xmSWVeGEnJw-unsplash.jpg,0,1,393,1,chosen,22,17,faces,faces,1100,0,4,1
111,17620,0,112,2,2,0,no_gain1,gain3,D,C,39,31,objects,body_parts,62,50,Stimuli/Experimental_stims/objects/charlesdeluvio-1-nx1QR5dTE-unsplash.jpg,Stimuli/Experimental_stims/body_parts/sincerely-media-VN6DbKajo5s-unsplash.jpg,1,NaN,,NaN,unchosen,NaN,NaN,NaN,NaN,1000,0,4,1
112,17620,0,113,2,2,1,gain5,no_gain1,A,D,47,39,objects,objects,62,62,Stimuli/Experimental_stims/objects/ronaldo-arthur-vidal-Cdz_lvnl37k-unsplash.jpg,Stimuli/Experimental_stims/objects/charlesdeluvio-1-nx1QR5dTE-unsplash.jpg,0,1,71,1,unchosen,47,39,objects,objects,1300,0,4,1
113,17620,0,114,2,2,1,gain3,no_gain6,C,B,3,10,outdoor_scenes,outdoor_scenes,51,51,Stimuli/Experimental_stims/outdoor_scenes/henry-be-NLF6hTe4PAg-unsplash.jpg,Stimuli/Experimental_stims/outdoor_scenes/shannon-kunkle-dM8INmkyDas-unsplash.jpg,0,1,87,1,chosen,3,10,outdoor_scenes,outdoor_scenes,1000,0,4,1
114,17620,0,115,2,2,0,no_gain1,gain1,D,F,39,24,objects,body_parts,62,73,Stimuli/Experimental_stims/objects/charlesdeluvio-1-nx1QR5dTE-unsplash.jpg,Stimuli/Experimental_stims/body_parts/clay-banks-LjqARJaJotc-unsplash.jpg,0,0,230,1,unchosen,24,39,body_parts,objects,1200,0,4,1
115,17620,0,116,2,2,0,no_gain5,gain3,K,C,43,3,objects,outdoor_scenes,51,51,Stimuli/Experimental_stims/objects/jonathan-greenaway-Y4hGgeiFn3s-unsplash.jpg,Stimuli/Experimental_stims/outdoor_scenes/henry-be-NLF6hTe4PAg-unsplash.jpg,0,1,63,0,chosen,43,3,objects,outdoor_scenes,1800,0,4,1
116,17620,0,117,2,2,1,gain5,no_gain2,A,I,47,32,objects,body_parts,62,51,Stimuli/Experimental_stims/objects/ronaldo-arthur-vidal-Cdz_lvnl37k-unsplash.jpg,Stimuli/Experimental_stims/body_parts/towfiqu-barbhuiya-3AsiVDsZnHg-unsplash.jpg,0,1,225,1,unchosen,47,32,objects,body_parts,2300,0,4,1
117,17620,0,118,2,2,1,gain4,no_gain1,L,D,28,15,body_parts,faces,66,51,Stimuli/Experimental_stims/body_parts/ira-vishnevskaya-8DQAvdCby1I-unsplash.jpg,Stimuli/Experimental_stims/faces/erik-lucatero-d2MSDujJl2g-unsplash.jpg,1,NaN,,NaN,chosen,NaN,NaN,NaN,NaN,3500,1,4,1
118,17620,0,119,2,2,0,no_gain2,gain6,I,G,32,4,body_parts,outdoor_scenes,51,42,Stimuli/Experimental_stims/body_parts/towfiqu-barbhuiya-3AsiVDsZnHg-unsplash.jpg,Stimuli/Experimental_stims/outdoor_scenes/jarrett-kow-1ZOyYPOBn7I-unsplash.jpg,1,NaN,,NaN,unchosen,NaN,NaN,NaN,NaN,1300,0,4,1
119,17620,0,120,2,2,0,no_gain2,gain5,I,A,1,11,outdoor_scenes,outdoor_scenes,51,66,Stimuli/Experimental_stims/outdoor_scenes/ashim-d-silva-S2Q5mdOrrVc-unsplash.jpg,Stimuli/Experimental_stims/outdoor_scenes/stephen-leonardi-gyIRjKPXupE-unsplash.jpg,0,1,44,0,chosen,1,11,outdoor_scenes,outdoor_scenes,1400,0,4,1
120,17620,0,121,2,2,1,gain3,no_gain3,C,E,3,41,outdoor_scenes,objects,51,51,Stimuli/Experimental_stims/outdoor_scenes/henry-be-NLF6hTe4PAg-unsplash.jpg,Stimuli/Experimental_stims/objects/insung-yoon-w2JtIQQXoRU-unsplash.jpg,0,0,789,0,chosen,41,3,objects,outdoor_scenes,1300,0,4,1
121,17620,0,122,2,2,1,gain6,no_gain1,G,D,4,39,outdoor_scenes,objects,42,62,Stimuli/Experimental_stims/outdoor_scenes/jarrett-kow-1ZOyYPOBn7I-unsplash.jpg,Stimuli/Experimental_stims/objects/charlesdeluvio-1-nx1QR5dTE-unsplash.jpg,0,0,614,0,unchosen,39,4,objects,outdoor_scenes,2800,0,4,1
122,17620,0,123,2,2,1,gain5,no_gain6,A,B,47,14,objects,faces,62,61,Stimuli/Experimental_stims/objects/ronaldo-arthur-vidal-Cdz_lvnl37k-unsplash.jpg,Stimuli/Experimental_stims/faces/david-siglin-UuW4psOb388-unsplash.jpg,0,0,706,0,unchosen,14,47,faces,objects,1800,0,4,1
123,17620,0,124,2,2,0,no_gain2,gain4,I,L,32,18,body_parts,faces,51,70,Stimuli/Experimental_stims/body_parts/towfiqu-barbhuiya-3AsiVDsZnHg-unsplash.jpg,Stimuli/Experimental_stims/faces/jessica-radanavong-mrYkTuAesKE-unsplash.jpg,0,0,347,1,unchosen,18,32,faces,body_parts,1200,0,4,1
124,17620,0,125,2,2,0,no_gain3,gain4,E,L,41,28,objects,body_parts,51,66,Stimuli/Experimental_stims/objects/insung-yoon-w2JtIQQXoRU-unsplash.jpg,Stimuli/Experimental_stims/body_parts/ira-vishnevskaya-8DQAvdCby1I-unsplash.jpg,0,0,964,1,chosen,28,41,body_parts,objects,1000,0,4,1
125,17620,0,126,2,2,1,gain3,no_gain4,C,H,31,9,body_parts,outdoor_scenes,50,51,Stimuli/Experimental_stims/body_parts/sincerely-media-VN6DbKajo5s-unsplash.jpg,Stimuli/Experimental_stims/outdoor_scenes/sergey-pesterev-y-b_FOmJXdg-unsplash.jpg,1,NaN,,NaN,unchosen,NaN,NaN,NaN,NaN,1600,0,4,1
126,17620,0,127,2,2,0,no_gain2,gain4,I,L,1,28,outdoor_scenes,body_parts,51,66,Stimuli/Experimental_stims/outdoor_scenes/ashim-d-silva-S2Q5mdOrrVc-unsplash.jpg,Stimuli/Experimental_stims/body_parts/ira-vishnevskaya-8DQAvdCby1I-unsplash.jpg,0,1,931,0,chosen,1,28,outdoor_scenes,body_parts,1500,0,4,1
127,17620,0,128,2,2,0,no_gain5,gain2,K,J,43,22,objects,faces,51,51,Stimuli/Experimental_stims/objects/jonathan-greenaway-Y4hGgeiFn3s-unsplash.jpg,Stimuli/Experimental_stims/faces/ravi-patel-VMGAbeeJTKo-unsplash.jpg,1,NaN,,NaN,chosen,NaN,NaN,NaN,NaN,3300,1,4,1
128,17620,0,129,2,2,0,no_gain4,gain1,H,F,17,12,faces,faces,51,51,Stimuli/Experimental_stims/faces/good-faces-xmSWVeGEnJw-unsplash.jpg,Stimuli/Experimental_stims/faces/aiony-haust-jmATI5Q_YgY-unsplash.jpg,0,1,955,0,chosen,17,12,faces,faces,2200,0,4,1
129,17620,0,130,2,2,0,no_gain5,gain6,K,G,27,4,body_parts,outdoor_scenes,51,42,Stimuli/Experimental_stims/body_parts/heike-mintel-i_Gns0ELnLw-unsplash.jpg,Stimuli/Experimental_stims/outdoor_scenes/jarrett-kow-1ZOyYPOBn7I-unsplash.jpg,0,1,156,0,unchosen,27,4,body_parts,outdoor_scenes,2400,0,4,1
130,17620,0,131,2,2,1,gain2,no_gain3,J,E,22,41,faces,objects,51,51,Stimuli/Experimental_stims/faces/ravi-patel-VMGAbeeJTKo-unsplash.jpg,Stimuli/Experimental_stims/objects/insung-yoon-w2JtIQQXoRU-unsplash.jpg,0,1,636,1,chosen,22,41,faces,objects,1300,0,4,1
131,17620,0,132,2,2,1,gain6,no_gain4,G,H,4,9,outdoor_scenes,outdoor_scenes,42,51,Stimuli/Experimental_stims/outdoor_scenes/jarrett-kow-1ZOyYPOBn7I-unsplash.jpg,Stimuli/Experimental_stims/outdoor_scenes/sergey-pesterev-y-b_FOmJXdg-unsplash.jpg,0,1,1091,1,unchosen,4,9,outdoor_scenes,outdoor_scenes,2400,0,4,1
132,17620,0,133,2,2,0,no_gain1,gain4,D,L,39,18,objects,faces,62,70,Stimuli/Experimental_stims/objects/charlesdeluvio-1-nx1QR5dTE-unsplash.jpg,Stimuli/Experimental_stims/faces/jessica-radanavong-mrYkTuAesKE-unsplash.jpg,0,1,1024,0,unchosen,39,18,objects,faces,2200,0,4,1
133,17620,0,134,2,2,0,no_gain6,gain4,B,L,10,28,outdoor_scenes,body_parts,51,66,Stimuli/Experimental_stims/outdoor_scenes/shannon-kunkle-dM8INmkyDas-unsplash.jpg,Stimuli/Experimental_stims/body_parts/ira-vishnevskaya-8DQAvdCby1I-unsplash.jpg,0,1,1153,0,chosen,10,28,outdoor_scenes,body_parts,2900,1,4,1
134,17620,0,135,2,2,1,gain1,no_gain6,F,B,12,10,faces,outdoor_scenes,51,51,Stimuli/Experimental_stims/faces/aiony-haust-jmATI5Q_YgY-unsplash.jpg,Stimuli/Experimental_stims/outdoor_scenes/shannon-kunkle-dM8INmkyDas-unsplash.jpg,1,NaN,,NaN,chosen,NaN,NaN,NaN,NaN,1900,0,4,1
135,17620,0,136,2,2,0,no_gain1,gain2,D,J,39,45,objects,objects,62,51,Stimuli/Experimental_stims/objects/charlesdeluvio-1-nx1QR5dTE-unsplash.jpg,Stimuli/Experimental_stims/objects/leohoho-rngTKHXumy0-unsplash.jpg,0,1,1209,0,unchosen,39,45,objects,objects,1700,0,4,1
136,17620,0,137,2,2,0,no_gain4,gain2,H,J,9,45,outdoor_scenes,objects,51,51,Stimuli/Experimental_stims/outdoor_scenes/sergey-pesterev-y-b_FOmJXdg-unsplash.jpg,Stimuli/Experimental_stims/objects/leohoho-rngTKHXumy0-unsplash.jpg,0,1,1203,0,unchosen,9,45,outdoor_scenes,objects,1900,0,4,1
137,17620,0,138,2,2,1,gain6,no_gain6,G,B,46,10,objects,outdoor_scenes,58,51,Stimuli/Experimental_stims/objects/mockup-graphics-PNsj6RiHAF4-unsplash.jpg,Stimuli/Experimental_stims/outdoor_scenes/shannon-kunkle-dM8INmkyDas-unsplash.jpg,1,NaN,,NaN,chosen,NaN,NaN,NaN,NaN,1700,0,4,1
138,17620,0,139,2,2,0,no_gain3,gain2,E,J,30,45,body_parts,objects,51,51,Stimuli/Experimental_stims/body_parts/mika-korhonen-Xodzxosar18-unsplash.jpg,Stimuli/Experimental_stims/objects/leohoho-rngTKHXumy0-unsplash.jpg,1,NaN,,NaN,unchosen,NaN,NaN,NaN,NaN,1300,0,4,1
139,17620,0,140,2,2,1,gain5,no_gain4,A,H,47,9,objects,outdoor_scenes,62,51,Stimuli/Experimental_stims/objects/ronaldo-arthur-vidal-Cdz_lvnl37k-unsplash.jpg,Stimuli/Experimental_stims/outdoor_scenes/sergey-pesterev-y-b_FOmJXdg-unsplash.jpg,1,NaN,,NaN,unchosen,NaN,NaN,NaN,NaN,3600,1,4,1
140,17620,0,141,2,2,1,gain5,no_gain4,A,H,11,17,outdoor_scenes,faces,66,51,Stimuli/Experimental_stims/outdoor_scenes/stephen-leonardi-gyIRjKPXupE-unsplash.jpg,Stimuli/Experimental_stims/faces/good-faces-xmSWVeGEnJw-unsplash.jpg,1,NaN,,NaN,chosen,NaN,NaN,NaN,NaN,1700,0,4,1
141,17620,0,142,2,2,0,no_gain6,gain2,B,J,10,22,outdoor_scenes,faces,51,51,Stimuli/Experimental_stims/outdoor_scenes/shannon-kunkle-dM8INmkyDas-unsplash.jpg,Stimuli/Experimental_stims/faces/ravi-patel-VMGAbeeJTKo-unsplash.jpg,1,NaN,,NaN,chosen,NaN,NaN,NaN,NaN,1900,0,4,1
142,17620,0,143,2,2,0,no_gain2,gain1,I,F,1,12,outdoor_scenes,faces,51,51,Stimuli/Experimental_stims/outdoor_scenes/ashim-d-silva-S2Q5mdOrrVc-unsplash.jpg,Stimuli/Experimental_stims/faces/aiony-haust-jmATI5Q_YgY-unsplash.jpg,0,0,975,1,chosen,12,1,faces,outdoor_scenes,2200,0,4,1
143,17620,0,144,2,2,0,no_gain3,gain5,E,A,30,47,body_parts,objects,51,62,Stimuli/Experimental_stims/body_parts/mika-korhonen-Xodzxosar18-unsplash.jpg,Stimuli/Experimental_stims/objects/ronaldo-arthur-vidal-Cdz_lvnl37k-unsplash.jpg,0,0,1232,1,unchosen,47,30,objects,body_parts,1800,0,4,1
144,17620,0,145,2,2,0,no_gain6,gain3,B,C,14,31,faces,body_parts,61,50,Stimuli/Experimental_stims/faces/david-siglin-UuW4psOb388-unsplash.jpg,Stimuli/Experimental_stims/body_parts/sincerely-media-VN6DbKajo5s-unsplash.jpg,0,0,700,1,unchosen,31,14,body_parts,faces,1400,0,4,1
145,17620,0,146,2,2,0,no_gain2,gain3,I,C,1,3,outdoor_scenes,outdoor_scenes,51,51,Stimuli/Experimental_stims/outdoor_scenes/ashim-d-silva-S2Q5mdOrrVc-unsplash.jpg,Stimuli/Experimental_stims/outdoor_scenes/henry-be-NLF6hTe4PAg-unsplash.jpg,0,0,1482,1,chosen,3,1,outdoor_scenes,outdoor_scenes,1800,0,4,1
146,17620,0,147,2,2,1,gain3,no_gain2,C,I,31,32,body_parts,body_parts,50,51,Stimuli/Experimental_stims/body_parts/sincerely-media-VN6DbKajo5s-unsplash.jpg,Stimuli/Experimental_stims/body_parts/towfiqu-barbhuiya-3AsiVDsZnHg-unsplash.jpg,0,0,1619,0,unchosen,32,31,body_parts,body_parts,1300,0,4,1
147,17620,0,148,2,2,1,gain1,no_gain6,F,B,24,14,body_parts,faces,73,61,Stimuli/Experimental_stims/body_parts/clay-banks-LjqARJaJotc-unsplash.jpg,Stimuli/Experimental_stims/faces/david-siglin-UuW4psOb388-unsplash.jpg,1,NaN,,NaN,unchosen,NaN,NaN,NaN,NaN,3600,1,4,1
148,17620,0,149,3,3,1,gain3,no_gain6,C,B,31,14,body_parts,faces,50,61,Stimuli/Experimental_stims/body_parts/sincerely-media-VN6DbKajo5s-unsplash.jpg,Stimuli/Experimental_stims/faces/david-siglin-UuW4psOb388-unsplash.jpg,0,1,1286,1,unchosen,31,14,body_parts,faces,1200,0,5,1
149,17620,0,150,3,3,1,gain3,no_gain3,C,E,3,41,outdoor_scenes,objects,51,51,Stimuli/Experimental_stims/outdoor_scenes/henry-be-NLF6hTe4PAg-unsplash.jpg,Stimuli/Experimental_stims/objects/insung-yoon-w2JtIQQXoRU-unsplash.jpg,0,1,973,1,chosen,3,41,outdoor_scenes,objects,1100,0,5,1
150,17620,0,151,3,3,1,gain1,no_gain4,F,H,12,17,faces,faces,51,51,Stimuli/Experimental_stims/faces/aiony-haust-jmATI5Q_YgY-unsplash.jpg,Stimuli/Experimental_stims/faces/good-faces-xmSWVeGEnJw-unsplash.jpg,0,0,548,0,chosen,17,12,faces,faces,1100,0,5,1
151,17620,0,152,3,3,1,gain5,no_gain6,A,B,47,14,objects,faces,62,61,Stimuli/Experimental_stims/objects/ronaldo-arthur-vidal-Cdz_lvnl37k-unsplash.jpg,Stimuli/Experimental_stims/faces/david-siglin-UuW4psOb388-unsplash.jpg,0,0,703,0,unchosen,14,47,faces,objects,1300,0,5,1
152,17620,0,153,3,3,1,gain2,no_gain6,J,B,22,10,faces,outdoor_scenes,51,51,Stimuli/Experimental_stims/faces/ravi-patel-VMGAbeeJTKo-unsplash.jpg,Stimuli/Experimental_stims/outdoor_scenes/shannon-kunkle-dM8INmkyDas-unsplash.jpg,0,0,894,0,chosen,10,22,outdoor_scenes,faces,3300,1,5,1
153,17620,0,154,3,3,1,gain6,no_gain6,G,B,46,10,objects,outdoor_scenes,58,51,Stimuli/Experimental_stims/objects/mockup-graphics-PNsj6RiHAF4-unsplash.jpg,Stimuli/Experimental_stims/outdoor_scenes/shannon-kunkle-dM8INmkyDas-unsplash.jpg,1,NaN,,NaN,chosen,NaN,NaN,NaN,NaN,1000,0,5,1
154,17620,0,155,3,3,1,gain1,no_gain2,F,I,24,32,body_parts,body_parts,73,51,Stimuli/Experimental_stims/body_parts/clay-banks-LjqARJaJotc-unsplash.jpg,Stimuli/Experimental_stims/body_parts/towfiqu-barbhuiya-3AsiVDsZnHg-unsplash.jpg,1,NaN,,NaN,unchosen,NaN,NaN,NaN,NaN,1300,0,5,1
155,17620,0,156,3,3,0,no_gain4,gain3,H,C,17,3,faces,outdoor_scenes,51,51,Stimuli/Experimental_stims/faces/good-faces-xmSWVeGEnJw-unsplash.jpg,Stimuli/Experimental_stims/outdoor_scenes/henry-be-NLF6hTe4PAg-unsplash.jpg,1,NaN,,NaN,chosen,NaN,NaN,NaN,NaN,1300,0,5,1
156,17620,0,157,3,3,0,no_gain4,gain4,H,L,17,28,faces,body_parts,51,66,Stimuli/Experimental_stims/faces/good-faces-xmSWVeGEnJw-unsplash.jpg,Stimuli/Experimental_stims/body_parts/ira-vishnevskaya-8DQAvdCby1I-unsplash.jpg,1,NaN,,NaN,chosen,NaN,NaN,NaN,NaN,1600,0,5,1
157,17620,0,158,3,3,1,gain6,no_gain3,G,E,46,41,objects,objects,58,51,Stimuli/Experimental_stims/objects/mockup-graphics-PNsj6RiHAF4-unsplash.jpg,Stimuli/Experimental_stims/objects/insung-yoon-w2JtIQQXoRU-unsplash.jpg,1,NaN,,NaN,chosen,NaN,NaN,NaN,NaN,1400,0,5,1
158,17620,0,159,3,3,0,no_gain1,gain2,D,J,39,45,objects,objects,62,51,Stimuli/Experimental_stims/objects/charlesdeluvio-1-nx1QR5dTE-unsplash.jpg,Stimuli/Experimental_stims/objects/leohoho-rngTKHXumy0-unsplash.jpg,1,NaN,,NaN,unchosen,NaN,NaN,NaN,NaN,2100,0,5,1
159,17620,0,160,3,3,0,no_gain4,gain3,H,C,9,31,outdoor_scenes,body_parts,51,50,Stimuli/Experimental_stims/outdoor_scenes/sergey-pesterev-y-b_FOmJXdg-unsplash.jpg,Stimuli/Experimental_stims/body_parts/sincerely-media-VN6DbKajo5s-unsplash.jpg,1,NaN,,NaN,unchosen,NaN,NaN,NaN,NaN,1200,0,5,1
160,17620,0,161,3,3,0,no_gain1,gain3,D,C,15,3,faces,outdoor_scenes,51,51,Stimuli/Experimental_stims/faces/erik-lucatero-d2MSDujJl2g-unsplash.jpg,Stimuli/Experimental_stims/outdoor_scenes/henry-be-NLF6hTe4PAg-unsplash.jpg,1,NaN,,NaN,chosen,NaN,NaN,NaN,NaN,4100,1,5,1
161,17620,0,162,3,3,0,no_gain1,gain4,D,L,39,18,objects,faces,62,70,Stimuli/Experimental_stims/objects/charlesdeluvio-1-nx1QR5dTE-unsplash.jpg,Stimuli/Experimental_stims/faces/jessica-radanavong-mrYkTuAesKE-unsplash.jpg,0,0,311,1,unchosen,18,39,faces,objects,1900,0,5,1
162,17620,0,163,3,3,1,gain5,no_gain5,A,K,11,43,outdoor_scenes,objects,66,51,Stimuli/Experimental_stims/outdoor_scenes/stephen-leonardi-gyIRjKPXupE-unsplash.jpg,Stimuli/Experimental_stims/objects/jonathan-greenaway-Y4hGgeiFn3s-unsplash.jpg,0,0,608,0,chosen,43,11,objects,outdoor_scenes,2000,0,5,1
163,17620,0,164,3,3,0,no_gain2,gain5,I,A,32,47,body_parts,objects,51,62,Stimuli/Experimental_stims/body_parts/towfiqu-barbhuiya-3AsiVDsZnHg-unsplash.jpg,Stimuli/Experimental_stims/objects/ronaldo-arthur-vidal-Cdz_lvnl37k-unsplash.jpg,0,0,1227,1,unchosen,47,32,objects,body_parts,2600,0,5,1
164,17620,0,165,3,3,1,gain1,no_gain4,F,H,24,9,body_parts,outdoor_scenes,73,51,Stimuli/Experimental_stims/body_parts/clay-banks-LjqARJaJotc-unsplash.jpg,Stimuli/Experimental_stims/outdoor_scenes/sergey-pesterev-y-b_FOmJXdg-unsplash.jpg,1,NaN,,NaN,unchosen,NaN,NaN,NaN,NaN,1100,0,5,1
165,17620,0,166,3,3,0,no_gain4,gain5,H,A,17,11,faces,outdoor_scenes,51,66,Stimuli/Experimental_stims/faces/good-faces-xmSWVeGEnJw-unsplash.jpg,Stimuli/Experimental_stims/outdoor_scenes/stephen-leonardi-gyIRjKPXupE-unsplash.jpg,1,NaN,,NaN,chosen,NaN,NaN,NaN,NaN,4400,1,5,1
166,17620,0,167,3,3,0,no_gain5,gain4,K,L,27,18,body_parts,faces,51,70,Stimuli/Experimental_stims/body_parts/heike-mintel-i_Gns0ELnLw-unsplash.jpg,Stimuli/Experimental_stims/faces/jessica-radanavong-mrYkTuAesKE-unsplash.jpg,1,NaN,,NaN,unchosen,NaN,NaN,NaN,NaN,1200,0,5,1
167,17620,0,168,3,3,0,no_gain5,gain6,K,G,43,46,objects,objects,51,58,Stimuli/Experimental_stims/objects/jonathan-greenaway-Y4hGgeiFn3s-unsplash.jpg,Stimuli/Experimental_stims/objects/mockup-graphics-PNsj6RiHAF4-unsplash.jpg,0,0,307,1,chosen,46,43,objects,objects,1100,0,5,1
168,17620,0,169,3,3,1,gain1,no_gain6,F,B,24,14,body_parts,faces,73,61,Stimuli/Experimental_stims/body_parts/clay-banks-LjqARJaJotc-unsplash.jpg,Stimuli/Experimental_stims/faces/david-siglin-UuW4psOb388-unsplash.jpg,0,0,894,0,unchosen,14,24,faces,body_parts,1700,0,5,1
169,17620,0,170,3,3,1,gain2,no_gain2,J,I,22,1,faces,outdoor_scenes,51,51,Stimuli/Experimental_stims/faces/ravi-patel-VMGAbeeJTKo-unsplash.jpg,Stimuli/Experimental_stims/outdoor_scenes/ashim-d-silva-S2Q5mdOrrVc-unsplash.jpg,1,NaN,,NaN,chosen,NaN,NaN,NaN,NaN,1100,0,5,1
170,17620,0,171,3,3,0,no_gain2,gain4,I,L,32,18,body_parts,faces,51,70,Stimuli/Experimental_stims/body_parts/towfiqu-barbhuiya-3AsiVDsZnHg-unsplash.jpg,Stimuli/Experimental_stims/faces/jessica-radanavong-mrYkTuAesKE-unsplash.jpg,0,0,1180,1,unchosen,18,32,faces,body_parts,3300,1,5,1
171,17620,0,172,3,3,0,no_gain3,gain2,E,J,41,22,objects,faces,51,51,Stimuli/Experimental_stims/objects/insung-yoon-w2JtIQQXoRU-unsplash.jpg,Stimuli/Experimental_stims/faces/ravi-patel-VMGAbeeJTKo-unsplash.jpg,0,0,242,1,chosen,22,41,faces,objects,2800,0,5,1
172,17620,0,173,3,3,0,no_gain4,gain2,H,J,17,22,faces,faces,51,51,Stimuli/Experimental_stims/faces/good-faces-xmSWVeGEnJw-unsplash.jpg,Stimuli/Experimental_stims/faces/ravi-patel-VMGAbeeJTKo-unsplash.jpg,1,NaN,,NaN,chosen,NaN,NaN,NaN,NaN,1000,0,5,1
173,17620,0,174,3,3,0,no_gain1,gain6,D,G,39,4,objects,outdoor_scenes,62,42,Stimuli/Experimental_stims/objects/charlesdeluvio-1-nx1QR5dTE-unsplash.jpg,Stimuli/Experimental_stims/outdoor_scenes/jarrett-kow-1ZOyYPOBn7I-unsplash.jpg,1,NaN,,NaN,unchosen,NaN,NaN,NaN,NaN,3100,0,5,1
174,17620,0,175,3,3,1,gain4,no_gain1,L,D,28,15,body_parts,faces,66,51,Stimuli/Experimental_stims/body_parts/ira-vishnevskaya-8DQAvdCby1I-unsplash.jpg,Stimuli/Experimental_stims/faces/erik-lucatero-d2MSDujJl2g-unsplash.jpg,0,0,530,0,chosen,15,28,faces,body_parts,2000,0,5,1
175,17620,0,176,3,3,0,no_gain6,gain6,B,G,14,4,faces,outdoor_scenes,61,42,Stimuli/Experimental_stims/faces/david-siglin-UuW4psOb388-unsplash.jpg,Stimuli/Experimental_stims/outdoor_scenes/jarrett-kow-1ZOyYPOBn7I-unsplash.jpg,0,0,268,1,unchosen,4,14,outdoor_scenes,faces,2300,0,5,1
176,17620,0,177,3,3,0,no_gain2,gain5,I,A,1,11,outdoor_scenes,outdoor_scenes,51,66,Stimuli/Experimental_stims/outdoor_scenes/ashim-d-silva-S2Q5mdOrrVc-unsplash.jpg,Stimuli/Experimental_stims/outdoor_scenes/stephen-leonardi-gyIRjKPXupE-unsplash.jpg,0,0,1245,1,chosen,11,1,outdoor_scenes,outdoor_scenes,1500,0,5,1
177,17620,0,178,3,3,0,no_gain5,gain2,K,J,27,45,body_parts,objects,51,51,Stimuli/Experimental_stims/body_parts/heike-mintel-i_Gns0ELnLw-unsplash.jpg,Stimuli/Experimental_stims/objects/leohoho-rngTKHXumy0-unsplash.jpg,0,0,274,1,unchosen,45,27,objects,body_parts,1600,0,5,1
178,17620,0,179,3,3,1,gain6,no_gain1,G,D,46,15,objects,faces,58,51,Stimuli/Experimental_stims/objects/mockup-graphics-PNsj6RiHAF4-unsplash.jpg,Stimuli/Experimental_stims/faces/erik-lucatero-d2MSDujJl2g-unsplash.jpg,0,0,1355,0,chosen,15,46,faces,objects,4200,1,5,1
179,17620,0,180,3,3,0,no_gain5,gain4,K,L,43,28,objects,body_parts,51,66,Stimuli/Experimental_stims/objects/jonathan-greenaway-Y4hGgeiFn3s-unsplash.jpg,Stimuli/Experimental_stims/body_parts/ira-vishnevskaya-8DQAvdCby1I-unsplash.jpg,0,0,92,1,chosen,28,43,body_parts,objects,1000,0,5,1
180,17620,0,181,3,3,0,no_gain6,gain3,B,C,10,3,outdoor_scenes,outdoor_scenes,51,51,Stimuli/Experimental_stims/outdoor_scenes/shannon-kunkle-dM8INmkyDas-unsplash.jpg,Stimuli/Experimental_stims/outdoor_scenes/henry-be-NLF6hTe4PAg-unsplash.jpg,0,0,653,1,chosen,3,10,outdoor_scenes,outdoor_scenes,2000,0,5,1
181,17620,0,182,3,3,1,gain4,no_gain3,L,E,18,30,faces,body_parts,70,51,Stimuli/Experimental_stims/faces/jessica-radanavong-mrYkTuAesKE-unsplash.jpg,Stimuli/Experimental_stims/body_parts/mika-korhonen-Xodzxosar18-unsplash.jpg,0,0,1236,0,unchosen,30,18,body_parts,faces,1700,0,5,1
182,17620,0,183,3,3,1,gain2,no_gain6,J,B,45,14,objects,faces,51,61,Stimuli/Experimental_stims/objects/leohoho-rngTKHXumy0-unsplash.jpg,Stimuli/Experimental_stims/faces/david-siglin-UuW4psOb388-unsplash.jpg,0,0,491,0,unchosen,14,45,faces,objects,2300,0,5,1
183,17620,0,184,3,3,1,gain4,no_gain4,L,H,18,9,faces,outdoor_scenes,70,51,Stimuli/Experimental_stims/faces/jessica-radanavong-mrYkTuAesKE-unsplash.jpg,Stimuli/Experimental_stims/outdoor_scenes/sergey-pesterev-y-b_FOmJXdg-unsplash.jpg,0,0,516,0,unchosen,9,18,outdoor_scenes,faces,3300,1,5,1
184,17620,0,185,3,3,0,no_gain1,gain2,D,J,15,22,faces,faces,51,51,Stimuli/Experimental_stims/faces/erik-lucatero-d2MSDujJl2g-unsplash.jpg,Stimuli/Experimental_stims/faces/ravi-patel-VMGAbeeJTKo-unsplash.jpg,0,0,434,1,chosen,22,15,faces,faces,1100,0,5,1
185,17620,0,186,3,3,0,no_gain4,gain6,H,G,17,46,faces,objects,51,58,Stimuli/Experimental_stims/faces/good-faces-xmSWVeGEnJw-unsplash.jpg,Stimuli/Experimental_stims/objects/mockup-graphics-PNsj6RiHAF4-unsplash.jpg,0,0,799,1,chosen,46,17,objects,faces,1900,0,5,1
186,17620,0,187,3,3,1,gain3,no_gain5,C,K,3,43,outdoor_scenes,objects,51,51,Stimuli/Experimental_stims/outdoor_scenes/henry-be-NLF6hTe4PAg-unsplash.jpg,Stimuli/Experimental_stims/objects/jonathan-greenaway-Y4hGgeiFn3s-unsplash.jpg,0,0,1000,0,chosen,43,3,objects,outdoor_scenes,2400,0,5,1
187,17620,0,188,3,3,0,no_gain2,gain6,I,G,32,4,body_parts,outdoor_scenes,51,42,Stimuli/Experimental_stims/body_parts/towfiqu-barbhuiya-3AsiVDsZnHg-unsplash.jpg,Stimuli/Experimental_stims/outdoor_scenes/jarrett-kow-1ZOyYPOBn7I-unsplash.jpg,0,0,799,1,unchosen,4,32,outdoor_scenes,body_parts,1900,0,5,1
188,17620,0,189,3,3,0,no_gain1,gain1,D,F,39,24,objects,body_parts,62,73,Stimuli/Experimental_stims/objects/charlesdeluvio-1-nx1QR5dTE-unsplash.jpg,Stimuli/Experimental_stims/body_parts/clay-banks-LjqARJaJotc-unsplash.jpg,0,0,731,1,unchosen,24,39,body_parts,objects,3300,1,5,1
189,17620,0,190,3,3,0,no_gain3,gain5,E,A,30,47,body_parts,objects,51,62,Stimuli/Experimental_stims/body_parts/mika-korhonen-Xodzxosar18-unsplash.jpg,Stimuli/Experimental_stims/objects/ronaldo-arthur-vidal-Cdz_lvnl37k-unsplash.jpg,1,NaN,,NaN,unchosen,NaN,NaN,NaN,NaN,1200,0,5,1
190,17620,0,191,3,3,1,gain1,no_gain1,F,D,12,15,faces,faces,51,51,Stimuli/Experimental_stims/faces/aiony-haust-jmATI5Q_YgY-unsplash.jpg,Stimuli/Experimental_stims/faces/erik-lucatero-d2MSDujJl2g-unsplash.jpg,0,0,701,0,chosen,15,12,faces,faces,1100,0,5,1
191,17620,0,192,3,3,0,no_gain4,gain5,H,A,9,47,outdoor_scenes,objects,51,62,Stimuli/Experimental_stims/outdoor_scenes/sergey-pesterev-y-b_FOmJXdg-unsplash.jpg,Stimuli/Experimental_stims/objects/ronaldo-arthur-vidal-Cdz_lvnl37k-unsplash.jpg,0,0,634,1,unchosen,47,9,objects,outdoor_scenes,1400,0,5,1
192,17620,0,193,3,3,1,gain3,no_gain1,C,D,31,39,body_parts,objects,50,62,Stimuli/Experimental_stims/body_parts/sincerely-media-VN6DbKajo5s-unsplash.jpg,Stimuli/Experimental_stims/objects/charlesdeluvio-1-nx1QR5dTE-unsplash.jpg,1,NaN,,NaN,unchosen,NaN,NaN,NaN,NaN,2600,0,5,1
193,17620,0,194,3,3,1,gain6,no_gain4,G,H,4,9,outdoor_scenes,outdoor_scenes,42,51,Stimuli/Experimental_stims/outdoor_scenes/jarrett-kow-1ZOyYPOBn7I-unsplash.jpg,Stimuli/Experimental_stims/outdoor_scenes/sergey-pesterev-y-b_FOmJXdg-unsplash.jpg,0,0,647,0,unchosen,9,4,outdoor_scenes,outdoor_scenes,1100,0,5,1
194,17620,0,195,3,3,1,gain1,no_gain3,F,E,12,41,faces,objects,51,51,Stimuli/Experimental_stims/faces/aiony-haust-jmATI5Q_YgY-unsplash.jpg,Stimuli/Experimental_stims/objects/insung-yoon-w2JtIQQXoRU-unsplash.jpg,0,0,554,0,chosen,41,12,objects,faces,4100,1,5,1
195,17620,0,196,3,3,1,gain6,no_gain3,G,E,4,30,outdoor_scenes,body_parts,42,51,Stimuli/Experimental_stims/outdoor_scenes/jarrett-kow-1ZOyYPOBn7I-unsplash.jpg,Stimuli/Experimental_stims/body_parts/mika-korhonen-Xodzxosar18-unsplash.jpg,0,0,87,0,unchosen,30,4,body_parts,outdoor_scenes,1000,0,5,1
196,17620,0,197,3,3,0,no_gain3,gain4,E,L,41,28,objects,body_parts,51,66,Stimuli/Experimental_stims/objects/insung-yoon-w2JtIQQXoRU-unsplash.jpg,Stimuli/Experimental_stims/body_parts/ira-vishnevskaya-8DQAvdCby1I-unsplash.jpg,1,NaN,,NaN,chosen,NaN,NaN,NaN,NaN,1800,0,5,1
197,17620,0,198,3,3,1,gain1,no_gain3,F,E,24,30,body_parts,body_parts,73,51,Stimuli/Experimental_stims/body_parts/clay-banks-LjqARJaJotc-unsplash.jpg,Stimuli/Experimental_stims/body_parts/mika-korhonen-Xodzxosar18-unsplash.jpg,1,NaN,,NaN,unchosen,NaN,NaN,NaN,NaN,1600,0,5,1
198,17620,0,199,3,3,1,gain4,no_gain6,L,B,18,14,faces,faces,70,61,Stimuli/Experimental_stims/faces/jessica-radanavong-mrYkTuAesKE-unsplash.jpg,Stimuli/Experimental_stims/faces/david-siglin-UuW4psOb388-unsplash.jpg,1,NaN,,NaN,unchosen,NaN,NaN,NaN,NaN,2100,0,5,1
199,17620,0,200,3,3,1,gain2,no_gain4,J,H,45,9,objects,outdoor_scenes,51,51,Stimuli/Experimental_stims/objects/leohoho-rngTKHXumy0-unsplash.jpg,Stimuli/Experimental_stims/outdoor_scenes/sergey-pesterev-y-b_FOmJXdg-unsplash.jpg,1,NaN,,NaN,unchosen,NaN,NaN,NaN,NaN,1700,0,5,1
200,17620,0,201,3,3,1,gain5,no_gain3,A,E,11,41,outdoor_scenes,objects,66,51,Stimuli/Experimental_stims/outdoor_scenes/stephen-leonardi-gyIRjKPXupE-unsplash.jpg,Stimuli/Experimental_stims/objects/insung-yoon-w2JtIQQXoRU-unsplash.jpg,1,NaN,,NaN,chosen,NaN,NaN,NaN,NaN,3200,1,5,1
201,17620,0,202,3,3,0,no_gain6,gain4,B,L,10,28,outdoor_scenes,body_parts,51,66,Stimuli/Experimental_stims/outdoor_scenes/shannon-kunkle-dM8INmkyDas-unsplash.jpg,Stimuli/Experimental_stims/body_parts/ira-vishnevskaya-8DQAvdCby1I-unsplash.jpg,1,NaN,,NaN,chosen,NaN,NaN,NaN,NaN,1100,0,5,1
202,17620,0,203,3,3,1,gain2,no_gain2,J,I,45,32,objects,body_parts,51,51,Stimuli/Experimental_stims/objects/leohoho-rngTKHXumy0-unsplash.jpg,Stimuli/Experimental_stims/body_parts/towfiqu-barbhuiya-3AsiVDsZnHg-unsplash.jpg,1,NaN,,NaN,unchosen,NaN,NaN,NaN,NaN,2800,0,5,1
203,17620,0,204,3,3,1,gain2,no_gain5,J,K,22,43,faces,objects,51,51,Stimuli/Experimental_stims/faces/ravi-patel-VMGAbeeJTKo-unsplash.jpg,Stimuli/Experimental_stims/objects/jonathan-greenaway-Y4hGgeiFn3s-unsplash.jpg,1,NaN,,NaN,chosen,NaN,NaN,NaN,NaN,1400,0,5,1
204,17620,0,205,3,3,1,gain1,no_gain2,F,I,12,1,faces,outdoor_scenes,51,51,Stimuli/Experimental_stims/faces/aiony-haust-jmATI5Q_YgY-unsplash.jpg,Stimuli/Experimental_stims/outdoor_scenes/ashim-d-silva-S2Q5mdOrrVc-unsplash.jpg,1,NaN,,NaN,chosen,NaN,NaN,NaN,NaN,2200,0,5,1
205,17620,0,206,3,3,1,gain3,no_gain3,C,E,31,30,body_parts,body_parts,50,51,Stimuli/Experimental_stims/body_parts/sincerely-media-VN6DbKajo5s-unsplash.jpg,Stimuli/Experimental_stims/body_parts/mika-korhonen-Xodzxosar18-unsplash.jpg,1,NaN,,NaN,unchosen,NaN,NaN,NaN,NaN,1200,0,5,1
206,17620,0,207,3,3,0,no_gain6,gain5,B,A,10,11,outdoor_scenes,outdoor_scenes,51,66,Stimuli/Experimental_stims/outdoor_scenes/shannon-kunkle-dM8INmkyDas-unsplash.jpg,Stimuli/Experimental_stims/outdoor_scenes/stephen-leonardi-gyIRjKPXupE-unsplash.jpg,1,NaN,,NaN,chosen,NaN,NaN,NaN,NaN,2100,0,5,1
207,17620,0,208,3,3,1,gain1,no_gain5,F,K,12,43,faces,objects,51,51,Stimuli/Experimental_stims/faces/aiony-haust-jmATI5Q_YgY-unsplash.jpg,Stimuli/Experimental_stims/objects/jonathan-greenaway-Y4hGgeiFn3s-unsplash.jpg,1,NaN,,NaN,chosen,NaN,NaN,NaN,NaN,2600,0,5,1
208,17620,0,209,3,3,0,no_gain2,gain3,I,C,32,31,body_parts,body_parts,51,50,Stimuli/Experimental_stims/body_parts/towfiqu-barbhuiya-3AsiVDsZnHg-unsplash.jpg,Stimuli/Experimental_stims/body_parts/sincerely-media-VN6DbKajo5s-unsplash.jpg,1,NaN,,NaN,unchosen,NaN,NaN,NaN,NaN,3800,1,5,1
209,17620,0,210,3,3,0,no_gain6,gain1,B,F,10,12,outdoor_scenes,faces,51,51,Stimuli/Experimental_stims/outdoor_scenes/shannon-kunkle-dM8INmkyDas-unsplash.jpg,Stimuli/Experimental_stims/faces/aiony-haust-jmATI5Q_YgY-unsplash.jpg,1,NaN,,NaN,chosen,NaN,NaN,NaN,NaN,2300,0,5,1
210,17620,0,211,3,3,1,gain3,no_gain2,C,I,3,1,outdoor_scenes,outdoor_scenes,51,51,Stimuli/Experimental_stims/outdoor_scenes/henry-be-NLF6hTe4PAg-unsplash.jpg,Stimuli/Experimental_stims/outdoor_scenes/ashim-d-silva-S2Q5mdOrrVc-unsplash.jpg,0,0,157,0,chosen,1,3,outdoor_scenes,outdoor_scenes,1500,0,5,1
211,17620,0,212,3,3,0,no_gain3,gain2,E,J,30,45,body_parts,objects,51,51,Stimuli/Experimental_stims/body_parts/mika-korhonen-Xodzxosar18-unsplash.jpg,Stimuli/Experimental_stims/objects/leohoho-rngTKHXumy0-unsplash.jpg,0,0,692,1,unchosen,45,30,objects,body_parts,1700,0,5,1
212,17620,0,213,3,3,1,gain5,no_gain5,A,K,47,27,objects,body_parts,62,51,Stimuli/Experimental_stims/objects/ronaldo-arthur-vidal-Cdz_lvnl37k-unsplash.jpg,Stimuli/Experimental_stims/body_parts/heike-mintel-i_Gns0ELnLw-unsplash.jpg,0,0,631,0,unchosen,27,47,body_parts,objects,1000,0,5,1
213,17620,0,214,3,3,1,gain6,no_gain5,G,K,4,27,outdoor_scenes,body_parts,42,51,Stimuli/Experimental_stims/outdoor_scenes/jarrett-kow-1ZOyYPOBn7I-unsplash.jpg,Stimuli/Experimental_stims/body_parts/heike-mintel-i_Gns0ELnLw-unsplash.jpg,0,0,303,0,unchosen,27,4,body_parts,outdoor_scenes,2800,0,5,1
214,17620,0,215,3,3,0,no_gain1,gain5,D,A,15,11,faces,outdoor_scenes,51,66,Stimuli/Experimental_stims/faces/erik-lucatero-d2MSDujJl2g-unsplash.jpg,Stimuli/Experimental_stims/outdoor_scenes/stephen-leonardi-gyIRjKPXupE-unsplash.jpg,0,0,378,1,chosen,11,15,outdoor_scenes,faces,2400,0,5,1
215,17620,0,216,3,3,0,no_gain1,gain5,D,A,39,47,objects,objects,62,62,Stimuli/Experimental_stims/objects/charlesdeluvio-1-nx1QR5dTE-unsplash.jpg,Stimuli/Experimental_stims/objects/ronaldo-arthur-vidal-Cdz_lvnl37k-unsplash.jpg,0,0,763,1,unchosen,47,39,objects,objects,3800,1,5,1
216,17620,0,217,3,3,0,no_gain5,gain3,K,C,27,31,body_parts,body_parts,51,50,Stimuli/Experimental_stims/body_parts/heike-mintel-i_Gns0ELnLw-unsplash.jpg,Stimuli/Experimental_stims/body_parts/sincerely-media-VN6DbKajo5s-unsplash.jpg,0,0,1006,1,unchosen,31,27,body_parts,body_parts,1500,0,5,1
217,17620,0,218,3,3,0,no_gain5,gain1,K,F,27,24,body_parts,body_parts,51,73,Stimuli/Experimental_stims/body_parts/heike-mintel-i_Gns0ELnLw-unsplash.jpg,Stimuli/Experimental_stims/body_parts/clay-banks-LjqARJaJotc-unsplash.jpg,0,0,1232,1,unchosen,24,27,body_parts,body_parts,1100,0,5,1
218,17620,0,219,3,3,1,gain4,no_gain2,L,I,28,1,body_parts,outdoor_scenes,66,51,Stimuli/Experimental_stims/body_parts/ira-vishnevskaya-8DQAvdCby1I-unsplash.jpg,Stimuli/Experimental_stims/outdoor_scenes/ashim-d-silva-S2Q5mdOrrVc-unsplash.jpg,0,0,618,0,chosen,1,28,outdoor_scenes,body_parts,1500,0,5,1
219,17620,0,220,3,3,0,no_gain2,gain6,I,G,1,46,outdoor_scenes,objects,51,58,Stimuli/Experimental_stims/outdoor_scenes/ashim-d-silva-S2Q5mdOrrVc-unsplash.jpg,Stimuli/Experimental_stims/objects/mockup-graphics-PNsj6RiHAF4-unsplash.jpg,0,0,1098,1,chosen,46,1,objects,outdoor_scenes,2500,0,5,1
220,17620,0,221,4,4,0,no_gain5,gain1,K,F,27,24,body_parts,body_parts,51,73,Stimuli/Experimental_stims/body_parts/heike-mintel-i_Gns0ELnLw-unsplash.jpg,Stimuli/Experimental_stims/body_parts/clay-banks-LjqARJaJotc-unsplash.jpg,0,0,325,1,unchosen,24,27,body_parts,body_parts,3400,1,3,1
221,17620,0,222,4,4,0,no_gain5,gain4,K,L,43,28,objects,body_parts,51,66,Stimuli/Experimental_stims/objects/jonathan-greenaway-Y4hGgeiFn3s-unsplash.jpg,Stimuli/Experimental_stims/body_parts/ira-vishnevskaya-8DQAvdCby1I-unsplash.jpg,0,0,1410,1,chosen,28,43,body_parts,objects,1500,0,3,1
222,17620,0,223,4,4,0,no_gain2,gain3,I,C,32,31,body_parts,body_parts,51,50,Stimuli/Experimental_stims/body_parts/towfiqu-barbhuiya-3AsiVDsZnHg-unsplash.jpg,Stimuli/Experimental_stims/body_parts/sincerely-media-VN6DbKajo5s-unsplash.jpg,1,NaN,,NaN,unchosen,NaN,NaN,NaN,NaN,2000,0,3,1
223,17620,0,224,4,4,0,no_gain4,gain3,H,C,9,31,outdoor_scenes,body_parts,51,50,Stimuli/Experimental_stims/outdoor_scenes/sergey-pesterev-y-b_FOmJXdg-unsplash.jpg,Stimuli/Experimental_stims/body_parts/sincerely-media-VN6DbKajo5s-unsplash.jpg,0,0,256,1,unchosen,31,9,body_parts,outdoor_scenes,1100,0,3,1
224,17620,0,225,4,4,0,no_gain1,gain6,D,G,39,4,objects,outdoor_scenes,62,42,Stimuli/Experimental_stims/objects/charlesdeluvio-1-nx1QR5dTE-unsplash.jpg,Stimuli/Experimental_stims/outdoor_scenes/jarrett-kow-1ZOyYPOBn7I-unsplash.jpg,0,0,1158,1,unchosen,4,39,outdoor_scenes,objects,2700,0,3,1
225,17620,0,226,4,4,0,no_gain4,gain2,H,J,17,22,faces,faces,51,51,Stimuli/Experimental_stims/faces/good-faces-xmSWVeGEnJw-unsplash.jpg,Stimuli/Experimental_stims/faces/ravi-patel-VMGAbeeJTKo-unsplash.jpg,1,NaN,,NaN,chosen,NaN,NaN,NaN,NaN,1700,0,3,1
226,17620,0,227,4,4,0,no_gain1,gain1,D,F,15,12,faces,faces,51,51,Stimuli/Experimental_stims/faces/erik-lucatero-d2MSDujJl2g-unsplash.jpg,Stimuli/Experimental_stims/faces/aiony-haust-jmATI5Q_YgY-unsplash.jpg,1,NaN,,NaN,chosen,NaN,NaN,NaN,NaN,3500,1,3,1
227,17620,0,228,4,4,0,no_gain3,gain3,E,C,30,31,body_parts,body_parts,51,50,Stimuli/Experimental_stims/body_parts/mika-korhonen-Xodzxosar18-unsplash.jpg,Stimuli/Experimental_stims/body_parts/sincerely-media-VN6DbKajo5s-unsplash.jpg,0,0,266,1,unchosen,31,30,body_parts,body_parts,2700,0,3,1
228,17620,0,229,4,4,1,gain4,no_gain5,L,K,18,27,faces,body_parts,70,51,Stimuli/Experimental_stims/faces/jessica-radanavong-mrYkTuAesKE-unsplash.jpg,Stimuli/Experimental_stims/body_parts/heike-mintel-i_Gns0ELnLw-unsplash.jpg,0,0,640,0,unchosen,27,18,body_parts,faces,1500,0,3,1
229,17620,0,230,4,4,0,no_gain6,gain1,B,F,10,12,outdoor_scenes,faces,51,51,Stimuli/Experimental_stims/outdoor_scenes/shannon-kunkle-dM8INmkyDas-unsplash.jpg,Stimuli/Experimental_stims/faces/aiony-haust-jmATI5Q_YgY-unsplash.jpg,1,NaN,,NaN,chosen,NaN,NaN,NaN,NaN,1700,0,3,1
230,17620,0,231,4,4,0,no_gain1,gain2,D,J,39,45,objects,objects,62,51,Stimuli/Experimental_stims/objects/charlesdeluvio-1-nx1QR5dTE-unsplash.jpg,Stimuli/Experimental_stims/objects/leohoho-rngTKHXumy0-unsplash.jpg,1,NaN,,NaN,unchosen,NaN,NaN,NaN,NaN,2300,0,3,1
231,17620,0,232,4,4,0,no_gain4,gain6,H,G,17,46,faces,objects,51,58,Stimuli/Experimental_stims/faces/good-faces-xmSWVeGEnJw-unsplash.jpg,Stimuli/Experimental_stims/objects/mockup-graphics-PNsj6RiHAF4-unsplash.jpg,1,NaN,,NaN,chosen,NaN,NaN,NaN,NaN,3100,1,3,1
232,17620,0,233,4,4,1,gain5,no_gain3,A,E,11,41,outdoor_scenes,objects,66,51,Stimuli/Experimental_stims/outdoor_scenes/stephen-leonardi-gyIRjKPXupE-unsplash.jpg,Stimuli/Experimental_stims/objects/insung-yoon-w2JtIQQXoRU-unsplash.jpg,1,NaN,,NaN,chosen,NaN,NaN,NaN,NaN,1300,0,3,1
233,17620,0,234,4,4,1,gain1,no_gain3,F,E,12,41,faces,objects,51,51,Stimuli/Experimental_stims/faces/aiony-haust-jmATI5Q_YgY-unsplash.jpg,Stimuli/Experimental_stims/objects/insung-yoon-w2JtIQQXoRU-unsplash.jpg,1,NaN,,NaN,chosen,NaN,NaN,NaN,NaN,1400,0,3,1
234,17620,0,235,4,4,1,gain2,no_gain4,J,H,45,9,objects,outdoor_scenes,51,51,Stimuli/Experimental_stims/objects/leohoho-rngTKHXumy0-unsplash.jpg,Stimuli/Experimental_stims/outdoor_scenes/sergey-pesterev-y-b_FOmJXdg-unsplash.jpg,1,NaN,,NaN,unchosen,NaN,NaN,NaN,NaN,2500,0,3,1
235,17620,0,236,4,4,1,gain2,no_gain5,J,K,45,27,objects,body_parts,51,51,Stimuli/Experimental_stims/objects/leohoho-rngTKHXumy0-unsplash.jpg,Stimuli/Experimental_stims/body_parts/heike-mintel-i_Gns0ELnLw-unsplash.jpg,1,NaN,,NaN,unchosen,NaN,NaN,NaN,NaN,1500,0,3,1
236,17620,0,237,4,4,1,gain4,no_gain1,L,D,18,39,faces,objects,70,62,Stimuli/Experimental_stims/faces/jessica-radanavong-mrYkTuAesKE-unsplash.jpg,Stimuli/Experimental_stims/objects/charlesdeluvio-1-nx1QR5dTE-unsplash.jpg,1,NaN,,NaN,unchosen,NaN,NaN,NaN,NaN,1900,0,3,1
237,17620,0,238,4,4,1,gain6,no_gain3,G,E,46,41,objects,objects,58,51,Stimuli/Experimental_stims/objects/mockup-graphics-PNsj6RiHAF4-unsplash.jpg,Stimuli/Experimental_stims/objects/insung-yoon-w2JtIQQXoRU-unsplash.jpg,1,NaN,,NaN,chosen,NaN,NaN,NaN,NaN,1200,0,3,1
238,17620,0,239,4,4,1,gain2,no_gain5,J,K,22,43,faces,objects,51,51,Stimuli/Experimental_stims/faces/ravi-patel-VMGAbeeJTKo-unsplash.jpg,Stimuli/Experimental_stims/objects/jonathan-greenaway-Y4hGgeiFn3s-unsplash.jpg,1,NaN,,NaN,chosen,NaN,NaN,NaN,NaN,3500,1,3,1
239,17620,0,240,4,4,0,no_gain2,gain6,I,G,32,4,body_parts,outdoor_scenes,51,42,Stimuli/Experimental_stims/body_parts/towfiqu-barbhuiya-3AsiVDsZnHg-unsplash.jpg,Stimuli/Experimental_stims/outdoor_scenes/jarrett-kow-1ZOyYPOBn7I-unsplash.jpg,1,NaN,,NaN,unchosen,NaN,NaN,NaN,NaN,1500,0,3,1
240,17620,0,241,4,4,1,gain5,no_gain6,A,B,11,10,outdoor_scenes,outdoor_scenes,66,51,Stimuli/Experimental_stims/outdoor_scenes/stephen-leonardi-gyIRjKPXupE-unsplash.jpg,Stimuli/Experimental_stims/outdoor_scenes/shannon-kunkle-dM8INmkyDas-unsplash.jpg,1,NaN,,NaN,chosen,NaN,NaN,NaN,NaN,2200,0,3,1
241,17620,0,242,4,4,1,gain6,no_gain2,G,I,46,1,objects,outdoor_scenes,58,51,Stimuli/Experimental_stims/objects/mockup-graphics-PNsj6RiHAF4-unsplash.jpg,Stimuli/Experimental_stims/outdoor_scenes/ashim-d-silva-S2Q5mdOrrVc-unsplash.jpg,1,NaN,,NaN,chosen,NaN,NaN,NaN,NaN,1100,0,3,1
242,17620,0,243,4,4,0,no_gain3,gain2,E,J,41,22,objects,faces,51,51,Stimuli/Experimental_stims/objects/insung-yoon-w2JtIQQXoRU-unsplash.jpg,Stimuli/Experimental_stims/faces/ravi-patel-VMGAbeeJTKo-unsplash.jpg,1,NaN,,NaN,chosen,NaN,NaN,NaN,NaN,1300,0,3,1
243,17620,0,244,4,4,0,no_gain3,gain5,E,A,30,47,body_parts,objects,51,62,Stimuli/Experimental_stims/body_parts/mika-korhonen-Xodzxosar18-unsplash.jpg,Stimuli/Experimental_stims/objects/ronaldo-arthur-vidal-Cdz_lvnl37k-unsplash.jpg,1,NaN,,NaN,unchosen,NaN,NaN,NaN,NaN,1500,0,3,1
244,17620,0,245,4,4,0,no_gain6,gain6,B,G,10,46,outdoor_scenes,objects,51,58,Stimuli/Experimental_stims/outdoor_scenes/shannon-kunkle-dM8INmkyDas-unsplash.jpg,Stimuli/Experimental_stims/objects/mockup-graphics-PNsj6RiHAF4-unsplash.jpg,1,NaN,,NaN,chosen,NaN,NaN,NaN,NaN,1100,0,3,1
245,17620,0,246,4,4,1,gain3,no_gain6,C,B,3,10,outdoor_scenes,outdoor_scenes,51,51,Stimuli/Experimental_stims/outdoor_scenes/henry-be-NLF6hTe4PAg-unsplash.jpg,Stimuli/Experimental_stims/outdoor_scenes/shannon-kunkle-dM8INmkyDas-unsplash.jpg,1,NaN,,NaN,chosen,NaN,NaN,NaN,NaN,2000,0,3,1
246,17620,0,247,4,4,0,no_gain2,gain5,I,A,32,47,body_parts,objects,51,62,Stimuli/Experimental_stims/body_parts/towfiqu-barbhuiya-3AsiVDsZnHg-unsplash.jpg,Stimuli/Experimental_stims/objects/ronaldo-arthur-vidal-Cdz_lvnl37k-unsplash.jpg,0,0,1112,1,unchosen,47,32,objects,body_parts,4700,1,3,1
247,17620,0,248,4,4,0,no_gain1,gain3,D,C,15,3,faces,outdoor_scenes,51,51,Stimuli/Experimental_stims/faces/erik-lucatero-d2MSDujJl2g-unsplash.jpg,Stimuli/Experimental_stims/outdoor_scenes/henry-be-NLF6hTe4PAg-unsplash.jpg,0,0,1058,1,chosen,3,15,outdoor_scenes,faces,2400,0,3,1
248,17620,0,249,4,4,1,gain4,no_gain2,L,I,18,32,faces,body_parts,70,51,Stimuli/Experimental_stims/faces/jessica-radanavong-mrYkTuAesKE-unsplash.jpg,Stimuli/Experimental_stims/body_parts/towfiqu-barbhuiya-3AsiVDsZnHg-unsplash.jpg,1,NaN,,NaN,unchosen,NaN,NaN,NaN,NaN,1100,0,3,1
249,17620,0,250,4,4,1,gain6,no_gain5,G,K,46,43,objects,objects,58,51,Stimuli/Experimental_stims/objects/mockup-graphics-PNsj6RiHAF4-unsplash.jpg,Stimuli/Experimental_stims/objects/jonathan-greenaway-Y4hGgeiFn3s-unsplash.jpg,0,0,1084,0,chosen,43,46,objects,objects,2400,0,3,1
250,17620,0,251,4,4,1,gain4,no_gain6,L,B,18,14,faces,faces,70,61,Stimuli/Experimental_stims/faces/jessica-radanavong-mrYkTuAesKE-unsplash.jpg,Stimuli/Experimental_stims/faces/david-siglin-UuW4psOb388-unsplash.jpg,1,NaN,,NaN,unchosen,NaN,NaN,NaN,NaN,1600,0,3,1
251,17620,0,252,4,4,0,no_gain1,gain1,D,F,39,24,objects,body_parts,62,73,Stimuli/Experimental_stims/objects/charlesdeluvio-1-nx1QR5dTE-unsplash.jpg,Stimuli/Experimental_stims/body_parts/clay-banks-LjqARJaJotc-unsplash.jpg,1,NaN,,NaN,unchosen,NaN,NaN,NaN,NaN,2300,0,3,1
252,17620,0,253,4,4,0,no_gain3,gain4,E,L,41,28,objects,body_parts,51,66,Stimuli/Experimental_stims/objects/insung-yoon-w2JtIQQXoRU-unsplash.jpg,Stimuli/Experimental_stims/body_parts/ira-vishnevskaya-8DQAvdCby1I-unsplash.jpg,0,0,1360,1,chosen,28,41,body_parts,objects,2500,0,3,1
253,17620,0,254,4,4,1,gain3,no_gain5,C,K,3,43,outdoor_scenes,objects,51,51,Stimuli/Experimental_stims/outdoor_scenes/henry-be-NLF6hTe4PAg-unsplash.jpg,Stimuli/Experimental_stims/objects/jonathan-greenaway-Y4hGgeiFn3s-unsplash.jpg,0,0,268,0,chosen,43,3,objects,outdoor_scenes,3700,1,3,1
254,17620,0,255,4,4,1,gain2,no_gain1,J,D,22,15,faces,faces,51,51,Stimuli/Experimental_stims/faces/ravi-patel-VMGAbeeJTKo-unsplash.jpg,Stimuli/Experimental_stims/faces/erik-lucatero-d2MSDujJl2g-unsplash.jpg,1,NaN,,NaN,chosen,NaN,NaN,NaN,NaN,2100,0,3,1
255,17620,0,256,4,4,1,gain6,no_gain3,G,E,4,30,outdoor_scenes,body_parts,42,51,Stimuli/Experimental_stims/outdoor_scenes/jarrett-kow-1ZOyYPOBn7I-unsplash.jpg,Stimuli/Experimental_stims/body_parts/mika-korhonen-Xodzxosar18-unsplash.jpg,0,0,95,0,unchosen,30,4,body_parts,outdoor_scenes,2300,0,3,1
256,17620,0,257,4,4,0,no_gain6,gain1,B,F,14,24,faces,body_parts,61,73,Stimuli/Experimental_stims/faces/david-siglin-UuW4psOb388-unsplash.jpg,Stimuli/Experimental_stims/body_parts/clay-banks-LjqARJaJotc-unsplash.jpg,1,NaN,,NaN,unchosen,NaN,NaN,NaN,NaN,1700,0,3,1
257,17620,0,258,4,4,0,no_gain4,gain6,H,G,9,4,outdoor_scenes,outdoor_scenes,51,42,Stimuli/Experimental_stims/outdoor_scenes/sergey-pesterev-y-b_FOmJXdg-unsplash.jpg,Stimuli/Experimental_stims/outdoor_scenes/jarrett-kow-1ZOyYPOBn7I-unsplash.jpg,1,NaN,,NaN,unchosen,NaN,NaN,NaN,NaN,2900,0,3,1
258,17620,0,259,4,4,0,no_gain4,gain1,H,F,17,12,faces,faces,51,51,Stimuli/Experimental_stims/faces/good-faces-xmSWVeGEnJw-unsplash.jpg,Stimuli/Experimental_stims/faces/aiony-haust-jmATI5Q_YgY-unsplash.jpg,1,NaN,,NaN,chosen,NaN,NaN,NaN,NaN,3000,1,3,1
259,17620,0,260,4,4,1,gain2,no_gain3,J,E,45,30,objects,body_parts,51,51,Stimuli/Experimental_stims/objects/leohoho-rngTKHXumy0-unsplash.jpg,Stimuli/Experimental_stims/body_parts/mika-korhonen-Xodzxosar18-unsplash.jpg,0,0,937,0,unchosen,30,45,body_parts,objects,2600,0,3,1
260,17620,0,261,4,4,0,no_gain6,gain5,B,A,14,47,faces,objects,61,62,Stimuli/Experimental_stims/faces/david-siglin-UuW4psOb388-unsplash.jpg,Stimuli/Experimental_stims/objects/ronaldo-arthur-vidal-Cdz_lvnl37k-unsplash.jpg,0,0,1175,1,unchosen,47,14,objects,faces,1700,0,3,1
261,17620,0,262,4,4,0,no_gain3,gain1,E,F,30,24,body_parts,body_parts,51,73,Stimuli/Experimental_stims/body_parts/mika-korhonen-Xodzxosar18-unsplash.jpg,Stimuli/Experimental_stims/body_parts/clay-banks-LjqARJaJotc-unsplash.jpg,0,0,1174,1,unchosen,24,30,body_parts,body_parts,1800,0,3,1
262,17620,0,263,4,4,1,gain5,no_gain5,A,K,11,43,outdoor_scenes,objects,66,51,Stimuli/Experimental_stims/outdoor_scenes/stephen-leonardi-gyIRjKPXupE-unsplash.jpg,Stimuli/Experimental_stims/objects/jonathan-greenaway-Y4hGgeiFn3s-unsplash.jpg,0,0,1092,0,chosen,43,11,objects,outdoor_scenes,1400,0,3,1
263,17620,0,264,4,4,0,no_gain2,gain1,I,F,1,12,outdoor_scenes,faces,51,51,Stimuli/Experimental_stims/outdoor_scenes/ashim-d-silva-S2Q5mdOrrVc-unsplash.jpg,Stimuli/Experimental_stims/faces/aiony-haust-jmATI5Q_YgY-unsplash.jpg,1,NaN,,NaN,chosen,NaN,NaN,NaN,NaN,2200,0,3,1
264,17620,0,265,4,4,0,no_gain2,gain1,I,F,32,24,body_parts,body_parts,51,73,Stimuli/Experimental_stims/body_parts/towfiqu-barbhuiya-3AsiVDsZnHg-unsplash.jpg,Stimuli/Experimental_stims/body_parts/clay-banks-LjqARJaJotc-unsplash.jpg,1,NaN,,NaN,unchosen,NaN,NaN,NaN,NaN,3500,1,3,1
265,17620,0,266,4,4,1,gain3,no_gain3,C,E,3,41,outdoor_scenes,objects,51,51,Stimuli/Experimental_stims/outdoor_scenes/henry-be-NLF6hTe4PAg-unsplash.jpg,Stimuli/Experimental_stims/objects/insung-yoon-w2JtIQQXoRU-unsplash.jpg,1,NaN,,NaN,chosen,NaN,NaN,NaN,NaN,1400,0,3,1
266,17620,0,267,4,4,0,no_gain2,gain4,I,L,1,28,outdoor_scenes,body_parts,51,66,Stimuli/Experimental_stims/outdoor_scenes/ashim-d-silva-S2Q5mdOrrVc-unsplash.jpg,Stimuli/Experimental_stims/body_parts/ira-vishnevskaya-8DQAvdCby1I-unsplash.jpg,0,0,1161,1,chosen,28,1,body_parts,outdoor_scenes,1100,0,3,1
267,17620,0,268,4,4,1,gain6,no_gain1,G,D,46,15,objects,faces,58,51,Stimuli/Experimental_stims/objects/mockup-graphics-PNsj6RiHAF4-unsplash.jpg,Stimuli/Experimental_stims/faces/erik-lucatero-d2MSDujJl2g-unsplash.jpg,0,0,149,0,chosen,15,46,faces,objects,1300,0,3,1
268,17620,0,269,4,4,0,no_gain1,gain3,D,C,39,31,objects,body_parts,62,50,Stimuli/Experimental_stims/objects/charlesdeluvio-1-nx1QR5dTE-unsplash.jpg,Stimuli/Experimental_stims/body_parts/sincerely-media-VN6DbKajo5s-unsplash.jpg,0,0,0,1,unchosen,31,39,body_parts,objects,2600,0,3,1
269,17620,0,270,4,4,0,no_gain4,gain4,H,L,17,28,faces,body_parts,51,66,Stimuli/Experimental_stims/faces/good-faces-xmSWVeGEnJw-unsplash.jpg,Stimuli/Experimental_stims/body_parts/ira-vishnevskaya-8DQAvdCby1I-unsplash.jpg,0,0,1410,1,chosen,28,17,body_parts,faces,1100,0,3,1
270,17620,0,271,4,4,1,gain1,no_gain4,F,H,24,9,body_parts,outdoor_scenes,73,51,Stimuli/Experimental_stims/body_parts/clay-banks-LjqARJaJotc-unsplash.jpg,Stimuli/Experimental_stims/outdoor_scenes/sergey-pesterev-y-b_FOmJXdg-unsplash.jpg,0,0,919,0,unchosen,9,24,outdoor_scenes,body_parts,1400,0,3,1
271,17620,0,272,4,4,1,gain4,no_gain3,L,E,18,30,faces,body_parts,70,51,Stimuli/Experimental_stims/faces/jessica-radanavong-mrYkTuAesKE-unsplash.jpg,Stimuli/Experimental_stims/body_parts/mika-korhonen-Xodzxosar18-unsplash.jpg,0,0,627,0,unchosen,30,18,body_parts,faces,3200,1,3,1
272,17620,0,273,4,4,0,no_gain6,gain2,B,J,10,22,outdoor_scenes,faces,51,51,Stimuli/Experimental_stims/outdoor_scenes/shannon-kunkle-dM8INmkyDas-unsplash.jpg,Stimuli/Experimental_stims/faces/ravi-patel-VMGAbeeJTKo-unsplash.jpg,1,NaN,,NaN,chosen,NaN,NaN,NaN,NaN,1600,0,3,1
273,17620,0,274,4,4,0,no_gain2,gain5,I,A,1,11,outdoor_scenes,outdoor_scenes,51,66,Stimuli/Experimental_stims/outdoor_scenes/ashim-d-silva-S2Q5mdOrrVc-unsplash.jpg,Stimuli/Experimental_stims/outdoor_scenes/stephen-leonardi-gyIRjKPXupE-unsplash.jpg,0,0,679,1,chosen,11,1,outdoor_scenes,outdoor_scenes,1000,0,3,1
274,17620,0,275,4,4,1,gain1,no_gain5,F,K,12,43,faces,objects,51,51,Stimuli/Experimental_stims/faces/aiony-haust-jmATI5Q_YgY-unsplash.jpg,Stimuli/Experimental_stims/objects/jonathan-greenaway-Y4hGgeiFn3s-unsplash.jpg,0,0,1015,0,chosen,43,12,objects,faces,1700,0,3,1
275,17620,0,276,4,4,1,gain4,no_gain4,L,H,18,9,faces,outdoor_scenes,70,51,Stimuli/Experimental_stims/faces/jessica-radanavong-mrYkTuAesKE-unsplash.jpg,Stimuli/Experimental_stims/outdoor_scenes/sergey-pesterev-y-b_FOmJXdg-unsplash.jpg,1,NaN,,NaN,unchosen,NaN,NaN,NaN,NaN,1200,0,3,1
276,17620,0,277,4,4,1,gain3,no_gain5,C,K,31,27,body_parts,body_parts,50,51,Stimuli/Experimental_stims/body_parts/sincerely-media-VN6DbKajo5s-unsplash.jpg,Stimuli/Experimental_stims/body_parts/heike-mintel-i_Gns0ELnLw-unsplash.jpg,0,0,581,0,unchosen,27,31,body_parts,body_parts,2200,0,3,1
277,17620,0,278,4,4,0,no_gain5,gain6,K,G,27,4,body_parts,outdoor_scenes,51,42,Stimuli/Experimental_stims/body_parts/heike-mintel-i_Gns0ELnLw-unsplash.jpg,Stimuli/Experimental_stims/outdoor_scenes/jarrett-kow-1ZOyYPOBn7I-unsplash.jpg,0,0,242,1,unchosen,4,27,outdoor_scenes,body_parts,2000,0,3,1
278,17620,0,279,4,4,1,gain3,no_gain4,C,H,3,17,outdoor_scenes,faces,51,51,Stimuli/Experimental_stims/outdoor_scenes/henry-be-NLF6hTe4PAg-unsplash.jpg,Stimuli/Experimental_stims/faces/good-faces-xmSWVeGEnJw-unsplash.jpg,1,NaN,,NaN,chosen,NaN,NaN,NaN,NaN,3100,1,3,1
279,17620,0,280,4,4,1,gain5,no_gain5,A,K,47,27,objects,body_parts,62,51,Stimuli/Experimental_stims/objects/ronaldo-arthur-vidal-Cdz_lvnl37k-unsplash.jpg,Stimuli/Experimental_stims/body_parts/heike-mintel-i_Gns0ELnLw-unsplash.jpg,0,0,860,0,unchosen,27,47,body_parts,objects,2400,0,3,1
280,17620,0,281,4,4,1,gain4,no_gain1,L,D,28,15,body_parts,faces,66,51,Stimuli/Experimental_stims/body_parts/ira-vishnevskaya-8DQAvdCby1I-unsplash.jpg,Stimuli/Experimental_stims/faces/erik-lucatero-d2MSDujJl2g-unsplash.jpg,1,NaN,,NaN,chosen,NaN,NaN,NaN,NaN,1000,0,3,1
281,17620,0,282,4,4,0,no_gain1,gain5,D,A,15,11,faces,outdoor_scenes,51,66,Stimuli/Experimental_stims/faces/erik-lucatero-d2MSDujJl2g-unsplash.jpg,Stimuli/Experimental_stims/outdoor_scenes/stephen-leonardi-gyIRjKPXupE-unsplash.jpg,1,NaN,,NaN,chosen,NaN,NaN,NaN,NaN,1900,0,3,1
282,17620,0,283,4,4,0,no_gain4,gain5,H,A,9,47,outdoor_scenes,objects,51,62,Stimuli/Experimental_stims/outdoor_scenes/sergey-pesterev-y-b_FOmJXdg-unsplash.jpg,Stimuli/Experimental_stims/objects/ronaldo-arthur-vidal-Cdz_lvnl37k-unsplash.jpg,1,NaN,,NaN,unchosen,NaN,NaN,NaN,NaN,2400,0,3,1
283,17620,0,284,4,4,1,gain2,no_gain2,J,I,22,1,faces,outdoor_scenes,51,51,Stimuli/Experimental_stims/faces/ravi-patel-VMGAbeeJTKo-unsplash.jpg,Stimuli/Experimental_stims/outdoor_scenes/ashim-d-silva-S2Q5mdOrrVc-unsplash.jpg,0,0,541,0,chosen,1,22,outdoor_scenes,faces,1300,0,3,1
284,17620,0,285,4,4,0,no_gain4,gain5,H,A,17,11,faces,outdoor_scenes,51,66,Stimuli/Experimental_stims/faces/good-faces-xmSWVeGEnJw-unsplash.jpg,Stimuli/Experimental_stims/outdoor_scenes/stephen-leonardi-gyIRjKPXupE-unsplash.jpg,0,0,1479,1,chosen,11,17,outdoor_scenes,faces,1600,0,3,1
285,17620,0,286,4,4,1,gain6,no_gain6,G,B,4,14,outdoor_scenes,faces,42,61,Stimuli/Experimental_stims/outdoor_scenes/jarrett-kow-1ZOyYPOBn7I-unsplash.jpg,Stimuli/Experimental_stims/faces/david-siglin-UuW4psOb388-unsplash.jpg,0,0,1314,0,unchosen,14,4,faces,outdoor_scenes,1000,0,3,1
286,17620,0,287,4,4,0,no_gain6,gain4,B,L,10,28,outdoor_scenes,body_parts,51,66,Stimuli/Experimental_stims/outdoor_scenes/shannon-kunkle-dM8INmkyDas-unsplash.jpg,Stimuli/Experimental_stims/body_parts/ira-vishnevskaya-8DQAvdCby1I-unsplash.jpg,1,NaN,,NaN,chosen,NaN,NaN,NaN,NaN,1500,0,3,1
287,17620,0,288,4,4,1,gain5,no_gain1,A,D,47,39,objects,objects,62,62,Stimuli/Experimental_stims/objects/ronaldo-arthur-vidal-Cdz_lvnl37k-unsplash.jpg,Stimuli/Experimental_stims/objects/charlesdeluvio-1-nx1QR5dTE-unsplash.jpg,0,0,135,0,unchosen,39,47,objects,objects,1900,0,3,1
288,17620,0,289,4,4,1,gain3,no_gain2,C,I,3,1,outdoor_scenes,outdoor_scenes,51,51,Stimuli/Experimental_stims/outdoor_scenes/henry-be-NLF6hTe4PAg-unsplash.jpg,Stimuli/Experimental_stims/outdoor_scenes/ashim-d-silva-S2Q5mdOrrVc-unsplash.jpg,0,0,1064,0,chosen,1,3,outdoor_scenes,outdoor_scenes,1600,0,3,1
289,17620,0,290,4,4,1,gain3,no_gain6,C,B,31,14,body_parts,faces,50,61,Stimuli/Experimental_stims/body_parts/sincerely-media-VN6DbKajo5s-unsplash.jpg,Stimuli/Experimental_stims/faces/david-siglin-UuW4psOb388-unsplash.jpg,0,0,170,0,unchosen,14,31,faces,body_parts,1200,0,3,1
290,17620,0,291,4,4,1,gain2,no_gain2,J,I,45,32,objects,body_parts,51,51,Stimuli/Experimental_stims/objects/leohoho-rngTKHXumy0-unsplash.jpg,Stimuli/Experimental_stims/body_parts/towfiqu-barbhuiya-3AsiVDsZnHg-unsplash.jpg,1,NaN,,NaN,unchosen,NaN,NaN,NaN,NaN,1000,0,3,1
291,17620,0,292,4,4,1,gain2,no_gain6,J,B,45,14,objects,faces,51,61,Stimuli/Experimental_stims/objects/leohoho-rngTKHXumy0-unsplash.jpg,Stimuli/Experimental_stims/faces/david-siglin-UuW4psOb388-unsplash.jpg,1,NaN,,NaN,unchosen,NaN,NaN,NaN,NaN,3200,1,3,1