,PID,practice,trial,block,run,gain_left,left_item_id,right_item_id,left_pair_id,right_pair_id,left_stimulus,right_stimulus,left_category,right_category,left_rating,right_rating,left_path,right_path,no_response,left_chosen,rt,higher_outcome_chosen,choice_type,chosen_stimulus,unchosen_stimulus,chosen_category,unchosen_category,iti,long_iti,simulation,version
0,38808,1,1,0,0,0,,,,,,,,,,,Stimuli/Practice_stims/Final_decisions/debby-hudson-FmCSSSGge-0-unsplash.jpg,Stimuli/Practice_stims/Final_decisions/yassine-khalfalli-adsQ9d_Cx0c-unsplash.jpg,0,1,1143,0,,,,,,3000,0,6,1
1,38808,1,2,0,0,0,,,,,,,,,,,Stimuli/Practice_stims/Final_decisions/florian-wehde-iVW7mZPwd4g-unsplash.jpg,Stimuli/Practice_stims/Final_decisions/patrick-perkins-3wylDrjxH-E-unsplash.jpg,0,0,1488,1,,,,,,1500,0,6,1
2,38808,1,3,0,0,0,,,,,,,,,,,Stimuli/Practice_stims/Final_decisions/debby-hudson-FmCSSSGge-0-unsplash.jpg,Stimuli/Practice_stims/Final_decisions/florian-wehde-iVW7mZPwd4g-unsplash.jpg,0,0,1260,1,,,,,,2000,0,6,1
3,38808,1,4,0,0,0,,,,,,,,,,,Stimuli/Practice_stims/Final_decisions/yassine-khalfalli-adsQ9d_Cx0c-unsplash.jpg,Stimuli/Practice_stims/Final_decisions/debby-hudson-FmCSSSGge-0-unsplash.jpg,0,0,1436,1,,,,,,1000,0,6,1
4,38808,0,5,1,1,0,no_gain4,gain5,H,G,6,8,outdoor_scenes,outdoor_scenes,8,76,Stimuli/Experimental_stims/outdoor_scenes/meng-ji-8BH_M-53CyA-unsplash.jpg,Stimuli/Experimental_stims/outdoor_scenes/samsommer-vddccTqwal8-unsplash.jpg,0,1,1100,0,chosen,6,8,outdoor_scenes,outdoor_scenes,1800,0,6,1
5,38808,0,6,1,1,1,gain3,no_gain6,I,F,26,35,body_parts,body_parts,25,33,Stimuli/Experimental_stims/body_parts/engin-akyurt-x_3gyC42btc-unsplash.jpg,Stimuli/Experimental_stims/body_parts/wc-so-KH4AAPjb-tI-unsplash.jpg,0,1,1039,1,chosen,26,35,body_parts,body_parts,1700,0,6,1
6,38808,0,7,1,1,1,gain6,no_gain3,B,A,12,37,faces,objects,24,39,Stimuli/Experimental_stims/faces/aiony-haust-jmATI5Q_YgY-unsplash.jpg,Stimuli/Experimental_stims/objects/alexander-andrews-VLGWE_SumrA-unsplash.jpg,1,NaN,,NaN,unchosen,NaN,NaN,NaN,NaN,2300,0,6,1
7,38808,0,8,1,1,0,no_gain2,gain3,C,I,2,26,outdoor_scenes,body_parts,90,25,Stimuli/Experimental_stims/outdoor_scenes/bruno-van-der-kraan-qez8mNJ3ilU-unsplash.jpg,Stimuli/Experimental_stims/body_parts/engin-akyurt-x_3gyC42btc-unsplash.jpg,0,1,928,0,chosen,2,26,outdoor_scenes,body_parts,1700,0,6,1
8,38808,0,9,1,1,1,gain4,no_gain5,J,D,17,20,faces,faces,6,43,Stimuli/Experimental_stims/faces/good-faces-xmSWVeGEnJw-unsplash.jpg,Stimuli/Experimental_stims/faces/justin-chen-J7Cf1Gch49E-unsplash.jpg,0,0,953,0,unchosen,20,17,faces,faces,3900,1,6,1
9,38808,0,10,1,1,1,gain2,no_gain5,E,D,42,20,objects,faces,18,43,Stimuli/Experimental_stims/objects/jess-bailey-nOeVi8DsN8U-unsplash.jpg,Stimuli/Experimental_stims/faces/justin-chen-J7Cf1Gch49E-unsplash.jpg,0,0,930,0,unchosen,20,42,faces,objects,1200,0,6,1
10,38808,0,11,1,1,1,gain2,no_gain5,E,D,33,40,body_parts,objects,90,28,Stimuli/Experimental_stims/body_parts/tucker-good-36skLT5jZcc-unsplash.jpg,Stimuli/Experimental_stims/objects/fabian-blank-pElSkGRA2NU-unsplash.jpg,0,1,1165,1,chosen,33,40,body_parts,objects,1200,0,6,1
11,38808,0,12,1,1,0,no_gain5,gain5,D,G,40,8,objects,outdoor_scenes,28,76,Stimuli/Experimental_stims/objects/fabian-blank-pElSkGRA2NU-unsplash.jpg,Stimuli/Experimental_stims/outdoor_scenes/samsommer-vddccTqwal8-unsplash.jpg,0,0,996,1,chosen,8,40,outdoor_scenes,objects,2600,0,6,1
12,38808,0,13,1,1,0,no_gain1,gain4,K,J,46,17,objects,faces,79,6,Stimuli/Experimental_stims/objects/mockup-graphics-PNsj6RiHAF4-unsplash.jpg,Stimuli/Experimental_stims/faces/good-faces-xmSWVeGEnJw-unsplash.jpg,0,1,922,0,unchosen,46,17,objects,faces,2200,0,6,1
13,38808,0,14,1,1,1,gain4,no_gain6,J,F,38,35,objects,body_parts,75,33,Stimuli/Experimental_stims/objects/art-lasovsky-8XddFc6NkBY-unsplash.jpg,Stimuli/Experimental_stims/body_parts/wc-so-KH4AAPjb-tI-unsplash.jpg,0,0,951,0,chosen,35,38,body_parts,objects,1700,0,6,1
14,38808,0,15,1,1,1,gain4,no_gain4,J,H,38,6,objects,outdoor_scenes,75,8,Stimuli/Experimental_stims/objects/art-lasovsky-8XddFc6NkBY-unsplash.jpg,Stimuli/Experimental_stims/outdoor_scenes/meng-ji-8BH_M-53CyA-unsplash.jpg,0,0,1052,0,chosen,6,38,outdoor_scenes,objects,3100,1,6,1
15,38808,0,16,1,1,1,gain2,no_gain1,E,K,42,46,objects,objects,18,79,Stimuli/Experimental_stims/objects/jess-bailey-nOeVi8DsN8U-unsplash.jpg,Stimuli/Experimental_stims/objects/mockup-graphics-PNsj6RiHAF4-unsplash.jpg,0,0,995,0,unchosen,46,42,objects,objects,2100,0,6,1
16,38808,0,17,1,1,0,no_gain2,gain5,C,G,2,8,outdoor_scenes,outdoor_scenes,90,76,Stimuli/Experimental_stims/outdoor_scenes/bruno-van-der-kraan-qez8mNJ3ilU-unsplash.jpg,Stimuli/Experimental_stims/outdoor_scenes/samsommer-vddccTqwal8-unsplash.jpg,0,1,862,0,chosen,2,8,outdoor_scenes,outdoor_scenes,1900,0,6,1
17,38808,0,18,1,1,0,no_gain1,gain5,K,G,32,8,body_parts,outdoor_scenes,13,76,Stimuli/Experimental_stims/body_parts/towfiqu-barbhuiya-3AsiVDsZnHg-unsplash.jpg,Stimuli/Experimental_stims/outdoor_scenes/samsommer-vddccTqwal8-unsplash.jpg,0,1,1158,0,chosen,32,8,body_parts,outdoor_scenes,1400,0,6,1
18,38808,0,19,1,1,1,gain3,no_gain5,I,D,26,40,body_parts,objects,25,28,Stimuli/Experimental_stims/body_parts/engin-akyurt-x_3gyC42btc-unsplash.jpg,Stimuli/Experimental_stims/objects/fabian-blank-pElSkGRA2NU-unsplash.jpg,0,0,853,0,chosen,40,26,objects,body_parts,1500,0,6,1
19,38808,0,20,1,1,0,no_gain4,gain2,H,E,22,42,faces,objects,4,18,Stimuli/Experimental_stims/faces/ravi-patel-VMGAbeeJTKo-unsplash.jpg,Stimuli/Experimental_stims/objects/jess-bailey-nOeVi8DsN8U-unsplash.jpg,0,1,1013,0,unchosen,22,42,faces,objects,1600,0,6,1
20,38808,0,21,1,1,0,no_gain1,gain3,K,I,32,26,body_parts,body_parts,13,25,Stimuli/Experimental_stims/body_parts/towfiqu-barbhuiya-3AsiVDsZnHg-unsplash.jpg,Stimuli/Experimental_stims/body_parts/engin-akyurt-x_3gyC42btc-unsplash.jpg,0,0,905,1,chosen,26,32,body_parts,body_parts,3200,1,6,1
21,38808,0,22,1,1,1,gain5,no_gain5,G,D,39,20,objects,faces,28,43,Stimuli/Experimental_stims/objects/charlesdeluvio-1-nx1QR5dTE-unsplash.jpg,Stimuli/Experimental_stims/faces/justin-chen-J7Cf1Gch49E-unsplash.jpg,0,1,1451,1,unchosen,39,20,objects,faces,1900,0,6,1
22,38808,0,23,1,1,0,no_gain6,gain6,F,B,18,12,faces,faces,82,24,Stimuli/Experimental_stims/faces/jessica-radanavong-mrYkTuAesKE-unsplash.jpg,Stimuli/Experimental_stims/faces/aiony-haust-jmATI5Q_YgY-unsplash.jpg,0,0,1126,1,unchosen,12,18,faces,faces,1600,0,6,1
23,38808,0,24,1,1,0,no_gain6,gain2,F,E,35,33,body_parts,body_parts,33,90,Stimuli/Experimental_stims/body_parts/wc-so-KH4AAPjb-tI-unsplash.jpg,Stimuli/Experimental_stims/body_parts/tucker-good-36skLT5jZcc-unsplash.jpg,0,1,845,0,chosen,35,33,body_parts,body_parts,1100,0,6,1
24,38808,0,25,1,1,1,gain4,no_gain2,J,C,17,24,faces,body_parts,6,44,Stimuli/Experimental_stims/faces/good-faces-xmSWVeGEnJw-unsplash.jpg,Stimuli/Experimental_stims/body_parts/clay-banks-LjqARJaJotc-unsplash.jpg,0,0,665,0,unchosen,24,17,body_parts,faces,2200,0,6,1
25,38808,0,26,1,1,1,gain2,no_gain3,E,A,42,37,objects,objects,18,39,Stimuli/Experimental_stims/objects/jess-bailey-nOeVi8DsN8U-unsplash.jpg,Stimuli/Experimental_stims/objects/alexander-andrews-VLGWE_SumrA-unsplash.jpg,0,1,728,1,unchosen,42,37,objects,objects,3300,1,6,1
26,38808,0,27,1,1,0,no_gain2,gain4,C,J,2,38,outdoor_scenes,objects,90,75,Stimuli/Experimental_stims/outdoor_scenes/bruno-van-der-kraan-qez8mNJ3ilU-unsplash.jpg,Stimuli/Experimental_stims/objects/art-lasovsky-8XddFc6NkBY-unsplash.jpg,0,0,1,1,chosen,38,2,objects,outdoor_scenes,2100,0,6,1
27,38808,0,28,1,1,0,no_gain2,gain2,C,E,24,42,body_parts,objects,44,18,Stimuli/Experimental_stims/body_parts/clay-banks-LjqARJaJotc-unsplash.jpg,Stimuli/Experimental_stims/objects/jess-bailey-nOeVi8DsN8U-unsplash.jpg,0,0,1089,1,unchosen,42,24,objects,body_parts,1000,0,6,1
28,38808,0,29,1,1,0,no_gain4,gain3,H,I,22,1,faces,outdoor_scenes,4,41,Stimuli/Experimental_stims/faces/ravi-patel-VMGAbeeJTKo-unsplash.jpg,Stimuli/Experimental_stims/outdoor_scenes/ashim-d-silva-S2Q5mdOrrVc-unsplash.jpg,0,0,1087,1,unchosen,1,22,outdoor_scenes,faces,2600,0,6,1
29,38808,0,30,1,1,0,no_gain3,gain2,A,E,7,33,outdoor_scenes,body_parts,28,90,Stimuli/Experimental_stims/outdoor_scenes/petr-vysohlid-9fqwGqGLUxc-unsplash.jpg,Stimuli/Experimental_stims/body_parts/tucker-good-36skLT5jZcc-unsplash.jpg,0,1,863,0,chosen,7,33,outdoor_scenes,body_parts,1500,0,6,1
30,38808,0,31,1,1,1,gain5,no_gain4,G,H,39,22,objects,faces,28,4,Stimuli/Experimental_stims/objects/charlesdeluvio-1-nx1QR5dTE-unsplash.jpg,Stimuli/Experimental_stims/faces/ravi-patel-VMGAbeeJTKo-unsplash.jpg,0,0,1065,0,unchosen,22,39,faces,objects,1200,0,6,1
31,38808,0,32,1,1,0,no_gain3,gain5,A,G,37,39,objects,objects,39,28,Stimuli/Experimental_stims/objects/alexander-andrews-VLGWE_SumrA-unsplash.jpg,Stimuli/Experimental_stims/objects/charlesdeluvio-1-nx1QR5dTE-unsplash.jpg,0,1,1105,0,unchosen,37,39,objects,objects,2100,0,6,1
32,38808,0,33,1,1,0,no_gain5,gain4,D,J,40,38,objects,objects,28,75,Stimuli/Experimental_stims/objects/fabian-blank-pElSkGRA2NU-unsplash.jpg,Stimuli/Experimental_stims/objects/art-lasovsky-8XddFc6NkBY-unsplash.jpg,0,0,891,1,chosen,38,40,objects,objects,4300,1,6,1
33,38808,0,34,1,1,0,no_gain1,gain5,K,G,46,39,objects,objects,79,28,Stimuli/Experimental_stims/objects/mockup-graphics-PNsj6RiHAF4-unsplash.jpg,Stimuli/Experimental_stims/objects/charlesdeluvio-1-nx1QR5dTE-unsplash.jpg,0,1,676,0,unchosen,46,39,objects,objects,1000,0,6,1
34,38808,0,35,1,1,1,gain1,no_gain3,L,A,29,7,body_parts,outdoor_scenes,29,28,Stimuli/Experimental_stims/body_parts/manuel-schinner-ZwjFuJ7ebpk-unsplash.jpg,Stimuli/Experimental_stims/outdoor_scenes/petr-vysohlid-9fqwGqGLUxc-unsplash.jpg,0,0,739,0,chosen,7,29,outdoor_scenes,body_parts,2300,0,6,1
35,38808,0,36,1,1,0,no_gain6,gain5,F,G,18,39,faces,objects,82,28,Stimuli/Experimental_stims/faces/jessica-radanavong-mrYkTuAesKE-unsplash.jpg,Stimuli/Experimental_stims/objects/charlesdeluvio-1-nx1QR5dTE-unsplash.jpg,0,1,722,0,unchosen,18,39,faces,objects,1200,0,6,1
36,38808,0,37,1,1,1,gain6,no_gain1,B,K,5,32,outdoor_scenes,body_parts,67,13,Stimuli/Experimental_stims/outdoor_scenes/jeff-king-bJHWJeiHfHc-unsplash.jpg,Stimuli/Experimental_stims/body_parts/towfiqu-barbhuiya-3AsiVDsZnHg-unsplash.jpg,1,NaN,,NaN,chosen,NaN,NaN,NaN,NaN,1300,0,6,1
37,38808,0,38,1,1,1,gain4,no_gain3,J,A,38,7,objects,outdoor_scenes,75,28,Stimuli/Experimental_stims/objects/art-lasovsky-8XddFc6NkBY-unsplash.jpg,Stimuli/Experimental_stims/outdoor_scenes/petr-vysohlid-9fqwGqGLUxc-unsplash.jpg,0,1,150,1,chosen,38,7,objects,outdoor_scenes,1700,0,6,1
38,38808,0,39,1,1,1,gain1,no_gain5,L,D,29,40,body_parts,objects,29,28,Stimuli/Experimental_stims/body_parts/manuel-schinner-ZwjFuJ7ebpk-unsplash.jpg,Stimuli/Experimental_stims/objects/fabian-blank-pElSkGRA2NU-unsplash.jpg,0,0,696,0,chosen,40,29,objects,body_parts,1300,0,6,1
39,38808,0,40,1,1,0,no_gain6,gain3,F,I,18,1,faces,outdoor_scenes,82,41,Stimuli/Experimental_stims/faces/jessica-radanavong-mrYkTuAesKE-unsplash.jpg,Stimuli/Experimental_stims/outdoor_scenes/ashim-d-silva-S2Q5mdOrrVc-unsplash.jpg,0,0,932,1,unchosen,1,18,outdoor_scenes,faces,1200,0,6,1
40,38808,0,41,1,1,0,no_gain2,gain1,C,L,2,29,outdoor_scenes,body_parts,90,29,Stimuli/Experimental_stims/outdoor_scenes/bruno-van-der-kraan-qez8mNJ3ilU-unsplash.jpg,Stimuli/Experimental_stims/body_parts/manuel-schinner-ZwjFuJ7ebpk-unsplash.jpg,0,1,1022,0,chosen,2,29,outdoor_scenes,body_parts,1900,0,6,1
41,38808,0,42,1,1,1,gain4,no_gain3,J,A,17,37,faces,objects,6,39,Stimuli/Experimental_stims/faces/good-faces-xmSWVeGEnJw-unsplash.jpg,Stimuli/Experimental_stims/objects/alexander-andrews-VLGWE_SumrA-unsplash.jpg,0,0,847,0,unchosen,37,17,objects,faces,1200,0,6,1
42,38808,0,43,1,1,1,gain6,no_gain6,B,F,5,35,outdoor_scenes,body_parts,67,33,Stimuli/Experimental_stims/outdoor_scenes/jeff-king-bJHWJeiHfHc-unsplash.jpg,Stimuli/Experimental_stims/body_parts/wc-so-KH4AAPjb-tI-unsplash.jpg,0,1,839,1,chosen,5,35,outdoor_scenes,body_parts,4000,1,6,1
43,38808,0,44,1,1,0,no_gain3,gain3,A,I,7,26,outdoor_scenes,body_parts,28,25,Stimuli/Experimental_stims/outdoor_scenes/petr-vysohlid-9fqwGqGLUxc-unsplash.jpg,Stimuli/Experimental_stims/body_parts/engin-akyurt-x_3gyC42btc-unsplash.jpg,0,1,629,0,chosen,7,26,outdoor_scenes,body_parts,2300,0,6,1
44,38808,0,45,1,1,1,gain2,no_gain6,E,F,42,18,objects,faces,18,82,Stimuli/Experimental_stims/objects/jess-bailey-nOeVi8DsN8U-unsplash.jpg,Stimuli/Experimental_stims/faces/jessica-radanavong-mrYkTuAesKE-unsplash.jpg,0,0,1202,0,unchosen,18,42,faces,objects,1500,0,6,1
45,38808,0,46,1,1,0,no_gain1,gain1,K,L,32,29,body_parts,body_parts,13,29,Stimuli/Experimental_stims/body_parts/towfiqu-barbhuiya-3AsiVDsZnHg-unsplash.jpg,Stimuli/Experimental_stims/body_parts/manuel-schinner-ZwjFuJ7ebpk-unsplash.jpg,0,1,580,0,chosen,32,29,body_parts,body_parts,1100,0,6,1
46,38808,0,47,1,1,0,no_gain5,gain6,D,B,20,12,faces,faces,43,24,Stimuli/Experimental_stims/faces/justin-chen-J7Cf1Gch49E-unsplash.jpg,Stimuli/Experimental_stims/faces/aiony-haust-jmATI5Q_YgY-unsplash.jpg,0,0,827,1,unchosen,12,20,faces,faces,1100,0,6,1
47,38808,0,48,1,1,0,no_gain5,gain6,D,B,40,5,objects,outdoor_scenes,28,67,Stimuli/Experimental_stims/objects/fabian-blank-pElSkGRA2NU-unsplash.jpg,Stimuli/Experimental_stims/outdoor_scenes/jeff-king-bJHWJeiHfHc-unsplash.jpg,0,1,1402,0,chosen,40,5,objects,outdoor_scenes,3200,1,6,1
48,38808,0,49,1,1,0,no_gain2,gain6,C,B,24,12,body_parts,faces,44,24,Stimuli/Experimental_stims/body_parts/clay-banks-LjqARJaJotc-unsplash.jpg,Stimuli/Experimental_stims/faces/aiony-haust-jmATI5Q_YgY-unsplash.jpg,0,0,762,1,unchosen,12,24,faces,body_parts,1900,0,6,1
49,38808,0,50,1,1,1,gain4,no_gain4,J,H,17,22,faces,faces,6,4,Stimuli/Experimental_stims/faces/good-faces-xmSWVeGEnJw-unsplash.jpg,Stimuli/Experimental_stims/faces/ravi-patel-VMGAbeeJTKo-unsplash.jpg,0,1,541,1,unchosen,17,22,faces,faces,2300,0,6,1
50,38808,0,51,1,1,1,gain6,no_gain4,B,H,12,22,faces,faces,24,4,Stimuli/Experimental_stims/faces/aiony-haust-jmATI5Q_YgY-unsplash.jpg,Stimuli/Experimental_stims/faces/ravi-patel-VMGAbeeJTKo-unsplash.jpg,0,0,678,0,unchosen,22,12,faces,faces,1200,0,6,1
51,38808,0,52,1,1,0,no_gain6,gain1,F,L,35,29,body_parts,body_parts,33,29,Stimuli/Experimental_stims/body_parts/wc-so-KH4AAPjb-tI-unsplash.jpg,Stimuli/Experimental_stims/body_parts/manuel-schinner-ZwjFuJ7ebpk-unsplash.jpg,0,1,1097,0,chosen,35,29,body_parts,body_parts,2400,0,6,1
52,38808,0,53,1,1,1,gain2,no_gain1,E,K,33,32,body_parts,body_parts,90,13,Stimuli/Experimental_stims/body_parts/tucker-good-36skLT5jZcc-unsplash.jpg,Stimuli/Experimental_stims/body_parts/towfiqu-barbhuiya-3AsiVDsZnHg-unsplash.jpg,0,1,901,1,chosen,33,32,body_parts,body_parts,1600,0,6,1
53,38808,0,54,1,1,1,gain5,no_gain6,G,F,8,35,outdoor_scenes,body_parts,76,33,Stimuli/Experimental_stims/outdoor_scenes/samsommer-vddccTqwal8-unsplash.jpg,Stimuli/Experimental_stims/body_parts/wc-so-KH4AAPjb-tI-unsplash.jpg,0,1,1309,1,chosen,8,35,outdoor_scenes,body_parts,3100,1,6,1
54,38808,0,55,1,1,0,no_gain5,gain1,D,L,20,16,faces,faces,43,22,Stimuli/Experimental_stims/faces/justin-chen-J7Cf1Gch49E-unsplash.jpg,Stimuli/Experimental_stims/faces/freddy-kearney-o-ioeoATbIM-unsplash.jpg,0,0,986,1,unchosen,16,20,faces,faces,2300,0,6,1
55,38808,0,56,1,1,1,gain2,no_gain2,E,C,33,2,body_parts,outdoor_scenes,90,90,Stimuli/Experimental_stims/body_parts/tucker-good-36skLT5jZcc-unsplash.jpg,Stimuli/Experimental_stims/outdoor_scenes/bruno-van-der-kraan-qez8mNJ3ilU-unsplash.jpg,0,0,1140,0,chosen,2,33,outdoor_scenes,body_parts,2600,0,6,1
56,38808,0,57,1,1,1,gain3,no_gain2,I,C,1,24,outdoor_scenes,body_parts,41,44,Stimuli/Experimental_stims/outdoor_scenes/ashim-d-silva-S2Q5mdOrrVc-unsplash.jpg,Stimuli/Experimental_stims/body_parts/clay-banks-LjqARJaJotc-unsplash.jpg,0,1,1363,1,unchosen,1,24,outdoor_scenes,body_parts,1700,0,6,1
57,38808,0,58,1,1,0,no_gain1,gain3,K,I,46,1,objects,outdoor_scenes,79,41,Stimuli/Experimental_stims/objects/mockup-graphics-PNsj6RiHAF4-unsplash.jpg,Stimuli/Experimental_stims/outdoor_scenes/ashim-d-silva-S2Q5mdOrrVc-unsplash.jpg,0,0,874,1,unchosen,1,46,outdoor_scenes,objects,1100,0,6,1
58,38808,0,59,1,1,1,gain6,no_gain4,B,H,5,6,outdoor_scenes,outdoor_scenes,67,8,Stimuli/Experimental_stims/outdoor_scenes/jeff-king-bJHWJeiHfHc-unsplash.jpg,Stimuli/Experimental_stims/outdoor_scenes/meng-ji-8BH_M-53CyA-unsplash.jpg,1,NaN,,NaN,chosen,NaN,NaN,NaN,NaN,2600,0,6,1
59,38808,0,60,1,1,1,gain6,no_gain1,B,K,12,46,faces,objects,24,79,Stimuli/Experimental_stims/faces/aiony-haust-jmATI5Q_YgY-unsplash.jpg,Stimuli/Experimental_stims/objects/mockup-graphics-PNsj6RiHAF4-unsplash.jpg,0,1,127,1,unchosen,12,46,faces,objects,1000,0,6,1
60,38808,0,61,1,1,1,gain1,no_gain3,L,A,16,37,faces,objects,22,39,Stimuli/Experimental_stims/faces/freddy-kearney-o-ioeoATbIM-unsplash.jpg,Stimuli/Experimental_stims/objects/alexander-andrews-VLGWE_SumrA-unsplash.jpg,0,1,1166,1,unchosen,16,37,faces,objects,2400,0,6,1
61,38808,0,62,1,1,0,no_gain6,gain4,F,J,18,17,faces,faces,82,6,Stimuli/Experimental_stims/faces/jessica-radanavong-mrYkTuAesKE-unsplash.jpg,Stimuli/Experimental_stims/faces/good-faces-xmSWVeGEnJw-unsplash.jpg,0,0,19,1,unchosen,17,18,faces,faces,3500,1,6,1
62,38808,0,63,1,1,1,gain6,no_gain3,B,A,5,7,outdoor_scenes,outdoor_scenes,67,28,Stimuli/Experimental_stims/outdoor_scenes/jeff-king-bJHWJeiHfHc-unsplash.jpg,Stimuli/Experimental_stims/outdoor_scenes/petr-vysohlid-9fqwGqGLUxc-unsplash.jpg,0,1,710,1,chosen,5,7,outdoor_scenes,outdoor_scenes,1700,0,6,1
63,38808,0,64,1,1,1,gain2,no_gain4,E,H,33,6,body_parts,outdoor_scenes,90,8,Stimuli/Experimental_stims/body_parts/tucker-good-36skLT5jZcc-unsplash.jpg,Stimuli/Experimental_stims/outdoor_scenes/meng-ji-8BH_M-53CyA-unsplash.jpg,0,0,65,0,chosen,6,33,outdoor_scenes,body_parts,1200,0,6,1
64,38808,0,65,1,1,0,no_gain6,gain1,F,L,18,16,faces,faces,82,22,Stimuli/Experimental_stims/faces/jessica-radanavong-mrYkTuAesKE-unsplash.jpg,Stimuli/Experimental_stims/faces/freddy-kearney-o-ioeoATbIM-unsplash.jpg,1,NaN,,NaN,unchosen,NaN,NaN,NaN,NaN,1600,0,6,1
65,38808,0,66,1,1,0,no_gain4,gain1,H,L,22,16,faces,faces,4,22,Stimuli/Experimental_stims/faces/ravi-patel-VMGAbeeJTKo-unsplash.jpg,Stimuli/Experimental_stims/faces/freddy-kearney-o-ioeoATbIM-unsplash.jpg,0,1,667,0,unchosen,22,16,faces,faces,1200,0,6,1
66,38808,0,67,1,1,1,gain5,no_gain2,G,C,39,24,objects,body_parts,28,44,Stimuli/Experimental_stims/objects/charlesdeluvio-1-nx1QR5dTE-unsplash.jpg,Stimuli/Experimental_stims/body_parts/clay-banks-LjqARJaJotc-unsplash.jpg,1,NaN,,NaN,unchosen,NaN,NaN,NaN,NaN,3400,1,6,1
67,38808,0,68,1,1,0,no_gain1,gain4,K,J,32,38,body_parts,objects,13,75,Stimuli/Experimental_stims/body_parts/towfiqu-barbhuiya-3AsiVDsZnHg-unsplash.jpg,Stimuli/Experimental_stims/objects/art-lasovsky-8XddFc6NkBY-unsplash.jpg,0,1,1267,0,chosen,32,38,body_parts,objects,1900,0,6,1
68,38808,0,69,1,1,1,gain6,no_gain2,B,C,5,2,outdoor_scenes,outdoor_scenes,67,90,Stimuli/Experimental_stims/outdoor_scenes/jeff-king-bJHWJeiHfHc-unsplash.jpg,Stimuli/Experimental_stims/outdoor_scenes/bruno-van-der-kraan-qez8mNJ3ilU-unsplash.jpg,0,1,645,1,chosen,5,2,outdoor_scenes,outdoor_scenes,2200,0,6,1
69,38808,0,70,1,1,1,gain5,no_gain3,G,A,8,7,outdoor_scenes,outdoor_scenes,76,28,Stimuli/Experimental_stims/outdoor_scenes/samsommer-vddccTqwal8-unsplash.jpg,Stimuli/Experimental_stims/outdoor_scenes/petr-vysohlid-9fqwGqGLUxc-unsplash.jpg,1,NaN,,NaN,chosen,NaN,NaN,NaN,NaN,1100,0,6,1
70,38808,0,71,1,1,0,no_gain1,gain1,K,L,46,16,objects,faces,79,22,Stimuli/Experimental_stims/objects/mockup-graphics-PNsj6RiHAF4-unsplash.jpg,Stimuli/Experimental_stims/faces/freddy-kearney-o-ioeoATbIM-unsplash.jpg,0,1,286,0,unchosen,46,16,objects,faces,2600,0,6,1
71,38808,0,72,1,1,1,gain1,no_gain2,L,C,16,24,faces,body_parts,22,44,Stimuli/Experimental_stims/faces/freddy-kearney-o-ioeoATbIM-unsplash.jpg,Stimuli/Experimental_stims/body_parts/clay-banks-LjqARJaJotc-unsplash.jpg,0,0,223,0,unchosen,24,16,body_parts,faces,2100,0,6,1
72,38808,0,73,1,1,0,no_gain3,gain3,A,I,37,1,objects,outdoor_scenes,39,41,Stimuli/Experimental_stims/objects/alexander-andrews-VLGWE_SumrA-unsplash.jpg,Stimuli/Experimental_stims/outdoor_scenes/ashim-d-silva-S2Q5mdOrrVc-unsplash.jpg,0,1,1264,0,unchosen,37,1,objects,outdoor_scenes,1600,0,6,1
73,38808,0,74,1,1,0,no_gain4,gain1,H,L,6,29,outdoor_scenes,body_parts,8,29,Stimuli/Experimental_stims/outdoor_scenes/meng-ji-8BH_M-53CyA-unsplash.jpg,Stimuli/Experimental_stims/body_parts/manuel-schinner-ZwjFuJ7ebpk-unsplash.jpg,0,0,1017,1,chosen,29,6,body_parts,outdoor_scenes,1200,0,6,1
74,38808,0,75,1,1,1,gain3,no_gain5,I,D,1,20,outdoor_scenes,faces,41,43,Stimuli/Experimental_stims/outdoor_scenes/ashim-d-silva-S2Q5mdOrrVc-unsplash.jpg,Stimuli/Experimental_stims/faces/justin-chen-J7Cf1Gch49E-unsplash.jpg,0,1,678,1,unchosen,1,20,outdoor_scenes,faces,2600,0,6,1
75,38808,0,76,1,1,0,no_gain4,gain3,H,I,6,26,outdoor_scenes,body_parts,8,25,Stimuli/Experimental_stims/outdoor_scenes/meng-ji-8BH_M-53CyA-unsplash.jpg,Stimuli/Experimental_stims/body_parts/engin-akyurt-x_3gyC42btc-unsplash.jpg,0,1,991,0,chosen,6,26,outdoor_scenes,body_parts,3600,1,6,1
76,38808,0,77,2,2,1,gain4,no_gain6,J,F,17,18,faces,faces,6,82,Stimuli/Experimental_stims/faces/good-faces-xmSWVeGEnJw-unsplash.jpg,Stimuli/Experimental_stims/faces/jessica-radanavong-mrYkTuAesKE-unsplash.jpg,0,1,858,1,unchosen,17,18,faces,faces,3100,1,4,1
77,38808,0,78,2,2,1,gain3,no_gain1,I,K,26,32,body_parts,body_parts,25,13,Stimuli/Experimental_stims/body_parts/engin-akyurt-x_3gyC42btc-unsplash.jpg,Stimuli/Experimental_stims/body_parts/towfiqu-barbhuiya-3AsiVDsZnHg-unsplash.jpg,0,0,574,0,chosen,32,26,body_parts,body_parts,2600,0,4,1
78,38808,0,79,2,2,0,no_gain5,gain5,D,G,40,8,objects,outdoor_scenes,28,76,Stimuli/Experimental_stims/objects/fabian-blank-pElSkGRA2NU-unsplash.jpg,Stimuli/Experimental_stims/outdoor_scenes/samsommer-vddccTqwal8-unsplash.jpg,0,1,691,0,chosen,40,8,objects,outdoor_scenes,1800,0,4,1
79,38808,0,80,2,2,0,no_gain5,gain2,D,E,20,42,faces,objects,43,18,Stimuli/Experimental_stims/faces/justin-chen-J7Cf1Gch49E-unsplash.jpg,Stimuli/Experimental_stims/objects/jess-bailey-nOeVi8DsN8U-unsplash.jpg,0,0,560,1,unchosen,42,20,objects,faces,1000,0,4,1
80,38808,0,81,2,2,0,no_gain5,gain6,D,B,40,5,objects,outdoor_scenes,28,67,Stimuli/Experimental_stims/objects/fabian-blank-pElSkGRA2NU-unsplash.jpg,Stimuli/Experimental_stims/outdoor_scenes/jeff-king-bJHWJeiHfHc-unsplash.jpg,0,1,784,0,chosen,40,5,objects,outdoor_scenes,2300,0,4,1
81,38808,0,82,2,2,1,gain2,no_gain1,E,K,33,32,body_parts,body_parts,90,13,Stimuli/Experimental_stims/body_parts/tucker-good-36skLT5jZcc-unsplash.jpg,Stimuli/Experimental_stims/body_parts/towfiqu-barbhuiya-3AsiVDsZnHg-unsplash.jpg,0,0,664,0,chosen,32,33,body_parts,body_parts,1100,0,4,1
82,38808,0,83,2,2,1,gain6,no_gain4,B,H,5,6,outdoor_scenes,outdoor_scenes,67,8,Stimuli/Experimental_stims/outdoor_scenes/jeff-king-bJHWJeiHfHc-unsplash.jpg,Stimuli/Experimental_stims/outdoor_scenes/meng-ji-8BH_M-53CyA-unsplash.jpg,0,1,604,1,chosen,5,6,outdoor_scenes,outdoor_scenes,1500,0,4,1
83,38808,0,84,2,2,1,gain1,no_gain4,L,H,16,22,faces,faces,22,4,Stimuli/Experimental_stims/faces/freddy-kearney-o-ioeoATbIM-unsplash.jpg,Stimuli/Experimental_stims/faces/ravi-patel-VMGAbeeJTKo-unsplash.jpg,0,1,846,1,unchosen,16,22,faces,faces,2400,0,4,1
84,38808,0,85,2,2,0,no_gain2,gain2,C,E,24,42,body_parts,objects,44,18,Stimuli/Experimental_stims/body_parts/clay-banks-LjqARJaJotc-unsplash.jpg,Stimuli/Experimental_stims/objects/jess-bailey-nOeVi8DsN8U-unsplash.jpg,0,1,934,0,unchosen,24,42,body_parts,objects,2300,0,4,1
85,38808,0,86,2,2,1,gain6,no_gain3,B,A,5,7,outdoor_scenes,outdoor_scenes,67,28,Stimuli/Experimental_stims/outdoor_scenes/jeff-king-bJHWJeiHfHc-unsplash.jpg,Stimuli/Experimental_stims/outdoor_scenes/petr-vysohlid-9fqwGqGLUxc-unsplash.jpg,0,1,789,1,chosen,5,7,outdoor_scenes,outdoor_scenes,1200,0,4,1
86,38808,0,87,2,2,0,no_gain5,gain4,D,J,20,17,faces,faces,43,6,Stimuli/Experimental_stims/faces/justin-chen-J7Cf1Gch49E-unsplash.jpg,Stimuli/Experimental_stims/faces/good-faces-xmSWVeGEnJw-unsplash.jpg,0,1,1480,0,unchosen,20,17,faces,faces,1300,0,4,1
87,38808,0,88,2,2,1,gain2,no_gain2,E,C,33,2,body_parts,outdoor_scenes,90,90,Stimuli/Experimental_stims/body_parts/tucker-good-36skLT5jZcc-unsplash.jpg,Stimuli/Experimental_stims/outdoor_scenes/bruno-van-der-kraan-qez8mNJ3ilU-unsplash.jpg,0,1,39,1,chosen,33,2,body_parts,outdoor_scenes,3700,1,4,1
88,38808,0,89,2,2,1,gain5,no_gain3,G,A,8,7,outdoor_scenes,outdoor_scenes,76,28,Stimuli/Experimental_stims/outdoor_scenes/samsommer-vddccTqwal8-unsplash.jpg,Stimuli/Experimental_stims/outdoor_scenes/petr-vysohlid-9fqwGqGLUxc-unsplash.jpg,0,1,770,1,chosen,8,7,outdoor_scenes,outdoor_scenes,1600,0,4,1
89,38808,0,90,2,2,0,no_gain3,gain1,A,L,7,29,outdoor_scenes,body_parts,28,29,Stimuli/Experimental_stims/outdoor_scenes/petr-vysohlid-9fqwGqGLUxc-unsplash.jpg,Stimuli/Experimental_stims/body_parts/manuel-schinner-ZwjFuJ7ebpk-unsplash.jpg,0,1,935,0,chosen,7,29,outdoor_scenes,body_parts,1700,0,4,1
90,38808,0,91,2,2,0,no_gain2,gain1,C,L,24,16,body_parts,faces,44,22,Stimuli/Experimental_stims/body_parts/clay-banks-LjqARJaJotc-unsplash.jpg,Stimuli/Experimental_stims/faces/freddy-kearney-o-ioeoATbIM-unsplash.jpg,0,1,785,0,unchosen,24,16,body_parts,faces,1200,0,4,1
91,38808,0,92,2,2,0,no_gain6,gain5,F,G,35,8,body_parts,outdoor_scenes,33,76,Stimuli/Experimental_stims/body_parts/wc-so-KH4AAPjb-tI-unsplash.jpg,Stimuli/Experimental_stims/outdoor_scenes/samsommer-vddccTqwal8-unsplash.jpg,0,1,814,0,chosen,35,8,body_parts,outdoor_scenes,1100,0,4,1
92,38808,0,93,2,2,0,no_gain4,gain3,H,I,6,26,outdoor_scenes,body_parts,8,25,Stimuli/Experimental_stims/outdoor_scenes/meng-ji-8BH_M-53CyA-unsplash.jpg,Stimuli/Experimental_stims/body_parts/engin-akyurt-x_3gyC42btc-unsplash.jpg,1,NaN,,NaN,chosen,NaN,NaN,NaN,NaN,1300,0,4,1
93,38808,0,94,2,2,1,gain4,no_gain5,J,D,38,40,objects,objects,75,28,Stimuli/Experimental_stims/objects/art-lasovsky-8XddFc6NkBY-unsplash.jpg,Stimuli/Experimental_stims/objects/fabian-blank-pElSkGRA2NU-unsplash.jpg,0,0,81,0,chosen,40,38,objects,objects,4500,1,4,1
94,38808,0,95,2,2,0,no_gain5,gain1,D,L,20,16,faces,faces,43,22,Stimuli/Experimental_stims/faces/justin-chen-J7Cf1Gch49E-unsplash.jpg,Stimuli/Experimental_stims/faces/freddy-kearney-o-ioeoATbIM-unsplash.jpg,0,1,861,0,unchosen,20,16,faces,faces,1900,0,4,1
95,38808,0,96,2,2,1,gain1,no_gain3,L,A,16,37,faces,objects,22,39,Stimuli/Experimental_stims/faces/freddy-kearney-o-ioeoATbIM-unsplash.jpg,Stimuli/Experimental_stims/objects/alexander-andrews-VLGWE_SumrA-unsplash.jpg,0,0,192,0,unchosen,37,16,objects,faces,1100,0,4,1
96,38808,0,97,2,2,1,gain3,no_gain3,I,A,1,37,outdoor_scenes,objects,41,39,Stimuli/Experimental_stims/outdoor_scenes/ashim-d-silva-S2Q5mdOrrVc-unsplash.jpg,Stimuli/Experimental_stims/objects/alexander-andrews-VLGWE_SumrA-unsplash.jpg,0,1,1140,1,unchosen,1,37,outdoor_scenes,objects,2300,0,4,1
97,38808,0,98,2,2,0,no_gain5,gain1,D,L,40,29,objects,body_parts,28,29,Stimuli/Experimental_stims/objects/fabian-blank-pElSkGRA2NU-unsplash.jpg,Stimuli/Experimental_stims/body_parts/manuel-schinner-ZwjFuJ7ebpk-unsplash.jpg,0,1,1121,0,chosen,40,29,objects,body_parts,2800,0,4,1
98,38808,0,99,2,2,0,no_gain5,gain5,D,G,20,39,faces,objects,43,28,Stimuli/Experimental_stims/faces/justin-chen-J7Cf1Gch49E-unsplash.jpg,Stimuli/Experimental_stims/objects/charlesdeluvio-1-nx1QR5dTE-unsplash.jpg,0,0,807,1,unchosen,39,20,objects,faces,3200,1,4,1
99,38808,0,100,2,2,1,gain5,no_gain1,G,K,8,32,outdoor_scenes,body_parts,76,13,Stimuli/Experimental_stims/outdoor_scenes/samsommer-vddccTqwal8-unsplash.jpg,Stimuli/Experimental_stims/body_parts/towfiqu-barbhuiya-3AsiVDsZnHg-unsplash.jpg,0,1,789,1,chosen,8,32,outdoor_scenes,body_parts,2000,0,4,1
100,38808,0,101,2,2,0,no_gain2,gain6,C,B,2,5,outdoor_scenes,outdoor_scenes,90,67,Stimuli/Experimental_stims/outdoor_scenes/bruno-van-der-kraan-qez8mNJ3ilU-unsplash.jpg,Stimuli/Experimental_stims/outdoor_scenes/jeff-king-bJHWJeiHfHc-unsplash.jpg,0,1,988,0,chosen,2,5,outdoor_scenes,outdoor_scenes,2500,0,4,1
101,38808,0,102,2,2,1,gain3,no_gain5,I,D,1,20,outdoor_scenes,faces,41,43,Stimuli/Experimental_stims/outdoor_scenes/ashim-d-silva-S2Q5mdOrrVc-unsplash.jpg,Stimuli/Experimental_stims/faces/justin-chen-J7Cf1Gch49E-unsplash.jpg,0,0,886,0,unchosen,20,1,faces,outdoor_scenes,1300,0,4,1
102,38808,0,103,2,2,1,gain6,no_gain3,B,A,12,37,faces,objects,24,39,Stimuli/Experimental_stims/faces/aiony-haust-jmATI5Q_YgY-unsplash.jpg,Stimuli/Experimental_stims/objects/alexander-andrews-VLGWE_SumrA-unsplash.jpg,0,1,928,1,unchosen,12,37,faces,objects,1300,0,4,1
103,38808,0,104,2,2,1,gain4,no_gain4,J,H,17,22,faces,faces,6,4,Stimuli/Experimental_stims/faces/good-faces-xmSWVeGEnJw-unsplash.jpg,Stimuli/Experimental_stims/faces/ravi-patel-VMGAbeeJTKo-unsplash.jpg,0,0,921,0,unchosen,22,17,faces,faces,4500,1,4,1
104,38808,0,105,2,2,1,gain6,no_gain1,B,K,5,32,outdoor_scenes,body_parts,67,13,Stimuli/Experimental_stims/outdoor_scenes/jeff-king-bJHWJeiHfHc-unsplash.jpg,Stimuli/Experimental_stims/body_parts/towfiqu-barbhuiya-3AsiVDsZnHg-unsplash.jpg,0,1,225,1,chosen,5,32,outdoor_scenes,body_parts,1400,0,4,1
105,38808,0,106,2,2,1,gain2,no_gain6,E,F,42,18,objects,faces,18,82,Stimuli/Experimental_stims/objects/jess-bailey-nOeVi8DsN8U-unsplash.jpg,Stimuli/Experimental_stims/faces/jessica-radanavong-mrYkTuAesKE-unsplash.jpg,0,0,1018,0,unchosen,18,42,faces,objects,2600,0,4,1
106,38808,0,107,2,2,1,gain4,no_gain4,J,H,38,6,objects,outdoor_scenes,75,8,Stimuli/Experimental_stims/objects/art-lasovsky-8XddFc6NkBY-unsplash.jpg,Stimuli/Experimental_stims/outdoor_scenes/meng-ji-8BH_M-53CyA-unsplash.jpg,0,0,1220,0,chosen,6,38,outdoor_scenes,objects,2100,0,4,1
107,38808,0,108,2,2,0,no_gain6,gain6,F,B,18,12,faces,faces,82,24,Stimuli/Experimental_stims/faces/jessica-radanavong-mrYkTuAesKE-unsplash.jpg,Stimuli/Experimental_stims/faces/aiony-haust-jmATI5Q_YgY-unsplash.jpg,1,NaN,,NaN,unchosen,NaN,NaN,NaN,NaN,2100,0,4,1
108,38808,0,109,2,2,1,gain4,no_gain3,J,A,17,37,faces,objects,6,39,Stimuli/Experimental_stims/faces/good-faces-xmSWVeGEnJw-unsplash.jpg,Stimuli/Experimental_stims/objects/alexander-andrews-VLGWE_SumrA-unsplash.jpg,0,1,281,1,unchosen,17,37,faces,objects,2600,0,4,1
109,38808,0,110,2,2,0,no_gain1,gain1,K,L,32,29,body_parts,body_parts,13,29,Stimuli/Experimental_stims/body_parts/towfiqu-barbhuiya-3AsiVDsZnHg-unsplash.jpg,Stimuli/Experimental_stims/body_parts/manuel-schinner-ZwjFuJ7ebpk-unsplash.jpg,0,0,935,1,chosen,29,32,body_parts,body_parts,3000,1,4,1
110,38808,0,111,2,2,1,gain2,no_gain4,E,H,33,6,body_parts,outdoor_scenes,90,8,Stimuli/Experimental_stims/body_parts/tucker-good-36skLT5jZcc-unsplash.jpg,Stimuli/Experimental_stims/outdoor_scenes/meng-ji-8BH_M-53CyA-unsplash.jpg,0,1,654,1,chosen,33,6,body_parts,outdoor_scenes,1100,0,4,1
111,38808,0,112,2,2,0,no_gain1,gain3,K,I,46,1,objects,outdoor_scenes,79,41,Stimuli/Experimental_stims/objects/mockup-graphics-PNsj6RiHAF4-unsplash.jpg,Stimuli/Experimental_stims/outdoor_scenes/ashim-d-silva-S2Q5mdOrrVc-unsplash.jpg,0,0,1035,1,unchosen,1,46,outdoor_scenes,objects,1000,0,4,1
112,38808,0,113,2,2,1,gain5,no_gain1,G,K,39,46,objects,objects,28,79,Stimuli/Experimental_stims/objects/charlesdeluvio-1-nx1QR5dTE-unsplash.jpg,Stimuli/Experimental_stims/objects/mockup-graphics-PNsj6RiHAF4-unsplash.jpg,0,1,1134,1,unchosen,39,46,objects,objects,1300,0,4,1
113,38808,0,114,2,2,1,gain3,no_gain6,I,F,26,35,body_parts,body_parts,25,33,Stimuli/Experimental_stims/body_parts/engin-akyurt-x_3gyC42btc-unsplash.jpg,Stimuli/Experimental_stims/body_parts/wc-so-KH4AAPjb-tI-unsplash.jpg,0,0,1035,0,chosen,35,26,body_parts,body_parts,1000,0,4,1
114,38808,0,115,2,2,0,no_gain1,gain1,K,L,46,16,objects,faces,79,22,Stimuli/Experimental_stims/objects/mockup-graphics-PNsj6RiHAF4-unsplash.jpg,Stimuli/Experimental_stims/faces/freddy-kearney-o-ioeoATbIM-unsplash.jpg,0,1,1015,0,unchosen,46,16,objects,faces,1200,0,4,1
115,38808,0,116,2,2,0,no_gain5,gain3,D,I,40,26,objects,body_parts,28,25,Stimuli/Experimental_stims/objects/fabian-blank-pElSkGRA2NU-unsplash.jpg,Stimuli/Experimental_stims/body_parts/engin-akyurt-x_3gyC42btc-unsplash.jpg,0,0,1035,1,chosen,26,40,body_parts,objects,1800,0,4,1
116,38808,0,117,2,2,1,gain5,no_gain2,G,C,39,24,objects,body_parts,28,44,Stimuli/Experimental_stims/objects/charlesdeluvio-1-nx1QR5dTE-unsplash.jpg,Stimuli/Experimental_stims/body_parts/clay-banks-LjqARJaJotc-unsplash.jpg,1,NaN,,NaN,unchosen,NaN,NaN,NaN,NaN,2300,0,4,1
117,38808,0,118,2,2,1,gain4,no_gain1,J,K,38,32,objects,body_parts,75,13,Stimuli/Experimental_stims/objects/art-lasovsky-8XddFc6NkBY-unsplash.jpg,Stimuli/Experimental_stims/body_parts/towfiqu-barbhuiya-3AsiVDsZnHg-unsplash.jpg,0,1,314,1,chosen,38,32,objects,body_parts,3500,1,4,1
118,38808,0,119,2,2,0,no_gain2,gain6,C,B,24,12,body_parts,faces,44,24,Stimuli/Experimental_stims/body_parts/clay-banks-LjqARJaJotc-unsplash.jpg,Stimuli/Experimental_stims/faces/aiony-haust-jmATI5Q_YgY-unsplash.jpg,0,0,266,1,unchosen,12,24,faces,body_parts,1300,0,4,1
119,38808,0,120,2,2,0,no_gain2,gain5,C,G,2,8,outdoor_scenes,outdoor_scenes,90,76,Stimuli/Experimental_stims/outdoor_scenes/bruno-van-der-kraan-qez8mNJ3ilU-unsplash.jpg,Stimuli/Experimental_stims/outdoor_scenes/samsommer-vddccTqwal8-unsplash.jpg,0,1,791,0,chosen,2,8,outdoor_scenes,outdoor_scenes,1400,0,4,1
120,38808,0,121,2,2,1,gain3,no_gain3,I,A,26,7,body_parts,outdoor_scenes,25,28,Stimuli/Experimental_stims/body_parts/engin-akyurt-x_3gyC42btc-unsplash.jpg,Stimuli/Experimental_stims/outdoor_scenes/petr-vysohlid-9fqwGqGLUxc-unsplash.jpg,0,0,1200,0,chosen,7,26,outdoor_scenes,body_parts,1300,0,4,1
121,38808,0,122,2,2,1,gain6,no_gain1,B,K,12,46,faces,objects,24,79,Stimuli/Experimental_stims/faces/aiony-haust-jmATI5Q_YgY-unsplash.jpg,Stimuli/Experimental_stims/objects/mockup-graphics-PNsj6RiHAF4-unsplash.jpg,0,0,1459,0,unchosen,46,12,objects,faces,2800,0,4,1
122,38808,0,123,2,2,1,gain5,no_gain6,G,F,39,18,objects,faces,28,82,Stimuli/Experimental_stims/objects/charlesdeluvio-1-nx1QR5dTE-unsplash.jpg,Stimuli/Experimental_stims/faces/jessica-radanavong-mrYkTuAesKE-unsplash.jpg,0,1,407,1,unchosen,39,18,objects,faces,1800,0,4,1
123,38808,0,124,2,2,0,no_gain2,gain4,C,J,24,17,body_parts,faces,44,6,Stimuli/Experimental_stims/body_parts/clay-banks-LjqARJaJotc-unsplash.jpg,Stimuli/Experimental_stims/faces/good-faces-xmSWVeGEnJw-unsplash.jpg,0,0,1119,1,unchosen,17,24,faces,body_parts,1200,0,4,1
124,38808,0,125,2,2,0,no_gain3,gain4,A,J,7,38,outdoor_scenes,objects,28,75,Stimuli/Experimental_stims/outdoor_scenes/petr-vysohlid-9fqwGqGLUxc-unsplash.jpg,Stimuli/Experimental_stims/objects/art-lasovsky-8XddFc6NkBY-unsplash.jpg,0,1,905,0,chosen,7,38,outdoor_scenes,objects,1000,0,4,1
125,38808,0,126,2,2,1,gain3,no_gain4,I,H,1,22,outdoor_scenes,faces,41,4,Stimuli/Experimental_stims/outdoor_scenes/ashim-d-silva-S2Q5mdOrrVc-unsplash.jpg,Stimuli/Experimental_stims/faces/ravi-patel-VMGAbeeJTKo-unsplash.jpg,0,0,966,0,unchosen,22,1,faces,outdoor_scenes,1600,0,4,1
126,38808,0,127,2,2,0,no_gain2,gain4,C,J,2,38,outdoor_scenes,objects,90,75,Stimuli/Experimental_stims/outdoor_scenes/bruno-van-der-kraan-qez8mNJ3ilU-unsplash.jpg,Stimuli/Experimental_stims/objects/art-lasovsky-8XddFc6NkBY-unsplash.jpg,0,1,370,0,chosen,2,38,outdoor_scenes,objects,1500,0,4,1
127,38808,0,128,2,2,0,no_gain5,gain2,D,E,40,33,objects,body_parts,28,90,Stimuli/Experimental_stims/objects/fabian-blank-pElSkGRA2NU-unsplash.jpg,Stimuli/Experimental_stims/body_parts/tucker-good-36skLT5jZcc-unsplash.jpg,0,0,852,1,chosen,33,40,body_parts,objects,3300,1,4,1
128,38808,0,129,2,2,0,no_gain4,gain1,H,L,6,29,outdoor_scenes,body_parts,8,29,Stimuli/Experimental_stims/outdoor_scenes/meng-ji-8BH_M-53CyA-unsplash.jpg,Stimuli/Experimental_stims/body_parts/manuel-schinner-ZwjFuJ7ebpk-unsplash.jpg,0,1,702,0,chosen,6,29,outdoor_scenes,body_parts,2200,0,4,1
129,38808,0,130,2,2,0,no_gain5,gain6,D,B,20,12,faces,faces,43,24,Stimuli/Experimental_stims/faces/justin-chen-J7Cf1Gch49E-unsplash.jpg,Stimuli/Experimental_stims/faces/aiony-haust-jmATI5Q_YgY-unsplash.jpg,0,1,695,0,unchosen,20,12,faces,faces,2400,0,4,1
130,38808,0,131,2,2,1,gain2,no_gain3,E,A,33,7,body_parts,outdoor_scenes,90,28,Stimuli/Experimental_stims/body_parts/tucker-good-36skLT5jZcc-unsplash.jpg,Stimuli/Experimental_stims/outdoor_scenes/petr-vysohlid-9fqwGqGLUxc-unsplash.jpg,0,0,888,0,chosen,7,33,outdoor_scenes,body_parts,1300,0,4,1
131,38808,0,132,2,2,1,gain6,no_gain4,B,H,12,22,faces,faces,24,4,Stimuli/Experimental_stims/faces/aiony-haust-jmATI5Q_YgY-unsplash.jpg,Stimuli/Experimental_stims/faces/ravi-patel-VMGAbeeJTKo-unsplash.jpg,0,1,1022,1,unchosen,12,22,faces,faces,2400,0,4,1
132,38808,0,133,2,2,0,no_gain1,gain4,K,J,46,17,objects,faces,79,6,Stimuli/Experimental_stims/objects/mockup-graphics-PNsj6RiHAF4-unsplash.jpg,Stimuli/Experimental_stims/faces/good-faces-xmSWVeGEnJw-unsplash.jpg,0,0,953,1,unchosen,17,46,faces,objects,2200,0,4,1
133,38808,0,134,2,2,0,no_gain6,gain4,F,J,35,38,body_parts,objects,33,75,Stimuli/Experimental_stims/body_parts/wc-so-KH4AAPjb-tI-unsplash.jpg,Stimuli/Experimental_stims/objects/art-lasovsky-8XddFc6NkBY-unsplash.jpg,0,1,646,0,chosen,35,38,body_parts,objects,2900,1,4,1
134,38808,0,135,2,2,1,gain1,no_gain6,L,F,29,35,body_parts,body_parts,29,33,Stimuli/Experimental_stims/body_parts/manuel-schinner-ZwjFuJ7ebpk-unsplash.jpg,Stimuli/Experimental_stims/body_parts/wc-so-KH4AAPjb-tI-unsplash.jpg,0,0,81,0,chosen,35,29,body_parts,body_parts,1900,0,4,1
135,38808,0,136,2,2,0,no_gain1,gain2,K,E,46,42,objects,objects,79,18,Stimuli/Experimental_stims/objects/mockup-graphics-PNsj6RiHAF4-unsplash.jpg,Stimuli/Experimental_stims/objects/jess-bailey-nOeVi8DsN8U-unsplash.jpg,0,1,726,0,unchosen,46,42,objects,objects,1700,0,4,1
136,38808,0,137,2,2,0,no_gain4,gain2,H,E,22,42,faces,objects,4,18,Stimuli/Experimental_stims/faces/ravi-patel-VMGAbeeJTKo-unsplash.jpg,Stimuli/Experimental_stims/objects/jess-bailey-nOeVi8DsN8U-unsplash.jpg,0,1,1324,0,unchosen,22,42,faces,objects,1900,0,4,1
137,38808,0,138,2,2,1,gain6,no_gain6,B,F,5,35,outdoor_scenes,body_parts,67,33,Stimuli/Experimental_stims/outdoor_scenes/jeff-king-bJHWJeiHfHc-unsplash.jpg,Stimuli/Experimental_stims/body_parts/wc-so-KH4AAPjb-tI-unsplash.jpg,0,1,799,1,chosen,5,35,outdoor_scenes,body_parts,1700,0,4,1
138,38808,0,139,2,2,0,no_gain3,gain2,A,E,37,42,objects,objects,39,18,Stimuli/Experimental_stims/objects/alexander-andrews-VLGWE_SumrA-unsplash.jpg,Stimuli/Experimental_stims/objects/jess-bailey-nOeVi8DsN8U-unsplash.jpg,0,1,903,0,unchosen,37,42,objects,objects,1300,0,4,1
139,38808,0,140,2,2,1,gain5,no_gain4,G,H,39,22,objects,faces,28,4,Stimuli/Experimental_stims/objects/charlesdeluvio-1-nx1QR5dTE-unsplash.jpg,Stimuli/Experimental_stims/faces/ravi-patel-VMGAbeeJTKo-unsplash.jpg,0,1,764,1,unchosen,39,22,objects,faces,3600,1,4,1
140,38808,0,141,2,2,1,gain5,no_gain4,G,H,8,6,outdoor_scenes,outdoor_scenes,76,8,Stimuli/Experimental_stims/outdoor_scenes/samsommer-vddccTqwal8-unsplash.jpg,Stimuli/Experimental_stims/outdoor_scenes/meng-ji-8BH_M-53CyA-unsplash.jpg,0,1,796,1,chosen,8,6,outdoor_scenes,outdoor_scenes,1700,0,4,1
141,38808,0,142,2,2,0,no_gain6,gain2,F,E,35,33,body_parts,body_parts,33,90,Stimuli/Experimental_stims/body_parts/wc-so-KH4AAPjb-tI-unsplash.jpg,Stimuli/Experimental_stims/body_parts/tucker-good-36skLT5jZcc-unsplash.jpg,0,0,1218,1,chosen,33,35,body_parts,body_parts,1900,0,4,1
142,38808,0,143,2,2,0,no_gain2,gain1,C,L,2,29,outdoor_scenes,body_parts,90,29,Stimuli/Experimental_stims/outdoor_scenes/bruno-van-der-kraan-qez8mNJ3ilU-unsplash.jpg,Stimuli/Experimental_stims/body_parts/manuel-schinner-ZwjFuJ7ebpk-unsplash.jpg,0,1,783,0,chosen,2,29,outdoor_scenes,body_parts,2200,0,4,1
143,38808,0,144,2,2,0,no_gain3,gain5,A,G,37,39,objects,objects,39,28,Stimuli/Experimental_stims/objects/alexander-andrews-VLGWE_SumrA-unsplash.jpg,Stimuli/Experimental_stims/objects/charlesdeluvio-1-nx1QR5dTE-unsplash.jpg,0,1,951,0,unchosen,37,39,objects,objects,1800,0,4,1
144,38808,0,145,2,2,0,no_gain6,gain3,F,I,18,1,faces,outdoor_scenes,82,41,Stimuli/Experimental_stims/faces/jessica-radanavong-mrYkTuAesKE-unsplash.jpg,Stimuli/Experimental_stims/outdoor_scenes/ashim-d-silva-S2Q5mdOrrVc-unsplash.jpg,0,0,802,1,unchosen,1,18,outdoor_scenes,faces,1400,0,4,1
145,38808,0,146,2,2,0,no_gain2,gain3,C,I,2,26,outdoor_scenes,body_parts,90,25,Stimuli/Experimental_stims/outdoor_scenes/bruno-van-der-kraan-qez8mNJ3ilU-unsplash.jpg,Stimuli/Experimental_stims/body_parts/engin-akyurt-x_3gyC42btc-unsplash.jpg,0,1,953,0,chosen,2,26,outdoor_scenes,body_parts,1800,0,4,1
146,38808,0,147,2,2,1,gain3,no_gain2,I,C,1,24,outdoor_scenes,body_parts,41,44,Stimuli/Experimental_stims/outdoor_scenes/ashim-d-silva-S2Q5mdOrrVc-unsplash.jpg,Stimuli/Experimental_stims/body_parts/clay-banks-LjqARJaJotc-unsplash.jpg,0,1,1042,1,unchosen,1,24,outdoor_scenes,body_parts,1300,0,4,1
147,38808,0,148,2,2,1,gain1,no_gain6,L,F,16,18,faces,faces,22,82,Stimuli/Experimental_stims/faces/freddy-kearney-o-ioeoATbIM-unsplash.jpg,Stimuli/Experimental_stims/faces/jessica-radanavong-mrYkTuAesKE-unsplash.jpg,0,1,990,1,unchosen,16,18,faces,faces,3600,1,4,1
148,38808,0,149,3,3,1,gain3,no_gain6,I,F,1,18,outdoor_scenes,faces,41,82,Stimuli/Experimental_stims/outdoor_scenes/ashim-d-silva-S2Q5mdOrrVc-unsplash.jpg,Stimuli/Experimental_stims/faces/jessica-radanavong-mrYkTuAesKE-unsplash.jpg,0,1,1142,1,unchosen,1,18,outdoor_scenes,faces,1200,0,5,1
149,38808,0,150,3,3,1,gain3,no_gain3,I,A,26,7,body_parts,outdoor_scenes,25,28,Stimuli/Experimental_stims/body_parts/engin-akyurt-x_3gyC42btc-unsplash.jpg,Stimuli/Experimental_stims/outdoor_scenes/petr-vysohlid-9fqwGqGLUxc-unsplash.jpg,0,0,877,0,chosen,7,26,outdoor_scenes,body_parts,1100,0,5,1
150,38808,0,151,3,3,1,gain1,no_gain4,L,H,29,6,body_parts,outdoor_scenes,29,8,Stimuli/Experimental_stims/body_parts/manuel-schinner-ZwjFuJ7ebpk-unsplash.jpg,Stimuli/Experimental_stims/outdoor_scenes/meng-ji-8BH_M-53CyA-unsplash.jpg,0,0,1147,0,chosen,6,29,outdoor_scenes,body_parts,1100,0,5,1
151,38808,0,152,3,3,1,gain5,no_gain6,G,F,39,18,objects,faces,28,82,Stimuli/Experimental_stims/objects/charlesdeluvio-1-nx1QR5dTE-unsplash.jpg,Stimuli/Experimental_stims/faces/jessica-radanavong-mrYkTuAesKE-unsplash.jpg,0,0,1226,0,unchosen,18,39,faces,objects,1300,0,5,1
152,38808,0,153,3,3,1,gain2,no_gain6,E,F,33,35,body_parts,body_parts,90,33,Stimuli/Experimental_stims/body_parts/tucker-good-36skLT5jZcc-unsplash.jpg,Stimuli/Experimental_stims/body_parts/wc-so-KH4AAPjb-tI-unsplash.jpg,0,1,1229,1,chosen,33,35,body_parts,body_parts,3300,1,5,1
153,38808,0,154,3,3,1,gain6,no_gain6,B,F,5,35,outdoor_scenes,body_parts,67,33,Stimuli/Experimental_stims/outdoor_scenes/jeff-king-bJHWJeiHfHc-unsplash.jpg,Stimuli/Experimental_stims/body_parts/wc-so-KH4AAPjb-tI-unsplash.jpg,0,0,0,0,chosen,35,5,body_parts,outdoor_scenes,1000,0,5,1
154,38808,0,155,3,3,1,gain1,no_gain2,L,C,16,24,faces,body_parts,22,44,Stimuli/Experimental_stims/faces/freddy-kearney-o-ioeoATbIM-unsplash.jpg,Stimuli/Experimental_stims/body_parts/clay-banks-LjqARJaJotc-unsplash.jpg,1,NaN,,NaN,unchosen,NaN,NaN,NaN,NaN,1300,0,5,1
155,38808,0,156,3,3,0,no_gain4,gain3,H,I,6,26,outdoor_scenes,body_parts,8,25,Stimuli/Experimental_stims/outdoor_scenes/meng-ji-8BH_M-53CyA-unsplash.jpg,Stimuli/Experimental_stims/body_parts/engin-akyurt-x_3gyC42btc-unsplash.jpg,0,1,823,0,chosen,6,26,outdoor_scenes,body_parts,1300,0,5,1
156,38808,0,157,3,3,0,no_gain4,gain4,H,J,6,38,outdoor_scenes,objects,8,75,Stimuli/Experimental_stims/outdoor_scenes/meng-ji-8BH_M-53CyA-unsplash.jpg,Stimuli/Experimental_stims/objects/art-lasovsky-8XddFc6NkBY-unsplash.jpg,0,0,847,1,chosen,38,6,objects,outdoor_scenes,1600,0,5,1
157,38808,0,158,3,3,1,gain6,no_gain3,B,A,5,7,outdoor_scenes,outdoor_scenes,67,28,Stimuli/Experimental_stims/outdoor_scenes/jeff-king-bJHWJeiHfHc-unsplash.jpg,Stimuli/Experimental_stims/outdoor_scenes/petr-vysohlid-9fqwGqGLUxc-unsplash.jpg,0,1,900,1,chosen,5,7,outdoor_scenes,outdoor_scenes,1400,0,5,1
158,38808,0,159,3,3,0,no_gain1,gain2,K,E,46,42,objects,objects,79,18,Stimuli/Experimental_stims/objects/mockup-graphics-PNsj6RiHAF4-unsplash.jpg,Stimuli/Experimental_stims/objects/jess-bailey-nOeVi8DsN8U-unsplash.jpg,1,NaN,,NaN,unchosen,NaN,NaN,NaN,NaN,2100,0,5,1
159,38808,0,160,3,3,0,no_gain4,gain3,H,I,22,1,faces,outdoor_scenes,4,41,Stimuli/Experimental_stims/faces/ravi-patel-VMGAbeeJTKo-unsplash.jpg,Stimuli/Experimental_stims/outdoor_scenes/ashim-d-silva-S2Q5mdOrrVc-unsplash.jpg,0,1,1197,0,unchosen,22,1,faces,outdoor_scenes,1200,0,5,1
160,38808,0,161,3,3,0,no_gain1,gain3,K,I,32,26,body_parts,body_parts,13,25,Stimuli/Experimental_stims/body_parts/towfiqu-barbhuiya-3AsiVDsZnHg-unsplash.jpg,Stimuli/Experimental_stims/body_parts/engin-akyurt-x_3gyC42btc-unsplash.jpg,0,0,1237,1,chosen,26,32,body_parts,body_parts,4100,1,5,1
161,38808,0,162,3,3,0,no_gain1,gain4,K,J,46,17,objects,faces,79,6,Stimuli/Experimental_stims/objects/mockup-graphics-PNsj6RiHAF4-unsplash.jpg,Stimuli/Experimental_stims/faces/good-faces-xmSWVeGEnJw-unsplash.jpg,0,1,497,0,unchosen,46,17,objects,faces,1900,0,5,1
162,38808,0,163,3,3,1,gain5,no_gain5,G,D,8,40,outdoor_scenes,objects,76,28,Stimuli/Experimental_stims/outdoor_scenes/samsommer-vddccTqwal8-unsplash.jpg,Stimuli/Experimental_stims/objects/fabian-blank-pElSkGRA2NU-unsplash.jpg,0,1,985,1,chosen,8,40,outdoor_scenes,objects,2000,0,5,1
163,38808,0,164,3,3,0,no_gain2,gain5,C,G,24,39,body_parts,objects,44,28,Stimuli/Experimental_stims/body_parts/clay-banks-LjqARJaJotc-unsplash.jpg,Stimuli/Experimental_stims/objects/charlesdeluvio-1-nx1QR5dTE-unsplash.jpg,0,0,333,1,unchosen,39,24,objects,body_parts,2600,0,5,1
164,38808,0,165,3,3,1,gain1,no_gain4,L,H,16,22,faces,faces,22,4,Stimuli/Experimental_stims/faces/freddy-kearney-o-ioeoATbIM-unsplash.jpg,Stimuli/Experimental_stims/faces/ravi-patel-VMGAbeeJTKo-unsplash.jpg,0,1,496,1,unchosen,16,22,faces,faces,1100,0,5,1
165,38808,0,166,3,3,0,no_gain4,gain5,H,G,6,8,outdoor_scenes,outdoor_scenes,8,76,Stimuli/Experimental_stims/outdoor_scenes/meng-ji-8BH_M-53CyA-unsplash.jpg,Stimuli/Experimental_stims/outdoor_scenes/samsommer-vddccTqwal8-unsplash.jpg,0,0,953,1,chosen,8,6,outdoor_scenes,outdoor_scenes,4400,1,5,1
166,38808,0,167,3,3,0,no_gain5,gain4,D,J,20,17,faces,faces,43,6,Stimuli/Experimental_stims/faces/justin-chen-J7Cf1Gch49E-unsplash.jpg,Stimuli/Experimental_stims/faces/good-faces-xmSWVeGEnJw-unsplash.jpg,0,1,832,0,unchosen,20,17,faces,faces,1200,0,5,1
167,38808,0,168,3,3,0,no_gain5,gain6,D,B,40,5,objects,outdoor_scenes,28,67,Stimuli/Experimental_stims/objects/fabian-blank-pElSkGRA2NU-unsplash.jpg,Stimuli/Experimental_stims/outdoor_scenes/jeff-king-bJHWJeiHfHc-unsplash.jpg,0,0,1006,1,chosen,5,40,outdoor_scenes,objects,1100,0,5,1
168,38808,0,169,3,3,1,gain1,no_gain6,L,F,16,18,faces,faces,22,82,Stimuli/Experimental_stims/faces/freddy-kearney-o-ioeoATbIM-unsplash.jpg,Stimuli/Experimental_stims/faces/jessica-radanavong-mrYkTuAesKE-unsplash.jpg,0,1,1056,1,unchosen,16,18,faces,faces,1700,0,5,1
169,38808,0,170,3,3,1,gain2,no_gain2,E,C,33,2,body_parts,outdoor_scenes,90,90,Stimuli/Experimental_stims/body_parts/tucker-good-36skLT5jZcc-unsplash.jpg,Stimuli/Experimental_stims/outdoor_scenes/bruno-van-der-kraan-qez8mNJ3ilU-unsplash.jpg,0,0,757,0,chosen,2,33,outdoor_scenes,body_parts,1100,0,5,1
170,38808,0,171,3,3,0,no_gain2,gain4,C,J,24,17,body_parts,faces,44,6,Stimuli/Experimental_stims/body_parts/clay-banks-LjqARJaJotc-unsplash.jpg,Stimuli/Experimental_stims/faces/good-faces-xmSWVeGEnJw-unsplash.jpg,0,1,983,0,unchosen,24,17,body_parts,faces,3300,1,5,1
171,38808,0,172,3,3,0,no_gain3,gain2,A,E,7,33,outdoor_scenes,body_parts,28,90,Stimuli/Experimental_stims/outdoor_scenes/petr-vysohlid-9fqwGqGLUxc-unsplash.jpg,Stimuli/Experimental_stims/body_parts/tucker-good-36skLT5jZcc-unsplash.jpg,0,1,822,0,chosen,7,33,outdoor_scenes,body_parts,2800,0,5,1
172,38808,0,173,3,3,0,no_gain4,gain2,H,E,6,33,outdoor_scenes,body_parts,8,90,Stimuli/Experimental_stims/outdoor_scenes/meng-ji-8BH_M-53CyA-unsplash.jpg,Stimuli/Experimental_stims/body_parts/tucker-good-36skLT5jZcc-unsplash.jpg,0,1,822,0,chosen,6,33,outdoor_scenes,body_parts,1000,0,5,1
173,38808,0,174,3,3,0,no_gain1,gain6,K,B,46,12,objects,faces,79,24,Stimuli/Experimental_stims/objects/mockup-graphics-PNsj6RiHAF4-unsplash.jpg,Stimuli/Experimental_stims/faces/aiony-haust-jmATI5Q_YgY-unsplash.jpg,1,NaN,,NaN,unchosen,NaN,NaN,NaN,NaN,3100,0,5,1
174,38808,0,175,3,3,1,gain4,no_gain1,J,K,38,32,objects,body_parts,75,13,Stimuli/Experimental_stims/objects/art-lasovsky-8XddFc6NkBY-unsplash.jpg,Stimuli/Experimental_stims/body_parts/towfiqu-barbhuiya-3AsiVDsZnHg-unsplash.jpg,0,0,920,0,chosen,32,38,body_parts,objects,2000,0,5,1
175,38808,0,176,3,3,0,no_gain6,gain6,F,B,18,12,faces,faces,82,24,Stimuli/Experimental_stims/faces/jessica-radanavong-mrYkTuAesKE-unsplash.jpg,Stimuli/Experimental_stims/faces/aiony-haust-jmATI5Q_YgY-unsplash.jpg,0,1,861,0,unchosen,18,12,faces,faces,2300,0,5,1
176,38808,0,177,3,3,0,no_gain2,gain5,C,G,2,8,outdoor_scenes,outdoor_scenes,90,76,Stimuli/Experimental_stims/outdoor_scenes/bruno-van-der-kraan-qez8mNJ3ilU-unsplash.jpg,Stimuli/Experimental_stims/outdoor_scenes/samsommer-vddccTqwal8-unsplash.jpg,0,0,796,1,chosen,8,2,outdoor_scenes,outdoor_scenes,1500,0,5,1
177,38808,0,178,3,3,0,no_gain5,gain2,D,E,20,42,faces,objects,43,18,Stimuli/Experimental_stims/faces/justin-chen-J7Cf1Gch49E-unsplash.jpg,Stimuli/Experimental_stims/objects/jess-bailey-nOeVi8DsN8U-unsplash.jpg,0,1,846,0,unchosen,20,42,faces,objects,1600,0,5,1
178,38808,0,179,3,3,1,gain6,no_gain1,B,K,5,32,outdoor_scenes,body_parts,67,13,Stimuli/Experimental_stims/outdoor_scenes/jeff-king-bJHWJeiHfHc-unsplash.jpg,Stimuli/Experimental_stims/body_parts/towfiqu-barbhuiya-3AsiVDsZnHg-unsplash.jpg,0,1,824,1,chosen,5,32,outdoor_scenes,body_parts,4200,1,5,1
179,38808,0,180,3,3,0,no_gain5,gain4,D,J,40,38,objects,objects,28,75,Stimuli/Experimental_stims/objects/fabian-blank-pElSkGRA2NU-unsplash.jpg,Stimuli/Experimental_stims/objects/art-lasovsky-8XddFc6NkBY-unsplash.jpg,0,1,714,0,chosen,40,38,objects,objects,1000,0,5,1
180,38808,0,181,3,3,0,no_gain6,gain3,F,I,35,26,body_parts,body_parts,33,25,Stimuli/Experimental_stims/body_parts/wc-so-KH4AAPjb-tI-unsplash.jpg,Stimuli/Experimental_stims/body_parts/engin-akyurt-x_3gyC42btc-unsplash.jpg,0,0,1259,1,chosen,26,35,body_parts,body_parts,2000,0,5,1
181,38808,0,182,3,3,1,gain4,no_gain3,J,A,17,37,faces,objects,6,39,Stimuli/Experimental_stims/faces/good-faces-xmSWVeGEnJw-unsplash.jpg,Stimuli/Experimental_stims/objects/alexander-andrews-VLGWE_SumrA-unsplash.jpg,0,1,1131,1,unchosen,17,37,faces,objects,1700,0,5,1
182,38808,0,183,3,3,1,gain2,no_gain6,E,F,42,18,objects,faces,18,82,Stimuli/Experimental_stims/objects/jess-bailey-nOeVi8DsN8U-unsplash.jpg,Stimuli/Experimental_stims/faces/jessica-radanavong-mrYkTuAesKE-unsplash.jpg,0,0,665,0,unchosen,18,42,faces,objects,2300,0,5,1
183,38808,0,184,3,3,1,gain4,no_gain4,J,H,17,22,faces,faces,6,4,Stimuli/Experimental_stims/faces/good-faces-xmSWVeGEnJw-unsplash.jpg,Stimuli/Experimental_stims/faces/ravi-patel-VMGAbeeJTKo-unsplash.jpg,0,1,338,1,unchosen,17,22,faces,faces,3300,1,5,1
184,38808,0,185,3,3,0,no_gain1,gain2,K,E,32,33,body_parts,body_parts,13,90,Stimuli/Experimental_stims/body_parts/towfiqu-barbhuiya-3AsiVDsZnHg-unsplash.jpg,Stimuli/Experimental_stims/body_parts/tucker-good-36skLT5jZcc-unsplash.jpg,0,0,137,1,chosen,33,32,body_parts,body_parts,1100,0,5,1
185,38808,0,186,3,3,0,no_gain4,gain6,H,B,6,5,outdoor_scenes,outdoor_scenes,8,67,Stimuli/Experimental_stims/outdoor_scenes/meng-ji-8BH_M-53CyA-unsplash.jpg,Stimuli/Experimental_stims/outdoor_scenes/jeff-king-bJHWJeiHfHc-unsplash.jpg,0,1,1037,0,chosen,6,5,outdoor_scenes,outdoor_scenes,1900,0,5,1
186,38808,0,187,3,3,1,gain3,no_gain5,I,D,26,40,body_parts,objects,25,28,Stimuli/Experimental_stims/body_parts/engin-akyurt-x_3gyC42btc-unsplash.jpg,Stimuli/Experimental_stims/objects/fabian-blank-pElSkGRA2NU-unsplash.jpg,0,0,1055,0,chosen,40,26,objects,body_parts,2400,0,5,1
187,38808,0,188,3,3,0,no_gain2,gain6,C,B,24,12,body_parts,faces,44,24,Stimuli/Experimental_stims/body_parts/clay-banks-LjqARJaJotc-unsplash.jpg,Stimuli/Experimental_stims/faces/aiony-haust-jmATI5Q_YgY-unsplash.jpg,0,1,500,0,unchosen,24,12,body_parts,faces,1900,0,5,1
188,38808,0,189,3,3,0,no_gain1,gain1,K,L,46,16,objects,faces,79,22,Stimuli/Experimental_stims/objects/mockup-graphics-PNsj6RiHAF4-unsplash.jpg,Stimuli/Experimental_stims/faces/freddy-kearney-o-ioeoATbIM-unsplash.jpg,0,0,188,1,unchosen,16,46,faces,objects,3300,1,5,1
189,38808,0,190,3,3,0,no_gain3,gain5,A,G,37,39,objects,objects,39,28,Stimuli/Experimental_stims/objects/alexander-andrews-VLGWE_SumrA-unsplash.jpg,Stimuli/Experimental_stims/objects/charlesdeluvio-1-nx1QR5dTE-unsplash.jpg,0,1,1,0,unchosen,37,39,objects,objects,1200,0,5,1
190,38808,0,191,3,3,1,gain1,no_gain1,L,K,29,32,body_parts,body_parts,29,13,Stimuli/Experimental_stims/body_parts/manuel-schinner-ZwjFuJ7ebpk-unsplash.jpg,Stimuli/Experimental_stims/body_parts/towfiqu-barbhuiya-3AsiVDsZnHg-unsplash.jpg,0,0,269,0,chosen,32,29,body_parts,body_parts,1100,0,5,1
191,38808,0,192,3,3,0,no_gain4,gain5,H,G,22,39,faces,objects,4,28,Stimuli/Experimental_stims/faces/ravi-patel-VMGAbeeJTKo-unsplash.jpg,Stimuli/Experimental_stims/objects/charlesdeluvio-1-nx1QR5dTE-unsplash.jpg,0,0,676,1,unchosen,39,22,objects,faces,1400,0,5,1
192,38808,0,193,3,3,1,gain3,no_gain1,I,K,1,46,outdoor_scenes,objects,41,79,Stimuli/Experimental_stims/outdoor_scenes/ashim-d-silva-S2Q5mdOrrVc-unsplash.jpg,Stimuli/Experimental_stims/objects/mockup-graphics-PNsj6RiHAF4-unsplash.jpg,0,0,198,0,unchosen,46,1,objects,outdoor_scenes,2600,0,5,1
193,38808,0,194,3,3,1,gain6,no_gain4,B,H,12,22,faces,faces,24,4,Stimuli/Experimental_stims/faces/aiony-haust-jmATI5Q_YgY-unsplash.jpg,Stimuli/Experimental_stims/faces/ravi-patel-VMGAbeeJTKo-unsplash.jpg,0,1,84,1,unchosen,12,22,faces,faces,1100,0,5,1
194,38808,0,195,3,3,1,gain1,no_gain3,L,A,29,7,body_parts,outdoor_scenes,29,28,Stimuli/Experimental_stims/body_parts/manuel-schinner-ZwjFuJ7ebpk-unsplash.jpg,Stimuli/Experimental_stims/outdoor_scenes/petr-vysohlid-9fqwGqGLUxc-unsplash.jpg,0,0,178,0,chosen,7,29,outdoor_scenes,body_parts,4100,1,5,1
195,38808,0,196,3,3,1,gain6,no_gain3,B,A,12,37,faces,objects,24,39,Stimuli/Experimental_stims/faces/aiony-haust-jmATI5Q_YgY-unsplash.jpg,Stimuli/Experimental_stims/objects/alexander-andrews-VLGWE_SumrA-unsplash.jpg,0,1,1,1,unchosen,12,37,faces,objects,1000,0,5,1
196,38808,0,197,3,3,0,no_gain3,gain4,A,J,7,38,outdoor_scenes,objects,28,75,Stimuli/Experimental_stims/outdoor_scenes/petr-vysohlid-9fqwGqGLUxc-unsplash.jpg,Stimuli/Experimental_stims/objects/art-lasovsky-8XddFc6NkBY-unsplash.jpg,0,0,561,1,chosen,38,7,objects,outdoor_scenes,1800,0,5,1
197,38808,0,198,3,3,1,gain1,no_gain3,L,A,16,37,faces,objects,22,39,Stimuli/Experimental_stims/faces/freddy-kearney-o-ioeoATbIM-unsplash.jpg,Stimuli/Experimental_stims/objects/alexander-andrews-VLGWE_SumrA-unsplash.jpg,0,1,590,1,unchosen,16,37,faces,objects,1600,0,5,1
198,38808,0,199,3,3,1,gain4,no_gain6,J,F,17,18,faces,faces,6,82,Stimuli/Experimental_stims/faces/good-faces-xmSWVeGEnJw-unsplash.jpg,Stimuli/Experimental_stims/faces/jessica-radanavong-mrYkTuAesKE-unsplash.jpg,0,0,595,0,unchosen,18,17,faces,faces,2100,0,5,1
199,38808,0,200,3,3,1,gain2,no_gain4,E,H,42,22,objects,faces,18,4,Stimuli/Experimental_stims/objects/jess-bailey-nOeVi8DsN8U-unsplash.jpg,Stimuli/Experimental_stims/faces/ravi-patel-VMGAbeeJTKo-unsplash.jpg,0,1,696,1,unchosen,42,22,objects,faces,1700,0,5,1
200,38808,0,201,3,3,1,gain5,no_gain3,G,A,8,7,outdoor_scenes,outdoor_scenes,76,28,Stimuli/Experimental_stims/outdoor_scenes/samsommer-vddccTqwal8-unsplash.jpg,Stimuli/Experimental_stims/outdoor_scenes/petr-vysohlid-9fqwGqGLUxc-unsplash.jpg,0,0,1036,0,chosen,7,8,outdoor_scenes,outdoor_scenes,3200,1,5,1
201,38808,0,202,3,3,0,no_gain6,gain4,F,J,35,38,body_parts,objects,33,75,Stimuli/Experimental_stims/body_parts/wc-so-KH4AAPjb-tI-unsplash.jpg,Stimuli/Experimental_stims/objects/art-lasovsky-8XddFc6NkBY-unsplash.jpg,0,1,1074,0,chosen,35,38,body_parts,objects,1100,0,5,1
202,38808,0,203,3,3,1,gain2,no_gain2,E,C,42,24,objects,body_parts,18,44,Stimuli/Experimental_stims/objects/jess-bailey-nOeVi8DsN8U-unsplash.jpg,Stimuli/Experimental_stims/body_parts/clay-banks-LjqARJaJotc-unsplash.jpg,0,0,750,0,unchosen,24,42,body_parts,objects,2800,0,5,1
203,38808,0,204,3,3,1,gain2,no_gain5,E,D,33,40,body_parts,objects,90,28,Stimuli/Experimental_stims/body_parts/tucker-good-36skLT5jZcc-unsplash.jpg,Stimuli/Experimental_stims/objects/fabian-blank-pElSkGRA2NU-unsplash.jpg,0,1,841,1,chosen,33,40,body_parts,objects,1400,0,5,1
204,38808,0,205,3,3,1,gain1,no_gain2,L,C,29,2,body_parts,outdoor_scenes,29,90,Stimuli/Experimental_stims/body_parts/manuel-schinner-ZwjFuJ7ebpk-unsplash.jpg,Stimuli/Experimental_stims/outdoor_scenes/bruno-van-der-kraan-qez8mNJ3ilU-unsplash.jpg,0,1,1190,1,chosen,29,2,body_parts,outdoor_scenes,2200,0,5,1
205,38808,0,206,3,3,1,gain3,no_gain3,I,A,1,37,outdoor_scenes,objects,41,39,Stimuli/Experimental_stims/outdoor_scenes/ashim-d-silva-S2Q5mdOrrVc-unsplash.jpg,Stimuli/Experimental_stims/objects/alexander-andrews-VLGWE_SumrA-unsplash.jpg,0,0,567,0,unchosen,37,1,objects,outdoor_scenes,1200,0,5,1
206,38808,0,207,3,3,0,no_gain6,gain5,F,G,35,8,body_parts,outdoor_scenes,33,76,Stimuli/Experimental_stims/body_parts/wc-so-KH4AAPjb-tI-unsplash.jpg,Stimuli/Experimental_stims/outdoor_scenes/samsommer-vddccTqwal8-unsplash.jpg,0,1,620,0,chosen,35,8,body_parts,outdoor_scenes,2100,0,5,1
207,38808,0,208,3,3,1,gain1,no_gain5,L,D,29,40,body_parts,objects,29,28,Stimuli/Experimental_stims/body_parts/manuel-schinner-ZwjFuJ7ebpk-unsplash.jpg,Stimuli/Experimental_stims/objects/fabian-blank-pElSkGRA2NU-unsplash.jpg,0,0,553,0,chosen,40,29,objects,body_parts,2600,0,5,1
208,38808,0,209,3,3,0,no_gain2,gain3,C,I,24,1,body_parts,outdoor_scenes,44,41,Stimuli/Experimental_stims/body_parts/clay-banks-LjqARJaJotc-unsplash.jpg,Stimuli/Experimental_stims/outdoor_scenes/ashim-d-silva-S2Q5mdOrrVc-unsplash.jpg,0,1,517,0,unchosen,24,1,body_parts,outdoor_scenes,3800,1,5,1
209,38808,0,210,3,3,0,no_gain6,gain1,F,L,35,29,body_parts,body_parts,33,29,Stimuli/Experimental_stims/body_parts/wc-so-KH4AAPjb-tI-unsplash.jpg,Stimuli/Experimental_stims/body_parts/manuel-schinner-ZwjFuJ7ebpk-unsplash.jpg,0,0,204,1,chosen,29,35,body_parts,body_parts,2300,0,5,1
210,38808,0,211,3,3,1,gain3,no_gain2,I,C,26,2,body_parts,outdoor_scenes,25,90,Stimuli/Experimental_stims/body_parts/engin-akyurt-x_3gyC42btc-unsplash.jpg,Stimuli/Experimental_stims/outdoor_scenes/bruno-van-der-kraan-qez8mNJ3ilU-unsplash.jpg,0,1,305,1,chosen,26,2,body_parts,outdoor_scenes,1500,0,5,1
211,38808,0,212,3,3,0,no_gain3,gain2,A,E,37,42,objects,objects,39,18,Stimuli/Experimental_stims/objects/alexander-andrews-VLGWE_SumrA-unsplash.jpg,Stimuli/Experimental_stims/objects/jess-bailey-nOeVi8DsN8U-unsplash.jpg,0,0,145,1,unchosen,42,37,objects,objects,1700,0,5,1
212,38808,0,213,3,3,1,gain5,no_gain5,G,D,39,20,objects,faces,28,43,Stimuli/Experimental_stims/objects/charlesdeluvio-1-nx1QR5dTE-unsplash.jpg,Stimuli/Experimental_stims/faces/justin-chen-J7Cf1Gch49E-unsplash.jpg,0,1,611,1,unchosen,39,20,objects,faces,1000,0,5,1
213,38808,0,214,3,3,1,gain6,no_gain5,B,D,12,20,faces,faces,24,43,Stimuli/Experimental_stims/faces/aiony-haust-jmATI5Q_YgY-unsplash.jpg,Stimuli/Experimental_stims/faces/justin-chen-J7Cf1Gch49E-unsplash.jpg,0,0,632,0,unchosen,20,12,faces,faces,2800,0,5,1
214,38808,0,215,3,3,0,no_gain1,gain5,K,G,32,8,body_parts,outdoor_scenes,13,76,Stimuli/Experimental_stims/body_parts/towfiqu-barbhuiya-3AsiVDsZnHg-unsplash.jpg,Stimuli/Experimental_stims/outdoor_scenes/samsommer-vddccTqwal8-unsplash.jpg,0,0,588,1,chosen,8,32,outdoor_scenes,body_parts,2400,0,5,1
215,38808,0,216,3,3,0,no_gain1,gain5,K,G,46,39,objects,objects,79,28,Stimuli/Experimental_stims/objects/mockup-graphics-PNsj6RiHAF4-unsplash.jpg,Stimuli/Experimental_stims/objects/charlesdeluvio-1-nx1QR5dTE-unsplash.jpg,0,1,1142,0,unchosen,46,39,objects,objects,3800,1,5,1
216,38808,0,217,3,3,0,no_gain5,gain3,D,I,20,1,faces,outdoor_scenes,43,41,Stimuli/Experimental_stims/faces/justin-chen-J7Cf1Gch49E-unsplash.jpg,Stimuli/Experimental_stims/outdoor_scenes/ashim-d-silva-S2Q5mdOrrVc-unsplash.jpg,0,0,129,1,unchosen,1,20,outdoor_scenes,faces,1500,0,5,1
217,38808,0,218,3,3,0,no_gain5,gain1,D,L,20,16,faces,faces,43,22,Stimuli/Experimental_stims/faces/justin-chen-J7Cf1Gch49E-unsplash.jpg,Stimuli/Experimental_stims/faces/freddy-kearney-o-ioeoATbIM-unsplash.jpg,0,1,69,0,unchosen,20,16,faces,faces,1100,0,5,1
218,38808,0,219,3,3,1,gain4,no_gain2,J,C,38,2,objects,outdoor_scenes,75,90,Stimuli/Experimental_stims/objects/art-lasovsky-8XddFc6NkBY-unsplash.jpg,Stimuli/Experimental_stims/outdoor_scenes/bruno-van-der-kraan-qez8mNJ3ilU-unsplash.jpg,0,0,1100,0,chosen,2,38,outdoor_scenes,objects,1500,0,5,1
219,38808,0,220,3,3,0,no_gain2,gain6,C,B,2,5,outdoor_scenes,outdoor_scenes,90,67,Stimuli/Experimental_stims/outdoor_scenes/bruno-van-der-kraan-qez8mNJ3ilU-unsplash.jpg,Stimuli/Experimental_stims/outdoor_scenes/jeff-king-bJHWJeiHfHc-unsplash.jpg,0,1,111,0,chosen,2,5,outdoor_scenes,outdoor_scenes,2500,0,5,1
220,38808,0,221,4,4,0,no_gain5,gain1,D,L,20,16,faces,faces,43,22,Stimuli/Experimental_stims/faces/justin-chen-J7Cf1Gch49E-unsplash.jpg,Stimuli/Experimental_stims/faces/freddy-kearney-o-ioeoATbIM-unsplash.jpg,0,1,848,0,unchosen,20,16,faces,faces,3400,1,3,1
221,38808,0,222,4,4,0,no_gain5,gain4,D,J,40,38,objects,objects,28,75,Stimuli/Experimental_stims/objects/fabian-blank-pElSkGRA2NU-unsplash.jpg,Stimuli/Experimental_stims/objects/art-lasovsky-8XddFc6NkBY-unsplash.jpg,0,0,426,1,chosen,38,40,objects,objects,1500,0,3,1
222,38808,0,223,4,4,0,no_gain2,gain3,C,I,24,1,body_parts,outdoor_scenes,44,41,Stimuli/Experimental_stims/body_parts/clay-banks-LjqARJaJotc-unsplash.jpg,Stimuli/Experimental_stims/outdoor_scenes/ashim-d-silva-S2Q5mdOrrVc-unsplash.jpg,0,0,189,1,unchosen,1,24,outdoor_scenes,body_parts,2000,0,3,1
223,38808,0,224,4,4,0,no_gain4,gain3,H,I,22,1,faces,outdoor_scenes,4,41,Stimuli/Experimental_stims/faces/ravi-patel-VMGAbeeJTKo-unsplash.jpg,Stimuli/Experimental_stims/outdoor_scenes/ashim-d-silva-S2Q5mdOrrVc-unsplash.jpg,0,1,296,0,unchosen,22,1,faces,outdoor_scenes,1100,0,3,1
224,38808,0,225,4,4,0,no_gain1,gain6,K,B,46,12,objects,faces,79,24,Stimuli/Experimental_stims/objects/mockup-graphics-PNsj6RiHAF4-unsplash.jpg,Stimuli/Experimental_stims/faces/aiony-haust-jmATI5Q_YgY-unsplash.jpg,0,1,287,0,unchosen,46,12,objects,faces,2700,0,3,1
225,38808,0,226,4,4,0,no_gain4,gain2,H,E,6,33,outdoor_scenes,body_parts,8,90,Stimuli/Experimental_stims/outdoor_scenes/meng-ji-8BH_M-53CyA-unsplash.jpg,Stimuli/Experimental_stims/body_parts/tucker-good-36skLT5jZcc-unsplash.jpg,0,1,310,0,chosen,6,33,outdoor_scenes,body_parts,1700,0,3,1
226,38808,0,227,4,4,0,no_gain1,gain1,K,L,32,29,body_parts,body_parts,13,29,Stimuli/Experimental_stims/body_parts/towfiqu-barbhuiya-3AsiVDsZnHg-unsplash.jpg,Stimuli/Experimental_stims/body_parts/manuel-schinner-ZwjFuJ7ebpk-unsplash.jpg,0,1,629,0,chosen,32,29,body_parts,body_parts,3500,1,3,1
227,38808,0,228,4,4,0,no_gain3,gain3,A,I,37,1,objects,outdoor_scenes,39,41,Stimuli/Experimental_stims/objects/alexander-andrews-VLGWE_SumrA-unsplash.jpg,Stimuli/Experimental_stims/outdoor_scenes/ashim-d-silva-S2Q5mdOrrVc-unsplash.jpg,0,0,264,1,unchosen,1,37,outdoor_scenes,objects,2700,0,3,1
228,38808,0,229,4,4,1,gain4,no_gain5,J,D,17,20,faces,faces,6,43,Stimuli/Experimental_stims/faces/good-faces-xmSWVeGEnJw-unsplash.jpg,Stimuli/Experimental_stims/faces/justin-chen-J7Cf1Gch49E-unsplash.jpg,0,1,102,1,unchosen,17,20,faces,faces,1500,0,3,1
229,38808,0,230,4,4,0,no_gain6,gain1,F,L,35,29,body_parts,body_parts,33,29,Stimuli/Experimental_stims/body_parts/wc-so-KH4AAPjb-tI-unsplash.jpg,Stimuli/Experimental_stims/body_parts/manuel-schinner-ZwjFuJ7ebpk-unsplash.jpg,0,0,554,1,chosen,29,35,body_parts,body_parts,1700,0,3,1
230,38808,0,231,4,4,0,no_gain1,gain2,K,E,46,42,objects,objects,79,18,Stimuli/Experimental_stims/objects/mockup-graphics-PNsj6RiHAF4-unsplash.jpg,Stimuli/Experimental_stims/objects/jess-bailey-nOeVi8DsN8U-unsplash.jpg,0,0,556,1,unchosen,42,46,objects,objects,2300,0,3,1
231,38808,0,232,4,4,0,no_gain4,gain6,H,B,6,5,outdoor_scenes,outdoor_scenes,8,67,Stimuli/Experimental_stims/outdoor_scenes/meng-ji-8BH_M-53CyA-unsplash.jpg,Stimuli/Experimental_stims/outdoor_scenes/jeff-king-bJHWJeiHfHc-unsplash.jpg,0,1,175,0,chosen,6,5,outdoor_scenes,outdoor_scenes,3100,1,3,1
232,38808,0,233,4,4,1,gain5,no_gain3,G,A,8,7,outdoor_scenes,outdoor_scenes,76,28,Stimuli/Experimental_stims/outdoor_scenes/samsommer-vddccTqwal8-unsplash.jpg,Stimuli/Experimental_stims/outdoor_scenes/petr-vysohlid-9fqwGqGLUxc-unsplash.jpg,0,0,313,0,chosen,7,8,outdoor_scenes,outdoor_scenes,1300,0,3,1
233,38808,0,234,4,4,1,gain1,no_gain3,L,A,29,7,body_parts,outdoor_scenes,29,28,Stimuli/Experimental_stims/body_parts/manuel-schinner-ZwjFuJ7ebpk-unsplash.jpg,Stimuli/Experimental_stims/outdoor_scenes/petr-vysohlid-9fqwGqGLUxc-unsplash.jpg,0,1,773,1,chosen,29,7,body_parts,outdoor_scenes,1400,0,3,1
234,38808,0,235,4,4,1,gain2,no_gain4,E,H,42,22,objects,faces,18,4,Stimuli/Experimental_stims/objects/jess-bailey-nOeVi8DsN8U-unsplash.jpg,Stimuli/Experimental_stims/faces/ravi-patel-VMGAbeeJTKo-unsplash.jpg,1,NaN,,NaN,unchosen,NaN,NaN,NaN,NaN,2500,0,3,1
235,38808,0,236,4,4,1,gain2,no_gain5,E,D,42,20,objects,faces,18,43,Stimuli/Experimental_stims/objects/jess-bailey-nOeVi8DsN8U-unsplash.jpg,Stimuli/Experimental_stims/faces/justin-chen-J7Cf1Gch49E-unsplash.jpg,0,0,33,0,unchosen,20,42,faces,objects,1500,0,3,1
236,38808,0,237,4,4,1,gain4,no_gain1,J,K,17,46,faces,objects,6,79,Stimuli/Experimental_stims/faces/good-faces-xmSWVeGEnJw-unsplash.jpg,Stimuli/Experimental_stims/objects/mockup-graphics-PNsj6RiHAF4-unsplash.jpg,0,1,1003,1,unchosen,17,46,faces,objects,1900,0,3,1
237,38808,0,238,4,4,1,gain6,no_gain3,B,A,5,7,outdoor_scenes,outdoor_scenes,67,28,Stimuli/Experimental_stims/outdoor_scenes/jeff-king-bJHWJeiHfHc-unsplash.jpg,Stimuli/Experimental_stims/outdoor_scenes/petr-vysohlid-9fqwGqGLUxc-unsplash.jpg,0,0,151,0,chosen,7,5,outdoor_scenes,outdoor_scenes,1200,0,3,1
238,38808,0,239,4,4,1,gain2,no_gain5,E,D,33,40,body_parts,objects,90,28,Stimuli/Experimental_stims/body_parts/tucker-good-36skLT5jZcc-unsplash.jpg,Stimuli/Experimental_stims/objects/fabian-blank-pElSkGRA2NU-unsplash.jpg,0,0,152,0,chosen,40,33,objects,body_parts,3500,1,3,1
239,38808,0,240,4,4,0,no_gain2,gain6,C,B,24,12,body_parts,faces,44,24,Stimuli/Experimental_stims/body_parts/clay-banks-LjqARJaJotc-unsplash.jpg,Stimuli/Experimental_stims/faces/aiony-haust-jmATI5Q_YgY-unsplash.jpg,0,1,353,0,unchosen,24,12,body_parts,faces,1500,0,3,1
240,38808,0,241,4,4,1,gain5,no_gain6,G,F,8,35,outdoor_scenes,body_parts,76,33,Stimuli/Experimental_stims/outdoor_scenes/samsommer-vddccTqwal8-unsplash.jpg,Stimuli/Experimental_stims/body_parts/wc-so-KH4AAPjb-tI-unsplash.jpg,0,0,404,0,chosen,35,8,body_parts,outdoor_scenes,2200,0,3,1
241,38808,0,242,4,4,1,gain6,no_gain2,B,C,5,2,outdoor_scenes,outdoor_scenes,67,90,Stimuli/Experimental_stims/outdoor_scenes/jeff-king-bJHWJeiHfHc-unsplash.jpg,Stimuli/Experimental_stims/outdoor_scenes/bruno-van-der-kraan-qez8mNJ3ilU-unsplash.jpg,0,1,526,1,chosen,5,2,outdoor_scenes,outdoor_scenes,1100,0,3,1
242,38808,0,243,4,4,0,no_gain3,gain2,A,E,7,33,outdoor_scenes,body_parts,28,90,Stimuli/Experimental_stims/outdoor_scenes/petr-vysohlid-9fqwGqGLUxc-unsplash.jpg,Stimuli/Experimental_stims/body_parts/tucker-good-36skLT5jZcc-unsplash.jpg,0,0,804,1,chosen,33,7,body_parts,outdoor_scenes,1300,0,3,1
243,38808,0,244,4,4,0,no_gain3,gain5,A,G,37,39,objects,objects,39,28,Stimuli/Experimental_stims/objects/alexander-andrews-VLGWE_SumrA-unsplash.jpg,Stimuli/Experimental_stims/objects/charlesdeluvio-1-nx1QR5dTE-unsplash.jpg,0,1,309,0,unchosen,37,39,objects,objects,1500,0,3,1
244,38808,0,245,4,4,0,no_gain6,gain6,F,B,35,5,body_parts,outdoor_scenes,33,67,Stimuli/Experimental_stims/body_parts/wc-so-KH4AAPjb-tI-unsplash.jpg,Stimuli/Experimental_stims/outdoor_scenes/jeff-king-bJHWJeiHfHc-unsplash.jpg,0,1,298,0,chosen,35,5,body_parts,outdoor_scenes,1100,0,3,1
245,38808,0,246,4,4,1,gain3,no_gain6,I,F,26,35,body_parts,body_parts,25,33,Stimuli/Experimental_stims/body_parts/engin-akyurt-x_3gyC42btc-unsplash.jpg,Stimuli/Experimental_stims/body_parts/wc-so-KH4AAPjb-tI-unsplash.jpg,0,1,739,1,chosen,26,35,body_parts,body_parts,2000,0,3,1
246,38808,0,247,4,4,0,no_gain2,gain5,C,G,24,39,body_parts,objects,44,28,Stimuli/Experimental_stims/body_parts/clay-banks-LjqARJaJotc-unsplash.jpg,Stimuli/Experimental_stims/objects/charlesdeluvio-1-nx1QR5dTE-unsplash.jpg,0,1,13,0,unchosen,24,39,body_parts,objects,4700,1,3,1
247,38808,0,248,4,4,0,no_gain1,gain3,K,I,32,26,body_parts,body_parts,13,25,Stimuli/Experimental_stims/body_parts/towfiqu-barbhuiya-3AsiVDsZnHg-unsplash.jpg,Stimuli/Experimental_stims/body_parts/engin-akyurt-x_3gyC42btc-unsplash.jpg,0,0,216,1,chosen,26,32,body_parts,body_parts,2400,0,3,1
248,38808,0,249,4,4,1,gain4,no_gain2,J,C,17,24,faces,body_parts,6,44,Stimuli/Experimental_stims/faces/good-faces-xmSWVeGEnJw-unsplash.jpg,Stimuli/Experimental_stims/body_parts/clay-banks-LjqARJaJotc-unsplash.jpg,0,1,83,1,unchosen,17,24,faces,body_parts,1100,0,3,1
249,38808,0,250,4,4,1,gain6,no_gain5,B,D,5,40,outdoor_scenes,objects,67,28,Stimuli/Experimental_stims/outdoor_scenes/jeff-king-bJHWJeiHfHc-unsplash.jpg,Stimuli/Experimental_stims/objects/fabian-blank-pElSkGRA2NU-unsplash.jpg,0,1,686,1,chosen,5,40,outdoor_scenes,objects,2400,0,3,1
250,38808,0,251,4,4,1,gain4,no_gain6,J,F,17,18,faces,faces,6,82,Stimuli/Experimental_stims/faces/good-faces-xmSWVeGEnJw-unsplash.jpg,Stimuli/Experimental_stims/faces/jessica-radanavong-mrYkTuAesKE-unsplash.jpg,0,1,79,1,unchosen,17,18,faces,faces,1600,0,3,1
251,38808,0,252,4,4,0,no_gain1,gain1,K,L,46,16,objects,faces,79,22,Stimuli/Experimental_stims/objects/mockup-graphics-PNsj6RiHAF4-unsplash.jpg,Stimuli/Experimental_stims/faces/freddy-kearney-o-ioeoATbIM-unsplash.jpg,0,1,1289,0,unchosen,46,16,objects,faces,2300,0,3,1
252,38808,0,253,4,4,0,no_gain3,gain4,A,J,7,38,outdoor_scenes,objects,28,75,Stimuli/Experimental_stims/outdoor_scenes/petr-vysohlid-9fqwGqGLUxc-unsplash.jpg,Stimuli/Experimental_stims/objects/art-lasovsky-8XddFc6NkBY-unsplash.jpg,0,0,88,1,chosen,38,7,objects,outdoor_scenes,2500,0,3,1
253,38808,0,254,4,4,1,gain3,no_gain5,I,D,26,40,body_parts,objects,25,28,Stimuli/Experimental_stims/body_parts/engin-akyurt-x_3gyC42btc-unsplash.jpg,Stimuli/Experimental_stims/objects/fabian-blank-pElSkGRA2NU-unsplash.jpg,0,0,522,0,chosen,40,26,objects,body_parts,3700,1,3,1
254,38808,0,255,4,4,1,gain2,no_gain1,E,K,33,32,body_parts,body_parts,90,13,Stimuli/Experimental_stims/body_parts/tucker-good-36skLT5jZcc-unsplash.jpg,Stimuli/Experimental_stims/body_parts/towfiqu-barbhuiya-3AsiVDsZnHg-unsplash.jpg,0,1,47,1,chosen,33,32,body_parts,body_parts,2100,0,3,1
255,38808,0,256,4,4,1,gain6,no_gain3,B,A,12,37,faces,objects,24,39,Stimuli/Experimental_stims/faces/aiony-haust-jmATI5Q_YgY-unsplash.jpg,Stimuli/Experimental_stims/objects/alexander-andrews-VLGWE_SumrA-unsplash.jpg,0,0,574,0,unchosen,37,12,objects,faces,2300,0,3,1
256,38808,0,257,4,4,0,no_gain6,gain1,F,L,18,16,faces,faces,82,22,Stimuli/Experimental_stims/faces/jessica-radanavong-mrYkTuAesKE-unsplash.jpg,Stimuli/Experimental_stims/faces/freddy-kearney-o-ioeoATbIM-unsplash.jpg,0,1,356,0,unchosen,18,16,faces,faces,1700,0,3,1
257,38808,0,258,4,4,0,no_gain4,gain6,H,B,22,12,faces,faces,4,24,Stimuli/Experimental_stims/faces/ravi-patel-VMGAbeeJTKo-unsplash.jpg,Stimuli/Experimental_stims/faces/aiony-haust-jmATI5Q_YgY-unsplash.jpg,0,0,263,1,unchosen,12,22,faces,faces,2900,0,3,1
258,38808,0,259,4,4,0,no_gain4,gain1,H,L,6,29,outdoor_scenes,body_parts,8,29,Stimuli/Experimental_stims/outdoor_scenes/meng-ji-8BH_M-53CyA-unsplash.jpg,Stimuli/Experimental_stims/body_parts/manuel-schinner-ZwjFuJ7ebpk-unsplash.jpg,0,1,356,0,chosen,6,29,outdoor_scenes,body_parts,3000,1,3,1
259,38808,0,260,4,4,1,gain2,no_gain3,E,A,42,37,objects,objects,18,39,Stimuli/Experimental_stims/objects/jess-bailey-nOeVi8DsN8U-unsplash.jpg,Stimuli/Experimental_stims/objects/alexander-andrews-VLGWE_SumrA-unsplash.jpg,0,1,144,1,unchosen,42,37,objects,objects,2600,0,3,1
260,38808,0,261,4,4,0,no_gain6,gain5,F,G,18,39,faces,objects,82,28,Stimuli/Experimental_stims/faces/jessica-radanavong-mrYkTuAesKE-unsplash.jpg,Stimuli/Experimental_stims/objects/charlesdeluvio-1-nx1QR5dTE-unsplash.jpg,0,0,56,1,unchosen,39,18,objects,faces,1700,0,3,1
261,38808,0,262,4,4,0,no_gain3,gain1,A,L,37,16,objects,faces,39,22,Stimuli/Experimental_stims/objects/alexander-andrews-VLGWE_SumrA-unsplash.jpg,Stimuli/Experimental_stims/faces/freddy-kearney-o-ioeoATbIM-unsplash.jpg,0,0,113,1,unchosen,16,37,faces,objects,1800,0,3,1
262,38808,0,263,4,4,1,gain5,no_gain5,G,D,8,40,outdoor_scenes,objects,76,28,Stimuli/Experimental_stims/outdoor_scenes/samsommer-vddccTqwal8-unsplash.jpg,Stimuli/Experimental_stims/objects/fabian-blank-pElSkGRA2NU-unsplash.jpg,0,1,2,1,chosen,8,40,outdoor_scenes,objects,1400,0,3,1
263,38808,0,264,4,4,0,no_gain2,gain1,C,L,2,29,outdoor_scenes,body_parts,90,29,Stimuli/Experimental_stims/outdoor_scenes/bruno-van-der-kraan-qez8mNJ3ilU-unsplash.jpg,Stimuli/Experimental_stims/body_parts/manuel-schinner-ZwjFuJ7ebpk-unsplash.jpg,0,0,99,1,chosen,29,2,body_parts,outdoor_scenes,2200,0,3,1
264,38808,0,265,4,4,0,no_gain2,gain1,C,L,24,16,body_parts,faces,44,22,Stimuli/Experimental_stims/body_parts/clay-banks-LjqARJaJotc-unsplash.jpg,Stimuli/Experimental_stims/faces/freddy-kearney-o-ioeoATbIM-unsplash.jpg,0,0,48,1,unchosen,16,24,faces,body_parts,3500,1,3,1
265,38808,0,266,4,4,1,gain3,no_gain3,I,A,26,7,body_parts,outdoor_scenes,25,28,Stimuli/Experimental_stims/body_parts/engin-akyurt-x_3gyC42btc-unsplash.jpg,Stimuli/Experimental_stims/outdoor_scenes/petr-vysohlid-9fqwGqGLUxc-unsplash.jpg,0,0,15,0,chosen,7,26,outdoor_scenes,body_parts,1400,0,3,1
266,38808,0,267,4,4,0,no_gain2,gain4,C,J,2,38,outdoor_scenes,objects,90,75,Stimuli/Experimental_stims/outdoor_scenes/bruno-van-der-kraan-qez8mNJ3ilU-unsplash.jpg,Stimuli/Experimental_stims/objects/art-lasovsky-8XddFc6NkBY-unsplash.jpg,0,1,37,0,chosen,2,38,outdoor_scenes,objects,1100,0,3,1
267,38808,0,268,4,4,1,gain6,no_gain1,B,K,5,32,outdoor_scenes,body_parts,67,13,Stimuli/Experimental_stims/outdoor_scenes/jeff-king-bJHWJeiHfHc-unsplash.jpg,Stimuli/Experimental_stims/body_parts/towfiqu-barbhuiya-3AsiVDsZnHg-unsplash.jpg,0,0,68,0,chosen,32,5,body_parts,outdoor_scenes,1300,0,3,1
268,38808,0,269,4,4,0,no_gain1,gain3,K,I,46,1,objects,outdoor_scenes,79,41,Stimuli/Experimental_stims/objects/mockup-graphics-PNsj6RiHAF4-unsplash.jpg,Stimuli/Experimental_stims/outdoor_scenes/ashim-d-silva-S2Q5mdOrrVc-unsplash.jpg,0,1,1,0,unchosen,46,1,objects,outdoor_scenes,2600,0,3,1
269,38808,0,270,4,4,0,no_gain4,gain4,H,J,6,38,outdoor_scenes,objects,8,75,Stimuli/Experimental_stims/outdoor_scenes/meng-ji-8BH_M-53CyA-unsplash.jpg,Stimuli/Experimental_stims/objects/art-lasovsky-8XddFc6NkBY-unsplash.jpg,0,1,109,0,chosen,6,38,outdoor_scenes,objects,1100,0,3,1
270,38808,0,271,4,4,1,gain1,no_gain4,L,H,16,22,faces,faces,22,4,Stimuli/Experimental_stims/faces/freddy-kearney-o-ioeoATbIM-unsplash.jpg,Stimuli/Experimental_stims/faces/ravi-patel-VMGAbeeJTKo-unsplash.jpg,0,1,449,1,unchosen,16,22,faces,faces,1400,0,3,1
271,38808,0,272,4,4,1,gain4,no_gain3,J,A,17,37,faces,objects,6,39,Stimuli/Experimental_stims/faces/good-faces-xmSWVeGEnJw-unsplash.jpg,Stimuli/Experimental_stims/objects/alexander-andrews-VLGWE_SumrA-unsplash.jpg,0,0,85,0,unchosen,37,17,objects,faces,3200,1,3,1
272,38808,0,273,4,4,0,no_gain6,gain2,F,E,35,33,body_parts,body_parts,33,90,Stimuli/Experimental_stims/body_parts/wc-so-KH4AAPjb-tI-unsplash.jpg,Stimuli/Experimental_stims/body_parts/tucker-good-36skLT5jZcc-unsplash.jpg,0,0,424,1,chosen,33,35,body_parts,body_parts,1600,0,3,1
273,38808,0,274,4,4,0,no_gain2,gain5,C,G,2,8,outdoor_scenes,outdoor_scenes,90,76,Stimuli/Experimental_stims/outdoor_scenes/bruno-van-der-kraan-qez8mNJ3ilU-unsplash.jpg,Stimuli/Experimental_stims/outdoor_scenes/samsommer-vddccTqwal8-unsplash.jpg,0,0,200,1,chosen,8,2,outdoor_scenes,outdoor_scenes,1000,0,3,1
274,38808,0,275,4,4,1,gain1,no_gain5,L,D,29,40,body_parts,objects,29,28,Stimuli/Experimental_stims/body_parts/manuel-schinner-ZwjFuJ7ebpk-unsplash.jpg,Stimuli/Experimental_stims/objects/fabian-blank-pElSkGRA2NU-unsplash.jpg,0,1,12,1,chosen,29,40,body_parts,objects,1700,0,3,1
275,38808,0,276,4,4,1,gain4,no_gain4,J,H,17,22,faces,faces,6,4,Stimuli/Experimental_stims/faces/good-faces-xmSWVeGEnJw-unsplash.jpg,Stimuli/Experimental_stims/faces/ravi-patel-VMGAbeeJTKo-unsplash.jpg,0,1,174,1,unchosen,17,22,faces,faces,1200,0,3,1
276,38808,0,277,4,4,1,gain3,no_gain5,I,D,1,20,outdoor_scenes,faces,41,43,Stimuli/Experimental_stims/outdoor_scenes/ashim-d-silva-S2Q5mdOrrVc-unsplash.jpg,Stimuli/Experimental_stims/faces/justin-chen-J7Cf1Gch49E-unsplash.jpg,0,1,2,1,unchosen,1,20,outdoor_scenes,faces,2200,0,3,1
277,38808,0,278,4,4,0,no_gain5,gain6,D,B,20,12,faces,faces,43,24,Stimuli/Experimental_stims/faces/justin-chen-J7Cf1Gch49E-unsplash.jpg,Stimuli/Experimental_stims/faces/aiony-haust-jmATI5Q_YgY-unsplash.jpg,0,0,1,1,unchosen,12,20,faces,faces,2000,0,3,1
278,38808,0,279,4,4,1,gain3,no_gain4,I,H,26,6,body_parts,outdoor_scenes,25,8,Stimuli/Experimental_stims/body_parts/engin-akyurt-x_3gyC42btc-unsplash.jpg,Stimuli/Experimental_stims/outdoor_scenes/meng-ji-8BH_M-53CyA-unsplash.jpg,0,1,160,1,chosen,26,6,body_parts,outdoor_scenes,3100,1,3,1
279,38808,0,280,4,4,1,gain5,no_gain5,G,D,39,20,objects,faces,28,43,Stimuli/Experimental_stims/objects/charlesdeluvio-1-nx1QR5dTE-unsplash.jpg,Stimuli/Experimental_stims/faces/justin-chen-J7Cf1Gch49E-unsplash.jpg,0,1,127,1,unchosen,39,20,objects,faces,2400,0,3,1
280,38808,0,281,4,4,1,gain4,no_gain1,J,K,38,32,objects,body_parts,75,13,Stimuli/Experimental_stims/objects/art-lasovsky-8XddFc6NkBY-unsplash.jpg,Stimuli/Experimental_stims/body_parts/towfiqu-barbhuiya-3AsiVDsZnHg-unsplash.jpg,0,1,713,1,chosen,38,32,objects,body_parts,1000,0,3,1
281,38808,0,282,4,4,0,no_gain1,gain5,K,G,32,8,body_parts,outdoor_scenes,13,76,Stimuli/Experimental_stims/body_parts/towfiqu-barbhuiya-3AsiVDsZnHg-unsplash.jpg,Stimuli/Experimental_stims/outdoor_scenes/samsommer-vddccTqwal8-unsplash.jpg,0,0,70,1,chosen,8,32,outdoor_scenes,body_parts,1900,0,3,1
282,38808,0,283,4,4,0,no_gain4,gain5,H,G,22,39,faces,objects,4,28,Stimuli/Experimental_stims/faces/ravi-patel-VMGAbeeJTKo-unsplash.jpg,Stimuli/Experimental_stims/objects/charlesdeluvio-1-nx1QR5dTE-unsplash.jpg,0,1,132,0,unchosen,22,39,faces,objects,2400,0,3,1
283,38808,0,284,4,4,1,gain2,no_gain2,E,C,33,2,body_parts,outdoor_scenes,90,90,Stimuli/Experimental_stims/body_parts/tucker-good-36skLT5jZcc-unsplash.jpg,Stimuli/Experimental_stims/outdoor_scenes/bruno-van-der-kraan-qez8mNJ3ilU-unsplash.jpg,0,0,90,0,chosen,2,33,outdoor_scenes,body_parts,1300,0,3,1
284,38808,0,285,4,4,0,no_gain4,gain5,H,G,6,8,outdoor_scenes,outdoor_scenes,8,76,Stimuli/Experimental_stims/outdoor_scenes/meng-ji-8BH_M-53CyA-unsplash.jpg,Stimuli/Experimental_stims/outdoor_scenes/samsommer-vddccTqwal8-unsplash.jpg,0,1,348,0,chosen,6,8,outdoor_scenes,outdoor_scenes,1600,0,3,1
285,38808,0,286,4,4,1,gain6,no_gain6,B,F,12,18,faces,faces,24,82,Stimuli/Experimental_stims/faces/aiony-haust-jmATI5Q_YgY-unsplash.jpg,Stimuli/Experimental_stims/faces/jessica-radanavong-mrYkTuAesKE-unsplash.jpg,0,0,115,0,unchosen,18,12,faces,faces,1000,0,3,1
286,38808,0,287,4,4,0,no_gain6,gain4,F,J,35,38,body_parts,objects,33,75,Stimuli/Experimental_stims/body_parts/wc-so-KH4AAPjb-tI-unsplash.jpg,Stimuli/Experimental_stims/objects/art-lasovsky-8XddFc6NkBY-unsplash.jpg,0,1,282,0,chosen,35,38,body_parts,objects,1500,0,3,1
287,38808,0,288,4,4,1,gain5,no_gain1,G,K,39,46,objects,objects,28,79,Stimuli/Experimental_stims/objects/charlesdeluvio-1-nx1QR5dTE-unsplash.jpg,Stimuli/Experimental_stims/objects/mockup-graphics-PNsj6RiHAF4-unsplash.jpg,0,1,52,1,unchosen,39,46,objects,objects,1900,0,3,1
288,38808,0,289,4,4,1,gain3,no_gain2,I,C,26,2,body_parts,outdoor_scenes,25,90,Stimuli/Experimental_stims/body_parts/engin-akyurt-x_3gyC42btc-unsplash.jpg,Stimuli/Experimental_stims/outdoor_scenes/bruno-van-der-kraan-qez8mNJ3ilU-unsplash.jpg,0,1,255,1,chosen,26,2,body_parts,outdoor_scenes,1600,0,3,1
289,38808,0,290,4,4,1,gain3,no_gain6,I,F,1,18,outdoor_scenes,faces,41,82,Stimuli/Experimental_stims/outdoor_scenes/ashim-d-silva-S2Q5mdOrrVc-unsplash.jpg,Stimuli/Experimental_stims/faces/jessica-radanavong-mrYkTuAesKE-unsplash.jpg,0,1,177,1,unchosen,1,18,outdoor_scenes,faces,1200,0,3,1
290,38808,0,291,4,4,1,gain2,no_gain2,E,C,42,24,objects,body_parts,18,44,Stimuli/Experimental_stims/objects/jess-bailey-nOeVi8DsN8U-unsplash.jpg,Stimuli/Experimental_stims/body_parts/clay-banks-LjqARJaJotc-unsplash.jpg,0,1,1,1,unchosen,42,24,objects,body_parts,1000,0,3,1
291,38808,0,292,4,4,1,gain2,no_gain6,E,F,42,18,objects,faces,18,82,Stimuli/Experimental_stims/objects/jess-bailey-nOeVi8DsN8U-unsplash.jpg,Stimuli/Experimental_stims/faces/jessica-radanavong-mrYkTuAesKE-unsplash.jpg,0,1,310,1,unchosen,42,18,objects,faces,3200,1,3,1