,PID,practice,trial,block,run,gain_left,left_item_id,right_item_id,left_pair_id,right_pair_id,left_stimulus,right_stimulus,left_category,right_category,left_rating,right_rating,left_path,right_path,no_response,left_chosen,rt,higher_outcome_chosen,choice_type,chosen_stimulus,unchosen_stimulus,chosen_category,unchosen_category,iti,long_iti,simulation,version
0,66556,1,1,0,0,0,,,,,,,,,,,Stimuli/Practice_stims/Final_decisions/debby-hudson-FmCSSSGge-0-unsplash.jpg,Stimuli/Practice_stims/Final_decisions/yassine-khalfalli-adsQ9d_Cx0c-unsplash.jpg,0,1,387,0,,,,,,3000,0,6,1
1,66556,1,2,0,0,0,,,,,,,,,,,Stimuli/Practice_stims/Final_decisions/florian-wehde-iVW7mZPwd4g-unsplash.jpg,Stimuli/Practice_stims/Final_decisions/patrick-perkins-3wylDrjxH-E-unsplash.jpg,0,0,404,1,,,,,,1500,0,6,1
2,66556,1,3,0,0,0,,,,,,,,,,,Stimuli/Practice_stims/Final_decisions/debby-hudson-FmCSSSGge-0-unsplash.jpg,Stimuli/Practice_stims/Final_decisions/florian-wehde-iVW7mZPwd4g-unsplash.jpg,0,0,659,1,,,,,,2000,0,6,1
3,66556,1,4,0,0,0,,,,,,,,,,,Stimuli/Practice_stims/Final_decisions/yassine-khalfalli-adsQ9d_Cx0c-unsplash.jpg,Stimuli/Practice_stims/Final_decisions/debby-hudson-FmCSSSGge-0-unsplash.jpg,0,0,421,1,,,,,,1000,0,6,1
4,66556,0,5,1,1,0,no_gain4,gain5,A,K,0,45,outdoor_scenes,objects,75,50,Stimuli/Experimental_stims/outdoor_scenes/aleksandra-boguslawska-MS7KD9Ti7FQ-unsplash.jpg,Stimuli/Experimental_stims/objects/leohoho-rngTKHXumy0-unsplash.jpg,0,1,1322,0,chosen,0,45,outdoor_scenes,objects,1800,0,6,1
5,66556,0,6,1,1,1,gain3,no_gain6,B,H,3,16,outdoor_scenes,faces,99,97,Stimuli/Experimental_stims/outdoor_scenes/henry-be-NLF6hTe4PAg-unsplash.jpg,Stimuli/Experimental_stims/faces/freddy-kearney-o-ioeoATbIM-unsplash.jpg,0,0,903,0,chosen,16,3,faces,outdoor_scenes,1700,0,6,1
6,66556,0,7,1,1,1,gain6,no_gain3,L,D,28,17,body_parts,faces,50,75,Stimuli/Experimental_stims/body_parts/ira-vishnevskaya-8DQAvdCby1I-unsplash.jpg,Stimuli/Experimental_stims/faces/good-faces-xmSWVeGEnJw-unsplash.jpg,0,0,707,0,unchosen,17,28,faces,body_parts,2300,0,6,1
7,66556,0,8,1,1,0,no_gain2,gain3,J,B,37,3,objects,outdoor_scenes,50,99,Stimuli/Experimental_stims/objects/alexander-andrews-VLGWE_SumrA-unsplash.jpg,Stimuli/Experimental_stims/outdoor_scenes/henry-be-NLF6hTe4PAg-unsplash.jpg,0,0,1099,1,chosen,3,37,outdoor_scenes,objects,1700,0,6,1
8,66556,0,9,1,1,1,gain4,no_gain5,E,C,35,26,body_parts,body_parts,50,50,Stimuli/Experimental_stims/body_parts/wc-so-KH4AAPjb-tI-unsplash.jpg,Stimuli/Experimental_stims/body_parts/engin-akyurt-x_3gyC42btc-unsplash.jpg,0,1,1354,1,unchosen,35,26,body_parts,body_parts,3900,1,6,1
9,66556,0,10,1,1,1,gain2,no_gain5,G,C,38,26,objects,body_parts,81,50,Stimuli/Experimental_stims/objects/art-lasovsky-8XddFc6NkBY-unsplash.jpg,Stimuli/Experimental_stims/body_parts/engin-akyurt-x_3gyC42btc-unsplash.jpg,0,1,742,1,unchosen,38,26,objects,body_parts,1200,0,6,1
10,66556,0,11,1,1,1,gain2,no_gain5,G,C,4,11,outdoor_scenes,outdoor_scenes,98,98,Stimuli/Experimental_stims/outdoor_scenes/jarrett-kow-1ZOyYPOBn7I-unsplash.jpg,Stimuli/Experimental_stims/outdoor_scenes/stephen-leonardi-gyIRjKPXupE-unsplash.jpg,0,1,1181,1,chosen,4,11,outdoor_scenes,outdoor_scenes,1200,0,6,1
11,66556,0,12,1,1,0,no_gain5,gain5,C,K,11,45,outdoor_scenes,objects,98,50,Stimuli/Experimental_stims/outdoor_scenes/stephen-leonardi-gyIRjKPXupE-unsplash.jpg,Stimuli/Experimental_stims/objects/leohoho-rngTKHXumy0-unsplash.jpg,0,1,850,0,chosen,11,45,outdoor_scenes,objects,2600,0,6,1
12,66556,0,13,1,1,0,no_gain1,gain4,I,E,32,35,body_parts,body_parts,50,50,Stimuli/Experimental_stims/body_parts/towfiqu-barbhuiya-3AsiVDsZnHg-unsplash.jpg,Stimuli/Experimental_stims/body_parts/wc-so-KH4AAPjb-tI-unsplash.jpg,0,1,1024,0,unchosen,32,35,body_parts,body_parts,2200,0,6,1
13,66556,0,14,1,1,1,gain4,no_gain6,E,H,47,16,objects,faces,50,97,Stimuli/Experimental_stims/objects/ronaldo-arthur-vidal-Cdz_lvnl37k-unsplash.jpg,Stimuli/Experimental_stims/faces/freddy-kearney-o-ioeoATbIM-unsplash.jpg,0,0,838,0,chosen,16,47,faces,objects,1700,0,6,1
14,66556,0,15,1,1,1,gain4,no_gain4,E,A,47,0,objects,outdoor_scenes,50,75,Stimuli/Experimental_stims/objects/ronaldo-arthur-vidal-Cdz_lvnl37k-unsplash.jpg,Stimuli/Experimental_stims/outdoor_scenes/aleksandra-boguslawska-MS7KD9Ti7FQ-unsplash.jpg,0,0,1042,0,chosen,0,47,outdoor_scenes,objects,3100,1,6,1
15,66556,0,16,1,1,1,gain2,no_gain1,G,I,38,32,objects,body_parts,81,50,Stimuli/Experimental_stims/objects/art-lasovsky-8XddFc6NkBY-unsplash.jpg,Stimuli/Experimental_stims/body_parts/towfiqu-barbhuiya-3AsiVDsZnHg-unsplash.jpg,0,0,679,0,unchosen,32,38,body_parts,objects,2100,0,6,1
16,66556,0,17,1,1,0,no_gain2,gain5,J,K,37,45,objects,objects,50,50,Stimuli/Experimental_stims/objects/alexander-andrews-VLGWE_SumrA-unsplash.jpg,Stimuli/Experimental_stims/objects/leohoho-rngTKHXumy0-unsplash.jpg,0,1,1212,0,chosen,37,45,objects,objects,1900,0,6,1
17,66556,0,18,1,1,0,no_gain1,gain5,I,K,6,45,outdoor_scenes,objects,96,50,Stimuli/Experimental_stims/outdoor_scenes/meng-ji-8BH_M-53CyA-unsplash.jpg,Stimuli/Experimental_stims/objects/leohoho-rngTKHXumy0-unsplash.jpg,0,1,1184,0,chosen,6,45,outdoor_scenes,objects,1400,0,6,1
18,66556,0,19,1,1,1,gain3,no_gain5,B,C,3,11,outdoor_scenes,outdoor_scenes,99,98,Stimuli/Experimental_stims/outdoor_scenes/henry-be-NLF6hTe4PAg-unsplash.jpg,Stimuli/Experimental_stims/outdoor_scenes/stephen-leonardi-gyIRjKPXupE-unsplash.jpg,0,0,1090,0,chosen,11,3,outdoor_scenes,outdoor_scenes,1500,0,6,1
19,66556,0,20,1,1,0,no_gain4,gain2,A,G,39,38,objects,objects,74,81,Stimuli/Experimental_stims/objects/charlesdeluvio-1-nx1QR5dTE-unsplash.jpg,Stimuli/Experimental_stims/objects/art-lasovsky-8XddFc6NkBY-unsplash.jpg,0,0,835,1,unchosen,38,39,objects,objects,1600,0,6,1
20,66556,0,21,1,1,0,no_gain1,gain3,I,B,6,3,outdoor_scenes,outdoor_scenes,96,99,Stimuli/Experimental_stims/outdoor_scenes/meng-ji-8BH_M-53CyA-unsplash.jpg,Stimuli/Experimental_stims/outdoor_scenes/henry-be-NLF6hTe4PAg-unsplash.jpg,0,1,1055,0,chosen,6,3,outdoor_scenes,outdoor_scenes,3200,1,6,1
21,66556,0,22,1,1,1,gain5,no_gain5,K,C,24,26,body_parts,body_parts,50,50,Stimuli/Experimental_stims/body_parts/clay-banks-LjqARJaJotc-unsplash.jpg,Stimuli/Experimental_stims/body_parts/engin-akyurt-x_3gyC42btc-unsplash.jpg,0,1,809,1,unchosen,24,26,body_parts,body_parts,1900,0,6,1
22,66556,0,23,1,1,0,no_gain6,gain6,H,L,9,28,outdoor_scenes,body_parts,76,50,Stimuli/Experimental_stims/outdoor_scenes/sergey-pesterev-y-b_FOmJXdg-unsplash.jpg,Stimuli/Experimental_stims/body_parts/ira-vishnevskaya-8DQAvdCby1I-unsplash.jpg,0,1,802,0,unchosen,9,28,outdoor_scenes,body_parts,1600,0,6,1
23,66556,0,24,1,1,0,no_gain6,gain2,H,G,16,4,faces,outdoor_scenes,97,98,Stimuli/Experimental_stims/faces/freddy-kearney-o-ioeoATbIM-unsplash.jpg,Stimuli/Experimental_stims/outdoor_scenes/jarrett-kow-1ZOyYPOBn7I-unsplash.jpg,1,NaN,,NaN,chosen,NaN,NaN,NaN,NaN,1100,0,6,1
24,66556,0,25,1,1,1,gain4,no_gain2,E,J,35,21,body_parts,faces,50,50,Stimuli/Experimental_stims/body_parts/wc-so-KH4AAPjb-tI-unsplash.jpg,Stimuli/Experimental_stims/faces/leilani-angel-K84vnnzxmTQ-unsplash.jpg,0,0,1248,0,unchosen,21,35,faces,body_parts,2200,0,6,1
25,66556,0,26,1,1,1,gain2,no_gain3,G,D,38,17,objects,faces,81,75,Stimuli/Experimental_stims/objects/art-lasovsky-8XddFc6NkBY-unsplash.jpg,Stimuli/Experimental_stims/faces/good-faces-xmSWVeGEnJw-unsplash.jpg,0,0,833,0,unchosen,17,38,faces,objects,3300,1,6,1
26,66556,0,27,1,1,0,no_gain2,gain4,J,E,37,47,objects,objects,50,50,Stimuli/Experimental_stims/objects/alexander-andrews-VLGWE_SumrA-unsplash.jpg,Stimuli/Experimental_stims/objects/ronaldo-arthur-vidal-Cdz_lvnl37k-unsplash.jpg,0,1,886,0,chosen,37,47,objects,objects,2100,0,6,1
27,66556,0,28,1,1,0,no_gain2,gain2,J,G,21,38,faces,objects,50,81,Stimuli/Experimental_stims/faces/leilani-angel-K84vnnzxmTQ-unsplash.jpg,Stimuli/Experimental_stims/objects/art-lasovsky-8XddFc6NkBY-unsplash.jpg,0,0,621,1,unchosen,38,21,objects,faces,1000,0,6,1
28,66556,0,29,1,1,0,no_gain4,gain3,A,B,39,13,objects,faces,74,50,Stimuli/Experimental_stims/objects/charlesdeluvio-1-nx1QR5dTE-unsplash.jpg,Stimuli/Experimental_stims/faces/daniel-rigdon-dXmXKPP2L4E-unsplash.jpg,0,0,989,1,unchosen,13,39,faces,objects,2600,0,6,1
29,66556,0,30,1,1,0,no_gain3,gain2,D,G,41,4,objects,outdoor_scenes,95,98,Stimuli/Experimental_stims/objects/insung-yoon-w2JtIQQXoRU-unsplash.jpg,Stimuli/Experimental_stims/outdoor_scenes/jarrett-kow-1ZOyYPOBn7I-unsplash.jpg,0,0,769,1,chosen,4,41,outdoor_scenes,objects,1500,0,6,1
30,66556,0,31,1,1,1,gain5,no_gain4,K,A,24,39,body_parts,objects,50,74,Stimuli/Experimental_stims/body_parts/clay-banks-LjqARJaJotc-unsplash.jpg,Stimuli/Experimental_stims/objects/charlesdeluvio-1-nx1QR5dTE-unsplash.jpg,0,1,948,1,unchosen,24,39,body_parts,objects,1200,0,6,1
31,66556,0,32,1,1,0,no_gain3,gain5,D,K,17,24,faces,body_parts,75,50,Stimuli/Experimental_stims/faces/good-faces-xmSWVeGEnJw-unsplash.jpg,Stimuli/Experimental_stims/body_parts/clay-banks-LjqARJaJotc-unsplash.jpg,0,1,871,0,unchosen,17,24,faces,body_parts,2100,0,6,1
32,66556,0,33,1,1,0,no_gain5,gain4,C,E,11,47,outdoor_scenes,objects,98,50,Stimuli/Experimental_stims/outdoor_scenes/stephen-leonardi-gyIRjKPXupE-unsplash.jpg,Stimuli/Experimental_stims/objects/ronaldo-arthur-vidal-Cdz_lvnl37k-unsplash.jpg,0,1,810,0,chosen,11,47,outdoor_scenes,objects,4300,1,6,1
33,66556,0,34,1,1,0,no_gain1,gain5,I,K,32,24,body_parts,body_parts,50,50,Stimuli/Experimental_stims/body_parts/towfiqu-barbhuiya-3AsiVDsZnHg-unsplash.jpg,Stimuli/Experimental_stims/body_parts/clay-banks-LjqARJaJotc-unsplash.jpg,0,1,675,0,unchosen,32,24,body_parts,body_parts,1000,0,6,1
34,66556,0,35,1,1,1,gain1,no_gain3,F,D,18,41,faces,objects,0,95,Stimuli/Experimental_stims/faces/jessica-radanavong-mrYkTuAesKE-unsplash.jpg,Stimuli/Experimental_stims/objects/insung-yoon-w2JtIQQXoRU-unsplash.jpg,0,0,842,0,chosen,41,18,objects,faces,2300,0,6,1
35,66556,0,36,1,1,0,no_gain6,gain5,H,K,9,24,outdoor_scenes,body_parts,76,50,Stimuli/Experimental_stims/outdoor_scenes/sergey-pesterev-y-b_FOmJXdg-unsplash.jpg,Stimuli/Experimental_stims/body_parts/clay-banks-LjqARJaJotc-unsplash.jpg,0,1,537,0,unchosen,9,24,outdoor_scenes,body_parts,1200,0,6,1
36,66556,0,37,1,1,1,gain6,no_gain1,L,I,15,6,faces,outdoor_scenes,50,96,Stimuli/Experimental_stims/faces/erik-lucatero-d2MSDujJl2g-unsplash.jpg,Stimuli/Experimental_stims/outdoor_scenes/meng-ji-8BH_M-53CyA-unsplash.jpg,0,0,707,0,chosen,6,15,outdoor_scenes,faces,1300,0,6,1
37,66556,0,38,1,1,1,gain4,no_gain3,E,D,47,41,objects,objects,50,95,Stimuli/Experimental_stims/objects/ronaldo-arthur-vidal-Cdz_lvnl37k-unsplash.jpg,Stimuli/Experimental_stims/objects/insung-yoon-w2JtIQQXoRU-unsplash.jpg,0,1,790,1,chosen,47,41,objects,objects,1700,0,6,1
38,66556,0,39,1,1,1,gain1,no_gain5,F,C,18,11,faces,outdoor_scenes,0,98,Stimuli/Experimental_stims/faces/jessica-radanavong-mrYkTuAesKE-unsplash.jpg,Stimuli/Experimental_stims/outdoor_scenes/stephen-leonardi-gyIRjKPXupE-unsplash.jpg,0,0,752,0,chosen,11,18,outdoor_scenes,faces,1300,0,6,1
39,66556,0,40,1,1,0,no_gain6,gain3,H,B,9,13,outdoor_scenes,faces,76,50,Stimuli/Experimental_stims/outdoor_scenes/sergey-pesterev-y-b_FOmJXdg-unsplash.jpg,Stimuli/Experimental_stims/faces/daniel-rigdon-dXmXKPP2L4E-unsplash.jpg,0,1,654,0,unchosen,9,13,outdoor_scenes,faces,1200,0,6,1
40,66556,0,41,1,1,0,no_gain2,gain1,J,F,37,18,objects,faces,50,0,Stimuli/Experimental_stims/objects/alexander-andrews-VLGWE_SumrA-unsplash.jpg,Stimuli/Experimental_stims/faces/jessica-radanavong-mrYkTuAesKE-unsplash.jpg,0,1,1009,0,chosen,37,18,objects,faces,1900,0,6,1
41,66556,0,42,1,1,1,gain4,no_gain3,E,D,35,17,body_parts,faces,50,75,Stimuli/Experimental_stims/body_parts/wc-so-KH4AAPjb-tI-unsplash.jpg,Stimuli/Experimental_stims/faces/good-faces-xmSWVeGEnJw-unsplash.jpg,0,0,610,0,unchosen,17,35,faces,body_parts,1200,0,6,1
42,66556,0,43,1,1,1,gain6,no_gain6,L,H,15,16,faces,faces,50,97,Stimuli/Experimental_stims/faces/erik-lucatero-d2MSDujJl2g-unsplash.jpg,Stimuli/Experimental_stims/faces/freddy-kearney-o-ioeoATbIM-unsplash.jpg,0,0,749,0,chosen,16,15,faces,faces,4000,1,6,1
43,66556,0,44,1,1,0,no_gain3,gain3,D,B,41,3,objects,outdoor_scenes,95,99,Stimuli/Experimental_stims/objects/insung-yoon-w2JtIQQXoRU-unsplash.jpg,Stimuli/Experimental_stims/outdoor_scenes/henry-be-NLF6hTe4PAg-unsplash.jpg,0,0,574,1,chosen,3,41,outdoor_scenes,objects,2300,0,6,1
44,66556,0,45,1,1,1,gain2,no_gain6,G,H,38,9,objects,outdoor_scenes,81,76,Stimuli/Experimental_stims/objects/art-lasovsky-8XddFc6NkBY-unsplash.jpg,Stimuli/Experimental_stims/outdoor_scenes/sergey-pesterev-y-b_FOmJXdg-unsplash.jpg,0,1,977,1,unchosen,38,9,objects,outdoor_scenes,1500,0,6,1
45,66556,0,46,1,1,0,no_gain1,gain1,I,F,6,18,outdoor_scenes,faces,96,0,Stimuli/Experimental_stims/outdoor_scenes/meng-ji-8BH_M-53CyA-unsplash.jpg,Stimuli/Experimental_stims/faces/jessica-radanavong-mrYkTuAesKE-unsplash.jpg,0,1,652,0,chosen,6,18,outdoor_scenes,faces,1100,0,6,1
46,66556,0,47,1,1,0,no_gain5,gain6,C,L,26,28,body_parts,body_parts,50,50,Stimuli/Experimental_stims/body_parts/engin-akyurt-x_3gyC42btc-unsplash.jpg,Stimuli/Experimental_stims/body_parts/ira-vishnevskaya-8DQAvdCby1I-unsplash.jpg,1,NaN,,NaN,unchosen,NaN,NaN,NaN,NaN,1100,0,6,1
47,66556,0,48,1,1,0,no_gain5,gain6,C,L,11,15,outdoor_scenes,faces,98,50,Stimuli/Experimental_stims/outdoor_scenes/stephen-leonardi-gyIRjKPXupE-unsplash.jpg,Stimuli/Experimental_stims/faces/erik-lucatero-d2MSDujJl2g-unsplash.jpg,0,1,783,0,chosen,11,15,outdoor_scenes,faces,3200,1,6,1
48,66556,0,49,1,1,0,no_gain2,gain6,J,L,21,28,faces,body_parts,50,50,Stimuli/Experimental_stims/faces/leilani-angel-K84vnnzxmTQ-unsplash.jpg,Stimuli/Experimental_stims/body_parts/ira-vishnevskaya-8DQAvdCby1I-unsplash.jpg,0,0,787,1,unchosen,28,21,body_parts,faces,1900,0,6,1
49,66556,0,50,1,1,1,gain4,no_gain4,E,A,35,39,body_parts,objects,50,74,Stimuli/Experimental_stims/body_parts/wc-so-KH4AAPjb-tI-unsplash.jpg,Stimuli/Experimental_stims/objects/charlesdeluvio-1-nx1QR5dTE-unsplash.jpg,0,0,590,0,unchosen,39,35,objects,body_parts,2300,0,6,1
50,66556,0,51,1,1,1,gain6,no_gain4,L,A,28,39,body_parts,objects,50,74,Stimuli/Experimental_stims/body_parts/ira-vishnevskaya-8DQAvdCby1I-unsplash.jpg,Stimuli/Experimental_stims/objects/charlesdeluvio-1-nx1QR5dTE-unsplash.jpg,0,0,546,0,unchosen,39,28,objects,body_parts,1200,0,6,1
51,66556,0,52,1,1,0,no_gain6,gain1,H,F,16,18,faces,faces,97,0,Stimuli/Experimental_stims/faces/freddy-kearney-o-ioeoATbIM-unsplash.jpg,Stimuli/Experimental_stims/faces/jessica-radanavong-mrYkTuAesKE-unsplash.jpg,0,1,710,0,chosen,16,18,faces,faces,2400,0,6,1
52,66556,0,53,1,1,1,gain2,no_gain1,G,I,4,6,outdoor_scenes,outdoor_scenes,98,96,Stimuli/Experimental_stims/outdoor_scenes/jarrett-kow-1ZOyYPOBn7I-unsplash.jpg,Stimuli/Experimental_stims/outdoor_scenes/meng-ji-8BH_M-53CyA-unsplash.jpg,0,1,571,1,chosen,4,6,outdoor_scenes,outdoor_scenes,1600,0,6,1
53,66556,0,54,1,1,1,gain5,no_gain6,K,H,45,16,objects,faces,50,97,Stimuli/Experimental_stims/objects/leohoho-rngTKHXumy0-unsplash.jpg,Stimuli/Experimental_stims/faces/freddy-kearney-o-ioeoATbIM-unsplash.jpg,0,0,704,0,chosen,16,45,faces,objects,3100,1,6,1
54,66556,0,55,1,1,0,no_gain5,gain1,C,F,26,29,body_parts,body_parts,50,50,Stimuli/Experimental_stims/body_parts/engin-akyurt-x_3gyC42btc-unsplash.jpg,Stimuli/Experimental_stims/body_parts/manuel-schinner-ZwjFuJ7ebpk-unsplash.jpg,0,1,1152,0,unchosen,26,29,body_parts,body_parts,2300,0,6,1
55,66556,0,56,1,1,1,gain2,no_gain2,G,J,4,37,outdoor_scenes,objects,98,50,Stimuli/Experimental_stims/outdoor_scenes/jarrett-kow-1ZOyYPOBn7I-unsplash.jpg,Stimuli/Experimental_stims/objects/alexander-andrews-VLGWE_SumrA-unsplash.jpg,0,1,589,1,chosen,4,37,outdoor_scenes,objects,2600,0,6,1
56,66556,0,57,1,1,1,gain3,no_gain2,B,J,13,21,faces,faces,50,50,Stimuli/Experimental_stims/faces/daniel-rigdon-dXmXKPP2L4E-unsplash.jpg,Stimuli/Experimental_stims/faces/leilani-angel-K84vnnzxmTQ-unsplash.jpg,0,0,1137,0,unchosen,21,13,faces,faces,1700,0,6,1
57,66556,0,58,1,1,0,no_gain1,gain3,I,B,32,13,body_parts,faces,50,50,Stimuli/Experimental_stims/body_parts/towfiqu-barbhuiya-3AsiVDsZnHg-unsplash.jpg,Stimuli/Experimental_stims/faces/daniel-rigdon-dXmXKPP2L4E-unsplash.jpg,0,0,978,1,unchosen,13,32,faces,body_parts,1100,0,6,1
58,66556,0,59,1,1,1,gain6,no_gain4,L,A,15,0,faces,outdoor_scenes,50,75,Stimuli/Experimental_stims/faces/erik-lucatero-d2MSDujJl2g-unsplash.jpg,Stimuli/Experimental_stims/outdoor_scenes/aleksandra-boguslawska-MS7KD9Ti7FQ-unsplash.jpg,0,0,1112,0,chosen,0,15,outdoor_scenes,faces,2600,0,6,1
59,66556,0,60,1,1,1,gain6,no_gain1,L,I,28,32,body_parts,body_parts,50,50,Stimuli/Experimental_stims/body_parts/ira-vishnevskaya-8DQAvdCby1I-unsplash.jpg,Stimuli/Experimental_stims/body_parts/towfiqu-barbhuiya-3AsiVDsZnHg-unsplash.jpg,0,0,701,0,unchosen,32,28,body_parts,body_parts,1000,0,6,1
60,66556,0,61,1,1,1,gain1,no_gain3,F,D,29,17,body_parts,faces,50,75,Stimuli/Experimental_stims/body_parts/manuel-schinner-ZwjFuJ7ebpk-unsplash.jpg,Stimuli/Experimental_stims/faces/good-faces-xmSWVeGEnJw-unsplash.jpg,0,0,985,0,unchosen,17,29,faces,body_parts,2400,0,6,1
61,66556,0,62,1,1,0,no_gain6,gain4,H,E,9,35,outdoor_scenes,body_parts,76,50,Stimuli/Experimental_stims/outdoor_scenes/sergey-pesterev-y-b_FOmJXdg-unsplash.jpg,Stimuli/Experimental_stims/body_parts/wc-so-KH4AAPjb-tI-unsplash.jpg,0,1,883,0,unchosen,9,35,outdoor_scenes,body_parts,3500,1,6,1
62,66556,0,63,1,1,1,gain6,no_gain3,L,D,15,41,faces,objects,50,95,Stimuli/Experimental_stims/faces/erik-lucatero-d2MSDujJl2g-unsplash.jpg,Stimuli/Experimental_stims/objects/insung-yoon-w2JtIQQXoRU-unsplash.jpg,0,0,665,0,chosen,41,15,objects,faces,1700,0,6,1
63,66556,0,64,1,1,1,gain2,no_gain4,G,A,4,0,outdoor_scenes,outdoor_scenes,98,75,Stimuli/Experimental_stims/outdoor_scenes/jarrett-kow-1ZOyYPOBn7I-unsplash.jpg,Stimuli/Experimental_stims/outdoor_scenes/aleksandra-boguslawska-MS7KD9Ti7FQ-unsplash.jpg,0,1,571,1,chosen,4,0,outdoor_scenes,outdoor_scenes,1200,0,6,1
64,66556,0,65,1,1,0,no_gain6,gain1,H,F,9,29,outdoor_scenes,body_parts,76,50,Stimuli/Experimental_stims/outdoor_scenes/sergey-pesterev-y-b_FOmJXdg-unsplash.jpg,Stimuli/Experimental_stims/body_parts/manuel-schinner-ZwjFuJ7ebpk-unsplash.jpg,0,1,605,0,unchosen,9,29,outdoor_scenes,body_parts,1600,0,6,1
65,66556,0,66,1,1,0,no_gain4,gain1,A,F,39,29,objects,body_parts,74,50,Stimuli/Experimental_stims/objects/charlesdeluvio-1-nx1QR5dTE-unsplash.jpg,Stimuli/Experimental_stims/body_parts/manuel-schinner-ZwjFuJ7ebpk-unsplash.jpg,0,1,559,0,unchosen,39,29,objects,body_parts,1200,0,6,1
66,66556,0,67,1,1,1,gain5,no_gain2,K,J,24,21,body_parts,faces,50,50,Stimuli/Experimental_stims/body_parts/clay-banks-LjqARJaJotc-unsplash.jpg,Stimuli/Experimental_stims/faces/leilani-angel-K84vnnzxmTQ-unsplash.jpg,0,0,784,0,unchosen,21,24,faces,body_parts,3400,1,6,1
67,66556,0,68,1,1,0,no_gain1,gain4,I,E,6,47,outdoor_scenes,objects,96,50,Stimuli/Experimental_stims/outdoor_scenes/meng-ji-8BH_M-53CyA-unsplash.jpg,Stimuli/Experimental_stims/objects/ronaldo-arthur-vidal-Cdz_lvnl37k-unsplash.jpg,0,1,578,0,chosen,6,47,outdoor_scenes,objects,1900,0,6,1
68,66556,0,69,1,1,1,gain6,no_gain2,L,J,15,37,faces,objects,50,50,Stimuli/Experimental_stims/faces/erik-lucatero-d2MSDujJl2g-unsplash.jpg,Stimuli/Experimental_stims/objects/alexander-andrews-VLGWE_SumrA-unsplash.jpg,0,0,845,0,chosen,37,15,objects,faces,2200,0,6,1
69,66556,0,70,1,1,1,gain5,no_gain3,K,D,45,41,objects,objects,50,95,Stimuli/Experimental_stims/objects/leohoho-rngTKHXumy0-unsplash.jpg,Stimuli/Experimental_stims/objects/insung-yoon-w2JtIQQXoRU-unsplash.jpg,0,0,768,0,chosen,41,45,objects,objects,1100,0,6,1
70,66556,0,71,1,1,0,no_gain1,gain1,I,F,32,29,body_parts,body_parts,50,50,Stimuli/Experimental_stims/body_parts/towfiqu-barbhuiya-3AsiVDsZnHg-unsplash.jpg,Stimuli/Experimental_stims/body_parts/manuel-schinner-ZwjFuJ7ebpk-unsplash.jpg,0,1,798,0,unchosen,32,29,body_parts,body_parts,2600,0,6,1
71,66556,0,72,1,1,1,gain1,no_gain2,F,J,29,21,body_parts,faces,50,50,Stimuli/Experimental_stims/body_parts/manuel-schinner-ZwjFuJ7ebpk-unsplash.jpg,Stimuli/Experimental_stims/faces/leilani-angel-K84vnnzxmTQ-unsplash.jpg,0,0,727,0,unchosen,21,29,faces,body_parts,2100,0,6,1
72,66556,0,73,1,1,0,no_gain3,gain3,D,B,17,13,faces,faces,75,50,Stimuli/Experimental_stims/faces/good-faces-xmSWVeGEnJw-unsplash.jpg,Stimuli/Experimental_stims/faces/daniel-rigdon-dXmXKPP2L4E-unsplash.jpg,0,1,835,0,unchosen,17,13,faces,faces,1600,0,6,1
73,66556,0,74,1,1,0,no_gain4,gain1,A,F,0,18,outdoor_scenes,faces,75,0,Stimuli/Experimental_stims/outdoor_scenes/aleksandra-boguslawska-MS7KD9Ti7FQ-unsplash.jpg,Stimuli/Experimental_stims/faces/jessica-radanavong-mrYkTuAesKE-unsplash.jpg,0,1,778,0,chosen,0,18,outdoor_scenes,faces,1200,0,6,1
74,66556,0,75,1,1,1,gain3,no_gain5,B,C,13,26,faces,body_parts,50,50,Stimuli/Experimental_stims/faces/daniel-rigdon-dXmXKPP2L4E-unsplash.jpg,Stimuli/Experimental_stims/body_parts/engin-akyurt-x_3gyC42btc-unsplash.jpg,0,1,1281,1,unchosen,13,26,faces,body_parts,2600,0,6,1
75,66556,0,76,1,1,0,no_gain4,gain3,A,B,0,3,outdoor_scenes,outdoor_scenes,75,99,Stimuli/Experimental_stims/outdoor_scenes/aleksandra-boguslawska-MS7KD9Ti7FQ-unsplash.jpg,Stimuli/Experimental_stims/outdoor_scenes/henry-be-NLF6hTe4PAg-unsplash.jpg,0,0,888,1,chosen,3,0,outdoor_scenes,outdoor_scenes,3600,1,6,1
76,66556,0,77,2,2,1,gain4,no_gain6,E,H,35,9,body_parts,outdoor_scenes,50,76,Stimuli/Experimental_stims/body_parts/wc-so-KH4AAPjb-tI-unsplash.jpg,Stimuli/Experimental_stims/outdoor_scenes/sergey-pesterev-y-b_FOmJXdg-unsplash.jpg,0,0,610,0,unchosen,9,35,outdoor_scenes,body_parts,3100,1,4,1
77,66556,0,78,2,2,1,gain3,no_gain1,B,I,3,6,outdoor_scenes,outdoor_scenes,99,96,Stimuli/Experimental_stims/outdoor_scenes/henry-be-NLF6hTe4PAg-unsplash.jpg,Stimuli/Experimental_stims/outdoor_scenes/meng-ji-8BH_M-53CyA-unsplash.jpg,0,0,618,0,chosen,6,3,outdoor_scenes,outdoor_scenes,2600,0,4,1
78,66556,0,79,2,2,0,no_gain5,gain5,C,K,11,45,outdoor_scenes,objects,98,50,Stimuli/Experimental_stims/outdoor_scenes/stephen-leonardi-gyIRjKPXupE-unsplash.jpg,Stimuli/Experimental_stims/objects/leohoho-rngTKHXumy0-unsplash.jpg,0,1,721,0,chosen,11,45,outdoor_scenes,objects,1800,0,4,1
79,66556,0,80,2,2,0,no_gain5,gain2,C,G,26,38,body_parts,objects,50,81,Stimuli/Experimental_stims/body_parts/engin-akyurt-x_3gyC42btc-unsplash.jpg,Stimuli/Experimental_stims/objects/art-lasovsky-8XddFc6NkBY-unsplash.jpg,0,0,1069,1,unchosen,38,26,objects,body_parts,1000,0,4,1
80,66556,0,81,2,2,0,no_gain5,gain6,C,L,11,15,outdoor_scenes,faces,98,50,Stimuli/Experimental_stims/outdoor_scenes/stephen-leonardi-gyIRjKPXupE-unsplash.jpg,Stimuli/Experimental_stims/faces/erik-lucatero-d2MSDujJl2g-unsplash.jpg,0,1,1271,0,chosen,11,15,outdoor_scenes,faces,2300,0,4,1
81,66556,0,82,2,2,1,gain2,no_gain1,G,I,4,6,outdoor_scenes,outdoor_scenes,98,96,Stimuli/Experimental_stims/outdoor_scenes/jarrett-kow-1ZOyYPOBn7I-unsplash.jpg,Stimuli/Experimental_stims/outdoor_scenes/meng-ji-8BH_M-53CyA-unsplash.jpg,0,0,746,0,chosen,6,4,outdoor_scenes,outdoor_scenes,1100,0,4,1
82,66556,0,83,2,2,1,gain6,no_gain4,L,A,15,0,faces,outdoor_scenes,50,75,Stimuli/Experimental_stims/faces/erik-lucatero-d2MSDujJl2g-unsplash.jpg,Stimuli/Experimental_stims/outdoor_scenes/aleksandra-boguslawska-MS7KD9Ti7FQ-unsplash.jpg,0,1,1182,1,chosen,15,0,faces,outdoor_scenes,1500,0,4,1
83,66556,0,84,2,2,1,gain1,no_gain4,F,A,29,39,body_parts,objects,50,74,Stimuli/Experimental_stims/body_parts/manuel-schinner-ZwjFuJ7ebpk-unsplash.jpg,Stimuli/Experimental_stims/objects/charlesdeluvio-1-nx1QR5dTE-unsplash.jpg,1,NaN,,NaN,unchosen,NaN,NaN,NaN,NaN,2400,0,4,1
84,66556,0,85,2,2,0,no_gain2,gain2,J,G,21,38,faces,objects,50,81,Stimuli/Experimental_stims/faces/leilani-angel-K84vnnzxmTQ-unsplash.jpg,Stimuli/Experimental_stims/objects/art-lasovsky-8XddFc6NkBY-unsplash.jpg,0,0,520,1,unchosen,38,21,objects,faces,2300,0,4,1
85,66556,0,86,2,2,1,gain6,no_gain3,L,D,15,41,faces,objects,50,95,Stimuli/Experimental_stims/faces/erik-lucatero-d2MSDujJl2g-unsplash.jpg,Stimuli/Experimental_stims/objects/insung-yoon-w2JtIQQXoRU-unsplash.jpg,0,0,913,0,chosen,41,15,objects,faces,1200,0,4,1
86,66556,0,87,2,2,0,no_gain5,gain4,C,E,26,35,body_parts,body_parts,50,50,Stimuli/Experimental_stims/body_parts/engin-akyurt-x_3gyC42btc-unsplash.jpg,Stimuli/Experimental_stims/body_parts/wc-so-KH4AAPjb-tI-unsplash.jpg,0,0,1165,1,unchosen,35,26,body_parts,body_parts,1300,0,4,1
87,66556,0,88,2,2,1,gain2,no_gain2,G,J,4,37,outdoor_scenes,objects,98,50,Stimuli/Experimental_stims/outdoor_scenes/jarrett-kow-1ZOyYPOBn7I-unsplash.jpg,Stimuli/Experimental_stims/objects/alexander-andrews-VLGWE_SumrA-unsplash.jpg,0,1,1000,1,chosen,4,37,outdoor_scenes,objects,3700,1,4,1
88,66556,0,89,2,2,1,gain5,no_gain3,K,D,45,41,objects,objects,50,95,Stimuli/Experimental_stims/objects/leohoho-rngTKHXumy0-unsplash.jpg,Stimuli/Experimental_stims/objects/insung-yoon-w2JtIQQXoRU-unsplash.jpg,0,0,633,0,chosen,41,45,objects,objects,1600,0,4,1
89,66556,0,90,2,2,0,no_gain3,gain1,D,F,41,18,objects,faces,95,0,Stimuli/Experimental_stims/objects/insung-yoon-w2JtIQQXoRU-unsplash.jpg,Stimuli/Experimental_stims/faces/jessica-radanavong-mrYkTuAesKE-unsplash.jpg,0,1,1203,0,chosen,41,18,objects,faces,1700,0,4,1
90,66556,0,91,2,2,0,no_gain2,gain1,J,F,21,29,faces,body_parts,50,50,Stimuli/Experimental_stims/faces/leilani-angel-K84vnnzxmTQ-unsplash.jpg,Stimuli/Experimental_stims/body_parts/manuel-schinner-ZwjFuJ7ebpk-unsplash.jpg,0,1,840,0,unchosen,21,29,faces,body_parts,1200,0,4,1
91,66556,0,92,2,2,0,no_gain6,gain5,H,K,16,45,faces,objects,97,50,Stimuli/Experimental_stims/faces/freddy-kearney-o-ioeoATbIM-unsplash.jpg,Stimuli/Experimental_stims/objects/leohoho-rngTKHXumy0-unsplash.jpg,0,1,902,0,chosen,16,45,faces,objects,1100,0,4,1
92,66556,0,93,2,2,0,no_gain4,gain3,A,B,0,3,outdoor_scenes,outdoor_scenes,75,99,Stimuli/Experimental_stims/outdoor_scenes/aleksandra-boguslawska-MS7KD9Ti7FQ-unsplash.jpg,Stimuli/Experimental_stims/outdoor_scenes/henry-be-NLF6hTe4PAg-unsplash.jpg,0,0,832,1,chosen,3,0,outdoor_scenes,outdoor_scenes,1300,0,4,1
93,66556,0,94,2,2,1,gain4,no_gain5,E,C,47,11,objects,outdoor_scenes,50,98,Stimuli/Experimental_stims/objects/ronaldo-arthur-vidal-Cdz_lvnl37k-unsplash.jpg,Stimuli/Experimental_stims/outdoor_scenes/stephen-leonardi-gyIRjKPXupE-unsplash.jpg,0,0,704,0,chosen,11,47,outdoor_scenes,objects,4500,1,4,1
94,66556,0,95,2,2,0,no_gain5,gain1,C,F,26,29,body_parts,body_parts,50,50,Stimuli/Experimental_stims/body_parts/engin-akyurt-x_3gyC42btc-unsplash.jpg,Stimuli/Experimental_stims/body_parts/manuel-schinner-ZwjFuJ7ebpk-unsplash.jpg,0,1,686,0,unchosen,26,29,body_parts,body_parts,1900,0,4,1
95,66556,0,96,2,2,1,gain1,no_gain3,F,D,29,17,body_parts,faces,50,75,Stimuli/Experimental_stims/body_parts/manuel-schinner-ZwjFuJ7ebpk-unsplash.jpg,Stimuli/Experimental_stims/faces/good-faces-xmSWVeGEnJw-unsplash.jpg,0,0,705,0,unchosen,17,29,faces,body_parts,1100,0,4,1
96,66556,0,97,2,2,1,gain3,no_gain3,B,D,13,17,faces,faces,50,75,Stimuli/Experimental_stims/faces/daniel-rigdon-dXmXKPP2L4E-unsplash.jpg,Stimuli/Experimental_stims/faces/good-faces-xmSWVeGEnJw-unsplash.jpg,0,0,982,0,unchosen,17,13,faces,faces,2300,0,4,1
97,66556,0,98,2,2,0,no_gain5,gain1,C,F,11,18,outdoor_scenes,faces,98,0,Stimuli/Experimental_stims/outdoor_scenes/stephen-leonardi-gyIRjKPXupE-unsplash.jpg,Stimuli/Experimental_stims/faces/jessica-radanavong-mrYkTuAesKE-unsplash.jpg,0,1,647,0,chosen,11,18,outdoor_scenes,faces,2800,0,4,1
98,66556,0,99,2,2,0,no_gain5,gain5,C,K,26,24,body_parts,body_parts,50,50,Stimuli/Experimental_stims/body_parts/engin-akyurt-x_3gyC42btc-unsplash.jpg,Stimuli/Experimental_stims/body_parts/clay-banks-LjqARJaJotc-unsplash.jpg,0,1,1242,0,unchosen,26,24,body_parts,body_parts,3200,1,4,1
99,66556,0,100,2,2,1,gain5,no_gain1,K,I,45,6,objects,outdoor_scenes,50,96,Stimuli/Experimental_stims/objects/leohoho-rngTKHXumy0-unsplash.jpg,Stimuli/Experimental_stims/outdoor_scenes/meng-ji-8BH_M-53CyA-unsplash.jpg,0,0,710,0,chosen,6,45,outdoor_scenes,objects,2000,0,4,1
100,66556,0,101,2,2,0,no_gain2,gain6,J,L,37,15,objects,faces,50,50,Stimuli/Experimental_stims/objects/alexander-andrews-VLGWE_SumrA-unsplash.jpg,Stimuli/Experimental_stims/faces/erik-lucatero-d2MSDujJl2g-unsplash.jpg,0,1,969,0,chosen,37,15,objects,faces,2500,0,4,1
101,66556,0,102,2,2,1,gain3,no_gain5,B,C,13,26,faces,body_parts,50,50,Stimuli/Experimental_stims/faces/daniel-rigdon-dXmXKPP2L4E-unsplash.jpg,Stimuli/Experimental_stims/body_parts/engin-akyurt-x_3gyC42btc-unsplash.jpg,0,1,1137,1,unchosen,13,26,faces,body_parts,1300,0,4,1
102,66556,0,103,2,2,1,gain6,no_gain3,L,D,28,17,body_parts,faces,50,75,Stimuli/Experimental_stims/body_parts/ira-vishnevskaya-8DQAvdCby1I-unsplash.jpg,Stimuli/Experimental_stims/faces/good-faces-xmSWVeGEnJw-unsplash.jpg,0,0,1080,0,unchosen,17,28,faces,body_parts,1300,0,4,1
103,66556,0,104,2,2,1,gain4,no_gain4,E,A,35,39,body_parts,objects,50,74,Stimuli/Experimental_stims/body_parts/wc-so-KH4AAPjb-tI-unsplash.jpg,Stimuli/Experimental_stims/objects/charlesdeluvio-1-nx1QR5dTE-unsplash.jpg,0,0,946,0,unchosen,39,35,objects,body_parts,4500,1,4,1
104,66556,0,105,2,2,1,gain6,no_gain1,L,I,15,6,faces,outdoor_scenes,50,96,Stimuli/Experimental_stims/faces/erik-lucatero-d2MSDujJl2g-unsplash.jpg,Stimuli/Experimental_stims/outdoor_scenes/meng-ji-8BH_M-53CyA-unsplash.jpg,0,0,556,0,chosen,6,15,outdoor_scenes,faces,1400,0,4,1
105,66556,0,106,2,2,1,gain2,no_gain6,G,H,38,9,objects,outdoor_scenes,81,76,Stimuli/Experimental_stims/objects/art-lasovsky-8XddFc6NkBY-unsplash.jpg,Stimuli/Experimental_stims/outdoor_scenes/sergey-pesterev-y-b_FOmJXdg-unsplash.jpg,0,1,607,1,unchosen,38,9,objects,outdoor_scenes,2600,0,4,1
106,66556,0,107,2,2,1,gain4,no_gain4,E,A,47,0,objects,outdoor_scenes,50,75,Stimuli/Experimental_stims/objects/ronaldo-arthur-vidal-Cdz_lvnl37k-unsplash.jpg,Stimuli/Experimental_stims/outdoor_scenes/aleksandra-boguslawska-MS7KD9Ti7FQ-unsplash.jpg,0,0,798,0,chosen,0,47,outdoor_scenes,objects,2100,0,4,1
107,66556,0,108,2,2,0,no_gain6,gain6,H,L,9,28,outdoor_scenes,body_parts,76,50,Stimuli/Experimental_stims/outdoor_scenes/sergey-pesterev-y-b_FOmJXdg-unsplash.jpg,Stimuli/Experimental_stims/body_parts/ira-vishnevskaya-8DQAvdCby1I-unsplash.jpg,1,NaN,,NaN,unchosen,NaN,NaN,NaN,NaN,2100,0,4,1
108,66556,0,109,2,2,1,gain4,no_gain3,E,D,35,17,body_parts,faces,50,75,Stimuli/Experimental_stims/body_parts/wc-so-KH4AAPjb-tI-unsplash.jpg,Stimuli/Experimental_stims/faces/good-faces-xmSWVeGEnJw-unsplash.jpg,0,0,895,0,unchosen,17,35,faces,body_parts,2600,0,4,1
109,66556,0,110,2,2,0,no_gain1,gain1,I,F,6,18,outdoor_scenes,faces,96,0,Stimuli/Experimental_stims/outdoor_scenes/meng-ji-8BH_M-53CyA-unsplash.jpg,Stimuli/Experimental_stims/faces/jessica-radanavong-mrYkTuAesKE-unsplash.jpg,0,1,611,0,chosen,6,18,outdoor_scenes,faces,3000,1,4,1
110,66556,0,111,2,2,1,gain2,no_gain4,G,A,4,0,outdoor_scenes,outdoor_scenes,98,75,Stimuli/Experimental_stims/outdoor_scenes/jarrett-kow-1ZOyYPOBn7I-unsplash.jpg,Stimuli/Experimental_stims/outdoor_scenes/aleksandra-boguslawska-MS7KD9Ti7FQ-unsplash.jpg,0,1,681,1,chosen,4,0,outdoor_scenes,outdoor_scenes,1100,0,4,1
111,66556,0,112,2,2,0,no_gain1,gain3,I,B,32,13,body_parts,faces,50,50,Stimuli/Experimental_stims/body_parts/towfiqu-barbhuiya-3AsiVDsZnHg-unsplash.jpg,Stimuli/Experimental_stims/faces/daniel-rigdon-dXmXKPP2L4E-unsplash.jpg,1,NaN,,NaN,unchosen,NaN,NaN,NaN,NaN,1000,0,4,1
112,66556,0,113,2,2,1,gain5,no_gain1,K,I,24,32,body_parts,body_parts,50,50,Stimuli/Experimental_stims/body_parts/clay-banks-LjqARJaJotc-unsplash.jpg,Stimuli/Experimental_stims/body_parts/towfiqu-barbhuiya-3AsiVDsZnHg-unsplash.jpg,0,0,457,0,unchosen,32,24,body_parts,body_parts,1300,0,4,1
113,66556,0,114,2,2,1,gain3,no_gain6,B,H,3,16,outdoor_scenes,faces,99,97,Stimuli/Experimental_stims/outdoor_scenes/henry-be-NLF6hTe4PAg-unsplash.jpg,Stimuli/Experimental_stims/faces/freddy-kearney-o-ioeoATbIM-unsplash.jpg,0,1,1129,1,chosen,3,16,outdoor_scenes,faces,1000,0,4,1
114,66556,0,115,2,2,0,no_gain1,gain1,I,F,32,29,body_parts,body_parts,50,50,Stimuli/Experimental_stims/body_parts/towfiqu-barbhuiya-3AsiVDsZnHg-unsplash.jpg,Stimuli/Experimental_stims/body_parts/manuel-schinner-ZwjFuJ7ebpk-unsplash.jpg,1,NaN,,NaN,unchosen,NaN,NaN,NaN,NaN,1200,0,4,1
115,66556,0,116,2,2,0,no_gain5,gain3,C,B,11,3,outdoor_scenes,outdoor_scenes,98,99,Stimuli/Experimental_stims/outdoor_scenes/stephen-leonardi-gyIRjKPXupE-unsplash.jpg,Stimuli/Experimental_stims/outdoor_scenes/henry-be-NLF6hTe4PAg-unsplash.jpg,0,0,421,1,chosen,3,11,outdoor_scenes,outdoor_scenes,1800,0,4,1
116,66556,0,117,2,2,1,gain5,no_gain2,K,J,24,21,body_parts,faces,50,50,Stimuli/Experimental_stims/body_parts/clay-banks-LjqARJaJotc-unsplash.jpg,Stimuli/Experimental_stims/faces/leilani-angel-K84vnnzxmTQ-unsplash.jpg,0,1,242,1,unchosen,24,21,body_parts,faces,2300,0,4,1
117,66556,0,118,2,2,1,gain4,no_gain1,E,I,47,6,objects,outdoor_scenes,50,96,Stimuli/Experimental_stims/objects/ronaldo-arthur-vidal-Cdz_lvnl37k-unsplash.jpg,Stimuli/Experimental_stims/outdoor_scenes/meng-ji-8BH_M-53CyA-unsplash.jpg,0,0,350,0,chosen,6,47,outdoor_scenes,objects,3500,1,4,1
118,66556,0,119,2,2,0,no_gain2,gain6,J,L,21,28,faces,body_parts,50,50,Stimuli/Experimental_stims/faces/leilani-angel-K84vnnzxmTQ-unsplash.jpg,Stimuli/Experimental_stims/body_parts/ira-vishnevskaya-8DQAvdCby1I-unsplash.jpg,0,1,801,0,unchosen,21,28,faces,body_parts,1300,0,4,1
119,66556,0,120,2,2,0,no_gain2,gain5,J,K,37,45,objects,objects,50,50,Stimuli/Experimental_stims/objects/alexander-andrews-VLGWE_SumrA-unsplash.jpg,Stimuli/Experimental_stims/objects/leohoho-rngTKHXumy0-unsplash.jpg,0,0,1206,1,chosen,45,37,objects,objects,1400,0,4,1
120,66556,0,121,2,2,1,gain3,no_gain3,B,D,3,41,outdoor_scenes,objects,99,95,Stimuli/Experimental_stims/outdoor_scenes/henry-be-NLF6hTe4PAg-unsplash.jpg,Stimuli/Experimental_stims/objects/insung-yoon-w2JtIQQXoRU-unsplash.jpg,0,1,609,1,chosen,3,41,outdoor_scenes,objects,1300,0,4,1
121,66556,0,122,2,2,1,gain6,no_gain1,L,I,28,32,body_parts,body_parts,50,50,Stimuli/Experimental_stims/body_parts/ira-vishnevskaya-8DQAvdCby1I-unsplash.jpg,Stimuli/Experimental_stims/body_parts/towfiqu-barbhuiya-3AsiVDsZnHg-unsplash.jpg,0,0,1194,0,unchosen,32,28,body_parts,body_parts,2800,0,4,1
122,66556,0,123,2,2,1,gain5,no_gain6,K,H,24,9,body_parts,outdoor_scenes,50,76,Stimuli/Experimental_stims/body_parts/clay-banks-LjqARJaJotc-unsplash.jpg,Stimuli/Experimental_stims/outdoor_scenes/sergey-pesterev-y-b_FOmJXdg-unsplash.jpg,0,0,497,0,unchosen,9,24,outdoor_scenes,body_parts,1800,0,4,1
123,66556,0,124,2,2,0,no_gain2,gain4,J,E,21,35,faces,body_parts,50,50,Stimuli/Experimental_stims/faces/leilani-angel-K84vnnzxmTQ-unsplash.jpg,Stimuli/Experimental_stims/body_parts/wc-so-KH4AAPjb-tI-unsplash.jpg,0,1,578,0,unchosen,21,35,faces,body_parts,1200,0,4,1
124,66556,0,125,2,2,0,no_gain3,gain4,D,E,41,47,objects,objects,95,50,Stimuli/Experimental_stims/objects/insung-yoon-w2JtIQQXoRU-unsplash.jpg,Stimuli/Experimental_stims/objects/ronaldo-arthur-vidal-Cdz_lvnl37k-unsplash.jpg,0,1,963,0,chosen,41,47,objects,objects,1000,0,4,1
125,66556,0,126,2,2,1,gain3,no_gain4,B,A,13,39,faces,objects,50,74,Stimuli/Experimental_stims/faces/daniel-rigdon-dXmXKPP2L4E-unsplash.jpg,Stimuli/Experimental_stims/objects/charlesdeluvio-1-nx1QR5dTE-unsplash.jpg,0,1,1242,1,unchosen,13,39,faces,objects,1600,0,4,1
126,66556,0,127,2,2,0,no_gain2,gain4,J,E,37,47,objects,objects,50,50,Stimuli/Experimental_stims/objects/alexander-andrews-VLGWE_SumrA-unsplash.jpg,Stimuli/Experimental_stims/objects/ronaldo-arthur-vidal-Cdz_lvnl37k-unsplash.jpg,0,1,503,0,chosen,37,47,objects,objects,1500,0,4,1
127,66556,0,128,2,2,0,no_gain5,gain2,C,G,11,4,outdoor_scenes,outdoor_scenes,98,98,Stimuli/Experimental_stims/outdoor_scenes/stephen-leonardi-gyIRjKPXupE-unsplash.jpg,Stimuli/Experimental_stims/outdoor_scenes/jarrett-kow-1ZOyYPOBn7I-unsplash.jpg,0,1,714,0,chosen,11,4,outdoor_scenes,outdoor_scenes,3300,1,4,1
128,66556,0,129,2,2,0,no_gain4,gain1,A,F,0,18,outdoor_scenes,faces,75,0,Stimuli/Experimental_stims/outdoor_scenes/aleksandra-boguslawska-MS7KD9Ti7FQ-unsplash.jpg,Stimuli/Experimental_stims/faces/jessica-radanavong-mrYkTuAesKE-unsplash.jpg,0,1,791,0,chosen,0,18,outdoor_scenes,faces,2200,0,4,1
129,66556,0,130,2,2,0,no_gain5,gain6,C,L,26,28,body_parts,body_parts,50,50,Stimuli/Experimental_stims/body_parts/engin-akyurt-x_3gyC42btc-unsplash.jpg,Stimuli/Experimental_stims/body_parts/ira-vishnevskaya-8DQAvdCby1I-unsplash.jpg,0,0,932,1,unchosen,28,26,body_parts,body_parts,2400,0,4,1
130,66556,0,131,2,2,1,gain2,no_gain3,G,D,4,41,outdoor_scenes,objects,98,95,Stimuli/Experimental_stims/outdoor_scenes/jarrett-kow-1ZOyYPOBn7I-unsplash.jpg,Stimuli/Experimental_stims/objects/insung-yoon-w2JtIQQXoRU-unsplash.jpg,0,1,524,1,chosen,4,41,outdoor_scenes,objects,1300,0,4,1
131,66556,0,132,2,2,1,gain6,no_gain4,L,A,28,39,body_parts,objects,50,74,Stimuli/Experimental_stims/body_parts/ira-vishnevskaya-8DQAvdCby1I-unsplash.jpg,Stimuli/Experimental_stims/objects/charlesdeluvio-1-nx1QR5dTE-unsplash.jpg,0,0,920,0,unchosen,39,28,objects,body_parts,2400,0,4,1
132,66556,0,133,2,2,0,no_gain1,gain4,I,E,32,35,body_parts,body_parts,50,50,Stimuli/Experimental_stims/body_parts/towfiqu-barbhuiya-3AsiVDsZnHg-unsplash.jpg,Stimuli/Experimental_stims/body_parts/wc-so-KH4AAPjb-tI-unsplash.jpg,0,1,619,0,unchosen,32,35,body_parts,body_parts,2200,0,4,1
133,66556,0,134,2,2,0,no_gain6,gain4,H,E,16,47,faces,objects,97,50,Stimuli/Experimental_stims/faces/freddy-kearney-o-ioeoATbIM-unsplash.jpg,Stimuli/Experimental_stims/objects/ronaldo-arthur-vidal-Cdz_lvnl37k-unsplash.jpg,0,1,566,0,chosen,16,47,faces,objects,2900,1,4,1
134,66556,0,135,2,2,1,gain1,no_gain6,F,H,18,16,faces,faces,0,97,Stimuli/Experimental_stims/faces/jessica-radanavong-mrYkTuAesKE-unsplash.jpg,Stimuli/Experimental_stims/faces/freddy-kearney-o-ioeoATbIM-unsplash.jpg,0,0,541,0,chosen,16,18,faces,faces,1900,0,4,1
135,66556,0,136,2,2,0,no_gain1,gain2,I,G,32,38,body_parts,objects,50,81,Stimuli/Experimental_stims/body_parts/towfiqu-barbhuiya-3AsiVDsZnHg-unsplash.jpg,Stimuli/Experimental_stims/objects/art-lasovsky-8XddFc6NkBY-unsplash.jpg,0,0,847,1,unchosen,38,32,objects,body_parts,1700,0,4,1
136,66556,0,137,2,2,0,no_gain4,gain2,A,G,39,38,objects,objects,74,81,Stimuli/Experimental_stims/objects/charlesdeluvio-1-nx1QR5dTE-unsplash.jpg,Stimuli/Experimental_stims/objects/art-lasovsky-8XddFc6NkBY-unsplash.jpg,0,0,575,1,unchosen,38,39,objects,objects,1900,0,4,1
137,66556,0,138,2,2,1,gain6,no_gain6,L,H,15,16,faces,faces,50,97,Stimuli/Experimental_stims/faces/erik-lucatero-d2MSDujJl2g-unsplash.jpg,Stimuli/Experimental_stims/faces/freddy-kearney-o-ioeoATbIM-unsplash.jpg,0,0,560,0,chosen,16,15,faces,faces,1700,0,4,1
138,66556,0,139,2,2,0,no_gain3,gain2,D,G,17,38,faces,objects,75,81,Stimuli/Experimental_stims/faces/good-faces-xmSWVeGEnJw-unsplash.jpg,Stimuli/Experimental_stims/objects/art-lasovsky-8XddFc6NkBY-unsplash.jpg,0,0,632,1,unchosen,38,17,objects,faces,1300,0,4,1
139,66556,0,140,2,2,1,gain5,no_gain4,K,A,24,39,body_parts,objects,50,74,Stimuli/Experimental_stims/body_parts/clay-banks-LjqARJaJotc-unsplash.jpg,Stimuli/Experimental_stims/objects/charlesdeluvio-1-nx1QR5dTE-unsplash.jpg,0,0,591,0,unchosen,39,24,objects,body_parts,3600,1,4,1
140,66556,0,141,2,2,1,gain5,no_gain4,K,A,45,0,objects,outdoor_scenes,50,75,Stimuli/Experimental_stims/objects/leohoho-rngTKHXumy0-unsplash.jpg,Stimuli/Experimental_stims/outdoor_scenes/aleksandra-boguslawska-MS7KD9Ti7FQ-unsplash.jpg,0,0,641,0,chosen,0,45,outdoor_scenes,objects,1700,0,4,1
141,66556,0,142,2,2,0,no_gain6,gain2,H,G,16,4,faces,outdoor_scenes,97,98,Stimuli/Experimental_stims/faces/freddy-kearney-o-ioeoATbIM-unsplash.jpg,Stimuli/Experimental_stims/outdoor_scenes/jarrett-kow-1ZOyYPOBn7I-unsplash.jpg,0,1,1506,0,chosen,16,4,faces,outdoor_scenes,1900,0,4,1
142,66556,0,143,2,2,0,no_gain2,gain1,J,F,37,18,objects,faces,50,0,Stimuli/Experimental_stims/objects/alexander-andrews-VLGWE_SumrA-unsplash.jpg,Stimuli/Experimental_stims/faces/jessica-radanavong-mrYkTuAesKE-unsplash.jpg,0,0,489,1,chosen,18,37,faces,objects,2200,0,4,1
143,66556,0,144,2,2,0,no_gain3,gain5,D,K,17,24,faces,body_parts,75,50,Stimuli/Experimental_stims/faces/good-faces-xmSWVeGEnJw-unsplash.jpg,Stimuli/Experimental_stims/body_parts/clay-banks-LjqARJaJotc-unsplash.jpg,0,1,500,0,unchosen,17,24,faces,body_parts,1800,0,4,1
144,66556,0,145,2,2,0,no_gain6,gain3,H,B,9,13,outdoor_scenes,faces,76,50,Stimuli/Experimental_stims/outdoor_scenes/sergey-pesterev-y-b_FOmJXdg-unsplash.jpg,Stimuli/Experimental_stims/faces/daniel-rigdon-dXmXKPP2L4E-unsplash.jpg,0,0,429,1,unchosen,13,9,faces,outdoor_scenes,1400,0,4,1
145,66556,0,146,2,2,0,no_gain2,gain3,J,B,37,3,objects,outdoor_scenes,50,99,Stimuli/Experimental_stims/objects/alexander-andrews-VLGWE_SumrA-unsplash.jpg,Stimuli/Experimental_stims/outdoor_scenes/henry-be-NLF6hTe4PAg-unsplash.jpg,0,1,718,0,chosen,37,3,objects,outdoor_scenes,1800,0,4,1
146,66556,0,147,2,2,1,gain3,no_gain2,B,J,13,21,faces,faces,50,50,Stimuli/Experimental_stims/faces/daniel-rigdon-dXmXKPP2L4E-unsplash.jpg,Stimuli/Experimental_stims/faces/leilani-angel-K84vnnzxmTQ-unsplash.jpg,0,1,550,1,unchosen,13,21,faces,faces,1300,0,4,1
147,66556,0,148,2,2,1,gain1,no_gain6,F,H,29,9,body_parts,outdoor_scenes,50,76,Stimuli/Experimental_stims/body_parts/manuel-schinner-ZwjFuJ7ebpk-unsplash.jpg,Stimuli/Experimental_stims/outdoor_scenes/sergey-pesterev-y-b_FOmJXdg-unsplash.jpg,0,0,529,0,unchosen,9,29,outdoor_scenes,body_parts,3600,1,4,1
148,66556,0,149,3,3,1,gain3,no_gain6,B,H,13,9,faces,outdoor_scenes,50,76,Stimuli/Experimental_stims/faces/daniel-rigdon-dXmXKPP2L4E-unsplash.jpg,Stimuli/Experimental_stims/outdoor_scenes/sergey-pesterev-y-b_FOmJXdg-unsplash.jpg,0,1,609,1,unchosen,13,9,faces,outdoor_scenes,1200,0,5,1
149,66556,0,150,3,3,1,gain3,no_gain3,B,D,3,41,outdoor_scenes,objects,99,95,Stimuli/Experimental_stims/outdoor_scenes/henry-be-NLF6hTe4PAg-unsplash.jpg,Stimuli/Experimental_stims/objects/insung-yoon-w2JtIQQXoRU-unsplash.jpg,0,1,620,1,chosen,3,41,outdoor_scenes,objects,1100,0,5,1
150,66556,0,151,3,3,1,gain1,no_gain4,F,A,18,0,faces,outdoor_scenes,0,75,Stimuli/Experimental_stims/faces/jessica-radanavong-mrYkTuAesKE-unsplash.jpg,Stimuli/Experimental_stims/outdoor_scenes/aleksandra-boguslawska-MS7KD9Ti7FQ-unsplash.jpg,0,0,620,0,chosen,0,18,outdoor_scenes,faces,1100,0,5,1
151,66556,0,152,3,3,1,gain5,no_gain6,K,H,24,9,body_parts,outdoor_scenes,50,76,Stimuli/Experimental_stims/body_parts/clay-banks-LjqARJaJotc-unsplash.jpg,Stimuli/Experimental_stims/outdoor_scenes/sergey-pesterev-y-b_FOmJXdg-unsplash.jpg,0,0,485,0,unchosen,9,24,outdoor_scenes,body_parts,1300,0,5,1
152,66556,0,153,3,3,1,gain2,no_gain6,G,H,4,16,outdoor_scenes,faces,98,97,Stimuli/Experimental_stims/outdoor_scenes/jarrett-kow-1ZOyYPOBn7I-unsplash.jpg,Stimuli/Experimental_stims/faces/freddy-kearney-o-ioeoATbIM-unsplash.jpg,0,0,649,0,chosen,16,4,faces,outdoor_scenes,3300,1,5,1
153,66556,0,154,3,3,1,gain6,no_gain6,L,H,15,16,faces,faces,50,97,Stimuli/Experimental_stims/faces/erik-lucatero-d2MSDujJl2g-unsplash.jpg,Stimuli/Experimental_stims/faces/freddy-kearney-o-ioeoATbIM-unsplash.jpg,0,0,569,0,chosen,16,15,faces,faces,1000,0,5,1
154,66556,0,155,3,3,1,gain1,no_gain2,F,J,29,21,body_parts,faces,50,50,Stimuli/Experimental_stims/body_parts/manuel-schinner-ZwjFuJ7ebpk-unsplash.jpg,Stimuli/Experimental_stims/faces/leilani-angel-K84vnnzxmTQ-unsplash.jpg,0,0,461,0,unchosen,21,29,faces,body_parts,1300,0,5,1
155,66556,0,156,3,3,0,no_gain4,gain3,A,B,0,3,outdoor_scenes,outdoor_scenes,75,99,Stimuli/Experimental_stims/outdoor_scenes/aleksandra-boguslawska-MS7KD9Ti7FQ-unsplash.jpg,Stimuli/Experimental_stims/outdoor_scenes/henry-be-NLF6hTe4PAg-unsplash.jpg,0,0,518,1,chosen,3,0,outdoor_scenes,outdoor_scenes,1300,0,5,1
156,66556,0,157,3,3,0,no_gain4,gain4,A,E,0,47,outdoor_scenes,objects,75,50,Stimuli/Experimental_stims/outdoor_scenes/aleksandra-boguslawska-MS7KD9Ti7FQ-unsplash.jpg,Stimuli/Experimental_stims/objects/ronaldo-arthur-vidal-Cdz_lvnl37k-unsplash.jpg,0,1,673,0,chosen,0,47,outdoor_scenes,objects,1600,0,5,1
157,66556,0,158,3,3,1,gain6,no_gain3,L,D,15,41,faces,objects,50,95,Stimuli/Experimental_stims/faces/erik-lucatero-d2MSDujJl2g-unsplash.jpg,Stimuli/Experimental_stims/objects/insung-yoon-w2JtIQQXoRU-unsplash.jpg,0,0,568,0,chosen,41,15,objects,faces,1400,0,5,1
158,66556,0,159,3,3,0,no_gain1,gain2,I,G,32,38,body_parts,objects,50,81,Stimuli/Experimental_stims/body_parts/towfiqu-barbhuiya-3AsiVDsZnHg-unsplash.jpg,Stimuli/Experimental_stims/objects/art-lasovsky-8XddFc6NkBY-unsplash.jpg,0,0,425,1,unchosen,38,32,objects,body_parts,2100,0,5,1
159,66556,0,160,3,3,0,no_gain4,gain3,A,B,39,13,objects,faces,74,50,Stimuli/Experimental_stims/objects/charlesdeluvio-1-nx1QR5dTE-unsplash.jpg,Stimuli/Experimental_stims/faces/daniel-rigdon-dXmXKPP2L4E-unsplash.jpg,0,0,513,1,unchosen,13,39,faces,objects,1200,0,5,1
160,66556,0,161,3,3,0,no_gain1,gain3,I,B,6,3,outdoor_scenes,outdoor_scenes,96,99,Stimuli/Experimental_stims/outdoor_scenes/meng-ji-8BH_M-53CyA-unsplash.jpg,Stimuli/Experimental_stims/outdoor_scenes/henry-be-NLF6hTe4PAg-unsplash.jpg,0,0,641,1,chosen,3,6,outdoor_scenes,outdoor_scenes,4100,1,5,1
161,66556,0,162,3,3,0,no_gain1,gain4,I,E,32,35,body_parts,body_parts,50,50,Stimuli/Experimental_stims/body_parts/towfiqu-barbhuiya-3AsiVDsZnHg-unsplash.jpg,Stimuli/Experimental_stims/body_parts/wc-so-KH4AAPjb-tI-unsplash.jpg,0,1,544,0,unchosen,32,35,body_parts,body_parts,1900,0,5,1
162,66556,0,163,3,3,1,gain5,no_gain5,K,C,45,11,objects,outdoor_scenes,50,98,Stimuli/Experimental_stims/objects/leohoho-rngTKHXumy0-unsplash.jpg,Stimuli/Experimental_stims/outdoor_scenes/stephen-leonardi-gyIRjKPXupE-unsplash.jpg,0,0,511,0,chosen,11,45,outdoor_scenes,objects,2000,0,5,1
163,66556,0,164,3,3,0,no_gain2,gain5,J,K,21,24,faces,body_parts,50,50,Stimuli/Experimental_stims/faces/leilani-angel-K84vnnzxmTQ-unsplash.jpg,Stimuli/Experimental_stims/body_parts/clay-banks-LjqARJaJotc-unsplash.jpg,0,1,617,0,unchosen,21,24,faces,body_parts,2600,0,5,1
164,66556,0,165,3,3,1,gain1,no_gain4,F,A,29,39,body_parts,objects,50,74,Stimuli/Experimental_stims/body_parts/manuel-schinner-ZwjFuJ7ebpk-unsplash.jpg,Stimuli/Experimental_stims/objects/charlesdeluvio-1-nx1QR5dTE-unsplash.jpg,0,0,528,0,unchosen,39,29,objects,body_parts,1100,0,5,1
165,66556,0,166,3,3,0,no_gain4,gain5,A,K,0,45,outdoor_scenes,objects,75,50,Stimuli/Experimental_stims/outdoor_scenes/aleksandra-boguslawska-MS7KD9Ti7FQ-unsplash.jpg,Stimuli/Experimental_stims/objects/leohoho-rngTKHXumy0-unsplash.jpg,0,1,668,0,chosen,0,45,outdoor_scenes,objects,4400,1,5,1
166,66556,0,167,3,3,0,no_gain5,gain4,C,E,26,35,body_parts,body_parts,50,50,Stimuli/Experimental_stims/body_parts/engin-akyurt-x_3gyC42btc-unsplash.jpg,Stimuli/Experimental_stims/body_parts/wc-so-KH4AAPjb-tI-unsplash.jpg,0,0,1098,1,unchosen,35,26,body_parts,body_parts,1200,0,5,1
167,66556,0,168,3,3,0,no_gain5,gain6,C,L,11,15,outdoor_scenes,faces,98,50,Stimuli/Experimental_stims/outdoor_scenes/stephen-leonardi-gyIRjKPXupE-unsplash.jpg,Stimuli/Experimental_stims/faces/erik-lucatero-d2MSDujJl2g-unsplash.jpg,0,1,868,0,chosen,11,15,outdoor_scenes,faces,1100,0,5,1
168,66556,0,169,3,3,1,gain1,no_gain6,F,H,29,9,body_parts,outdoor_scenes,50,76,Stimuli/Experimental_stims/body_parts/manuel-schinner-ZwjFuJ7ebpk-unsplash.jpg,Stimuli/Experimental_stims/outdoor_scenes/sergey-pesterev-y-b_FOmJXdg-unsplash.jpg,0,0,1124,0,unchosen,9,29,outdoor_scenes,body_parts,1700,0,5,1
169,66556,0,170,3,3,1,gain2,no_gain2,G,J,4,37,outdoor_scenes,objects,98,50,Stimuli/Experimental_stims/outdoor_scenes/jarrett-kow-1ZOyYPOBn7I-unsplash.jpg,Stimuli/Experimental_stims/objects/alexander-andrews-VLGWE_SumrA-unsplash.jpg,0,1,513,1,chosen,4,37,outdoor_scenes,objects,1100,0,5,1
170,66556,0,171,3,3,0,no_gain2,gain4,J,E,21,35,faces,body_parts,50,50,Stimuli/Experimental_stims/faces/leilani-angel-K84vnnzxmTQ-unsplash.jpg,Stimuli/Experimental_stims/body_parts/wc-so-KH4AAPjb-tI-unsplash.jpg,0,1,996,0,unchosen,21,35,faces,body_parts,3300,1,5,1
171,66556,0,172,3,3,0,no_gain3,gain2,D,G,41,4,objects,outdoor_scenes,95,98,Stimuli/Experimental_stims/objects/insung-yoon-w2JtIQQXoRU-unsplash.jpg,Stimuli/Experimental_stims/outdoor_scenes/jarrett-kow-1ZOyYPOBn7I-unsplash.jpg,0,0,597,1,chosen,4,41,outdoor_scenes,objects,2800,0,5,1
172,66556,0,173,3,3,0,no_gain4,gain2,A,G,0,4,outdoor_scenes,outdoor_scenes,75,98,Stimuli/Experimental_stims/outdoor_scenes/aleksandra-boguslawska-MS7KD9Ti7FQ-unsplash.jpg,Stimuli/Experimental_stims/outdoor_scenes/jarrett-kow-1ZOyYPOBn7I-unsplash.jpg,0,1,741,0,chosen,0,4,outdoor_scenes,outdoor_scenes,1000,0,5,1
173,66556,0,174,3,3,0,no_gain1,gain6,I,L,32,28,body_parts,body_parts,50,50,Stimuli/Experimental_stims/body_parts/towfiqu-barbhuiya-3AsiVDsZnHg-unsplash.jpg,Stimuli/Experimental_stims/body_parts/ira-vishnevskaya-8DQAvdCby1I-unsplash.jpg,0,0,603,1,unchosen,28,32,body_parts,body_parts,3100,0,5,1
174,66556,0,175,3,3,1,gain4,no_gain1,E,I,47,6,objects,outdoor_scenes,50,96,Stimuli/Experimental_stims/objects/ronaldo-arthur-vidal-Cdz_lvnl37k-unsplash.jpg,Stimuli/Experimental_stims/outdoor_scenes/meng-ji-8BH_M-53CyA-unsplash.jpg,0,1,276,1,chosen,47,6,objects,outdoor_scenes,2000,0,5,1
175,66556,0,176,3,3,0,no_gain6,gain6,H,L,9,28,outdoor_scenes,body_parts,76,50,Stimuli/Experimental_stims/outdoor_scenes/sergey-pesterev-y-b_FOmJXdg-unsplash.jpg,Stimuli/Experimental_stims/body_parts/ira-vishnevskaya-8DQAvdCby1I-unsplash.jpg,0,0,287,1,unchosen,28,9,body_parts,outdoor_scenes,2300,0,5,1
176,66556,0,177,3,3,0,no_gain2,gain5,J,K,37,45,objects,objects,50,50,Stimuli/Experimental_stims/objects/alexander-andrews-VLGWE_SumrA-unsplash.jpg,Stimuli/Experimental_stims/objects/leohoho-rngTKHXumy0-unsplash.jpg,0,1,222,0,chosen,37,45,objects,objects,1500,0,5,1
177,66556,0,178,3,3,0,no_gain5,gain2,C,G,26,38,body_parts,objects,50,81,Stimuli/Experimental_stims/body_parts/engin-akyurt-x_3gyC42btc-unsplash.jpg,Stimuli/Experimental_stims/objects/art-lasovsky-8XddFc6NkBY-unsplash.jpg,0,0,360,1,unchosen,38,26,objects,body_parts,1600,0,5,1
178,66556,0,179,3,3,1,gain6,no_gain1,L,I,15,6,faces,outdoor_scenes,50,96,Stimuli/Experimental_stims/faces/erik-lucatero-d2MSDujJl2g-unsplash.jpg,Stimuli/Experimental_stims/outdoor_scenes/meng-ji-8BH_M-53CyA-unsplash.jpg,0,0,491,0,chosen,6,15,outdoor_scenes,faces,4200,1,5,1
179,66556,0,180,3,3,0,no_gain5,gain4,C,E,11,47,outdoor_scenes,objects,98,50,Stimuli/Experimental_stims/outdoor_scenes/stephen-leonardi-gyIRjKPXupE-unsplash.jpg,Stimuli/Experimental_stims/objects/ronaldo-arthur-vidal-Cdz_lvnl37k-unsplash.jpg,0,1,583,0,chosen,11,47,outdoor_scenes,objects,1000,0,5,1
180,66556,0,181,3,3,0,no_gain6,gain3,H,B,16,3,faces,outdoor_scenes,97,99,Stimuli/Experimental_stims/faces/freddy-kearney-o-ioeoATbIM-unsplash.jpg,Stimuli/Experimental_stims/outdoor_scenes/henry-be-NLF6hTe4PAg-unsplash.jpg,0,0,391,1,chosen,3,16,outdoor_scenes,faces,2000,0,5,1
181,66556,0,182,3,3,1,gain4,no_gain3,E,D,35,17,body_parts,faces,50,75,Stimuli/Experimental_stims/body_parts/wc-so-KH4AAPjb-tI-unsplash.jpg,Stimuli/Experimental_stims/faces/good-faces-xmSWVeGEnJw-unsplash.jpg,0,0,481,0,unchosen,17,35,faces,body_parts,1700,0,5,1
182,66556,0,183,3,3,1,gain2,no_gain6,G,H,38,9,objects,outdoor_scenes,81,76,Stimuli/Experimental_stims/objects/art-lasovsky-8XddFc6NkBY-unsplash.jpg,Stimuli/Experimental_stims/outdoor_scenes/sergey-pesterev-y-b_FOmJXdg-unsplash.jpg,0,1,550,1,unchosen,38,9,objects,outdoor_scenes,2300,0,5,1
183,66556,0,184,3,3,1,gain4,no_gain4,E,A,35,39,body_parts,objects,50,74,Stimuli/Experimental_stims/body_parts/wc-so-KH4AAPjb-tI-unsplash.jpg,Stimuli/Experimental_stims/objects/charlesdeluvio-1-nx1QR5dTE-unsplash.jpg,0,0,498,0,unchosen,39,35,objects,body_parts,3300,1,5,1
184,66556,0,185,3,3,0,no_gain1,gain2,I,G,6,4,outdoor_scenes,outdoor_scenes,96,98,Stimuli/Experimental_stims/outdoor_scenes/meng-ji-8BH_M-53CyA-unsplash.jpg,Stimuli/Experimental_stims/outdoor_scenes/jarrett-kow-1ZOyYPOBn7I-unsplash.jpg,0,0,713,1,chosen,4,6,outdoor_scenes,outdoor_scenes,1100,0,5,1
185,66556,0,186,3,3,0,no_gain4,gain6,A,L,0,15,outdoor_scenes,faces,75,50,Stimuli/Experimental_stims/outdoor_scenes/aleksandra-boguslawska-MS7KD9Ti7FQ-unsplash.jpg,Stimuli/Experimental_stims/faces/erik-lucatero-d2MSDujJl2g-unsplash.jpg,0,1,765,0,chosen,0,15,outdoor_scenes,faces,1900,0,5,1
186,66556,0,187,3,3,1,gain3,no_gain5,B,C,3,11,outdoor_scenes,outdoor_scenes,99,98,Stimuli/Experimental_stims/outdoor_scenes/henry-be-NLF6hTe4PAg-unsplash.jpg,Stimuli/Experimental_stims/outdoor_scenes/stephen-leonardi-gyIRjKPXupE-unsplash.jpg,0,0,589,0,chosen,11,3,outdoor_scenes,outdoor_scenes,2400,0,5,1
187,66556,0,188,3,3,0,no_gain2,gain6,J,L,21,28,faces,body_parts,50,50,Stimuli/Experimental_stims/faces/leilani-angel-K84vnnzxmTQ-unsplash.jpg,Stimuli/Experimental_stims/body_parts/ira-vishnevskaya-8DQAvdCby1I-unsplash.jpg,0,1,690,0,unchosen,21,28,faces,body_parts,1900,0,5,1
188,66556,0,189,3,3,0,no_gain1,gain1,I,F,32,29,body_parts,body_parts,50,50,Stimuli/Experimental_stims/body_parts/towfiqu-barbhuiya-3AsiVDsZnHg-unsplash.jpg,Stimuli/Experimental_stims/body_parts/manuel-schinner-ZwjFuJ7ebpk-unsplash.jpg,0,1,550,0,unchosen,32,29,body_parts,body_parts,3300,1,5,1
189,66556,0,190,3,3,0,no_gain3,gain5,D,K,17,24,faces,body_parts,75,50,Stimuli/Experimental_stims/faces/good-faces-xmSWVeGEnJw-unsplash.jpg,Stimuli/Experimental_stims/body_parts/clay-banks-LjqARJaJotc-unsplash.jpg,0,1,521,0,unchosen,17,24,faces,body_parts,1200,0,5,1
190,66556,0,191,3,3,1,gain1,no_gain1,F,I,18,6,faces,outdoor_scenes,0,96,Stimuli/Experimental_stims/faces/jessica-radanavong-mrYkTuAesKE-unsplash.jpg,Stimuli/Experimental_stims/outdoor_scenes/meng-ji-8BH_M-53CyA-unsplash.jpg,0,0,892,0,chosen,6,18,outdoor_scenes,faces,1100,0,5,1
191,66556,0,192,3,3,0,no_gain4,gain5,A,K,39,24,objects,body_parts,74,50,Stimuli/Experimental_stims/objects/charlesdeluvio-1-nx1QR5dTE-unsplash.jpg,Stimuli/Experimental_stims/body_parts/clay-banks-LjqARJaJotc-unsplash.jpg,0,1,686,0,unchosen,39,24,objects,body_parts,1400,0,5,1
192,66556,0,193,3,3,1,gain3,no_gain1,B,I,13,32,faces,body_parts,50,50,Stimuli/Experimental_stims/faces/daniel-rigdon-dXmXKPP2L4E-unsplash.jpg,Stimuli/Experimental_stims/body_parts/towfiqu-barbhuiya-3AsiVDsZnHg-unsplash.jpg,0,1,1020,1,unchosen,13,32,faces,body_parts,2600,0,5,1
193,66556,0,194,3,3,1,gain6,no_gain4,L,A,28,39,body_parts,objects,50,74,Stimuli/Experimental_stims/body_parts/ira-vishnevskaya-8DQAvdCby1I-unsplash.jpg,Stimuli/Experimental_stims/objects/charlesdeluvio-1-nx1QR5dTE-unsplash.jpg,0,0,546,0,unchosen,39,28,objects,body_parts,1100,0,5,1
194,66556,0,195,3,3,1,gain1,no_gain3,F,D,18,41,faces,objects,0,95,Stimuli/Experimental_stims/faces/jessica-radanavong-mrYkTuAesKE-unsplash.jpg,Stimuli/Experimental_stims/objects/insung-yoon-w2JtIQQXoRU-unsplash.jpg,0,0,650,0,chosen,41,18,objects,faces,4100,1,5,1
195,66556,0,196,3,3,1,gain6,no_gain3,L,D,28,17,body_parts,faces,50,75,Stimuli/Experimental_stims/body_parts/ira-vishnevskaya-8DQAvdCby1I-unsplash.jpg,Stimuli/Experimental_stims/faces/good-faces-xmSWVeGEnJw-unsplash.jpg,0,0,489,0,unchosen,17,28,faces,body_parts,1000,0,5,1
196,66556,0,197,3,3,0,no_gain3,gain4,D,E,41,47,objects,objects,95,50,Stimuli/Experimental_stims/objects/insung-yoon-w2JtIQQXoRU-unsplash.jpg,Stimuli/Experimental_stims/objects/ronaldo-arthur-vidal-Cdz_lvnl37k-unsplash.jpg,0,1,1122,0,chosen,41,47,objects,objects,1800,0,5,1
197,66556,0,198,3,3,1,gain1,no_gain3,F,D,29,17,body_parts,faces,50,75,Stimuli/Experimental_stims/body_parts/manuel-schinner-ZwjFuJ7ebpk-unsplash.jpg,Stimuli/Experimental_stims/faces/good-faces-xmSWVeGEnJw-unsplash.jpg,0,0,582,0,unchosen,17,29,faces,body_parts,1600,0,5,1
198,66556,0,199,3,3,1,gain4,no_gain6,E,H,35,9,body_parts,outdoor_scenes,50,76,Stimuli/Experimental_stims/body_parts/wc-so-KH4AAPjb-tI-unsplash.jpg,Stimuli/Experimental_stims/outdoor_scenes/sergey-pesterev-y-b_FOmJXdg-unsplash.jpg,0,0,856,0,unchosen,9,35,outdoor_scenes,body_parts,2100,0,5,1
199,66556,0,200,3,3,1,gain2,no_gain4,G,A,38,39,objects,objects,81,74,Stimuli/Experimental_stims/objects/art-lasovsky-8XddFc6NkBY-unsplash.jpg,Stimuli/Experimental_stims/objects/charlesdeluvio-1-nx1QR5dTE-unsplash.jpg,0,1,616,1,unchosen,38,39,objects,objects,1700,0,5,1
200,66556,0,201,3,3,1,gain5,no_gain3,K,D,45,41,objects,objects,50,95,Stimuli/Experimental_stims/objects/leohoho-rngTKHXumy0-unsplash.jpg,Stimuli/Experimental_stims/objects/insung-yoon-w2JtIQQXoRU-unsplash.jpg,0,0,1070,0,chosen,41,45,objects,objects,3200,1,5,1
201,66556,0,202,3,3,0,no_gain6,gain4,H,E,16,47,faces,objects,97,50,Stimuli/Experimental_stims/faces/freddy-kearney-o-ioeoATbIM-unsplash.jpg,Stimuli/Experimental_stims/objects/ronaldo-arthur-vidal-Cdz_lvnl37k-unsplash.jpg,0,1,882,0,chosen,16,47,faces,objects,1100,0,5,1
202,66556,0,203,3,3,1,gain2,no_gain2,G,J,38,21,objects,faces,81,50,Stimuli/Experimental_stims/objects/art-lasovsky-8XddFc6NkBY-unsplash.jpg,Stimuli/Experimental_stims/faces/leilani-angel-K84vnnzxmTQ-unsplash.jpg,0,0,1076,0,unchosen,21,38,faces,objects,2800,0,5,1
203,66556,0,204,3,3,1,gain2,no_gain5,G,C,4,11,outdoor_scenes,outdoor_scenes,98,98,Stimuli/Experimental_stims/outdoor_scenes/jarrett-kow-1ZOyYPOBn7I-unsplash.jpg,Stimuli/Experimental_stims/outdoor_scenes/stephen-leonardi-gyIRjKPXupE-unsplash.jpg,0,0,1158,0,chosen,11,4,outdoor_scenes,outdoor_scenes,1400,0,5,1
204,66556,0,205,3,3,1,gain1,no_gain2,F,J,18,37,faces,objects,0,50,Stimuli/Experimental_stims/faces/jessica-radanavong-mrYkTuAesKE-unsplash.jpg,Stimuli/Experimental_stims/objects/alexander-andrews-VLGWE_SumrA-unsplash.jpg,0,1,1356,1,chosen,18,37,faces,objects,2200,0,5,1
205,66556,0,206,3,3,1,gain3,no_gain3,B,D,13,17,faces,faces,50,75,Stimuli/Experimental_stims/faces/daniel-rigdon-dXmXKPP2L4E-unsplash.jpg,Stimuli/Experimental_stims/faces/good-faces-xmSWVeGEnJw-unsplash.jpg,0,0,520,0,unchosen,17,13,faces,faces,1200,0,5,1
206,66556,0,207,3,3,0,no_gain6,gain5,H,K,16,45,faces,objects,97,50,Stimuli/Experimental_stims/faces/freddy-kearney-o-ioeoATbIM-unsplash.jpg,Stimuli/Experimental_stims/objects/leohoho-rngTKHXumy0-unsplash.jpg,0,1,1066,0,chosen,16,45,faces,objects,2100,0,5,1
207,66556,0,208,3,3,1,gain1,no_gain5,F,C,18,11,faces,outdoor_scenes,0,98,Stimuli/Experimental_stims/faces/jessica-radanavong-mrYkTuAesKE-unsplash.jpg,Stimuli/Experimental_stims/outdoor_scenes/stephen-leonardi-gyIRjKPXupE-unsplash.jpg,0,0,619,0,chosen,11,18,outdoor_scenes,faces,2600,0,5,1
208,66556,0,209,3,3,0,no_gain2,gain3,J,B,21,13,faces,faces,50,50,Stimuli/Experimental_stims/faces/leilani-angel-K84vnnzxmTQ-unsplash.jpg,Stimuli/Experimental_stims/faces/daniel-rigdon-dXmXKPP2L4E-unsplash.jpg,0,0,668,1,unchosen,13,21,faces,faces,3800,1,5,1
209,66556,0,210,3,3,0,no_gain6,gain1,H,F,16,18,faces,faces,97,0,Stimuli/Experimental_stims/faces/freddy-kearney-o-ioeoATbIM-unsplash.jpg,Stimuli/Experimental_stims/faces/jessica-radanavong-mrYkTuAesKE-unsplash.jpg,0,1,278,0,chosen,16,18,faces,faces,2300,0,5,1
210,66556,0,211,3,3,1,gain3,no_gain2,B,J,3,37,outdoor_scenes,objects,99,50,Stimuli/Experimental_stims/outdoor_scenes/henry-be-NLF6hTe4PAg-unsplash.jpg,Stimuli/Experimental_stims/objects/alexander-andrews-VLGWE_SumrA-unsplash.jpg,0,1,815,1,chosen,3,37,outdoor_scenes,objects,1500,0,5,1
211,66556,0,212,3,3,0,no_gain3,gain2,D,G,17,38,faces,objects,75,81,Stimuli/Experimental_stims/faces/good-faces-xmSWVeGEnJw-unsplash.jpg,Stimuli/Experimental_stims/objects/art-lasovsky-8XddFc6NkBY-unsplash.jpg,0,0,903,1,unchosen,38,17,objects,faces,1700,0,5,1
212,66556,0,213,3,3,1,gain5,no_gain5,K,C,24,26,body_parts,body_parts,50,50,Stimuli/Experimental_stims/body_parts/clay-banks-LjqARJaJotc-unsplash.jpg,Stimuli/Experimental_stims/body_parts/engin-akyurt-x_3gyC42btc-unsplash.jpg,1,NaN,,NaN,unchosen,NaN,NaN,NaN,NaN,1000,0,5,1
213,66556,0,214,3,3,1,gain6,no_gain5,L,C,28,26,body_parts,body_parts,50,50,Stimuli/Experimental_stims/body_parts/ira-vishnevskaya-8DQAvdCby1I-unsplash.jpg,Stimuli/Experimental_stims/body_parts/engin-akyurt-x_3gyC42btc-unsplash.jpg,0,1,851,1,unchosen,28,26,body_parts,body_parts,2800,0,5,1
214,66556,0,215,3,3,0,no_gain1,gain5,I,K,6,45,outdoor_scenes,objects,96,50,Stimuli/Experimental_stims/outdoor_scenes/meng-ji-8BH_M-53CyA-unsplash.jpg,Stimuli/Experimental_stims/objects/leohoho-rngTKHXumy0-unsplash.jpg,0,1,614,0,chosen,6,45,outdoor_scenes,objects,2400,0,5,1
215,66556,0,216,3,3,0,no_gain1,gain5,I,K,32,24,body_parts,body_parts,50,50,Stimuli/Experimental_stims/body_parts/towfiqu-barbhuiya-3AsiVDsZnHg-unsplash.jpg,Stimuli/Experimental_stims/body_parts/clay-banks-LjqARJaJotc-unsplash.jpg,0,0,423,1,unchosen,24,32,body_parts,body_parts,3800,1,5,1
216,66556,0,217,3,3,0,no_gain5,gain3,C,B,26,13,body_parts,faces,50,50,Stimuli/Experimental_stims/body_parts/engin-akyurt-x_3gyC42btc-unsplash.jpg,Stimuli/Experimental_stims/faces/daniel-rigdon-dXmXKPP2L4E-unsplash.jpg,0,1,35,0,unchosen,26,13,body_parts,faces,1500,0,5,1
217,66556,0,218,3,3,0,no_gain5,gain1,C,F,26,29,body_parts,body_parts,50,50,Stimuli/Experimental_stims/body_parts/engin-akyurt-x_3gyC42btc-unsplash.jpg,Stimuli/Experimental_stims/body_parts/manuel-schinner-ZwjFuJ7ebpk-unsplash.jpg,0,0,1226,1,unchosen,29,26,body_parts,body_parts,1100,0,5,1
218,66556,0,219,3,3,1,gain4,no_gain2,E,J,47,37,objects,objects,50,50,Stimuli/Experimental_stims/objects/ronaldo-arthur-vidal-Cdz_lvnl37k-unsplash.jpg,Stimuli/Experimental_stims/objects/alexander-andrews-VLGWE_SumrA-unsplash.jpg,0,1,866,1,chosen,47,37,objects,objects,1500,0,5,1
219,66556,0,220,3,3,0,no_gain2,gain6,J,L,37,15,objects,faces,50,50,Stimuli/Experimental_stims/objects/alexander-andrews-VLGWE_SumrA-unsplash.jpg,Stimuli/Experimental_stims/faces/erik-lucatero-d2MSDujJl2g-unsplash.jpg,0,1,695,0,chosen,37,15,objects,faces,2500,0,5,1
220,66556,0,221,4,4,0,no_gain5,gain1,C,F,26,29,body_parts,body_parts,50,50,Stimuli/Experimental_stims/body_parts/engin-akyurt-x_3gyC42btc-unsplash.jpg,Stimuli/Experimental_stims/body_parts/manuel-schinner-ZwjFuJ7ebpk-unsplash.jpg,0,1,857,0,unchosen,26,29,body_parts,body_parts,3400,1,3,1
221,66556,0,222,4,4,0,no_gain5,gain4,C,E,11,47,outdoor_scenes,objects,98,50,Stimuli/Experimental_stims/outdoor_scenes/stephen-leonardi-gyIRjKPXupE-unsplash.jpg,Stimuli/Experimental_stims/objects/ronaldo-arthur-vidal-Cdz_lvnl37k-unsplash.jpg,0,1,524,0,chosen,11,47,outdoor_scenes,objects,1500,0,3,1
222,66556,0,223,4,4,0,no_gain2,gain3,J,B,21,13,faces,faces,50,50,Stimuli/Experimental_stims/faces/leilani-angel-K84vnnzxmTQ-unsplash.jpg,Stimuli/Experimental_stims/faces/daniel-rigdon-dXmXKPP2L4E-unsplash.jpg,0,1,734,0,unchosen,21,13,faces,faces,2000,0,3,1
223,66556,0,224,4,4,0,no_gain4,gain3,A,B,39,13,objects,faces,74,50,Stimuli/Experimental_stims/objects/charlesdeluvio-1-nx1QR5dTE-unsplash.jpg,Stimuli/Experimental_stims/faces/daniel-rigdon-dXmXKPP2L4E-unsplash.jpg,0,0,500,1,unchosen,13,39,faces,objects,1100,0,3,1
224,66556,0,225,4,4,0,no_gain1,gain6,I,L,32,28,body_parts,body_parts,50,50,Stimuli/Experimental_stims/body_parts/towfiqu-barbhuiya-3AsiVDsZnHg-unsplash.jpg,Stimuli/Experimental_stims/body_parts/ira-vishnevskaya-8DQAvdCby1I-unsplash.jpg,0,1,891,0,unchosen,32,28,body_parts,body_parts,2700,0,3,1
225,66556,0,226,4,4,0,no_gain4,gain2,A,G,0,4,outdoor_scenes,outdoor_scenes,75,98,Stimuli/Experimental_stims/outdoor_scenes/aleksandra-boguslawska-MS7KD9Ti7FQ-unsplash.jpg,Stimuli/Experimental_stims/outdoor_scenes/jarrett-kow-1ZOyYPOBn7I-unsplash.jpg,0,0,681,1,chosen,4,0,outdoor_scenes,outdoor_scenes,1700,0,3,1
226,66556,0,227,4,4,0,no_gain1,gain1,I,F,6,18,outdoor_scenes,faces,96,0,Stimuli/Experimental_stims/outdoor_scenes/meng-ji-8BH_M-53CyA-unsplash.jpg,Stimuli/Experimental_stims/faces/jessica-radanavong-mrYkTuAesKE-unsplash.jpg,0,1,566,0,chosen,6,18,outdoor_scenes,faces,3500,1,3,1
227,66556,0,228,4,4,0,no_gain3,gain3,D,B,17,13,faces,faces,75,50,Stimuli/Experimental_stims/faces/good-faces-xmSWVeGEnJw-unsplash.jpg,Stimuli/Experimental_stims/faces/daniel-rigdon-dXmXKPP2L4E-unsplash.jpg,0,1,498,0,unchosen,17,13,faces,faces,2700,0,3,1
228,66556,0,229,4,4,1,gain4,no_gain5,E,C,35,26,body_parts,body_parts,50,50,Stimuli/Experimental_stims/body_parts/wc-so-KH4AAPjb-tI-unsplash.jpg,Stimuli/Experimental_stims/body_parts/engin-akyurt-x_3gyC42btc-unsplash.jpg,0,1,595,1,unchosen,35,26,body_parts,body_parts,1500,0,3,1
229,66556,0,230,4,4,0,no_gain6,gain1,H,F,16,18,faces,faces,97,0,Stimuli/Experimental_stims/faces/freddy-kearney-o-ioeoATbIM-unsplash.jpg,Stimuli/Experimental_stims/faces/jessica-radanavong-mrYkTuAesKE-unsplash.jpg,0,1,956,0,chosen,16,18,faces,faces,1700,0,3,1
230,66556,0,231,4,4,0,no_gain1,gain2,I,G,32,38,body_parts,objects,50,81,Stimuli/Experimental_stims/body_parts/towfiqu-barbhuiya-3AsiVDsZnHg-unsplash.jpg,Stimuli/Experimental_stims/objects/art-lasovsky-8XddFc6NkBY-unsplash.jpg,0,0,1285,1,unchosen,38,32,objects,body_parts,2300,0,3,1
231,66556,0,232,4,4,0,no_gain4,gain6,A,L,0,15,outdoor_scenes,faces,75,50,Stimuli/Experimental_stims/outdoor_scenes/aleksandra-boguslawska-MS7KD9Ti7FQ-unsplash.jpg,Stimuli/Experimental_stims/faces/erik-lucatero-d2MSDujJl2g-unsplash.jpg,0,1,743,0,chosen,0,15,outdoor_scenes,faces,3100,1,3,1
232,66556,0,233,4,4,1,gain5,no_gain3,K,D,45,41,objects,objects,50,95,Stimuli/Experimental_stims/objects/leohoho-rngTKHXumy0-unsplash.jpg,Stimuli/Experimental_stims/objects/insung-yoon-w2JtIQQXoRU-unsplash.jpg,0,0,716,0,chosen,41,45,objects,objects,1300,0,3,1
233,66556,0,234,4,4,1,gain1,no_gain3,F,D,18,41,faces,objects,0,95,Stimuli/Experimental_stims/faces/jessica-radanavong-mrYkTuAesKE-unsplash.jpg,Stimuli/Experimental_stims/objects/insung-yoon-w2JtIQQXoRU-unsplash.jpg,0,0,1085,0,chosen,41,18,objects,faces,1400,0,3,1
234,66556,0,235,4,4,1,gain2,no_gain4,G,A,38,39,objects,objects,81,74,Stimuli/Experimental_stims/objects/art-lasovsky-8XddFc6NkBY-unsplash.jpg,Stimuli/Experimental_stims/objects/charlesdeluvio-1-nx1QR5dTE-unsplash.jpg,0,1,720,1,unchosen,38,39,objects,objects,2500,0,3,1
235,66556,0,236,4,4,1,gain2,no_gain5,G,C,38,26,objects,body_parts,81,50,Stimuli/Experimental_stims/objects/art-lasovsky-8XddFc6NkBY-unsplash.jpg,Stimuli/Experimental_stims/body_parts/engin-akyurt-x_3gyC42btc-unsplash.jpg,0,1,593,1,unchosen,38,26,objects,body_parts,1500,0,3,1
236,66556,0,237,4,4,1,gain4,no_gain1,E,I,35,32,body_parts,body_parts,50,50,Stimuli/Experimental_stims/body_parts/wc-so-KH4AAPjb-tI-unsplash.jpg,Stimuli/Experimental_stims/body_parts/towfiqu-barbhuiya-3AsiVDsZnHg-unsplash.jpg,0,0,594,0,unchosen,32,35,body_parts,body_parts,1900,0,3,1
237,66556,0,238,4,4,1,gain6,no_gain3,L,D,15,41,faces,objects,50,95,Stimuli/Experimental_stims/faces/erik-lucatero-d2MSDujJl2g-unsplash.jpg,Stimuli/Experimental_stims/objects/insung-yoon-w2JtIQQXoRU-unsplash.jpg,0,0,1031,0,chosen,41,15,objects,faces,1200,0,3,1
238,66556,0,239,4,4,1,gain2,no_gain5,G,C,4,11,outdoor_scenes,outdoor_scenes,98,98,Stimuli/Experimental_stims/outdoor_scenes/jarrett-kow-1ZOyYPOBn7I-unsplash.jpg,Stimuli/Experimental_stims/outdoor_scenes/stephen-leonardi-gyIRjKPXupE-unsplash.jpg,0,0,1279,0,chosen,11,4,outdoor_scenes,outdoor_scenes,3500,1,3,1
239,66556,0,240,4,4,0,no_gain2,gain6,J,L,21,28,faces,body_parts,50,50,Stimuli/Experimental_stims/faces/leilani-angel-K84vnnzxmTQ-unsplash.jpg,Stimuli/Experimental_stims/body_parts/ira-vishnevskaya-8DQAvdCby1I-unsplash.jpg,0,1,777,0,unchosen,21,28,faces,body_parts,1500,0,3,1
240,66556,0,241,4,4,1,gain5,no_gain6,K,H,45,16,objects,faces,50,97,Stimuli/Experimental_stims/objects/leohoho-rngTKHXumy0-unsplash.jpg,Stimuli/Experimental_stims/faces/freddy-kearney-o-ioeoATbIM-unsplash.jpg,0,0,563,0,chosen,16,45,faces,objects,2200,0,3,1
241,66556,0,242,4,4,1,gain6,no_gain2,L,J,15,37,faces,objects,50,50,Stimuli/Experimental_stims/faces/erik-lucatero-d2MSDujJl2g-unsplash.jpg,Stimuli/Experimental_stims/objects/alexander-andrews-VLGWE_SumrA-unsplash.jpg,0,0,548,0,chosen,37,15,objects,faces,1100,0,3,1
242,66556,0,243,4,4,0,no_gain3,gain2,D,G,41,4,objects,outdoor_scenes,95,98,Stimuli/Experimental_stims/objects/insung-yoon-w2JtIQQXoRU-unsplash.jpg,Stimuli/Experimental_stims/outdoor_scenes/jarrett-kow-1ZOyYPOBn7I-unsplash.jpg,0,0,864,1,chosen,4,41,outdoor_scenes,objects,1300,0,3,1
243,66556,0,244,4,4,0,no_gain3,gain5,D,K,17,24,faces,body_parts,75,50,Stimuli/Experimental_stims/faces/good-faces-xmSWVeGEnJw-unsplash.jpg,Stimuli/Experimental_stims/body_parts/clay-banks-LjqARJaJotc-unsplash.jpg,0,1,505,0,unchosen,17,24,faces,body_parts,1500,0,3,1
244,66556,0,245,4,4,0,no_gain6,gain6,H,L,16,15,faces,faces,97,50,Stimuli/Experimental_stims/faces/freddy-kearney-o-ioeoATbIM-unsplash.jpg,Stimuli/Experimental_stims/faces/erik-lucatero-d2MSDujJl2g-unsplash.jpg,0,1,544,0,chosen,16,15,faces,faces,1100,0,3,1
245,66556,0,246,4,4,1,gain3,no_gain6,B,H,3,16,outdoor_scenes,faces,99,97,Stimuli/Experimental_stims/outdoor_scenes/henry-be-NLF6hTe4PAg-unsplash.jpg,Stimuli/Experimental_stims/faces/freddy-kearney-o-ioeoATbIM-unsplash.jpg,0,0,650,0,chosen,16,3,faces,outdoor_scenes,2000,0,3,1
246,66556,0,247,4,4,0,no_gain2,gain5,J,K,21,24,faces,body_parts,50,50,Stimuli/Experimental_stims/faces/leilani-angel-K84vnnzxmTQ-unsplash.jpg,Stimuli/Experimental_stims/body_parts/clay-banks-LjqARJaJotc-unsplash.jpg,0,1,529,0,unchosen,21,24,faces,body_parts,4700,1,3,1
247,66556,0,248,4,4,0,no_gain1,gain3,I,B,6,3,outdoor_scenes,outdoor_scenes,96,99,Stimuli/Experimental_stims/outdoor_scenes/meng-ji-8BH_M-53CyA-unsplash.jpg,Stimuli/Experimental_stims/outdoor_scenes/henry-be-NLF6hTe4PAg-unsplash.jpg,0,1,607,0,chosen,6,3,outdoor_scenes,outdoor_scenes,2400,0,3,1
248,66556,0,249,4,4,1,gain4,no_gain2,E,J,35,21,body_parts,faces,50,50,Stimuli/Experimental_stims/body_parts/wc-so-KH4AAPjb-tI-unsplash.jpg,Stimuli/Experimental_stims/faces/leilani-angel-K84vnnzxmTQ-unsplash.jpg,0,0,938,0,unchosen,21,35,faces,body_parts,1100,0,3,1
249,66556,0,250,4,4,1,gain6,no_gain5,L,C,15,11,faces,outdoor_scenes,50,98,Stimuli/Experimental_stims/faces/erik-lucatero-d2MSDujJl2g-unsplash.jpg,Stimuli/Experimental_stims/outdoor_scenes/stephen-leonardi-gyIRjKPXupE-unsplash.jpg,0,0,817,0,chosen,11,15,outdoor_scenes,faces,2400,0,3,1
250,66556,0,251,4,4,1,gain4,no_gain6,E,H,35,9,body_parts,outdoor_scenes,50,76,Stimuli/Experimental_stims/body_parts/wc-so-KH4AAPjb-tI-unsplash.jpg,Stimuli/Experimental_stims/outdoor_scenes/sergey-pesterev-y-b_FOmJXdg-unsplash.jpg,0,0,788,0,unchosen,9,35,outdoor_scenes,body_parts,1600,0,3,1
251,66556,0,252,4,4,0,no_gain1,gain1,I,F,32,29,body_parts,body_parts,50,50,Stimuli/Experimental_stims/body_parts/towfiqu-barbhuiya-3AsiVDsZnHg-unsplash.jpg,Stimuli/Experimental_stims/body_parts/manuel-schinner-ZwjFuJ7ebpk-unsplash.jpg,0,0,424,1,unchosen,29,32,body_parts,body_parts,2300,0,3,1
252,66556,0,253,4,4,0,no_gain3,gain4,D,E,41,47,objects,objects,95,50,Stimuli/Experimental_stims/objects/insung-yoon-w2JtIQQXoRU-unsplash.jpg,Stimuli/Experimental_stims/objects/ronaldo-arthur-vidal-Cdz_lvnl37k-unsplash.jpg,0,1,399,0,chosen,41,47,objects,objects,2500,0,3,1
253,66556,0,254,4,4,1,gain3,no_gain5,B,C,3,11,outdoor_scenes,outdoor_scenes,99,98,Stimuli/Experimental_stims/outdoor_scenes/henry-be-NLF6hTe4PAg-unsplash.jpg,Stimuli/Experimental_stims/outdoor_scenes/stephen-leonardi-gyIRjKPXupE-unsplash.jpg,0,0,471,0,chosen,11,3,outdoor_scenes,outdoor_scenes,3700,1,3,1
254,66556,0,255,4,4,1,gain2,no_gain1,G,I,4,6,outdoor_scenes,outdoor_scenes,98,96,Stimuli/Experimental_stims/outdoor_scenes/jarrett-kow-1ZOyYPOBn7I-unsplash.jpg,Stimuli/Experimental_stims/outdoor_scenes/meng-ji-8BH_M-53CyA-unsplash.jpg,0,1,344,1,chosen,4,6,outdoor_scenes,outdoor_scenes,2100,0,3,1
255,66556,0,256,4,4,1,gain6,no_gain3,L,D,28,17,body_parts,faces,50,75,Stimuli/Experimental_stims/body_parts/ira-vishnevskaya-8DQAvdCby1I-unsplash.jpg,Stimuli/Experimental_stims/faces/good-faces-xmSWVeGEnJw-unsplash.jpg,0,0,562,0,unchosen,17,28,faces,body_parts,2300,0,3,1
256,66556,0,257,4,4,0,no_gain6,gain1,H,F,9,29,outdoor_scenes,body_parts,76,50,Stimuli/Experimental_stims/outdoor_scenes/sergey-pesterev-y-b_FOmJXdg-unsplash.jpg,Stimuli/Experimental_stims/body_parts/manuel-schinner-ZwjFuJ7ebpk-unsplash.jpg,0,1,570,0,unchosen,9,29,outdoor_scenes,body_parts,1700,0,3,1
257,66556,0,258,4,4,0,no_gain4,gain6,A,L,39,28,objects,body_parts,74,50,Stimuli/Experimental_stims/objects/charlesdeluvio-1-nx1QR5dTE-unsplash.jpg,Stimuli/Experimental_stims/body_parts/ira-vishnevskaya-8DQAvdCby1I-unsplash.jpg,0,1,561,0,unchosen,39,28,objects,body_parts,2900,0,3,1
258,66556,0,259,4,4,0,no_gain4,gain1,A,F,0,18,outdoor_scenes,faces,75,0,Stimuli/Experimental_stims/outdoor_scenes/aleksandra-boguslawska-MS7KD9Ti7FQ-unsplash.jpg,Stimuli/Experimental_stims/faces/jessica-radanavong-mrYkTuAesKE-unsplash.jpg,0,1,527,0,chosen,0,18,outdoor_scenes,faces,3000,1,3,1
259,66556,0,260,4,4,1,gain2,no_gain3,G,D,38,17,objects,faces,81,75,Stimuli/Experimental_stims/objects/art-lasovsky-8XddFc6NkBY-unsplash.jpg,Stimuli/Experimental_stims/faces/good-faces-xmSWVeGEnJw-unsplash.jpg,0,0,566,0,unchosen,17,38,faces,objects,2600,0,3,1
260,66556,0,261,4,4,0,no_gain6,gain5,H,K,9,24,outdoor_scenes,body_parts,76,50,Stimuli/Experimental_stims/outdoor_scenes/sergey-pesterev-y-b_FOmJXdg-unsplash.jpg,Stimuli/Experimental_stims/body_parts/clay-banks-LjqARJaJotc-unsplash.jpg,0,1,491,0,unchosen,9,24,outdoor_scenes,body_parts,1700,0,3,1
261,66556,0,262,4,4,0,no_gain3,gain1,D,F,17,29,faces,body_parts,75,50,Stimuli/Experimental_stims/faces/good-faces-xmSWVeGEnJw-unsplash.jpg,Stimuli/Experimental_stims/body_parts/manuel-schinner-ZwjFuJ7ebpk-unsplash.jpg,0,1,523,0,unchosen,17,29,faces,body_parts,1800,0,3,1
262,66556,0,263,4,4,1,gain5,no_gain5,K,C,45,11,objects,outdoor_scenes,50,98,Stimuli/Experimental_stims/objects/leohoho-rngTKHXumy0-unsplash.jpg,Stimuli/Experimental_stims/outdoor_scenes/stephen-leonardi-gyIRjKPXupE-unsplash.jpg,0,1,471,1,chosen,45,11,objects,outdoor_scenes,1400,0,3,1
263,66556,0,264,4,4,0,no_gain2,gain1,J,F,37,18,objects,faces,50,0,Stimuli/Experimental_stims/objects/alexander-andrews-VLGWE_SumrA-unsplash.jpg,Stimuli/Experimental_stims/faces/jessica-radanavong-mrYkTuAesKE-unsplash.jpg,0,1,827,0,chosen,37,18,objects,faces,2200,0,3,1
264,66556,0,265,4,4,0,no_gain2,gain1,J,F,21,29,faces,body_parts,50,50,Stimuli/Experimental_stims/faces/leilani-angel-K84vnnzxmTQ-unsplash.jpg,Stimuli/Experimental_stims/body_parts/manuel-schinner-ZwjFuJ7ebpk-unsplash.jpg,0,1,499,0,unchosen,21,29,faces,body_parts,3500,1,3,1
265,66556,0,266,4,4,1,gain3,no_gain3,B,D,3,41,outdoor_scenes,objects,99,95,Stimuli/Experimental_stims/outdoor_scenes/henry-be-NLF6hTe4PAg-unsplash.jpg,Stimuli/Experimental_stims/objects/insung-yoon-w2JtIQQXoRU-unsplash.jpg,0,1,542,1,chosen,3,41,outdoor_scenes,objects,1400,0,3,1
266,66556,0,267,4,4,0,no_gain2,gain4,J,E,37,47,objects,objects,50,50,Stimuli/Experimental_stims/objects/alexander-andrews-VLGWE_SumrA-unsplash.jpg,Stimuli/Experimental_stims/objects/ronaldo-arthur-vidal-Cdz_lvnl37k-unsplash.jpg,0,1,782,0,chosen,37,47,objects,objects,1100,0,3,1
267,66556,0,268,4,4,1,gain6,no_gain1,L,I,15,6,faces,outdoor_scenes,50,96,Stimuli/Experimental_stims/faces/erik-lucatero-d2MSDujJl2g-unsplash.jpg,Stimuli/Experimental_stims/outdoor_scenes/meng-ji-8BH_M-53CyA-unsplash.jpg,0,0,626,0,chosen,6,15,outdoor_scenes,faces,1300,0,3,1
268,66556,0,269,4,4,0,no_gain1,gain3,I,B,32,13,body_parts,faces,50,50,Stimuli/Experimental_stims/body_parts/towfiqu-barbhuiya-3AsiVDsZnHg-unsplash.jpg,Stimuli/Experimental_stims/faces/daniel-rigdon-dXmXKPP2L4E-unsplash.jpg,0,1,712,0,unchosen,32,13,body_parts,faces,2600,0,3,1
269,66556,0,270,4,4,0,no_gain4,gain4,A,E,0,47,outdoor_scenes,objects,75,50,Stimuli/Experimental_stims/outdoor_scenes/aleksandra-boguslawska-MS7KD9Ti7FQ-unsplash.jpg,Stimuli/Experimental_stims/objects/ronaldo-arthur-vidal-Cdz_lvnl37k-unsplash.jpg,0,1,625,0,chosen,0,47,outdoor_scenes,objects,1100,0,3,1
270,66556,0,271,4,4,1,gain1,no_gain4,F,A,29,39,body_parts,objects,50,74,Stimuli/Experimental_stims/body_parts/manuel-schinner-ZwjFuJ7ebpk-unsplash.jpg,Stimuli/Experimental_stims/objects/charlesdeluvio-1-nx1QR5dTE-unsplash.jpg,0,0,809,0,unchosen,39,29,objects,body_parts,1400,0,3,1
271,66556,0,272,4,4,1,gain4,no_gain3,E,D,35,17,body_parts,faces,50,75,Stimuli/Experimental_stims/body_parts/wc-so-KH4AAPjb-tI-unsplash.jpg,Stimuli/Experimental_stims/faces/good-faces-xmSWVeGEnJw-unsplash.jpg,0,1,769,1,unchosen,35,17,body_parts,faces,3200,1,3,1
272,66556,0,273,4,4,0,no_gain6,gain2,H,G,16,4,faces,outdoor_scenes,97,98,Stimuli/Experimental_stims/faces/freddy-kearney-o-ioeoATbIM-unsplash.jpg,Stimuli/Experimental_stims/outdoor_scenes/jarrett-kow-1ZOyYPOBn7I-unsplash.jpg,0,0,495,1,chosen,4,16,outdoor_scenes,faces,1600,0,3,1
273,66556,0,274,4,4,0,no_gain2,gain5,J,K,37,45,objects,objects,50,50,Stimuli/Experimental_stims/objects/alexander-andrews-VLGWE_SumrA-unsplash.jpg,Stimuli/Experimental_stims/objects/leohoho-rngTKHXumy0-unsplash.jpg,0,1,582,0,chosen,37,45,objects,objects,1000,0,3,1
274,66556,0,275,4,4,1,gain1,no_gain5,F,C,18,11,faces,outdoor_scenes,0,98,Stimuli/Experimental_stims/faces/jessica-radanavong-mrYkTuAesKE-unsplash.jpg,Stimuli/Experimental_stims/outdoor_scenes/stephen-leonardi-gyIRjKPXupE-unsplash.jpg,0,0,682,0,chosen,11,18,outdoor_scenes,faces,1700,0,3,1
275,66556,0,276,4,4,1,gain4,no_gain4,E,A,35,39,body_parts,objects,50,74,Stimuli/Experimental_stims/body_parts/wc-so-KH4AAPjb-tI-unsplash.jpg,Stimuli/Experimental_stims/objects/charlesdeluvio-1-nx1QR5dTE-unsplash.jpg,0,0,666,0,unchosen,39,35,objects,body_parts,1200,0,3,1
276,66556,0,277,4,4,1,gain3,no_gain5,B,C,13,26,faces,body_parts,50,50,Stimuli/Experimental_stims/faces/daniel-rigdon-dXmXKPP2L4E-unsplash.jpg,Stimuli/Experimental_stims/body_parts/engin-akyurt-x_3gyC42btc-unsplash.jpg,0,1,563,1,unchosen,13,26,faces,body_parts,2200,0,3,1
277,66556,0,278,4,4,0,no_gain5,gain6,C,L,26,28,body_parts,body_parts,50,50,Stimuli/Experimental_stims/body_parts/engin-akyurt-x_3gyC42btc-unsplash.jpg,Stimuli/Experimental_stims/body_parts/ira-vishnevskaya-8DQAvdCby1I-unsplash.jpg,0,0,1007,1,unchosen,28,26,body_parts,body_parts,2000,0,3,1
278,66556,0,279,4,4,1,gain3,no_gain4,B,A,3,0,outdoor_scenes,outdoor_scenes,99,75,Stimuli/Experimental_stims/outdoor_scenes/henry-be-NLF6hTe4PAg-unsplash.jpg,Stimuli/Experimental_stims/outdoor_scenes/aleksandra-boguslawska-MS7KD9Ti7FQ-unsplash.jpg,0,1,571,1,chosen,3,0,outdoor_scenes,outdoor_scenes,3100,1,3,1
279,66556,0,280,4,4,1,gain5,no_gain5,K,C,24,26,body_parts,body_parts,50,50,Stimuli/Experimental_stims/body_parts/clay-banks-LjqARJaJotc-unsplash.jpg,Stimuli/Experimental_stims/body_parts/engin-akyurt-x_3gyC42btc-unsplash.jpg,0,1,798,1,unchosen,24,26,body_parts,body_parts,2400,0,3,1
280,66556,0,281,4,4,1,gain4,no_gain1,E,I,47,6,objects,outdoor_scenes,50,96,Stimuli/Experimental_stims/objects/ronaldo-arthur-vidal-Cdz_lvnl37k-unsplash.jpg,Stimuli/Experimental_stims/outdoor_scenes/meng-ji-8BH_M-53CyA-unsplash.jpg,0,0,630,0,chosen,6,47,outdoor_scenes,objects,1000,0,3,1
281,66556,0,282,4,4,0,no_gain1,gain5,I,K,6,45,outdoor_scenes,objects,96,50,Stimuli/Experimental_stims/outdoor_scenes/meng-ji-8BH_M-53CyA-unsplash.jpg,Stimuli/Experimental_stims/objects/leohoho-rngTKHXumy0-unsplash.jpg,0,1,547,0,chosen,6,45,outdoor_scenes,objects,1900,0,3,1
282,66556,0,283,4,4,0,no_gain4,gain5,A,K,39,24,objects,body_parts,74,50,Stimuli/Experimental_stims/objects/charlesdeluvio-1-nx1QR5dTE-unsplash.jpg,Stimuli/Experimental_stims/body_parts/clay-banks-LjqARJaJotc-unsplash.jpg,0,1,600,0,unchosen,39,24,objects,body_parts,2400,0,3,1
283,66556,0,284,4,4,1,gain2,no_gain2,G,J,4,37,outdoor_scenes,objects,98,50,Stimuli/Experimental_stims/outdoor_scenes/jarrett-kow-1ZOyYPOBn7I-unsplash.jpg,Stimuli/Experimental_stims/objects/alexander-andrews-VLGWE_SumrA-unsplash.jpg,0,1,611,1,chosen,4,37,outdoor_scenes,objects,1300,0,3,1
284,66556,0,285,4,4,0,no_gain4,gain5,A,K,0,45,outdoor_scenes,objects,75,50,Stimuli/Experimental_stims/outdoor_scenes/aleksandra-boguslawska-MS7KD9Ti7FQ-unsplash.jpg,Stimuli/Experimental_stims/objects/leohoho-rngTKHXumy0-unsplash.jpg,0,1,611,0,chosen,0,45,outdoor_scenes,objects,1600,0,3,1
285,66556,0,286,4,4,1,gain6,no_gain6,L,H,28,9,body_parts,outdoor_scenes,50,76,Stimuli/Experimental_stims/body_parts/ira-vishnevskaya-8DQAvdCby1I-unsplash.jpg,Stimuli/Experimental_stims/outdoor_scenes/sergey-pesterev-y-b_FOmJXdg-unsplash.jpg,0,0,732,0,unchosen,9,28,outdoor_scenes,body_parts,1000,0,3,1
286,66556,0,287,4,4,0,no_gain6,gain4,H,E,16,47,faces,objects,97,50,Stimuli/Experimental_stims/faces/freddy-kearney-o-ioeoATbIM-unsplash.jpg,Stimuli/Experimental_stims/objects/ronaldo-arthur-vidal-Cdz_lvnl37k-unsplash.jpg,0,1,1082,0,chosen,16,47,faces,objects,1500,0,3,1
287,66556,0,288,4,4,1,gain5,no_gain1,K,I,24,32,body_parts,body_parts,50,50,Stimuli/Experimental_stims/body_parts/clay-banks-LjqARJaJotc-unsplash.jpg,Stimuli/Experimental_stims/body_parts/towfiqu-barbhuiya-3AsiVDsZnHg-unsplash.jpg,0,1,787,1,unchosen,24,32,body_parts,body_parts,1900,0,3,1
288,66556,0,289,4,4,1,gain3,no_gain2,B,J,3,37,outdoor_scenes,objects,99,50,Stimuli/Experimental_stims/outdoor_scenes/henry-be-NLF6hTe4PAg-unsplash.jpg,Stimuli/Experimental_stims/objects/alexander-andrews-VLGWE_SumrA-unsplash.jpg,0,1,606,1,chosen,3,37,outdoor_scenes,objects,1600,0,3,1
289,66556,0,290,4,4,1,gain3,no_gain6,B,H,13,9,faces,outdoor_scenes,50,76,Stimuli/Experimental_stims/faces/daniel-rigdon-dXmXKPP2L4E-unsplash.jpg,Stimuli/Experimental_stims/outdoor_scenes/sergey-pesterev-y-b_FOmJXdg-unsplash.jpg,0,0,688,0,unchosen,9,13,outdoor_scenes,faces,1200,0,3,1
290,66556,0,291,4,4,1,gain2,no_gain2,G,J,38,21,objects,faces,81,50,Stimuli/Experimental_stims/objects/art-lasovsky-8XddFc6NkBY-unsplash.jpg,Stimuli/Experimental_stims/faces/leilani-angel-K84vnnzxmTQ-unsplash.jpg,0,1,730,1,unchosen,38,21,objects,faces,1000,0,3,1
291,66556,0,292,4,4,1,gain2,no_gain6,G,H,38,9,objects,outdoor_scenes,81,76,Stimuli/Experimental_stims/objects/art-lasovsky-8XddFc6NkBY-unsplash.jpg,Stimuli/Experimental_stims/outdoor_scenes/sergey-pesterev-y-b_FOmJXdg-unsplash.jpg,0,0,550,0,unchosen,9,38,outdoor_scenes,objects,3200,1,3,1