,PID,practice,trial,block,run,gain_left,left_item_id,right_item_id,left_pair_id,right_pair_id,left_stimulus,right_stimulus,left_category,right_category,left_rating,right_rating,left_path,right_path,no_response,left_chosen,rt,higher_outcome_chosen,choice_type,chosen_stimulus,unchosen_stimulus,chosen_category,unchosen_category,iti,long_iti,simulation,version
0,56536,1,1,0,0,0,,,,,,,,,,,Stimuli/Practice_stims/Final_decisions/debby-hudson-FmCSSSGge-0-unsplash.jpg,Stimuli/Practice_stims/Final_decisions/yassine-khalfalli-adsQ9d_Cx0c-unsplash.jpg,0,0,939,1,,,,,,3000,0,6,1
1,56536,1,2,0,0,0,,,,,,,,,,,Stimuli/Practice_stims/Final_decisions/florian-wehde-iVW7mZPwd4g-unsplash.jpg,Stimuli/Practice_stims/Final_decisions/patrick-perkins-3wylDrjxH-E-unsplash.jpg,0,0,1363,1,,,,,,1500,0,6,1
2,56536,1,3,0,0,0,,,,,,,,,,,Stimuli/Practice_stims/Final_decisions/debby-hudson-FmCSSSGge-0-unsplash.jpg,Stimuli/Practice_stims/Final_decisions/florian-wehde-iVW7mZPwd4g-unsplash.jpg,0,0,1309,1,,,,,,2000,0,6,1
3,56536,1,4,0,0,0,,,,,,,,,,,Stimuli/Practice_stims/Final_decisions/yassine-khalfalli-adsQ9d_Cx0c-unsplash.jpg,Stimuli/Practice_stims/Final_decisions/debby-hudson-FmCSSSGge-0-unsplash.jpg,0,1,822,0,,,,,,1000,0,6,1
4,56536,0,5,1,1,0,no_gain4,gain5,K,B,39,17,objects,faces,44,56,Stimuli/Experimental_stims/objects/charlesdeluvio-1-nx1QR5dTE-unsplash.jpg,Stimuli/Experimental_stims/faces/good-faces-xmSWVeGEnJw-unsplash.jpg,0,1,451,0,chosen,39,17,objects,faces,1800,0,6,1
5,56536,0,6,1,1,1,gain3,no_gain6,H,D,19,14,faces,faces,64,46,Stimuli/Experimental_stims/faces/joel-mott-LaK153ghdig-unsplash.jpg,Stimuli/Experimental_stims/faces/david-siglin-UuW4psOb388-unsplash.jpg,0,1,807,1,chosen,19,14,faces,faces,1700,0,6,1
6,56536,0,7,1,1,1,gain6,no_gain3,C,F,7,13,outdoor_scenes,faces,74,42,Stimuli/Experimental_stims/outdoor_scenes/petr-vysohlid-9fqwGqGLUxc-unsplash.jpg,Stimuli/Experimental_stims/faces/daniel-rigdon-dXmXKPP2L4E-unsplash.jpg,0,1,1071,1,unchosen,7,13,outdoor_scenes,faces,2300,0,6,1
7,56536,0,8,1,1,0,no_gain2,gain3,G,H,11,19,outdoor_scenes,faces,82,64,Stimuli/Experimental_stims/outdoor_scenes/stephen-leonardi-gyIRjKPXupE-unsplash.jpg,Stimuli/Experimental_stims/faces/joel-mott-LaK153ghdig-unsplash.jpg,0,0,888,1,chosen,19,11,faces,outdoor_scenes,1700,0,6,1
8,56536,0,9,1,1,1,gain4,no_gain5,J,L,18,21,faces,faces,39,29,Stimuli/Experimental_stims/faces/jessica-radanavong-mrYkTuAesKE-unsplash.jpg,Stimuli/Experimental_stims/faces/leilani-angel-K84vnnzxmTQ-unsplash.jpg,0,0,1311,0,unchosen,21,18,faces,faces,3900,1,6,1
9,56536,0,10,1,1,1,gain2,no_gain5,A,L,44,21,objects,faces,27,29,Stimuli/Experimental_stims/objects/kuiye-chen-NuOGFo4PudE-unsplash.jpg,Stimuli/Experimental_stims/faces/leilani-angel-K84vnnzxmTQ-unsplash.jpg,0,0,1319,0,unchosen,21,44,faces,objects,1200,0,6,1
10,56536,0,11,1,1,1,gain2,no_gain5,A,L,6,27,outdoor_scenes,body_parts,72,94,Stimuli/Experimental_stims/outdoor_scenes/meng-ji-8BH_M-53CyA-unsplash.jpg,Stimuli/Experimental_stims/body_parts/heike-mintel-i_Gns0ELnLw-unsplash.jpg,0,1,856,1,chosen,6,27,outdoor_scenes,body_parts,1200,0,6,1
11,56536,0,12,1,1,0,no_gain5,gain5,L,B,27,17,body_parts,faces,94,56,Stimuli/Experimental_stims/body_parts/heike-mintel-i_Gns0ELnLw-unsplash.jpg,Stimuli/Experimental_stims/faces/good-faces-xmSWVeGEnJw-unsplash.jpg,0,0,643,1,chosen,17,27,faces,body_parts,2600,0,6,1
12,56536,0,13,1,1,0,no_gain1,gain4,E,J,25,18,body_parts,faces,40,39,Stimuli/Experimental_stims/body_parts/engin-akyurt-Q2rfH3GW39c-unsplash.jpg,Stimuli/Experimental_stims/faces/jessica-radanavong-mrYkTuAesKE-unsplash.jpg,0,0,1117,1,unchosen,18,25,faces,body_parts,2200,0,6,1
13,56536,0,14,1,1,1,gain4,no_gain6,J,D,46,14,objects,faces,94,46,Stimuli/Experimental_stims/objects/mockup-graphics-PNsj6RiHAF4-unsplash.jpg,Stimuli/Experimental_stims/faces/david-siglin-UuW4psOb388-unsplash.jpg,0,1,594,1,chosen,46,14,objects,faces,1700,0,6,1
14,56536,0,15,1,1,1,gain4,no_gain4,J,K,46,39,objects,objects,94,44,Stimuli/Experimental_stims/objects/mockup-graphics-PNsj6RiHAF4-unsplash.jpg,Stimuli/Experimental_stims/objects/charlesdeluvio-1-nx1QR5dTE-unsplash.jpg,0,1,547,1,chosen,46,39,objects,objects,3100,1,6,1
15,56536,0,16,1,1,1,gain2,no_gain1,A,E,44,25,objects,body_parts,27,40,Stimuli/Experimental_stims/objects/kuiye-chen-NuOGFo4PudE-unsplash.jpg,Stimuli/Experimental_stims/body_parts/engin-akyurt-Q2rfH3GW39c-unsplash.jpg,0,1,1127,1,unchosen,44,25,objects,body_parts,2100,0,6,1
16,56536,0,17,1,1,0,no_gain2,gain5,G,B,11,17,outdoor_scenes,faces,82,56,Stimuli/Experimental_stims/outdoor_scenes/stephen-leonardi-gyIRjKPXupE-unsplash.jpg,Stimuli/Experimental_stims/faces/good-faces-xmSWVeGEnJw-unsplash.jpg,0,0,713,1,chosen,17,11,faces,outdoor_scenes,1900,0,6,1
17,56536,0,18,1,1,0,no_gain1,gain5,E,B,43,17,objects,faces,33,56,Stimuli/Experimental_stims/objects/jonathan-greenaway-Y4hGgeiFn3s-unsplash.jpg,Stimuli/Experimental_stims/faces/good-faces-xmSWVeGEnJw-unsplash.jpg,0,0,624,1,chosen,17,43,faces,objects,1400,0,6,1
18,56536,0,19,1,1,1,gain3,no_gain5,H,L,19,27,faces,body_parts,64,94,Stimuli/Experimental_stims/faces/joel-mott-LaK153ghdig-unsplash.jpg,Stimuli/Experimental_stims/body_parts/heike-mintel-i_Gns0ELnLw-unsplash.jpg,0,1,561,1,chosen,19,27,faces,body_parts,1500,0,6,1
19,56536,0,20,1,1,0,no_gain4,gain2,K,A,30,44,body_parts,objects,66,27,Stimuli/Experimental_stims/body_parts/mika-korhonen-Xodzxosar18-unsplash.jpg,Stimuli/Experimental_stims/objects/kuiye-chen-NuOGFo4PudE-unsplash.jpg,0,0,1057,1,unchosen,44,30,objects,body_parts,1600,0,6,1
20,56536,0,21,1,1,0,no_gain1,gain3,E,H,43,19,objects,faces,33,64,Stimuli/Experimental_stims/objects/jonathan-greenaway-Y4hGgeiFn3s-unsplash.jpg,Stimuli/Experimental_stims/faces/joel-mott-LaK153ghdig-unsplash.jpg,0,0,655,1,chosen,19,43,faces,objects,3200,1,6,1
21,56536,0,22,1,1,1,gain5,no_gain5,B,L,2,21,outdoor_scenes,faces,25,29,Stimuli/Experimental_stims/outdoor_scenes/bruno-van-der-kraan-qez8mNJ3ilU-unsplash.jpg,Stimuli/Experimental_stims/faces/leilani-angel-K84vnnzxmTQ-unsplash.jpg,0,0,788,0,unchosen,21,2,faces,outdoor_scenes,1900,0,6,1
22,56536,0,23,1,1,0,no_gain6,gain6,D,C,37,7,objects,outdoor_scenes,39,74,Stimuli/Experimental_stims/objects/alexander-andrews-VLGWE_SumrA-unsplash.jpg,Stimuli/Experimental_stims/outdoor_scenes/petr-vysohlid-9fqwGqGLUxc-unsplash.jpg,0,1,1072,0,unchosen,37,7,objects,outdoor_scenes,1600,0,6,1
23,56536,0,24,1,1,0,no_gain6,gain2,D,A,14,6,faces,outdoor_scenes,46,72,Stimuli/Experimental_stims/faces/david-siglin-UuW4psOb388-unsplash.jpg,Stimuli/Experimental_stims/outdoor_scenes/meng-ji-8BH_M-53CyA-unsplash.jpg,0,0,579,1,chosen,6,14,outdoor_scenes,faces,1100,0,6,1
24,56536,0,25,1,1,1,gain4,no_gain2,J,G,18,47,faces,objects,39,56,Stimuli/Experimental_stims/faces/jessica-radanavong-mrYkTuAesKE-unsplash.jpg,Stimuli/Experimental_stims/objects/ronaldo-arthur-vidal-Cdz_lvnl37k-unsplash.jpg,0,1,972,1,unchosen,18,47,faces,objects,2200,0,6,1
25,56536,0,26,1,1,1,gain2,no_gain3,A,F,44,13,objects,faces,27,42,Stimuli/Experimental_stims/objects/kuiye-chen-NuOGFo4PudE-unsplash.jpg,Stimuli/Experimental_stims/faces/daniel-rigdon-dXmXKPP2L4E-unsplash.jpg,0,1,892,1,unchosen,44,13,objects,faces,3300,1,6,1
26,56536,0,27,1,1,0,no_gain2,gain4,G,J,11,46,outdoor_scenes,objects,82,94,Stimuli/Experimental_stims/outdoor_scenes/stephen-leonardi-gyIRjKPXupE-unsplash.jpg,Stimuli/Experimental_stims/objects/mockup-graphics-PNsj6RiHAF4-unsplash.jpg,0,0,557,1,chosen,46,11,objects,outdoor_scenes,2100,0,6,1
27,56536,0,28,1,1,0,no_gain2,gain2,G,A,47,44,objects,objects,56,27,Stimuli/Experimental_stims/objects/ronaldo-arthur-vidal-Cdz_lvnl37k-unsplash.jpg,Stimuli/Experimental_stims/objects/kuiye-chen-NuOGFo4PudE-unsplash.jpg,0,1,972,0,unchosen,47,44,objects,objects,1000,0,6,1
28,56536,0,29,1,1,0,no_gain4,gain3,K,H,30,0,body_parts,outdoor_scenes,66,19,Stimuli/Experimental_stims/body_parts/mika-korhonen-Xodzxosar18-unsplash.jpg,Stimuli/Experimental_stims/outdoor_scenes/aleksandra-boguslawska-MS7KD9Ti7FQ-unsplash.jpg,0,0,762,1,unchosen,0,30,outdoor_scenes,body_parts,2600,0,6,1
29,56536,0,30,1,1,0,no_gain3,gain2,F,A,34,6,body_parts,outdoor_scenes,15,72,Stimuli/Experimental_stims/body_parts/wagner-santos-mBWMvIuVnso-unsplash.jpg,Stimuli/Experimental_stims/outdoor_scenes/meng-ji-8BH_M-53CyA-unsplash.jpg,0,0,865,1,chosen,6,34,outdoor_scenes,body_parts,1500,0,6,1
30,56536,0,31,1,1,1,gain5,no_gain4,B,K,2,30,outdoor_scenes,body_parts,25,66,Stimuli/Experimental_stims/outdoor_scenes/bruno-van-der-kraan-qez8mNJ3ilU-unsplash.jpg,Stimuli/Experimental_stims/body_parts/mika-korhonen-Xodzxosar18-unsplash.jpg,0,1,924,1,unchosen,2,30,outdoor_scenes,body_parts,1200,0,6,1
31,56536,0,32,1,1,0,no_gain3,gain5,F,B,13,2,faces,outdoor_scenes,42,25,Stimuli/Experimental_stims/faces/daniel-rigdon-dXmXKPP2L4E-unsplash.jpg,Stimuli/Experimental_stims/outdoor_scenes/bruno-van-der-kraan-qez8mNJ3ilU-unsplash.jpg,0,0,1071,1,unchosen,2,13,outdoor_scenes,faces,2100,0,6,1
32,56536,0,33,1,1,0,no_gain5,gain4,L,J,27,46,body_parts,objects,94,94,Stimuli/Experimental_stims/body_parts/heike-mintel-i_Gns0ELnLw-unsplash.jpg,Stimuli/Experimental_stims/objects/mockup-graphics-PNsj6RiHAF4-unsplash.jpg,0,0,508,1,chosen,46,27,objects,body_parts,4300,1,6,1
33,56536,0,34,1,1,0,no_gain1,gain5,E,B,25,2,body_parts,outdoor_scenes,40,25,Stimuli/Experimental_stims/body_parts/engin-akyurt-Q2rfH3GW39c-unsplash.jpg,Stimuli/Experimental_stims/outdoor_scenes/bruno-van-der-kraan-qez8mNJ3ilU-unsplash.jpg,0,0,791,1,unchosen,2,25,outdoor_scenes,body_parts,1000,0,6,1
34,56536,0,35,1,1,1,gain1,no_gain3,I,F,29,34,body_parts,body_parts,100,15,Stimuli/Experimental_stims/body_parts/manuel-schinner-ZwjFuJ7ebpk-unsplash.jpg,Stimuli/Experimental_stims/body_parts/wagner-santos-mBWMvIuVnso-unsplash.jpg,0,1,720,1,chosen,29,34,body_parts,body_parts,2300,0,6,1
35,56536,0,36,1,1,0,no_gain6,gain5,D,B,37,2,objects,outdoor_scenes,39,25,Stimuli/Experimental_stims/objects/alexander-andrews-VLGWE_SumrA-unsplash.jpg,Stimuli/Experimental_stims/outdoor_scenes/bruno-van-der-kraan-qez8mNJ3ilU-unsplash.jpg,0,1,961,0,unchosen,37,2,objects,outdoor_scenes,1200,0,6,1
36,56536,0,37,1,1,1,gain6,no_gain1,C,E,24,43,body_parts,objects,28,33,Stimuli/Experimental_stims/body_parts/clay-banks-LjqARJaJotc-unsplash.jpg,Stimuli/Experimental_stims/objects/jonathan-greenaway-Y4hGgeiFn3s-unsplash.jpg,0,1,695,1,chosen,24,43,body_parts,objects,1300,0,6,1
37,56536,0,38,1,1,1,gain4,no_gain3,J,F,46,34,objects,body_parts,94,15,Stimuli/Experimental_stims/objects/mockup-graphics-PNsj6RiHAF4-unsplash.jpg,Stimuli/Experimental_stims/body_parts/wagner-santos-mBWMvIuVnso-unsplash.jpg,0,1,537,1,chosen,46,34,objects,body_parts,1700,0,6,1
38,56536,0,39,1,1,1,gain1,no_gain5,I,L,29,27,body_parts,body_parts,100,94,Stimuli/Experimental_stims/body_parts/manuel-schinner-ZwjFuJ7ebpk-unsplash.jpg,Stimuli/Experimental_stims/body_parts/heike-mintel-i_Gns0ELnLw-unsplash.jpg,0,1,556,1,chosen,29,27,body_parts,body_parts,1300,0,6,1
39,56536,0,40,1,1,0,no_gain6,gain3,D,H,37,0,objects,outdoor_scenes,39,19,Stimuli/Experimental_stims/objects/alexander-andrews-VLGWE_SumrA-unsplash.jpg,Stimuli/Experimental_stims/outdoor_scenes/aleksandra-boguslawska-MS7KD9Ti7FQ-unsplash.jpg,0,1,780,0,unchosen,37,0,objects,outdoor_scenes,1200,0,6,1
40,56536,0,41,1,1,0,no_gain2,gain1,G,I,11,29,outdoor_scenes,body_parts,82,100,Stimuli/Experimental_stims/outdoor_scenes/stephen-leonardi-gyIRjKPXupE-unsplash.jpg,Stimuli/Experimental_stims/body_parts/manuel-schinner-ZwjFuJ7ebpk-unsplash.jpg,0,0,816,1,chosen,29,11,body_parts,outdoor_scenes,1900,0,6,1
41,56536,0,42,1,1,1,gain4,no_gain3,J,F,18,13,faces,faces,39,42,Stimuli/Experimental_stims/faces/jessica-radanavong-mrYkTuAesKE-unsplash.jpg,Stimuli/Experimental_stims/faces/daniel-rigdon-dXmXKPP2L4E-unsplash.jpg,0,1,776,1,unchosen,18,13,faces,faces,1200,0,6,1
42,56536,0,43,1,1,1,gain6,no_gain6,C,D,24,14,body_parts,faces,28,46,Stimuli/Experimental_stims/body_parts/clay-banks-LjqARJaJotc-unsplash.jpg,Stimuli/Experimental_stims/faces/david-siglin-UuW4psOb388-unsplash.jpg,0,1,701,1,chosen,24,14,body_parts,faces,4000,1,6,1
43,56536,0,44,1,1,0,no_gain3,gain3,F,H,34,19,body_parts,faces,15,64,Stimuli/Experimental_stims/body_parts/wagner-santos-mBWMvIuVnso-unsplash.jpg,Stimuli/Experimental_stims/faces/joel-mott-LaK153ghdig-unsplash.jpg,0,0,701,1,chosen,19,34,faces,body_parts,2300,0,6,1
44,56536,0,45,1,1,1,gain2,no_gain6,A,D,44,37,objects,objects,27,39,Stimuli/Experimental_stims/objects/kuiye-chen-NuOGFo4PudE-unsplash.jpg,Stimuli/Experimental_stims/objects/alexander-andrews-VLGWE_SumrA-unsplash.jpg,0,1,1091,1,unchosen,44,37,objects,objects,1500,0,6,1
45,56536,0,46,1,1,0,no_gain1,gain1,E,I,43,29,objects,body_parts,33,100,Stimuli/Experimental_stims/objects/jonathan-greenaway-Y4hGgeiFn3s-unsplash.jpg,Stimuli/Experimental_stims/body_parts/manuel-schinner-ZwjFuJ7ebpk-unsplash.jpg,0,0,648,1,chosen,29,43,body_parts,objects,1100,0,6,1
46,56536,0,47,1,1,0,no_gain5,gain6,L,C,21,7,faces,outdoor_scenes,29,74,Stimuli/Experimental_stims/faces/leilani-angel-K84vnnzxmTQ-unsplash.jpg,Stimuli/Experimental_stims/outdoor_scenes/petr-vysohlid-9fqwGqGLUxc-unsplash.jpg,0,1,920,0,unchosen,21,7,faces,outdoor_scenes,1100,0,6,1
47,56536,0,48,1,1,0,no_gain5,gain6,L,C,27,24,body_parts,body_parts,94,28,Stimuli/Experimental_stims/body_parts/heike-mintel-i_Gns0ELnLw-unsplash.jpg,Stimuli/Experimental_stims/body_parts/clay-banks-LjqARJaJotc-unsplash.jpg,0,0,730,1,chosen,24,27,body_parts,body_parts,3200,1,6,1
48,56536,0,49,1,1,0,no_gain2,gain6,G,C,47,7,objects,outdoor_scenes,56,74,Stimuli/Experimental_stims/objects/ronaldo-arthur-vidal-Cdz_lvnl37k-unsplash.jpg,Stimuli/Experimental_stims/outdoor_scenes/petr-vysohlid-9fqwGqGLUxc-unsplash.jpg,0,1,895,0,unchosen,47,7,objects,outdoor_scenes,1900,0,6,1
49,56536,0,50,1,1,1,gain4,no_gain4,J,K,18,30,faces,body_parts,39,66,Stimuli/Experimental_stims/faces/jessica-radanavong-mrYkTuAesKE-unsplash.jpg,Stimuli/Experimental_stims/body_parts/mika-korhonen-Xodzxosar18-unsplash.jpg,0,1,727,1,unchosen,18,30,faces,body_parts,2300,0,6,1
50,56536,0,51,1,1,1,gain6,no_gain4,C,K,7,30,outdoor_scenes,body_parts,74,66,Stimuli/Experimental_stims/outdoor_scenes/petr-vysohlid-9fqwGqGLUxc-unsplash.jpg,Stimuli/Experimental_stims/body_parts/mika-korhonen-Xodzxosar18-unsplash.jpg,0,1,631,1,unchosen,7,30,outdoor_scenes,body_parts,1200,0,6,1
51,56536,0,52,1,1,0,no_gain6,gain1,D,I,14,29,faces,body_parts,46,100,Stimuli/Experimental_stims/faces/david-siglin-UuW4psOb388-unsplash.jpg,Stimuli/Experimental_stims/body_parts/manuel-schinner-ZwjFuJ7ebpk-unsplash.jpg,0,0,639,1,chosen,29,14,body_parts,faces,2400,0,6,1
52,56536,0,53,1,1,1,gain2,no_gain1,A,E,6,43,outdoor_scenes,objects,72,33,Stimuli/Experimental_stims/outdoor_scenes/meng-ji-8BH_M-53CyA-unsplash.jpg,Stimuli/Experimental_stims/objects/jonathan-greenaway-Y4hGgeiFn3s-unsplash.jpg,0,1,546,1,chosen,6,43,outdoor_scenes,objects,1600,0,6,1
53,56536,0,54,1,1,1,gain5,no_gain6,B,D,17,14,faces,faces,56,46,Stimuli/Experimental_stims/faces/good-faces-xmSWVeGEnJw-unsplash.jpg,Stimuli/Experimental_stims/faces/david-siglin-UuW4psOb388-unsplash.jpg,0,1,630,1,chosen,17,14,faces,faces,3100,1,6,1
54,56536,0,55,1,1,0,no_gain5,gain1,L,I,21,8,faces,outdoor_scenes,29,24,Stimuli/Experimental_stims/faces/leilani-angel-K84vnnzxmTQ-unsplash.jpg,Stimuli/Experimental_stims/outdoor_scenes/samsommer-vddccTqwal8-unsplash.jpg,0,0,924,1,unchosen,8,21,outdoor_scenes,faces,2300,0,6,1
55,56536,0,56,1,1,1,gain2,no_gain2,A,G,6,11,outdoor_scenes,outdoor_scenes,72,82,Stimuli/Experimental_stims/outdoor_scenes/meng-ji-8BH_M-53CyA-unsplash.jpg,Stimuli/Experimental_stims/outdoor_scenes/stephen-leonardi-gyIRjKPXupE-unsplash.jpg,0,1,687,1,chosen,6,11,outdoor_scenes,outdoor_scenes,2600,0,6,1
56,56536,0,57,1,1,1,gain3,no_gain2,H,G,0,47,outdoor_scenes,objects,19,56,Stimuli/Experimental_stims/outdoor_scenes/aleksandra-boguslawska-MS7KD9Ti7FQ-unsplash.jpg,Stimuli/Experimental_stims/objects/ronaldo-arthur-vidal-Cdz_lvnl37k-unsplash.jpg,0,0,971,0,unchosen,47,0,objects,outdoor_scenes,1700,0,6,1
57,56536,0,58,1,1,0,no_gain1,gain3,E,H,25,0,body_parts,outdoor_scenes,40,19,Stimuli/Experimental_stims/body_parts/engin-akyurt-Q2rfH3GW39c-unsplash.jpg,Stimuli/Experimental_stims/outdoor_scenes/aleksandra-boguslawska-MS7KD9Ti7FQ-unsplash.jpg,0,0,541,1,unchosen,0,25,outdoor_scenes,body_parts,1100,0,6,1
58,56536,0,59,1,1,1,gain6,no_gain4,C,K,24,39,body_parts,objects,28,44,Stimuli/Experimental_stims/body_parts/clay-banks-LjqARJaJotc-unsplash.jpg,Stimuli/Experimental_stims/objects/charlesdeluvio-1-nx1QR5dTE-unsplash.jpg,0,1,623,1,chosen,24,39,body_parts,objects,2600,0,6,1
59,56536,0,60,1,1,1,gain6,no_gain1,C,E,7,25,outdoor_scenes,body_parts,74,40,Stimuli/Experimental_stims/outdoor_scenes/petr-vysohlid-9fqwGqGLUxc-unsplash.jpg,Stimuli/Experimental_stims/body_parts/engin-akyurt-Q2rfH3GW39c-unsplash.jpg,0,1,577,1,unchosen,7,25,outdoor_scenes,body_parts,1000,0,6,1
60,56536,0,61,1,1,1,gain1,no_gain3,I,F,8,13,outdoor_scenes,faces,24,42,Stimuli/Experimental_stims/outdoor_scenes/samsommer-vddccTqwal8-unsplash.jpg,Stimuli/Experimental_stims/faces/daniel-rigdon-dXmXKPP2L4E-unsplash.jpg,0,0,1117,0,unchosen,13,8,faces,outdoor_scenes,2400,0,6,1
61,56536,0,62,1,1,0,no_gain6,gain4,D,J,37,18,objects,faces,39,39,Stimuli/Experimental_stims/objects/alexander-andrews-VLGWE_SumrA-unsplash.jpg,Stimuli/Experimental_stims/faces/jessica-radanavong-mrYkTuAesKE-unsplash.jpg,0,0,1355,1,unchosen,18,37,faces,objects,3500,1,6,1
62,56536,0,63,1,1,1,gain6,no_gain3,C,F,24,34,body_parts,body_parts,28,15,Stimuli/Experimental_stims/body_parts/clay-banks-LjqARJaJotc-unsplash.jpg,Stimuli/Experimental_stims/body_parts/wagner-santos-mBWMvIuVnso-unsplash.jpg,0,1,749,1,chosen,24,34,body_parts,body_parts,1700,0,6,1
63,56536,0,64,1,1,1,gain2,no_gain4,A,K,6,39,outdoor_scenes,objects,72,44,Stimuli/Experimental_stims/outdoor_scenes/meng-ji-8BH_M-53CyA-unsplash.jpg,Stimuli/Experimental_stims/objects/charlesdeluvio-1-nx1QR5dTE-unsplash.jpg,0,1,523,1,chosen,6,39,outdoor_scenes,objects,1200,0,6,1
64,56536,0,65,1,1,0,no_gain6,gain1,D,I,37,8,objects,outdoor_scenes,39,24,Stimuli/Experimental_stims/objects/alexander-andrews-VLGWE_SumrA-unsplash.jpg,Stimuli/Experimental_stims/outdoor_scenes/samsommer-vddccTqwal8-unsplash.jpg,0,0,852,1,unchosen,8,37,outdoor_scenes,objects,1600,0,6,1
65,56536,0,66,1,1,0,no_gain4,gain1,K,I,30,8,body_parts,outdoor_scenes,66,24,Stimuli/Experimental_stims/body_parts/mika-korhonen-Xodzxosar18-unsplash.jpg,Stimuli/Experimental_stims/outdoor_scenes/samsommer-vddccTqwal8-unsplash.jpg,0,0,851,1,unchosen,8,30,outdoor_scenes,body_parts,1200,0,6,1
66,56536,0,67,1,1,1,gain5,no_gain2,B,G,2,47,outdoor_scenes,objects,25,56,Stimuli/Experimental_stims/outdoor_scenes/bruno-van-der-kraan-qez8mNJ3ilU-unsplash.jpg,Stimuli/Experimental_stims/objects/ronaldo-arthur-vidal-Cdz_lvnl37k-unsplash.jpg,0,0,890,0,unchosen,47,2,objects,outdoor_scenes,3400,1,6,1
67,56536,0,68,1,1,0,no_gain1,gain4,E,J,43,46,objects,objects,33,94,Stimuli/Experimental_stims/objects/jonathan-greenaway-Y4hGgeiFn3s-unsplash.jpg,Stimuli/Experimental_stims/objects/mockup-graphics-PNsj6RiHAF4-unsplash.jpg,0,0,537,1,chosen,46,43,objects,objects,1900,0,6,1
68,56536,0,69,1,1,1,gain6,no_gain2,C,G,24,11,body_parts,outdoor_scenes,28,82,Stimuli/Experimental_stims/body_parts/clay-banks-LjqARJaJotc-unsplash.jpg,Stimuli/Experimental_stims/outdoor_scenes/stephen-leonardi-gyIRjKPXupE-unsplash.jpg,0,1,564,1,chosen,24,11,body_parts,outdoor_scenes,2200,0,6,1
69,56536,0,70,1,1,1,gain5,no_gain3,B,F,17,34,faces,body_parts,56,15,Stimuli/Experimental_stims/faces/good-faces-xmSWVeGEnJw-unsplash.jpg,Stimuli/Experimental_stims/body_parts/wagner-santos-mBWMvIuVnso-unsplash.jpg,0,1,601,1,chosen,17,34,faces,body_parts,1100,0,6,1
70,56536,0,71,1,1,0,no_gain1,gain1,E,I,25,8,body_parts,outdoor_scenes,40,24,Stimuli/Experimental_stims/body_parts/engin-akyurt-Q2rfH3GW39c-unsplash.jpg,Stimuli/Experimental_stims/outdoor_scenes/samsommer-vddccTqwal8-unsplash.jpg,0,0,789,1,unchosen,8,25,outdoor_scenes,body_parts,2600,0,6,1
71,56536,0,72,1,1,1,gain1,no_gain2,I,G,8,47,outdoor_scenes,objects,24,56,Stimuli/Experimental_stims/outdoor_scenes/samsommer-vddccTqwal8-unsplash.jpg,Stimuli/Experimental_stims/objects/ronaldo-arthur-vidal-Cdz_lvnl37k-unsplash.jpg,0,1,688,1,unchosen,8,47,outdoor_scenes,objects,2100,0,6,1
72,56536,0,73,1,1,0,no_gain3,gain3,F,H,13,0,faces,outdoor_scenes,42,19,Stimuli/Experimental_stims/faces/daniel-rigdon-dXmXKPP2L4E-unsplash.jpg,Stimuli/Experimental_stims/outdoor_scenes/aleksandra-boguslawska-MS7KD9Ti7FQ-unsplash.jpg,0,0,826,1,unchosen,0,13,outdoor_scenes,faces,1600,0,6,1
73,56536,0,74,1,1,0,no_gain4,gain1,K,I,39,29,objects,body_parts,44,100,Stimuli/Experimental_stims/objects/charlesdeluvio-1-nx1QR5dTE-unsplash.jpg,Stimuli/Experimental_stims/body_parts/manuel-schinner-ZwjFuJ7ebpk-unsplash.jpg,0,1,604,0,chosen,39,29,objects,body_parts,1200,0,6,1
74,56536,0,75,1,1,1,gain3,no_gain5,H,L,0,21,outdoor_scenes,faces,19,29,Stimuli/Experimental_stims/outdoor_scenes/aleksandra-boguslawska-MS7KD9Ti7FQ-unsplash.jpg,Stimuli/Experimental_stims/faces/leilani-angel-K84vnnzxmTQ-unsplash.jpg,0,1,1097,1,unchosen,0,21,outdoor_scenes,faces,2600,0,6,1
75,56536,0,76,1,1,0,no_gain4,gain3,K,H,39,19,objects,faces,44,64,Stimuli/Experimental_stims/objects/charlesdeluvio-1-nx1QR5dTE-unsplash.jpg,Stimuli/Experimental_stims/faces/joel-mott-LaK153ghdig-unsplash.jpg,0,0,486,1,chosen,19,39,faces,objects,3600,1,6,1
76,56536,0,77,2,2,1,gain4,no_gain6,J,D,18,37,faces,objects,39,39,Stimuli/Experimental_stims/faces/jessica-radanavong-mrYkTuAesKE-unsplash.jpg,Stimuli/Experimental_stims/objects/alexander-andrews-VLGWE_SumrA-unsplash.jpg,0,1,637,1,unchosen,18,37,faces,objects,3100,1,4,1
77,56536,0,78,2,2,1,gain3,no_gain1,H,E,19,43,faces,objects,64,33,Stimuli/Experimental_stims/faces/joel-mott-LaK153ghdig-unsplash.jpg,Stimuli/Experimental_stims/objects/jonathan-greenaway-Y4hGgeiFn3s-unsplash.jpg,0,1,519,1,chosen,19,43,faces,objects,2600,0,4,1
78,56536,0,79,2,2,0,no_gain5,gain5,L,B,27,17,body_parts,faces,94,56,Stimuli/Experimental_stims/body_parts/heike-mintel-i_Gns0ELnLw-unsplash.jpg,Stimuli/Experimental_stims/faces/good-faces-xmSWVeGEnJw-unsplash.jpg,0,0,537,1,chosen,17,27,faces,body_parts,1800,0,4,1
79,56536,0,80,2,2,0,no_gain5,gain2,L,A,21,44,faces,objects,29,27,Stimuli/Experimental_stims/faces/leilani-angel-K84vnnzxmTQ-unsplash.jpg,Stimuli/Experimental_stims/objects/kuiye-chen-NuOGFo4PudE-unsplash.jpg,0,0,989,1,unchosen,44,21,objects,faces,1000,0,4,1
80,56536,0,81,2,2,0,no_gain5,gain6,L,C,27,24,body_parts,body_parts,94,28,Stimuli/Experimental_stims/body_parts/heike-mintel-i_Gns0ELnLw-unsplash.jpg,Stimuli/Experimental_stims/body_parts/clay-banks-LjqARJaJotc-unsplash.jpg,0,0,925,1,chosen,24,27,body_parts,body_parts,2300,0,4,1
81,56536,0,82,2,2,1,gain2,no_gain1,A,E,6,43,outdoor_scenes,objects,72,33,Stimuli/Experimental_stims/outdoor_scenes/meng-ji-8BH_M-53CyA-unsplash.jpg,Stimuli/Experimental_stims/objects/jonathan-greenaway-Y4hGgeiFn3s-unsplash.jpg,0,1,496,1,chosen,6,43,outdoor_scenes,objects,1100,0,4,1
82,56536,0,83,2,2,1,gain6,no_gain4,C,K,24,39,body_parts,objects,28,44,Stimuli/Experimental_stims/body_parts/clay-banks-LjqARJaJotc-unsplash.jpg,Stimuli/Experimental_stims/objects/charlesdeluvio-1-nx1QR5dTE-unsplash.jpg,0,1,650,1,chosen,24,39,body_parts,objects,1500,0,4,1
83,56536,0,84,2,2,1,gain1,no_gain4,I,K,8,30,outdoor_scenes,body_parts,24,66,Stimuli/Experimental_stims/outdoor_scenes/samsommer-vddccTqwal8-unsplash.jpg,Stimuli/Experimental_stims/body_parts/mika-korhonen-Xodzxosar18-unsplash.jpg,0,1,717,1,unchosen,8,30,outdoor_scenes,body_parts,2400,0,4,1
84,56536,0,85,2,2,0,no_gain2,gain2,G,A,47,44,objects,objects,56,27,Stimuli/Experimental_stims/objects/ronaldo-arthur-vidal-Cdz_lvnl37k-unsplash.jpg,Stimuli/Experimental_stims/objects/kuiye-chen-NuOGFo4PudE-unsplash.jpg,0,1,749,0,unchosen,47,44,objects,objects,2300,0,4,1
85,56536,0,86,2,2,1,gain6,no_gain3,C,F,24,34,body_parts,body_parts,28,15,Stimuli/Experimental_stims/body_parts/clay-banks-LjqARJaJotc-unsplash.jpg,Stimuli/Experimental_stims/body_parts/wagner-santos-mBWMvIuVnso-unsplash.jpg,0,1,536,1,chosen,24,34,body_parts,body_parts,1200,0,4,1
86,56536,0,87,2,2,0,no_gain5,gain4,L,J,21,18,faces,faces,29,39,Stimuli/Experimental_stims/faces/leilani-angel-K84vnnzxmTQ-unsplash.jpg,Stimuli/Experimental_stims/faces/jessica-radanavong-mrYkTuAesKE-unsplash.jpg,0,1,838,0,unchosen,21,18,faces,faces,1300,0,4,1
87,56536,0,88,2,2,1,gain2,no_gain2,A,G,6,11,outdoor_scenes,outdoor_scenes,72,82,Stimuli/Experimental_stims/outdoor_scenes/meng-ji-8BH_M-53CyA-unsplash.jpg,Stimuli/Experimental_stims/outdoor_scenes/stephen-leonardi-gyIRjKPXupE-unsplash.jpg,0,1,866,1,chosen,6,11,outdoor_scenes,outdoor_scenes,3700,1,4,1
88,56536,0,89,2,2,1,gain5,no_gain3,B,F,17,34,faces,body_parts,56,15,Stimuli/Experimental_stims/faces/good-faces-xmSWVeGEnJw-unsplash.jpg,Stimuli/Experimental_stims/body_parts/wagner-santos-mBWMvIuVnso-unsplash.jpg,0,1,580,1,chosen,17,34,faces,body_parts,1600,0,4,1
89,56536,0,90,2,2,0,no_gain3,gain1,F,I,34,29,body_parts,body_parts,15,100,Stimuli/Experimental_stims/body_parts/wagner-santos-mBWMvIuVnso-unsplash.jpg,Stimuli/Experimental_stims/body_parts/manuel-schinner-ZwjFuJ7ebpk-unsplash.jpg,0,1,729,0,chosen,34,29,body_parts,body_parts,1700,0,4,1
90,56536,0,91,2,2,0,no_gain2,gain1,G,I,47,8,objects,outdoor_scenes,56,24,Stimuli/Experimental_stims/objects/ronaldo-arthur-vidal-Cdz_lvnl37k-unsplash.jpg,Stimuli/Experimental_stims/outdoor_scenes/samsommer-vddccTqwal8-unsplash.jpg,0,0,738,1,unchosen,8,47,outdoor_scenes,objects,1200,0,4,1
91,56536,0,92,2,2,0,no_gain6,gain5,D,B,14,17,faces,faces,46,56,Stimuli/Experimental_stims/faces/david-siglin-UuW4psOb388-unsplash.jpg,Stimuli/Experimental_stims/faces/good-faces-xmSWVeGEnJw-unsplash.jpg,0,0,631,1,chosen,17,14,faces,faces,1100,0,4,1
92,56536,0,93,2,2,0,no_gain4,gain3,K,H,39,19,objects,faces,44,64,Stimuli/Experimental_stims/objects/charlesdeluvio-1-nx1QR5dTE-unsplash.jpg,Stimuli/Experimental_stims/faces/joel-mott-LaK153ghdig-unsplash.jpg,0,0,829,1,chosen,19,39,faces,objects,1300,0,4,1
93,56536,0,94,2,2,1,gain4,no_gain5,J,L,46,27,objects,body_parts,94,94,Stimuli/Experimental_stims/objects/mockup-graphics-PNsj6RiHAF4-unsplash.jpg,Stimuli/Experimental_stims/body_parts/heike-mintel-i_Gns0ELnLw-unsplash.jpg,0,1,485,1,chosen,46,27,objects,body_parts,4500,1,4,1
94,56536,0,95,2,2,0,no_gain5,gain1,L,I,21,8,faces,outdoor_scenes,29,24,Stimuli/Experimental_stims/faces/leilani-angel-K84vnnzxmTQ-unsplash.jpg,Stimuli/Experimental_stims/outdoor_scenes/samsommer-vddccTqwal8-unsplash.jpg,0,0,854,1,unchosen,8,21,outdoor_scenes,faces,1900,0,4,1
95,56536,0,96,2,2,1,gain1,no_gain3,I,F,8,13,outdoor_scenes,faces,24,42,Stimuli/Experimental_stims/outdoor_scenes/samsommer-vddccTqwal8-unsplash.jpg,Stimuli/Experimental_stims/faces/daniel-rigdon-dXmXKPP2L4E-unsplash.jpg,0,1,1009,1,unchosen,8,13,outdoor_scenes,faces,1100,0,4,1
96,56536,0,97,2,2,1,gain3,no_gain3,H,F,0,13,outdoor_scenes,faces,19,42,Stimuli/Experimental_stims/outdoor_scenes/aleksandra-boguslawska-MS7KD9Ti7FQ-unsplash.jpg,Stimuli/Experimental_stims/faces/daniel-rigdon-dXmXKPP2L4E-unsplash.jpg,0,1,939,1,unchosen,0,13,outdoor_scenes,faces,2300,0,4,1
97,56536,0,98,2,2,0,no_gain5,gain1,L,I,27,29,body_parts,body_parts,94,100,Stimuli/Experimental_stims/body_parts/heike-mintel-i_Gns0ELnLw-unsplash.jpg,Stimuli/Experimental_stims/body_parts/manuel-schinner-ZwjFuJ7ebpk-unsplash.jpg,0,0,747,1,chosen,29,27,body_parts,body_parts,2800,0,4,1
98,56536,0,99,2,2,0,no_gain5,gain5,L,B,21,2,faces,outdoor_scenes,29,25,Stimuli/Experimental_stims/faces/leilani-angel-K84vnnzxmTQ-unsplash.jpg,Stimuli/Experimental_stims/outdoor_scenes/bruno-van-der-kraan-qez8mNJ3ilU-unsplash.jpg,0,0,922,1,unchosen,2,21,outdoor_scenes,faces,3200,1,4,1
99,56536,0,100,2,2,1,gain5,no_gain1,B,E,17,43,faces,objects,56,33,Stimuli/Experimental_stims/faces/good-faces-xmSWVeGEnJw-unsplash.jpg,Stimuli/Experimental_stims/objects/jonathan-greenaway-Y4hGgeiFn3s-unsplash.jpg,0,1,570,1,chosen,17,43,faces,objects,2000,0,4,1
100,56536,0,101,2,2,0,no_gain2,gain6,G,C,11,24,outdoor_scenes,body_parts,82,28,Stimuli/Experimental_stims/outdoor_scenes/stephen-leonardi-gyIRjKPXupE-unsplash.jpg,Stimuli/Experimental_stims/body_parts/clay-banks-LjqARJaJotc-unsplash.jpg,1,NaN,,NaN,chosen,NaN,NaN,NaN,NaN,2500,0,4,1
101,56536,0,102,2,2,1,gain3,no_gain5,H,L,0,21,outdoor_scenes,faces,19,29,Stimuli/Experimental_stims/outdoor_scenes/aleksandra-boguslawska-MS7KD9Ti7FQ-unsplash.jpg,Stimuli/Experimental_stims/faces/leilani-angel-K84vnnzxmTQ-unsplash.jpg,0,1,755,1,unchosen,0,21,outdoor_scenes,faces,1300,0,4,1
102,56536,0,103,2,2,1,gain6,no_gain3,C,F,7,13,outdoor_scenes,faces,74,42,Stimuli/Experimental_stims/outdoor_scenes/petr-vysohlid-9fqwGqGLUxc-unsplash.jpg,Stimuli/Experimental_stims/faces/daniel-rigdon-dXmXKPP2L4E-unsplash.jpg,0,1,653,1,unchosen,7,13,outdoor_scenes,faces,1300,0,4,1
103,56536,0,104,2,2,1,gain4,no_gain4,J,K,18,30,faces,body_parts,39,66,Stimuli/Experimental_stims/faces/jessica-radanavong-mrYkTuAesKE-unsplash.jpg,Stimuli/Experimental_stims/body_parts/mika-korhonen-Xodzxosar18-unsplash.jpg,0,1,679,1,unchosen,18,30,faces,body_parts,4500,1,4,1
104,56536,0,105,2,2,1,gain6,no_gain1,C,E,24,43,body_parts,objects,28,33,Stimuli/Experimental_stims/body_parts/clay-banks-LjqARJaJotc-unsplash.jpg,Stimuli/Experimental_stims/objects/jonathan-greenaway-Y4hGgeiFn3s-unsplash.jpg,0,1,615,1,chosen,24,43,body_parts,objects,1400,0,4,1
105,56536,0,106,2,2,1,gain2,no_gain6,A,D,44,37,objects,objects,27,39,Stimuli/Experimental_stims/objects/kuiye-chen-NuOGFo4PudE-unsplash.jpg,Stimuli/Experimental_stims/objects/alexander-andrews-VLGWE_SumrA-unsplash.jpg,0,1,1028,1,unchosen,44,37,objects,objects,2600,0,4,1
106,56536,0,107,2,2,1,gain4,no_gain4,J,K,46,39,objects,objects,94,44,Stimuli/Experimental_stims/objects/mockup-graphics-PNsj6RiHAF4-unsplash.jpg,Stimuli/Experimental_stims/objects/charlesdeluvio-1-nx1QR5dTE-unsplash.jpg,0,1,507,1,chosen,46,39,objects,objects,2100,0,4,1
107,56536,0,108,2,2,0,no_gain6,gain6,D,C,37,7,objects,outdoor_scenes,39,74,Stimuli/Experimental_stims/objects/alexander-andrews-VLGWE_SumrA-unsplash.jpg,Stimuli/Experimental_stims/outdoor_scenes/petr-vysohlid-9fqwGqGLUxc-unsplash.jpg,0,1,804,0,unchosen,37,7,objects,outdoor_scenes,2100,0,4,1
108,56536,0,109,2,2,1,gain4,no_gain3,J,F,18,13,faces,faces,39,42,Stimuli/Experimental_stims/faces/jessica-radanavong-mrYkTuAesKE-unsplash.jpg,Stimuli/Experimental_stims/faces/daniel-rigdon-dXmXKPP2L4E-unsplash.jpg,0,1,782,1,unchosen,18,13,faces,faces,2600,0,4,1
109,56536,0,110,2,2,0,no_gain1,gain1,E,I,43,29,objects,body_parts,33,100,Stimuli/Experimental_stims/objects/jonathan-greenaway-Y4hGgeiFn3s-unsplash.jpg,Stimuli/Experimental_stims/body_parts/manuel-schinner-ZwjFuJ7ebpk-unsplash.jpg,0,0,727,1,chosen,29,43,body_parts,objects,3000,1,4,1
110,56536,0,111,2,2,1,gain2,no_gain4,A,K,6,39,outdoor_scenes,objects,72,44,Stimuli/Experimental_stims/outdoor_scenes/meng-ji-8BH_M-53CyA-unsplash.jpg,Stimuli/Experimental_stims/objects/charlesdeluvio-1-nx1QR5dTE-unsplash.jpg,0,1,502,1,chosen,6,39,outdoor_scenes,objects,1100,0,4,1
111,56536,0,112,2,2,0,no_gain1,gain3,E,H,25,0,body_parts,outdoor_scenes,40,19,Stimuli/Experimental_stims/body_parts/engin-akyurt-Q2rfH3GW39c-unsplash.jpg,Stimuli/Experimental_stims/outdoor_scenes/aleksandra-boguslawska-MS7KD9Ti7FQ-unsplash.jpg,0,0,677,1,unchosen,0,25,outdoor_scenes,body_parts,1000,0,4,1
112,56536,0,113,2,2,1,gain5,no_gain1,B,E,2,25,outdoor_scenes,body_parts,25,40,Stimuli/Experimental_stims/outdoor_scenes/bruno-van-der-kraan-qez8mNJ3ilU-unsplash.jpg,Stimuli/Experimental_stims/body_parts/engin-akyurt-Q2rfH3GW39c-unsplash.jpg,0,1,689,1,unchosen,2,25,outdoor_scenes,body_parts,1300,0,4,1
113,56536,0,114,2,2,1,gain3,no_gain6,H,D,19,14,faces,faces,64,46,Stimuli/Experimental_stims/faces/joel-mott-LaK153ghdig-unsplash.jpg,Stimuli/Experimental_stims/faces/david-siglin-UuW4psOb388-unsplash.jpg,0,1,620,1,chosen,19,14,faces,faces,1000,0,4,1
114,56536,0,115,2,2,0,no_gain1,gain1,E,I,25,8,body_parts,outdoor_scenes,40,24,Stimuli/Experimental_stims/body_parts/engin-akyurt-Q2rfH3GW39c-unsplash.jpg,Stimuli/Experimental_stims/outdoor_scenes/samsommer-vddccTqwal8-unsplash.jpg,0,0,604,1,unchosen,8,25,outdoor_scenes,body_parts,1200,0,4,1
115,56536,0,116,2,2,0,no_gain5,gain3,L,H,27,19,body_parts,faces,94,64,Stimuli/Experimental_stims/body_parts/heike-mintel-i_Gns0ELnLw-unsplash.jpg,Stimuli/Experimental_stims/faces/joel-mott-LaK153ghdig-unsplash.jpg,0,0,814,1,chosen,19,27,faces,body_parts,1800,0,4,1
116,56536,0,117,2,2,1,gain5,no_gain2,B,G,2,47,outdoor_scenes,objects,25,56,Stimuli/Experimental_stims/outdoor_scenes/bruno-van-der-kraan-qez8mNJ3ilU-unsplash.jpg,Stimuli/Experimental_stims/objects/ronaldo-arthur-vidal-Cdz_lvnl37k-unsplash.jpg,0,1,666,1,unchosen,2,47,outdoor_scenes,objects,2300,0,4,1
117,56536,0,118,2,2,1,gain4,no_gain1,J,E,46,43,objects,objects,94,33,Stimuli/Experimental_stims/objects/mockup-graphics-PNsj6RiHAF4-unsplash.jpg,Stimuli/Experimental_stims/objects/jonathan-greenaway-Y4hGgeiFn3s-unsplash.jpg,0,1,514,1,chosen,46,43,objects,objects,3500,1,4,1
118,56536,0,119,2,2,0,no_gain2,gain6,G,C,47,7,objects,outdoor_scenes,56,74,Stimuli/Experimental_stims/objects/ronaldo-arthur-vidal-Cdz_lvnl37k-unsplash.jpg,Stimuli/Experimental_stims/outdoor_scenes/petr-vysohlid-9fqwGqGLUxc-unsplash.jpg,0,1,857,0,unchosen,47,7,objects,outdoor_scenes,1300,0,4,1
119,56536,0,120,2,2,0,no_gain2,gain5,G,B,11,17,outdoor_scenes,faces,82,56,Stimuli/Experimental_stims/outdoor_scenes/stephen-leonardi-gyIRjKPXupE-unsplash.jpg,Stimuli/Experimental_stims/faces/good-faces-xmSWVeGEnJw-unsplash.jpg,0,0,519,1,chosen,17,11,faces,outdoor_scenes,1400,0,4,1
120,56536,0,121,2,2,1,gain3,no_gain3,H,F,19,34,faces,body_parts,64,15,Stimuli/Experimental_stims/faces/joel-mott-LaK153ghdig-unsplash.jpg,Stimuli/Experimental_stims/body_parts/wagner-santos-mBWMvIuVnso-unsplash.jpg,0,1,500,1,chosen,19,34,faces,body_parts,1300,0,4,1
121,56536,0,122,2,2,1,gain6,no_gain1,C,E,7,25,outdoor_scenes,body_parts,74,40,Stimuli/Experimental_stims/outdoor_scenes/petr-vysohlid-9fqwGqGLUxc-unsplash.jpg,Stimuli/Experimental_stims/body_parts/engin-akyurt-Q2rfH3GW39c-unsplash.jpg,0,1,653,1,unchosen,7,25,outdoor_scenes,body_parts,2800,0,4,1
122,56536,0,123,2,2,1,gain5,no_gain6,B,D,2,37,outdoor_scenes,objects,25,39,Stimuli/Experimental_stims/outdoor_scenes/bruno-van-der-kraan-qez8mNJ3ilU-unsplash.jpg,Stimuli/Experimental_stims/objects/alexander-andrews-VLGWE_SumrA-unsplash.jpg,0,0,882,0,unchosen,37,2,objects,outdoor_scenes,1800,0,4,1
123,56536,0,124,2,2,0,no_gain2,gain4,G,J,47,18,objects,faces,56,39,Stimuli/Experimental_stims/objects/ronaldo-arthur-vidal-Cdz_lvnl37k-unsplash.jpg,Stimuli/Experimental_stims/faces/jessica-radanavong-mrYkTuAesKE-unsplash.jpg,0,0,847,1,unchosen,18,47,faces,objects,1200,0,4,1
124,56536,0,125,2,2,0,no_gain3,gain4,F,J,34,46,body_parts,objects,15,94,Stimuli/Experimental_stims/body_parts/wagner-santos-mBWMvIuVnso-unsplash.jpg,Stimuli/Experimental_stims/objects/mockup-graphics-PNsj6RiHAF4-unsplash.jpg,0,0,669,1,chosen,46,34,objects,body_parts,1000,0,4,1
125,56536,0,126,2,2,1,gain3,no_gain4,H,K,0,30,outdoor_scenes,body_parts,19,66,Stimuli/Experimental_stims/outdoor_scenes/aleksandra-boguslawska-MS7KD9Ti7FQ-unsplash.jpg,Stimuli/Experimental_stims/body_parts/mika-korhonen-Xodzxosar18-unsplash.jpg,0,1,717,1,unchosen,0,30,outdoor_scenes,body_parts,1600,0,4,1
126,56536,0,127,2,2,0,no_gain2,gain4,G,J,11,46,outdoor_scenes,objects,82,94,Stimuli/Experimental_stims/outdoor_scenes/stephen-leonardi-gyIRjKPXupE-unsplash.jpg,Stimuli/Experimental_stims/objects/mockup-graphics-PNsj6RiHAF4-unsplash.jpg,0,0,555,1,chosen,46,11,objects,outdoor_scenes,1500,0,4,1
127,56536,0,128,2,2,0,no_gain5,gain2,L,A,27,6,body_parts,outdoor_scenes,94,72,Stimuli/Experimental_stims/body_parts/heike-mintel-i_Gns0ELnLw-unsplash.jpg,Stimuli/Experimental_stims/outdoor_scenes/meng-ji-8BH_M-53CyA-unsplash.jpg,0,0,1016,1,chosen,6,27,outdoor_scenes,body_parts,3300,1,4,1
128,56536,0,129,2,2,0,no_gain4,gain1,K,I,39,29,objects,body_parts,44,100,Stimuli/Experimental_stims/objects/charlesdeluvio-1-nx1QR5dTE-unsplash.jpg,Stimuli/Experimental_stims/body_parts/manuel-schinner-ZwjFuJ7ebpk-unsplash.jpg,0,0,690,1,chosen,29,39,body_parts,objects,2200,0,4,1
129,56536,0,130,2,2,0,no_gain5,gain6,L,C,21,7,faces,outdoor_scenes,29,74,Stimuli/Experimental_stims/faces/leilani-angel-K84vnnzxmTQ-unsplash.jpg,Stimuli/Experimental_stims/outdoor_scenes/petr-vysohlid-9fqwGqGLUxc-unsplash.jpg,0,1,1348,0,unchosen,21,7,faces,outdoor_scenes,2400,0,4,1
130,56536,0,131,2,2,1,gain2,no_gain3,A,F,6,34,outdoor_scenes,body_parts,72,15,Stimuli/Experimental_stims/outdoor_scenes/meng-ji-8BH_M-53CyA-unsplash.jpg,Stimuli/Experimental_stims/body_parts/wagner-santos-mBWMvIuVnso-unsplash.jpg,0,1,736,1,chosen,6,34,outdoor_scenes,body_parts,1300,0,4,1
131,56536,0,132,2,2,1,gain6,no_gain4,C,K,7,30,outdoor_scenes,body_parts,74,66,Stimuli/Experimental_stims/outdoor_scenes/petr-vysohlid-9fqwGqGLUxc-unsplash.jpg,Stimuli/Experimental_stims/body_parts/mika-korhonen-Xodzxosar18-unsplash.jpg,0,1,960,1,unchosen,7,30,outdoor_scenes,body_parts,2400,0,4,1
132,56536,0,133,2,2,0,no_gain1,gain4,E,J,25,18,body_parts,faces,40,39,Stimuli/Experimental_stims/body_parts/engin-akyurt-Q2rfH3GW39c-unsplash.jpg,Stimuli/Experimental_stims/faces/jessica-radanavong-mrYkTuAesKE-unsplash.jpg,0,0,553,1,unchosen,18,25,faces,body_parts,2200,0,4,1
133,56536,0,134,2,2,0,no_gain6,gain4,D,J,14,46,faces,objects,46,94,Stimuli/Experimental_stims/faces/david-siglin-UuW4psOb388-unsplash.jpg,Stimuli/Experimental_stims/objects/mockup-graphics-PNsj6RiHAF4-unsplash.jpg,0,0,602,1,chosen,46,14,objects,faces,2900,1,4,1
134,56536,0,135,2,2,1,gain1,no_gain6,I,D,29,14,body_parts,faces,100,46,Stimuli/Experimental_stims/body_parts/manuel-schinner-ZwjFuJ7ebpk-unsplash.jpg,Stimuli/Experimental_stims/faces/david-siglin-UuW4psOb388-unsplash.jpg,0,1,681,1,chosen,29,14,body_parts,faces,1900,0,4,1
135,56536,0,136,2,2,0,no_gain1,gain2,E,A,25,44,body_parts,objects,40,27,Stimuli/Experimental_stims/body_parts/engin-akyurt-Q2rfH3GW39c-unsplash.jpg,Stimuli/Experimental_stims/objects/kuiye-chen-NuOGFo4PudE-unsplash.jpg,0,0,681,1,unchosen,44,25,objects,body_parts,1700,0,4,1
136,56536,0,137,2,2,0,no_gain4,gain2,K,A,30,44,body_parts,objects,66,27,Stimuli/Experimental_stims/body_parts/mika-korhonen-Xodzxosar18-unsplash.jpg,Stimuli/Experimental_stims/objects/kuiye-chen-NuOGFo4PudE-unsplash.jpg,0,0,590,1,unchosen,44,30,objects,body_parts,1900,0,4,1
137,56536,0,138,2,2,1,gain6,no_gain6,C,D,24,14,body_parts,faces,28,46,Stimuli/Experimental_stims/body_parts/clay-banks-LjqARJaJotc-unsplash.jpg,Stimuli/Experimental_stims/faces/david-siglin-UuW4psOb388-unsplash.jpg,0,1,811,1,chosen,24,14,body_parts,faces,1700,0,4,1
138,56536,0,139,2,2,0,no_gain3,gain2,F,A,13,44,faces,objects,42,27,Stimuli/Experimental_stims/faces/daniel-rigdon-dXmXKPP2L4E-unsplash.jpg,Stimuli/Experimental_stims/objects/kuiye-chen-NuOGFo4PudE-unsplash.jpg,0,0,767,1,unchosen,44,13,objects,faces,1300,0,4,1
139,56536,0,140,2,2,1,gain5,no_gain4,B,K,2,30,outdoor_scenes,body_parts,25,66,Stimuli/Experimental_stims/outdoor_scenes/bruno-van-der-kraan-qez8mNJ3ilU-unsplash.jpg,Stimuli/Experimental_stims/body_parts/mika-korhonen-Xodzxosar18-unsplash.jpg,0,1,573,1,unchosen,2,30,outdoor_scenes,body_parts,3600,1,4,1
140,56536,0,141,2,2,1,gain5,no_gain4,B,K,17,39,faces,objects,56,44,Stimuli/Experimental_stims/faces/good-faces-xmSWVeGEnJw-unsplash.jpg,Stimuli/Experimental_stims/objects/charlesdeluvio-1-nx1QR5dTE-unsplash.jpg,0,1,559,1,chosen,17,39,faces,objects,1700,0,4,1
141,56536,0,142,2,2,0,no_gain6,gain2,D,A,14,6,faces,outdoor_scenes,46,72,Stimuli/Experimental_stims/faces/david-siglin-UuW4psOb388-unsplash.jpg,Stimuli/Experimental_stims/outdoor_scenes/meng-ji-8BH_M-53CyA-unsplash.jpg,0,0,503,1,chosen,6,14,outdoor_scenes,faces,1900,0,4,1
142,56536,0,143,2,2,0,no_gain2,gain1,G,I,11,29,outdoor_scenes,body_parts,82,100,Stimuli/Experimental_stims/outdoor_scenes/stephen-leonardi-gyIRjKPXupE-unsplash.jpg,Stimuli/Experimental_stims/body_parts/manuel-schinner-ZwjFuJ7ebpk-unsplash.jpg,0,0,611,1,chosen,29,11,body_parts,outdoor_scenes,2200,0,4,1
143,56536,0,144,2,2,0,no_gain3,gain5,F,B,13,2,faces,outdoor_scenes,42,25,Stimuli/Experimental_stims/faces/daniel-rigdon-dXmXKPP2L4E-unsplash.jpg,Stimuli/Experimental_stims/outdoor_scenes/bruno-van-der-kraan-qez8mNJ3ilU-unsplash.jpg,0,1,442,0,unchosen,13,2,faces,outdoor_scenes,1800,0,4,1
144,56536,0,145,2,2,0,no_gain6,gain3,D,H,37,0,objects,outdoor_scenes,39,19,Stimuli/Experimental_stims/objects/alexander-andrews-VLGWE_SumrA-unsplash.jpg,Stimuli/Experimental_stims/outdoor_scenes/aleksandra-boguslawska-MS7KD9Ti7FQ-unsplash.jpg,0,0,582,1,unchosen,0,37,outdoor_scenes,objects,1400,0,4,1
145,56536,0,146,2,2,0,no_gain2,gain3,G,H,11,19,outdoor_scenes,faces,82,64,Stimuli/Experimental_stims/outdoor_scenes/stephen-leonardi-gyIRjKPXupE-unsplash.jpg,Stimuli/Experimental_stims/faces/joel-mott-LaK153ghdig-unsplash.jpg,0,0,538,1,chosen,19,11,faces,outdoor_scenes,1800,0,4,1
146,56536,0,147,2,2,1,gain3,no_gain2,H,G,0,47,outdoor_scenes,objects,19,56,Stimuli/Experimental_stims/outdoor_scenes/aleksandra-boguslawska-MS7KD9Ti7FQ-unsplash.jpg,Stimuli/Experimental_stims/objects/ronaldo-arthur-vidal-Cdz_lvnl37k-unsplash.jpg,0,0,652,0,unchosen,47,0,objects,outdoor_scenes,1300,0,4,1
147,56536,0,148,2,2,1,gain1,no_gain6,I,D,8,37,outdoor_scenes,objects,24,39,Stimuli/Experimental_stims/outdoor_scenes/samsommer-vddccTqwal8-unsplash.jpg,Stimuli/Experimental_stims/objects/alexander-andrews-VLGWE_SumrA-unsplash.jpg,0,1,751,1,unchosen,8,37,outdoor_scenes,objects,3600,1,4,1
148,56536,0,149,3,3,1,gain3,no_gain6,H,D,0,37,outdoor_scenes,objects,19,39,Stimuli/Experimental_stims/outdoor_scenes/aleksandra-boguslawska-MS7KD9Ti7FQ-unsplash.jpg,Stimuli/Experimental_stims/objects/alexander-andrews-VLGWE_SumrA-unsplash.jpg,0,1,1024,1,unchosen,0,37,outdoor_scenes,objects,1200,0,5,1
149,56536,0,150,3,3,1,gain3,no_gain3,H,F,19,34,faces,body_parts,64,15,Stimuli/Experimental_stims/faces/joel-mott-LaK153ghdig-unsplash.jpg,Stimuli/Experimental_stims/body_parts/wagner-santos-mBWMvIuVnso-unsplash.jpg,0,1,562,1,chosen,19,34,faces,body_parts,1100,0,5,1
150,56536,0,151,3,3,1,gain1,no_gain4,I,K,29,39,body_parts,objects,100,44,Stimuli/Experimental_stims/body_parts/manuel-schinner-ZwjFuJ7ebpk-unsplash.jpg,Stimuli/Experimental_stims/objects/charlesdeluvio-1-nx1QR5dTE-unsplash.jpg,0,1,591,1,chosen,29,39,body_parts,objects,1100,0,5,1
151,56536,0,152,3,3,1,gain5,no_gain6,B,D,2,37,outdoor_scenes,objects,25,39,Stimuli/Experimental_stims/outdoor_scenes/bruno-van-der-kraan-qez8mNJ3ilU-unsplash.jpg,Stimuli/Experimental_stims/objects/alexander-andrews-VLGWE_SumrA-unsplash.jpg,0,1,717,1,unchosen,2,37,outdoor_scenes,objects,1300,0,5,1
152,56536,0,153,3,3,1,gain2,no_gain6,A,D,6,14,outdoor_scenes,faces,72,46,Stimuli/Experimental_stims/outdoor_scenes/meng-ji-8BH_M-53CyA-unsplash.jpg,Stimuli/Experimental_stims/faces/david-siglin-UuW4psOb388-unsplash.jpg,0,1,913,1,chosen,6,14,outdoor_scenes,faces,3300,1,5,1
153,56536,0,154,3,3,1,gain6,no_gain6,C,D,24,14,body_parts,faces,28,46,Stimuli/Experimental_stims/body_parts/clay-banks-LjqARJaJotc-unsplash.jpg,Stimuli/Experimental_stims/faces/david-siglin-UuW4psOb388-unsplash.jpg,0,1,656,1,chosen,24,14,body_parts,faces,1000,0,5,1
154,56536,0,155,3,3,1,gain1,no_gain2,I,G,8,47,outdoor_scenes,objects,24,56,Stimuli/Experimental_stims/outdoor_scenes/samsommer-vddccTqwal8-unsplash.jpg,Stimuli/Experimental_stims/objects/ronaldo-arthur-vidal-Cdz_lvnl37k-unsplash.jpg,0,1,724,1,unchosen,8,47,outdoor_scenes,objects,1300,0,5,1
155,56536,0,156,3,3,0,no_gain4,gain3,K,H,39,19,objects,faces,44,64,Stimuli/Experimental_stims/objects/charlesdeluvio-1-nx1QR5dTE-unsplash.jpg,Stimuli/Experimental_stims/faces/joel-mott-LaK153ghdig-unsplash.jpg,0,0,791,1,chosen,19,39,faces,objects,1300,0,5,1
156,56536,0,157,3,3,0,no_gain4,gain4,K,J,39,46,objects,objects,44,94,Stimuli/Experimental_stims/objects/charlesdeluvio-1-nx1QR5dTE-unsplash.jpg,Stimuli/Experimental_stims/objects/mockup-graphics-PNsj6RiHAF4-unsplash.jpg,0,0,519,1,chosen,46,39,objects,objects,1600,0,5,1
157,56536,0,158,3,3,1,gain6,no_gain3,C,F,24,34,body_parts,body_parts,28,15,Stimuli/Experimental_stims/body_parts/clay-banks-LjqARJaJotc-unsplash.jpg,Stimuli/Experimental_stims/body_parts/wagner-santos-mBWMvIuVnso-unsplash.jpg,0,1,643,1,chosen,24,34,body_parts,body_parts,1400,0,5,1
158,56536,0,159,3,3,0,no_gain1,gain2,E,A,25,44,body_parts,objects,40,27,Stimuli/Experimental_stims/body_parts/engin-akyurt-Q2rfH3GW39c-unsplash.jpg,Stimuli/Experimental_stims/objects/kuiye-chen-NuOGFo4PudE-unsplash.jpg,0,0,694,1,unchosen,44,25,objects,body_parts,2100,0,5,1
159,56536,0,160,3,3,0,no_gain4,gain3,K,H,30,0,body_parts,outdoor_scenes,66,19,Stimuli/Experimental_stims/body_parts/mika-korhonen-Xodzxosar18-unsplash.jpg,Stimuli/Experimental_stims/outdoor_scenes/aleksandra-boguslawska-MS7KD9Ti7FQ-unsplash.jpg,0,0,619,1,unchosen,0,30,outdoor_scenes,body_parts,1200,0,5,1
160,56536,0,161,3,3,0,no_gain1,gain3,E,H,43,19,objects,faces,33,64,Stimuli/Experimental_stims/objects/jonathan-greenaway-Y4hGgeiFn3s-unsplash.jpg,Stimuli/Experimental_stims/faces/joel-mott-LaK153ghdig-unsplash.jpg,0,0,544,1,chosen,19,43,faces,objects,4100,1,5,1
161,56536,0,162,3,3,0,no_gain1,gain4,E,J,25,18,body_parts,faces,40,39,Stimuli/Experimental_stims/body_parts/engin-akyurt-Q2rfH3GW39c-unsplash.jpg,Stimuli/Experimental_stims/faces/jessica-radanavong-mrYkTuAesKE-unsplash.jpg,0,0,784,1,unchosen,18,25,faces,body_parts,1900,0,5,1
162,56536,0,163,3,3,1,gain5,no_gain5,B,L,17,27,faces,body_parts,56,94,Stimuli/Experimental_stims/faces/good-faces-xmSWVeGEnJw-unsplash.jpg,Stimuli/Experimental_stims/body_parts/heike-mintel-i_Gns0ELnLw-unsplash.jpg,0,1,511,1,chosen,17,27,faces,body_parts,2000,0,5,1
163,56536,0,164,3,3,0,no_gain2,gain5,G,B,47,2,objects,outdoor_scenes,56,25,Stimuli/Experimental_stims/objects/ronaldo-arthur-vidal-Cdz_lvnl37k-unsplash.jpg,Stimuli/Experimental_stims/outdoor_scenes/bruno-van-der-kraan-qez8mNJ3ilU-unsplash.jpg,0,0,562,1,unchosen,2,47,outdoor_scenes,objects,2600,0,5,1
164,56536,0,165,3,3,1,gain1,no_gain4,I,K,8,30,outdoor_scenes,body_parts,24,66,Stimuli/Experimental_stims/outdoor_scenes/samsommer-vddccTqwal8-unsplash.jpg,Stimuli/Experimental_stims/body_parts/mika-korhonen-Xodzxosar18-unsplash.jpg,0,1,518,1,unchosen,8,30,outdoor_scenes,body_parts,1100,0,5,1
165,56536,0,166,3,3,0,no_gain4,gain5,K,B,39,17,objects,faces,44,56,Stimuli/Experimental_stims/objects/charlesdeluvio-1-nx1QR5dTE-unsplash.jpg,Stimuli/Experimental_stims/faces/good-faces-xmSWVeGEnJw-unsplash.jpg,0,0,442,1,chosen,17,39,faces,objects,4400,1,5,1
166,56536,0,167,3,3,0,no_gain5,gain4,L,J,21,18,faces,faces,29,39,Stimuli/Experimental_stims/faces/leilani-angel-K84vnnzxmTQ-unsplash.jpg,Stimuli/Experimental_stims/faces/jessica-radanavong-mrYkTuAesKE-unsplash.jpg,0,0,766,1,unchosen,18,21,faces,faces,1200,0,5,1
167,56536,0,168,3,3,0,no_gain5,gain6,L,C,27,24,body_parts,body_parts,94,28,Stimuli/Experimental_stims/body_parts/heike-mintel-i_Gns0ELnLw-unsplash.jpg,Stimuli/Experimental_stims/body_parts/clay-banks-LjqARJaJotc-unsplash.jpg,0,0,780,1,chosen,24,27,body_parts,body_parts,1100,0,5,1
168,56536,0,169,3,3,1,gain1,no_gain6,I,D,8,37,outdoor_scenes,objects,24,39,Stimuli/Experimental_stims/outdoor_scenes/samsommer-vddccTqwal8-unsplash.jpg,Stimuli/Experimental_stims/objects/alexander-andrews-VLGWE_SumrA-unsplash.jpg,0,1,539,1,unchosen,8,37,outdoor_scenes,objects,1700,0,5,1
169,56536,0,170,3,3,1,gain2,no_gain2,A,G,6,11,outdoor_scenes,outdoor_scenes,72,82,Stimuli/Experimental_stims/outdoor_scenes/meng-ji-8BH_M-53CyA-unsplash.jpg,Stimuli/Experimental_stims/outdoor_scenes/stephen-leonardi-gyIRjKPXupE-unsplash.jpg,0,1,712,1,chosen,6,11,outdoor_scenes,outdoor_scenes,1100,0,5,1
170,56536,0,171,3,3,0,no_gain2,gain4,G,J,47,18,objects,faces,56,39,Stimuli/Experimental_stims/objects/ronaldo-arthur-vidal-Cdz_lvnl37k-unsplash.jpg,Stimuli/Experimental_stims/faces/jessica-radanavong-mrYkTuAesKE-unsplash.jpg,0,1,825,0,unchosen,47,18,objects,faces,3300,1,5,1
171,56536,0,172,3,3,0,no_gain3,gain2,F,A,34,6,body_parts,outdoor_scenes,15,72,Stimuli/Experimental_stims/body_parts/wagner-santos-mBWMvIuVnso-unsplash.jpg,Stimuli/Experimental_stims/outdoor_scenes/meng-ji-8BH_M-53CyA-unsplash.jpg,0,0,576,1,chosen,6,34,outdoor_scenes,body_parts,2800,0,5,1
172,56536,0,173,3,3,0,no_gain4,gain2,K,A,39,6,objects,outdoor_scenes,44,72,Stimuli/Experimental_stims/objects/charlesdeluvio-1-nx1QR5dTE-unsplash.jpg,Stimuli/Experimental_stims/outdoor_scenes/meng-ji-8BH_M-53CyA-unsplash.jpg,0,0,551,1,chosen,6,39,outdoor_scenes,objects,1000,0,5,1
173,56536,0,174,3,3,0,no_gain1,gain6,E,C,25,7,body_parts,outdoor_scenes,40,74,Stimuli/Experimental_stims/body_parts/engin-akyurt-Q2rfH3GW39c-unsplash.jpg,Stimuli/Experimental_stims/outdoor_scenes/petr-vysohlid-9fqwGqGLUxc-unsplash.jpg,0,0,693,1,unchosen,7,25,outdoor_scenes,body_parts,3100,0,5,1
174,56536,0,175,3,3,1,gain4,no_gain1,J,E,46,43,objects,objects,94,33,Stimuli/Experimental_stims/objects/mockup-graphics-PNsj6RiHAF4-unsplash.jpg,Stimuli/Experimental_stims/objects/jonathan-greenaway-Y4hGgeiFn3s-unsplash.jpg,0,1,506,1,chosen,46,43,objects,objects,2000,0,5,1
175,56536,0,176,3,3,0,no_gain6,gain6,D,C,37,7,objects,outdoor_scenes,39,74,Stimuli/Experimental_stims/objects/alexander-andrews-VLGWE_SumrA-unsplash.jpg,Stimuli/Experimental_stims/outdoor_scenes/petr-vysohlid-9fqwGqGLUxc-unsplash.jpg,0,0,565,1,unchosen,7,37,outdoor_scenes,objects,2300,0,5,1
176,56536,0,177,3,3,0,no_gain2,gain5,G,B,11,17,outdoor_scenes,faces,82,56,Stimuli/Experimental_stims/outdoor_scenes/stephen-leonardi-gyIRjKPXupE-unsplash.jpg,Stimuli/Experimental_stims/faces/good-faces-xmSWVeGEnJw-unsplash.jpg,0,0,530,1,chosen,17,11,faces,outdoor_scenes,1500,0,5,1
177,56536,0,178,3,3,0,no_gain5,gain2,L,A,21,44,faces,objects,29,27,Stimuli/Experimental_stims/faces/leilani-angel-K84vnnzxmTQ-unsplash.jpg,Stimuli/Experimental_stims/objects/kuiye-chen-NuOGFo4PudE-unsplash.jpg,0,0,757,1,unchosen,44,21,objects,faces,1600,0,5,1
178,56536,0,179,3,3,1,gain6,no_gain1,C,E,24,43,body_parts,objects,28,33,Stimuli/Experimental_stims/body_parts/clay-banks-LjqARJaJotc-unsplash.jpg,Stimuli/Experimental_stims/objects/jonathan-greenaway-Y4hGgeiFn3s-unsplash.jpg,0,1,531,1,chosen,24,43,body_parts,objects,4200,1,5,1
179,56536,0,180,3,3,0,no_gain5,gain4,L,J,27,46,body_parts,objects,94,94,Stimuli/Experimental_stims/body_parts/heike-mintel-i_Gns0ELnLw-unsplash.jpg,Stimuli/Experimental_stims/objects/mockup-graphics-PNsj6RiHAF4-unsplash.jpg,0,0,531,1,chosen,46,27,objects,body_parts,1000,0,5,1
180,56536,0,181,3,3,0,no_gain6,gain3,D,H,14,19,faces,faces,46,64,Stimuli/Experimental_stims/faces/david-siglin-UuW4psOb388-unsplash.jpg,Stimuli/Experimental_stims/faces/joel-mott-LaK153ghdig-unsplash.jpg,0,0,655,1,chosen,19,14,faces,faces,2000,0,5,1
181,56536,0,182,3,3,1,gain4,no_gain3,J,F,18,13,faces,faces,39,42,Stimuli/Experimental_stims/faces/jessica-radanavong-mrYkTuAesKE-unsplash.jpg,Stimuli/Experimental_stims/faces/daniel-rigdon-dXmXKPP2L4E-unsplash.jpg,0,1,856,1,unchosen,18,13,faces,faces,1700,0,5,1
182,56536,0,183,3,3,1,gain2,no_gain6,A,D,44,37,objects,objects,27,39,Stimuli/Experimental_stims/objects/kuiye-chen-NuOGFo4PudE-unsplash.jpg,Stimuli/Experimental_stims/objects/alexander-andrews-VLGWE_SumrA-unsplash.jpg,0,0,875,0,unchosen,37,44,objects,objects,2300,0,5,1
183,56536,0,184,3,3,1,gain4,no_gain4,J,K,18,30,faces,body_parts,39,66,Stimuli/Experimental_stims/faces/jessica-radanavong-mrYkTuAesKE-unsplash.jpg,Stimuli/Experimental_stims/body_parts/mika-korhonen-Xodzxosar18-unsplash.jpg,0,1,606,1,unchosen,18,30,faces,body_parts,3300,1,5,1
184,56536,0,185,3,3,0,no_gain1,gain2,E,A,43,6,objects,outdoor_scenes,33,72,Stimuli/Experimental_stims/objects/jonathan-greenaway-Y4hGgeiFn3s-unsplash.jpg,Stimuli/Experimental_stims/outdoor_scenes/meng-ji-8BH_M-53CyA-unsplash.jpg,0,0,502,1,chosen,6,43,outdoor_scenes,objects,1100,0,5,1
185,56536,0,186,3,3,0,no_gain4,gain6,K,C,39,24,objects,body_parts,44,28,Stimuli/Experimental_stims/objects/charlesdeluvio-1-nx1QR5dTE-unsplash.jpg,Stimuli/Experimental_stims/body_parts/clay-banks-LjqARJaJotc-unsplash.jpg,0,0,587,1,chosen,24,39,body_parts,objects,1900,0,5,1
186,56536,0,187,3,3,1,gain3,no_gain5,H,L,19,27,faces,body_parts,64,94,Stimuli/Experimental_stims/faces/joel-mott-LaK153ghdig-unsplash.jpg,Stimuli/Experimental_stims/body_parts/heike-mintel-i_Gns0ELnLw-unsplash.jpg,0,1,534,1,chosen,19,27,faces,body_parts,2400,0,5,1
187,56536,0,188,3,3,0,no_gain2,gain6,G,C,47,7,objects,outdoor_scenes,56,74,Stimuli/Experimental_stims/objects/ronaldo-arthur-vidal-Cdz_lvnl37k-unsplash.jpg,Stimuli/Experimental_stims/outdoor_scenes/petr-vysohlid-9fqwGqGLUxc-unsplash.jpg,0,1,1150,0,unchosen,47,7,objects,outdoor_scenes,1900,0,5,1
188,56536,0,189,3,3,0,no_gain1,gain1,E,I,25,8,body_parts,outdoor_scenes,40,24,Stimuli/Experimental_stims/body_parts/engin-akyurt-Q2rfH3GW39c-unsplash.jpg,Stimuli/Experimental_stims/outdoor_scenes/samsommer-vddccTqwal8-unsplash.jpg,0,0,532,1,unchosen,8,25,outdoor_scenes,body_parts,3300,1,5,1
189,56536,0,190,3,3,0,no_gain3,gain5,F,B,13,2,faces,outdoor_scenes,42,25,Stimuli/Experimental_stims/faces/daniel-rigdon-dXmXKPP2L4E-unsplash.jpg,Stimuli/Experimental_stims/outdoor_scenes/bruno-van-der-kraan-qez8mNJ3ilU-unsplash.jpg,0,0,790,1,unchosen,2,13,outdoor_scenes,faces,1200,0,5,1
190,56536,0,191,3,3,1,gain1,no_gain1,I,E,29,43,body_parts,objects,100,33,Stimuli/Experimental_stims/body_parts/manuel-schinner-ZwjFuJ7ebpk-unsplash.jpg,Stimuli/Experimental_stims/objects/jonathan-greenaway-Y4hGgeiFn3s-unsplash.jpg,0,1,582,1,chosen,29,43,body_parts,objects,1100,0,5,1
191,56536,0,192,3,3,0,no_gain4,gain5,K,B,30,2,body_parts,outdoor_scenes,66,25,Stimuli/Experimental_stims/body_parts/mika-korhonen-Xodzxosar18-unsplash.jpg,Stimuli/Experimental_stims/outdoor_scenes/bruno-van-der-kraan-qez8mNJ3ilU-unsplash.jpg,0,0,644,1,unchosen,2,30,outdoor_scenes,body_parts,1400,0,5,1
192,56536,0,193,3,3,1,gain3,no_gain1,H,E,0,25,outdoor_scenes,body_parts,19,40,Stimuli/Experimental_stims/outdoor_scenes/aleksandra-boguslawska-MS7KD9Ti7FQ-unsplash.jpg,Stimuli/Experimental_stims/body_parts/engin-akyurt-Q2rfH3GW39c-unsplash.jpg,0,1,585,1,unchosen,0,25,outdoor_scenes,body_parts,2600,0,5,1
193,56536,0,194,3,3,1,gain6,no_gain4,C,K,7,30,outdoor_scenes,body_parts,74,66,Stimuli/Experimental_stims/outdoor_scenes/petr-vysohlid-9fqwGqGLUxc-unsplash.jpg,Stimuli/Experimental_stims/body_parts/mika-korhonen-Xodzxosar18-unsplash.jpg,0,1,638,1,unchosen,7,30,outdoor_scenes,body_parts,1100,0,5,1
194,56536,0,195,3,3,1,gain1,no_gain3,I,F,29,34,body_parts,body_parts,100,15,Stimuli/Experimental_stims/body_parts/manuel-schinner-ZwjFuJ7ebpk-unsplash.jpg,Stimuli/Experimental_stims/body_parts/wagner-santos-mBWMvIuVnso-unsplash.jpg,0,1,770,1,chosen,29,34,body_parts,body_parts,4100,1,5,1
195,56536,0,196,3,3,1,gain6,no_gain3,C,F,7,13,outdoor_scenes,faces,74,42,Stimuli/Experimental_stims/outdoor_scenes/petr-vysohlid-9fqwGqGLUxc-unsplash.jpg,Stimuli/Experimental_stims/faces/daniel-rigdon-dXmXKPP2L4E-unsplash.jpg,0,1,979,1,unchosen,7,13,outdoor_scenes,faces,1000,0,5,1
196,56536,0,197,3,3,0,no_gain3,gain4,F,J,34,46,body_parts,objects,15,94,Stimuli/Experimental_stims/body_parts/wagner-santos-mBWMvIuVnso-unsplash.jpg,Stimuli/Experimental_stims/objects/mockup-graphics-PNsj6RiHAF4-unsplash.jpg,0,0,714,1,chosen,46,34,objects,body_parts,1800,0,5,1
197,56536,0,198,3,3,1,gain1,no_gain3,I,F,8,13,outdoor_scenes,faces,24,42,Stimuli/Experimental_stims/outdoor_scenes/samsommer-vddccTqwal8-unsplash.jpg,Stimuli/Experimental_stims/faces/daniel-rigdon-dXmXKPP2L4E-unsplash.jpg,0,1,867,1,unchosen,8,13,outdoor_scenes,faces,1600,0,5,1
198,56536,0,199,3,3,1,gain4,no_gain6,J,D,18,37,faces,objects,39,39,Stimuli/Experimental_stims/faces/jessica-radanavong-mrYkTuAesKE-unsplash.jpg,Stimuli/Experimental_stims/objects/alexander-andrews-VLGWE_SumrA-unsplash.jpg,0,1,982,1,unchosen,18,37,faces,objects,2100,0,5,1
199,56536,0,200,3,3,1,gain2,no_gain4,A,K,44,30,objects,body_parts,27,66,Stimuli/Experimental_stims/objects/kuiye-chen-NuOGFo4PudE-unsplash.jpg,Stimuli/Experimental_stims/body_parts/mika-korhonen-Xodzxosar18-unsplash.jpg,0,1,831,1,unchosen,44,30,objects,body_parts,1700,0,5,1
200,56536,0,201,3,3,1,gain5,no_gain3,B,F,17,34,faces,body_parts,56,15,Stimuli/Experimental_stims/faces/good-faces-xmSWVeGEnJw-unsplash.jpg,Stimuli/Experimental_stims/body_parts/wagner-santos-mBWMvIuVnso-unsplash.jpg,0,1,593,1,chosen,17,34,faces,body_parts,3200,1,5,1
201,56536,0,202,3,3,0,no_gain6,gain4,D,J,14,46,faces,objects,46,94,Stimuli/Experimental_stims/faces/david-siglin-UuW4psOb388-unsplash.jpg,Stimuli/Experimental_stims/objects/mockup-graphics-PNsj6RiHAF4-unsplash.jpg,0,0,580,1,chosen,46,14,objects,faces,1100,0,5,1
202,56536,0,203,3,3,1,gain2,no_gain2,A,G,44,47,objects,objects,27,56,Stimuli/Experimental_stims/objects/kuiye-chen-NuOGFo4PudE-unsplash.jpg,Stimuli/Experimental_stims/objects/ronaldo-arthur-vidal-Cdz_lvnl37k-unsplash.jpg,0,0,949,0,unchosen,47,44,objects,objects,2800,0,5,1
203,56536,0,204,3,3,1,gain2,no_gain5,A,L,6,27,outdoor_scenes,body_parts,72,94,Stimuli/Experimental_stims/outdoor_scenes/meng-ji-8BH_M-53CyA-unsplash.jpg,Stimuli/Experimental_stims/body_parts/heike-mintel-i_Gns0ELnLw-unsplash.jpg,0,1,636,1,chosen,6,27,outdoor_scenes,body_parts,1400,0,5,1
204,56536,0,205,3,3,1,gain1,no_gain2,I,G,29,11,body_parts,outdoor_scenes,100,82,Stimuli/Experimental_stims/body_parts/manuel-schinner-ZwjFuJ7ebpk-unsplash.jpg,Stimuli/Experimental_stims/outdoor_scenes/stephen-leonardi-gyIRjKPXupE-unsplash.jpg,0,1,732,1,chosen,29,11,body_parts,outdoor_scenes,2200,0,5,1
205,56536,0,206,3,3,1,gain3,no_gain3,H,F,0,13,outdoor_scenes,faces,19,42,Stimuli/Experimental_stims/outdoor_scenes/aleksandra-boguslawska-MS7KD9Ti7FQ-unsplash.jpg,Stimuli/Experimental_stims/faces/daniel-rigdon-dXmXKPP2L4E-unsplash.jpg,0,0,775,0,unchosen,13,0,faces,outdoor_scenes,1200,0,5,1
206,56536,0,207,3,3,0,no_gain6,gain5,D,B,14,17,faces,faces,46,56,Stimuli/Experimental_stims/faces/david-siglin-UuW4psOb388-unsplash.jpg,Stimuli/Experimental_stims/faces/good-faces-xmSWVeGEnJw-unsplash.jpg,0,0,537,1,chosen,17,14,faces,faces,2100,0,5,1
207,56536,0,208,3,3,1,gain1,no_gain5,I,L,29,27,body_parts,body_parts,100,94,Stimuli/Experimental_stims/body_parts/manuel-schinner-ZwjFuJ7ebpk-unsplash.jpg,Stimuli/Experimental_stims/body_parts/heike-mintel-i_Gns0ELnLw-unsplash.jpg,0,1,841,1,chosen,29,27,body_parts,body_parts,2600,0,5,1
208,56536,0,209,3,3,0,no_gain2,gain3,G,H,47,0,objects,outdoor_scenes,56,19,Stimuli/Experimental_stims/objects/ronaldo-arthur-vidal-Cdz_lvnl37k-unsplash.jpg,Stimuli/Experimental_stims/outdoor_scenes/aleksandra-boguslawska-MS7KD9Ti7FQ-unsplash.jpg,0,1,664,0,unchosen,47,0,objects,outdoor_scenes,3800,1,5,1
209,56536,0,210,3,3,0,no_gain6,gain1,D,I,14,29,faces,body_parts,46,100,Stimuli/Experimental_stims/faces/david-siglin-UuW4psOb388-unsplash.jpg,Stimuli/Experimental_stims/body_parts/manuel-schinner-ZwjFuJ7ebpk-unsplash.jpg,0,0,532,1,chosen,29,14,body_parts,faces,2300,0,5,1
210,56536,0,211,3,3,1,gain3,no_gain2,H,G,19,11,faces,outdoor_scenes,64,82,Stimuli/Experimental_stims/faces/joel-mott-LaK153ghdig-unsplash.jpg,Stimuli/Experimental_stims/outdoor_scenes/stephen-leonardi-gyIRjKPXupE-unsplash.jpg,0,1,700,1,chosen,19,11,faces,outdoor_scenes,1500,0,5,1
211,56536,0,212,3,3,0,no_gain3,gain2,F,A,13,44,faces,objects,42,27,Stimuli/Experimental_stims/faces/daniel-rigdon-dXmXKPP2L4E-unsplash.jpg,Stimuli/Experimental_stims/objects/kuiye-chen-NuOGFo4PudE-unsplash.jpg,0,0,786,1,unchosen,44,13,objects,faces,1700,0,5,1
212,56536,0,213,3,3,1,gain5,no_gain5,B,L,2,21,outdoor_scenes,faces,25,29,Stimuli/Experimental_stims/outdoor_scenes/bruno-van-der-kraan-qez8mNJ3ilU-unsplash.jpg,Stimuli/Experimental_stims/faces/leilani-angel-K84vnnzxmTQ-unsplash.jpg,0,0,732,0,unchosen,21,2,faces,outdoor_scenes,1000,0,5,1
213,56536,0,214,3,3,1,gain6,no_gain5,C,L,7,21,outdoor_scenes,faces,74,29,Stimuli/Experimental_stims/outdoor_scenes/petr-vysohlid-9fqwGqGLUxc-unsplash.jpg,Stimuli/Experimental_stims/faces/leilani-angel-K84vnnzxmTQ-unsplash.jpg,0,0,662,0,unchosen,21,7,faces,outdoor_scenes,2800,0,5,1
214,56536,0,215,3,3,0,no_gain1,gain5,E,B,43,17,objects,faces,33,56,Stimuli/Experimental_stims/objects/jonathan-greenaway-Y4hGgeiFn3s-unsplash.jpg,Stimuli/Experimental_stims/faces/good-faces-xmSWVeGEnJw-unsplash.jpg,0,0,518,1,chosen,17,43,faces,objects,2400,0,5,1
215,56536,0,216,3,3,0,no_gain1,gain5,E,B,25,2,body_parts,outdoor_scenes,40,25,Stimuli/Experimental_stims/body_parts/engin-akyurt-Q2rfH3GW39c-unsplash.jpg,Stimuli/Experimental_stims/outdoor_scenes/bruno-van-der-kraan-qez8mNJ3ilU-unsplash.jpg,0,0,782,1,unchosen,2,25,outdoor_scenes,body_parts,3800,1,5,1
216,56536,0,217,3,3,0,no_gain5,gain3,L,H,21,0,faces,outdoor_scenes,29,19,Stimuli/Experimental_stims/faces/leilani-angel-K84vnnzxmTQ-unsplash.jpg,Stimuli/Experimental_stims/outdoor_scenes/aleksandra-boguslawska-MS7KD9Ti7FQ-unsplash.jpg,0,1,666,0,unchosen,21,0,faces,outdoor_scenes,1500,0,5,1
217,56536,0,218,3,3,0,no_gain5,gain1,L,I,21,8,faces,outdoor_scenes,29,24,Stimuli/Experimental_stims/faces/leilani-angel-K84vnnzxmTQ-unsplash.jpg,Stimuli/Experimental_stims/outdoor_scenes/samsommer-vddccTqwal8-unsplash.jpg,0,0,709,1,unchosen,8,21,outdoor_scenes,faces,1100,0,5,1
218,56536,0,219,3,3,1,gain4,no_gain2,J,G,46,11,objects,outdoor_scenes,94,82,Stimuli/Experimental_stims/objects/mockup-graphics-PNsj6RiHAF4-unsplash.jpg,Stimuli/Experimental_stims/outdoor_scenes/stephen-leonardi-gyIRjKPXupE-unsplash.jpg,0,1,532,1,chosen,46,11,objects,outdoor_scenes,1500,0,5,1
219,56536,0,220,3,3,0,no_gain2,gain6,G,C,11,24,outdoor_scenes,body_parts,82,28,Stimuli/Experimental_stims/outdoor_scenes/stephen-leonardi-gyIRjKPXupE-unsplash.jpg,Stimuli/Experimental_stims/body_parts/clay-banks-LjqARJaJotc-unsplash.jpg,0,0,578,1,chosen,24,11,body_parts,outdoor_scenes,2500,0,5,1
220,56536,0,221,4,4,0,no_gain5,gain1,L,I,21,8,faces,outdoor_scenes,29,24,Stimuli/Experimental_stims/faces/leilani-angel-K84vnnzxmTQ-unsplash.jpg,Stimuli/Experimental_stims/outdoor_scenes/samsommer-vddccTqwal8-unsplash.jpg,0,0,778,1,unchosen,8,21,outdoor_scenes,faces,3400,1,3,1
221,56536,0,222,4,4,0,no_gain5,gain4,L,J,27,46,body_parts,objects,94,94,Stimuli/Experimental_stims/body_parts/heike-mintel-i_Gns0ELnLw-unsplash.jpg,Stimuli/Experimental_stims/objects/mockup-graphics-PNsj6RiHAF4-unsplash.jpg,0,0,670,1,chosen,46,27,objects,body_parts,1500,0,3,1
222,56536,0,223,4,4,0,no_gain2,gain3,G,H,47,0,objects,outdoor_scenes,56,19,Stimuli/Experimental_stims/objects/ronaldo-arthur-vidal-Cdz_lvnl37k-unsplash.jpg,Stimuli/Experimental_stims/outdoor_scenes/aleksandra-boguslawska-MS7KD9Ti7FQ-unsplash.jpg,0,1,850,0,unchosen,47,0,objects,outdoor_scenes,2000,0,3,1
223,56536,0,224,4,4,0,no_gain4,gain3,K,H,30,0,body_parts,outdoor_scenes,66,19,Stimuli/Experimental_stims/body_parts/mika-korhonen-Xodzxosar18-unsplash.jpg,Stimuli/Experimental_stims/outdoor_scenes/aleksandra-boguslawska-MS7KD9Ti7FQ-unsplash.jpg,0,0,683,1,unchosen,0,30,outdoor_scenes,body_parts,1100,0,3,1
224,56536,0,225,4,4,0,no_gain1,gain6,E,C,25,7,body_parts,outdoor_scenes,40,74,Stimuli/Experimental_stims/body_parts/engin-akyurt-Q2rfH3GW39c-unsplash.jpg,Stimuli/Experimental_stims/outdoor_scenes/petr-vysohlid-9fqwGqGLUxc-unsplash.jpg,0,0,638,1,unchosen,7,25,outdoor_scenes,body_parts,2700,0,3,1
225,56536,0,226,4,4,0,no_gain4,gain2,K,A,39,6,objects,outdoor_scenes,44,72,Stimuli/Experimental_stims/objects/charlesdeluvio-1-nx1QR5dTE-unsplash.jpg,Stimuli/Experimental_stims/outdoor_scenes/meng-ji-8BH_M-53CyA-unsplash.jpg,0,0,769,1,chosen,6,39,outdoor_scenes,objects,1700,0,3,1
226,56536,0,227,4,4,0,no_gain1,gain1,E,I,43,29,objects,body_parts,33,100,Stimuli/Experimental_stims/objects/jonathan-greenaway-Y4hGgeiFn3s-unsplash.jpg,Stimuli/Experimental_stims/body_parts/manuel-schinner-ZwjFuJ7ebpk-unsplash.jpg,0,0,545,1,chosen,29,43,body_parts,objects,3500,1,3,1
227,56536,0,228,4,4,0,no_gain3,gain3,F,H,13,0,faces,outdoor_scenes,42,19,Stimuli/Experimental_stims/faces/daniel-rigdon-dXmXKPP2L4E-unsplash.jpg,Stimuli/Experimental_stims/outdoor_scenes/aleksandra-boguslawska-MS7KD9Ti7FQ-unsplash.jpg,0,0,853,1,unchosen,0,13,outdoor_scenes,faces,2700,0,3,1
228,56536,0,229,4,4,1,gain4,no_gain5,J,L,18,21,faces,faces,39,29,Stimuli/Experimental_stims/faces/jessica-radanavong-mrYkTuAesKE-unsplash.jpg,Stimuli/Experimental_stims/faces/leilani-angel-K84vnnzxmTQ-unsplash.jpg,0,0,915,0,unchosen,21,18,faces,faces,1500,0,3,1
229,56536,0,230,4,4,0,no_gain6,gain1,D,I,14,29,faces,body_parts,46,100,Stimuli/Experimental_stims/faces/david-siglin-UuW4psOb388-unsplash.jpg,Stimuli/Experimental_stims/body_parts/manuel-schinner-ZwjFuJ7ebpk-unsplash.jpg,0,0,569,1,chosen,29,14,body_parts,faces,1700,0,3,1
230,56536,0,231,4,4,0,no_gain1,gain2,E,A,25,44,body_parts,objects,40,27,Stimuli/Experimental_stims/body_parts/engin-akyurt-Q2rfH3GW39c-unsplash.jpg,Stimuli/Experimental_stims/objects/kuiye-chen-NuOGFo4PudE-unsplash.jpg,0,0,753,1,unchosen,44,25,objects,body_parts,2300,0,3,1
231,56536,0,232,4,4,0,no_gain4,gain6,K,C,39,24,objects,body_parts,44,28,Stimuli/Experimental_stims/objects/charlesdeluvio-1-nx1QR5dTE-unsplash.jpg,Stimuli/Experimental_stims/body_parts/clay-banks-LjqARJaJotc-unsplash.jpg,0,0,761,1,chosen,24,39,body_parts,objects,3100,1,3,1
232,56536,0,233,4,4,1,gain5,no_gain3,B,F,17,34,faces,body_parts,56,15,Stimuli/Experimental_stims/faces/good-faces-xmSWVeGEnJw-unsplash.jpg,Stimuli/Experimental_stims/body_parts/wagner-santos-mBWMvIuVnso-unsplash.jpg,0,1,674,1,chosen,17,34,faces,body_parts,1300,0,3,1
233,56536,0,234,4,4,1,gain1,no_gain3,I,F,29,34,body_parts,body_parts,100,15,Stimuli/Experimental_stims/body_parts/manuel-schinner-ZwjFuJ7ebpk-unsplash.jpg,Stimuli/Experimental_stims/body_parts/wagner-santos-mBWMvIuVnso-unsplash.jpg,0,1,650,1,chosen,29,34,body_parts,body_parts,1400,0,3,1
234,56536,0,235,4,4,1,gain2,no_gain4,A,K,44,30,objects,body_parts,27,66,Stimuli/Experimental_stims/objects/kuiye-chen-NuOGFo4PudE-unsplash.jpg,Stimuli/Experimental_stims/body_parts/mika-korhonen-Xodzxosar18-unsplash.jpg,0,1,652,1,unchosen,44,30,objects,body_parts,2500,0,3,1
235,56536,0,236,4,4,1,gain2,no_gain5,A,L,44,21,objects,faces,27,29,Stimuli/Experimental_stims/objects/kuiye-chen-NuOGFo4PudE-unsplash.jpg,Stimuli/Experimental_stims/faces/leilani-angel-K84vnnzxmTQ-unsplash.jpg,0,0,780,0,unchosen,21,44,faces,objects,1500,0,3,1
236,56536,0,237,4,4,1,gain4,no_gain1,J,E,18,25,faces,body_parts,39,40,Stimuli/Experimental_stims/faces/jessica-radanavong-mrYkTuAesKE-unsplash.jpg,Stimuli/Experimental_stims/body_parts/engin-akyurt-Q2rfH3GW39c-unsplash.jpg,0,1,610,1,unchosen,18,25,faces,body_parts,1900,0,3,1
237,56536,0,238,4,4,1,gain6,no_gain3,C,F,24,34,body_parts,body_parts,28,15,Stimuli/Experimental_stims/body_parts/clay-banks-LjqARJaJotc-unsplash.jpg,Stimuli/Experimental_stims/body_parts/wagner-santos-mBWMvIuVnso-unsplash.jpg,0,1,536,1,chosen,24,34,body_parts,body_parts,1200,0,3,1
238,56536,0,239,4,4,1,gain2,no_gain5,A,L,6,27,outdoor_scenes,body_parts,72,94,Stimuli/Experimental_stims/outdoor_scenes/meng-ji-8BH_M-53CyA-unsplash.jpg,Stimuli/Experimental_stims/body_parts/heike-mintel-i_Gns0ELnLw-unsplash.jpg,0,1,633,1,chosen,6,27,outdoor_scenes,body_parts,3500,1,3,1
239,56536,0,240,4,4,0,no_gain2,gain6,G,C,47,7,objects,outdoor_scenes,56,74,Stimuli/Experimental_stims/objects/ronaldo-arthur-vidal-Cdz_lvnl37k-unsplash.jpg,Stimuli/Experimental_stims/outdoor_scenes/petr-vysohlid-9fqwGqGLUxc-unsplash.jpg,0,1,831,0,unchosen,47,7,objects,outdoor_scenes,1500,0,3,1
240,56536,0,241,4,4,1,gain5,no_gain6,B,D,17,14,faces,faces,56,46,Stimuli/Experimental_stims/faces/good-faces-xmSWVeGEnJw-unsplash.jpg,Stimuli/Experimental_stims/faces/david-siglin-UuW4psOb388-unsplash.jpg,0,1,513,1,chosen,17,14,faces,faces,2200,0,3,1
241,56536,0,242,4,4,1,gain6,no_gain2,C,G,24,11,body_parts,outdoor_scenes,28,82,Stimuli/Experimental_stims/body_parts/clay-banks-LjqARJaJotc-unsplash.jpg,Stimuli/Experimental_stims/outdoor_scenes/stephen-leonardi-gyIRjKPXupE-unsplash.jpg,0,1,567,1,chosen,24,11,body_parts,outdoor_scenes,1100,0,3,1
242,56536,0,243,4,4,0,no_gain3,gain2,F,A,34,6,body_parts,outdoor_scenes,15,72,Stimuli/Experimental_stims/body_parts/wagner-santos-mBWMvIuVnso-unsplash.jpg,Stimuli/Experimental_stims/outdoor_scenes/meng-ji-8BH_M-53CyA-unsplash.jpg,0,0,588,1,chosen,6,34,outdoor_scenes,body_parts,1300,0,3,1
243,56536,0,244,4,4,0,no_gain3,gain5,F,B,13,2,faces,outdoor_scenes,42,25,Stimuli/Experimental_stims/faces/daniel-rigdon-dXmXKPP2L4E-unsplash.jpg,Stimuli/Experimental_stims/outdoor_scenes/bruno-van-der-kraan-qez8mNJ3ilU-unsplash.jpg,0,0,823,1,unchosen,2,13,outdoor_scenes,faces,1500,0,3,1
244,56536,0,245,4,4,0,no_gain6,gain6,D,C,14,24,faces,body_parts,46,28,Stimuli/Experimental_stims/faces/david-siglin-UuW4psOb388-unsplash.jpg,Stimuli/Experimental_stims/body_parts/clay-banks-LjqARJaJotc-unsplash.jpg,0,0,495,1,chosen,24,14,body_parts,faces,1100,0,3,1
245,56536,0,246,4,4,1,gain3,no_gain6,H,D,19,14,faces,faces,64,46,Stimuli/Experimental_stims/faces/joel-mott-LaK153ghdig-unsplash.jpg,Stimuli/Experimental_stims/faces/david-siglin-UuW4psOb388-unsplash.jpg,0,1,553,1,chosen,19,14,faces,faces,2000,0,3,1
246,56536,0,247,4,4,0,no_gain2,gain5,G,B,47,2,objects,outdoor_scenes,56,25,Stimuli/Experimental_stims/objects/ronaldo-arthur-vidal-Cdz_lvnl37k-unsplash.jpg,Stimuli/Experimental_stims/outdoor_scenes/bruno-van-der-kraan-qez8mNJ3ilU-unsplash.jpg,0,1,624,0,unchosen,47,2,objects,outdoor_scenes,4700,1,3,1
247,56536,0,248,4,4,0,no_gain1,gain3,E,H,43,19,objects,faces,33,64,Stimuli/Experimental_stims/objects/jonathan-greenaway-Y4hGgeiFn3s-unsplash.jpg,Stimuli/Experimental_stims/faces/joel-mott-LaK153ghdig-unsplash.jpg,0,0,578,1,chosen,19,43,faces,objects,2400,0,3,1
248,56536,0,249,4,4,1,gain4,no_gain2,J,G,18,47,faces,objects,39,56,Stimuli/Experimental_stims/faces/jessica-radanavong-mrYkTuAesKE-unsplash.jpg,Stimuli/Experimental_stims/objects/ronaldo-arthur-vidal-Cdz_lvnl37k-unsplash.jpg,0,1,387,1,unchosen,18,47,faces,objects,1100,0,3,1
249,56536,0,250,4,4,1,gain6,no_gain5,C,L,24,27,body_parts,body_parts,28,94,Stimuli/Experimental_stims/body_parts/clay-banks-LjqARJaJotc-unsplash.jpg,Stimuli/Experimental_stims/body_parts/heike-mintel-i_Gns0ELnLw-unsplash.jpg,0,1,797,1,chosen,24,27,body_parts,body_parts,2400,0,3,1
250,56536,0,251,4,4,1,gain4,no_gain6,J,D,18,37,faces,objects,39,39,Stimuli/Experimental_stims/faces/jessica-radanavong-mrYkTuAesKE-unsplash.jpg,Stimuli/Experimental_stims/objects/alexander-andrews-VLGWE_SumrA-unsplash.jpg,0,1,817,1,unchosen,18,37,faces,objects,1600,0,3,1
251,56536,0,252,4,4,0,no_gain1,gain1,E,I,25,8,body_parts,outdoor_scenes,40,24,Stimuli/Experimental_stims/body_parts/engin-akyurt-Q2rfH3GW39c-unsplash.jpg,Stimuli/Experimental_stims/outdoor_scenes/samsommer-vddccTqwal8-unsplash.jpg,0,0,536,1,unchosen,8,25,outdoor_scenes,body_parts,2300,0,3,1
252,56536,0,253,4,4,0,no_gain3,gain4,F,J,34,46,body_parts,objects,15,94,Stimuli/Experimental_stims/body_parts/wagner-santos-mBWMvIuVnso-unsplash.jpg,Stimuli/Experimental_stims/objects/mockup-graphics-PNsj6RiHAF4-unsplash.jpg,0,0,706,1,chosen,46,34,objects,body_parts,2500,0,3,1
253,56536,0,254,4,4,1,gain3,no_gain5,H,L,19,27,faces,body_parts,64,94,Stimuli/Experimental_stims/faces/joel-mott-LaK153ghdig-unsplash.jpg,Stimuli/Experimental_stims/body_parts/heike-mintel-i_Gns0ELnLw-unsplash.jpg,0,1,472,1,chosen,19,27,faces,body_parts,3700,1,3,1
254,56536,0,255,4,4,1,gain2,no_gain1,A,E,6,43,outdoor_scenes,objects,72,33,Stimuli/Experimental_stims/outdoor_scenes/meng-ji-8BH_M-53CyA-unsplash.jpg,Stimuli/Experimental_stims/objects/jonathan-greenaway-Y4hGgeiFn3s-unsplash.jpg,0,1,549,1,chosen,6,43,outdoor_scenes,objects,2100,0,3,1
255,56536,0,256,4,4,1,gain6,no_gain3,C,F,7,13,outdoor_scenes,faces,74,42,Stimuli/Experimental_stims/outdoor_scenes/petr-vysohlid-9fqwGqGLUxc-unsplash.jpg,Stimuli/Experimental_stims/faces/daniel-rigdon-dXmXKPP2L4E-unsplash.jpg,0,0,1390,0,unchosen,13,7,faces,outdoor_scenes,2300,0,3,1
256,56536,0,257,4,4,0,no_gain6,gain1,D,I,37,8,objects,outdoor_scenes,39,24,Stimuli/Experimental_stims/objects/alexander-andrews-VLGWE_SumrA-unsplash.jpg,Stimuli/Experimental_stims/outdoor_scenes/samsommer-vddccTqwal8-unsplash.jpg,0,0,650,1,unchosen,8,37,outdoor_scenes,objects,1700,0,3,1
257,56536,0,258,4,4,0,no_gain4,gain6,K,C,30,7,body_parts,outdoor_scenes,66,74,Stimuli/Experimental_stims/body_parts/mika-korhonen-Xodzxosar18-unsplash.jpg,Stimuli/Experimental_stims/outdoor_scenes/petr-vysohlid-9fqwGqGLUxc-unsplash.jpg,0,0,660,1,unchosen,7,30,outdoor_scenes,body_parts,2900,0,3,1
258,56536,0,259,4,4,0,no_gain4,gain1,K,I,39,29,objects,body_parts,44,100,Stimuli/Experimental_stims/objects/charlesdeluvio-1-nx1QR5dTE-unsplash.jpg,Stimuli/Experimental_stims/body_parts/manuel-schinner-ZwjFuJ7ebpk-unsplash.jpg,0,0,535,1,chosen,29,39,body_parts,objects,3000,1,3,1
259,56536,0,260,4,4,1,gain2,no_gain3,A,F,44,13,objects,faces,27,42,Stimuli/Experimental_stims/objects/kuiye-chen-NuOGFo4PudE-unsplash.jpg,Stimuli/Experimental_stims/faces/daniel-rigdon-dXmXKPP2L4E-unsplash.jpg,0,0,455,0,unchosen,13,44,faces,objects,2600,0,3,1
260,56536,0,261,4,4,0,no_gain6,gain5,D,B,37,2,objects,outdoor_scenes,39,25,Stimuli/Experimental_stims/objects/alexander-andrews-VLGWE_SumrA-unsplash.jpg,Stimuli/Experimental_stims/outdoor_scenes/bruno-van-der-kraan-qez8mNJ3ilU-unsplash.jpg,0,1,1123,0,unchosen,37,2,objects,outdoor_scenes,1700,0,3,1
261,56536,0,262,4,4,0,no_gain3,gain1,F,I,13,8,faces,outdoor_scenes,42,24,Stimuli/Experimental_stims/faces/daniel-rigdon-dXmXKPP2L4E-unsplash.jpg,Stimuli/Experimental_stims/outdoor_scenes/samsommer-vddccTqwal8-unsplash.jpg,0,0,537,1,unchosen,8,13,outdoor_scenes,faces,1800,0,3,1
262,56536,0,263,4,4,1,gain5,no_gain5,B,L,17,27,faces,body_parts,56,94,Stimuli/Experimental_stims/faces/good-faces-xmSWVeGEnJw-unsplash.jpg,Stimuli/Experimental_stims/body_parts/heike-mintel-i_Gns0ELnLw-unsplash.jpg,0,1,478,1,chosen,17,27,faces,body_parts,1400,0,3,1
263,56536,0,264,4,4,0,no_gain2,gain1,G,I,11,29,outdoor_scenes,body_parts,82,100,Stimuli/Experimental_stims/outdoor_scenes/stephen-leonardi-gyIRjKPXupE-unsplash.jpg,Stimuli/Experimental_stims/body_parts/manuel-schinner-ZwjFuJ7ebpk-unsplash.jpg,0,0,695,1,chosen,29,11,body_parts,outdoor_scenes,2200,0,3,1
264,56536,0,265,4,4,0,no_gain2,gain1,G,I,47,8,objects,outdoor_scenes,56,24,Stimuli/Experimental_stims/objects/ronaldo-arthur-vidal-Cdz_lvnl37k-unsplash.jpg,Stimuli/Experimental_stims/outdoor_scenes/samsommer-vddccTqwal8-unsplash.jpg,0,0,984,1,unchosen,8,47,outdoor_scenes,objects,3500,1,3,1
265,56536,0,266,4,4,1,gain3,no_gain3,H,F,19,34,faces,body_parts,64,15,Stimuli/Experimental_stims/faces/joel-mott-LaK153ghdig-unsplash.jpg,Stimuli/Experimental_stims/body_parts/wagner-santos-mBWMvIuVnso-unsplash.jpg,0,1,506,1,chosen,19,34,faces,body_parts,1400,0,3,1
266,56536,0,267,4,4,0,no_gain2,gain4,G,J,11,46,outdoor_scenes,objects,82,94,Stimuli/Experimental_stims/outdoor_scenes/stephen-leonardi-gyIRjKPXupE-unsplash.jpg,Stimuli/Experimental_stims/objects/mockup-graphics-PNsj6RiHAF4-unsplash.jpg,0,0,515,1,chosen,46,11,objects,outdoor_scenes,1100,0,3,1
267,56536,0,268,4,4,1,gain6,no_gain1,C,E,24,43,body_parts,objects,28,33,Stimuli/Experimental_stims/body_parts/clay-banks-LjqARJaJotc-unsplash.jpg,Stimuli/Experimental_stims/objects/jonathan-greenaway-Y4hGgeiFn3s-unsplash.jpg,0,1,443,1,chosen,24,43,body_parts,objects,1300,0,3,1
268,56536,0,269,4,4,0,no_gain1,gain3,E,H,25,0,body_parts,outdoor_scenes,40,19,Stimuli/Experimental_stims/body_parts/engin-akyurt-Q2rfH3GW39c-unsplash.jpg,Stimuli/Experimental_stims/outdoor_scenes/aleksandra-boguslawska-MS7KD9Ti7FQ-unsplash.jpg,0,0,565,1,unchosen,0,25,outdoor_scenes,body_parts,2600,0,3,1
269,56536,0,270,4,4,0,no_gain4,gain4,K,J,39,46,objects,objects,44,94,Stimuli/Experimental_stims/objects/charlesdeluvio-1-nx1QR5dTE-unsplash.jpg,Stimuli/Experimental_stims/objects/mockup-graphics-PNsj6RiHAF4-unsplash.jpg,0,0,494,1,chosen,46,39,objects,objects,1100,0,3,1
270,56536,0,271,4,4,1,gain1,no_gain4,I,K,8,30,outdoor_scenes,body_parts,24,66,Stimuli/Experimental_stims/outdoor_scenes/samsommer-vddccTqwal8-unsplash.jpg,Stimuli/Experimental_stims/body_parts/mika-korhonen-Xodzxosar18-unsplash.jpg,0,1,886,1,unchosen,8,30,outdoor_scenes,body_parts,1400,0,3,1
271,56536,0,272,4,4,1,gain4,no_gain3,J,F,18,13,faces,faces,39,42,Stimuli/Experimental_stims/faces/jessica-radanavong-mrYkTuAesKE-unsplash.jpg,Stimuli/Experimental_stims/faces/daniel-rigdon-dXmXKPP2L4E-unsplash.jpg,0,1,799,1,unchosen,18,13,faces,faces,3200,1,3,1
272,56536,0,273,4,4,0,no_gain6,gain2,D,A,14,6,faces,outdoor_scenes,46,72,Stimuli/Experimental_stims/faces/david-siglin-UuW4psOb388-unsplash.jpg,Stimuli/Experimental_stims/outdoor_scenes/meng-ji-8BH_M-53CyA-unsplash.jpg,0,0,574,1,chosen,6,14,outdoor_scenes,faces,1600,0,3,1
273,56536,0,274,4,4,0,no_gain2,gain5,G,B,11,17,outdoor_scenes,faces,82,56,Stimuli/Experimental_stims/outdoor_scenes/stephen-leonardi-gyIRjKPXupE-unsplash.jpg,Stimuli/Experimental_stims/faces/good-faces-xmSWVeGEnJw-unsplash.jpg,0,0,609,1,chosen,17,11,faces,outdoor_scenes,1000,0,3,1
274,56536,0,275,4,4,1,gain1,no_gain5,I,L,29,27,body_parts,body_parts,100,94,Stimuli/Experimental_stims/body_parts/manuel-schinner-ZwjFuJ7ebpk-unsplash.jpg,Stimuli/Experimental_stims/body_parts/heike-mintel-i_Gns0ELnLw-unsplash.jpg,0,1,535,1,chosen,29,27,body_parts,body_parts,1700,0,3,1
275,56536,0,276,4,4,1,gain4,no_gain4,J,K,18,30,faces,body_parts,39,66,Stimuli/Experimental_stims/faces/jessica-radanavong-mrYkTuAesKE-unsplash.jpg,Stimuli/Experimental_stims/body_parts/mika-korhonen-Xodzxosar18-unsplash.jpg,0,1,598,1,unchosen,18,30,faces,body_parts,1200,0,3,1
276,56536,0,277,4,4,1,gain3,no_gain5,H,L,0,21,outdoor_scenes,faces,19,29,Stimuli/Experimental_stims/outdoor_scenes/aleksandra-boguslawska-MS7KD9Ti7FQ-unsplash.jpg,Stimuli/Experimental_stims/faces/leilani-angel-K84vnnzxmTQ-unsplash.jpg,0,0,629,0,unchosen,21,0,faces,outdoor_scenes,2200,0,3,1
277,56536,0,278,4,4,0,no_gain5,gain6,L,C,21,7,faces,outdoor_scenes,29,74,Stimuli/Experimental_stims/faces/leilani-angel-K84vnnzxmTQ-unsplash.jpg,Stimuli/Experimental_stims/outdoor_scenes/petr-vysohlid-9fqwGqGLUxc-unsplash.jpg,0,0,560,1,unchosen,7,21,outdoor_scenes,faces,2000,0,3,1
278,56536,0,279,4,4,1,gain3,no_gain4,H,K,19,39,faces,objects,64,44,Stimuli/Experimental_stims/faces/joel-mott-LaK153ghdig-unsplash.jpg,Stimuli/Experimental_stims/objects/charlesdeluvio-1-nx1QR5dTE-unsplash.jpg,0,1,508,1,chosen,19,39,faces,objects,3100,1,3,1
279,56536,0,280,4,4,1,gain5,no_gain5,B,L,2,21,outdoor_scenes,faces,25,29,Stimuli/Experimental_stims/outdoor_scenes/bruno-van-der-kraan-qez8mNJ3ilU-unsplash.jpg,Stimuli/Experimental_stims/faces/leilani-angel-K84vnnzxmTQ-unsplash.jpg,0,0,1464,0,unchosen,21,2,faces,outdoor_scenes,2400,0,3,1
280,56536,0,281,4,4,1,gain4,no_gain1,J,E,46,43,objects,objects,94,33,Stimuli/Experimental_stims/objects/mockup-graphics-PNsj6RiHAF4-unsplash.jpg,Stimuli/Experimental_stims/objects/jonathan-greenaway-Y4hGgeiFn3s-unsplash.jpg,0,1,477,1,chosen,46,43,objects,objects,1000,0,3,1
281,56536,0,282,4,4,0,no_gain1,gain5,E,B,43,17,objects,faces,33,56,Stimuli/Experimental_stims/objects/jonathan-greenaway-Y4hGgeiFn3s-unsplash.jpg,Stimuli/Experimental_stims/faces/good-faces-xmSWVeGEnJw-unsplash.jpg,0,0,529,1,chosen,17,43,faces,objects,1900,0,3,1
282,56536,0,283,4,4,0,no_gain4,gain5,K,B,30,2,body_parts,outdoor_scenes,66,25,Stimuli/Experimental_stims/body_parts/mika-korhonen-Xodzxosar18-unsplash.jpg,Stimuli/Experimental_stims/outdoor_scenes/bruno-van-der-kraan-qez8mNJ3ilU-unsplash.jpg,0,0,778,1,unchosen,2,30,outdoor_scenes,body_parts,2400,0,3,1
283,56536,0,284,4,4,1,gain2,no_gain2,A,G,6,11,outdoor_scenes,outdoor_scenes,72,82,Stimuli/Experimental_stims/outdoor_scenes/meng-ji-8BH_M-53CyA-unsplash.jpg,Stimuli/Experimental_stims/outdoor_scenes/stephen-leonardi-gyIRjKPXupE-unsplash.jpg,0,1,572,1,chosen,6,11,outdoor_scenes,outdoor_scenes,1300,0,3,1
284,56536,0,285,4,4,0,no_gain4,gain5,K,B,39,17,objects,faces,44,56,Stimuli/Experimental_stims/objects/charlesdeluvio-1-nx1QR5dTE-unsplash.jpg,Stimuli/Experimental_stims/faces/good-faces-xmSWVeGEnJw-unsplash.jpg,0,0,507,1,chosen,17,39,faces,objects,1600,0,3,1
285,56536,0,286,4,4,1,gain6,no_gain6,C,D,7,37,outdoor_scenes,objects,74,39,Stimuli/Experimental_stims/outdoor_scenes/petr-vysohlid-9fqwGqGLUxc-unsplash.jpg,Stimuli/Experimental_stims/objects/alexander-andrews-VLGWE_SumrA-unsplash.jpg,0,0,755,0,unchosen,37,7,objects,outdoor_scenes,1000,0,3,1
286,56536,0,287,4,4,0,no_gain6,gain4,D,J,14,46,faces,objects,46,94,Stimuli/Experimental_stims/faces/david-siglin-UuW4psOb388-unsplash.jpg,Stimuli/Experimental_stims/objects/mockup-graphics-PNsj6RiHAF4-unsplash.jpg,0,0,465,1,chosen,46,14,objects,faces,1500,0,3,1
287,56536,0,288,4,4,1,gain5,no_gain1,B,E,2,25,outdoor_scenes,body_parts,25,40,Stimuli/Experimental_stims/outdoor_scenes/bruno-van-der-kraan-qez8mNJ3ilU-unsplash.jpg,Stimuli/Experimental_stims/body_parts/engin-akyurt-Q2rfH3GW39c-unsplash.jpg,0,1,698,1,unchosen,2,25,outdoor_scenes,body_parts,1900,0,3,1
288,56536,0,289,4,4,1,gain3,no_gain2,H,G,19,11,faces,outdoor_scenes,64,82,Stimuli/Experimental_stims/faces/joel-mott-LaK153ghdig-unsplash.jpg,Stimuli/Experimental_stims/outdoor_scenes/stephen-leonardi-gyIRjKPXupE-unsplash.jpg,0,0,533,0,chosen,11,19,outdoor_scenes,faces,1600,0,3,1
289,56536,0,290,4,4,1,gain3,no_gain6,H,D,0,37,outdoor_scenes,objects,19,39,Stimuli/Experimental_stims/outdoor_scenes/aleksandra-boguslawska-MS7KD9Ti7FQ-unsplash.jpg,Stimuli/Experimental_stims/objects/alexander-andrews-VLGWE_SumrA-unsplash.jpg,0,1,1005,1,unchosen,0,37,outdoor_scenes,objects,1200,0,3,1
290,56536,0,291,4,4,1,gain2,no_gain2,A,G,44,47,objects,objects,27,56,Stimuli/Experimental_stims/objects/kuiye-chen-NuOGFo4PudE-unsplash.jpg,Stimuli/Experimental_stims/objects/ronaldo-arthur-vidal-Cdz_lvnl37k-unsplash.jpg,0,0,1004,0,unchosen,47,44,objects,objects,1000,0,3,1
291,56536,0,292,4,4,1,gain2,no_gain6,A,D,44,37,objects,objects,27,39,Stimuli/Experimental_stims/objects/kuiye-chen-NuOGFo4PudE-unsplash.jpg,Stimuli/Experimental_stims/objects/alexander-andrews-VLGWE_SumrA-unsplash.jpg,0,0,632,0,unchosen,37,44,objects,objects,3200,1,3,1