,PID,practice,trial,block,run,gain_left,left_item_id,right_item_id,left_pair_id,right_pair_id,left_stimulus,right_stimulus,left_category,right_category,left_rating,right_rating,left_path,right_path,no_response,left_chosen,rt,higher_outcome_chosen,choice_type,chosen_stimulus,unchosen_stimulus,chosen_category,unchosen_category,iti,long_iti,simulation,version
0,88358,1,1,0,0,0,,,,,,,,,,,Stimuli/Practice_stims/Final_decisions/debby-hudson-FmCSSSGge-0-unsplash.jpg,Stimuli/Practice_stims/Final_decisions/yassine-khalfalli-adsQ9d_Cx0c-unsplash.jpg,0,1,1085,0,,,,,,3000,0,9,3
1,88358,1,2,0,0,0,,,,,,,,,,,Stimuli/Practice_stims/Final_decisions/florian-wehde-iVW7mZPwd4g-unsplash.jpg,Stimuli/Practice_stims/Final_decisions/patrick-perkins-3wylDrjxH-E-unsplash.jpg,0,1,1225,0,,,,,,1500,0,9,3
2,88358,1,3,0,0,0,,,,,,,,,,,Stimuli/Practice_stims/Final_decisions/debby-hudson-FmCSSSGge-0-unsplash.jpg,Stimuli/Practice_stims/Final_decisions/florian-wehde-iVW7mZPwd4g-unsplash.jpg,0,0,1173,1,,,,,,2000,0,9,3
3,88358,1,4,0,0,0,,,,,,,,,,,Stimuli/Practice_stims/Final_decisions/yassine-khalfalli-adsQ9d_Cx0c-unsplash.jpg,Stimuli/Practice_stims/Final_decisions/debby-hudson-FmCSSSGge-0-unsplash.jpg,0,1,1006,0,,,,,,1000,0,9,3
4,88358,0,5,1,1,1,gain5,no_gain5,C,G,25,42,body_parts,objects,50,50,Stimuli/Experimental_stims/body_parts/engin-akyurt-Q2rfH3GW39c-unsplash.jpg,Stimuli/Experimental_stims/objects/jess-bailey-nOeVi8DsN8U-unsplash.jpg,0,0,957,0,unchosen,42,25,objects,body_parts,4700,1,9,3
5,88358,0,6,1,1,1,gain3,no_gain2,A,J,39,17,objects,faces,50,51,Stimuli/Experimental_stims/objects/charlesdeluvio-1-nx1QR5dTE-unsplash.jpg,Stimuli/Experimental_stims/faces/good-faces-xmSWVeGEnJw-unsplash.jpg,0,0,1171,0,unchosen,17,39,faces,objects,2300,0,9,3
6,88358,0,7,1,1,1,gain1,no_gain2,L,J,30,17,body_parts,faces,50,51,Stimuli/Experimental_stims/body_parts/mika-korhonen-Xodzxosar18-unsplash.jpg,Stimuli/Experimental_stims/faces/good-faces-xmSWVeGEnJw-unsplash.jpg,0,0,886,0,unchosen,17,30,faces,body_parts,1100,0,9,3
7,88358,0,8,1,1,0,no_gain4,gain5,H,C,23,5,faces,outdoor_scenes,73,100,Stimuli/Experimental_stims/faces/rikonavt-HQjfrvdTfak-unsplash.jpg,Stimuli/Experimental_stims/outdoor_scenes/jeff-king-bJHWJeiHfHc-unsplash.jpg,0,0,1092,1,chosen,5,23,outdoor_scenes,faces,1600,0,9,3
8,88358,0,9,1,1,0,no_gain5,gain1,G,L,42,30,objects,body_parts,50,50,Stimuli/Experimental_stims/objects/jess-bailey-nOeVi8DsN8U-unsplash.jpg,Stimuli/Experimental_stims/body_parts/mika-korhonen-Xodzxosar18-unsplash.jpg,0,1,977,0,unchosen,42,30,objects,body_parts,2300,0,9,3
9,88358,0,10,1,1,0,no_gain4,gain1,H,L,23,15,faces,faces,73,74,Stimuli/Experimental_stims/faces/rikonavt-HQjfrvdTfak-unsplash.jpg,Stimuli/Experimental_stims/faces/erik-lucatero-d2MSDujJl2g-unsplash.jpg,0,0,838,1,chosen,15,23,faces,faces,1500,0,9,3
10,88358,0,11,1,1,1,gain1,no_gain3,L,B,15,0,faces,outdoor_scenes,74,62,Stimuli/Experimental_stims/faces/erik-lucatero-d2MSDujJl2g-unsplash.jpg,Stimuli/Experimental_stims/outdoor_scenes/aleksandra-boguslawska-MS7KD9Ti7FQ-unsplash.jpg,0,1,870,1,chosen,15,0,faces,outdoor_scenes,1500,0,9,3
11,88358,0,12,1,1,0,no_gain1,gain1,K,L,31,15,body_parts,faces,64,74,Stimuli/Experimental_stims/body_parts/sincerely-media-VN6DbKajo5s-unsplash.jpg,Stimuli/Experimental_stims/faces/erik-lucatero-d2MSDujJl2g-unsplash.jpg,0,0,757,1,chosen,15,31,faces,body_parts,1200,0,9,3
12,88358,0,13,1,1,1,gain6,no_gain1,D,K,43,36,objects,objects,57,51,Stimuli/Experimental_stims/objects/jonathan-greenaway-Y4hGgeiFn3s-unsplash.jpg,Stimuli/Experimental_stims/objects/alexander-andrews-JYGnB9gTCls-unsplash.jpg,0,0,1489,0,unchosen,36,43,objects,objects,1300,0,9,3
13,88358,0,14,1,1,0,no_gain1,gain4,K,I,31,27,body_parts,body_parts,64,81,Stimuli/Experimental_stims/body_parts/sincerely-media-VN6DbKajo5s-unsplash.jpg,Stimuli/Experimental_stims/body_parts/heike-mintel-i_Gns0ELnLw-unsplash.jpg,0,0,1119,1,chosen,27,31,body_parts,body_parts,1200,0,9,3
14,88358,0,15,1,1,1,gain6,no_gain4,D,H,43,7,objects,outdoor_scenes,57,70,Stimuli/Experimental_stims/objects/jonathan-greenaway-Y4hGgeiFn3s-unsplash.jpg,Stimuli/Experimental_stims/outdoor_scenes/petr-vysohlid-9fqwGqGLUxc-unsplash.jpg,0,0,1170,0,unchosen,7,43,outdoor_scenes,objects,4100,1,9,3
15,88358,0,16,1,1,1,gain4,no_gain4,I,H,3,7,outdoor_scenes,outdoor_scenes,100,70,Stimuli/Experimental_stims/outdoor_scenes/henry-be-NLF6hTe4PAg-unsplash.jpg,Stimuli/Experimental_stims/outdoor_scenes/petr-vysohlid-9fqwGqGLUxc-unsplash.jpg,0,0,1252,0,unchosen,7,3,outdoor_scenes,outdoor_scenes,1200,0,9,3
16,88358,0,17,1,1,1,gain5,no_gain6,C,F,5,34,outdoor_scenes,body_parts,100,50,Stimuli/Experimental_stims/outdoor_scenes/jeff-king-bJHWJeiHfHc-unsplash.jpg,Stimuli/Experimental_stims/body_parts/wagner-santos-mBWMvIuVnso-unsplash.jpg,0,1,882,1,chosen,5,34,outdoor_scenes,body_parts,1200,0,9,3
17,88358,0,18,1,1,0,no_gain3,gain3,B,A,16,39,faces,objects,67,50,Stimuli/Experimental_stims/faces/freddy-kearney-o-ioeoATbIM-unsplash.jpg,Stimuli/Experimental_stims/objects/charlesdeluvio-1-nx1QR5dTE-unsplash.jpg,0,1,1136,0,unchosen,16,39,faces,objects,1600,0,9,3
18,88358,0,19,1,1,0,no_gain4,gain3,H,A,23,10,faces,outdoor_scenes,73,77,Stimuli/Experimental_stims/faces/rikonavt-HQjfrvdTfak-unsplash.jpg,Stimuli/Experimental_stims/outdoor_scenes/shannon-kunkle-dM8INmkyDas-unsplash.jpg,0,0,769,1,chosen,10,23,outdoor_scenes,faces,1400,0,9,3
19,88358,0,20,1,1,0,no_gain2,gain2,J,E,17,40,faces,objects,51,50,Stimuli/Experimental_stims/faces/good-faces-xmSWVeGEnJw-unsplash.jpg,Stimuli/Experimental_stims/objects/fabian-blank-pElSkGRA2NU-unsplash.jpg,0,1,1434,0,unchosen,17,40,faces,objects,4300,1,9,3
20,88358,0,21,1,1,1,gain2,no_gain4,E,H,24,23,body_parts,faces,49,73,Stimuli/Experimental_stims/body_parts/clay-banks-LjqARJaJotc-unsplash.jpg,Stimuli/Experimental_stims/faces/rikonavt-HQjfrvdTfak-unsplash.jpg,0,1,919,1,chosen,24,23,body_parts,faces,1500,0,9,3
21,88358,0,22,1,1,1,gain2,no_gain5,E,G,24,4,body_parts,outdoor_scenes,49,68,Stimuli/Experimental_stims/body_parts/clay-banks-LjqARJaJotc-unsplash.jpg,Stimuli/Experimental_stims/outdoor_scenes/jarrett-kow-1ZOyYPOBn7I-unsplash.jpg,0,1,1013,1,chosen,24,4,body_parts,outdoor_scenes,1400,0,9,3
22,88358,0,23,1,1,1,gain4,no_gain2,I,J,3,17,outdoor_scenes,faces,100,51,Stimuli/Experimental_stims/outdoor_scenes/henry-be-NLF6hTe4PAg-unsplash.jpg,Stimuli/Experimental_stims/faces/good-faces-xmSWVeGEnJw-unsplash.jpg,0,0,1018,0,unchosen,17,3,faces,outdoor_scenes,1300,0,9,3
23,88358,0,24,1,1,1,gain2,no_gain6,E,F,40,18,objects,faces,50,50,Stimuli/Experimental_stims/objects/fabian-blank-pElSkGRA2NU-unsplash.jpg,Stimuli/Experimental_stims/faces/jessica-radanavong-mrYkTuAesKE-unsplash.jpg,0,0,1010,0,unchosen,18,40,faces,objects,1000,0,9,3
24,88358,0,25,1,1,0,no_gain1,gain5,K,C,31,5,body_parts,outdoor_scenes,64,100,Stimuli/Experimental_stims/body_parts/sincerely-media-VN6DbKajo5s-unsplash.jpg,Stimuli/Experimental_stims/outdoor_scenes/jeff-king-bJHWJeiHfHc-unsplash.jpg,0,0,1129,1,chosen,5,31,outdoor_scenes,body_parts,3100,1,9,3
25,88358,0,26,1,1,1,gain2,no_gain1,E,K,24,31,body_parts,body_parts,49,64,Stimuli/Experimental_stims/body_parts/clay-banks-LjqARJaJotc-unsplash.jpg,Stimuli/Experimental_stims/body_parts/sincerely-media-VN6DbKajo5s-unsplash.jpg,0,1,762,1,chosen,24,31,body_parts,body_parts,2700,0,9,3
26,88358,0,27,1,1,1,gain2,no_gain2,E,J,24,38,body_parts,objects,49,60,Stimuli/Experimental_stims/body_parts/clay-banks-LjqARJaJotc-unsplash.jpg,Stimuli/Experimental_stims/objects/art-lasovsky-8XddFc6NkBY-unsplash.jpg,0,1,948,1,chosen,24,38,body_parts,objects,1400,0,9,3
27,88358,0,28,1,1,1,gain4,no_gain3,I,B,3,16,outdoor_scenes,faces,100,67,Stimuli/Experimental_stims/outdoor_scenes/henry-be-NLF6hTe4PAg-unsplash.jpg,Stimuli/Experimental_stims/faces/freddy-kearney-o-ioeoATbIM-unsplash.jpg,0,0,907,0,unchosen,16,3,faces,outdoor_scenes,1100,0,9,3
28,88358,0,29,1,1,0,no_gain1,gain3,K,A,36,39,objects,objects,51,50,Stimuli/Experimental_stims/objects/alexander-andrews-JYGnB9gTCls-unsplash.jpg,Stimuli/Experimental_stims/objects/charlesdeluvio-1-nx1QR5dTE-unsplash.jpg,0,1,1172,0,unchosen,36,39,objects,objects,1900,0,9,3
29,88358,0,30,1,1,1,gain6,no_gain4,D,H,14,23,faces,faces,84,73,Stimuli/Experimental_stims/faces/david-siglin-UuW4psOb388-unsplash.jpg,Stimuli/Experimental_stims/faces/rikonavt-HQjfrvdTfak-unsplash.jpg,0,1,1030,1,chosen,14,23,faces,faces,1200,0,9,3
30,88358,0,31,1,1,1,gain5,no_gain3,C,B,5,0,outdoor_scenes,outdoor_scenes,100,62,Stimuli/Experimental_stims/outdoor_scenes/jeff-king-bJHWJeiHfHc-unsplash.jpg,Stimuli/Experimental_stims/outdoor_scenes/aleksandra-boguslawska-MS7KD9Ti7FQ-unsplash.jpg,0,1,911,1,chosen,5,0,outdoor_scenes,outdoor_scenes,2300,0,9,3
31,88358,0,32,1,1,0,no_gain3,gain5,B,C,16,25,faces,body_parts,67,50,Stimuli/Experimental_stims/faces/freddy-kearney-o-ioeoATbIM-unsplash.jpg,Stimuli/Experimental_stims/body_parts/engin-akyurt-Q2rfH3GW39c-unsplash.jpg,0,1,725,0,unchosen,16,25,faces,body_parts,2000,0,9,3
32,88358,0,33,1,1,1,gain6,no_gain6,D,F,14,34,faces,body_parts,84,50,Stimuli/Experimental_stims/faces/david-siglin-UuW4psOb388-unsplash.jpg,Stimuli/Experimental_stims/body_parts/wagner-santos-mBWMvIuVnso-unsplash.jpg,0,1,843,1,chosen,14,34,faces,body_parts,2000,0,9,3
33,88358,0,34,1,1,0,no_gain6,gain6,F,D,18,43,faces,objects,50,57,Stimuli/Experimental_stims/faces/jessica-radanavong-mrYkTuAesKE-unsplash.jpg,Stimuli/Experimental_stims/objects/jonathan-greenaway-Y4hGgeiFn3s-unsplash.jpg,1,NaN,,NaN,unchosen,NaN,NaN,NaN,NaN,1300,0,9,3
34,88358,0,35,1,1,0,no_gain6,gain1,F,L,18,30,faces,body_parts,50,50,Stimuli/Experimental_stims/faces/jessica-radanavong-mrYkTuAesKE-unsplash.jpg,Stimuli/Experimental_stims/body_parts/mika-korhonen-Xodzxosar18-unsplash.jpg,0,1,773,0,unchosen,18,30,faces,body_parts,3100,1,9,3
35,88358,0,36,1,1,0,no_gain3,gain2,B,E,0,24,outdoor_scenes,body_parts,62,49,Stimuli/Experimental_stims/outdoor_scenes/aleksandra-boguslawska-MS7KD9Ti7FQ-unsplash.jpg,Stimuli/Experimental_stims/body_parts/clay-banks-LjqARJaJotc-unsplash.jpg,0,0,1221,1,chosen,24,0,body_parts,outdoor_scenes,2600,0,9,3
36,88358,0,37,1,1,0,no_gain6,gain4,F,I,18,3,faces,outdoor_scenes,50,100,Stimuli/Experimental_stims/faces/jessica-radanavong-mrYkTuAesKE-unsplash.jpg,Stimuli/Experimental_stims/outdoor_scenes/henry-be-NLF6hTe4PAg-unsplash.jpg,0,1,1002,0,unchosen,18,3,faces,outdoor_scenes,1200,0,9,3
37,88358,0,38,1,1,1,gain4,no_gain5,I,G,3,42,outdoor_scenes,objects,100,50,Stimuli/Experimental_stims/outdoor_scenes/henry-be-NLF6hTe4PAg-unsplash.jpg,Stimuli/Experimental_stims/objects/jess-bailey-nOeVi8DsN8U-unsplash.jpg,0,0,962,0,unchosen,42,3,objects,outdoor_scenes,1700,0,9,3
38,88358,0,39,1,1,1,gain2,no_gain5,E,G,40,42,objects,objects,50,50,Stimuli/Experimental_stims/objects/fabian-blank-pElSkGRA2NU-unsplash.jpg,Stimuli/Experimental_stims/objects/jess-bailey-nOeVi8DsN8U-unsplash.jpg,0,0,604,0,unchosen,42,40,objects,objects,1600,0,9,3
39,88358,0,40,1,1,0,no_gain1,gain3,K,A,31,10,body_parts,outdoor_scenes,64,77,Stimuli/Experimental_stims/body_parts/sincerely-media-VN6DbKajo5s-unsplash.jpg,Stimuli/Experimental_stims/outdoor_scenes/shannon-kunkle-dM8INmkyDas-unsplash.jpg,0,0,794,1,chosen,10,31,outdoor_scenes,body_parts,4400,1,9,3
40,88358,0,41,1,1,1,gain1,no_gain5,L,G,15,4,faces,outdoor_scenes,74,68,Stimuli/Experimental_stims/faces/erik-lucatero-d2MSDujJl2g-unsplash.jpg,Stimuli/Experimental_stims/outdoor_scenes/jarrett-kow-1ZOyYPOBn7I-unsplash.jpg,0,1,961,1,chosen,15,4,faces,outdoor_scenes,1600,0,9,3
41,88358,0,42,1,1,0,no_gain4,gain3,H,A,7,39,outdoor_scenes,objects,70,50,Stimuli/Experimental_stims/outdoor_scenes/petr-vysohlid-9fqwGqGLUxc-unsplash.jpg,Stimuli/Experimental_stims/objects/charlesdeluvio-1-nx1QR5dTE-unsplash.jpg,0,1,849,0,unchosen,7,39,outdoor_scenes,objects,1700,0,9,3
42,88358,0,43,1,1,1,gain6,no_gain2,D,J,14,38,faces,objects,84,60,Stimuli/Experimental_stims/faces/david-siglin-UuW4psOb388-unsplash.jpg,Stimuli/Experimental_stims/objects/art-lasovsky-8XddFc6NkBY-unsplash.jpg,0,1,767,1,chosen,14,38,faces,objects,1900,0,9,3
43,88358,0,44,1,1,1,gain4,no_gain4,I,H,27,23,body_parts,faces,81,73,Stimuli/Experimental_stims/body_parts/heike-mintel-i_Gns0ELnLw-unsplash.jpg,Stimuli/Experimental_stims/faces/rikonavt-HQjfrvdTfak-unsplash.jpg,0,1,710,1,chosen,27,23,body_parts,faces,1900,0,9,3
44,88358,0,45,1,1,0,no_gain4,gain1,H,L,7,30,outdoor_scenes,body_parts,70,50,Stimuli/Experimental_stims/outdoor_scenes/petr-vysohlid-9fqwGqGLUxc-unsplash.jpg,Stimuli/Experimental_stims/body_parts/mika-korhonen-Xodzxosar18-unsplash.jpg,0,1,693,0,unchosen,7,30,outdoor_scenes,body_parts,2000,0,9,3
45,88358,0,46,1,1,0,no_gain2,gain1,J,L,38,15,objects,faces,60,74,Stimuli/Experimental_stims/objects/art-lasovsky-8XddFc6NkBY-unsplash.jpg,Stimuli/Experimental_stims/faces/erik-lucatero-d2MSDujJl2g-unsplash.jpg,0,0,753,1,chosen,15,38,faces,objects,2200,0,9,3
46,88358,0,47,1,1,0,no_gain5,gain5,G,C,4,5,outdoor_scenes,outdoor_scenes,68,100,Stimuli/Experimental_stims/outdoor_scenes/jarrett-kow-1ZOyYPOBn7I-unsplash.jpg,Stimuli/Experimental_stims/outdoor_scenes/jeff-king-bJHWJeiHfHc-unsplash.jpg,0,0,969,1,chosen,5,4,outdoor_scenes,outdoor_scenes,3000,0,9,3
47,88358,0,48,1,1,0,no_gain2,gain3,J,A,38,10,objects,outdoor_scenes,60,77,Stimuli/Experimental_stims/objects/art-lasovsky-8XddFc6NkBY-unsplash.jpg,Stimuli/Experimental_stims/outdoor_scenes/shannon-kunkle-dM8INmkyDas-unsplash.jpg,0,0,665,1,chosen,10,38,outdoor_scenes,objects,4200,1,9,3
48,88358,0,49,1,1,0,no_gain6,gain3,F,A,18,39,faces,objects,50,50,Stimuli/Experimental_stims/faces/jessica-radanavong-mrYkTuAesKE-unsplash.jpg,Stimuli/Experimental_stims/objects/charlesdeluvio-1-nx1QR5dTE-unsplash.jpg,0,1,794,0,unchosen,18,39,faces,objects,2100,0,9,3
49,88358,0,50,1,1,0,no_gain5,gain4,G,I,4,27,outdoor_scenes,body_parts,68,81,Stimuli/Experimental_stims/outdoor_scenes/jarrett-kow-1ZOyYPOBn7I-unsplash.jpg,Stimuli/Experimental_stims/body_parts/heike-mintel-i_Gns0ELnLw-unsplash.jpg,0,0,830,1,chosen,27,4,body_parts,outdoor_scenes,1800,0,9,3
50,88358,0,51,1,1,1,gain3,no_gain5,A,G,10,4,outdoor_scenes,outdoor_scenes,77,68,Stimuli/Experimental_stims/outdoor_scenes/shannon-kunkle-dM8INmkyDas-unsplash.jpg,Stimuli/Experimental_stims/outdoor_scenes/jarrett-kow-1ZOyYPOBn7I-unsplash.jpg,0,1,1114,1,chosen,10,4,outdoor_scenes,outdoor_scenes,2400,0,9,3
51,88358,0,52,1,1,0,no_gain4,gain2,H,E,7,40,outdoor_scenes,objects,70,50,Stimuli/Experimental_stims/outdoor_scenes/petr-vysohlid-9fqwGqGLUxc-unsplash.jpg,Stimuli/Experimental_stims/objects/fabian-blank-pElSkGRA2NU-unsplash.jpg,0,1,865,0,unchosen,7,40,outdoor_scenes,objects,1100,0,9,3
52,88358,0,53,1,1,0,no_gain2,gain5,J,C,38,5,objects,outdoor_scenes,60,100,Stimuli/Experimental_stims/objects/art-lasovsky-8XddFc6NkBY-unsplash.jpg,Stimuli/Experimental_stims/outdoor_scenes/jeff-king-bJHWJeiHfHc-unsplash.jpg,0,0,838,1,chosen,5,38,outdoor_scenes,objects,1100,0,9,3
53,88358,0,54,1,1,0,no_gain2,gain6,J,D,17,43,faces,objects,51,57,Stimuli/Experimental_stims/faces/good-faces-xmSWVeGEnJw-unsplash.jpg,Stimuli/Experimental_stims/objects/jonathan-greenaway-Y4hGgeiFn3s-unsplash.jpg,0,1,1109,0,unchosen,17,43,faces,objects,1100,0,9,3
54,88358,0,55,1,1,1,gain6,no_gain3,D,B,14,0,faces,outdoor_scenes,84,62,Stimuli/Experimental_stims/faces/david-siglin-UuW4psOb388-unsplash.jpg,Stimuli/Experimental_stims/outdoor_scenes/aleksandra-boguslawska-MS7KD9Ti7FQ-unsplash.jpg,0,1,692,1,chosen,14,0,faces,outdoor_scenes,3900,1,9,3
55,88358,0,56,1,1,0,no_gain1,gain5,K,C,36,25,objects,body_parts,51,50,Stimuli/Experimental_stims/objects/alexander-andrews-JYGnB9gTCls-unsplash.jpg,Stimuli/Experimental_stims/body_parts/engin-akyurt-Q2rfH3GW39c-unsplash.jpg,0,1,708,0,unchosen,36,25,objects,body_parts,2100,0,9,3
56,88358,0,57,1,1,1,gain5,no_gain4,C,H,25,7,body_parts,outdoor_scenes,50,70,Stimuli/Experimental_stims/body_parts/engin-akyurt-Q2rfH3GW39c-unsplash.jpg,Stimuli/Experimental_stims/outdoor_scenes/petr-vysohlid-9fqwGqGLUxc-unsplash.jpg,0,0,590,0,unchosen,7,25,outdoor_scenes,body_parts,1000,0,9,3
57,88358,0,58,1,1,0,no_gain1,gain4,K,I,36,3,objects,outdoor_scenes,51,100,Stimuli/Experimental_stims/objects/alexander-andrews-JYGnB9gTCls-unsplash.jpg,Stimuli/Experimental_stims/outdoor_scenes/henry-be-NLF6hTe4PAg-unsplash.jpg,0,1,1129,0,unchosen,36,3,objects,outdoor_scenes,1200,0,9,3
58,88358,0,59,1,1,1,gain3,no_gain6,A,F,10,34,outdoor_scenes,body_parts,77,50,Stimuli/Experimental_stims/outdoor_scenes/shannon-kunkle-dM8INmkyDas-unsplash.jpg,Stimuli/Experimental_stims/body_parts/wagner-santos-mBWMvIuVnso-unsplash.jpg,0,1,865,1,chosen,10,34,outdoor_scenes,body_parts,1300,0,9,3
59,88358,0,60,1,1,1,gain4,no_gain6,I,F,27,34,body_parts,body_parts,81,50,Stimuli/Experimental_stims/body_parts/heike-mintel-i_Gns0ELnLw-unsplash.jpg,Stimuli/Experimental_stims/body_parts/wagner-santos-mBWMvIuVnso-unsplash.jpg,0,1,830,1,chosen,27,34,body_parts,body_parts,1300,0,9,3
60,88358,0,61,1,1,1,gain2,no_gain1,E,K,40,36,objects,objects,50,51,Stimuli/Experimental_stims/objects/fabian-blank-pElSkGRA2NU-unsplash.jpg,Stimuli/Experimental_stims/objects/alexander-andrews-JYGnB9gTCls-unsplash.jpg,0,0,1100,0,unchosen,36,40,objects,objects,3300,1,9,3
61,88358,0,62,1,1,1,gain2,no_gain3,E,B,40,16,objects,faces,50,67,Stimuli/Experimental_stims/objects/fabian-blank-pElSkGRA2NU-unsplash.jpg,Stimuli/Experimental_stims/faces/freddy-kearney-o-ioeoATbIM-unsplash.jpg,0,0,749,0,unchosen,16,40,faces,objects,1100,0,9,3
62,88358,0,63,1,1,0,no_gain5,gain6,G,D,4,14,outdoor_scenes,faces,68,84,Stimuli/Experimental_stims/outdoor_scenes/jarrett-kow-1ZOyYPOBn7I-unsplash.jpg,Stimuli/Experimental_stims/faces/david-siglin-UuW4psOb388-unsplash.jpg,0,0,885,1,chosen,14,4,faces,outdoor_scenes,1400,0,9,3
63,88358,0,64,1,1,0,no_gain2,gain4,J,I,38,27,objects,body_parts,60,81,Stimuli/Experimental_stims/objects/art-lasovsky-8XddFc6NkBY-unsplash.jpg,Stimuli/Experimental_stims/body_parts/heike-mintel-i_Gns0ELnLw-unsplash.jpg,0,0,872,1,chosen,27,38,body_parts,objects,1400,0,9,3
64,88358,0,65,1,1,0,no_gain3,gain3,B,A,0,10,outdoor_scenes,outdoor_scenes,62,77,Stimuli/Experimental_stims/outdoor_scenes/aleksandra-boguslawska-MS7KD9Ti7FQ-unsplash.jpg,Stimuli/Experimental_stims/outdoor_scenes/shannon-kunkle-dM8INmkyDas-unsplash.jpg,0,0,809,1,chosen,10,0,outdoor_scenes,outdoor_scenes,2700,0,9,3
65,88358,0,66,1,1,0,no_gain6,gain5,F,C,18,25,faces,body_parts,50,50,Stimuli/Experimental_stims/faces/jessica-radanavong-mrYkTuAesKE-unsplash.jpg,Stimuli/Experimental_stims/body_parts/engin-akyurt-Q2rfH3GW39c-unsplash.jpg,0,1,725,0,unchosen,18,25,faces,body_parts,1500,0,9,3
66,88358,0,67,1,1,1,gain3,no_gain5,A,G,39,42,objects,objects,50,50,Stimuli/Experimental_stims/objects/charlesdeluvio-1-nx1QR5dTE-unsplash.jpg,Stimuli/Experimental_stims/objects/jess-bailey-nOeVi8DsN8U-unsplash.jpg,0,0,742,0,unchosen,42,39,objects,objects,3700,1,9,3
67,88358,0,68,1,1,0,no_gain1,gain1,K,L,36,30,objects,body_parts,51,50,Stimuli/Experimental_stims/objects/alexander-andrews-JYGnB9gTCls-unsplash.jpg,Stimuli/Experimental_stims/body_parts/mika-korhonen-Xodzxosar18-unsplash.jpg,0,1,670,0,unchosen,36,30,objects,body_parts,2600,0,9,3
68,88358,0,69,1,1,1,gain4,no_gain3,I,B,27,0,body_parts,outdoor_scenes,81,62,Stimuli/Experimental_stims/body_parts/heike-mintel-i_Gns0ELnLw-unsplash.jpg,Stimuli/Experimental_stims/outdoor_scenes/aleksandra-boguslawska-MS7KD9Ti7FQ-unsplash.jpg,0,1,634,1,chosen,27,0,body_parts,outdoor_scenes,1600,0,9,3
69,88358,0,70,1,1,1,gain6,no_gain3,D,B,43,16,objects,faces,57,67,Stimuli/Experimental_stims/objects/jonathan-greenaway-Y4hGgeiFn3s-unsplash.jpg,Stimuli/Experimental_stims/faces/freddy-kearney-o-ioeoATbIM-unsplash.jpg,0,0,962,0,unchosen,16,43,faces,objects,1100,0,9,3
70,88358,0,71,1,1,0,no_gain6,gain2,F,E,34,24,body_parts,body_parts,50,49,Stimuli/Experimental_stims/body_parts/wagner-santos-mBWMvIuVnso-unsplash.jpg,Stimuli/Experimental_stims/body_parts/clay-banks-LjqARJaJotc-unsplash.jpg,0,1,1061,0,chosen,34,24,body_parts,body_parts,1600,0,9,3
71,88358,0,72,1,1,0,no_gain6,gain1,F,L,34,15,body_parts,faces,50,74,Stimuli/Experimental_stims/body_parts/wagner-santos-mBWMvIuVnso-unsplash.jpg,Stimuli/Experimental_stims/faces/erik-lucatero-d2MSDujJl2g-unsplash.jpg,0,0,720,1,chosen,15,34,faces,body_parts,4400,1,9,3
72,88358,0,73,1,1,1,gain6,no_gain1,D,K,14,31,faces,body_parts,84,64,Stimuli/Experimental_stims/faces/david-siglin-UuW4psOb388-unsplash.jpg,Stimuli/Experimental_stims/body_parts/sincerely-media-VN6DbKajo5s-unsplash.jpg,0,1,924,1,chosen,14,31,faces,body_parts,1100,0,9,3
73,88358,0,74,1,1,0,no_gain5,gain6,G,D,42,43,objects,objects,50,57,Stimuli/Experimental_stims/objects/jess-bailey-nOeVi8DsN8U-unsplash.jpg,Stimuli/Experimental_stims/objects/jonathan-greenaway-Y4hGgeiFn3s-unsplash.jpg,0,1,1093,0,unchosen,42,43,objects,objects,1700,0,9,3
74,88358,0,75,1,1,1,gain5,no_gain2,C,J,25,17,body_parts,faces,50,51,Stimuli/Experimental_stims/body_parts/engin-akyurt-Q2rfH3GW39c-unsplash.jpg,Stimuli/Experimental_stims/faces/good-faces-xmSWVeGEnJw-unsplash.jpg,0,0,1069,0,unchosen,17,25,faces,body_parts,2500,0,9,3
75,88358,0,76,1,1,1,gain1,no_gain3,L,B,30,16,body_parts,faces,50,67,Stimuli/Experimental_stims/body_parts/mika-korhonen-Xodzxosar18-unsplash.jpg,Stimuli/Experimental_stims/faces/freddy-kearney-o-ioeoATbIM-unsplash.jpg,0,0,700,0,unchosen,16,30,faces,body_parts,2100,0,9,3
76,88358,0,77,2,2,0,no_gain2,gain4,J,I,17,3,faces,outdoor_scenes,51,100,Stimuli/Experimental_stims/faces/good-faces-xmSWVeGEnJw-unsplash.jpg,Stimuli/Experimental_stims/outdoor_scenes/henry-be-NLF6hTe4PAg-unsplash.jpg,0,1,988,0,unchosen,17,3,faces,outdoor_scenes,3800,1,9,3
77,88358,0,78,2,2,0,no_gain6,gain5,F,C,34,5,body_parts,outdoor_scenes,50,100,Stimuli/Experimental_stims/body_parts/wagner-santos-mBWMvIuVnso-unsplash.jpg,Stimuli/Experimental_stims/outdoor_scenes/jeff-king-bJHWJeiHfHc-unsplash.jpg,0,0,729,1,chosen,5,34,outdoor_scenes,body_parts,1200,0,9,3
78,88358,0,79,2,2,0,no_gain5,gain5,G,C,4,5,outdoor_scenes,outdoor_scenes,68,100,Stimuli/Experimental_stims/outdoor_scenes/jarrett-kow-1ZOyYPOBn7I-unsplash.jpg,Stimuli/Experimental_stims/outdoor_scenes/jeff-king-bJHWJeiHfHc-unsplash.jpg,0,0,832,1,chosen,5,4,outdoor_scenes,outdoor_scenes,1200,0,9,3
79,88358,0,80,2,2,0,no_gain6,gain3,F,A,18,39,faces,objects,50,50,Stimuli/Experimental_stims/faces/jessica-radanavong-mrYkTuAesKE-unsplash.jpg,Stimuli/Experimental_stims/objects/charlesdeluvio-1-nx1QR5dTE-unsplash.jpg,0,1,769,0,unchosen,18,39,faces,objects,2700,0,9,3
80,88358,0,81,2,2,0,no_gain2,gain6,J,D,38,14,objects,faces,60,84,Stimuli/Experimental_stims/objects/art-lasovsky-8XddFc6NkBY-unsplash.jpg,Stimuli/Experimental_stims/faces/david-siglin-UuW4psOb388-unsplash.jpg,0,0,902,1,chosen,14,38,faces,objects,2900,0,9,3
81,88358,0,82,2,2,1,gain6,no_gain4,D,H,43,7,objects,outdoor_scenes,57,70,Stimuli/Experimental_stims/objects/jonathan-greenaway-Y4hGgeiFn3s-unsplash.jpg,Stimuli/Experimental_stims/outdoor_scenes/petr-vysohlid-9fqwGqGLUxc-unsplash.jpg,0,0,958,0,unchosen,7,43,outdoor_scenes,objects,1400,0,9,3
82,88358,0,83,2,2,1,gain2,no_gain1,E,K,24,31,body_parts,body_parts,49,64,Stimuli/Experimental_stims/body_parts/clay-banks-LjqARJaJotc-unsplash.jpg,Stimuli/Experimental_stims/body_parts/sincerely-media-VN6DbKajo5s-unsplash.jpg,0,1,764,1,chosen,24,31,body_parts,body_parts,1100,0,9,3
83,88358,0,84,2,2,0,no_gain5,gain3,G,A,4,10,outdoor_scenes,outdoor_scenes,68,77,Stimuli/Experimental_stims/outdoor_scenes/jarrett-kow-1ZOyYPOBn7I-unsplash.jpg,Stimuli/Experimental_stims/outdoor_scenes/shannon-kunkle-dM8INmkyDas-unsplash.jpg,0,0,612,1,chosen,10,4,outdoor_scenes,outdoor_scenes,2400,0,9,3
84,88358,0,85,2,2,1,gain6,no_gain3,D,B,43,16,objects,faces,57,67,Stimuli/Experimental_stims/objects/jonathan-greenaway-Y4hGgeiFn3s-unsplash.jpg,Stimuli/Experimental_stims/faces/freddy-kearney-o-ioeoATbIM-unsplash.jpg,0,0,769,0,unchosen,16,43,faces,objects,2400,0,9,3
85,88358,0,86,2,2,1,gain5,no_gain1,C,K,5,31,outdoor_scenes,body_parts,100,64,Stimuli/Experimental_stims/outdoor_scenes/jeff-king-bJHWJeiHfHc-unsplash.jpg,Stimuli/Experimental_stims/body_parts/sincerely-media-VN6DbKajo5s-unsplash.jpg,0,1,817,1,chosen,5,31,outdoor_scenes,body_parts,1400,0,9,3
86,88358,0,87,2,2,0,no_gain3,gain1,B,L,0,15,outdoor_scenes,faces,62,74,Stimuli/Experimental_stims/outdoor_scenes/aleksandra-boguslawska-MS7KD9Ti7FQ-unsplash.jpg,Stimuli/Experimental_stims/faces/erik-lucatero-d2MSDujJl2g-unsplash.jpg,0,0,632,1,chosen,15,0,faces,outdoor_scenes,3000,1,9,3
87,88358,0,88,2,2,0,no_gain5,gain1,G,L,42,30,objects,body_parts,50,50,Stimuli/Experimental_stims/objects/jess-bailey-nOeVi8DsN8U-unsplash.jpg,Stimuli/Experimental_stims/body_parts/mika-korhonen-Xodzxosar18-unsplash.jpg,0,1,1177,0,unchosen,42,30,objects,body_parts,1000,0,9,3
88,88358,0,89,2,2,0,no_gain5,gain4,G,I,42,3,objects,outdoor_scenes,50,100,Stimuli/Experimental_stims/objects/jess-bailey-nOeVi8DsN8U-unsplash.jpg,Stimuli/Experimental_stims/outdoor_scenes/henry-be-NLF6hTe4PAg-unsplash.jpg,0,1,1017,0,unchosen,42,3,objects,outdoor_scenes,1100,0,9,3
89,88358,0,90,2,2,0,no_gain3,gain2,B,E,16,40,faces,objects,67,50,Stimuli/Experimental_stims/faces/freddy-kearney-o-ioeoATbIM-unsplash.jpg,Stimuli/Experimental_stims/objects/fabian-blank-pElSkGRA2NU-unsplash.jpg,0,1,820,0,unchosen,16,40,faces,objects,2200,0,9,3
90,88358,0,91,2,2,1,gain1,no_gain6,L,F,15,34,faces,body_parts,74,50,Stimuli/Experimental_stims/faces/erik-lucatero-d2MSDujJl2g-unsplash.jpg,Stimuli/Experimental_stims/body_parts/wagner-santos-mBWMvIuVnso-unsplash.jpg,0,1,840,1,chosen,15,34,faces,body_parts,1600,0,9,3
91,88358,0,92,2,2,1,gain2,no_gain6,E,F,40,18,objects,faces,50,50,Stimuli/Experimental_stims/objects/fabian-blank-pElSkGRA2NU-unsplash.jpg,Stimuli/Experimental_stims/faces/jessica-radanavong-mrYkTuAesKE-unsplash.jpg,0,0,769,0,unchosen,18,40,faces,objects,3200,1,9,3
92,88358,0,93,2,2,0,no_gain5,gain6,G,D,42,43,objects,objects,50,57,Stimuli/Experimental_stims/objects/jess-bailey-nOeVi8DsN8U-unsplash.jpg,Stimuli/Experimental_stims/objects/jonathan-greenaway-Y4hGgeiFn3s-unsplash.jpg,0,1,961,0,unchosen,42,43,objects,objects,2100,0,9,3
93,88358,0,94,2,2,1,gain3,no_gain3,A,B,39,16,objects,faces,50,67,Stimuli/Experimental_stims/objects/charlesdeluvio-1-nx1QR5dTE-unsplash.jpg,Stimuli/Experimental_stims/faces/freddy-kearney-o-ioeoATbIM-unsplash.jpg,0,0,734,0,unchosen,16,39,faces,objects,1100,0,9,3
94,88358,0,95,2,2,0,no_gain2,gain3,J,A,38,10,objects,outdoor_scenes,60,77,Stimuli/Experimental_stims/objects/art-lasovsky-8XddFc6NkBY-unsplash.jpg,Stimuli/Experimental_stims/outdoor_scenes/shannon-kunkle-dM8INmkyDas-unsplash.jpg,0,0,852,1,chosen,10,38,outdoor_scenes,objects,2800,0,9,3
95,88358,0,96,2,2,1,gain1,no_gain4,L,H,30,7,body_parts,outdoor_scenes,50,70,Stimuli/Experimental_stims/body_parts/mika-korhonen-Xodzxosar18-unsplash.jpg,Stimuli/Experimental_stims/outdoor_scenes/petr-vysohlid-9fqwGqGLUxc-unsplash.jpg,0,0,882,0,unchosen,7,30,outdoor_scenes,body_parts,1100,0,9,3
96,88358,0,97,2,2,0,no_gain3,gain4,B,I,0,27,outdoor_scenes,body_parts,62,81,Stimuli/Experimental_stims/outdoor_scenes/aleksandra-boguslawska-MS7KD9Ti7FQ-unsplash.jpg,Stimuli/Experimental_stims/body_parts/heike-mintel-i_Gns0ELnLw-unsplash.jpg,0,0,1078,1,chosen,27,0,body_parts,outdoor_scenes,4900,1,9,3
97,88358,0,98,2,2,1,gain3,no_gain3,A,B,10,0,outdoor_scenes,outdoor_scenes,77,62,Stimuli/Experimental_stims/outdoor_scenes/shannon-kunkle-dM8INmkyDas-unsplash.jpg,Stimuli/Experimental_stims/outdoor_scenes/aleksandra-boguslawska-MS7KD9Ti7FQ-unsplash.jpg,0,1,862,1,chosen,10,0,outdoor_scenes,outdoor_scenes,1200,0,9,3
98,88358,0,99,2,2,0,no_gain5,gain5,G,C,42,25,objects,body_parts,50,50,Stimuli/Experimental_stims/objects/jess-bailey-nOeVi8DsN8U-unsplash.jpg,Stimuli/Experimental_stims/body_parts/engin-akyurt-Q2rfH3GW39c-unsplash.jpg,0,1,816,0,unchosen,42,25,objects,body_parts,1200,0,9,3
99,88358,0,100,2,2,1,gain4,no_gain5,I,G,27,4,body_parts,outdoor_scenes,81,68,Stimuli/Experimental_stims/body_parts/heike-mintel-i_Gns0ELnLw-unsplash.jpg,Stimuli/Experimental_stims/outdoor_scenes/jarrett-kow-1ZOyYPOBn7I-unsplash.jpg,0,1,850,1,chosen,27,4,body_parts,outdoor_scenes,1900,0,9,3
100,88358,0,101,2,2,0,no_gain6,gain4,F,I,34,27,body_parts,body_parts,50,81,Stimuli/Experimental_stims/body_parts/wagner-santos-mBWMvIuVnso-unsplash.jpg,Stimuli/Experimental_stims/body_parts/heike-mintel-i_Gns0ELnLw-unsplash.jpg,0,0,917,1,chosen,27,34,body_parts,body_parts,1500,0,9,3
101,88358,0,102,2,2,0,no_gain5,gain2,G,E,42,40,objects,objects,50,50,Stimuli/Experimental_stims/objects/jess-bailey-nOeVi8DsN8U-unsplash.jpg,Stimuli/Experimental_stims/objects/fabian-blank-pElSkGRA2NU-unsplash.jpg,0,1,981,0,unchosen,42,40,objects,objects,1600,0,9,3
102,88358,0,103,2,2,0,no_gain5,gain6,G,D,4,14,outdoor_scenes,faces,68,84,Stimuli/Experimental_stims/outdoor_scenes/jarrett-kow-1ZOyYPOBn7I-unsplash.jpg,Stimuli/Experimental_stims/faces/david-siglin-UuW4psOb388-unsplash.jpg,0,0,864,1,chosen,14,4,faces,outdoor_scenes,1500,0,9,3
103,88358,0,104,2,2,1,gain4,no_gain3,I,B,3,16,outdoor_scenes,faces,100,67,Stimuli/Experimental_stims/outdoor_scenes/henry-be-NLF6hTe4PAg-unsplash.jpg,Stimuli/Experimental_stims/faces/freddy-kearney-o-ioeoATbIM-unsplash.jpg,0,0,884,0,unchosen,16,3,faces,outdoor_scenes,2000,0,9,3
104,88358,0,105,2,2,1,gain2,no_gain4,E,H,24,23,body_parts,faces,49,73,Stimuli/Experimental_stims/body_parts/clay-banks-LjqARJaJotc-unsplash.jpg,Stimuli/Experimental_stims/faces/rikonavt-HQjfrvdTfak-unsplash.jpg,0,1,1121,1,chosen,24,23,body_parts,faces,2000,0,9,3
105,88358,0,106,2,2,0,no_gain2,gain1,J,L,38,15,objects,faces,60,74,Stimuli/Experimental_stims/objects/art-lasovsky-8XddFc6NkBY-unsplash.jpg,Stimuli/Experimental_stims/faces/erik-lucatero-d2MSDujJl2g-unsplash.jpg,0,0,850,1,chosen,15,38,faces,objects,3400,1,9,3
106,88358,0,107,2,2,1,gain1,no_gain6,L,F,30,18,body_parts,faces,50,50,Stimuli/Experimental_stims/body_parts/mika-korhonen-Xodzxosar18-unsplash.jpg,Stimuli/Experimental_stims/faces/jessica-radanavong-mrYkTuAesKE-unsplash.jpg,0,0,873,0,unchosen,18,30,faces,body_parts,1600,0,9,3
107,88358,0,108,2,2,0,no_gain1,gain3,K,A,36,39,objects,objects,51,50,Stimuli/Experimental_stims/objects/alexander-andrews-JYGnB9gTCls-unsplash.jpg,Stimuli/Experimental_stims/objects/charlesdeluvio-1-nx1QR5dTE-unsplash.jpg,0,1,832,0,unchosen,36,39,objects,objects,2400,0,9,3
108,88358,0,109,2,2,0,no_gain5,gain2,G,E,4,24,outdoor_scenes,body_parts,68,49,Stimuli/Experimental_stims/outdoor_scenes/jarrett-kow-1ZOyYPOBn7I-unsplash.jpg,Stimuli/Experimental_stims/body_parts/clay-banks-LjqARJaJotc-unsplash.jpg,0,0,801,1,chosen,24,4,body_parts,outdoor_scenes,2900,0,9,3
109,88358,0,110,2,2,1,gain2,no_gain2,E,J,24,38,body_parts,objects,49,60,Stimuli/Experimental_stims/body_parts/clay-banks-LjqARJaJotc-unsplash.jpg,Stimuli/Experimental_stims/objects/art-lasovsky-8XddFc6NkBY-unsplash.jpg,0,1,775,1,chosen,24,38,body_parts,objects,2100,0,9,3
110,88358,0,111,2,2,1,gain5,no_gain6,C,F,25,18,body_parts,faces,50,50,Stimuli/Experimental_stims/body_parts/engin-akyurt-Q2rfH3GW39c-unsplash.jpg,Stimuli/Experimental_stims/faces/jessica-radanavong-mrYkTuAesKE-unsplash.jpg,0,0,745,0,unchosen,18,25,faces,body_parts,3600,1,9,3
111,88358,0,112,2,2,1,gain6,no_gain4,D,H,14,23,faces,faces,84,73,Stimuli/Experimental_stims/faces/david-siglin-UuW4psOb388-unsplash.jpg,Stimuli/Experimental_stims/faces/rikonavt-HQjfrvdTfak-unsplash.jpg,0,1,832,1,chosen,14,23,faces,faces,1900,0,9,3
112,88358,0,113,2,2,1,gain3,no_gain1,A,K,10,31,outdoor_scenes,body_parts,77,64,Stimuli/Experimental_stims/outdoor_scenes/shannon-kunkle-dM8INmkyDas-unsplash.jpg,Stimuli/Experimental_stims/body_parts/sincerely-media-VN6DbKajo5s-unsplash.jpg,0,1,756,1,chosen,10,31,outdoor_scenes,body_parts,1000,0,9,3
113,88358,0,114,2,2,0,no_gain6,gain2,F,E,34,24,body_parts,body_parts,50,49,Stimuli/Experimental_stims/body_parts/wagner-santos-mBWMvIuVnso-unsplash.jpg,Stimuli/Experimental_stims/body_parts/clay-banks-LjqARJaJotc-unsplash.jpg,0,0,906,1,chosen,24,34,body_parts,body_parts,1500,0,9,3
114,88358,0,115,2,2,1,gain1,no_gain3,L,B,30,16,body_parts,faces,50,67,Stimuli/Experimental_stims/body_parts/mika-korhonen-Xodzxosar18-unsplash.jpg,Stimuli/Experimental_stims/faces/freddy-kearney-o-ioeoATbIM-unsplash.jpg,0,0,1035,0,unchosen,16,30,faces,body_parts,1600,0,9,3
115,88358,0,116,2,2,0,no_gain1,gain1,K,L,36,30,objects,body_parts,51,50,Stimuli/Experimental_stims/objects/alexander-andrews-JYGnB9gTCls-unsplash.jpg,Stimuli/Experimental_stims/body_parts/mika-korhonen-Xodzxosar18-unsplash.jpg,0,1,1153,0,unchosen,36,30,objects,body_parts,1100,0,9,3
116,88358,0,117,2,2,1,gain6,no_gain1,D,K,14,31,faces,body_parts,84,64,Stimuli/Experimental_stims/faces/david-siglin-UuW4psOb388-unsplash.jpg,Stimuli/Experimental_stims/body_parts/sincerely-media-VN6DbKajo5s-unsplash.jpg,0,1,785,1,chosen,14,31,faces,body_parts,4400,1,9,3
117,88358,0,118,2,2,1,gain3,no_gain6,A,F,10,34,outdoor_scenes,body_parts,77,50,Stimuli/Experimental_stims/outdoor_scenes/shannon-kunkle-dM8INmkyDas-unsplash.jpg,Stimuli/Experimental_stims/body_parts/wagner-santos-mBWMvIuVnso-unsplash.jpg,0,1,769,1,chosen,10,34,outdoor_scenes,body_parts,1100,0,9,3
118,88358,0,119,2,2,1,gain3,no_gain4,A,H,39,7,objects,outdoor_scenes,50,70,Stimuli/Experimental_stims/objects/charlesdeluvio-1-nx1QR5dTE-unsplash.jpg,Stimuli/Experimental_stims/outdoor_scenes/petr-vysohlid-9fqwGqGLUxc-unsplash.jpg,0,0,980,0,unchosen,7,39,outdoor_scenes,objects,1200,0,9,3
119,88358,0,120,2,2,0,no_gain4,gain1,H,L,23,15,faces,faces,73,74,Stimuli/Experimental_stims/faces/rikonavt-HQjfrvdTfak-unsplash.jpg,Stimuli/Experimental_stims/faces/erik-lucatero-d2MSDujJl2g-unsplash.jpg,0,0,896,1,chosen,15,23,faces,faces,1000,0,9,3
120,88358,0,121,2,2,0,no_gain3,gain5,B,C,16,25,faces,body_parts,67,50,Stimuli/Experimental_stims/faces/freddy-kearney-o-ioeoATbIM-unsplash.jpg,Stimuli/Experimental_stims/body_parts/engin-akyurt-Q2rfH3GW39c-unsplash.jpg,0,1,761,0,unchosen,16,25,faces,body_parts,1500,0,9,3
121,88358,0,122,2,2,0,no_gain1,gain4,K,I,36,3,objects,outdoor_scenes,51,100,Stimuli/Experimental_stims/objects/alexander-andrews-JYGnB9gTCls-unsplash.jpg,Stimuli/Experimental_stims/outdoor_scenes/henry-be-NLF6hTe4PAg-unsplash.jpg,0,1,677,0,unchosen,36,3,objects,outdoor_scenes,2000,0,9,3
122,88358,0,123,2,2,0,no_gain4,gain3,H,A,23,10,faces,outdoor_scenes,73,77,Stimuli/Experimental_stims/faces/rikonavt-HQjfrvdTfak-unsplash.jpg,Stimuli/Experimental_stims/outdoor_scenes/shannon-kunkle-dM8INmkyDas-unsplash.jpg,0,0,1009,1,chosen,10,23,outdoor_scenes,faces,3700,1,9,3
123,88358,0,124,2,2,0,no_gain1,gain2,K,E,36,40,objects,objects,51,50,Stimuli/Experimental_stims/objects/alexander-andrews-JYGnB9gTCls-unsplash.jpg,Stimuli/Experimental_stims/objects/fabian-blank-pElSkGRA2NU-unsplash.jpg,0,1,589,0,unchosen,36,40,objects,objects,2100,0,9,3
124,88358,0,125,2,2,1,gain5,no_gain1,C,K,25,36,body_parts,objects,50,51,Stimuli/Experimental_stims/body_parts/engin-akyurt-Q2rfH3GW39c-unsplash.jpg,Stimuli/Experimental_stims/objects/alexander-andrews-JYGnB9gTCls-unsplash.jpg,0,0,620,0,unchosen,36,25,objects,body_parts,1100,0,9,3
125,88358,0,126,2,2,1,gain5,no_gain3,C,B,5,0,outdoor_scenes,outdoor_scenes,100,62,Stimuli/Experimental_stims/outdoor_scenes/jeff-king-bJHWJeiHfHc-unsplash.jpg,Stimuli/Experimental_stims/outdoor_scenes/aleksandra-boguslawska-MS7KD9Ti7FQ-unsplash.jpg,0,1,757,1,chosen,5,0,outdoor_scenes,outdoor_scenes,1500,0,9,3
126,88358,0,127,2,2,0,no_gain5,gain1,G,L,4,15,outdoor_scenes,faces,68,74,Stimuli/Experimental_stims/outdoor_scenes/jarrett-kow-1ZOyYPOBn7I-unsplash.jpg,Stimuli/Experimental_stims/faces/erik-lucatero-d2MSDujJl2g-unsplash.jpg,0,0,579,1,chosen,15,4,faces,outdoor_scenes,1900,0,9,3
127,88358,0,128,2,2,0,no_gain2,gain6,J,D,17,43,faces,objects,51,57,Stimuli/Experimental_stims/faces/good-faces-xmSWVeGEnJw-unsplash.jpg,Stimuli/Experimental_stims/objects/jonathan-greenaway-Y4hGgeiFn3s-unsplash.jpg,0,1,964,0,unchosen,17,43,faces,objects,1600,0,9,3
128,88358,0,129,2,2,1,gain5,no_gain4,C,H,25,7,body_parts,outdoor_scenes,50,70,Stimuli/Experimental_stims/body_parts/engin-akyurt-Q2rfH3GW39c-unsplash.jpg,Stimuli/Experimental_stims/outdoor_scenes/petr-vysohlid-9fqwGqGLUxc-unsplash.jpg,0,0,976,0,unchosen,7,25,outdoor_scenes,body_parts,3100,1,9,3
129,88358,0,130,2,2,0,no_gain1,gain1,K,L,31,15,body_parts,faces,64,74,Stimuli/Experimental_stims/body_parts/sincerely-media-VN6DbKajo5s-unsplash.jpg,Stimuli/Experimental_stims/faces/erik-lucatero-d2MSDujJl2g-unsplash.jpg,0,0,645,1,chosen,15,31,faces,body_parts,2800,0,9,3
130,88358,0,131,2,2,1,gain5,no_gain4,C,H,5,23,outdoor_scenes,faces,100,73,Stimuli/Experimental_stims/outdoor_scenes/jeff-king-bJHWJeiHfHc-unsplash.jpg,Stimuli/Experimental_stims/faces/rikonavt-HQjfrvdTfak-unsplash.jpg,0,1,1104,1,chosen,5,23,outdoor_scenes,faces,1800,0,9,3
131,88358,0,132,2,2,0,no_gain6,gain6,F,D,18,43,faces,objects,50,57,Stimuli/Experimental_stims/faces/jessica-radanavong-mrYkTuAesKE-unsplash.jpg,Stimuli/Experimental_stims/objects/jonathan-greenaway-Y4hGgeiFn3s-unsplash.jpg,0,1,1337,0,unchosen,18,43,faces,objects,2100,0,9,3
132,88358,0,133,2,2,1,gain6,no_gain3,D,B,14,0,faces,outdoor_scenes,84,62,Stimuli/Experimental_stims/faces/david-siglin-UuW4psOb388-unsplash.jpg,Stimuli/Experimental_stims/outdoor_scenes/aleksandra-boguslawska-MS7KD9Ti7FQ-unsplash.jpg,0,1,605,1,chosen,14,0,faces,outdoor_scenes,2100,0,9,3
133,88358,0,134,2,2,0,no_gain2,gain5,J,C,38,5,objects,outdoor_scenes,60,100,Stimuli/Experimental_stims/objects/art-lasovsky-8XddFc6NkBY-unsplash.jpg,Stimuli/Experimental_stims/outdoor_scenes/jeff-king-bJHWJeiHfHc-unsplash.jpg,0,0,893,1,chosen,5,38,outdoor_scenes,objects,1600,0,9,3
134,88358,0,135,2,2,0,no_gain4,gain2,H,E,7,40,outdoor_scenes,objects,70,50,Stimuli/Experimental_stims/outdoor_scenes/petr-vysohlid-9fqwGqGLUxc-unsplash.jpg,Stimuli/Experimental_stims/objects/fabian-blank-pElSkGRA2NU-unsplash.jpg,0,1,1041,0,unchosen,7,40,outdoor_scenes,objects,2600,0,9,3
135,88358,0,136,2,2,1,gain4,no_gain4,I,H,27,23,body_parts,faces,81,73,Stimuli/Experimental_stims/body_parts/heike-mintel-i_Gns0ELnLw-unsplash.jpg,Stimuli/Experimental_stims/faces/rikonavt-HQjfrvdTfak-unsplash.jpg,0,1,985,1,chosen,27,23,body_parts,faces,1100,0,9,3
136,88358,0,137,2,2,0,no_gain2,gain2,J,E,17,40,faces,objects,51,50,Stimuli/Experimental_stims/faces/good-faces-xmSWVeGEnJw-unsplash.jpg,Stimuli/Experimental_stims/objects/fabian-blank-pElSkGRA2NU-unsplash.jpg,0,1,963,0,unchosen,17,40,faces,objects,2700,0,9,3
137,88358,0,138,2,2,1,gain4,no_gain6,I,F,3,18,outdoor_scenes,faces,100,50,Stimuli/Experimental_stims/outdoor_scenes/henry-be-NLF6hTe4PAg-unsplash.jpg,Stimuli/Experimental_stims/faces/jessica-radanavong-mrYkTuAesKE-unsplash.jpg,0,0,950,0,unchosen,18,3,faces,outdoor_scenes,1500,0,9,3
138,88358,0,139,2,2,1,gain3,no_gain5,A,G,39,42,objects,objects,50,50,Stimuli/Experimental_stims/objects/charlesdeluvio-1-nx1QR5dTE-unsplash.jpg,Stimuli/Experimental_stims/objects/jess-bailey-nOeVi8DsN8U-unsplash.jpg,0,0,660,0,unchosen,42,39,objects,objects,1100,0,9,3
139,88358,0,140,2,2,1,gain4,no_gain1,I,K,27,31,body_parts,body_parts,81,64,Stimuli/Experimental_stims/body_parts/heike-mintel-i_Gns0ELnLw-unsplash.jpg,Stimuli/Experimental_stims/body_parts/sincerely-media-VN6DbKajo5s-unsplash.jpg,0,1,837,1,chosen,27,31,body_parts,body_parts,1200,0,9,3
140,88358,0,141,2,2,1,gain3,no_gain2,A,J,39,17,objects,faces,50,51,Stimuli/Experimental_stims/objects/charlesdeluvio-1-nx1QR5dTE-unsplash.jpg,Stimuli/Experimental_stims/faces/good-faces-xmSWVeGEnJw-unsplash.jpg,0,0,943,0,unchosen,17,39,faces,objects,1200,0,9,3
141,88358,0,142,2,2,0,no_gain2,gain1,J,L,17,30,faces,body_parts,51,50,Stimuli/Experimental_stims/faces/good-faces-xmSWVeGEnJw-unsplash.jpg,Stimuli/Experimental_stims/body_parts/mika-korhonen-Xodzxosar18-unsplash.jpg,0,1,690,0,unchosen,17,30,faces,body_parts,4600,1,9,3
142,88358,0,143,2,2,1,gain6,no_gain6,D,F,14,34,faces,body_parts,84,50,Stimuli/Experimental_stims/faces/david-siglin-UuW4psOb388-unsplash.jpg,Stimuli/Experimental_stims/body_parts/wagner-santos-mBWMvIuVnso-unsplash.jpg,0,1,840,1,chosen,14,34,faces,body_parts,2000,0,9,3
143,88358,0,144,2,2,1,gain4,no_gain4,I,H,3,7,outdoor_scenes,outdoor_scenes,100,70,Stimuli/Experimental_stims/outdoor_scenes/henry-be-NLF6hTe4PAg-unsplash.jpg,Stimuli/Experimental_stims/outdoor_scenes/petr-vysohlid-9fqwGqGLUxc-unsplash.jpg,0,0,974,0,unchosen,7,3,outdoor_scenes,outdoor_scenes,1700,0,9,3
144,88358,0,145,2,2,1,gain6,no_gain1,D,K,43,36,objects,objects,57,51,Stimuli/Experimental_stims/objects/jonathan-greenaway-Y4hGgeiFn3s-unsplash.jpg,Stimuli/Experimental_stims/objects/alexander-andrews-JYGnB9gTCls-unsplash.jpg,0,0,1149,0,unchosen,36,43,objects,objects,1300,0,9,3
145,88358,0,146,2,2,0,no_gain2,gain4,J,I,38,27,objects,body_parts,60,81,Stimuli/Experimental_stims/objects/art-lasovsky-8XddFc6NkBY-unsplash.jpg,Stimuli/Experimental_stims/body_parts/heike-mintel-i_Gns0ELnLw-unsplash.jpg,0,0,956,1,chosen,27,38,body_parts,objects,1300,0,9,3
146,88358,0,147,2,2,1,gain5,no_gain2,C,J,25,17,body_parts,faces,50,51,Stimuli/Experimental_stims/body_parts/engin-akyurt-Q2rfH3GW39c-unsplash.jpg,Stimuli/Experimental_stims/faces/good-faces-xmSWVeGEnJw-unsplash.jpg,0,0,988,0,unchosen,17,25,faces,body_parts,1600,0,9,3
147,88358,0,148,2,2,1,gain2,no_gain3,E,B,24,0,body_parts,outdoor_scenes,49,62,Stimuli/Experimental_stims/body_parts/clay-banks-LjqARJaJotc-unsplash.jpg,Stimuli/Experimental_stims/outdoor_scenes/aleksandra-boguslawska-MS7KD9Ti7FQ-unsplash.jpg,0,1,959,1,chosen,24,0,body_parts,outdoor_scenes,2900,0,9,3
148,88358,0,149,3,3,0,no_gain1,gain2,K,E,36,40,objects,objects,51,50,Stimuli/Experimental_stims/objects/alexander-andrews-JYGnB9gTCls-unsplash.jpg,Stimuli/Experimental_stims/objects/fabian-blank-pElSkGRA2NU-unsplash.jpg,0,1,1020,0,unchosen,36,40,objects,objects,2500,0,3,3
149,88358,0,150,3,3,0,no_gain2,gain5,J,C,38,5,objects,outdoor_scenes,60,100,Stimuli/Experimental_stims/objects/art-lasovsky-8XddFc6NkBY-unsplash.jpg,Stimuli/Experimental_stims/outdoor_scenes/jeff-king-bJHWJeiHfHc-unsplash.jpg,0,0,940,1,chosen,5,38,outdoor_scenes,objects,1500,0,3,3
150,88358,0,151,3,3,0,no_gain5,gain1,G,L,42,30,objects,body_parts,50,50,Stimuli/Experimental_stims/objects/jess-bailey-nOeVi8DsN8U-unsplash.jpg,Stimuli/Experimental_stims/body_parts/mika-korhonen-Xodzxosar18-unsplash.jpg,0,1,661,0,unchosen,42,30,objects,body_parts,1000,0,3,3
151,88358,0,152,3,3,1,gain3,no_gain3,A,B,39,16,objects,faces,50,67,Stimuli/Experimental_stims/objects/charlesdeluvio-1-nx1QR5dTE-unsplash.jpg,Stimuli/Experimental_stims/faces/freddy-kearney-o-ioeoATbIM-unsplash.jpg,0,0,809,0,unchosen,16,39,faces,objects,2000,0,3,3
152,88358,0,153,3,3,0,no_gain4,gain3,H,A,7,39,outdoor_scenes,objects,70,50,Stimuli/Experimental_stims/outdoor_scenes/petr-vysohlid-9fqwGqGLUxc-unsplash.jpg,Stimuli/Experimental_stims/objects/charlesdeluvio-1-nx1QR5dTE-unsplash.jpg,0,1,768,0,unchosen,7,39,outdoor_scenes,objects,1600,0,3,3
153,88358,0,154,3,3,0,no_gain6,gain5,F,C,34,5,body_parts,outdoor_scenes,50,100,Stimuli/Experimental_stims/body_parts/wagner-santos-mBWMvIuVnso-unsplash.jpg,Stimuli/Experimental_stims/outdoor_scenes/jeff-king-bJHWJeiHfHc-unsplash.jpg,0,0,897,1,chosen,5,34,outdoor_scenes,body_parts,5000,1,3,3
154,88358,0,155,3,3,1,gain5,no_gain5,C,G,25,42,body_parts,objects,50,50,Stimuli/Experimental_stims/body_parts/engin-akyurt-Q2rfH3GW39c-unsplash.jpg,Stimuli/Experimental_stims/objects/jess-bailey-nOeVi8DsN8U-unsplash.jpg,0,0,648,0,unchosen,42,25,objects,body_parts,1500,0,3,3
155,88358,0,156,3,3,0,no_gain4,gain4,H,I,23,27,faces,body_parts,73,81,Stimuli/Experimental_stims/faces/rikonavt-HQjfrvdTfak-unsplash.jpg,Stimuli/Experimental_stims/body_parts/heike-mintel-i_Gns0ELnLw-unsplash.jpg,0,0,884,1,chosen,27,23,body_parts,faces,1800,0,3,3
156,88358,0,157,3,3,0,no_gain6,gain1,F,L,34,15,body_parts,faces,50,74,Stimuli/Experimental_stims/body_parts/wagner-santos-mBWMvIuVnso-unsplash.jpg,Stimuli/Experimental_stims/faces/erik-lucatero-d2MSDujJl2g-unsplash.jpg,0,0,776,1,chosen,15,34,faces,body_parts,1900,0,3,3
157,88358,0,158,3,3,1,gain6,no_gain5,D,G,43,42,objects,objects,57,50,Stimuli/Experimental_stims/objects/jonathan-greenaway-Y4hGgeiFn3s-unsplash.jpg,Stimuli/Experimental_stims/objects/jess-bailey-nOeVi8DsN8U-unsplash.jpg,0,0,723,0,unchosen,42,43,objects,objects,2000,0,3,3
158,88358,0,159,3,3,1,gain1,no_gain5,L,G,15,4,faces,outdoor_scenes,74,68,Stimuli/Experimental_stims/faces/erik-lucatero-d2MSDujJl2g-unsplash.jpg,Stimuli/Experimental_stims/outdoor_scenes/jarrett-kow-1ZOyYPOBn7I-unsplash.jpg,0,1,832,1,chosen,15,4,faces,outdoor_scenes,1300,0,3,3
159,88358,0,160,3,3,0,no_gain5,gain4,G,I,4,27,outdoor_scenes,body_parts,68,81,Stimuli/Experimental_stims/outdoor_scenes/jarrett-kow-1ZOyYPOBn7I-unsplash.jpg,Stimuli/Experimental_stims/body_parts/heike-mintel-i_Gns0ELnLw-unsplash.jpg,0,0,1276,1,chosen,27,4,body_parts,outdoor_scenes,2700,0,3,3
160,88358,0,161,3,3,0,no_gain3,gain4,B,I,0,27,outdoor_scenes,body_parts,62,81,Stimuli/Experimental_stims/outdoor_scenes/aleksandra-boguslawska-MS7KD9Ti7FQ-unsplash.jpg,Stimuli/Experimental_stims/body_parts/heike-mintel-i_Gns0ELnLw-unsplash.jpg,0,0,900,1,chosen,27,0,body_parts,outdoor_scenes,1600,0,3,3
161,88358,0,162,3,3,1,gain4,no_gain3,I,B,3,16,outdoor_scenes,faces,100,67,Stimuli/Experimental_stims/outdoor_scenes/henry-be-NLF6hTe4PAg-unsplash.jpg,Stimuli/Experimental_stims/faces/freddy-kearney-o-ioeoATbIM-unsplash.jpg,0,0,1024,0,unchosen,16,3,faces,outdoor_scenes,4000,1,3,3
162,88358,0,163,3,3,0,no_gain1,gain3,K,A,31,10,body_parts,outdoor_scenes,64,77,Stimuli/Experimental_stims/body_parts/sincerely-media-VN6DbKajo5s-unsplash.jpg,Stimuli/Experimental_stims/outdoor_scenes/shannon-kunkle-dM8INmkyDas-unsplash.jpg,0,0,1057,1,chosen,10,31,outdoor_scenes,body_parts,1900,0,3,3
163,88358,0,164,3,3,0,no_gain4,gain5,H,C,7,25,outdoor_scenes,body_parts,70,50,Stimuli/Experimental_stims/outdoor_scenes/petr-vysohlid-9fqwGqGLUxc-unsplash.jpg,Stimuli/Experimental_stims/body_parts/engin-akyurt-Q2rfH3GW39c-unsplash.jpg,0,1,805,0,unchosen,7,25,outdoor_scenes,body_parts,1700,0,3,3
164,88358,0,165,3,3,0,no_gain6,gain4,F,I,34,27,body_parts,body_parts,50,81,Stimuli/Experimental_stims/body_parts/wagner-santos-mBWMvIuVnso-unsplash.jpg,Stimuli/Experimental_stims/body_parts/heike-mintel-i_Gns0ELnLw-unsplash.jpg,0,0,1341,1,chosen,27,34,body_parts,body_parts,1800,0,3,3
165,88358,0,166,3,3,1,gain5,no_gain3,C,B,5,0,outdoor_scenes,outdoor_scenes,100,62,Stimuli/Experimental_stims/outdoor_scenes/jeff-king-bJHWJeiHfHc-unsplash.jpg,Stimuli/Experimental_stims/outdoor_scenes/aleksandra-boguslawska-MS7KD9Ti7FQ-unsplash.jpg,0,1,799,1,chosen,5,0,outdoor_scenes,outdoor_scenes,1500,0,3,3
166,88358,0,167,3,3,1,gain4,no_gain2,I,J,27,38,body_parts,objects,81,60,Stimuli/Experimental_stims/body_parts/heike-mintel-i_Gns0ELnLw-unsplash.jpg,Stimuli/Experimental_stims/objects/art-lasovsky-8XddFc6NkBY-unsplash.jpg,0,1,939,1,chosen,27,38,body_parts,objects,2700,0,3,3
167,88358,0,168,3,3,0,no_gain6,gain6,F,D,18,43,faces,objects,50,57,Stimuli/Experimental_stims/faces/jessica-radanavong-mrYkTuAesKE-unsplash.jpg,Stimuli/Experimental_stims/objects/jonathan-greenaway-Y4hGgeiFn3s-unsplash.jpg,0,1,1174,0,unchosen,18,43,faces,objects,3600,1,3,3
168,88358,0,169,3,3,0,no_gain2,gain6,J,D,38,14,objects,faces,60,84,Stimuli/Experimental_stims/objects/art-lasovsky-8XddFc6NkBY-unsplash.jpg,Stimuli/Experimental_stims/faces/david-siglin-UuW4psOb388-unsplash.jpg,0,0,992,1,chosen,14,38,faces,objects,2100,0,3,3
169,88358,0,170,3,3,1,gain5,no_gain6,C,F,25,18,body_parts,faces,50,50,Stimuli/Experimental_stims/body_parts/engin-akyurt-Q2rfH3GW39c-unsplash.jpg,Stimuli/Experimental_stims/faces/jessica-radanavong-mrYkTuAesKE-unsplash.jpg,0,0,828,0,unchosen,18,25,faces,body_parts,2300,0,3,3
170,88358,0,171,3,3,1,gain1,no_gain3,L,B,30,16,body_parts,faces,50,67,Stimuli/Experimental_stims/body_parts/mika-korhonen-Xodzxosar18-unsplash.jpg,Stimuli/Experimental_stims/faces/freddy-kearney-o-ioeoATbIM-unsplash.jpg,0,0,1173,0,unchosen,16,30,faces,body_parts,1400,0,3,3
171,88358,0,172,3,3,1,gain3,no_gain3,A,B,10,0,outdoor_scenes,outdoor_scenes,77,62,Stimuli/Experimental_stims/outdoor_scenes/shannon-kunkle-dM8INmkyDas-unsplash.jpg,Stimuli/Experimental_stims/outdoor_scenes/aleksandra-boguslawska-MS7KD9Ti7FQ-unsplash.jpg,0,1,788,1,chosen,10,0,outdoor_scenes,outdoor_scenes,1200,0,3,3
172,88358,0,173,3,3,1,gain2,no_gain6,E,F,24,34,body_parts,body_parts,49,50,Stimuli/Experimental_stims/body_parts/clay-banks-LjqARJaJotc-unsplash.jpg,Stimuli/Experimental_stims/body_parts/wagner-santos-mBWMvIuVnso-unsplash.jpg,0,1,897,1,chosen,24,34,body_parts,body_parts,1900,0,3,3
173,88358,0,174,3,3,0,no_gain2,gain4,J,I,17,3,faces,outdoor_scenes,51,100,Stimuli/Experimental_stims/faces/good-faces-xmSWVeGEnJw-unsplash.jpg,Stimuli/Experimental_stims/outdoor_scenes/henry-be-NLF6hTe4PAg-unsplash.jpg,0,1,1061,0,unchosen,17,3,faces,outdoor_scenes,1800,0,3,3
174,88358,0,175,3,3,1,gain6,no_gain6,D,F,14,34,faces,body_parts,84,50,Stimuli/Experimental_stims/faces/david-siglin-UuW4psOb388-unsplash.jpg,Stimuli/Experimental_stims/body_parts/wagner-santos-mBWMvIuVnso-unsplash.jpg,0,1,808,1,chosen,14,34,faces,body_parts,4100,1,3,3
175,88358,0,176,3,3,0,no_gain5,gain6,G,D,4,14,outdoor_scenes,faces,68,84,Stimuli/Experimental_stims/outdoor_scenes/jarrett-kow-1ZOyYPOBn7I-unsplash.jpg,Stimuli/Experimental_stims/faces/david-siglin-UuW4psOb388-unsplash.jpg,0,0,892,1,chosen,14,4,faces,outdoor_scenes,1400,0,3,3
176,88358,0,177,3,3,0,no_gain2,gain6,J,D,17,43,faces,objects,51,57,Stimuli/Experimental_stims/faces/good-faces-xmSWVeGEnJw-unsplash.jpg,Stimuli/Experimental_stims/objects/jonathan-greenaway-Y4hGgeiFn3s-unsplash.jpg,0,1,986,0,unchosen,17,43,faces,objects,2200,0,3,3
177,88358,0,178,3,3,1,gain1,no_gain2,L,J,30,17,body_parts,faces,50,51,Stimuli/Experimental_stims/body_parts/mika-korhonen-Xodzxosar18-unsplash.jpg,Stimuli/Experimental_stims/faces/good-faces-xmSWVeGEnJw-unsplash.jpg,0,0,808,0,unchosen,17,30,faces,body_parts,1400,0,3,3
178,88358,0,179,3,3,1,gain3,no_gain2,A,J,10,38,outdoor_scenes,objects,77,60,Stimuli/Experimental_stims/outdoor_scenes/shannon-kunkle-dM8INmkyDas-unsplash.jpg,Stimuli/Experimental_stims/objects/art-lasovsky-8XddFc6NkBY-unsplash.jpg,0,1,1095,1,chosen,10,38,outdoor_scenes,objects,1100,0,3,3
179,88358,0,180,3,3,1,gain4,no_gain1,I,K,27,31,body_parts,body_parts,81,64,Stimuli/Experimental_stims/body_parts/heike-mintel-i_Gns0ELnLw-unsplash.jpg,Stimuli/Experimental_stims/body_parts/sincerely-media-VN6DbKajo5s-unsplash.jpg,0,1,1220,1,chosen,27,31,body_parts,body_parts,1400,0,3,3
180,88358,0,181,3,3,1,gain1,no_gain4,L,H,30,7,body_parts,outdoor_scenes,50,70,Stimuli/Experimental_stims/body_parts/mika-korhonen-Xodzxosar18-unsplash.jpg,Stimuli/Experimental_stims/outdoor_scenes/petr-vysohlid-9fqwGqGLUxc-unsplash.jpg,0,0,840,0,unchosen,7,30,outdoor_scenes,body_parts,1700,0,3,3
181,88358,0,182,3,3,1,gain1,no_gain4,L,H,15,23,faces,faces,74,73,Stimuli/Experimental_stims/faces/erik-lucatero-d2MSDujJl2g-unsplash.jpg,Stimuli/Experimental_stims/faces/rikonavt-HQjfrvdTfak-unsplash.jpg,0,1,1310,1,chosen,15,23,faces,faces,3400,1,3,3
182,88358,0,183,3,3,1,gain3,no_gain5,A,G,10,4,outdoor_scenes,outdoor_scenes,77,68,Stimuli/Experimental_stims/outdoor_scenes/shannon-kunkle-dM8INmkyDas-unsplash.jpg,Stimuli/Experimental_stims/outdoor_scenes/jarrett-kow-1ZOyYPOBn7I-unsplash.jpg,0,1,1016,1,chosen,10,4,outdoor_scenes,outdoor_scenes,1000,0,3,3
183,88358,0,184,3,3,1,gain1,no_gain6,L,F,30,18,body_parts,faces,50,50,Stimuli/Experimental_stims/body_parts/mika-korhonen-Xodzxosar18-unsplash.jpg,Stimuli/Experimental_stims/faces/jessica-radanavong-mrYkTuAesKE-unsplash.jpg,0,0,1016,0,unchosen,18,30,faces,body_parts,1200,0,3,3
184,88358,0,185,3,3,0,no_gain5,gain4,G,I,42,3,objects,outdoor_scenes,50,100,Stimuli/Experimental_stims/objects/jess-bailey-nOeVi8DsN8U-unsplash.jpg,Stimuli/Experimental_stims/outdoor_scenes/henry-be-NLF6hTe4PAg-unsplash.jpg,0,1,1089,0,unchosen,42,3,objects,outdoor_scenes,1200,0,3,3
185,88358,0,186,3,3,0,no_gain1,gain2,K,E,31,24,body_parts,body_parts,64,49,Stimuli/Experimental_stims/body_parts/sincerely-media-VN6DbKajo5s-unsplash.jpg,Stimuli/Experimental_stims/body_parts/clay-banks-LjqARJaJotc-unsplash.jpg,0,0,1278,1,chosen,24,31,body_parts,body_parts,2800,0,3,3
186,88358,0,187,3,3,0,no_gain1,gain4,K,I,36,3,objects,outdoor_scenes,51,100,Stimuli/Experimental_stims/objects/alexander-andrews-JYGnB9gTCls-unsplash.jpg,Stimuli/Experimental_stims/outdoor_scenes/henry-be-NLF6hTe4PAg-unsplash.jpg,0,1,993,0,unchosen,36,3,objects,outdoor_scenes,1200,0,3,3
187,88358,0,188,3,3,0,no_gain6,gain3,F,A,34,10,body_parts,outdoor_scenes,50,77,Stimuli/Experimental_stims/body_parts/wagner-santos-mBWMvIuVnso-unsplash.jpg,Stimuli/Experimental_stims/outdoor_scenes/shannon-kunkle-dM8INmkyDas-unsplash.jpg,0,0,982,1,chosen,10,34,outdoor_scenes,body_parts,1200,0,3,3
188,88358,0,189,3,3,1,gain2,no_gain2,E,J,24,38,body_parts,objects,49,60,Stimuli/Experimental_stims/body_parts/clay-banks-LjqARJaJotc-unsplash.jpg,Stimuli/Experimental_stims/objects/art-lasovsky-8XddFc6NkBY-unsplash.jpg,0,1,912,1,chosen,24,38,body_parts,objects,2100,0,3,3
189,88358,0,190,3,3,1,gain2,no_gain6,E,F,40,18,objects,faces,50,50,Stimuli/Experimental_stims/objects/fabian-blank-pElSkGRA2NU-unsplash.jpg,Stimuli/Experimental_stims/faces/jessica-radanavong-mrYkTuAesKE-unsplash.jpg,0,0,1004,0,unchosen,18,40,faces,objects,3800,1,3,3
190,88358,0,191,3,3,0,no_gain3,gain2,B,E,0,24,outdoor_scenes,body_parts,62,49,Stimuli/Experimental_stims/outdoor_scenes/aleksandra-boguslawska-MS7KD9Ti7FQ-unsplash.jpg,Stimuli/Experimental_stims/body_parts/clay-banks-LjqARJaJotc-unsplash.jpg,0,0,1065,1,chosen,24,0,body_parts,outdoor_scenes,2200,0,3,3
191,88358,0,192,3,3,1,gain4,no_gain4,I,H,3,7,outdoor_scenes,outdoor_scenes,100,70,Stimuli/Experimental_stims/outdoor_scenes/henry-be-NLF6hTe4PAg-unsplash.jpg,Stimuli/Experimental_stims/outdoor_scenes/petr-vysohlid-9fqwGqGLUxc-unsplash.jpg,0,0,824,0,unchosen,7,3,outdoor_scenes,outdoor_scenes,2500,0,3,3
192,88358,0,193,3,3,1,gain2,no_gain5,E,G,24,4,body_parts,outdoor_scenes,49,68,Stimuli/Experimental_stims/body_parts/clay-banks-LjqARJaJotc-unsplash.jpg,Stimuli/Experimental_stims/outdoor_scenes/jarrett-kow-1ZOyYPOBn7I-unsplash.jpg,0,1,924,1,chosen,24,4,body_parts,outdoor_scenes,1100,0,3,3
193,88358,0,194,3,3,1,gain3,no_gain1,A,K,39,36,objects,objects,50,51,Stimuli/Experimental_stims/objects/charlesdeluvio-1-nx1QR5dTE-unsplash.jpg,Stimuli/Experimental_stims/objects/alexander-andrews-JYGnB9gTCls-unsplash.jpg,0,0,997,0,unchosen,36,39,objects,objects,1800,0,3,3
194,88358,0,195,3,3,1,gain3,no_gain6,A,F,39,18,objects,faces,50,50,Stimuli/Experimental_stims/objects/charlesdeluvio-1-nx1QR5dTE-unsplash.jpg,Stimuli/Experimental_stims/faces/jessica-radanavong-mrYkTuAesKE-unsplash.jpg,0,0,872,0,unchosen,18,39,faces,objects,3600,1,3,3
195,88358,0,196,3,3,1,gain4,no_gain6,I,F,3,18,outdoor_scenes,faces,100,50,Stimuli/Experimental_stims/outdoor_scenes/henry-be-NLF6hTe4PAg-unsplash.jpg,Stimuli/Experimental_stims/faces/jessica-radanavong-mrYkTuAesKE-unsplash.jpg,0,0,604,0,unchosen,18,3,faces,outdoor_scenes,2400,0,3,3
196,88358,0,197,3,3,1,gain1,no_gain1,L,K,15,31,faces,body_parts,74,64,Stimuli/Experimental_stims/faces/erik-lucatero-d2MSDujJl2g-unsplash.jpg,Stimuli/Experimental_stims/body_parts/sincerely-media-VN6DbKajo5s-unsplash.jpg,0,1,767,1,chosen,15,31,faces,body_parts,2400,0,3,3
197,88358,0,198,3,3,0,no_gain3,gain2,B,E,16,40,faces,objects,67,50,Stimuli/Experimental_stims/faces/freddy-kearney-o-ioeoATbIM-unsplash.jpg,Stimuli/Experimental_stims/objects/fabian-blank-pElSkGRA2NU-unsplash.jpg,0,1,897,0,unchosen,16,40,faces,objects,2200,0,3,3
198,88358,0,199,3,3,1,gain1,no_gain2,L,J,15,38,faces,objects,74,60,Stimuli/Experimental_stims/faces/erik-lucatero-d2MSDujJl2g-unsplash.jpg,Stimuli/Experimental_stims/objects/art-lasovsky-8XddFc6NkBY-unsplash.jpg,0,1,1080,1,chosen,15,38,faces,objects,2800,0,3,3
199,88358,0,200,3,3,0,no_gain2,gain3,J,A,17,39,faces,objects,51,50,Stimuli/Experimental_stims/faces/good-faces-xmSWVeGEnJw-unsplash.jpg,Stimuli/Experimental_stims/objects/charlesdeluvio-1-nx1QR5dTE-unsplash.jpg,0,1,1057,0,unchosen,17,39,faces,objects,1700,0,3,3
200,88358,0,201,3,3,0,no_gain1,gain6,K,D,36,43,objects,objects,51,57,Stimuli/Experimental_stims/objects/alexander-andrews-JYGnB9gTCls-unsplash.jpg,Stimuli/Experimental_stims/objects/jonathan-greenaway-Y4hGgeiFn3s-unsplash.jpg,0,1,1212,0,unchosen,36,43,objects,objects,1100,0,3,3
201,88358,0,202,3,3,0,no_gain4,gain3,H,A,23,10,faces,outdoor_scenes,73,77,Stimuli/Experimental_stims/faces/rikonavt-HQjfrvdTfak-unsplash.jpg,Stimuli/Experimental_stims/outdoor_scenes/shannon-kunkle-dM8INmkyDas-unsplash.jpg,0,0,1477,1,chosen,10,23,outdoor_scenes,faces,1200,0,3,3
202,88358,0,203,3,3,0,no_gain3,gain5,B,C,16,25,faces,body_parts,67,50,Stimuli/Experimental_stims/faces/freddy-kearney-o-ioeoATbIM-unsplash.jpg,Stimuli/Experimental_stims/body_parts/engin-akyurt-Q2rfH3GW39c-unsplash.jpg,0,1,838,0,unchosen,16,25,faces,body_parts,2700,0,3,3
203,88358,0,204,3,3,0,no_gain1,gain1,K,L,36,30,objects,body_parts,51,50,Stimuli/Experimental_stims/objects/alexander-andrews-JYGnB9gTCls-unsplash.jpg,Stimuli/Experimental_stims/body_parts/mika-korhonen-Xodzxosar18-unsplash.jpg,0,1,1368,0,unchosen,36,30,objects,body_parts,1100,0,3,3
204,88358,0,205,3,3,1,gain5,no_gain5,C,G,5,4,outdoor_scenes,outdoor_scenes,100,68,Stimuli/Experimental_stims/outdoor_scenes/jeff-king-bJHWJeiHfHc-unsplash.jpg,Stimuli/Experimental_stims/outdoor_scenes/jarrett-kow-1ZOyYPOBn7I-unsplash.jpg,0,1,997,1,chosen,5,4,outdoor_scenes,outdoor_scenes,1100,0,3,3
205,88358,0,206,3,3,0,no_gain4,gain6,H,D,23,14,faces,faces,73,84,Stimuli/Experimental_stims/faces/rikonavt-HQjfrvdTfak-unsplash.jpg,Stimuli/Experimental_stims/faces/david-siglin-UuW4psOb388-unsplash.jpg,0,0,1115,1,chosen,14,23,faces,faces,1500,0,3,3
206,88358,0,207,3,3,0,no_gain5,gain3,G,A,42,39,objects,objects,50,50,Stimuli/Experimental_stims/objects/jess-bailey-nOeVi8DsN8U-unsplash.jpg,Stimuli/Experimental_stims/objects/charlesdeluvio-1-nx1QR5dTE-unsplash.jpg,0,1,931,0,unchosen,42,39,objects,objects,1600,0,3,3
207,88358,0,208,3,3,0,no_gain1,gain5,K,C,31,5,body_parts,outdoor_scenes,64,100,Stimuli/Experimental_stims/body_parts/sincerely-media-VN6DbKajo5s-unsplash.jpg,Stimuli/Experimental_stims/outdoor_scenes/jeff-king-bJHWJeiHfHc-unsplash.jpg,0,0,913,1,chosen,5,31,outdoor_scenes,body_parts,1500,0,3,3
208,88358,0,209,3,3,1,gain1,no_gain3,L,B,15,0,faces,outdoor_scenes,74,62,Stimuli/Experimental_stims/faces/erik-lucatero-d2MSDujJl2g-unsplash.jpg,Stimuli/Experimental_stims/outdoor_scenes/aleksandra-boguslawska-MS7KD9Ti7FQ-unsplash.jpg,0,1,708,1,chosen,15,0,faces,outdoor_scenes,2800,0,3,3
209,88358,0,210,3,3,1,gain6,no_gain3,D,B,14,0,faces,outdoor_scenes,84,62,Stimuli/Experimental_stims/faces/david-siglin-UuW4psOb388-unsplash.jpg,Stimuli/Experimental_stims/outdoor_scenes/aleksandra-boguslawska-MS7KD9Ti7FQ-unsplash.jpg,0,1,689,1,chosen,14,0,faces,outdoor_scenes,3400,1,3,3
210,88358,0,211,3,3,1,gain2,no_gain4,E,H,40,7,objects,outdoor_scenes,50,70,Stimuli/Experimental_stims/objects/fabian-blank-pElSkGRA2NU-unsplash.jpg,Stimuli/Experimental_stims/outdoor_scenes/petr-vysohlid-9fqwGqGLUxc-unsplash.jpg,0,0,841,0,unchosen,7,40,outdoor_scenes,objects,1500,0,3,3
211,88358,0,212,3,3,1,gain2,no_gain2,E,J,40,17,objects,faces,50,51,Stimuli/Experimental_stims/objects/fabian-blank-pElSkGRA2NU-unsplash.jpg,Stimuli/Experimental_stims/faces/good-faces-xmSWVeGEnJw-unsplash.jpg,0,0,821,0,unchosen,17,40,faces,objects,1500,0,3,3
212,88358,0,213,3,3,1,gain6,no_gain1,D,K,14,31,faces,body_parts,84,64,Stimuli/Experimental_stims/faces/david-siglin-UuW4psOb388-unsplash.jpg,Stimuli/Experimental_stims/body_parts/sincerely-media-VN6DbKajo5s-unsplash.jpg,0,1,709,1,chosen,14,31,faces,body_parts,1500,0,3,3
213,88358,0,214,3,3,0,no_gain5,gain2,G,E,42,40,objects,objects,50,50,Stimuli/Experimental_stims/objects/jess-bailey-nOeVi8DsN8U-unsplash.jpg,Stimuli/Experimental_stims/objects/fabian-blank-pElSkGRA2NU-unsplash.jpg,0,1,805,0,unchosen,42,40,objects,objects,1200,0,3,3
214,88358,0,215,3,3,0,no_gain4,gain5,H,C,23,5,faces,outdoor_scenes,73,100,Stimuli/Experimental_stims/faces/rikonavt-HQjfrvdTfak-unsplash.jpg,Stimuli/Experimental_stims/outdoor_scenes/jeff-king-bJHWJeiHfHc-unsplash.jpg,0,0,944,1,chosen,5,23,outdoor_scenes,faces,1900,0,3,3
215,88358,0,216,3,3,1,gain6,no_gain4,D,H,43,7,objects,outdoor_scenes,57,70,Stimuli/Experimental_stims/objects/jonathan-greenaway-Y4hGgeiFn3s-unsplash.jpg,Stimuli/Experimental_stims/outdoor_scenes/petr-vysohlid-9fqwGqGLUxc-unsplash.jpg,0,0,1076,0,unchosen,7,43,outdoor_scenes,objects,3600,1,3,3
216,88358,0,217,3,3,0,no_gain2,gain5,J,C,17,25,faces,body_parts,51,50,Stimuli/Experimental_stims/faces/good-faces-xmSWVeGEnJw-unsplash.jpg,Stimuli/Experimental_stims/body_parts/engin-akyurt-Q2rfH3GW39c-unsplash.jpg,0,1,833,0,unchosen,17,25,faces,body_parts,2500,0,3,3
217,88358,0,218,3,3,0,no_gain4,gain2,H,E,23,24,faces,body_parts,73,49,Stimuli/Experimental_stims/faces/rikonavt-HQjfrvdTfak-unsplash.jpg,Stimuli/Experimental_stims/body_parts/clay-banks-LjqARJaJotc-unsplash.jpg,0,0,1069,1,chosen,24,23,body_parts,faces,1600,0,3,3
218,88358,0,219,3,3,1,gain6,no_gain3,D,B,43,16,objects,faces,57,67,Stimuli/Experimental_stims/objects/jonathan-greenaway-Y4hGgeiFn3s-unsplash.jpg,Stimuli/Experimental_stims/faces/freddy-kearney-o-ioeoATbIM-unsplash.jpg,0,0,993,0,unchosen,16,43,faces,objects,1200,0,3,3
219,88358,0,220,3,3,0,no_gain1,gain5,K,C,36,25,objects,body_parts,51,50,Stimuli/Experimental_stims/objects/alexander-andrews-JYGnB9gTCls-unsplash.jpg,Stimuli/Experimental_stims/body_parts/engin-akyurt-Q2rfH3GW39c-unsplash.jpg,0,1,897,0,unchosen,36,25,objects,body_parts,1300,0,3,3
220,88358,0,221,4,4,0,no_gain6,gain5,F,C,18,25,faces,body_parts,50,50,Stimuli/Experimental_stims/faces/jessica-radanavong-mrYkTuAesKE-unsplash.jpg,Stimuli/Experimental_stims/body_parts/engin-akyurt-Q2rfH3GW39c-unsplash.jpg,0,1,812,0,unchosen,18,25,faces,body_parts,3300,1,1,3
221,88358,0,222,4,4,0,no_gain4,gain5,H,C,7,25,outdoor_scenes,body_parts,70,50,Stimuli/Experimental_stims/outdoor_scenes/petr-vysohlid-9fqwGqGLUxc-unsplash.jpg,Stimuli/Experimental_stims/body_parts/engin-akyurt-Q2rfH3GW39c-unsplash.jpg,0,1,637,0,unchosen,7,25,outdoor_scenes,body_parts,1400,0,1,3
222,88358,0,223,4,4,1,gain5,no_gain5,C,G,5,4,outdoor_scenes,outdoor_scenes,100,68,Stimuli/Experimental_stims/outdoor_scenes/jeff-king-bJHWJeiHfHc-unsplash.jpg,Stimuli/Experimental_stims/outdoor_scenes/jarrett-kow-1ZOyYPOBn7I-unsplash.jpg,0,1,807,1,chosen,5,4,outdoor_scenes,outdoor_scenes,2400,0,1,3
223,88358,0,224,4,4,0,no_gain3,gain4,B,I,0,27,outdoor_scenes,body_parts,62,81,Stimuli/Experimental_stims/outdoor_scenes/aleksandra-boguslawska-MS7KD9Ti7FQ-unsplash.jpg,Stimuli/Experimental_stims/body_parts/heike-mintel-i_Gns0ELnLw-unsplash.jpg,0,0,800,1,chosen,27,0,body_parts,outdoor_scenes,1200,0,1,3
224,88358,0,225,4,4,1,gain4,no_gain1,I,K,3,36,outdoor_scenes,objects,100,51,Stimuli/Experimental_stims/outdoor_scenes/henry-be-NLF6hTe4PAg-unsplash.jpg,Stimuli/Experimental_stims/objects/alexander-andrews-JYGnB9gTCls-unsplash.jpg,0,0,960,0,unchosen,36,3,objects,outdoor_scenes,1100,0,1,3
225,88358,0,226,4,4,0,no_gain1,gain1,K,L,36,30,objects,body_parts,51,50,Stimuli/Experimental_stims/objects/alexander-andrews-JYGnB9gTCls-unsplash.jpg,Stimuli/Experimental_stims/body_parts/mika-korhonen-Xodzxosar18-unsplash.jpg,0,1,852,0,unchosen,36,30,objects,body_parts,1600,0,1,3
226,88358,0,227,4,4,1,gain6,no_gain3,D,B,43,16,objects,faces,57,67,Stimuli/Experimental_stims/objects/jonathan-greenaway-Y4hGgeiFn3s-unsplash.jpg,Stimuli/Experimental_stims/faces/freddy-kearney-o-ioeoATbIM-unsplash.jpg,0,0,736,0,unchosen,16,43,faces,objects,3100,1,1,3
227,88358,0,228,4,4,0,no_gain2,gain4,J,I,38,27,objects,body_parts,60,81,Stimuli/Experimental_stims/objects/art-lasovsky-8XddFc6NkBY-unsplash.jpg,Stimuli/Experimental_stims/body_parts/heike-mintel-i_Gns0ELnLw-unsplash.jpg,0,0,997,1,chosen,27,38,body_parts,objects,1000,0,1,3
228,88358,0,229,4,4,1,gain6,no_gain5,D,G,14,4,faces,outdoor_scenes,84,68,Stimuli/Experimental_stims/faces/david-siglin-UuW4psOb388-unsplash.jpg,Stimuli/Experimental_stims/outdoor_scenes/jarrett-kow-1ZOyYPOBn7I-unsplash.jpg,0,1,950,1,chosen,14,4,faces,outdoor_scenes,3000,0,1,3
229,88358,0,230,4,4,0,no_gain4,gain5,H,C,23,5,faces,outdoor_scenes,73,100,Stimuli/Experimental_stims/faces/rikonavt-HQjfrvdTfak-unsplash.jpg,Stimuli/Experimental_stims/outdoor_scenes/jeff-king-bJHWJeiHfHc-unsplash.jpg,0,0,890,1,chosen,5,23,outdoor_scenes,faces,1700,0,1,3
230,88358,0,231,4,4,1,gain1,no_gain4,L,H,30,7,body_parts,outdoor_scenes,50,70,Stimuli/Experimental_stims/body_parts/mika-korhonen-Xodzxosar18-unsplash.jpg,Stimuli/Experimental_stims/outdoor_scenes/petr-vysohlid-9fqwGqGLUxc-unsplash.jpg,0,0,941,0,unchosen,7,30,outdoor_scenes,body_parts,2400,0,1,3
231,88358,0,232,4,4,0,no_gain6,gain2,F,E,34,24,body_parts,body_parts,50,49,Stimuli/Experimental_stims/body_parts/wagner-santos-mBWMvIuVnso-unsplash.jpg,Stimuli/Experimental_stims/body_parts/clay-banks-LjqARJaJotc-unsplash.jpg,0,0,945,1,chosen,24,34,body_parts,body_parts,4000,1,1,3
232,88358,0,233,4,4,0,no_gain6,gain1,F,L,18,30,faces,body_parts,50,50,Stimuli/Experimental_stims/faces/jessica-radanavong-mrYkTuAesKE-unsplash.jpg,Stimuli/Experimental_stims/body_parts/mika-korhonen-Xodzxosar18-unsplash.jpg,0,1,641,0,unchosen,18,30,faces,body_parts,1900,0,1,3
233,88358,0,234,4,4,1,gain3,no_gain4,A,H,10,23,outdoor_scenes,faces,77,73,Stimuli/Experimental_stims/outdoor_scenes/shannon-kunkle-dM8INmkyDas-unsplash.jpg,Stimuli/Experimental_stims/faces/rikonavt-HQjfrvdTfak-unsplash.jpg,0,1,772,1,chosen,10,23,outdoor_scenes,faces,1100,0,1,3
234,88358,0,235,4,4,1,gain5,no_gain1,C,K,25,36,body_parts,objects,50,51,Stimuli/Experimental_stims/body_parts/engin-akyurt-Q2rfH3GW39c-unsplash.jpg,Stimuli/Experimental_stims/objects/alexander-andrews-JYGnB9gTCls-unsplash.jpg,0,0,628,0,unchosen,36,25,objects,body_parts,1300,0,1,3
235,88358,0,236,4,4,0,no_gain4,gain4,H,I,23,27,faces,body_parts,73,81,Stimuli/Experimental_stims/faces/rikonavt-HQjfrvdTfak-unsplash.jpg,Stimuli/Experimental_stims/body_parts/heike-mintel-i_Gns0ELnLw-unsplash.jpg,0,0,713,1,chosen,27,23,body_parts,faces,1900,0,1,3
236,88358,0,237,4,4,1,gain4,no_gain4,I,H,3,7,outdoor_scenes,outdoor_scenes,100,70,Stimuli/Experimental_stims/outdoor_scenes/henry-be-NLF6hTe4PAg-unsplash.jpg,Stimuli/Experimental_stims/outdoor_scenes/petr-vysohlid-9fqwGqGLUxc-unsplash.jpg,0,0,724,0,unchosen,7,3,outdoor_scenes,outdoor_scenes,1800,0,1,3
237,88358,0,238,4,4,1,gain4,no_gain5,I,G,3,42,outdoor_scenes,objects,100,50,Stimuli/Experimental_stims/outdoor_scenes/henry-be-NLF6hTe4PAg-unsplash.jpg,Stimuli/Experimental_stims/objects/jess-bailey-nOeVi8DsN8U-unsplash.jpg,0,0,630,0,unchosen,42,3,objects,outdoor_scenes,4300,1,1,3
238,88358,0,239,4,4,1,gain5,no_gain5,C,G,25,42,body_parts,objects,50,50,Stimuli/Experimental_stims/body_parts/engin-akyurt-Q2rfH3GW39c-unsplash.jpg,Stimuli/Experimental_stims/objects/jess-bailey-nOeVi8DsN8U-unsplash.jpg,0,0,630,0,unchosen,42,25,objects,body_parts,2300,0,1,3
239,88358,0,240,4,4,1,gain3,no_gain2,A,J,10,38,outdoor_scenes,objects,77,60,Stimuli/Experimental_stims/outdoor_scenes/shannon-kunkle-dM8INmkyDas-unsplash.jpg,Stimuli/Experimental_stims/objects/art-lasovsky-8XddFc6NkBY-unsplash.jpg,0,1,613,1,chosen,10,38,outdoor_scenes,objects,1200,0,1,3
240,88358,0,241,4,4,0,no_gain4,gain2,H,E,23,24,faces,body_parts,73,49,Stimuli/Experimental_stims/faces/rikonavt-HQjfrvdTfak-unsplash.jpg,Stimuli/Experimental_stims/body_parts/clay-banks-LjqARJaJotc-unsplash.jpg,0,0,624,1,chosen,24,23,body_parts,faces,1300,0,1,3
241,88358,0,242,4,4,0,no_gain3,gain1,B,L,16,30,faces,body_parts,67,50,Stimuli/Experimental_stims/faces/freddy-kearney-o-ioeoATbIM-unsplash.jpg,Stimuli/Experimental_stims/body_parts/mika-korhonen-Xodzxosar18-unsplash.jpg,0,1,655,0,unchosen,16,30,faces,body_parts,1900,0,1,3
242,88358,0,243,4,4,1,gain3,no_gain6,A,F,39,18,objects,faces,50,50,Stimuli/Experimental_stims/objects/charlesdeluvio-1-nx1QR5dTE-unsplash.jpg,Stimuli/Experimental_stims/faces/jessica-radanavong-mrYkTuAesKE-unsplash.jpg,0,0,613,0,unchosen,18,39,faces,objects,1300,0,1,3
243,88358,0,244,4,4,1,gain4,no_gain1,I,K,27,31,body_parts,body_parts,81,64,Stimuli/Experimental_stims/body_parts/heike-mintel-i_Gns0ELnLw-unsplash.jpg,Stimuli/Experimental_stims/body_parts/sincerely-media-VN6DbKajo5s-unsplash.jpg,0,1,716,1,chosen,27,31,body_parts,body_parts,4200,1,1,3
244,88358,0,245,4,4,0,no_gain2,gain5,J,C,17,25,faces,body_parts,51,50,Stimuli/Experimental_stims/faces/good-faces-xmSWVeGEnJw-unsplash.jpg,Stimuli/Experimental_stims/body_parts/engin-akyurt-Q2rfH3GW39c-unsplash.jpg,0,1,746,0,unchosen,17,25,faces,body_parts,2400,0,1,3
245,88358,0,246,4,4,1,gain2,no_gain2,E,J,24,38,body_parts,objects,49,60,Stimuli/Experimental_stims/body_parts/clay-banks-LjqARJaJotc-unsplash.jpg,Stimuli/Experimental_stims/objects/art-lasovsky-8XddFc6NkBY-unsplash.jpg,0,1,615,1,chosen,24,38,body_parts,objects,1700,0,1,3
246,88358,0,247,4,4,0,no_gain1,gain5,K,C,31,5,body_parts,outdoor_scenes,64,100,Stimuli/Experimental_stims/body_parts/sincerely-media-VN6DbKajo5s-unsplash.jpg,Stimuli/Experimental_stims/outdoor_scenes/jeff-king-bJHWJeiHfHc-unsplash.jpg,0,0,843,1,chosen,5,31,outdoor_scenes,body_parts,1600,0,1,3
247,88358,0,248,4,4,1,gain3,no_gain5,A,G,39,42,objects,objects,50,50,Stimuli/Experimental_stims/objects/charlesdeluvio-1-nx1QR5dTE-unsplash.jpg,Stimuli/Experimental_stims/objects/jess-bailey-nOeVi8DsN8U-unsplash.jpg,0,0,575,0,unchosen,42,39,objects,objects,1100,0,1,3
248,88358,0,249,4,4,0,no_gain2,gain1,J,L,17,30,faces,body_parts,51,50,Stimuli/Experimental_stims/faces/good-faces-xmSWVeGEnJw-unsplash.jpg,Stimuli/Experimental_stims/body_parts/mika-korhonen-Xodzxosar18-unsplash.jpg,0,1,650,0,unchosen,17,30,faces,body_parts,1200,0,1,3
249,88358,0,250,4,4,1,gain6,no_gain3,D,B,14,0,faces,outdoor_scenes,84,62,Stimuli/Experimental_stims/faces/david-siglin-UuW4psOb388-unsplash.jpg,Stimuli/Experimental_stims/outdoor_scenes/aleksandra-boguslawska-MS7KD9Ti7FQ-unsplash.jpg,0,1,768,1,chosen,14,0,faces,outdoor_scenes,3100,1,1,3
250,88358,0,251,4,4,1,gain3,no_gain6,A,F,10,34,outdoor_scenes,body_parts,77,50,Stimuli/Experimental_stims/outdoor_scenes/shannon-kunkle-dM8INmkyDas-unsplash.jpg,Stimuli/Experimental_stims/body_parts/wagner-santos-mBWMvIuVnso-unsplash.jpg,0,1,740,1,chosen,10,34,outdoor_scenes,body_parts,2600,0,1,3
251,88358,0,252,4,4,0,no_gain1,gain6,K,D,36,43,objects,objects,51,57,Stimuli/Experimental_stims/objects/alexander-andrews-JYGnB9gTCls-unsplash.jpg,Stimuli/Experimental_stims/objects/jonathan-greenaway-Y4hGgeiFn3s-unsplash.jpg,0,1,825,0,unchosen,36,43,objects,objects,2400,0,1,3
252,88358,0,253,4,4,1,gain2,no_gain3,E,B,40,16,objects,faces,50,67,Stimuli/Experimental_stims/objects/fabian-blank-pElSkGRA2NU-unsplash.jpg,Stimuli/Experimental_stims/faces/freddy-kearney-o-ioeoATbIM-unsplash.jpg,0,0,544,0,unchosen,16,40,faces,objects,1000,0,1,3
253,88358,0,254,4,4,0,no_gain6,gain4,F,I,34,27,body_parts,body_parts,50,81,Stimuli/Experimental_stims/body_parts/wagner-santos-mBWMvIuVnso-unsplash.jpg,Stimuli/Experimental_stims/body_parts/heike-mintel-i_Gns0ELnLw-unsplash.jpg,0,0,919,1,chosen,27,34,body_parts,body_parts,3000,0,1,3
254,88358,0,255,4,4,0,no_gain4,gain1,H,L,23,15,faces,faces,73,74,Stimuli/Experimental_stims/faces/rikonavt-HQjfrvdTfak-unsplash.jpg,Stimuli/Experimental_stims/faces/erik-lucatero-d2MSDujJl2g-unsplash.jpg,0,0,713,1,chosen,15,23,faces,faces,2400,0,1,3
255,88358,0,256,4,4,0,no_gain2,gain3,J,A,17,39,faces,objects,51,50,Stimuli/Experimental_stims/faces/good-faces-xmSWVeGEnJw-unsplash.jpg,Stimuli/Experimental_stims/objects/charlesdeluvio-1-nx1QR5dTE-unsplash.jpg,0,1,673,0,unchosen,17,39,faces,objects,2300,0,1,3
256,88358,0,257,4,4,1,gain3,no_gain3,A,B,10,0,outdoor_scenes,outdoor_scenes,77,62,Stimuli/Experimental_stims/outdoor_scenes/shannon-kunkle-dM8INmkyDas-unsplash.jpg,Stimuli/Experimental_stims/outdoor_scenes/aleksandra-boguslawska-MS7KD9Ti7FQ-unsplash.jpg,0,1,1129,1,chosen,10,0,outdoor_scenes,outdoor_scenes,1900,0,1,3
257,88358,0,258,4,4,1,gain4,no_gain2,I,J,3,17,outdoor_scenes,faces,100,51,Stimuli/Experimental_stims/outdoor_scenes/henry-be-NLF6hTe4PAg-unsplash.jpg,Stimuli/Experimental_stims/faces/good-faces-xmSWVeGEnJw-unsplash.jpg,0,0,772,0,unchosen,17,3,faces,outdoor_scenes,3200,1,1,3
258,88358,0,259,4,4,0,no_gain4,gain6,H,D,7,43,outdoor_scenes,objects,70,57,Stimuli/Experimental_stims/outdoor_scenes/petr-vysohlid-9fqwGqGLUxc-unsplash.jpg,Stimuli/Experimental_stims/objects/jonathan-greenaway-Y4hGgeiFn3s-unsplash.jpg,0,1,944,0,unchosen,7,43,outdoor_scenes,objects,1000,0,1,3
259,88358,0,260,4,4,1,gain5,no_gain3,C,B,5,0,outdoor_scenes,outdoor_scenes,100,62,Stimuli/Experimental_stims/outdoor_scenes/jeff-king-bJHWJeiHfHc-unsplash.jpg,Stimuli/Experimental_stims/outdoor_scenes/aleksandra-boguslawska-MS7KD9Ti7FQ-unsplash.jpg,0,1,793,1,chosen,5,0,outdoor_scenes,outdoor_scenes,1200,0,1,3
260,88358,0,261,4,4,0,no_gain5,gain4,G,I,4,27,outdoor_scenes,body_parts,68,81,Stimuli/Experimental_stims/outdoor_scenes/jarrett-kow-1ZOyYPOBn7I-unsplash.jpg,Stimuli/Experimental_stims/body_parts/heike-mintel-i_Gns0ELnLw-unsplash.jpg,0,0,704,1,chosen,27,4,body_parts,outdoor_scenes,2700,0,1,3
261,88358,0,262,4,4,0,no_gain1,gain1,K,L,31,15,body_parts,faces,64,74,Stimuli/Experimental_stims/body_parts/sincerely-media-VN6DbKajo5s-unsplash.jpg,Stimuli/Experimental_stims/faces/erik-lucatero-d2MSDujJl2g-unsplash.jpg,0,0,740,1,chosen,15,31,faces,body_parts,1300,0,1,3
262,88358,0,263,4,4,0,no_gain1,gain2,K,E,36,40,objects,objects,51,50,Stimuli/Experimental_stims/objects/alexander-andrews-JYGnB9gTCls-unsplash.jpg,Stimuli/Experimental_stims/objects/fabian-blank-pElSkGRA2NU-unsplash.jpg,0,1,621,0,unchosen,36,40,objects,objects,1500,0,1,3
263,88358,0,264,4,4,1,gain3,no_gain5,A,G,10,4,outdoor_scenes,outdoor_scenes,77,68,Stimuli/Experimental_stims/outdoor_scenes/shannon-kunkle-dM8INmkyDas-unsplash.jpg,Stimuli/Experimental_stims/outdoor_scenes/jarrett-kow-1ZOyYPOBn7I-unsplash.jpg,0,1,900,1,chosen,10,4,outdoor_scenes,outdoor_scenes,3700,1,1,3
264,88358,0,265,4,4,0,no_gain2,gain5,J,C,38,5,objects,outdoor_scenes,60,100,Stimuli/Experimental_stims/objects/art-lasovsky-8XddFc6NkBY-unsplash.jpg,Stimuli/Experimental_stims/outdoor_scenes/jeff-king-bJHWJeiHfHc-unsplash.jpg,0,0,845,1,chosen,5,38,outdoor_scenes,objects,1000,0,1,3
265,88358,0,266,4,4,1,gain4,no_gain6,I,F,3,18,outdoor_scenes,faces,100,50,Stimuli/Experimental_stims/outdoor_scenes/henry-be-NLF6hTe4PAg-unsplash.jpg,Stimuli/Experimental_stims/faces/jessica-radanavong-mrYkTuAesKE-unsplash.jpg,0,0,1016,0,unchosen,18,3,faces,outdoor_scenes,1700,0,1,3
266,88358,0,267,4,4,1,gain4,no_gain3,I,B,3,16,outdoor_scenes,faces,100,67,Stimuli/Experimental_stims/outdoor_scenes/henry-be-NLF6hTe4PAg-unsplash.jpg,Stimuli/Experimental_stims/faces/freddy-kearney-o-ioeoATbIM-unsplash.jpg,0,0,699,0,unchosen,16,3,faces,outdoor_scenes,1100,0,1,3
267,88358,0,268,4,4,0,no_gain4,gain3,H,A,7,39,outdoor_scenes,objects,70,50,Stimuli/Experimental_stims/outdoor_scenes/petr-vysohlid-9fqwGqGLUxc-unsplash.jpg,Stimuli/Experimental_stims/objects/charlesdeluvio-1-nx1QR5dTE-unsplash.jpg,0,1,709,0,unchosen,7,39,outdoor_scenes,objects,1200,0,1,3
268,88358,0,269,4,4,1,gain5,no_gain6,C,F,5,34,outdoor_scenes,body_parts,100,50,Stimuli/Experimental_stims/outdoor_scenes/jeff-king-bJHWJeiHfHc-unsplash.jpg,Stimuli/Experimental_stims/body_parts/wagner-santos-mBWMvIuVnso-unsplash.jpg,0,1,767,1,chosen,5,34,outdoor_scenes,body_parts,1300,0,1,3
269,88358,0,270,4,4,1,gain6,no_gain1,D,K,14,31,faces,body_parts,84,64,Stimuli/Experimental_stims/faces/david-siglin-UuW4psOb388-unsplash.jpg,Stimuli/Experimental_stims/body_parts/sincerely-media-VN6DbKajo5s-unsplash.jpg,0,1,940,1,chosen,14,31,faces,body_parts,1700,0,1,3
270,88358,0,271,4,4,1,gain2,no_gain2,E,J,40,17,objects,faces,50,51,Stimuli/Experimental_stims/objects/fabian-blank-pElSkGRA2NU-unsplash.jpg,Stimuli/Experimental_stims/faces/good-faces-xmSWVeGEnJw-unsplash.jpg,0,0,860,0,unchosen,17,40,faces,objects,3400,1,1,3
271,88358,0,272,4,4,0,no_gain5,gain6,G,D,42,43,objects,objects,50,57,Stimuli/Experimental_stims/objects/jess-bailey-nOeVi8DsN8U-unsplash.jpg,Stimuli/Experimental_stims/objects/jonathan-greenaway-Y4hGgeiFn3s-unsplash.jpg,0,1,967,0,unchosen,42,43,objects,objects,2500,0,1,3
272,88358,0,273,4,4,1,gain2,no_gain1,E,K,24,31,body_parts,body_parts,49,64,Stimuli/Experimental_stims/body_parts/clay-banks-LjqARJaJotc-unsplash.jpg,Stimuli/Experimental_stims/body_parts/sincerely-media-VN6DbKajo5s-unsplash.jpg,0,1,892,1,chosen,24,31,body_parts,body_parts,2600,0,1,3
273,88358,0,274,4,4,1,gain2,no_gain6,E,F,40,18,objects,faces,50,50,Stimuli/Experimental_stims/objects/fabian-blank-pElSkGRA2NU-unsplash.jpg,Stimuli/Experimental_stims/faces/jessica-radanavong-mrYkTuAesKE-unsplash.jpg,0,0,665,0,unchosen,18,40,faces,objects,2000,0,1,3
274,88358,0,275,4,4,0,no_gain1,gain3,K,A,31,10,body_parts,outdoor_scenes,64,77,Stimuli/Experimental_stims/body_parts/sincerely-media-VN6DbKajo5s-unsplash.jpg,Stimuli/Experimental_stims/outdoor_scenes/shannon-kunkle-dM8INmkyDas-unsplash.jpg,0,0,1024,1,chosen,10,31,outdoor_scenes,body_parts,1900,0,1,3
275,88358,0,276,4,4,0,no_gain2,gain6,J,D,17,43,faces,objects,51,57,Stimuli/Experimental_stims/faces/good-faces-xmSWVeGEnJw-unsplash.jpg,Stimuli/Experimental_stims/objects/jonathan-greenaway-Y4hGgeiFn3s-unsplash.jpg,0,1,563,0,unchosen,17,43,faces,objects,1500,0,1,3
276,88358,0,277,4,4,1,gain2,no_gain5,E,G,40,42,objects,objects,50,50,Stimuli/Experimental_stims/objects/fabian-blank-pElSkGRA2NU-unsplash.jpg,Stimuli/Experimental_stims/objects/jess-bailey-nOeVi8DsN8U-unsplash.jpg,0,0,629,0,unchosen,42,40,objects,objects,2500,0,1,3
277,88358,0,278,4,4,0,no_gain6,gain6,F,D,34,14,body_parts,faces,50,84,Stimuli/Experimental_stims/body_parts/wagner-santos-mBWMvIuVnso-unsplash.jpg,Stimuli/Experimental_stims/faces/david-siglin-UuW4psOb388-unsplash.jpg,0,0,844,1,chosen,14,34,faces,body_parts,1400,0,1,3
278,88358,0,279,4,4,0,no_gain3,gain2,B,E,0,24,outdoor_scenes,body_parts,62,49,Stimuli/Experimental_stims/outdoor_scenes/aleksandra-boguslawska-MS7KD9Ti7FQ-unsplash.jpg,Stimuli/Experimental_stims/body_parts/clay-banks-LjqARJaJotc-unsplash.jpg,0,0,792,1,chosen,24,0,body_parts,outdoor_scenes,1300,0,1,3
279,88358,0,280,4,4,1,gain6,no_gain6,D,F,43,18,objects,faces,57,50,Stimuli/Experimental_stims/objects/jonathan-greenaway-Y4hGgeiFn3s-unsplash.jpg,Stimuli/Experimental_stims/faces/jessica-radanavong-mrYkTuAesKE-unsplash.jpg,0,0,957,0,unchosen,18,43,faces,objects,1100,0,1,3
280,88358,0,281,4,4,1,gain6,no_gain2,D,J,14,38,faces,objects,84,60,Stimuli/Experimental_stims/faces/david-siglin-UuW4psOb388-unsplash.jpg,Stimuli/Experimental_stims/objects/art-lasovsky-8XddFc6NkBY-unsplash.jpg,0,1,645,1,chosen,14,38,faces,objects,1100,0,1,3
281,88358,0,282,4,4,1,gain2,no_gain5,E,G,24,4,body_parts,outdoor_scenes,49,68,Stimuli/Experimental_stims/body_parts/clay-banks-LjqARJaJotc-unsplash.jpg,Stimuli/Experimental_stims/outdoor_scenes/jarrett-kow-1ZOyYPOBn7I-unsplash.jpg,0,1,788,1,chosen,24,4,body_parts,outdoor_scenes,3900,1,1,3
282,88358,0,283,4,4,1,gain2,no_gain4,E,H,40,7,objects,outdoor_scenes,50,70,Stimuli/Experimental_stims/objects/fabian-blank-pElSkGRA2NU-unsplash.jpg,Stimuli/Experimental_stims/outdoor_scenes/petr-vysohlid-9fqwGqGLUxc-unsplash.jpg,0,0,1189,0,unchosen,7,40,outdoor_scenes,objects,1200,0,1,3
283,88358,0,284,4,4,0,no_gain4,gain6,H,D,23,14,faces,faces,73,84,Stimuli/Experimental_stims/faces/rikonavt-HQjfrvdTfak-unsplash.jpg,Stimuli/Experimental_stims/faces/david-siglin-UuW4psOb388-unsplash.jpg,0,0,975,1,chosen,14,23,faces,faces,1800,0,1,3
284,88358,0,285,4,4,0,no_gain1,gain3,K,A,36,39,objects,objects,51,50,Stimuli/Experimental_stims/objects/alexander-andrews-JYGnB9gTCls-unsplash.jpg,Stimuli/Experimental_stims/objects/charlesdeluvio-1-nx1QR5dTE-unsplash.jpg,0,1,745,0,unchosen,36,39,objects,objects,1900,0,1,3
285,88358,0,286,4,4,1,gain1,no_gain3,L,B,15,0,faces,outdoor_scenes,74,62,Stimuli/Experimental_stims/faces/erik-lucatero-d2MSDujJl2g-unsplash.jpg,Stimuli/Experimental_stims/outdoor_scenes/aleksandra-boguslawska-MS7KD9Ti7FQ-unsplash.jpg,0,1,744,1,chosen,15,0,faces,outdoor_scenes,1100,0,1,3
286,88358,0,287,4,4,0,no_gain3,gain3,B,A,16,39,faces,objects,67,50,Stimuli/Experimental_stims/faces/freddy-kearney-o-ioeoATbIM-unsplash.jpg,Stimuli/Experimental_stims/objects/charlesdeluvio-1-nx1QR5dTE-unsplash.jpg,0,1,1059,0,unchosen,16,39,faces,objects,3000,0,1,3
287,88358,0,288,4,4,0,no_gain5,gain1,G,L,42,30,objects,body_parts,50,50,Stimuli/Experimental_stims/objects/jess-bailey-nOeVi8DsN8U-unsplash.jpg,Stimuli/Experimental_stims/body_parts/mika-korhonen-Xodzxosar18-unsplash.jpg,0,1,882,0,unchosen,42,30,objects,body_parts,2800,0,1,3
288,88358,0,289,4,4,0,no_gain3,gain5,B,C,16,25,faces,body_parts,67,50,Stimuli/Experimental_stims/faces/freddy-kearney-o-ioeoATbIM-unsplash.jpg,Stimuli/Experimental_stims/body_parts/engin-akyurt-Q2rfH3GW39c-unsplash.jpg,0,1,820,0,unchosen,16,25,faces,body_parts,1600,0,1,3
289,88358,0,290,4,4,0,no_gain6,gain1,F,L,34,15,body_parts,faces,50,74,Stimuli/Experimental_stims/body_parts/wagner-santos-mBWMvIuVnso-unsplash.jpg,Stimuli/Experimental_stims/faces/erik-lucatero-d2MSDujJl2g-unsplash.jpg,0,0,704,1,chosen,15,34,faces,body_parts,1800,0,1,3
290,88358,0,291,4,4,0,no_gain2,gain1,J,L,38,15,objects,faces,60,74,Stimuli/Experimental_stims/objects/art-lasovsky-8XddFc6NkBY-unsplash.jpg,Stimuli/Experimental_stims/faces/erik-lucatero-d2MSDujJl2g-unsplash.jpg,0,0,951,1,chosen,15,38,faces,objects,1900,0,1,3
291,88358,0,292,4,4,1,gain1,no_gain5,L,G,15,4,faces,outdoor_scenes,74,68,Stimuli/Experimental_stims/faces/erik-lucatero-d2MSDujJl2g-unsplash.jpg,Stimuli/Experimental_stims/outdoor_scenes/jarrett-kow-1ZOyYPOBn7I-unsplash.jpg,0,1,660,1,chosen,15,4,faces,outdoor_scenes,1700,0,1,3