,PID,practice,trial,block,run,gain_left,left_item_id,right_item_id,left_pair_id,right_pair_id,left_stimulus,right_stimulus,left_category,right_category,left_rating,right_rating,left_path,right_path,no_response,left_chosen,rt,higher_outcome_chosen,choice_type,chosen_stimulus,unchosen_stimulus,chosen_category,unchosen_category,iti,long_iti,simulation,version
0,25736,1,1,0,0,0,,,,,,,,,,,Stimuli/Practice_stims/Final_decisions/debby-hudson-FmCSSSGge-0-unsplash.jpg,Stimuli/Practice_stims/Final_decisions/yassine-khalfalli-adsQ9d_Cx0c-unsplash.jpg,0,0,64,1,,,,,,3000,0,6,1
1,25736,1,2,0,0,0,,,,,,,,,,,Stimuli/Practice_stims/Final_decisions/florian-wehde-iVW7mZPwd4g-unsplash.jpg,Stimuli/Practice_stims/Final_decisions/patrick-perkins-3wylDrjxH-E-unsplash.jpg,0,1,78,0,,,,,,1500,0,6,1
2,25736,1,3,0,0,0,,,,,,,,,,,Stimuli/Practice_stims/Final_decisions/debby-hudson-FmCSSSGge-0-unsplash.jpg,Stimuli/Practice_stims/Final_decisions/florian-wehde-iVW7mZPwd4g-unsplash.jpg,0,1,170,0,,,,,,2000,0,6,1
3,25736,1,4,0,0,0,,,,,,,,,,,Stimuli/Practice_stims/Final_decisions/yassine-khalfalli-adsQ9d_Cx0c-unsplash.jpg,Stimuli/Practice_stims/Final_decisions/debby-hudson-FmCSSSGge-0-unsplash.jpg,0,1,275,0,,,,,,1000,0,6,1
4,25736,0,5,1,1,0,no_gain4,gain5,G,J,7,46,outdoor_scenes,objects,75,79,Stimuli/Experimental_stims/outdoor_scenes/petr-vysohlid-9fqwGqGLUxc-unsplash.jpg,Stimuli/Experimental_stims/objects/mockup-graphics-PNsj6RiHAF4-unsplash.jpg,1,NaN,,NaN,chosen,NaN,NaN,NaN,NaN,1800,0,6,1
5,25736,0,6,1,1,1,gain3,no_gain6,E,L,28,12,body_parts,faces,77,83,Stimuli/Experimental_stims/body_parts/ira-vishnevskaya-8DQAvdCby1I-unsplash.jpg,Stimuli/Experimental_stims/faces/aiony-haust-jmATI5Q_YgY-unsplash.jpg,0,1,26,1,chosen,28,12,body_parts,faces,1700,0,6,1
6,25736,0,7,1,1,1,gain6,no_gain3,C,D,31,37,body_parts,objects,70,78,Stimuli/Experimental_stims/body_parts/sincerely-media-VN6DbKajo5s-unsplash.jpg,Stimuli/Experimental_stims/objects/alexander-andrews-VLGWE_SumrA-unsplash.jpg,0,0,17,0,unchosen,37,31,objects,body_parts,2300,0,6,1
7,25736,0,8,1,1,0,no_gain2,gain3,F,E,27,28,body_parts,body_parts,68,77,Stimuli/Experimental_stims/body_parts/heike-mintel-i_Gns0ELnLw-unsplash.jpg,Stimuli/Experimental_stims/body_parts/ira-vishnevskaya-8DQAvdCby1I-unsplash.jpg,0,0,167,1,chosen,28,27,body_parts,body_parts,1700,0,6,1
8,25736,0,9,1,1,1,gain4,no_gain5,I,K,5,25,outdoor_scenes,body_parts,72,75,Stimuli/Experimental_stims/outdoor_scenes/jeff-king-bJHWJeiHfHc-unsplash.jpg,Stimuli/Experimental_stims/body_parts/engin-akyurt-Q2rfH3GW39c-unsplash.jpg,0,1,52,1,unchosen,5,25,outdoor_scenes,body_parts,3900,1,6,1
9,25736,0,10,1,1,1,gain2,no_gain5,A,K,42,25,objects,body_parts,70,75,Stimuli/Experimental_stims/objects/jess-bailey-nOeVi8DsN8U-unsplash.jpg,Stimuli/Experimental_stims/body_parts/engin-akyurt-Q2rfH3GW39c-unsplash.jpg,0,1,16,1,unchosen,42,25,objects,body_parts,1200,0,6,1
10,25736,0,11,1,1,1,gain2,no_gain5,A,K,3,40,outdoor_scenes,objects,74,75,Stimuli/Experimental_stims/outdoor_scenes/henry-be-NLF6hTe4PAg-unsplash.jpg,Stimuli/Experimental_stims/objects/fabian-blank-pElSkGRA2NU-unsplash.jpg,0,1,94,1,chosen,3,40,outdoor_scenes,objects,1200,0,6,1
11,25736,0,12,1,1,0,no_gain5,gain5,K,J,40,46,objects,objects,75,79,Stimuli/Experimental_stims/objects/fabian-blank-pElSkGRA2NU-unsplash.jpg,Stimuli/Experimental_stims/objects/mockup-graphics-PNsj6RiHAF4-unsplash.jpg,0,0,129,1,chosen,46,40,objects,objects,2600,0,6,1
12,25736,0,13,1,1,0,no_gain1,gain4,B,I,17,5,faces,outdoor_scenes,82,72,Stimuli/Experimental_stims/faces/good-faces-xmSWVeGEnJw-unsplash.jpg,Stimuli/Experimental_stims/outdoor_scenes/jeff-king-bJHWJeiHfHc-unsplash.jpg,0,1,1,0,unchosen,17,5,faces,outdoor_scenes,2200,0,6,1
13,25736,0,14,1,1,1,gain4,no_gain6,I,L,35,12,body_parts,faces,68,83,Stimuli/Experimental_stims/body_parts/wc-so-KH4AAPjb-tI-unsplash.jpg,Stimuli/Experimental_stims/faces/aiony-haust-jmATI5Q_YgY-unsplash.jpg,0,1,47,1,chosen,35,12,body_parts,faces,1700,0,6,1
14,25736,0,15,1,1,1,gain4,no_gain4,I,G,35,7,body_parts,outdoor_scenes,68,75,Stimuli/Experimental_stims/body_parts/wc-so-KH4AAPjb-tI-unsplash.jpg,Stimuli/Experimental_stims/outdoor_scenes/petr-vysohlid-9fqwGqGLUxc-unsplash.jpg,0,0,173,0,chosen,7,35,outdoor_scenes,body_parts,3100,1,6,1
15,25736,0,16,1,1,1,gain2,no_gain1,A,B,42,17,objects,faces,70,82,Stimuli/Experimental_stims/objects/jess-bailey-nOeVi8DsN8U-unsplash.jpg,Stimuli/Experimental_stims/faces/good-faces-xmSWVeGEnJw-unsplash.jpg,0,0,20,0,unchosen,17,42,faces,objects,2100,0,6,1
16,25736,0,17,1,1,0,no_gain2,gain5,F,J,27,46,body_parts,objects,68,79,Stimuli/Experimental_stims/body_parts/heike-mintel-i_Gns0ELnLw-unsplash.jpg,Stimuli/Experimental_stims/objects/mockup-graphics-PNsj6RiHAF4-unsplash.jpg,0,0,135,1,chosen,46,27,objects,body_parts,1900,0,6,1
17,25736,0,18,1,1,0,no_gain1,gain5,B,J,0,46,outdoor_scenes,objects,74,79,Stimuli/Experimental_stims/outdoor_scenes/aleksandra-boguslawska-MS7KD9Ti7FQ-unsplash.jpg,Stimuli/Experimental_stims/objects/mockup-graphics-PNsj6RiHAF4-unsplash.jpg,0,0,155,1,chosen,46,0,objects,outdoor_scenes,1400,0,6,1
18,25736,0,19,1,1,1,gain3,no_gain5,E,K,28,40,body_parts,objects,77,75,Stimuli/Experimental_stims/body_parts/ira-vishnevskaya-8DQAvdCby1I-unsplash.jpg,Stimuli/Experimental_stims/objects/fabian-blank-pElSkGRA2NU-unsplash.jpg,0,0,182,0,chosen,40,28,objects,body_parts,1500,0,6,1
19,25736,0,20,1,1,0,no_gain4,gain2,G,A,36,42,objects,objects,75,70,Stimuli/Experimental_stims/objects/alexander-andrews-JYGnB9gTCls-unsplash.jpg,Stimuli/Experimental_stims/objects/jess-bailey-nOeVi8DsN8U-unsplash.jpg,0,0,262,1,unchosen,42,36,objects,objects,1600,0,6,1
20,25736,0,21,1,1,0,no_gain1,gain3,B,E,0,28,outdoor_scenes,body_parts,74,77,Stimuli/Experimental_stims/outdoor_scenes/aleksandra-boguslawska-MS7KD9Ti7FQ-unsplash.jpg,Stimuli/Experimental_stims/body_parts/ira-vishnevskaya-8DQAvdCby1I-unsplash.jpg,0,0,208,1,chosen,28,0,body_parts,outdoor_scenes,3200,1,6,1
21,25736,0,22,1,1,1,gain5,no_gain5,J,K,23,25,faces,body_parts,75,75,Stimuli/Experimental_stims/faces/rikonavt-HQjfrvdTfak-unsplash.jpg,Stimuli/Experimental_stims/body_parts/engin-akyurt-Q2rfH3GW39c-unsplash.jpg,0,0,23,0,unchosen,25,23,body_parts,faces,1900,0,6,1
22,25736,0,23,1,1,0,no_gain6,gain6,L,C,29,31,body_parts,body_parts,67,70,Stimuli/Experimental_stims/body_parts/manuel-schinner-ZwjFuJ7ebpk-unsplash.jpg,Stimuli/Experimental_stims/body_parts/sincerely-media-VN6DbKajo5s-unsplash.jpg,0,1,104,0,unchosen,29,31,body_parts,body_parts,1600,0,6,1
23,25736,0,24,1,1,0,no_gain6,gain2,L,A,12,3,faces,outdoor_scenes,83,74,Stimuli/Experimental_stims/faces/aiony-haust-jmATI5Q_YgY-unsplash.jpg,Stimuli/Experimental_stims/outdoor_scenes/henry-be-NLF6hTe4PAg-unsplash.jpg,0,1,56,0,chosen,12,3,faces,outdoor_scenes,1100,0,6,1
24,25736,0,25,1,1,1,gain4,no_gain2,I,F,5,14,outdoor_scenes,faces,72,72,Stimuli/Experimental_stims/outdoor_scenes/jeff-king-bJHWJeiHfHc-unsplash.jpg,Stimuli/Experimental_stims/faces/david-siglin-UuW4psOb388-unsplash.jpg,0,1,139,1,unchosen,5,14,outdoor_scenes,faces,2200,0,6,1
25,25736,0,26,1,1,1,gain2,no_gain3,A,D,42,37,objects,objects,70,78,Stimuli/Experimental_stims/objects/jess-bailey-nOeVi8DsN8U-unsplash.jpg,Stimuli/Experimental_stims/objects/alexander-andrews-VLGWE_SumrA-unsplash.jpg,0,0,93,0,unchosen,37,42,objects,objects,3300,1,6,1
26,25736,0,27,1,1,0,no_gain2,gain4,F,I,27,35,body_parts,body_parts,68,68,Stimuli/Experimental_stims/body_parts/heike-mintel-i_Gns0ELnLw-unsplash.jpg,Stimuli/Experimental_stims/body_parts/wc-so-KH4AAPjb-tI-unsplash.jpg,0,0,259,1,chosen,35,27,body_parts,body_parts,2100,0,6,1
27,25736,0,28,1,1,0,no_gain2,gain2,F,A,14,42,faces,objects,72,70,Stimuli/Experimental_stims/faces/david-siglin-UuW4psOb388-unsplash.jpg,Stimuli/Experimental_stims/objects/jess-bailey-nOeVi8DsN8U-unsplash.jpg,0,0,165,1,unchosen,42,14,objects,faces,1000,0,6,1
28,25736,0,29,1,1,0,no_gain4,gain3,G,E,36,43,objects,objects,75,71,Stimuli/Experimental_stims/objects/alexander-andrews-JYGnB9gTCls-unsplash.jpg,Stimuli/Experimental_stims/objects/jonathan-greenaway-Y4hGgeiFn3s-unsplash.jpg,0,1,29,0,unchosen,36,43,objects,objects,2600,0,6,1
29,25736,0,30,1,1,0,no_gain3,gain2,D,A,22,3,faces,outdoor_scenes,75,74,Stimuli/Experimental_stims/faces/ravi-patel-VMGAbeeJTKo-unsplash.jpg,Stimuli/Experimental_stims/outdoor_scenes/henry-be-NLF6hTe4PAg-unsplash.jpg,0,0,200,1,chosen,3,22,outdoor_scenes,faces,1500,0,6,1
30,25736,0,31,1,1,1,gain5,no_gain4,J,G,23,36,faces,objects,75,75,Stimuli/Experimental_stims/faces/rikonavt-HQjfrvdTfak-unsplash.jpg,Stimuli/Experimental_stims/objects/alexander-andrews-JYGnB9gTCls-unsplash.jpg,0,0,70,0,unchosen,36,23,objects,faces,1200,0,6,1
31,25736,0,32,1,1,0,no_gain3,gain5,D,J,37,23,objects,faces,78,75,Stimuli/Experimental_stims/objects/alexander-andrews-VLGWE_SumrA-unsplash.jpg,Stimuli/Experimental_stims/faces/rikonavt-HQjfrvdTfak-unsplash.jpg,0,0,182,1,unchosen,23,37,faces,objects,2100,0,6,1
32,25736,0,33,1,1,0,no_gain5,gain4,K,I,40,35,objects,body_parts,75,68,Stimuli/Experimental_stims/objects/fabian-blank-pElSkGRA2NU-unsplash.jpg,Stimuli/Experimental_stims/body_parts/wc-so-KH4AAPjb-tI-unsplash.jpg,0,0,3,1,chosen,35,40,body_parts,objects,4300,1,6,1
33,25736,0,34,1,1,0,no_gain1,gain5,B,J,17,23,faces,faces,82,75,Stimuli/Experimental_stims/faces/good-faces-xmSWVeGEnJw-unsplash.jpg,Stimuli/Experimental_stims/faces/rikonavt-HQjfrvdTfak-unsplash.jpg,0,1,91,0,unchosen,17,23,faces,faces,1000,0,6,1
34,25736,0,35,1,1,1,gain1,no_gain3,H,D,21,22,faces,faces,74,75,Stimuli/Experimental_stims/faces/leilani-angel-K84vnnzxmTQ-unsplash.jpg,Stimuli/Experimental_stims/faces/ravi-patel-VMGAbeeJTKo-unsplash.jpg,0,0,86,0,chosen,22,21,faces,faces,2300,0,6,1
35,25736,0,36,1,1,0,no_gain6,gain5,L,J,29,23,body_parts,faces,67,75,Stimuli/Experimental_stims/body_parts/manuel-schinner-ZwjFuJ7ebpk-unsplash.jpg,Stimuli/Experimental_stims/faces/rikonavt-HQjfrvdTfak-unsplash.jpg,0,1,160,0,unchosen,29,23,body_parts,faces,1200,0,6,1
36,25736,0,37,1,1,1,gain6,no_gain1,C,B,10,0,outdoor_scenes,outdoor_scenes,70,74,Stimuli/Experimental_stims/outdoor_scenes/shannon-kunkle-dM8INmkyDas-unsplash.jpg,Stimuli/Experimental_stims/outdoor_scenes/aleksandra-boguslawska-MS7KD9Ti7FQ-unsplash.jpg,0,0,29,0,chosen,0,10,outdoor_scenes,outdoor_scenes,1300,0,6,1
37,25736,0,38,1,1,1,gain4,no_gain3,I,D,35,22,body_parts,faces,68,75,Stimuli/Experimental_stims/body_parts/wc-so-KH4AAPjb-tI-unsplash.jpg,Stimuli/Experimental_stims/faces/ravi-patel-VMGAbeeJTKo-unsplash.jpg,0,1,116,1,chosen,35,22,body_parts,faces,1700,0,6,1
38,25736,0,39,1,1,1,gain1,no_gain5,H,K,21,40,faces,objects,74,75,Stimuli/Experimental_stims/faces/leilani-angel-K84vnnzxmTQ-unsplash.jpg,Stimuli/Experimental_stims/objects/fabian-blank-pElSkGRA2NU-unsplash.jpg,0,1,39,1,chosen,21,40,faces,objects,1300,0,6,1
39,25736,0,40,1,1,0,no_gain6,gain3,L,E,29,43,body_parts,objects,67,71,Stimuli/Experimental_stims/body_parts/manuel-schinner-ZwjFuJ7ebpk-unsplash.jpg,Stimuli/Experimental_stims/objects/jonathan-greenaway-Y4hGgeiFn3s-unsplash.jpg,0,1,230,0,unchosen,29,43,body_parts,objects,1200,0,6,1
40,25736,0,41,1,1,0,no_gain2,gain1,F,H,27,21,body_parts,faces,68,74,Stimuli/Experimental_stims/body_parts/heike-mintel-i_Gns0ELnLw-unsplash.jpg,Stimuli/Experimental_stims/faces/leilani-angel-K84vnnzxmTQ-unsplash.jpg,0,0,292,1,chosen,21,27,faces,body_parts,1900,0,6,1
41,25736,0,42,1,1,1,gain4,no_gain3,I,D,5,37,outdoor_scenes,objects,72,78,Stimuli/Experimental_stims/outdoor_scenes/jeff-king-bJHWJeiHfHc-unsplash.jpg,Stimuli/Experimental_stims/objects/alexander-andrews-VLGWE_SumrA-unsplash.jpg,0,0,162,0,unchosen,37,5,objects,outdoor_scenes,1200,0,6,1
42,25736,0,43,1,1,1,gain6,no_gain6,C,L,10,12,outdoor_scenes,faces,70,83,Stimuli/Experimental_stims/outdoor_scenes/shannon-kunkle-dM8INmkyDas-unsplash.jpg,Stimuli/Experimental_stims/faces/aiony-haust-jmATI5Q_YgY-unsplash.jpg,0,0,265,0,chosen,12,10,faces,outdoor_scenes,4000,1,6,1
43,25736,0,44,1,1,0,no_gain3,gain3,D,E,22,28,faces,body_parts,75,77,Stimuli/Experimental_stims/faces/ravi-patel-VMGAbeeJTKo-unsplash.jpg,Stimuli/Experimental_stims/body_parts/ira-vishnevskaya-8DQAvdCby1I-unsplash.jpg,0,1,66,0,chosen,22,28,faces,body_parts,2300,0,6,1
44,25736,0,45,1,1,1,gain2,no_gain6,A,L,42,29,objects,body_parts,70,67,Stimuli/Experimental_stims/objects/jess-bailey-nOeVi8DsN8U-unsplash.jpg,Stimuli/Experimental_stims/body_parts/manuel-schinner-ZwjFuJ7ebpk-unsplash.jpg,0,0,128,0,unchosen,29,42,body_parts,objects,1500,0,6,1
45,25736,0,46,1,1,0,no_gain1,gain1,B,H,0,21,outdoor_scenes,faces,74,74,Stimuli/Experimental_stims/outdoor_scenes/aleksandra-boguslawska-MS7KD9Ti7FQ-unsplash.jpg,Stimuli/Experimental_stims/faces/leilani-angel-K84vnnzxmTQ-unsplash.jpg,0,0,22,1,chosen,21,0,faces,outdoor_scenes,1100,0,6,1
46,25736,0,47,1,1,0,no_gain5,gain6,K,C,25,31,body_parts,body_parts,75,70,Stimuli/Experimental_stims/body_parts/engin-akyurt-Q2rfH3GW39c-unsplash.jpg,Stimuli/Experimental_stims/body_parts/sincerely-media-VN6DbKajo5s-unsplash.jpg,0,1,525,0,unchosen,25,31,body_parts,body_parts,1100,0,6,1
47,25736,0,48,1,1,0,no_gain5,gain6,K,C,40,10,objects,outdoor_scenes,75,70,Stimuli/Experimental_stims/objects/fabian-blank-pElSkGRA2NU-unsplash.jpg,Stimuli/Experimental_stims/outdoor_scenes/shannon-kunkle-dM8INmkyDas-unsplash.jpg,0,0,379,1,chosen,10,40,outdoor_scenes,objects,3200,1,6,1
48,25736,0,49,1,1,0,no_gain2,gain6,F,C,14,31,faces,body_parts,72,70,Stimuli/Experimental_stims/faces/david-siglin-UuW4psOb388-unsplash.jpg,Stimuli/Experimental_stims/body_parts/sincerely-media-VN6DbKajo5s-unsplash.jpg,0,0,33,1,unchosen,31,14,body_parts,faces,1900,0,6,1
49,25736,0,50,1,1,1,gain4,no_gain4,I,G,5,36,outdoor_scenes,objects,72,75,Stimuli/Experimental_stims/outdoor_scenes/jeff-king-bJHWJeiHfHc-unsplash.jpg,Stimuli/Experimental_stims/objects/alexander-andrews-JYGnB9gTCls-unsplash.jpg,0,1,26,1,unchosen,5,36,outdoor_scenes,objects,2300,0,6,1
50,25736,0,51,1,1,1,gain6,no_gain4,C,G,31,36,body_parts,objects,70,75,Stimuli/Experimental_stims/body_parts/sincerely-media-VN6DbKajo5s-unsplash.jpg,Stimuli/Experimental_stims/objects/alexander-andrews-JYGnB9gTCls-unsplash.jpg,0,1,1,1,unchosen,31,36,body_parts,objects,1200,0,6,1
51,25736,0,52,1,1,0,no_gain6,gain1,L,H,12,21,faces,faces,83,74,Stimuli/Experimental_stims/faces/aiony-haust-jmATI5Q_YgY-unsplash.jpg,Stimuli/Experimental_stims/faces/leilani-angel-K84vnnzxmTQ-unsplash.jpg,0,0,237,1,chosen,21,12,faces,faces,2400,0,6,1
52,25736,0,53,1,1,1,gain2,no_gain1,A,B,3,0,outdoor_scenes,outdoor_scenes,74,74,Stimuli/Experimental_stims/outdoor_scenes/henry-be-NLF6hTe4PAg-unsplash.jpg,Stimuli/Experimental_stims/outdoor_scenes/aleksandra-boguslawska-MS7KD9Ti7FQ-unsplash.jpg,0,1,178,1,chosen,3,0,outdoor_scenes,outdoor_scenes,1600,0,6,1
53,25736,0,54,1,1,1,gain5,no_gain6,J,L,46,12,objects,faces,79,83,Stimuli/Experimental_stims/objects/mockup-graphics-PNsj6RiHAF4-unsplash.jpg,Stimuli/Experimental_stims/faces/aiony-haust-jmATI5Q_YgY-unsplash.jpg,0,1,112,1,chosen,46,12,objects,faces,3100,1,6,1
54,25736,0,55,1,1,0,no_gain5,gain1,K,H,25,2,body_parts,outdoor_scenes,75,77,Stimuli/Experimental_stims/body_parts/engin-akyurt-Q2rfH3GW39c-unsplash.jpg,Stimuli/Experimental_stims/outdoor_scenes/bruno-van-der-kraan-qez8mNJ3ilU-unsplash.jpg,0,0,15,1,unchosen,2,25,outdoor_scenes,body_parts,2300,0,6,1
55,25736,0,56,1,1,1,gain2,no_gain2,A,F,3,27,outdoor_scenes,body_parts,74,68,Stimuli/Experimental_stims/outdoor_scenes/henry-be-NLF6hTe4PAg-unsplash.jpg,Stimuli/Experimental_stims/body_parts/heike-mintel-i_Gns0ELnLw-unsplash.jpg,0,1,284,1,chosen,3,27,outdoor_scenes,body_parts,2600,0,6,1
56,25736,0,57,1,1,1,gain3,no_gain2,E,F,43,14,objects,faces,71,72,Stimuli/Experimental_stims/objects/jonathan-greenaway-Y4hGgeiFn3s-unsplash.jpg,Stimuli/Experimental_stims/faces/david-siglin-UuW4psOb388-unsplash.jpg,0,0,27,0,unchosen,14,43,faces,objects,1700,0,6,1
57,25736,0,58,1,1,0,no_gain1,gain3,B,E,17,43,faces,objects,82,71,Stimuli/Experimental_stims/faces/good-faces-xmSWVeGEnJw-unsplash.jpg,Stimuli/Experimental_stims/objects/jonathan-greenaway-Y4hGgeiFn3s-unsplash.jpg,0,1,201,0,unchosen,17,43,faces,objects,1100,0,6,1
58,25736,0,59,1,1,1,gain6,no_gain4,C,G,10,7,outdoor_scenes,outdoor_scenes,70,75,Stimuli/Experimental_stims/outdoor_scenes/shannon-kunkle-dM8INmkyDas-unsplash.jpg,Stimuli/Experimental_stims/outdoor_scenes/petr-vysohlid-9fqwGqGLUxc-unsplash.jpg,0,0,53,0,chosen,7,10,outdoor_scenes,outdoor_scenes,2600,0,6,1
59,25736,0,60,1,1,1,gain6,no_gain1,C,B,31,17,body_parts,faces,70,82,Stimuli/Experimental_stims/body_parts/sincerely-media-VN6DbKajo5s-unsplash.jpg,Stimuli/Experimental_stims/faces/good-faces-xmSWVeGEnJw-unsplash.jpg,0,0,33,0,unchosen,17,31,faces,body_parts,1000,0,6,1
60,25736,0,61,1,1,1,gain1,no_gain3,H,D,2,37,outdoor_scenes,objects,77,78,Stimuli/Experimental_stims/outdoor_scenes/bruno-van-der-kraan-qez8mNJ3ilU-unsplash.jpg,Stimuli/Experimental_stims/objects/alexander-andrews-VLGWE_SumrA-unsplash.jpg,0,1,149,1,unchosen,2,37,outdoor_scenes,objects,2400,0,6,1
61,25736,0,62,1,1,0,no_gain6,gain4,L,I,29,5,body_parts,outdoor_scenes,67,72,Stimuli/Experimental_stims/body_parts/manuel-schinner-ZwjFuJ7ebpk-unsplash.jpg,Stimuli/Experimental_stims/outdoor_scenes/jeff-king-bJHWJeiHfHc-unsplash.jpg,0,1,21,0,unchosen,29,5,body_parts,outdoor_scenes,3500,1,6,1
62,25736,0,63,1,1,1,gain6,no_gain3,C,D,10,22,outdoor_scenes,faces,70,75,Stimuli/Experimental_stims/outdoor_scenes/shannon-kunkle-dM8INmkyDas-unsplash.jpg,Stimuli/Experimental_stims/faces/ravi-patel-VMGAbeeJTKo-unsplash.jpg,0,0,168,0,chosen,22,10,faces,outdoor_scenes,1700,0,6,1
63,25736,0,64,1,1,1,gain2,no_gain4,A,G,3,7,outdoor_scenes,outdoor_scenes,74,75,Stimuli/Experimental_stims/outdoor_scenes/henry-be-NLF6hTe4PAg-unsplash.jpg,Stimuli/Experimental_stims/outdoor_scenes/petr-vysohlid-9fqwGqGLUxc-unsplash.jpg,0,0,280,0,chosen,7,3,outdoor_scenes,outdoor_scenes,1200,0,6,1
64,25736,0,65,1,1,0,no_gain6,gain1,L,H,29,2,body_parts,outdoor_scenes,67,77,Stimuli/Experimental_stims/body_parts/manuel-schinner-ZwjFuJ7ebpk-unsplash.jpg,Stimuli/Experimental_stims/outdoor_scenes/bruno-van-der-kraan-qez8mNJ3ilU-unsplash.jpg,0,0,139,1,unchosen,2,29,outdoor_scenes,body_parts,1600,0,6,1
65,25736,0,66,1,1,0,no_gain4,gain1,G,H,36,2,objects,outdoor_scenes,75,77,Stimuli/Experimental_stims/objects/alexander-andrews-JYGnB9gTCls-unsplash.jpg,Stimuli/Experimental_stims/outdoor_scenes/bruno-van-der-kraan-qez8mNJ3ilU-unsplash.jpg,0,0,124,1,unchosen,2,36,outdoor_scenes,objects,1200,0,6,1
66,25736,0,67,1,1,1,gain5,no_gain2,J,F,23,14,faces,faces,75,72,Stimuli/Experimental_stims/faces/rikonavt-HQjfrvdTfak-unsplash.jpg,Stimuli/Experimental_stims/faces/david-siglin-UuW4psOb388-unsplash.jpg,0,1,83,1,unchosen,23,14,faces,faces,3400,1,6,1
67,25736,0,68,1,1,0,no_gain1,gain4,B,I,0,35,outdoor_scenes,body_parts,74,68,Stimuli/Experimental_stims/outdoor_scenes/aleksandra-boguslawska-MS7KD9Ti7FQ-unsplash.jpg,Stimuli/Experimental_stims/body_parts/wc-so-KH4AAPjb-tI-unsplash.jpg,0,1,111,0,chosen,0,35,outdoor_scenes,body_parts,1900,0,6,1
68,25736,0,69,1,1,1,gain6,no_gain2,C,F,10,27,outdoor_scenes,body_parts,70,68,Stimuli/Experimental_stims/outdoor_scenes/shannon-kunkle-dM8INmkyDas-unsplash.jpg,Stimuli/Experimental_stims/body_parts/heike-mintel-i_Gns0ELnLw-unsplash.jpg,0,1,93,1,chosen,10,27,outdoor_scenes,body_parts,2200,0,6,1
69,25736,0,70,1,1,1,gain5,no_gain3,J,D,46,22,objects,faces,79,75,Stimuli/Experimental_stims/objects/mockup-graphics-PNsj6RiHAF4-unsplash.jpg,Stimuli/Experimental_stims/faces/ravi-patel-VMGAbeeJTKo-unsplash.jpg,0,0,81,0,chosen,22,46,faces,objects,1100,0,6,1
70,25736,0,71,1,1,0,no_gain1,gain1,B,H,17,2,faces,outdoor_scenes,82,77,Stimuli/Experimental_stims/faces/good-faces-xmSWVeGEnJw-unsplash.jpg,Stimuli/Experimental_stims/outdoor_scenes/bruno-van-der-kraan-qez8mNJ3ilU-unsplash.jpg,0,0,92,1,unchosen,2,17,outdoor_scenes,faces,2600,0,6,1
71,25736,0,72,1,1,1,gain1,no_gain2,H,F,2,14,outdoor_scenes,faces,77,72,Stimuli/Experimental_stims/outdoor_scenes/bruno-van-der-kraan-qez8mNJ3ilU-unsplash.jpg,Stimuli/Experimental_stims/faces/david-siglin-UuW4psOb388-unsplash.jpg,0,0,69,0,unchosen,14,2,faces,outdoor_scenes,2100,0,6,1
72,25736,0,73,1,1,0,no_gain3,gain3,D,E,37,43,objects,objects,78,71,Stimuli/Experimental_stims/objects/alexander-andrews-VLGWE_SumrA-unsplash.jpg,Stimuli/Experimental_stims/objects/jonathan-greenaway-Y4hGgeiFn3s-unsplash.jpg,0,1,148,0,unchosen,37,43,objects,objects,1600,0,6,1
73,25736,0,74,1,1,0,no_gain4,gain1,G,H,7,21,outdoor_scenes,faces,75,74,Stimuli/Experimental_stims/outdoor_scenes/petr-vysohlid-9fqwGqGLUxc-unsplash.jpg,Stimuli/Experimental_stims/faces/leilani-angel-K84vnnzxmTQ-unsplash.jpg,0,1,44,0,chosen,7,21,outdoor_scenes,faces,1200,0,6,1
74,25736,0,75,1,1,1,gain3,no_gain5,E,K,43,25,objects,body_parts,71,75,Stimuli/Experimental_stims/objects/jonathan-greenaway-Y4hGgeiFn3s-unsplash.jpg,Stimuli/Experimental_stims/body_parts/engin-akyurt-Q2rfH3GW39c-unsplash.jpg,0,1,143,1,unchosen,43,25,objects,body_parts,2600,0,6,1
75,25736,0,76,1,1,0,no_gain4,gain3,G,E,7,28,outdoor_scenes,body_parts,75,77,Stimuli/Experimental_stims/outdoor_scenes/petr-vysohlid-9fqwGqGLUxc-unsplash.jpg,Stimuli/Experimental_stims/body_parts/ira-vishnevskaya-8DQAvdCby1I-unsplash.jpg,0,0,39,1,chosen,28,7,body_parts,outdoor_scenes,3600,1,6,1
76,25736,0,77,2,2,1,gain4,no_gain6,I,L,5,29,outdoor_scenes,body_parts,72,67,Stimuli/Experimental_stims/outdoor_scenes/jeff-king-bJHWJeiHfHc-unsplash.jpg,Stimuli/Experimental_stims/body_parts/manuel-schinner-ZwjFuJ7ebpk-unsplash.jpg,0,1,939,1,unchosen,5,29,outdoor_scenes,body_parts,3100,1,4,1
77,25736,0,78,2,2,1,gain3,no_gain1,E,B,28,0,body_parts,outdoor_scenes,77,74,Stimuli/Experimental_stims/body_parts/ira-vishnevskaya-8DQAvdCby1I-unsplash.jpg,Stimuli/Experimental_stims/outdoor_scenes/aleksandra-boguslawska-MS7KD9Ti7FQ-unsplash.jpg,0,0,28,0,chosen,0,28,outdoor_scenes,body_parts,2600,0,4,1
78,25736,0,79,2,2,0,no_gain5,gain5,K,J,40,46,objects,objects,75,79,Stimuli/Experimental_stims/objects/fabian-blank-pElSkGRA2NU-unsplash.jpg,Stimuli/Experimental_stims/objects/mockup-graphics-PNsj6RiHAF4-unsplash.jpg,0,1,30,0,chosen,40,46,objects,objects,1800,0,4,1
79,25736,0,80,2,2,0,no_gain5,gain2,K,A,25,42,body_parts,objects,75,70,Stimuli/Experimental_stims/body_parts/engin-akyurt-Q2rfH3GW39c-unsplash.jpg,Stimuli/Experimental_stims/objects/jess-bailey-nOeVi8DsN8U-unsplash.jpg,0,1,15,0,unchosen,25,42,body_parts,objects,1000,0,4,1
80,25736,0,81,2,2,0,no_gain5,gain6,K,C,40,10,objects,outdoor_scenes,75,70,Stimuli/Experimental_stims/objects/fabian-blank-pElSkGRA2NU-unsplash.jpg,Stimuli/Experimental_stims/outdoor_scenes/shannon-kunkle-dM8INmkyDas-unsplash.jpg,0,1,28,0,chosen,40,10,objects,outdoor_scenes,2300,0,4,1
81,25736,0,82,2,2,1,gain2,no_gain1,A,B,3,0,outdoor_scenes,outdoor_scenes,74,74,Stimuli/Experimental_stims/outdoor_scenes/henry-be-NLF6hTe4PAg-unsplash.jpg,Stimuli/Experimental_stims/outdoor_scenes/aleksandra-boguslawska-MS7KD9Ti7FQ-unsplash.jpg,0,1,93,1,chosen,3,0,outdoor_scenes,outdoor_scenes,1100,0,4,1
82,25736,0,83,2,2,1,gain6,no_gain4,C,G,10,7,outdoor_scenes,outdoor_scenes,70,75,Stimuli/Experimental_stims/outdoor_scenes/shannon-kunkle-dM8INmkyDas-unsplash.jpg,Stimuli/Experimental_stims/outdoor_scenes/petr-vysohlid-9fqwGqGLUxc-unsplash.jpg,0,0,90,0,chosen,7,10,outdoor_scenes,outdoor_scenes,1500,0,4,1
83,25736,0,84,2,2,1,gain1,no_gain4,H,G,2,36,outdoor_scenes,objects,77,75,Stimuli/Experimental_stims/outdoor_scenes/bruno-van-der-kraan-qez8mNJ3ilU-unsplash.jpg,Stimuli/Experimental_stims/objects/alexander-andrews-JYGnB9gTCls-unsplash.jpg,0,0,216,0,unchosen,36,2,objects,outdoor_scenes,2400,0,4,1
84,25736,0,85,2,2,0,no_gain2,gain2,F,A,14,42,faces,objects,72,70,Stimuli/Experimental_stims/faces/david-siglin-UuW4psOb388-unsplash.jpg,Stimuli/Experimental_stims/objects/jess-bailey-nOeVi8DsN8U-unsplash.jpg,0,1,325,0,unchosen,14,42,faces,objects,2300,0,4,1
85,25736,0,86,2,2,1,gain6,no_gain3,C,D,10,22,outdoor_scenes,faces,70,75,Stimuli/Experimental_stims/outdoor_scenes/shannon-kunkle-dM8INmkyDas-unsplash.jpg,Stimuli/Experimental_stims/faces/ravi-patel-VMGAbeeJTKo-unsplash.jpg,0,0,0,0,chosen,22,10,faces,outdoor_scenes,1200,0,4,1
86,25736,0,87,2,2,0,no_gain5,gain4,K,I,25,5,body_parts,outdoor_scenes,75,72,Stimuli/Experimental_stims/body_parts/engin-akyurt-Q2rfH3GW39c-unsplash.jpg,Stimuli/Experimental_stims/outdoor_scenes/jeff-king-bJHWJeiHfHc-unsplash.jpg,0,0,308,1,unchosen,5,25,outdoor_scenes,body_parts,1300,0,4,1
87,25736,0,88,2,2,1,gain2,no_gain2,A,F,3,27,outdoor_scenes,body_parts,74,68,Stimuli/Experimental_stims/outdoor_scenes/henry-be-NLF6hTe4PAg-unsplash.jpg,Stimuli/Experimental_stims/body_parts/heike-mintel-i_Gns0ELnLw-unsplash.jpg,0,1,9,1,chosen,3,27,outdoor_scenes,body_parts,3700,1,4,1
88,25736,0,89,2,2,1,gain5,no_gain3,J,D,46,22,objects,faces,79,75,Stimuli/Experimental_stims/objects/mockup-graphics-PNsj6RiHAF4-unsplash.jpg,Stimuli/Experimental_stims/faces/ravi-patel-VMGAbeeJTKo-unsplash.jpg,0,1,143,1,chosen,46,22,objects,faces,1600,0,4,1
89,25736,0,90,2,2,0,no_gain3,gain1,D,H,22,21,faces,faces,75,74,Stimuli/Experimental_stims/faces/ravi-patel-VMGAbeeJTKo-unsplash.jpg,Stimuli/Experimental_stims/faces/leilani-angel-K84vnnzxmTQ-unsplash.jpg,0,0,19,1,chosen,21,22,faces,faces,1700,0,4,1
90,25736,0,91,2,2,0,no_gain2,gain1,F,H,14,2,faces,outdoor_scenes,72,77,Stimuli/Experimental_stims/faces/david-siglin-UuW4psOb388-unsplash.jpg,Stimuli/Experimental_stims/outdoor_scenes/bruno-van-der-kraan-qez8mNJ3ilU-unsplash.jpg,0,0,2,1,unchosen,2,14,outdoor_scenes,faces,1200,0,4,1
91,25736,0,92,2,2,0,no_gain6,gain5,L,J,12,46,faces,objects,83,79,Stimuli/Experimental_stims/faces/aiony-haust-jmATI5Q_YgY-unsplash.jpg,Stimuli/Experimental_stims/objects/mockup-graphics-PNsj6RiHAF4-unsplash.jpg,0,1,252,0,chosen,12,46,faces,objects,1100,0,4,1
92,25736,0,93,2,2,0,no_gain4,gain3,G,E,7,28,outdoor_scenes,body_parts,75,77,Stimuli/Experimental_stims/outdoor_scenes/petr-vysohlid-9fqwGqGLUxc-unsplash.jpg,Stimuli/Experimental_stims/body_parts/ira-vishnevskaya-8DQAvdCby1I-unsplash.jpg,0,1,28,0,chosen,7,28,outdoor_scenes,body_parts,1300,0,4,1
93,25736,0,94,2,2,1,gain4,no_gain5,I,K,35,40,body_parts,objects,68,75,Stimuli/Experimental_stims/body_parts/wc-so-KH4AAPjb-tI-unsplash.jpg,Stimuli/Experimental_stims/objects/fabian-blank-pElSkGRA2NU-unsplash.jpg,0,0,195,0,chosen,40,35,objects,body_parts,4500,1,4,1
94,25736,0,95,2,2,0,no_gain5,gain1,K,H,25,2,body_parts,outdoor_scenes,75,77,Stimuli/Experimental_stims/body_parts/engin-akyurt-Q2rfH3GW39c-unsplash.jpg,Stimuli/Experimental_stims/outdoor_scenes/bruno-van-der-kraan-qez8mNJ3ilU-unsplash.jpg,0,0,124,1,unchosen,2,25,outdoor_scenes,body_parts,1900,0,4,1
95,25736,0,96,2,2,1,gain1,no_gain3,H,D,2,37,outdoor_scenes,objects,77,78,Stimuli/Experimental_stims/outdoor_scenes/bruno-van-der-kraan-qez8mNJ3ilU-unsplash.jpg,Stimuli/Experimental_stims/objects/alexander-andrews-VLGWE_SumrA-unsplash.jpg,0,0,37,0,unchosen,37,2,objects,outdoor_scenes,1100,0,4,1
96,25736,0,97,2,2,1,gain3,no_gain3,E,D,43,37,objects,objects,71,78,Stimuli/Experimental_stims/objects/jonathan-greenaway-Y4hGgeiFn3s-unsplash.jpg,Stimuli/Experimental_stims/objects/alexander-andrews-VLGWE_SumrA-unsplash.jpg,0,1,58,1,unchosen,43,37,objects,objects,2300,0,4,1
97,25736,0,98,2,2,0,no_gain5,gain1,K,H,40,21,objects,faces,75,74,Stimuli/Experimental_stims/objects/fabian-blank-pElSkGRA2NU-unsplash.jpg,Stimuli/Experimental_stims/faces/leilani-angel-K84vnnzxmTQ-unsplash.jpg,0,0,85,1,chosen,21,40,faces,objects,2800,0,4,1
98,25736,0,99,2,2,0,no_gain5,gain5,K,J,25,23,body_parts,faces,75,75,Stimuli/Experimental_stims/body_parts/engin-akyurt-Q2rfH3GW39c-unsplash.jpg,Stimuli/Experimental_stims/faces/rikonavt-HQjfrvdTfak-unsplash.jpg,0,0,39,1,unchosen,23,25,faces,body_parts,3200,1,4,1
99,25736,0,100,2,2,1,gain5,no_gain1,J,B,46,0,objects,outdoor_scenes,79,74,Stimuli/Experimental_stims/objects/mockup-graphics-PNsj6RiHAF4-unsplash.jpg,Stimuli/Experimental_stims/outdoor_scenes/aleksandra-boguslawska-MS7KD9Ti7FQ-unsplash.jpg,0,1,61,1,chosen,46,0,objects,outdoor_scenes,2000,0,4,1
100,25736,0,101,2,2,0,no_gain2,gain6,F,C,27,10,body_parts,outdoor_scenes,68,70,Stimuli/Experimental_stims/body_parts/heike-mintel-i_Gns0ELnLw-unsplash.jpg,Stimuli/Experimental_stims/outdoor_scenes/shannon-kunkle-dM8INmkyDas-unsplash.jpg,0,1,158,0,chosen,27,10,body_parts,outdoor_scenes,2500,0,4,1
101,25736,0,102,2,2,1,gain3,no_gain5,E,K,43,25,objects,body_parts,71,75,Stimuli/Experimental_stims/objects/jonathan-greenaway-Y4hGgeiFn3s-unsplash.jpg,Stimuli/Experimental_stims/body_parts/engin-akyurt-Q2rfH3GW39c-unsplash.jpg,0,1,1052,1,unchosen,43,25,objects,body_parts,1300,0,4,1
102,25736,0,103,2,2,1,gain6,no_gain3,C,D,31,37,body_parts,objects,70,78,Stimuli/Experimental_stims/body_parts/sincerely-media-VN6DbKajo5s-unsplash.jpg,Stimuli/Experimental_stims/objects/alexander-andrews-VLGWE_SumrA-unsplash.jpg,0,1,406,1,unchosen,31,37,body_parts,objects,1300,0,4,1
103,25736,0,104,2,2,1,gain4,no_gain4,I,G,5,36,outdoor_scenes,objects,72,75,Stimuli/Experimental_stims/outdoor_scenes/jeff-king-bJHWJeiHfHc-unsplash.jpg,Stimuli/Experimental_stims/objects/alexander-andrews-JYGnB9gTCls-unsplash.jpg,0,1,956,1,unchosen,5,36,outdoor_scenes,objects,4500,1,4,1
104,25736,0,105,2,2,1,gain6,no_gain1,C,B,10,0,outdoor_scenes,outdoor_scenes,70,74,Stimuli/Experimental_stims/outdoor_scenes/shannon-kunkle-dM8INmkyDas-unsplash.jpg,Stimuli/Experimental_stims/outdoor_scenes/aleksandra-boguslawska-MS7KD9Ti7FQ-unsplash.jpg,1,NaN,,NaN,chosen,NaN,NaN,NaN,NaN,1400,0,4,1
105,25736,0,106,2,2,1,gain2,no_gain6,A,L,42,29,objects,body_parts,70,67,Stimuli/Experimental_stims/objects/jess-bailey-nOeVi8DsN8U-unsplash.jpg,Stimuli/Experimental_stims/body_parts/manuel-schinner-ZwjFuJ7ebpk-unsplash.jpg,0,1,348,1,unchosen,42,29,objects,body_parts,2600,0,4,1
106,25736,0,107,2,2,1,gain4,no_gain4,I,G,35,7,body_parts,outdoor_scenes,68,75,Stimuli/Experimental_stims/body_parts/wc-so-KH4AAPjb-tI-unsplash.jpg,Stimuli/Experimental_stims/outdoor_scenes/petr-vysohlid-9fqwGqGLUxc-unsplash.jpg,0,1,1299,1,chosen,35,7,body_parts,outdoor_scenes,2100,0,4,1
107,25736,0,108,2,2,0,no_gain6,gain6,L,C,29,31,body_parts,body_parts,67,70,Stimuli/Experimental_stims/body_parts/manuel-schinner-ZwjFuJ7ebpk-unsplash.jpg,Stimuli/Experimental_stims/body_parts/sincerely-media-VN6DbKajo5s-unsplash.jpg,1,NaN,,NaN,unchosen,NaN,NaN,NaN,NaN,2100,0,4,1
108,25736,0,109,2,2,1,gain4,no_gain3,I,D,5,37,outdoor_scenes,objects,72,78,Stimuli/Experimental_stims/outdoor_scenes/jeff-king-bJHWJeiHfHc-unsplash.jpg,Stimuli/Experimental_stims/objects/alexander-andrews-VLGWE_SumrA-unsplash.jpg,0,1,636,1,unchosen,5,37,outdoor_scenes,objects,2600,0,4,1
109,25736,0,110,2,2,0,no_gain1,gain1,B,H,0,21,outdoor_scenes,faces,74,74,Stimuli/Experimental_stims/outdoor_scenes/aleksandra-boguslawska-MS7KD9Ti7FQ-unsplash.jpg,Stimuli/Experimental_stims/faces/leilani-angel-K84vnnzxmTQ-unsplash.jpg,0,1,128,0,chosen,0,21,outdoor_scenes,faces,3000,1,4,1
110,25736,0,111,2,2,1,gain2,no_gain4,A,G,3,7,outdoor_scenes,outdoor_scenes,74,75,Stimuli/Experimental_stims/outdoor_scenes/henry-be-NLF6hTe4PAg-unsplash.jpg,Stimuli/Experimental_stims/outdoor_scenes/petr-vysohlid-9fqwGqGLUxc-unsplash.jpg,0,1,248,1,chosen,3,7,outdoor_scenes,outdoor_scenes,1100,0,4,1
111,25736,0,112,2,2,0,no_gain1,gain3,B,E,17,43,faces,objects,82,71,Stimuli/Experimental_stims/faces/good-faces-xmSWVeGEnJw-unsplash.jpg,Stimuli/Experimental_stims/objects/jonathan-greenaway-Y4hGgeiFn3s-unsplash.jpg,0,1,975,0,unchosen,17,43,faces,objects,1000,0,4,1
112,25736,0,113,2,2,1,gain5,no_gain1,J,B,23,17,faces,faces,75,82,Stimuli/Experimental_stims/faces/rikonavt-HQjfrvdTfak-unsplash.jpg,Stimuli/Experimental_stims/faces/good-faces-xmSWVeGEnJw-unsplash.jpg,0,1,44,1,unchosen,23,17,faces,faces,1300,0,4,1
113,25736,0,114,2,2,1,gain3,no_gain6,E,L,28,12,body_parts,faces,77,83,Stimuli/Experimental_stims/body_parts/ira-vishnevskaya-8DQAvdCby1I-unsplash.jpg,Stimuli/Experimental_stims/faces/aiony-haust-jmATI5Q_YgY-unsplash.jpg,0,1,109,1,chosen,28,12,body_parts,faces,1000,0,4,1
114,25736,0,115,2,2,0,no_gain1,gain1,B,H,17,2,faces,outdoor_scenes,82,77,Stimuli/Experimental_stims/faces/good-faces-xmSWVeGEnJw-unsplash.jpg,Stimuli/Experimental_stims/outdoor_scenes/bruno-van-der-kraan-qez8mNJ3ilU-unsplash.jpg,0,1,440,0,unchosen,17,2,faces,outdoor_scenes,1200,0,4,1
115,25736,0,116,2,2,0,no_gain5,gain3,K,E,40,28,objects,body_parts,75,77,Stimuli/Experimental_stims/objects/fabian-blank-pElSkGRA2NU-unsplash.jpg,Stimuli/Experimental_stims/body_parts/ira-vishnevskaya-8DQAvdCby1I-unsplash.jpg,0,1,109,0,chosen,40,28,objects,body_parts,1800,0,4,1
116,25736,0,117,2,2,1,gain5,no_gain2,J,F,23,14,faces,faces,75,72,Stimuli/Experimental_stims/faces/rikonavt-HQjfrvdTfak-unsplash.jpg,Stimuli/Experimental_stims/faces/david-siglin-UuW4psOb388-unsplash.jpg,0,1,195,1,unchosen,23,14,faces,faces,2300,0,4,1
117,25736,0,118,2,2,1,gain4,no_gain1,I,B,35,0,body_parts,outdoor_scenes,68,74,Stimuli/Experimental_stims/body_parts/wc-so-KH4AAPjb-tI-unsplash.jpg,Stimuli/Experimental_stims/outdoor_scenes/aleksandra-boguslawska-MS7KD9Ti7FQ-unsplash.jpg,0,1,1236,1,chosen,35,0,body_parts,outdoor_scenes,3500,1,4,1
118,25736,0,119,2,2,0,no_gain2,gain6,F,C,14,31,faces,body_parts,72,70,Stimuli/Experimental_stims/faces/david-siglin-UuW4psOb388-unsplash.jpg,Stimuli/Experimental_stims/body_parts/sincerely-media-VN6DbKajo5s-unsplash.jpg,1,NaN,,NaN,unchosen,NaN,NaN,NaN,NaN,1300,0,4,1
119,25736,0,120,2,2,0,no_gain2,gain5,F,J,27,46,body_parts,objects,68,79,Stimuli/Experimental_stims/body_parts/heike-mintel-i_Gns0ELnLw-unsplash.jpg,Stimuli/Experimental_stims/objects/mockup-graphics-PNsj6RiHAF4-unsplash.jpg,0,1,999,0,chosen,27,46,body_parts,objects,1400,0,4,1
120,25736,0,121,2,2,1,gain3,no_gain3,E,D,28,22,body_parts,faces,77,75,Stimuli/Experimental_stims/body_parts/ira-vishnevskaya-8DQAvdCby1I-unsplash.jpg,Stimuli/Experimental_stims/faces/ravi-patel-VMGAbeeJTKo-unsplash.jpg,0,1,34,1,chosen,28,22,body_parts,faces,1300,0,4,1
121,25736,0,122,2,2,1,gain6,no_gain1,C,B,31,17,body_parts,faces,70,82,Stimuli/Experimental_stims/body_parts/sincerely-media-VN6DbKajo5s-unsplash.jpg,Stimuli/Experimental_stims/faces/good-faces-xmSWVeGEnJw-unsplash.jpg,0,0,96,0,unchosen,17,31,faces,body_parts,2800,0,4,1
122,25736,0,123,2,2,1,gain5,no_gain6,J,L,23,29,faces,body_parts,75,67,Stimuli/Experimental_stims/faces/rikonavt-HQjfrvdTfak-unsplash.jpg,Stimuli/Experimental_stims/body_parts/manuel-schinner-ZwjFuJ7ebpk-unsplash.jpg,0,0,56,0,unchosen,29,23,body_parts,faces,1800,0,4,1
123,25736,0,124,2,2,0,no_gain2,gain4,F,I,14,5,faces,outdoor_scenes,72,72,Stimuli/Experimental_stims/faces/david-siglin-UuW4psOb388-unsplash.jpg,Stimuli/Experimental_stims/outdoor_scenes/jeff-king-bJHWJeiHfHc-unsplash.jpg,0,1,124,0,unchosen,14,5,faces,outdoor_scenes,1200,0,4,1
124,25736,0,125,2,2,0,no_gain3,gain4,D,I,22,35,faces,body_parts,75,68,Stimuli/Experimental_stims/faces/ravi-patel-VMGAbeeJTKo-unsplash.jpg,Stimuli/Experimental_stims/body_parts/wc-so-KH4AAPjb-tI-unsplash.jpg,0,1,1,0,chosen,22,35,faces,body_parts,1000,0,4,1
125,25736,0,126,2,2,1,gain3,no_gain4,E,G,43,36,objects,objects,71,75,Stimuli/Experimental_stims/objects/jonathan-greenaway-Y4hGgeiFn3s-unsplash.jpg,Stimuli/Experimental_stims/objects/alexander-andrews-JYGnB9gTCls-unsplash.jpg,0,1,29,1,unchosen,43,36,objects,objects,1600,0,4,1
126,25736,0,127,2,2,0,no_gain2,gain4,F,I,27,35,body_parts,body_parts,68,68,Stimuli/Experimental_stims/body_parts/heike-mintel-i_Gns0ELnLw-unsplash.jpg,Stimuli/Experimental_stims/body_parts/wc-so-KH4AAPjb-tI-unsplash.jpg,0,0,348,1,chosen,35,27,body_parts,body_parts,1500,0,4,1
127,25736,0,128,2,2,0,no_gain5,gain2,K,A,40,3,objects,outdoor_scenes,75,74,Stimuli/Experimental_stims/objects/fabian-blank-pElSkGRA2NU-unsplash.jpg,Stimuli/Experimental_stims/outdoor_scenes/henry-be-NLF6hTe4PAg-unsplash.jpg,0,1,27,0,chosen,40,3,objects,outdoor_scenes,3300,1,4,1
128,25736,0,129,2,2,0,no_gain4,gain1,G,H,7,21,outdoor_scenes,faces,75,74,Stimuli/Experimental_stims/outdoor_scenes/petr-vysohlid-9fqwGqGLUxc-unsplash.jpg,Stimuli/Experimental_stims/faces/leilani-angel-K84vnnzxmTQ-unsplash.jpg,0,0,2,1,chosen,21,7,faces,outdoor_scenes,2200,0,4,1
129,25736,0,130,2,2,0,no_gain5,gain6,K,C,25,31,body_parts,body_parts,75,70,Stimuli/Experimental_stims/body_parts/engin-akyurt-Q2rfH3GW39c-unsplash.jpg,Stimuli/Experimental_stims/body_parts/sincerely-media-VN6DbKajo5s-unsplash.jpg,0,1,125,0,unchosen,25,31,body_parts,body_parts,2400,0,4,1
130,25736,0,131,2,2,1,gain2,no_gain3,A,D,3,22,outdoor_scenes,faces,74,75,Stimuli/Experimental_stims/outdoor_scenes/henry-be-NLF6hTe4PAg-unsplash.jpg,Stimuli/Experimental_stims/faces/ravi-patel-VMGAbeeJTKo-unsplash.jpg,0,1,48,1,chosen,3,22,outdoor_scenes,faces,1300,0,4,1
131,25736,0,132,2,2,1,gain6,no_gain4,C,G,31,36,body_parts,objects,70,75,Stimuli/Experimental_stims/body_parts/sincerely-media-VN6DbKajo5s-unsplash.jpg,Stimuli/Experimental_stims/objects/alexander-andrews-JYGnB9gTCls-unsplash.jpg,0,1,33,1,unchosen,31,36,body_parts,objects,2400,0,4,1
132,25736,0,133,2,2,0,no_gain1,gain4,B,I,17,5,faces,outdoor_scenes,82,72,Stimuli/Experimental_stims/faces/good-faces-xmSWVeGEnJw-unsplash.jpg,Stimuli/Experimental_stims/outdoor_scenes/jeff-king-bJHWJeiHfHc-unsplash.jpg,0,1,436,0,unchosen,17,5,faces,outdoor_scenes,2200,0,4,1
133,25736,0,134,2,2,0,no_gain6,gain4,L,I,12,35,faces,body_parts,83,68,Stimuli/Experimental_stims/faces/aiony-haust-jmATI5Q_YgY-unsplash.jpg,Stimuli/Experimental_stims/body_parts/wc-so-KH4AAPjb-tI-unsplash.jpg,1,NaN,,NaN,chosen,NaN,NaN,NaN,NaN,2900,1,4,1
134,25736,0,135,2,2,1,gain1,no_gain6,H,L,21,12,faces,faces,74,83,Stimuli/Experimental_stims/faces/leilani-angel-K84vnnzxmTQ-unsplash.jpg,Stimuli/Experimental_stims/faces/aiony-haust-jmATI5Q_YgY-unsplash.jpg,0,0,1,0,chosen,12,21,faces,faces,1900,0,4,1
135,25736,0,136,2,2,0,no_gain1,gain2,B,A,17,42,faces,objects,82,70,Stimuli/Experimental_stims/faces/good-faces-xmSWVeGEnJw-unsplash.jpg,Stimuli/Experimental_stims/objects/jess-bailey-nOeVi8DsN8U-unsplash.jpg,0,1,33,0,unchosen,17,42,faces,objects,1700,0,4,1
136,25736,0,137,2,2,0,no_gain4,gain2,G,A,36,42,objects,objects,75,70,Stimuli/Experimental_stims/objects/alexander-andrews-JYGnB9gTCls-unsplash.jpg,Stimuli/Experimental_stims/objects/jess-bailey-nOeVi8DsN8U-unsplash.jpg,0,0,44,1,unchosen,42,36,objects,objects,1900,0,4,1
137,25736,0,138,2,2,1,gain6,no_gain6,C,L,10,12,outdoor_scenes,faces,70,83,Stimuli/Experimental_stims/outdoor_scenes/shannon-kunkle-dM8INmkyDas-unsplash.jpg,Stimuli/Experimental_stims/faces/aiony-haust-jmATI5Q_YgY-unsplash.jpg,0,1,105,1,chosen,10,12,outdoor_scenes,faces,1700,0,4,1
138,25736,0,139,2,2,0,no_gain3,gain2,D,A,37,42,objects,objects,78,70,Stimuli/Experimental_stims/objects/alexander-andrews-VLGWE_SumrA-unsplash.jpg,Stimuli/Experimental_stims/objects/jess-bailey-nOeVi8DsN8U-unsplash.jpg,0,0,46,1,unchosen,42,37,objects,objects,1300,0,4,1
139,25736,0,140,2,2,1,gain5,no_gain4,J,G,23,36,faces,objects,75,75,Stimuli/Experimental_stims/faces/rikonavt-HQjfrvdTfak-unsplash.jpg,Stimuli/Experimental_stims/objects/alexander-andrews-JYGnB9gTCls-unsplash.jpg,0,1,94,1,unchosen,23,36,faces,objects,3600,1,4,1
140,25736,0,141,2,2,1,gain5,no_gain4,J,G,46,7,objects,outdoor_scenes,79,75,Stimuli/Experimental_stims/objects/mockup-graphics-PNsj6RiHAF4-unsplash.jpg,Stimuli/Experimental_stims/outdoor_scenes/petr-vysohlid-9fqwGqGLUxc-unsplash.jpg,0,0,116,0,chosen,7,46,outdoor_scenes,objects,1700,0,4,1
141,25736,0,142,2,2,0,no_gain6,gain2,L,A,12,3,faces,outdoor_scenes,83,74,Stimuli/Experimental_stims/faces/aiony-haust-jmATI5Q_YgY-unsplash.jpg,Stimuli/Experimental_stims/outdoor_scenes/henry-be-NLF6hTe4PAg-unsplash.jpg,0,0,18,1,chosen,3,12,outdoor_scenes,faces,1900,0,4,1
142,25736,0,143,2,2,0,no_gain2,gain1,F,H,27,21,body_parts,faces,68,74,Stimuli/Experimental_stims/body_parts/heike-mintel-i_Gns0ELnLw-unsplash.jpg,Stimuli/Experimental_stims/faces/leilani-angel-K84vnnzxmTQ-unsplash.jpg,0,0,208,1,chosen,21,27,faces,body_parts,2200,0,4,1
143,25736,0,144,2,2,0,no_gain3,gain5,D,J,37,23,objects,faces,78,75,Stimuli/Experimental_stims/objects/alexander-andrews-VLGWE_SumrA-unsplash.jpg,Stimuli/Experimental_stims/faces/rikonavt-HQjfrvdTfak-unsplash.jpg,0,1,119,0,unchosen,37,23,objects,faces,1800,0,4,1
144,25736,0,145,2,2,0,no_gain6,gain3,L,E,29,43,body_parts,objects,67,71,Stimuli/Experimental_stims/body_parts/manuel-schinner-ZwjFuJ7ebpk-unsplash.jpg,Stimuli/Experimental_stims/objects/jonathan-greenaway-Y4hGgeiFn3s-unsplash.jpg,0,1,19,0,unchosen,29,43,body_parts,objects,1400,0,4,1
145,25736,0,146,2,2,0,no_gain2,gain3,F,E,27,28,body_parts,body_parts,68,77,Stimuli/Experimental_stims/body_parts/heike-mintel-i_Gns0ELnLw-unsplash.jpg,Stimuli/Experimental_stims/body_parts/ira-vishnevskaya-8DQAvdCby1I-unsplash.jpg,0,0,120,1,chosen,28,27,body_parts,body_parts,1800,0,4,1
146,25736,0,147,2,2,1,gain3,no_gain2,E,F,43,14,objects,faces,71,72,Stimuli/Experimental_stims/objects/jonathan-greenaway-Y4hGgeiFn3s-unsplash.jpg,Stimuli/Experimental_stims/faces/david-siglin-UuW4psOb388-unsplash.jpg,0,1,87,1,unchosen,43,14,objects,faces,1300,0,4,1
147,25736,0,148,2,2,1,gain1,no_gain6,H,L,2,29,outdoor_scenes,body_parts,77,67,Stimuli/Experimental_stims/outdoor_scenes/bruno-van-der-kraan-qez8mNJ3ilU-unsplash.jpg,Stimuli/Experimental_stims/body_parts/manuel-schinner-ZwjFuJ7ebpk-unsplash.jpg,0,1,19,1,unchosen,2,29,outdoor_scenes,body_parts,3600,1,4,1
148,25736,0,149,3,3,1,gain3,no_gain6,E,L,43,29,objects,body_parts,71,67,Stimuli/Experimental_stims/objects/jonathan-greenaway-Y4hGgeiFn3s-unsplash.jpg,Stimuli/Experimental_stims/body_parts/manuel-schinner-ZwjFuJ7ebpk-unsplash.jpg,0,0,843,0,unchosen,29,43,body_parts,objects,1200,0,5,1
149,25736,0,150,3,3,1,gain3,no_gain3,E,D,28,22,body_parts,faces,77,75,Stimuli/Experimental_stims/body_parts/ira-vishnevskaya-8DQAvdCby1I-unsplash.jpg,Stimuli/Experimental_stims/faces/ravi-patel-VMGAbeeJTKo-unsplash.jpg,0,1,82,1,chosen,28,22,body_parts,faces,1100,0,5,1
150,25736,0,151,3,3,1,gain1,no_gain4,H,G,21,7,faces,outdoor_scenes,74,75,Stimuli/Experimental_stims/faces/leilani-angel-K84vnnzxmTQ-unsplash.jpg,Stimuli/Experimental_stims/outdoor_scenes/petr-vysohlid-9fqwGqGLUxc-unsplash.jpg,0,0,48,0,chosen,7,21,outdoor_scenes,faces,1100,0,5,1
151,25736,0,152,3,3,1,gain5,no_gain6,J,L,23,29,faces,body_parts,75,67,Stimuli/Experimental_stims/faces/rikonavt-HQjfrvdTfak-unsplash.jpg,Stimuli/Experimental_stims/body_parts/manuel-schinner-ZwjFuJ7ebpk-unsplash.jpg,0,1,40,1,unchosen,23,29,faces,body_parts,1300,0,5,1
152,25736,0,153,3,3,1,gain2,no_gain6,A,L,3,12,outdoor_scenes,faces,74,83,Stimuli/Experimental_stims/outdoor_scenes/henry-be-NLF6hTe4PAg-unsplash.jpg,Stimuli/Experimental_stims/faces/aiony-haust-jmATI5Q_YgY-unsplash.jpg,0,1,65,1,chosen,3,12,outdoor_scenes,faces,3300,1,5,1
153,25736,0,154,3,3,1,gain6,no_gain6,C,L,10,12,outdoor_scenes,faces,70,83,Stimuli/Experimental_stims/outdoor_scenes/shannon-kunkle-dM8INmkyDas-unsplash.jpg,Stimuli/Experimental_stims/faces/aiony-haust-jmATI5Q_YgY-unsplash.jpg,0,1,151,1,chosen,10,12,outdoor_scenes,faces,1000,0,5,1
154,25736,0,155,3,3,1,gain1,no_gain2,H,F,2,14,outdoor_scenes,faces,77,72,Stimuli/Experimental_stims/outdoor_scenes/bruno-van-der-kraan-qez8mNJ3ilU-unsplash.jpg,Stimuli/Experimental_stims/faces/david-siglin-UuW4psOb388-unsplash.jpg,0,0,70,0,unchosen,14,2,faces,outdoor_scenes,1300,0,5,1
155,25736,0,156,3,3,0,no_gain4,gain3,G,E,7,28,outdoor_scenes,body_parts,75,77,Stimuli/Experimental_stims/outdoor_scenes/petr-vysohlid-9fqwGqGLUxc-unsplash.jpg,Stimuli/Experimental_stims/body_parts/ira-vishnevskaya-8DQAvdCby1I-unsplash.jpg,0,0,85,1,chosen,28,7,body_parts,outdoor_scenes,1300,0,5,1
156,25736,0,157,3,3,0,no_gain4,gain4,G,I,7,35,outdoor_scenes,body_parts,75,68,Stimuli/Experimental_stims/outdoor_scenes/petr-vysohlid-9fqwGqGLUxc-unsplash.jpg,Stimuli/Experimental_stims/body_parts/wc-so-KH4AAPjb-tI-unsplash.jpg,0,0,4,1,chosen,35,7,body_parts,outdoor_scenes,1600,0,5,1
157,25736,0,158,3,3,1,gain6,no_gain3,C,D,10,22,outdoor_scenes,faces,70,75,Stimuli/Experimental_stims/outdoor_scenes/shannon-kunkle-dM8INmkyDas-unsplash.jpg,Stimuli/Experimental_stims/faces/ravi-patel-VMGAbeeJTKo-unsplash.jpg,0,1,93,1,chosen,10,22,outdoor_scenes,faces,1400,0,5,1
158,25736,0,159,3,3,0,no_gain1,gain2,B,A,17,42,faces,objects,82,70,Stimuli/Experimental_stims/faces/good-faces-xmSWVeGEnJw-unsplash.jpg,Stimuli/Experimental_stims/objects/jess-bailey-nOeVi8DsN8U-unsplash.jpg,0,1,58,0,unchosen,17,42,faces,objects,2100,0,5,1
159,25736,0,160,3,3,0,no_gain4,gain3,G,E,36,43,objects,objects,75,71,Stimuli/Experimental_stims/objects/alexander-andrews-JYGnB9gTCls-unsplash.jpg,Stimuli/Experimental_stims/objects/jonathan-greenaway-Y4hGgeiFn3s-unsplash.jpg,0,0,122,1,unchosen,43,36,objects,objects,1200,0,5,1
160,25736,0,161,3,3,0,no_gain1,gain3,B,E,0,28,outdoor_scenes,body_parts,74,77,Stimuli/Experimental_stims/outdoor_scenes/aleksandra-boguslawska-MS7KD9Ti7FQ-unsplash.jpg,Stimuli/Experimental_stims/body_parts/ira-vishnevskaya-8DQAvdCby1I-unsplash.jpg,0,1,36,0,chosen,0,28,outdoor_scenes,body_parts,4100,1,5,1
161,25736,0,162,3,3,0,no_gain1,gain4,B,I,17,5,faces,outdoor_scenes,82,72,Stimuli/Experimental_stims/faces/good-faces-xmSWVeGEnJw-unsplash.jpg,Stimuli/Experimental_stims/outdoor_scenes/jeff-king-bJHWJeiHfHc-unsplash.jpg,0,0,50,1,unchosen,5,17,outdoor_scenes,faces,1900,0,5,1
162,25736,0,163,3,3,1,gain5,no_gain5,J,K,46,40,objects,objects,79,75,Stimuli/Experimental_stims/objects/mockup-graphics-PNsj6RiHAF4-unsplash.jpg,Stimuli/Experimental_stims/objects/fabian-blank-pElSkGRA2NU-unsplash.jpg,0,1,32,1,chosen,46,40,objects,objects,2000,0,5,1
163,25736,0,164,3,3,0,no_gain2,gain5,F,J,14,23,faces,faces,72,75,Stimuli/Experimental_stims/faces/david-siglin-UuW4psOb388-unsplash.jpg,Stimuli/Experimental_stims/faces/rikonavt-HQjfrvdTfak-unsplash.jpg,0,0,20,1,unchosen,23,14,faces,faces,2600,0,5,1
164,25736,0,165,3,3,1,gain1,no_gain4,H,G,2,36,outdoor_scenes,objects,77,75,Stimuli/Experimental_stims/outdoor_scenes/bruno-van-der-kraan-qez8mNJ3ilU-unsplash.jpg,Stimuli/Experimental_stims/objects/alexander-andrews-JYGnB9gTCls-unsplash.jpg,0,1,161,1,unchosen,2,36,outdoor_scenes,objects,1100,0,5,1
165,25736,0,166,3,3,0,no_gain4,gain5,G,J,7,46,outdoor_scenes,objects,75,79,Stimuli/Experimental_stims/outdoor_scenes/petr-vysohlid-9fqwGqGLUxc-unsplash.jpg,Stimuli/Experimental_stims/objects/mockup-graphics-PNsj6RiHAF4-unsplash.jpg,0,1,10,0,chosen,7,46,outdoor_scenes,objects,4400,1,5,1
166,25736,0,167,3,3,0,no_gain5,gain4,K,I,25,5,body_parts,outdoor_scenes,75,72,Stimuli/Experimental_stims/body_parts/engin-akyurt-Q2rfH3GW39c-unsplash.jpg,Stimuli/Experimental_stims/outdoor_scenes/jeff-king-bJHWJeiHfHc-unsplash.jpg,0,1,137,0,unchosen,25,5,body_parts,outdoor_scenes,1200,0,5,1
167,25736,0,168,3,3,0,no_gain5,gain6,K,C,40,10,objects,outdoor_scenes,75,70,Stimuli/Experimental_stims/objects/fabian-blank-pElSkGRA2NU-unsplash.jpg,Stimuli/Experimental_stims/outdoor_scenes/shannon-kunkle-dM8INmkyDas-unsplash.jpg,0,0,461,1,chosen,10,40,outdoor_scenes,objects,1100,0,5,1
168,25736,0,169,3,3,1,gain1,no_gain6,H,L,2,29,outdoor_scenes,body_parts,77,67,Stimuli/Experimental_stims/outdoor_scenes/bruno-van-der-kraan-qez8mNJ3ilU-unsplash.jpg,Stimuli/Experimental_stims/body_parts/manuel-schinner-ZwjFuJ7ebpk-unsplash.jpg,0,1,55,1,unchosen,2,29,outdoor_scenes,body_parts,1700,0,5,1
169,25736,0,170,3,3,1,gain2,no_gain2,A,F,3,27,outdoor_scenes,body_parts,74,68,Stimuli/Experimental_stims/outdoor_scenes/henry-be-NLF6hTe4PAg-unsplash.jpg,Stimuli/Experimental_stims/body_parts/heike-mintel-i_Gns0ELnLw-unsplash.jpg,0,1,25,1,chosen,3,27,outdoor_scenes,body_parts,1100,0,5,1
170,25736,0,171,3,3,0,no_gain2,gain4,F,I,14,5,faces,outdoor_scenes,72,72,Stimuli/Experimental_stims/faces/david-siglin-UuW4psOb388-unsplash.jpg,Stimuli/Experimental_stims/outdoor_scenes/jeff-king-bJHWJeiHfHc-unsplash.jpg,0,0,192,1,unchosen,5,14,outdoor_scenes,faces,3300,1,5,1
171,25736,0,172,3,3,0,no_gain3,gain2,D,A,22,3,faces,outdoor_scenes,75,74,Stimuli/Experimental_stims/faces/ravi-patel-VMGAbeeJTKo-unsplash.jpg,Stimuli/Experimental_stims/outdoor_scenes/henry-be-NLF6hTe4PAg-unsplash.jpg,0,0,251,1,chosen,3,22,outdoor_scenes,faces,2800,0,5,1
172,25736,0,173,3,3,0,no_gain4,gain2,G,A,7,3,outdoor_scenes,outdoor_scenes,75,74,Stimuli/Experimental_stims/outdoor_scenes/petr-vysohlid-9fqwGqGLUxc-unsplash.jpg,Stimuli/Experimental_stims/outdoor_scenes/henry-be-NLF6hTe4PAg-unsplash.jpg,0,0,16,1,chosen,3,7,outdoor_scenes,outdoor_scenes,1000,0,5,1
173,25736,0,174,3,3,0,no_gain1,gain6,B,C,17,31,faces,body_parts,82,70,Stimuli/Experimental_stims/faces/good-faces-xmSWVeGEnJw-unsplash.jpg,Stimuli/Experimental_stims/body_parts/sincerely-media-VN6DbKajo5s-unsplash.jpg,0,0,1,1,unchosen,31,17,body_parts,faces,3100,0,5,1
174,25736,0,175,3,3,1,gain4,no_gain1,I,B,35,0,body_parts,outdoor_scenes,68,74,Stimuli/Experimental_stims/body_parts/wc-so-KH4AAPjb-tI-unsplash.jpg,Stimuli/Experimental_stims/outdoor_scenes/aleksandra-boguslawska-MS7KD9Ti7FQ-unsplash.jpg,0,1,28,1,chosen,35,0,body_parts,outdoor_scenes,2000,0,5,1
175,25736,0,176,3,3,0,no_gain6,gain6,L,C,29,31,body_parts,body_parts,67,70,Stimuli/Experimental_stims/body_parts/manuel-schinner-ZwjFuJ7ebpk-unsplash.jpg,Stimuli/Experimental_stims/body_parts/sincerely-media-VN6DbKajo5s-unsplash.jpg,0,1,100,0,unchosen,29,31,body_parts,body_parts,2300,0,5,1
176,25736,0,177,3,3,0,no_gain2,gain5,F,J,27,46,body_parts,objects,68,79,Stimuli/Experimental_stims/body_parts/heike-mintel-i_Gns0ELnLw-unsplash.jpg,Stimuli/Experimental_stims/objects/mockup-graphics-PNsj6RiHAF4-unsplash.jpg,0,1,18,0,chosen,27,46,body_parts,objects,1500,0,5,1
177,25736,0,178,3,3,0,no_gain5,gain2,K,A,25,42,body_parts,objects,75,70,Stimuli/Experimental_stims/body_parts/engin-akyurt-Q2rfH3GW39c-unsplash.jpg,Stimuli/Experimental_stims/objects/jess-bailey-nOeVi8DsN8U-unsplash.jpg,0,0,51,1,unchosen,42,25,objects,body_parts,1600,0,5,1
178,25736,0,179,3,3,1,gain6,no_gain1,C,B,10,0,outdoor_scenes,outdoor_scenes,70,74,Stimuli/Experimental_stims/outdoor_scenes/shannon-kunkle-dM8INmkyDas-unsplash.jpg,Stimuli/Experimental_stims/outdoor_scenes/aleksandra-boguslawska-MS7KD9Ti7FQ-unsplash.jpg,0,1,1,1,chosen,10,0,outdoor_scenes,outdoor_scenes,4200,1,5,1
179,25736,0,180,3,3,0,no_gain5,gain4,K,I,40,35,objects,body_parts,75,68,Stimuli/Experimental_stims/objects/fabian-blank-pElSkGRA2NU-unsplash.jpg,Stimuli/Experimental_stims/body_parts/wc-so-KH4AAPjb-tI-unsplash.jpg,0,1,142,0,chosen,40,35,objects,body_parts,1000,0,5,1
180,25736,0,181,3,3,0,no_gain6,gain3,L,E,12,28,faces,body_parts,83,77,Stimuli/Experimental_stims/faces/aiony-haust-jmATI5Q_YgY-unsplash.jpg,Stimuli/Experimental_stims/body_parts/ira-vishnevskaya-8DQAvdCby1I-unsplash.jpg,0,0,66,1,chosen,28,12,body_parts,faces,2000,0,5,1
181,25736,0,182,3,3,1,gain4,no_gain3,I,D,5,37,outdoor_scenes,objects,72,78,Stimuli/Experimental_stims/outdoor_scenes/jeff-king-bJHWJeiHfHc-unsplash.jpg,Stimuli/Experimental_stims/objects/alexander-andrews-VLGWE_SumrA-unsplash.jpg,0,0,52,0,unchosen,37,5,objects,outdoor_scenes,1700,0,5,1
182,25736,0,183,3,3,1,gain2,no_gain6,A,L,42,29,objects,body_parts,70,67,Stimuli/Experimental_stims/objects/jess-bailey-nOeVi8DsN8U-unsplash.jpg,Stimuli/Experimental_stims/body_parts/manuel-schinner-ZwjFuJ7ebpk-unsplash.jpg,0,1,125,1,unchosen,42,29,objects,body_parts,2300,0,5,1
183,25736,0,184,3,3,1,gain4,no_gain4,I,G,5,36,outdoor_scenes,objects,72,75,Stimuli/Experimental_stims/outdoor_scenes/jeff-king-bJHWJeiHfHc-unsplash.jpg,Stimuli/Experimental_stims/objects/alexander-andrews-JYGnB9gTCls-unsplash.jpg,0,0,343,0,unchosen,36,5,objects,outdoor_scenes,3300,1,5,1
184,25736,0,185,3,3,0,no_gain1,gain2,B,A,0,3,outdoor_scenes,outdoor_scenes,74,74,Stimuli/Experimental_stims/outdoor_scenes/aleksandra-boguslawska-MS7KD9Ti7FQ-unsplash.jpg,Stimuli/Experimental_stims/outdoor_scenes/henry-be-NLF6hTe4PAg-unsplash.jpg,0,0,2,1,chosen,3,0,outdoor_scenes,outdoor_scenes,1100,0,5,1
185,25736,0,186,3,3,0,no_gain4,gain6,G,C,7,10,outdoor_scenes,outdoor_scenes,75,70,Stimuli/Experimental_stims/outdoor_scenes/petr-vysohlid-9fqwGqGLUxc-unsplash.jpg,Stimuli/Experimental_stims/outdoor_scenes/shannon-kunkle-dM8INmkyDas-unsplash.jpg,0,0,25,1,chosen,10,7,outdoor_scenes,outdoor_scenes,1900,0,5,1
186,25736,0,187,3,3,1,gain3,no_gain5,E,K,28,40,body_parts,objects,77,75,Stimuli/Experimental_stims/body_parts/ira-vishnevskaya-8DQAvdCby1I-unsplash.jpg,Stimuli/Experimental_stims/objects/fabian-blank-pElSkGRA2NU-unsplash.jpg,0,0,2,0,chosen,40,28,objects,body_parts,2400,0,5,1
187,25736,0,188,3,3,0,no_gain2,gain6,F,C,14,31,faces,body_parts,72,70,Stimuli/Experimental_stims/faces/david-siglin-UuW4psOb388-unsplash.jpg,Stimuli/Experimental_stims/body_parts/sincerely-media-VN6DbKajo5s-unsplash.jpg,0,0,16,1,unchosen,31,14,body_parts,faces,1900,0,5,1
188,25736,0,189,3,3,0,no_gain1,gain1,B,H,17,2,faces,outdoor_scenes,82,77,Stimuli/Experimental_stims/faces/good-faces-xmSWVeGEnJw-unsplash.jpg,Stimuli/Experimental_stims/outdoor_scenes/bruno-van-der-kraan-qez8mNJ3ilU-unsplash.jpg,0,0,131,1,unchosen,2,17,outdoor_scenes,faces,3300,1,5,1
189,25736,0,190,3,3,0,no_gain3,gain5,D,J,37,23,objects,faces,78,75,Stimuli/Experimental_stims/objects/alexander-andrews-VLGWE_SumrA-unsplash.jpg,Stimuli/Experimental_stims/faces/rikonavt-HQjfrvdTfak-unsplash.jpg,0,1,199,0,unchosen,37,23,objects,faces,1200,0,5,1
190,25736,0,191,3,3,1,gain1,no_gain1,H,B,21,0,faces,outdoor_scenes,74,74,Stimuli/Experimental_stims/faces/leilani-angel-K84vnnzxmTQ-unsplash.jpg,Stimuli/Experimental_stims/outdoor_scenes/aleksandra-boguslawska-MS7KD9Ti7FQ-unsplash.jpg,0,0,130,0,chosen,0,21,outdoor_scenes,faces,1100,0,5,1
191,25736,0,192,3,3,0,no_gain4,gain5,G,J,36,23,objects,faces,75,75,Stimuli/Experimental_stims/objects/alexander-andrews-JYGnB9gTCls-unsplash.jpg,Stimuli/Experimental_stims/faces/rikonavt-HQjfrvdTfak-unsplash.jpg,0,1,98,0,unchosen,36,23,objects,faces,1400,0,5,1
192,25736,0,193,3,3,1,gain3,no_gain1,E,B,43,17,objects,faces,71,82,Stimuli/Experimental_stims/objects/jonathan-greenaway-Y4hGgeiFn3s-unsplash.jpg,Stimuli/Experimental_stims/faces/good-faces-xmSWVeGEnJw-unsplash.jpg,0,0,296,0,unchosen,17,43,faces,objects,2600,0,5,1
193,25736,0,194,3,3,1,gain6,no_gain4,C,G,31,36,body_parts,objects,70,75,Stimuli/Experimental_stims/body_parts/sincerely-media-VN6DbKajo5s-unsplash.jpg,Stimuli/Experimental_stims/objects/alexander-andrews-JYGnB9gTCls-unsplash.jpg,0,1,102,1,unchosen,31,36,body_parts,objects,1100,0,5,1
194,25736,0,195,3,3,1,gain1,no_gain3,H,D,21,22,faces,faces,74,75,Stimuli/Experimental_stims/faces/leilani-angel-K84vnnzxmTQ-unsplash.jpg,Stimuli/Experimental_stims/faces/ravi-patel-VMGAbeeJTKo-unsplash.jpg,0,1,42,1,chosen,21,22,faces,faces,4100,1,5,1
195,25736,0,196,3,3,1,gain6,no_gain3,C,D,31,37,body_parts,objects,70,78,Stimuli/Experimental_stims/body_parts/sincerely-media-VN6DbKajo5s-unsplash.jpg,Stimuli/Experimental_stims/objects/alexander-andrews-VLGWE_SumrA-unsplash.jpg,0,1,49,1,unchosen,31,37,body_parts,objects,1000,0,5,1
196,25736,0,197,3,3,0,no_gain3,gain4,D,I,22,35,faces,body_parts,75,68,Stimuli/Experimental_stims/faces/ravi-patel-VMGAbeeJTKo-unsplash.jpg,Stimuli/Experimental_stims/body_parts/wc-so-KH4AAPjb-tI-unsplash.jpg,0,1,2,0,chosen,22,35,faces,body_parts,1800,0,5,1
197,25736,0,198,3,3,1,gain1,no_gain3,H,D,2,37,outdoor_scenes,objects,77,78,Stimuli/Experimental_stims/outdoor_scenes/bruno-van-der-kraan-qez8mNJ3ilU-unsplash.jpg,Stimuli/Experimental_stims/objects/alexander-andrews-VLGWE_SumrA-unsplash.jpg,0,0,1,0,unchosen,37,2,objects,outdoor_scenes,1600,0,5,1
198,25736,0,199,3,3,1,gain4,no_gain6,I,L,5,29,outdoor_scenes,body_parts,72,67,Stimuli/Experimental_stims/outdoor_scenes/jeff-king-bJHWJeiHfHc-unsplash.jpg,Stimuli/Experimental_stims/body_parts/manuel-schinner-ZwjFuJ7ebpk-unsplash.jpg,0,0,179,0,unchosen,29,5,body_parts,outdoor_scenes,2100,0,5,1
199,25736,0,200,3,3,1,gain2,no_gain4,A,G,42,36,objects,objects,70,75,Stimuli/Experimental_stims/objects/jess-bailey-nOeVi8DsN8U-unsplash.jpg,Stimuli/Experimental_stims/objects/alexander-andrews-JYGnB9gTCls-unsplash.jpg,0,0,50,0,unchosen,36,42,objects,objects,1700,0,5,1
200,25736,0,201,3,3,1,gain5,no_gain3,J,D,46,22,objects,faces,79,75,Stimuli/Experimental_stims/objects/mockup-graphics-PNsj6RiHAF4-unsplash.jpg,Stimuli/Experimental_stims/faces/ravi-patel-VMGAbeeJTKo-unsplash.jpg,0,1,210,1,chosen,46,22,objects,faces,3200,1,5,1
201,25736,0,202,3,3,0,no_gain6,gain4,L,I,12,35,faces,body_parts,83,68,Stimuli/Experimental_stims/faces/aiony-haust-jmATI5Q_YgY-unsplash.jpg,Stimuli/Experimental_stims/body_parts/wc-so-KH4AAPjb-tI-unsplash.jpg,0,0,142,1,chosen,35,12,body_parts,faces,1100,0,5,1
202,25736,0,203,3,3,1,gain2,no_gain2,A,F,42,14,objects,faces,70,72,Stimuli/Experimental_stims/objects/jess-bailey-nOeVi8DsN8U-unsplash.jpg,Stimuli/Experimental_stims/faces/david-siglin-UuW4psOb388-unsplash.jpg,0,1,36,1,unchosen,42,14,objects,faces,2800,0,5,1
203,25736,0,204,3,3,1,gain2,no_gain5,A,K,3,40,outdoor_scenes,objects,74,75,Stimuli/Experimental_stims/outdoor_scenes/henry-be-NLF6hTe4PAg-unsplash.jpg,Stimuli/Experimental_stims/objects/fabian-blank-pElSkGRA2NU-unsplash.jpg,0,0,21,0,chosen,40,3,objects,outdoor_scenes,1400,0,5,1
204,25736,0,205,3,3,1,gain1,no_gain2,H,F,21,27,faces,body_parts,74,68,Stimuli/Experimental_stims/faces/leilani-angel-K84vnnzxmTQ-unsplash.jpg,Stimuli/Experimental_stims/body_parts/heike-mintel-i_Gns0ELnLw-unsplash.jpg,0,1,3,1,chosen,21,27,faces,body_parts,2200,0,5,1
205,25736,0,206,3,3,1,gain3,no_gain3,E,D,43,37,objects,objects,71,78,Stimuli/Experimental_stims/objects/jonathan-greenaway-Y4hGgeiFn3s-unsplash.jpg,Stimuli/Experimental_stims/objects/alexander-andrews-VLGWE_SumrA-unsplash.jpg,0,0,25,0,unchosen,37,43,objects,objects,1200,0,5,1
206,25736,0,207,3,3,0,no_gain6,gain5,L,J,12,46,faces,objects,83,79,Stimuli/Experimental_stims/faces/aiony-haust-jmATI5Q_YgY-unsplash.jpg,Stimuli/Experimental_stims/objects/mockup-graphics-PNsj6RiHAF4-unsplash.jpg,0,1,125,0,chosen,12,46,faces,objects,2100,0,5,1
207,25736,0,208,3,3,1,gain1,no_gain5,H,K,21,40,faces,objects,74,75,Stimuli/Experimental_stims/faces/leilani-angel-K84vnnzxmTQ-unsplash.jpg,Stimuli/Experimental_stims/objects/fabian-blank-pElSkGRA2NU-unsplash.jpg,0,1,143,1,chosen,21,40,faces,objects,2600,0,5,1
208,25736,0,209,3,3,0,no_gain2,gain3,F,E,14,43,faces,objects,72,71,Stimuli/Experimental_stims/faces/david-siglin-UuW4psOb388-unsplash.jpg,Stimuli/Experimental_stims/objects/jonathan-greenaway-Y4hGgeiFn3s-unsplash.jpg,0,0,428,1,unchosen,43,14,objects,faces,3800,1,5,1
209,25736,0,210,3,3,0,no_gain6,gain1,L,H,12,21,faces,faces,83,74,Stimuli/Experimental_stims/faces/aiony-haust-jmATI5Q_YgY-unsplash.jpg,Stimuli/Experimental_stims/faces/leilani-angel-K84vnnzxmTQ-unsplash.jpg,0,0,2,1,chosen,21,12,faces,faces,2300,0,5,1
210,25736,0,211,3,3,1,gain3,no_gain2,E,F,28,27,body_parts,body_parts,77,68,Stimuli/Experimental_stims/body_parts/ira-vishnevskaya-8DQAvdCby1I-unsplash.jpg,Stimuli/Experimental_stims/body_parts/heike-mintel-i_Gns0ELnLw-unsplash.jpg,0,1,66,1,chosen,28,27,body_parts,body_parts,1500,0,5,1
211,25736,0,212,3,3,0,no_gain3,gain2,D,A,37,42,objects,objects,78,70,Stimuli/Experimental_stims/objects/alexander-andrews-VLGWE_SumrA-unsplash.jpg,Stimuli/Experimental_stims/objects/jess-bailey-nOeVi8DsN8U-unsplash.jpg,0,1,287,0,unchosen,37,42,objects,objects,1700,0,5,1
212,25736,0,213,3,3,1,gain5,no_gain5,J,K,23,25,faces,body_parts,75,75,Stimuli/Experimental_stims/faces/rikonavt-HQjfrvdTfak-unsplash.jpg,Stimuli/Experimental_stims/body_parts/engin-akyurt-Q2rfH3GW39c-unsplash.jpg,0,0,18,0,unchosen,25,23,body_parts,faces,1000,0,5,1
213,25736,0,214,3,3,1,gain6,no_gain5,C,K,31,25,body_parts,body_parts,70,75,Stimuli/Experimental_stims/body_parts/sincerely-media-VN6DbKajo5s-unsplash.jpg,Stimuli/Experimental_stims/body_parts/engin-akyurt-Q2rfH3GW39c-unsplash.jpg,0,0,1,0,unchosen,25,31,body_parts,body_parts,2800,0,5,1
214,25736,0,215,3,3,0,no_gain1,gain5,B,J,0,46,outdoor_scenes,objects,74,79,Stimuli/Experimental_stims/outdoor_scenes/aleksandra-boguslawska-MS7KD9Ti7FQ-unsplash.jpg,Stimuli/Experimental_stims/objects/mockup-graphics-PNsj6RiHAF4-unsplash.jpg,0,1,86,0,chosen,0,46,outdoor_scenes,objects,2400,0,5,1
215,25736,0,216,3,3,0,no_gain1,gain5,B,J,17,23,faces,faces,82,75,Stimuli/Experimental_stims/faces/good-faces-xmSWVeGEnJw-unsplash.jpg,Stimuli/Experimental_stims/faces/rikonavt-HQjfrvdTfak-unsplash.jpg,1,NaN,,NaN,unchosen,NaN,NaN,NaN,NaN,3800,1,5,1
216,25736,0,217,3,3,0,no_gain5,gain3,K,E,25,43,body_parts,objects,75,71,Stimuli/Experimental_stims/body_parts/engin-akyurt-Q2rfH3GW39c-unsplash.jpg,Stimuli/Experimental_stims/objects/jonathan-greenaway-Y4hGgeiFn3s-unsplash.jpg,1,NaN,,NaN,unchosen,NaN,NaN,NaN,NaN,1500,0,5,1
217,25736,0,218,3,3,0,no_gain5,gain1,K,H,25,2,body_parts,outdoor_scenes,75,77,Stimuli/Experimental_stims/body_parts/engin-akyurt-Q2rfH3GW39c-unsplash.jpg,Stimuli/Experimental_stims/outdoor_scenes/bruno-van-der-kraan-qez8mNJ3ilU-unsplash.jpg,1,NaN,,NaN,unchosen,NaN,NaN,NaN,NaN,1100,0,5,1
218,25736,0,219,3,3,1,gain4,no_gain2,I,F,35,27,body_parts,body_parts,68,68,Stimuli/Experimental_stims/body_parts/wc-so-KH4AAPjb-tI-unsplash.jpg,Stimuli/Experimental_stims/body_parts/heike-mintel-i_Gns0ELnLw-unsplash.jpg,1,NaN,,NaN,chosen,NaN,NaN,NaN,NaN,1500,0,5,1
219,25736,0,220,3,3,0,no_gain2,gain6,F,C,27,10,body_parts,outdoor_scenes,68,70,Stimuli/Experimental_stims/body_parts/heike-mintel-i_Gns0ELnLw-unsplash.jpg,Stimuli/Experimental_stims/outdoor_scenes/shannon-kunkle-dM8INmkyDas-unsplash.jpg,0,1,359,0,chosen,27,10,body_parts,outdoor_scenes,2500,0,5,1
220,25736,0,221,4,4,0,no_gain5,gain1,K,H,25,2,body_parts,outdoor_scenes,75,77,Stimuli/Experimental_stims/body_parts/engin-akyurt-Q2rfH3GW39c-unsplash.jpg,Stimuli/Experimental_stims/outdoor_scenes/bruno-van-der-kraan-qez8mNJ3ilU-unsplash.jpg,0,0,1280,1,unchosen,2,25,outdoor_scenes,body_parts,3400,1,3,1
221,25736,0,222,4,4,0,no_gain5,gain4,K,I,40,35,objects,body_parts,75,68,Stimuli/Experimental_stims/objects/fabian-blank-pElSkGRA2NU-unsplash.jpg,Stimuli/Experimental_stims/body_parts/wc-so-KH4AAPjb-tI-unsplash.jpg,0,0,68,1,chosen,35,40,body_parts,objects,1500,0,3,1
222,25736,0,223,4,4,0,no_gain2,gain3,F,E,14,43,faces,objects,72,71,Stimuli/Experimental_stims/faces/david-siglin-UuW4psOb388-unsplash.jpg,Stimuli/Experimental_stims/objects/jonathan-greenaway-Y4hGgeiFn3s-unsplash.jpg,0,1,624,0,unchosen,14,43,faces,objects,2000,0,3,1
223,25736,0,224,4,4,0,no_gain4,gain3,G,E,36,43,objects,objects,75,71,Stimuli/Experimental_stims/objects/alexander-andrews-JYGnB9gTCls-unsplash.jpg,Stimuli/Experimental_stims/objects/jonathan-greenaway-Y4hGgeiFn3s-unsplash.jpg,0,1,135,0,unchosen,36,43,objects,objects,1100,0,3,1
224,25736,0,225,4,4,0,no_gain1,gain6,B,C,17,31,faces,body_parts,82,70,Stimuli/Experimental_stims/faces/good-faces-xmSWVeGEnJw-unsplash.jpg,Stimuli/Experimental_stims/body_parts/sincerely-media-VN6DbKajo5s-unsplash.jpg,0,0,108,1,unchosen,31,17,body_parts,faces,2700,0,3,1
225,25736,0,226,4,4,0,no_gain4,gain2,G,A,7,3,outdoor_scenes,outdoor_scenes,75,74,Stimuli/Experimental_stims/outdoor_scenes/petr-vysohlid-9fqwGqGLUxc-unsplash.jpg,Stimuli/Experimental_stims/outdoor_scenes/henry-be-NLF6hTe4PAg-unsplash.jpg,0,0,19,1,chosen,3,7,outdoor_scenes,outdoor_scenes,1700,0,3,1
226,25736,0,227,4,4,0,no_gain1,gain1,B,H,0,21,outdoor_scenes,faces,74,74,Stimuli/Experimental_stims/outdoor_scenes/aleksandra-boguslawska-MS7KD9Ti7FQ-unsplash.jpg,Stimuli/Experimental_stims/faces/leilani-angel-K84vnnzxmTQ-unsplash.jpg,0,1,40,0,chosen,0,21,outdoor_scenes,faces,3500,1,3,1
227,25736,0,228,4,4,0,no_gain3,gain3,D,E,37,43,objects,objects,78,71,Stimuli/Experimental_stims/objects/alexander-andrews-VLGWE_SumrA-unsplash.jpg,Stimuli/Experimental_stims/objects/jonathan-greenaway-Y4hGgeiFn3s-unsplash.jpg,0,1,26,0,unchosen,37,43,objects,objects,2700,0,3,1
228,25736,0,229,4,4,1,gain4,no_gain5,I,K,5,25,outdoor_scenes,body_parts,72,75,Stimuli/Experimental_stims/outdoor_scenes/jeff-king-bJHWJeiHfHc-unsplash.jpg,Stimuli/Experimental_stims/body_parts/engin-akyurt-Q2rfH3GW39c-unsplash.jpg,0,1,2,1,unchosen,5,25,outdoor_scenes,body_parts,1500,0,3,1
229,25736,0,230,4,4,0,no_gain6,gain1,L,H,12,21,faces,faces,83,74,Stimuli/Experimental_stims/faces/aiony-haust-jmATI5Q_YgY-unsplash.jpg,Stimuli/Experimental_stims/faces/leilani-angel-K84vnnzxmTQ-unsplash.jpg,0,0,1100,1,chosen,21,12,faces,faces,1700,0,3,1
230,25736,0,231,4,4,0,no_gain1,gain2,B,A,17,42,faces,objects,82,70,Stimuli/Experimental_stims/faces/good-faces-xmSWVeGEnJw-unsplash.jpg,Stimuli/Experimental_stims/objects/jess-bailey-nOeVi8DsN8U-unsplash.jpg,0,0,20,1,unchosen,42,17,objects,faces,2300,0,3,1
231,25736,0,232,4,4,0,no_gain4,gain6,G,C,7,10,outdoor_scenes,outdoor_scenes,75,70,Stimuli/Experimental_stims/outdoor_scenes/petr-vysohlid-9fqwGqGLUxc-unsplash.jpg,Stimuli/Experimental_stims/outdoor_scenes/shannon-kunkle-dM8INmkyDas-unsplash.jpg,0,1,111,0,chosen,7,10,outdoor_scenes,outdoor_scenes,3100,1,3,1
232,25736,0,233,4,4,1,gain5,no_gain3,J,D,46,22,objects,faces,79,75,Stimuli/Experimental_stims/objects/mockup-graphics-PNsj6RiHAF4-unsplash.jpg,Stimuli/Experimental_stims/faces/ravi-patel-VMGAbeeJTKo-unsplash.jpg,0,1,28,1,chosen,46,22,objects,faces,1300,0,3,1
233,25736,0,234,4,4,1,gain1,no_gain3,H,D,21,22,faces,faces,74,75,Stimuli/Experimental_stims/faces/leilani-angel-K84vnnzxmTQ-unsplash.jpg,Stimuli/Experimental_stims/faces/ravi-patel-VMGAbeeJTKo-unsplash.jpg,0,0,259,0,chosen,22,21,faces,faces,1400,0,3,1
234,25736,0,235,4,4,1,gain2,no_gain4,A,G,42,36,objects,objects,70,75,Stimuli/Experimental_stims/objects/jess-bailey-nOeVi8DsN8U-unsplash.jpg,Stimuli/Experimental_stims/objects/alexander-andrews-JYGnB9gTCls-unsplash.jpg,0,1,61,1,unchosen,42,36,objects,objects,2500,0,3,1
235,25736,0,236,4,4,1,gain2,no_gain5,A,K,42,25,objects,body_parts,70,75,Stimuli/Experimental_stims/objects/jess-bailey-nOeVi8DsN8U-unsplash.jpg,Stimuli/Experimental_stims/body_parts/engin-akyurt-Q2rfH3GW39c-unsplash.jpg,0,0,113,0,unchosen,25,42,body_parts,objects,1500,0,3,1
236,25736,0,237,4,4,1,gain4,no_gain1,I,B,5,17,outdoor_scenes,faces,72,82,Stimuli/Experimental_stims/outdoor_scenes/jeff-king-bJHWJeiHfHc-unsplash.jpg,Stimuli/Experimental_stims/faces/good-faces-xmSWVeGEnJw-unsplash.jpg,0,0,338,0,unchosen,17,5,faces,outdoor_scenes,1900,0,3,1
237,25736,0,238,4,4,1,gain6,no_gain3,C,D,10,22,outdoor_scenes,faces,70,75,Stimuli/Experimental_stims/outdoor_scenes/shannon-kunkle-dM8INmkyDas-unsplash.jpg,Stimuli/Experimental_stims/faces/ravi-patel-VMGAbeeJTKo-unsplash.jpg,0,1,22,1,chosen,10,22,outdoor_scenes,faces,1200,0,3,1
238,25736,0,239,4,4,1,gain2,no_gain5,A,K,3,40,outdoor_scenes,objects,74,75,Stimuli/Experimental_stims/outdoor_scenes/henry-be-NLF6hTe4PAg-unsplash.jpg,Stimuli/Experimental_stims/objects/fabian-blank-pElSkGRA2NU-unsplash.jpg,0,0,60,0,chosen,40,3,objects,outdoor_scenes,3500,1,3,1
239,25736,0,240,4,4,0,no_gain2,gain6,F,C,14,31,faces,body_parts,72,70,Stimuli/Experimental_stims/faces/david-siglin-UuW4psOb388-unsplash.jpg,Stimuli/Experimental_stims/body_parts/sincerely-media-VN6DbKajo5s-unsplash.jpg,0,0,67,1,unchosen,31,14,body_parts,faces,1500,0,3,1
240,25736,0,241,4,4,1,gain5,no_gain6,J,L,46,12,objects,faces,79,83,Stimuli/Experimental_stims/objects/mockup-graphics-PNsj6RiHAF4-unsplash.jpg,Stimuli/Experimental_stims/faces/aiony-haust-jmATI5Q_YgY-unsplash.jpg,0,0,122,0,chosen,12,46,faces,objects,2200,0,3,1
241,25736,0,242,4,4,1,gain6,no_gain2,C,F,10,27,outdoor_scenes,body_parts,70,68,Stimuli/Experimental_stims/outdoor_scenes/shannon-kunkle-dM8INmkyDas-unsplash.jpg,Stimuli/Experimental_stims/body_parts/heike-mintel-i_Gns0ELnLw-unsplash.jpg,0,1,82,1,chosen,10,27,outdoor_scenes,body_parts,1100,0,3,1
242,25736,0,243,4,4,0,no_gain3,gain2,D,A,22,3,faces,outdoor_scenes,75,74,Stimuli/Experimental_stims/faces/ravi-patel-VMGAbeeJTKo-unsplash.jpg,Stimuli/Experimental_stims/outdoor_scenes/henry-be-NLF6hTe4PAg-unsplash.jpg,0,1,1,0,chosen,22,3,faces,outdoor_scenes,1300,0,3,1
243,25736,0,244,4,4,0,no_gain3,gain5,D,J,37,23,objects,faces,78,75,Stimuli/Experimental_stims/objects/alexander-andrews-VLGWE_SumrA-unsplash.jpg,Stimuli/Experimental_stims/faces/rikonavt-HQjfrvdTfak-unsplash.jpg,0,1,38,0,unchosen,37,23,objects,faces,1500,0,3,1
244,25736,0,245,4,4,0,no_gain6,gain6,L,C,12,10,faces,outdoor_scenes,83,70,Stimuli/Experimental_stims/faces/aiony-haust-jmATI5Q_YgY-unsplash.jpg,Stimuli/Experimental_stims/outdoor_scenes/shannon-kunkle-dM8INmkyDas-unsplash.jpg,0,0,29,1,chosen,10,12,outdoor_scenes,faces,1100,0,3,1
245,25736,0,246,4,4,1,gain3,no_gain6,E,L,28,12,body_parts,faces,77,83,Stimuli/Experimental_stims/body_parts/ira-vishnevskaya-8DQAvdCby1I-unsplash.jpg,Stimuli/Experimental_stims/faces/aiony-haust-jmATI5Q_YgY-unsplash.jpg,0,1,97,1,chosen,28,12,body_parts,faces,2000,0,3,1
246,25736,0,247,4,4,0,no_gain2,gain5,F,J,14,23,faces,faces,72,75,Stimuli/Experimental_stims/faces/david-siglin-UuW4psOb388-unsplash.jpg,Stimuli/Experimental_stims/faces/rikonavt-HQjfrvdTfak-unsplash.jpg,0,0,79,1,unchosen,23,14,faces,faces,4700,1,3,1
247,25736,0,248,4,4,0,no_gain1,gain3,B,E,0,28,outdoor_scenes,body_parts,74,77,Stimuli/Experimental_stims/outdoor_scenes/aleksandra-boguslawska-MS7KD9Ti7FQ-unsplash.jpg,Stimuli/Experimental_stims/body_parts/ira-vishnevskaya-8DQAvdCby1I-unsplash.jpg,0,0,66,1,chosen,28,0,body_parts,outdoor_scenes,2400,0,3,1
248,25736,0,249,4,4,1,gain4,no_gain2,I,F,5,14,outdoor_scenes,faces,72,72,Stimuli/Experimental_stims/outdoor_scenes/jeff-king-bJHWJeiHfHc-unsplash.jpg,Stimuli/Experimental_stims/faces/david-siglin-UuW4psOb388-unsplash.jpg,0,1,1,1,unchosen,5,14,outdoor_scenes,faces,1100,0,3,1
249,25736,0,250,4,4,1,gain6,no_gain5,C,K,10,40,outdoor_scenes,objects,70,75,Stimuli/Experimental_stims/outdoor_scenes/shannon-kunkle-dM8INmkyDas-unsplash.jpg,Stimuli/Experimental_stims/objects/fabian-blank-pElSkGRA2NU-unsplash.jpg,0,1,154,1,chosen,10,40,outdoor_scenes,objects,2400,0,3,1
250,25736,0,251,4,4,1,gain4,no_gain6,I,L,5,29,outdoor_scenes,body_parts,72,67,Stimuli/Experimental_stims/outdoor_scenes/jeff-king-bJHWJeiHfHc-unsplash.jpg,Stimuli/Experimental_stims/body_parts/manuel-schinner-ZwjFuJ7ebpk-unsplash.jpg,0,1,57,1,unchosen,5,29,outdoor_scenes,body_parts,1600,0,3,1
251,25736,0,252,4,4,0,no_gain1,gain1,B,H,17,2,faces,outdoor_scenes,82,77,Stimuli/Experimental_stims/faces/good-faces-xmSWVeGEnJw-unsplash.jpg,Stimuli/Experimental_stims/outdoor_scenes/bruno-van-der-kraan-qez8mNJ3ilU-unsplash.jpg,0,0,25,1,unchosen,2,17,outdoor_scenes,faces,2300,0,3,1
252,25736,0,253,4,4,0,no_gain3,gain4,D,I,22,35,faces,body_parts,75,68,Stimuli/Experimental_stims/faces/ravi-patel-VMGAbeeJTKo-unsplash.jpg,Stimuli/Experimental_stims/body_parts/wc-so-KH4AAPjb-tI-unsplash.jpg,0,0,146,1,chosen,35,22,body_parts,faces,2500,0,3,1
253,25736,0,254,4,4,1,gain3,no_gain5,E,K,28,40,body_parts,objects,77,75,Stimuli/Experimental_stims/body_parts/ira-vishnevskaya-8DQAvdCby1I-unsplash.jpg,Stimuli/Experimental_stims/objects/fabian-blank-pElSkGRA2NU-unsplash.jpg,0,0,61,0,chosen,40,28,objects,body_parts,3700,1,3,1
254,25736,0,255,4,4,1,gain2,no_gain1,A,B,3,0,outdoor_scenes,outdoor_scenes,74,74,Stimuli/Experimental_stims/outdoor_scenes/henry-be-NLF6hTe4PAg-unsplash.jpg,Stimuli/Experimental_stims/outdoor_scenes/aleksandra-boguslawska-MS7KD9Ti7FQ-unsplash.jpg,0,0,274,0,chosen,0,3,outdoor_scenes,outdoor_scenes,2100,0,3,1
255,25736,0,256,4,4,1,gain6,no_gain3,C,D,31,37,body_parts,objects,70,78,Stimuli/Experimental_stims/body_parts/sincerely-media-VN6DbKajo5s-unsplash.jpg,Stimuli/Experimental_stims/objects/alexander-andrews-VLGWE_SumrA-unsplash.jpg,0,0,242,0,unchosen,37,31,objects,body_parts,2300,0,3,1
256,25736,0,257,4,4,0,no_gain6,gain1,L,H,29,2,body_parts,outdoor_scenes,67,77,Stimuli/Experimental_stims/body_parts/manuel-schinner-ZwjFuJ7ebpk-unsplash.jpg,Stimuli/Experimental_stims/outdoor_scenes/bruno-van-der-kraan-qez8mNJ3ilU-unsplash.jpg,0,1,28,0,unchosen,29,2,body_parts,outdoor_scenes,1700,0,3,1
257,25736,0,258,4,4,0,no_gain4,gain6,G,C,36,31,objects,body_parts,75,70,Stimuli/Experimental_stims/objects/alexander-andrews-JYGnB9gTCls-unsplash.jpg,Stimuli/Experimental_stims/body_parts/sincerely-media-VN6DbKajo5s-unsplash.jpg,0,0,25,1,unchosen,31,36,body_parts,objects,2900,0,3,1
258,25736,0,259,4,4,0,no_gain4,gain1,G,H,7,21,outdoor_scenes,faces,75,74,Stimuli/Experimental_stims/outdoor_scenes/petr-vysohlid-9fqwGqGLUxc-unsplash.jpg,Stimuli/Experimental_stims/faces/leilani-angel-K84vnnzxmTQ-unsplash.jpg,1,NaN,,NaN,chosen,NaN,NaN,NaN,NaN,3000,1,3,1
259,25736,0,260,4,4,1,gain2,no_gain3,A,D,42,37,objects,objects,70,78,Stimuli/Experimental_stims/objects/jess-bailey-nOeVi8DsN8U-unsplash.jpg,Stimuli/Experimental_stims/objects/alexander-andrews-VLGWE_SumrA-unsplash.jpg,1,NaN,,NaN,unchosen,NaN,NaN,NaN,NaN,2600,0,3,1
260,25736,0,261,4,4,0,no_gain6,gain5,L,J,29,23,body_parts,faces,67,75,Stimuli/Experimental_stims/body_parts/manuel-schinner-ZwjFuJ7ebpk-unsplash.jpg,Stimuli/Experimental_stims/faces/rikonavt-HQjfrvdTfak-unsplash.jpg,0,1,72,0,unchosen,29,23,body_parts,faces,1700,0,3,1
261,25736,0,262,4,4,0,no_gain3,gain1,D,H,37,2,objects,outdoor_scenes,78,77,Stimuli/Experimental_stims/objects/alexander-andrews-VLGWE_SumrA-unsplash.jpg,Stimuli/Experimental_stims/outdoor_scenes/bruno-van-der-kraan-qez8mNJ3ilU-unsplash.jpg,0,0,35,1,unchosen,2,37,outdoor_scenes,objects,1800,0,3,1
262,25736,0,263,4,4,1,gain5,no_gain5,J,K,46,40,objects,objects,79,75,Stimuli/Experimental_stims/objects/mockup-graphics-PNsj6RiHAF4-unsplash.jpg,Stimuli/Experimental_stims/objects/fabian-blank-pElSkGRA2NU-unsplash.jpg,0,1,1,1,chosen,46,40,objects,objects,1400,0,3,1
263,25736,0,264,4,4,0,no_gain2,gain1,F,H,27,21,body_parts,faces,68,74,Stimuli/Experimental_stims/body_parts/heike-mintel-i_Gns0ELnLw-unsplash.jpg,Stimuli/Experimental_stims/faces/leilani-angel-K84vnnzxmTQ-unsplash.jpg,0,0,54,1,chosen,21,27,faces,body_parts,2200,0,3,1
264,25736,0,265,4,4,0,no_gain2,gain1,F,H,14,2,faces,outdoor_scenes,72,77,Stimuli/Experimental_stims/faces/david-siglin-UuW4psOb388-unsplash.jpg,Stimuli/Experimental_stims/outdoor_scenes/bruno-van-der-kraan-qez8mNJ3ilU-unsplash.jpg,0,0,161,1,unchosen,2,14,outdoor_scenes,faces,3500,1,3,1
265,25736,0,266,4,4,1,gain3,no_gain3,E,D,28,22,body_parts,faces,77,75,Stimuli/Experimental_stims/body_parts/ira-vishnevskaya-8DQAvdCby1I-unsplash.jpg,Stimuli/Experimental_stims/faces/ravi-patel-VMGAbeeJTKo-unsplash.jpg,0,0,161,0,chosen,22,28,faces,body_parts,1400,0,3,1
266,25736,0,267,4,4,0,no_gain2,gain4,F,I,27,35,body_parts,body_parts,68,68,Stimuli/Experimental_stims/body_parts/heike-mintel-i_Gns0ELnLw-unsplash.jpg,Stimuli/Experimental_stims/body_parts/wc-so-KH4AAPjb-tI-unsplash.jpg,0,1,100,0,chosen,27,35,body_parts,body_parts,1100,0,3,1
267,25736,0,268,4,4,1,gain6,no_gain1,C,B,10,0,outdoor_scenes,outdoor_scenes,70,74,Stimuli/Experimental_stims/outdoor_scenes/shannon-kunkle-dM8INmkyDas-unsplash.jpg,Stimuli/Experimental_stims/outdoor_scenes/aleksandra-boguslawska-MS7KD9Ti7FQ-unsplash.jpg,0,0,133,0,chosen,0,10,outdoor_scenes,outdoor_scenes,1300,0,3,1
268,25736,0,269,4,4,0,no_gain1,gain3,B,E,17,43,faces,objects,82,71,Stimuli/Experimental_stims/faces/good-faces-xmSWVeGEnJw-unsplash.jpg,Stimuli/Experimental_stims/objects/jonathan-greenaway-Y4hGgeiFn3s-unsplash.jpg,0,0,57,1,unchosen,43,17,objects,faces,2600,0,3,1
269,25736,0,270,4,4,0,no_gain4,gain4,G,I,7,35,outdoor_scenes,body_parts,75,68,Stimuli/Experimental_stims/outdoor_scenes/petr-vysohlid-9fqwGqGLUxc-unsplash.jpg,Stimuli/Experimental_stims/body_parts/wc-so-KH4AAPjb-tI-unsplash.jpg,0,1,203,0,chosen,7,35,outdoor_scenes,body_parts,1100,0,3,1
270,25736,0,271,4,4,1,gain1,no_gain4,H,G,2,36,outdoor_scenes,objects,77,75,Stimuli/Experimental_stims/outdoor_scenes/bruno-van-der-kraan-qez8mNJ3ilU-unsplash.jpg,Stimuli/Experimental_stims/objects/alexander-andrews-JYGnB9gTCls-unsplash.jpg,0,0,77,0,unchosen,36,2,objects,outdoor_scenes,1400,0,3,1
271,25736,0,272,4,4,1,gain4,no_gain3,I,D,5,37,outdoor_scenes,objects,72,78,Stimuli/Experimental_stims/outdoor_scenes/jeff-king-bJHWJeiHfHc-unsplash.jpg,Stimuli/Experimental_stims/objects/alexander-andrews-VLGWE_SumrA-unsplash.jpg,0,1,186,1,unchosen,5,37,outdoor_scenes,objects,3200,1,3,1
272,25736,0,273,4,4,0,no_gain6,gain2,L,A,12,3,faces,outdoor_scenes,83,74,Stimuli/Experimental_stims/faces/aiony-haust-jmATI5Q_YgY-unsplash.jpg,Stimuli/Experimental_stims/outdoor_scenes/henry-be-NLF6hTe4PAg-unsplash.jpg,0,0,237,1,chosen,3,12,outdoor_scenes,faces,1600,0,3,1
273,25736,0,274,4,4,0,no_gain2,gain5,F,J,27,46,body_parts,objects,68,79,Stimuli/Experimental_stims/body_parts/heike-mintel-i_Gns0ELnLw-unsplash.jpg,Stimuli/Experimental_stims/objects/mockup-graphics-PNsj6RiHAF4-unsplash.jpg,0,1,354,0,chosen,27,46,body_parts,objects,1000,0,3,1
274,25736,0,275,4,4,1,gain1,no_gain5,H,K,21,40,faces,objects,74,75,Stimuli/Experimental_stims/faces/leilani-angel-K84vnnzxmTQ-unsplash.jpg,Stimuli/Experimental_stims/objects/fabian-blank-pElSkGRA2NU-unsplash.jpg,0,0,44,0,chosen,40,21,objects,faces,1700,0,3,1
275,25736,0,276,4,4,1,gain4,no_gain4,I,G,5,36,outdoor_scenes,objects,72,75,Stimuli/Experimental_stims/outdoor_scenes/jeff-king-bJHWJeiHfHc-unsplash.jpg,Stimuli/Experimental_stims/objects/alexander-andrews-JYGnB9gTCls-unsplash.jpg,0,0,61,0,unchosen,36,5,objects,outdoor_scenes,1200,0,3,1
276,25736,0,277,4,4,1,gain3,no_gain5,E,K,43,25,objects,body_parts,71,75,Stimuli/Experimental_stims/objects/jonathan-greenaway-Y4hGgeiFn3s-unsplash.jpg,Stimuli/Experimental_stims/body_parts/engin-akyurt-Q2rfH3GW39c-unsplash.jpg,0,1,173,1,unchosen,43,25,objects,body_parts,2200,0,3,1
277,25736,0,278,4,4,0,no_gain5,gain6,K,C,25,31,body_parts,body_parts,75,70,Stimuli/Experimental_stims/body_parts/engin-akyurt-Q2rfH3GW39c-unsplash.jpg,Stimuli/Experimental_stims/body_parts/sincerely-media-VN6DbKajo5s-unsplash.jpg,0,1,42,0,unchosen,25,31,body_parts,body_parts,2000,0,3,1
278,25736,0,279,4,4,1,gain3,no_gain4,E,G,28,7,body_parts,outdoor_scenes,77,75,Stimuli/Experimental_stims/body_parts/ira-vishnevskaya-8DQAvdCby1I-unsplash.jpg,Stimuli/Experimental_stims/outdoor_scenes/petr-vysohlid-9fqwGqGLUxc-unsplash.jpg,0,1,24,1,chosen,28,7,body_parts,outdoor_scenes,3100,1,3,1
279,25736,0,280,4,4,1,gain5,no_gain5,J,K,23,25,faces,body_parts,75,75,Stimuli/Experimental_stims/faces/rikonavt-HQjfrvdTfak-unsplash.jpg,Stimuli/Experimental_stims/body_parts/engin-akyurt-Q2rfH3GW39c-unsplash.jpg,0,1,69,1,unchosen,23,25,faces,body_parts,2400,0,3,1
280,25736,0,281,4,4,1,gain4,no_gain1,I,B,35,0,body_parts,outdoor_scenes,68,74,Stimuli/Experimental_stims/body_parts/wc-so-KH4AAPjb-tI-unsplash.jpg,Stimuli/Experimental_stims/outdoor_scenes/aleksandra-boguslawska-MS7KD9Ti7FQ-unsplash.jpg,0,1,37,1,chosen,35,0,body_parts,outdoor_scenes,1000,0,3,1
281,25736,0,282,4,4,0,no_gain1,gain5,B,J,0,46,outdoor_scenes,objects,74,79,Stimuli/Experimental_stims/outdoor_scenes/aleksandra-boguslawska-MS7KD9Ti7FQ-unsplash.jpg,Stimuli/Experimental_stims/objects/mockup-graphics-PNsj6RiHAF4-unsplash.jpg,0,0,117,1,chosen,46,0,objects,outdoor_scenes,1900,0,3,1
282,25736,0,283,4,4,0,no_gain4,gain5,G,J,36,23,objects,faces,75,75,Stimuli/Experimental_stims/objects/alexander-andrews-JYGnB9gTCls-unsplash.jpg,Stimuli/Experimental_stims/faces/rikonavt-HQjfrvdTfak-unsplash.jpg,0,1,34,0,unchosen,36,23,objects,faces,2400,0,3,1
283,25736,0,284,4,4,1,gain2,no_gain2,A,F,3,27,outdoor_scenes,body_parts,74,68,Stimuli/Experimental_stims/outdoor_scenes/henry-be-NLF6hTe4PAg-unsplash.jpg,Stimuli/Experimental_stims/body_parts/heike-mintel-i_Gns0ELnLw-unsplash.jpg,0,0,114,0,chosen,27,3,body_parts,outdoor_scenes,1300,0,3,1
284,25736,0,285,4,4,0,no_gain4,gain5,G,J,7,46,outdoor_scenes,objects,75,79,Stimuli/Experimental_stims/outdoor_scenes/petr-vysohlid-9fqwGqGLUxc-unsplash.jpg,Stimuli/Experimental_stims/objects/mockup-graphics-PNsj6RiHAF4-unsplash.jpg,0,1,62,0,chosen,7,46,outdoor_scenes,objects,1600,0,3,1
285,25736,0,286,4,4,1,gain6,no_gain6,C,L,31,29,body_parts,body_parts,70,67,Stimuli/Experimental_stims/body_parts/sincerely-media-VN6DbKajo5s-unsplash.jpg,Stimuli/Experimental_stims/body_parts/manuel-schinner-ZwjFuJ7ebpk-unsplash.jpg,0,0,182,0,unchosen,29,31,body_parts,body_parts,1000,0,3,1
286,25736,0,287,4,4,0,no_gain6,gain4,L,I,12,35,faces,body_parts,83,68,Stimuli/Experimental_stims/faces/aiony-haust-jmATI5Q_YgY-unsplash.jpg,Stimuli/Experimental_stims/body_parts/wc-so-KH4AAPjb-tI-unsplash.jpg,0,0,27,1,chosen,35,12,body_parts,faces,1500,0,3,1
287,25736,0,288,4,4,1,gain5,no_gain1,J,B,23,17,faces,faces,75,82,Stimuli/Experimental_stims/faces/rikonavt-HQjfrvdTfak-unsplash.jpg,Stimuli/Experimental_stims/faces/good-faces-xmSWVeGEnJw-unsplash.jpg,0,0,54,0,unchosen,17,23,faces,faces,1900,0,3,1
288,25736,0,289,4,4,1,gain3,no_gain2,E,F,28,27,body_parts,body_parts,77,68,Stimuli/Experimental_stims/body_parts/ira-vishnevskaya-8DQAvdCby1I-unsplash.jpg,Stimuli/Experimental_stims/body_parts/heike-mintel-i_Gns0ELnLw-unsplash.jpg,0,1,53,1,chosen,28,27,body_parts,body_parts,1600,0,3,1
289,25736,0,290,4,4,1,gain3,no_gain6,E,L,43,29,objects,body_parts,71,67,Stimuli/Experimental_stims/objects/jonathan-greenaway-Y4hGgeiFn3s-unsplash.jpg,Stimuli/Experimental_stims/body_parts/manuel-schinner-ZwjFuJ7ebpk-unsplash.jpg,0,1,44,1,unchosen,43,29,objects,body_parts,1200,0,3,1
290,25736,0,291,4,4,1,gain2,no_gain2,A,F,42,14,objects,faces,70,72,Stimuli/Experimental_stims/objects/jess-bailey-nOeVi8DsN8U-unsplash.jpg,Stimuli/Experimental_stims/faces/david-siglin-UuW4psOb388-unsplash.jpg,0,1,0,1,unchosen,42,14,objects,faces,1000,0,3,1
291,25736,0,292,4,4,1,gain2,no_gain6,A,L,42,29,objects,body_parts,70,67,Stimuli/Experimental_stims/objects/jess-bailey-nOeVi8DsN8U-unsplash.jpg,Stimuli/Experimental_stims/body_parts/manuel-schinner-ZwjFuJ7ebpk-unsplash.jpg,0,0,8,0,unchosen,29,42,body_parts,objects,3200,1,3,1