,PID,practice,trial,block,run,gain_left,left_item_id,right_item_id,left_pair_id,right_pair_id,left_stimulus,right_stimulus,left_category,right_category,left_rating,right_rating,left_path,right_path,no_response,left_chosen,rt,higher_outcome_chosen,choice_type,chosen_stimulus,unchosen_stimulus,chosen_category,unchosen_category,iti,long_iti,simulation,version
0,15966,1,1,0,0,0,,,,,,,,,,,Stimuli/Practice_stims/Final_decisions/debby-hudson-FmCSSSGge-0-unsplash.jpg,Stimuli/Practice_stims/Final_decisions/yassine-khalfalli-adsQ9d_Cx0c-unsplash.jpg,0,1,1392,0,,,,,,3000,0,9,3
1,15966,1,2,0,0,0,,,,,,,,,,,Stimuli/Practice_stims/Final_decisions/florian-wehde-iVW7mZPwd4g-unsplash.jpg,Stimuli/Practice_stims/Final_decisions/patrick-perkins-3wylDrjxH-E-unsplash.jpg,0,1,578,0,,,,,,1500,0,9,3
2,15966,1,3,0,0,0,,,,,,,,,,,Stimuli/Practice_stims/Final_decisions/debby-hudson-FmCSSSGge-0-unsplash.jpg,Stimuli/Practice_stims/Final_decisions/florian-wehde-iVW7mZPwd4g-unsplash.jpg,0,0,581,1,,,,,,2000,0,9,3
3,15966,1,4,0,0,0,,,,,,,,,,,Stimuli/Practice_stims/Final_decisions/yassine-khalfalli-adsQ9d_Cx0c-unsplash.jpg,Stimuli/Practice_stims/Final_decisions/debby-hudson-FmCSSSGge-0-unsplash.jpg,0,0,694,1,,,,,,1000,0,9,3
4,15966,0,5,1,1,1,gain5,no_gain5,A,B,43,19,objects,faces,36,61,Stimuli/Experimental_stims/objects/jonathan-greenaway-Y4hGgeiFn3s-unsplash.jpg,Stimuli/Experimental_stims/faces/joel-mott-LaK153ghdig-unsplash.jpg,0,0,692,0,unchosen,19,43,faces,objects,4700,1,9,3
5,15966,0,6,1,1,1,gain3,no_gain2,E,I,39,8,objects,outdoor_scenes,59,72,Stimuli/Experimental_stims/objects/charlesdeluvio-1-nx1QR5dTE-unsplash.jpg,Stimuli/Experimental_stims/outdoor_scenes/samsommer-vddccTqwal8-unsplash.jpg,0,0,848,0,unchosen,8,39,outdoor_scenes,objects,2300,0,9,3
6,15966,0,7,1,1,1,gain1,no_gain2,D,I,12,8,faces,outdoor_scenes,46,72,Stimuli/Experimental_stims/faces/aiony-haust-jmATI5Q_YgY-unsplash.jpg,Stimuli/Experimental_stims/outdoor_scenes/samsommer-vddccTqwal8-unsplash.jpg,0,0,778,0,unchosen,8,12,outdoor_scenes,faces,1100,0,9,3
7,15966,0,8,1,1,0,no_gain4,gain5,H,A,23,3,faces,outdoor_scenes,81,45,Stimuli/Experimental_stims/faces/rikonavt-HQjfrvdTfak-unsplash.jpg,Stimuli/Experimental_stims/outdoor_scenes/henry-be-NLF6hTe4PAg-unsplash.jpg,0,0,942,1,chosen,3,23,outdoor_scenes,faces,1600,0,9,3
8,15966,0,9,1,1,0,no_gain5,gain1,B,D,19,12,faces,faces,61,46,Stimuli/Experimental_stims/faces/joel-mott-LaK153ghdig-unsplash.jpg,Stimuli/Experimental_stims/faces/aiony-haust-jmATI5Q_YgY-unsplash.jpg,0,1,802,0,unchosen,19,12,faces,faces,2300,0,9,3
9,15966,0,10,1,1,0,no_gain4,gain1,H,D,23,45,faces,objects,81,32,Stimuli/Experimental_stims/faces/rikonavt-HQjfrvdTfak-unsplash.jpg,Stimuli/Experimental_stims/objects/leohoho-rngTKHXumy0-unsplash.jpg,0,1,748,0,chosen,23,45,faces,objects,1500,0,9,3
10,15966,0,11,1,1,1,gain1,no_gain3,D,L,45,33,objects,body_parts,32,61,Stimuli/Experimental_stims/objects/leohoho-rngTKHXumy0-unsplash.jpg,Stimuli/Experimental_stims/body_parts/tucker-good-36skLT5jZcc-unsplash.jpg,0,1,685,1,chosen,45,33,objects,body_parts,1500,0,9,3
11,15966,0,12,1,1,0,no_gain1,gain1,G,D,11,45,outdoor_scenes,objects,79,32,Stimuli/Experimental_stims/outdoor_scenes/stephen-leonardi-gyIRjKPXupE-unsplash.jpg,Stimuli/Experimental_stims/objects/leohoho-rngTKHXumy0-unsplash.jpg,0,0,605,1,chosen,45,11,objects,outdoor_scenes,1200,0,9,3
12,15966,0,13,1,1,1,gain6,no_gain1,F,G,34,47,body_parts,objects,48,60,Stimuli/Experimental_stims/body_parts/wagner-santos-mBWMvIuVnso-unsplash.jpg,Stimuli/Experimental_stims/objects/ronaldo-arthur-vidal-Cdz_lvnl37k-unsplash.jpg,0,0,1044,0,unchosen,47,34,objects,body_parts,1300,0,9,3
13,15966,0,14,1,1,0,no_gain1,gain4,G,K,11,28,outdoor_scenes,body_parts,79,73,Stimuli/Experimental_stims/outdoor_scenes/stephen-leonardi-gyIRjKPXupE-unsplash.jpg,Stimuli/Experimental_stims/body_parts/ira-vishnevskaya-8DQAvdCby1I-unsplash.jpg,0,0,769,1,chosen,28,11,body_parts,outdoor_scenes,1200,0,9,3
14,15966,0,15,1,1,1,gain6,no_gain4,F,H,34,9,body_parts,outdoor_scenes,48,82,Stimuli/Experimental_stims/body_parts/wagner-santos-mBWMvIuVnso-unsplash.jpg,Stimuli/Experimental_stims/outdoor_scenes/sergey-pesterev-y-b_FOmJXdg-unsplash.jpg,0,0,973,0,unchosen,9,34,outdoor_scenes,body_parts,4100,1,9,3
15,15966,0,16,1,1,1,gain4,no_gain4,K,H,38,9,objects,outdoor_scenes,67,82,Stimuli/Experimental_stims/objects/art-lasovsky-8XddFc6NkBY-unsplash.jpg,Stimuli/Experimental_stims/outdoor_scenes/sergey-pesterev-y-b_FOmJXdg-unsplash.jpg,0,0,798,0,unchosen,9,38,outdoor_scenes,objects,1200,0,9,3
16,15966,0,17,1,1,1,gain5,no_gain6,A,J,3,44,outdoor_scenes,objects,45,46,Stimuli/Experimental_stims/outdoor_scenes/henry-be-NLF6hTe4PAg-unsplash.jpg,Stimuli/Experimental_stims/objects/kuiye-chen-NuOGFo4PudE-unsplash.jpg,0,1,820,1,chosen,3,44,outdoor_scenes,objects,1200,0,9,3
17,15966,0,18,1,1,0,no_gain3,gain3,L,E,16,39,faces,objects,59,59,Stimuli/Experimental_stims/faces/freddy-kearney-o-ioeoATbIM-unsplash.jpg,Stimuli/Experimental_stims/objects/charlesdeluvio-1-nx1QR5dTE-unsplash.jpg,0,1,1065,0,unchosen,16,39,faces,objects,1600,0,9,3
18,15966,0,19,1,1,0,no_gain4,gain3,H,E,23,30,faces,body_parts,81,62,Stimuli/Experimental_stims/faces/rikonavt-HQjfrvdTfak-unsplash.jpg,Stimuli/Experimental_stims/body_parts/mika-korhonen-Xodzxosar18-unsplash.jpg,0,0,775,1,chosen,30,23,body_parts,faces,1400,0,9,3
19,15966,0,20,1,1,0,no_gain2,gain2,I,C,8,32,outdoor_scenes,body_parts,72,46,Stimuli/Experimental_stims/outdoor_scenes/samsommer-vddccTqwal8-unsplash.jpg,Stimuli/Experimental_stims/body_parts/towfiqu-barbhuiya-3AsiVDsZnHg-unsplash.jpg,0,0,533,1,unchosen,32,8,body_parts,outdoor_scenes,4300,1,9,3
20,15966,0,21,1,1,1,gain2,no_gain4,C,H,4,23,outdoor_scenes,faces,76,81,Stimuli/Experimental_stims/outdoor_scenes/jarrett-kow-1ZOyYPOBn7I-unsplash.jpg,Stimuli/Experimental_stims/faces/rikonavt-HQjfrvdTfak-unsplash.jpg,0,1,664,1,chosen,4,23,outdoor_scenes,faces,1500,0,9,3
21,15966,0,22,1,1,1,gain2,no_gain5,C,B,4,0,outdoor_scenes,outdoor_scenes,76,57,Stimuli/Experimental_stims/outdoor_scenes/jarrett-kow-1ZOyYPOBn7I-unsplash.jpg,Stimuli/Experimental_stims/outdoor_scenes/aleksandra-boguslawska-MS7KD9Ti7FQ-unsplash.jpg,0,1,517,1,chosen,4,0,outdoor_scenes,outdoor_scenes,1400,0,9,3
22,15966,0,23,1,1,1,gain4,no_gain2,K,I,38,8,objects,outdoor_scenes,67,72,Stimuli/Experimental_stims/objects/art-lasovsky-8XddFc6NkBY-unsplash.jpg,Stimuli/Experimental_stims/outdoor_scenes/samsommer-vddccTqwal8-unsplash.jpg,0,0,956,0,unchosen,8,38,outdoor_scenes,objects,1300,0,9,3
23,15966,0,24,1,1,1,gain2,no_gain6,C,J,32,20,body_parts,faces,46,50,Stimuli/Experimental_stims/body_parts/towfiqu-barbhuiya-3AsiVDsZnHg-unsplash.jpg,Stimuli/Experimental_stims/faces/justin-chen-J7Cf1Gch49E-unsplash.jpg,0,1,963,1,unchosen,32,20,body_parts,faces,1000,0,9,3
24,15966,0,25,1,1,0,no_gain1,gain5,G,A,11,3,outdoor_scenes,outdoor_scenes,79,45,Stimuli/Experimental_stims/outdoor_scenes/stephen-leonardi-gyIRjKPXupE-unsplash.jpg,Stimuli/Experimental_stims/outdoor_scenes/henry-be-NLF6hTe4PAg-unsplash.jpg,0,0,1040,1,chosen,3,11,outdoor_scenes,outdoor_scenes,3100,1,9,3
25,15966,0,26,1,1,1,gain2,no_gain1,C,G,4,11,outdoor_scenes,outdoor_scenes,76,79,Stimuli/Experimental_stims/outdoor_scenes/jarrett-kow-1ZOyYPOBn7I-unsplash.jpg,Stimuli/Experimental_stims/outdoor_scenes/stephen-leonardi-gyIRjKPXupE-unsplash.jpg,0,1,785,1,chosen,4,11,outdoor_scenes,outdoor_scenes,2700,0,9,3
26,15966,0,27,1,1,1,gain2,no_gain2,C,I,4,29,outdoor_scenes,body_parts,76,58,Stimuli/Experimental_stims/outdoor_scenes/jarrett-kow-1ZOyYPOBn7I-unsplash.jpg,Stimuli/Experimental_stims/body_parts/manuel-schinner-ZwjFuJ7ebpk-unsplash.jpg,0,1,530,1,chosen,4,29,outdoor_scenes,body_parts,1400,0,9,3
27,15966,0,28,1,1,1,gain4,no_gain3,K,L,38,16,objects,faces,67,59,Stimuli/Experimental_stims/objects/art-lasovsky-8XddFc6NkBY-unsplash.jpg,Stimuli/Experimental_stims/faces/freddy-kearney-o-ioeoATbIM-unsplash.jpg,0,0,735,0,unchosen,16,38,faces,objects,1100,0,9,3
28,15966,0,29,1,1,0,no_gain1,gain3,G,E,47,39,objects,objects,60,59,Stimuli/Experimental_stims/objects/ronaldo-arthur-vidal-Cdz_lvnl37k-unsplash.jpg,Stimuli/Experimental_stims/objects/charlesdeluvio-1-nx1QR5dTE-unsplash.jpg,0,1,884,0,unchosen,47,39,objects,objects,1900,0,9,3
29,15966,0,30,1,1,1,gain6,no_gain4,F,H,22,23,faces,faces,50,81,Stimuli/Experimental_stims/faces/ravi-patel-VMGAbeeJTKo-unsplash.jpg,Stimuli/Experimental_stims/faces/rikonavt-HQjfrvdTfak-unsplash.jpg,0,1,1129,1,chosen,22,23,faces,faces,1200,0,9,3
30,15966,0,31,1,1,1,gain5,no_gain3,A,L,3,33,outdoor_scenes,body_parts,45,61,Stimuli/Experimental_stims/outdoor_scenes/henry-be-NLF6hTe4PAg-unsplash.jpg,Stimuli/Experimental_stims/body_parts/tucker-good-36skLT5jZcc-unsplash.jpg,0,1,1225,1,chosen,3,33,outdoor_scenes,body_parts,2300,0,9,3
31,15966,0,32,1,1,0,no_gain3,gain5,L,A,16,43,faces,objects,59,36,Stimuli/Experimental_stims/faces/freddy-kearney-o-ioeoATbIM-unsplash.jpg,Stimuli/Experimental_stims/objects/jonathan-greenaway-Y4hGgeiFn3s-unsplash.jpg,0,1,815,0,unchosen,16,43,faces,objects,2000,0,9,3
32,15966,0,33,1,1,1,gain6,no_gain6,F,J,22,44,faces,objects,50,46,Stimuli/Experimental_stims/faces/ravi-patel-VMGAbeeJTKo-unsplash.jpg,Stimuli/Experimental_stims/objects/kuiye-chen-NuOGFo4PudE-unsplash.jpg,0,1,920,1,chosen,22,44,faces,objects,2000,0,9,3
33,15966,0,34,1,1,0,no_gain6,gain6,J,F,20,34,faces,body_parts,50,48,Stimuli/Experimental_stims/faces/justin-chen-J7Cf1Gch49E-unsplash.jpg,Stimuli/Experimental_stims/body_parts/wagner-santos-mBWMvIuVnso-unsplash.jpg,0,1,1106,0,unchosen,20,34,faces,body_parts,1300,0,9,3
34,15966,0,35,1,1,0,no_gain6,gain1,J,D,20,12,faces,faces,50,46,Stimuli/Experimental_stims/faces/justin-chen-J7Cf1Gch49E-unsplash.jpg,Stimuli/Experimental_stims/faces/aiony-haust-jmATI5Q_YgY-unsplash.jpg,0,1,923,0,unchosen,20,12,faces,faces,3100,1,9,3
35,15966,0,36,1,1,0,no_gain3,gain2,L,C,33,4,body_parts,outdoor_scenes,61,76,Stimuli/Experimental_stims/body_parts/tucker-good-36skLT5jZcc-unsplash.jpg,Stimuli/Experimental_stims/outdoor_scenes/jarrett-kow-1ZOyYPOBn7I-unsplash.jpg,0,0,804,1,chosen,4,33,outdoor_scenes,body_parts,2600,0,9,3
36,15966,0,37,1,1,0,no_gain6,gain4,J,K,20,38,faces,objects,50,67,Stimuli/Experimental_stims/faces/justin-chen-J7Cf1Gch49E-unsplash.jpg,Stimuli/Experimental_stims/objects/art-lasovsky-8XddFc6NkBY-unsplash.jpg,0,1,655,0,unchosen,20,38,faces,objects,1200,0,9,3
37,15966,0,38,1,1,1,gain4,no_gain5,K,B,38,19,objects,faces,67,61,Stimuli/Experimental_stims/objects/art-lasovsky-8XddFc6NkBY-unsplash.jpg,Stimuli/Experimental_stims/faces/joel-mott-LaK153ghdig-unsplash.jpg,0,0,754,0,unchosen,19,38,faces,objects,1700,0,9,3
38,15966,0,39,1,1,1,gain2,no_gain5,C,B,32,19,body_parts,faces,46,61,Stimuli/Experimental_stims/body_parts/towfiqu-barbhuiya-3AsiVDsZnHg-unsplash.jpg,Stimuli/Experimental_stims/faces/joel-mott-LaK153ghdig-unsplash.jpg,0,0,603,0,unchosen,19,32,faces,body_parts,1600,0,9,3
39,15966,0,40,1,1,0,no_gain1,gain3,G,E,11,30,outdoor_scenes,body_parts,79,62,Stimuli/Experimental_stims/outdoor_scenes/stephen-leonardi-gyIRjKPXupE-unsplash.jpg,Stimuli/Experimental_stims/body_parts/mika-korhonen-Xodzxosar18-unsplash.jpg,0,0,1117,1,chosen,30,11,body_parts,outdoor_scenes,4400,1,9,3
40,15966,0,41,1,1,1,gain1,no_gain5,D,B,45,0,objects,outdoor_scenes,32,57,Stimuli/Experimental_stims/objects/leohoho-rngTKHXumy0-unsplash.jpg,Stimuli/Experimental_stims/outdoor_scenes/aleksandra-boguslawska-MS7KD9Ti7FQ-unsplash.jpg,0,1,746,1,chosen,45,0,objects,outdoor_scenes,1600,0,9,3
41,15966,0,42,1,1,0,no_gain4,gain3,H,E,9,39,outdoor_scenes,objects,82,59,Stimuli/Experimental_stims/outdoor_scenes/sergey-pesterev-y-b_FOmJXdg-unsplash.jpg,Stimuli/Experimental_stims/objects/charlesdeluvio-1-nx1QR5dTE-unsplash.jpg,0,1,552,0,unchosen,9,39,outdoor_scenes,objects,1700,0,9,3
42,15966,0,43,1,1,1,gain6,no_gain2,F,I,22,29,faces,body_parts,50,58,Stimuli/Experimental_stims/faces/ravi-patel-VMGAbeeJTKo-unsplash.jpg,Stimuli/Experimental_stims/body_parts/manuel-schinner-ZwjFuJ7ebpk-unsplash.jpg,0,1,962,1,chosen,22,29,faces,body_parts,1900,0,9,3
43,15966,0,44,1,1,1,gain4,no_gain4,K,H,28,23,body_parts,faces,73,81,Stimuli/Experimental_stims/body_parts/ira-vishnevskaya-8DQAvdCby1I-unsplash.jpg,Stimuli/Experimental_stims/faces/rikonavt-HQjfrvdTfak-unsplash.jpg,0,1,813,1,chosen,28,23,body_parts,faces,1900,0,9,3
44,15966,0,45,1,1,0,no_gain4,gain1,H,D,9,12,outdoor_scenes,faces,82,46,Stimuli/Experimental_stims/outdoor_scenes/sergey-pesterev-y-b_FOmJXdg-unsplash.jpg,Stimuli/Experimental_stims/faces/aiony-haust-jmATI5Q_YgY-unsplash.jpg,0,1,744,0,unchosen,9,12,outdoor_scenes,faces,2000,0,9,3
45,15966,0,46,1,1,0,no_gain2,gain1,I,D,29,45,body_parts,objects,58,32,Stimuli/Experimental_stims/body_parts/manuel-schinner-ZwjFuJ7ebpk-unsplash.jpg,Stimuli/Experimental_stims/objects/leohoho-rngTKHXumy0-unsplash.jpg,0,0,810,1,chosen,45,29,objects,body_parts,2200,0,9,3
46,15966,0,47,1,1,0,no_gain5,gain5,B,A,0,3,outdoor_scenes,outdoor_scenes,57,45,Stimuli/Experimental_stims/outdoor_scenes/aleksandra-boguslawska-MS7KD9Ti7FQ-unsplash.jpg,Stimuli/Experimental_stims/outdoor_scenes/henry-be-NLF6hTe4PAg-unsplash.jpg,0,0,695,1,chosen,3,0,outdoor_scenes,outdoor_scenes,3000,0,9,3
47,15966,0,48,1,1,0,no_gain2,gain3,I,E,29,30,body_parts,body_parts,58,62,Stimuli/Experimental_stims/body_parts/manuel-schinner-ZwjFuJ7ebpk-unsplash.jpg,Stimuli/Experimental_stims/body_parts/mika-korhonen-Xodzxosar18-unsplash.jpg,0,0,912,1,chosen,30,29,body_parts,body_parts,4200,1,9,3
48,15966,0,49,1,1,0,no_gain6,gain3,J,E,20,39,faces,objects,50,59,Stimuli/Experimental_stims/faces/justin-chen-J7Cf1Gch49E-unsplash.jpg,Stimuli/Experimental_stims/objects/charlesdeluvio-1-nx1QR5dTE-unsplash.jpg,0,1,703,0,unchosen,20,39,faces,objects,2100,0,9,3
49,15966,0,50,1,1,0,no_gain5,gain4,B,K,0,28,outdoor_scenes,body_parts,57,73,Stimuli/Experimental_stims/outdoor_scenes/aleksandra-boguslawska-MS7KD9Ti7FQ-unsplash.jpg,Stimuli/Experimental_stims/body_parts/ira-vishnevskaya-8DQAvdCby1I-unsplash.jpg,0,0,772,1,chosen,28,0,body_parts,outdoor_scenes,1800,0,9,3
50,15966,0,51,1,1,1,gain3,no_gain5,E,B,30,0,body_parts,outdoor_scenes,62,57,Stimuli/Experimental_stims/body_parts/mika-korhonen-Xodzxosar18-unsplash.jpg,Stimuli/Experimental_stims/outdoor_scenes/aleksandra-boguslawska-MS7KD9Ti7FQ-unsplash.jpg,0,0,688,0,chosen,0,30,outdoor_scenes,body_parts,2400,0,9,3
51,15966,0,52,1,1,0,no_gain4,gain2,H,C,9,32,outdoor_scenes,body_parts,82,46,Stimuli/Experimental_stims/outdoor_scenes/sergey-pesterev-y-b_FOmJXdg-unsplash.jpg,Stimuli/Experimental_stims/body_parts/towfiqu-barbhuiya-3AsiVDsZnHg-unsplash.jpg,0,1,810,0,unchosen,9,32,outdoor_scenes,body_parts,1100,0,9,3
52,15966,0,53,1,1,0,no_gain2,gain5,I,A,29,3,body_parts,outdoor_scenes,58,45,Stimuli/Experimental_stims/body_parts/manuel-schinner-ZwjFuJ7ebpk-unsplash.jpg,Stimuli/Experimental_stims/outdoor_scenes/henry-be-NLF6hTe4PAg-unsplash.jpg,0,0,896,1,chosen,3,29,outdoor_scenes,body_parts,1100,0,9,3
53,15966,0,54,1,1,0,no_gain2,gain6,I,F,8,34,outdoor_scenes,body_parts,72,48,Stimuli/Experimental_stims/outdoor_scenes/samsommer-vddccTqwal8-unsplash.jpg,Stimuli/Experimental_stims/body_parts/wagner-santos-mBWMvIuVnso-unsplash.jpg,0,1,798,0,unchosen,8,34,outdoor_scenes,body_parts,1100,0,9,3
54,15966,0,55,1,1,1,gain6,no_gain3,F,L,22,33,faces,body_parts,50,61,Stimuli/Experimental_stims/faces/ravi-patel-VMGAbeeJTKo-unsplash.jpg,Stimuli/Experimental_stims/body_parts/tucker-good-36skLT5jZcc-unsplash.jpg,0,1,1211,1,chosen,22,33,faces,body_parts,3900,1,9,3
55,15966,0,56,1,1,0,no_gain1,gain5,G,A,47,43,objects,objects,60,36,Stimuli/Experimental_stims/objects/ronaldo-arthur-vidal-Cdz_lvnl37k-unsplash.jpg,Stimuli/Experimental_stims/objects/jonathan-greenaway-Y4hGgeiFn3s-unsplash.jpg,0,1,882,0,unchosen,47,43,objects,objects,2100,0,9,3
56,15966,0,57,1,1,1,gain5,no_gain4,A,H,43,9,objects,outdoor_scenes,36,82,Stimuli/Experimental_stims/objects/jonathan-greenaway-Y4hGgeiFn3s-unsplash.jpg,Stimuli/Experimental_stims/outdoor_scenes/sergey-pesterev-y-b_FOmJXdg-unsplash.jpg,0,0,833,0,unchosen,9,43,outdoor_scenes,objects,1000,0,9,3
57,15966,0,58,1,1,0,no_gain1,gain4,G,K,47,38,objects,objects,60,67,Stimuli/Experimental_stims/objects/ronaldo-arthur-vidal-Cdz_lvnl37k-unsplash.jpg,Stimuli/Experimental_stims/objects/art-lasovsky-8XddFc6NkBY-unsplash.jpg,0,1,790,0,unchosen,47,38,objects,objects,1200,0,9,3
58,15966,0,59,1,1,1,gain3,no_gain6,E,J,30,44,body_parts,objects,62,46,Stimuli/Experimental_stims/body_parts/mika-korhonen-Xodzxosar18-unsplash.jpg,Stimuli/Experimental_stims/objects/kuiye-chen-NuOGFo4PudE-unsplash.jpg,0,1,911,1,chosen,30,44,body_parts,objects,1300,0,9,3
59,15966,0,60,1,1,1,gain4,no_gain6,K,J,28,44,body_parts,objects,73,46,Stimuli/Experimental_stims/body_parts/ira-vishnevskaya-8DQAvdCby1I-unsplash.jpg,Stimuli/Experimental_stims/objects/kuiye-chen-NuOGFo4PudE-unsplash.jpg,0,1,695,1,chosen,28,44,body_parts,objects,1300,0,9,3
60,15966,0,61,1,1,1,gain2,no_gain1,C,G,32,47,body_parts,objects,46,60,Stimuli/Experimental_stims/body_parts/towfiqu-barbhuiya-3AsiVDsZnHg-unsplash.jpg,Stimuli/Experimental_stims/objects/ronaldo-arthur-vidal-Cdz_lvnl37k-unsplash.jpg,0,1,1056,1,unchosen,32,47,body_parts,objects,3300,1,9,3
61,15966,0,62,1,1,1,gain2,no_gain3,C,L,32,16,body_parts,faces,46,59,Stimuli/Experimental_stims/body_parts/towfiqu-barbhuiya-3AsiVDsZnHg-unsplash.jpg,Stimuli/Experimental_stims/faces/freddy-kearney-o-ioeoATbIM-unsplash.jpg,0,0,854,0,unchosen,16,32,faces,body_parts,1100,0,9,3
62,15966,0,63,1,1,0,no_gain5,gain6,B,F,0,22,outdoor_scenes,faces,57,50,Stimuli/Experimental_stims/outdoor_scenes/aleksandra-boguslawska-MS7KD9Ti7FQ-unsplash.jpg,Stimuli/Experimental_stims/faces/ravi-patel-VMGAbeeJTKo-unsplash.jpg,0,0,1121,1,chosen,22,0,faces,outdoor_scenes,1400,0,9,3
63,15966,0,64,1,1,0,no_gain2,gain4,I,K,29,28,body_parts,body_parts,58,73,Stimuli/Experimental_stims/body_parts/manuel-schinner-ZwjFuJ7ebpk-unsplash.jpg,Stimuli/Experimental_stims/body_parts/ira-vishnevskaya-8DQAvdCby1I-unsplash.jpg,0,0,954,1,chosen,28,29,body_parts,body_parts,1400,0,9,3
64,15966,0,65,1,1,0,no_gain3,gain3,L,E,33,30,body_parts,body_parts,61,62,Stimuli/Experimental_stims/body_parts/tucker-good-36skLT5jZcc-unsplash.jpg,Stimuli/Experimental_stims/body_parts/mika-korhonen-Xodzxosar18-unsplash.jpg,0,0,842,1,chosen,30,33,body_parts,body_parts,2700,0,9,3
65,15966,0,66,1,1,0,no_gain6,gain5,J,A,20,43,faces,objects,50,36,Stimuli/Experimental_stims/faces/justin-chen-J7Cf1Gch49E-unsplash.jpg,Stimuli/Experimental_stims/objects/jonathan-greenaway-Y4hGgeiFn3s-unsplash.jpg,0,1,939,0,unchosen,20,43,faces,objects,1500,0,9,3
66,15966,0,67,1,1,1,gain3,no_gain5,E,B,39,19,objects,faces,59,61,Stimuli/Experimental_stims/objects/charlesdeluvio-1-nx1QR5dTE-unsplash.jpg,Stimuli/Experimental_stims/faces/joel-mott-LaK153ghdig-unsplash.jpg,0,0,1007,0,unchosen,19,39,faces,objects,3700,1,9,3
67,15966,0,68,1,1,0,no_gain1,gain1,G,D,47,12,objects,faces,60,46,Stimuli/Experimental_stims/objects/ronaldo-arthur-vidal-Cdz_lvnl37k-unsplash.jpg,Stimuli/Experimental_stims/faces/aiony-haust-jmATI5Q_YgY-unsplash.jpg,0,0,1178,1,unchosen,12,47,faces,objects,2600,0,9,3
68,15966,0,69,1,1,1,gain4,no_gain3,K,L,28,33,body_parts,body_parts,73,61,Stimuli/Experimental_stims/body_parts/ira-vishnevskaya-8DQAvdCby1I-unsplash.jpg,Stimuli/Experimental_stims/body_parts/tucker-good-36skLT5jZcc-unsplash.jpg,0,1,863,1,chosen,28,33,body_parts,body_parts,1600,0,9,3
69,15966,0,70,1,1,1,gain6,no_gain3,F,L,34,16,body_parts,faces,48,59,Stimuli/Experimental_stims/body_parts/wagner-santos-mBWMvIuVnso-unsplash.jpg,Stimuli/Experimental_stims/faces/freddy-kearney-o-ioeoATbIM-unsplash.jpg,0,0,985,0,unchosen,16,34,faces,body_parts,1100,0,9,3
70,15966,0,71,1,1,0,no_gain6,gain2,J,C,44,4,objects,outdoor_scenes,46,76,Stimuli/Experimental_stims/objects/kuiye-chen-NuOGFo4PudE-unsplash.jpg,Stimuli/Experimental_stims/outdoor_scenes/jarrett-kow-1ZOyYPOBn7I-unsplash.jpg,0,0,694,1,chosen,4,44,outdoor_scenes,objects,1600,0,9,3
71,15966,0,72,1,1,0,no_gain6,gain1,J,D,44,45,objects,objects,46,32,Stimuli/Experimental_stims/objects/kuiye-chen-NuOGFo4PudE-unsplash.jpg,Stimuli/Experimental_stims/objects/leohoho-rngTKHXumy0-unsplash.jpg,0,0,780,1,chosen,45,44,objects,objects,4400,1,9,3
72,15966,0,73,1,1,1,gain6,no_gain1,F,G,22,11,faces,outdoor_scenes,50,79,Stimuli/Experimental_stims/faces/ravi-patel-VMGAbeeJTKo-unsplash.jpg,Stimuli/Experimental_stims/outdoor_scenes/stephen-leonardi-gyIRjKPXupE-unsplash.jpg,0,1,929,1,chosen,22,11,faces,outdoor_scenes,1100,0,9,3
73,15966,0,74,1,1,0,no_gain5,gain6,B,F,19,34,faces,body_parts,61,48,Stimuli/Experimental_stims/faces/joel-mott-LaK153ghdig-unsplash.jpg,Stimuli/Experimental_stims/body_parts/wagner-santos-mBWMvIuVnso-unsplash.jpg,0,1,895,0,unchosen,19,34,faces,body_parts,1700,0,9,3
74,15966,0,75,1,1,1,gain5,no_gain2,A,I,43,8,objects,outdoor_scenes,36,72,Stimuli/Experimental_stims/objects/jonathan-greenaway-Y4hGgeiFn3s-unsplash.jpg,Stimuli/Experimental_stims/outdoor_scenes/samsommer-vddccTqwal8-unsplash.jpg,0,0,993,0,unchosen,8,43,outdoor_scenes,objects,2500,0,9,3
75,15966,0,76,1,1,1,gain1,no_gain3,D,L,12,16,faces,faces,46,59,Stimuli/Experimental_stims/faces/aiony-haust-jmATI5Q_YgY-unsplash.jpg,Stimuli/Experimental_stims/faces/freddy-kearney-o-ioeoATbIM-unsplash.jpg,0,0,771,0,unchosen,16,12,faces,faces,2100,0,9,3
76,15966,0,77,2,2,0,no_gain2,gain4,I,K,8,38,outdoor_scenes,objects,72,67,Stimuli/Experimental_stims/outdoor_scenes/samsommer-vddccTqwal8-unsplash.jpg,Stimuli/Experimental_stims/objects/art-lasovsky-8XddFc6NkBY-unsplash.jpg,0,1,1165,0,unchosen,8,38,outdoor_scenes,objects,3800,1,9,3
77,15966,0,78,2,2,0,no_gain6,gain5,J,A,44,3,objects,outdoor_scenes,46,45,Stimuli/Experimental_stims/objects/kuiye-chen-NuOGFo4PudE-unsplash.jpg,Stimuli/Experimental_stims/outdoor_scenes/henry-be-NLF6hTe4PAg-unsplash.jpg,0,0,781,1,chosen,3,44,outdoor_scenes,objects,1200,0,9,3
78,15966,0,79,2,2,0,no_gain5,gain5,B,A,0,3,outdoor_scenes,outdoor_scenes,57,45,Stimuli/Experimental_stims/outdoor_scenes/aleksandra-boguslawska-MS7KD9Ti7FQ-unsplash.jpg,Stimuli/Experimental_stims/outdoor_scenes/henry-be-NLF6hTe4PAg-unsplash.jpg,0,0,662,1,chosen,3,0,outdoor_scenes,outdoor_scenes,1200,0,9,3
79,15966,0,80,2,2,0,no_gain6,gain3,J,E,20,39,faces,objects,50,59,Stimuli/Experimental_stims/faces/justin-chen-J7Cf1Gch49E-unsplash.jpg,Stimuli/Experimental_stims/objects/charlesdeluvio-1-nx1QR5dTE-unsplash.jpg,0,1,664,0,unchosen,20,39,faces,objects,2700,0,9,3
80,15966,0,81,2,2,0,no_gain2,gain6,I,F,29,22,body_parts,faces,58,50,Stimuli/Experimental_stims/body_parts/manuel-schinner-ZwjFuJ7ebpk-unsplash.jpg,Stimuli/Experimental_stims/faces/ravi-patel-VMGAbeeJTKo-unsplash.jpg,0,0,804,1,chosen,22,29,faces,body_parts,2900,0,9,3
81,15966,0,82,2,2,1,gain6,no_gain4,F,H,34,9,body_parts,outdoor_scenes,48,82,Stimuli/Experimental_stims/body_parts/wagner-santos-mBWMvIuVnso-unsplash.jpg,Stimuli/Experimental_stims/outdoor_scenes/sergey-pesterev-y-b_FOmJXdg-unsplash.jpg,0,0,846,0,unchosen,9,34,outdoor_scenes,body_parts,1400,0,9,3
82,15966,0,83,2,2,1,gain2,no_gain1,C,G,4,11,outdoor_scenes,outdoor_scenes,76,79,Stimuli/Experimental_stims/outdoor_scenes/jarrett-kow-1ZOyYPOBn7I-unsplash.jpg,Stimuli/Experimental_stims/outdoor_scenes/stephen-leonardi-gyIRjKPXupE-unsplash.jpg,0,1,1455,1,chosen,4,11,outdoor_scenes,outdoor_scenes,1100,0,9,3
83,15966,0,84,2,2,0,no_gain5,gain3,B,E,0,30,outdoor_scenes,body_parts,57,62,Stimuli/Experimental_stims/outdoor_scenes/aleksandra-boguslawska-MS7KD9Ti7FQ-unsplash.jpg,Stimuli/Experimental_stims/body_parts/mika-korhonen-Xodzxosar18-unsplash.jpg,1,NaN,,NaN,chosen,NaN,NaN,NaN,NaN,2400,0,9,3
84,15966,0,85,2,2,1,gain6,no_gain3,F,L,34,16,body_parts,faces,48,59,Stimuli/Experimental_stims/body_parts/wagner-santos-mBWMvIuVnso-unsplash.jpg,Stimuli/Experimental_stims/faces/freddy-kearney-o-ioeoATbIM-unsplash.jpg,0,0,671,0,unchosen,16,34,faces,body_parts,2400,0,9,3
85,15966,0,86,2,2,1,gain5,no_gain1,A,G,3,11,outdoor_scenes,outdoor_scenes,45,79,Stimuli/Experimental_stims/outdoor_scenes/henry-be-NLF6hTe4PAg-unsplash.jpg,Stimuli/Experimental_stims/outdoor_scenes/stephen-leonardi-gyIRjKPXupE-unsplash.jpg,0,1,732,1,chosen,3,11,outdoor_scenes,outdoor_scenes,1400,0,9,3
86,15966,0,87,2,2,0,no_gain3,gain1,L,D,33,45,body_parts,objects,61,32,Stimuli/Experimental_stims/body_parts/tucker-good-36skLT5jZcc-unsplash.jpg,Stimuli/Experimental_stims/objects/leohoho-rngTKHXumy0-unsplash.jpg,0,0,1264,1,chosen,45,33,objects,body_parts,3000,1,9,3
87,15966,0,88,2,2,0,no_gain5,gain1,B,D,19,12,faces,faces,61,46,Stimuli/Experimental_stims/faces/joel-mott-LaK153ghdig-unsplash.jpg,Stimuli/Experimental_stims/faces/aiony-haust-jmATI5Q_YgY-unsplash.jpg,0,1,933,0,unchosen,19,12,faces,faces,1000,0,9,3
88,15966,0,89,2,2,0,no_gain5,gain4,B,K,19,38,faces,objects,61,67,Stimuli/Experimental_stims/faces/joel-mott-LaK153ghdig-unsplash.jpg,Stimuli/Experimental_stims/objects/art-lasovsky-8XddFc6NkBY-unsplash.jpg,0,1,817,0,unchosen,19,38,faces,objects,1100,0,9,3
89,15966,0,90,2,2,0,no_gain3,gain2,L,C,16,32,faces,body_parts,59,46,Stimuli/Experimental_stims/faces/freddy-kearney-o-ioeoATbIM-unsplash.jpg,Stimuli/Experimental_stims/body_parts/towfiqu-barbhuiya-3AsiVDsZnHg-unsplash.jpg,0,1,1385,0,unchosen,16,32,faces,body_parts,2200,0,9,3
90,15966,0,91,2,2,1,gain1,no_gain6,D,J,45,44,objects,objects,32,46,Stimuli/Experimental_stims/objects/leohoho-rngTKHXumy0-unsplash.jpg,Stimuli/Experimental_stims/objects/kuiye-chen-NuOGFo4PudE-unsplash.jpg,0,1,590,1,chosen,45,44,objects,objects,1600,0,9,3
91,15966,0,92,2,2,1,gain2,no_gain6,C,J,32,20,body_parts,faces,46,50,Stimuli/Experimental_stims/body_parts/towfiqu-barbhuiya-3AsiVDsZnHg-unsplash.jpg,Stimuli/Experimental_stims/faces/justin-chen-J7Cf1Gch49E-unsplash.jpg,0,0,847,0,unchosen,20,32,faces,body_parts,3200,1,9,3
92,15966,0,93,2,2,0,no_gain5,gain6,B,F,19,34,faces,body_parts,61,48,Stimuli/Experimental_stims/faces/joel-mott-LaK153ghdig-unsplash.jpg,Stimuli/Experimental_stims/body_parts/wagner-santos-mBWMvIuVnso-unsplash.jpg,0,1,802,0,unchosen,19,34,faces,body_parts,2100,0,9,3
93,15966,0,94,2,2,1,gain3,no_gain3,E,L,39,16,objects,faces,59,59,Stimuli/Experimental_stims/objects/charlesdeluvio-1-nx1QR5dTE-unsplash.jpg,Stimuli/Experimental_stims/faces/freddy-kearney-o-ioeoATbIM-unsplash.jpg,0,0,835,0,unchosen,16,39,faces,objects,1100,0,9,3
94,15966,0,95,2,2,0,no_gain2,gain3,I,E,29,30,body_parts,body_parts,58,62,Stimuli/Experimental_stims/body_parts/manuel-schinner-ZwjFuJ7ebpk-unsplash.jpg,Stimuli/Experimental_stims/body_parts/mika-korhonen-Xodzxosar18-unsplash.jpg,0,0,1023,1,chosen,30,29,body_parts,body_parts,2800,0,9,3
95,15966,0,96,2,2,1,gain1,no_gain4,D,H,12,9,faces,outdoor_scenes,46,82,Stimuli/Experimental_stims/faces/aiony-haust-jmATI5Q_YgY-unsplash.jpg,Stimuli/Experimental_stims/outdoor_scenes/sergey-pesterev-y-b_FOmJXdg-unsplash.jpg,0,0,767,0,unchosen,9,12,outdoor_scenes,faces,1100,0,9,3
96,15966,0,97,2,2,0,no_gain3,gain4,L,K,33,28,body_parts,body_parts,61,73,Stimuli/Experimental_stims/body_parts/tucker-good-36skLT5jZcc-unsplash.jpg,Stimuli/Experimental_stims/body_parts/ira-vishnevskaya-8DQAvdCby1I-unsplash.jpg,0,0,713,1,chosen,28,33,body_parts,body_parts,4900,1,9,3
97,15966,0,98,2,2,1,gain3,no_gain3,E,L,30,33,body_parts,body_parts,62,61,Stimuli/Experimental_stims/body_parts/mika-korhonen-Xodzxosar18-unsplash.jpg,Stimuli/Experimental_stims/body_parts/tucker-good-36skLT5jZcc-unsplash.jpg,0,1,709,1,chosen,30,33,body_parts,body_parts,1200,0,9,3
98,15966,0,99,2,2,0,no_gain5,gain5,B,A,19,43,faces,objects,61,36,Stimuli/Experimental_stims/faces/joel-mott-LaK153ghdig-unsplash.jpg,Stimuli/Experimental_stims/objects/jonathan-greenaway-Y4hGgeiFn3s-unsplash.jpg,0,1,800,0,unchosen,19,43,faces,objects,1200,0,9,3
99,15966,0,100,2,2,1,gain4,no_gain5,K,B,28,0,body_parts,outdoor_scenes,73,57,Stimuli/Experimental_stims/body_parts/ira-vishnevskaya-8DQAvdCby1I-unsplash.jpg,Stimuli/Experimental_stims/outdoor_scenes/aleksandra-boguslawska-MS7KD9Ti7FQ-unsplash.jpg,0,1,846,1,chosen,28,0,body_parts,outdoor_scenes,1900,0,9,3
100,15966,0,101,2,2,0,no_gain6,gain4,J,K,44,28,objects,body_parts,46,73,Stimuli/Experimental_stims/objects/kuiye-chen-NuOGFo4PudE-unsplash.jpg,Stimuli/Experimental_stims/body_parts/ira-vishnevskaya-8DQAvdCby1I-unsplash.jpg,0,0,607,1,chosen,28,44,body_parts,objects,1500,0,9,3
101,15966,0,102,2,2,0,no_gain5,gain2,B,C,19,32,faces,body_parts,61,46,Stimuli/Experimental_stims/faces/joel-mott-LaK153ghdig-unsplash.jpg,Stimuli/Experimental_stims/body_parts/towfiqu-barbhuiya-3AsiVDsZnHg-unsplash.jpg,0,1,791,0,unchosen,19,32,faces,body_parts,1600,0,9,3
102,15966,0,103,2,2,0,no_gain5,gain6,B,F,0,22,outdoor_scenes,faces,57,50,Stimuli/Experimental_stims/outdoor_scenes/aleksandra-boguslawska-MS7KD9Ti7FQ-unsplash.jpg,Stimuli/Experimental_stims/faces/ravi-patel-VMGAbeeJTKo-unsplash.jpg,0,0,960,1,chosen,22,0,faces,outdoor_scenes,1500,0,9,3
103,15966,0,104,2,2,1,gain4,no_gain3,K,L,38,16,objects,faces,67,59,Stimuli/Experimental_stims/objects/art-lasovsky-8XddFc6NkBY-unsplash.jpg,Stimuli/Experimental_stims/faces/freddy-kearney-o-ioeoATbIM-unsplash.jpg,0,0,871,0,unchosen,16,38,faces,objects,2000,0,9,3
104,15966,0,105,2,2,1,gain2,no_gain4,C,H,4,23,outdoor_scenes,faces,76,81,Stimuli/Experimental_stims/outdoor_scenes/jarrett-kow-1ZOyYPOBn7I-unsplash.jpg,Stimuli/Experimental_stims/faces/rikonavt-HQjfrvdTfak-unsplash.jpg,0,1,923,1,chosen,4,23,outdoor_scenes,faces,2000,0,9,3
105,15966,0,106,2,2,0,no_gain2,gain1,I,D,29,45,body_parts,objects,58,32,Stimuli/Experimental_stims/body_parts/manuel-schinner-ZwjFuJ7ebpk-unsplash.jpg,Stimuli/Experimental_stims/objects/leohoho-rngTKHXumy0-unsplash.jpg,0,0,827,1,chosen,45,29,objects,body_parts,3400,1,9,3
106,15966,0,107,2,2,1,gain1,no_gain6,D,J,12,20,faces,faces,46,50,Stimuli/Experimental_stims/faces/aiony-haust-jmATI5Q_YgY-unsplash.jpg,Stimuli/Experimental_stims/faces/justin-chen-J7Cf1Gch49E-unsplash.jpg,0,1,777,1,unchosen,12,20,faces,faces,1600,0,9,3
107,15966,0,108,2,2,0,no_gain1,gain3,G,E,47,39,objects,objects,60,59,Stimuli/Experimental_stims/objects/ronaldo-arthur-vidal-Cdz_lvnl37k-unsplash.jpg,Stimuli/Experimental_stims/objects/charlesdeluvio-1-nx1QR5dTE-unsplash.jpg,0,0,1226,1,unchosen,39,47,objects,objects,2400,0,9,3
108,15966,0,109,2,2,0,no_gain5,gain2,B,C,0,4,outdoor_scenes,outdoor_scenes,57,76,Stimuli/Experimental_stims/outdoor_scenes/aleksandra-boguslawska-MS7KD9Ti7FQ-unsplash.jpg,Stimuli/Experimental_stims/outdoor_scenes/jarrett-kow-1ZOyYPOBn7I-unsplash.jpg,0,0,630,1,chosen,4,0,outdoor_scenes,outdoor_scenes,2900,0,9,3
109,15966,0,110,2,2,1,gain2,no_gain2,C,I,4,29,outdoor_scenes,body_parts,76,58,Stimuli/Experimental_stims/outdoor_scenes/jarrett-kow-1ZOyYPOBn7I-unsplash.jpg,Stimuli/Experimental_stims/body_parts/manuel-schinner-ZwjFuJ7ebpk-unsplash.jpg,0,1,645,1,chosen,4,29,outdoor_scenes,body_parts,2100,0,9,3
110,15966,0,111,2,2,1,gain5,no_gain6,A,J,43,20,objects,faces,36,50,Stimuli/Experimental_stims/objects/jonathan-greenaway-Y4hGgeiFn3s-unsplash.jpg,Stimuli/Experimental_stims/faces/justin-chen-J7Cf1Gch49E-unsplash.jpg,0,0,1041,0,unchosen,20,43,faces,objects,3600,1,9,3
111,15966,0,112,2,2,1,gain6,no_gain4,F,H,22,23,faces,faces,50,81,Stimuli/Experimental_stims/faces/ravi-patel-VMGAbeeJTKo-unsplash.jpg,Stimuli/Experimental_stims/faces/rikonavt-HQjfrvdTfak-unsplash.jpg,0,1,914,1,chosen,22,23,faces,faces,1900,0,9,3
112,15966,0,113,2,2,1,gain3,no_gain1,E,G,30,11,body_parts,outdoor_scenes,62,79,Stimuli/Experimental_stims/body_parts/mika-korhonen-Xodzxosar18-unsplash.jpg,Stimuli/Experimental_stims/outdoor_scenes/stephen-leonardi-gyIRjKPXupE-unsplash.jpg,0,1,1080,1,chosen,30,11,body_parts,outdoor_scenes,1000,0,9,3
113,15966,0,114,2,2,0,no_gain6,gain2,J,C,44,4,objects,outdoor_scenes,46,76,Stimuli/Experimental_stims/objects/kuiye-chen-NuOGFo4PudE-unsplash.jpg,Stimuli/Experimental_stims/outdoor_scenes/jarrett-kow-1ZOyYPOBn7I-unsplash.jpg,0,0,639,1,chosen,4,44,outdoor_scenes,objects,1500,0,9,3
114,15966,0,115,2,2,1,gain1,no_gain3,D,L,12,16,faces,faces,46,59,Stimuli/Experimental_stims/faces/aiony-haust-jmATI5Q_YgY-unsplash.jpg,Stimuli/Experimental_stims/faces/freddy-kearney-o-ioeoATbIM-unsplash.jpg,0,0,1102,0,unchosen,16,12,faces,faces,1600,0,9,3
115,15966,0,116,2,2,0,no_gain1,gain1,G,D,47,12,objects,faces,60,46,Stimuli/Experimental_stims/objects/ronaldo-arthur-vidal-Cdz_lvnl37k-unsplash.jpg,Stimuli/Experimental_stims/faces/aiony-haust-jmATI5Q_YgY-unsplash.jpg,0,0,908,1,unchosen,12,47,faces,objects,1100,0,9,3
116,15966,0,117,2,2,1,gain6,no_gain1,F,G,22,11,faces,outdoor_scenes,50,79,Stimuli/Experimental_stims/faces/ravi-patel-VMGAbeeJTKo-unsplash.jpg,Stimuli/Experimental_stims/outdoor_scenes/stephen-leonardi-gyIRjKPXupE-unsplash.jpg,0,0,700,0,chosen,11,22,outdoor_scenes,faces,4400,1,9,3
117,15966,0,118,2,2,1,gain3,no_gain6,E,J,30,44,body_parts,objects,62,46,Stimuli/Experimental_stims/body_parts/mika-korhonen-Xodzxosar18-unsplash.jpg,Stimuli/Experimental_stims/objects/kuiye-chen-NuOGFo4PudE-unsplash.jpg,0,1,588,1,chosen,30,44,body_parts,objects,1100,0,9,3
118,15966,0,119,2,2,1,gain3,no_gain4,E,H,39,9,objects,outdoor_scenes,59,82,Stimuli/Experimental_stims/objects/charlesdeluvio-1-nx1QR5dTE-unsplash.jpg,Stimuli/Experimental_stims/outdoor_scenes/sergey-pesterev-y-b_FOmJXdg-unsplash.jpg,0,0,1184,0,unchosen,9,39,outdoor_scenes,objects,1200,0,9,3
119,15966,0,120,2,2,0,no_gain4,gain1,H,D,23,45,faces,objects,81,32,Stimuli/Experimental_stims/faces/rikonavt-HQjfrvdTfak-unsplash.jpg,Stimuli/Experimental_stims/objects/leohoho-rngTKHXumy0-unsplash.jpg,0,0,957,1,chosen,45,23,objects,faces,1000,0,9,3
120,15966,0,121,2,2,0,no_gain3,gain5,L,A,16,43,faces,objects,59,36,Stimuli/Experimental_stims/faces/freddy-kearney-o-ioeoATbIM-unsplash.jpg,Stimuli/Experimental_stims/objects/jonathan-greenaway-Y4hGgeiFn3s-unsplash.jpg,0,1,864,0,unchosen,16,43,faces,objects,1500,0,9,3
121,15966,0,122,2,2,0,no_gain1,gain4,G,K,47,38,objects,objects,60,67,Stimuli/Experimental_stims/objects/ronaldo-arthur-vidal-Cdz_lvnl37k-unsplash.jpg,Stimuli/Experimental_stims/objects/art-lasovsky-8XddFc6NkBY-unsplash.jpg,0,1,967,0,unchosen,47,38,objects,objects,2000,0,9,3
122,15966,0,123,2,2,0,no_gain4,gain3,H,E,23,30,faces,body_parts,81,62,Stimuli/Experimental_stims/faces/rikonavt-HQjfrvdTfak-unsplash.jpg,Stimuli/Experimental_stims/body_parts/mika-korhonen-Xodzxosar18-unsplash.jpg,0,0,810,1,chosen,30,23,body_parts,faces,3700,1,9,3
123,15966,0,124,2,2,0,no_gain1,gain2,G,C,47,32,objects,body_parts,60,46,Stimuli/Experimental_stims/objects/ronaldo-arthur-vidal-Cdz_lvnl37k-unsplash.jpg,Stimuli/Experimental_stims/body_parts/towfiqu-barbhuiya-3AsiVDsZnHg-unsplash.jpg,0,0,854,1,unchosen,32,47,body_parts,objects,2100,0,9,3
124,15966,0,125,2,2,1,gain5,no_gain1,A,G,43,47,objects,objects,36,60,Stimuli/Experimental_stims/objects/jonathan-greenaway-Y4hGgeiFn3s-unsplash.jpg,Stimuli/Experimental_stims/objects/ronaldo-arthur-vidal-Cdz_lvnl37k-unsplash.jpg,0,0,817,0,unchosen,47,43,objects,objects,1100,0,9,3
125,15966,0,126,2,2,1,gain5,no_gain3,A,L,3,33,outdoor_scenes,body_parts,45,61,Stimuli/Experimental_stims/outdoor_scenes/henry-be-NLF6hTe4PAg-unsplash.jpg,Stimuli/Experimental_stims/body_parts/tucker-good-36skLT5jZcc-unsplash.jpg,0,1,830,1,chosen,3,33,outdoor_scenes,body_parts,1500,0,9,3
126,15966,0,127,2,2,0,no_gain5,gain1,B,D,0,45,outdoor_scenes,objects,57,32,Stimuli/Experimental_stims/outdoor_scenes/aleksandra-boguslawska-MS7KD9Ti7FQ-unsplash.jpg,Stimuli/Experimental_stims/objects/leohoho-rngTKHXumy0-unsplash.jpg,0,0,831,1,chosen,45,0,objects,outdoor_scenes,1900,0,9,3
127,15966,0,128,2,2,0,no_gain2,gain6,I,F,8,34,outdoor_scenes,body_parts,72,48,Stimuli/Experimental_stims/outdoor_scenes/samsommer-vddccTqwal8-unsplash.jpg,Stimuli/Experimental_stims/body_parts/wagner-santos-mBWMvIuVnso-unsplash.jpg,0,1,836,0,unchosen,8,34,outdoor_scenes,body_parts,1600,0,9,3
128,15966,0,129,2,2,1,gain5,no_gain4,A,H,43,9,objects,outdoor_scenes,36,82,Stimuli/Experimental_stims/objects/jonathan-greenaway-Y4hGgeiFn3s-unsplash.jpg,Stimuli/Experimental_stims/outdoor_scenes/sergey-pesterev-y-b_FOmJXdg-unsplash.jpg,0,0,983,0,unchosen,9,43,outdoor_scenes,objects,3100,1,9,3
129,15966,0,130,2,2,0,no_gain1,gain1,G,D,11,45,outdoor_scenes,objects,79,32,Stimuli/Experimental_stims/outdoor_scenes/stephen-leonardi-gyIRjKPXupE-unsplash.jpg,Stimuli/Experimental_stims/objects/leohoho-rngTKHXumy0-unsplash.jpg,0,0,1009,1,chosen,45,11,objects,outdoor_scenes,2800,0,9,3
130,15966,0,131,2,2,1,gain5,no_gain4,A,H,3,23,outdoor_scenes,faces,45,81,Stimuli/Experimental_stims/outdoor_scenes/henry-be-NLF6hTe4PAg-unsplash.jpg,Stimuli/Experimental_stims/faces/rikonavt-HQjfrvdTfak-unsplash.jpg,0,1,1196,1,chosen,3,23,outdoor_scenes,faces,1800,0,9,3
131,15966,0,132,2,2,0,no_gain6,gain6,J,F,20,34,faces,body_parts,50,48,Stimuli/Experimental_stims/faces/justin-chen-J7Cf1Gch49E-unsplash.jpg,Stimuli/Experimental_stims/body_parts/wagner-santos-mBWMvIuVnso-unsplash.jpg,0,1,872,0,unchosen,20,34,faces,body_parts,2100,0,9,3
132,15966,0,133,2,2,1,gain6,no_gain3,F,L,22,33,faces,body_parts,50,61,Stimuli/Experimental_stims/faces/ravi-patel-VMGAbeeJTKo-unsplash.jpg,Stimuli/Experimental_stims/body_parts/tucker-good-36skLT5jZcc-unsplash.jpg,0,1,615,1,chosen,22,33,faces,body_parts,2100,0,9,3
133,15966,0,134,2,2,0,no_gain2,gain5,I,A,29,3,body_parts,outdoor_scenes,58,45,Stimuli/Experimental_stims/body_parts/manuel-schinner-ZwjFuJ7ebpk-unsplash.jpg,Stimuli/Experimental_stims/outdoor_scenes/henry-be-NLF6hTe4PAg-unsplash.jpg,0,0,1018,1,chosen,3,29,outdoor_scenes,body_parts,1600,0,9,3
134,15966,0,135,2,2,0,no_gain4,gain2,H,C,9,32,outdoor_scenes,body_parts,82,46,Stimuli/Experimental_stims/outdoor_scenes/sergey-pesterev-y-b_FOmJXdg-unsplash.jpg,Stimuli/Experimental_stims/body_parts/towfiqu-barbhuiya-3AsiVDsZnHg-unsplash.jpg,0,1,913,0,unchosen,9,32,outdoor_scenes,body_parts,2600,0,9,3
135,15966,0,136,2,2,1,gain4,no_gain4,K,H,28,23,body_parts,faces,73,81,Stimuli/Experimental_stims/body_parts/ira-vishnevskaya-8DQAvdCby1I-unsplash.jpg,Stimuli/Experimental_stims/faces/rikonavt-HQjfrvdTfak-unsplash.jpg,0,1,719,1,chosen,28,23,body_parts,faces,1100,0,9,3
136,15966,0,137,2,2,0,no_gain2,gain2,I,C,8,32,outdoor_scenes,body_parts,72,46,Stimuli/Experimental_stims/outdoor_scenes/samsommer-vddccTqwal8-unsplash.jpg,Stimuli/Experimental_stims/body_parts/towfiqu-barbhuiya-3AsiVDsZnHg-unsplash.jpg,0,1,874,0,unchosen,8,32,outdoor_scenes,body_parts,2700,0,9,3
137,15966,0,138,2,2,1,gain4,no_gain6,K,J,38,20,objects,faces,67,50,Stimuli/Experimental_stims/objects/art-lasovsky-8XddFc6NkBY-unsplash.jpg,Stimuli/Experimental_stims/faces/justin-chen-J7Cf1Gch49E-unsplash.jpg,0,0,821,0,unchosen,20,38,faces,objects,1500,0,9,3
138,15966,0,139,2,2,1,gain3,no_gain5,E,B,39,19,objects,faces,59,61,Stimuli/Experimental_stims/objects/charlesdeluvio-1-nx1QR5dTE-unsplash.jpg,Stimuli/Experimental_stims/faces/joel-mott-LaK153ghdig-unsplash.jpg,0,0,762,0,unchosen,19,39,faces,objects,1100,0,9,3
139,15966,0,140,2,2,1,gain4,no_gain1,K,G,28,11,body_parts,outdoor_scenes,73,79,Stimuli/Experimental_stims/body_parts/ira-vishnevskaya-8DQAvdCby1I-unsplash.jpg,Stimuli/Experimental_stims/outdoor_scenes/stephen-leonardi-gyIRjKPXupE-unsplash.jpg,0,1,959,1,chosen,28,11,body_parts,outdoor_scenes,1200,0,9,3
140,15966,0,141,2,2,1,gain3,no_gain2,E,I,39,8,objects,outdoor_scenes,59,72,Stimuli/Experimental_stims/objects/charlesdeluvio-1-nx1QR5dTE-unsplash.jpg,Stimuli/Experimental_stims/outdoor_scenes/samsommer-vddccTqwal8-unsplash.jpg,0,0,1203,0,unchosen,8,39,outdoor_scenes,objects,1200,0,9,3
141,15966,0,142,2,2,0,no_gain2,gain1,I,D,8,12,outdoor_scenes,faces,72,46,Stimuli/Experimental_stims/outdoor_scenes/samsommer-vddccTqwal8-unsplash.jpg,Stimuli/Experimental_stims/faces/aiony-haust-jmATI5Q_YgY-unsplash.jpg,0,1,1313,0,unchosen,8,12,outdoor_scenes,faces,4600,1,9,3
142,15966,0,143,2,2,1,gain6,no_gain6,F,J,22,44,faces,objects,50,46,Stimuli/Experimental_stims/faces/ravi-patel-VMGAbeeJTKo-unsplash.jpg,Stimuli/Experimental_stims/objects/kuiye-chen-NuOGFo4PudE-unsplash.jpg,0,1,767,1,chosen,22,44,faces,objects,2000,0,9,3
143,15966,0,144,2,2,1,gain4,no_gain4,K,H,38,9,objects,outdoor_scenes,67,82,Stimuli/Experimental_stims/objects/art-lasovsky-8XddFc6NkBY-unsplash.jpg,Stimuli/Experimental_stims/outdoor_scenes/sergey-pesterev-y-b_FOmJXdg-unsplash.jpg,0,0,948,0,unchosen,9,38,outdoor_scenes,objects,1700,0,9,3
144,15966,0,145,2,2,1,gain6,no_gain1,F,G,34,47,body_parts,objects,48,60,Stimuli/Experimental_stims/body_parts/wagner-santos-mBWMvIuVnso-unsplash.jpg,Stimuli/Experimental_stims/objects/ronaldo-arthur-vidal-Cdz_lvnl37k-unsplash.jpg,0,1,763,1,unchosen,34,47,body_parts,objects,1300,0,9,3
145,15966,0,146,2,2,0,no_gain2,gain4,I,K,29,28,body_parts,body_parts,58,73,Stimuli/Experimental_stims/body_parts/manuel-schinner-ZwjFuJ7ebpk-unsplash.jpg,Stimuli/Experimental_stims/body_parts/ira-vishnevskaya-8DQAvdCby1I-unsplash.jpg,0,0,734,1,chosen,28,29,body_parts,body_parts,1300,0,9,3
146,15966,0,147,2,2,1,gain5,no_gain2,A,I,43,8,objects,outdoor_scenes,36,72,Stimuli/Experimental_stims/objects/jonathan-greenaway-Y4hGgeiFn3s-unsplash.jpg,Stimuli/Experimental_stims/outdoor_scenes/samsommer-vddccTqwal8-unsplash.jpg,0,0,828,0,unchosen,8,43,outdoor_scenes,objects,1600,0,9,3
147,15966,0,148,2,2,1,gain2,no_gain3,C,L,4,33,outdoor_scenes,body_parts,76,61,Stimuli/Experimental_stims/outdoor_scenes/jarrett-kow-1ZOyYPOBn7I-unsplash.jpg,Stimuli/Experimental_stims/body_parts/tucker-good-36skLT5jZcc-unsplash.jpg,0,1,691,1,chosen,4,33,outdoor_scenes,body_parts,2900,0,9,3
148,15966,0,149,3,3,0,no_gain1,gain2,G,C,47,32,objects,body_parts,60,46,Stimuli/Experimental_stims/objects/ronaldo-arthur-vidal-Cdz_lvnl37k-unsplash.jpg,Stimuli/Experimental_stims/body_parts/towfiqu-barbhuiya-3AsiVDsZnHg-unsplash.jpg,0,0,1457,1,unchosen,32,47,body_parts,objects,2500,0,3,3
149,15966,0,150,3,3,0,no_gain2,gain5,I,A,29,3,body_parts,outdoor_scenes,58,45,Stimuli/Experimental_stims/body_parts/manuel-schinner-ZwjFuJ7ebpk-unsplash.jpg,Stimuli/Experimental_stims/outdoor_scenes/henry-be-NLF6hTe4PAg-unsplash.jpg,0,0,977,1,chosen,3,29,outdoor_scenes,body_parts,1500,0,3,3
150,15966,0,151,3,3,0,no_gain5,gain1,B,D,19,12,faces,faces,61,46,Stimuli/Experimental_stims/faces/joel-mott-LaK153ghdig-unsplash.jpg,Stimuli/Experimental_stims/faces/aiony-haust-jmATI5Q_YgY-unsplash.jpg,0,1,766,0,unchosen,19,12,faces,faces,1000,0,3,3
151,15966,0,152,3,3,1,gain3,no_gain3,E,L,39,16,objects,faces,59,59,Stimuli/Experimental_stims/objects/charlesdeluvio-1-nx1QR5dTE-unsplash.jpg,Stimuli/Experimental_stims/faces/freddy-kearney-o-ioeoATbIM-unsplash.jpg,0,0,771,0,unchosen,16,39,faces,objects,2000,0,3,3
152,15966,0,153,3,3,0,no_gain4,gain3,H,E,9,39,outdoor_scenes,objects,82,59,Stimuli/Experimental_stims/outdoor_scenes/sergey-pesterev-y-b_FOmJXdg-unsplash.jpg,Stimuli/Experimental_stims/objects/charlesdeluvio-1-nx1QR5dTE-unsplash.jpg,0,1,764,0,unchosen,9,39,outdoor_scenes,objects,1600,0,3,3
153,15966,0,154,3,3,0,no_gain6,gain5,J,A,44,3,objects,outdoor_scenes,46,45,Stimuli/Experimental_stims/objects/kuiye-chen-NuOGFo4PudE-unsplash.jpg,Stimuli/Experimental_stims/outdoor_scenes/henry-be-NLF6hTe4PAg-unsplash.jpg,0,0,664,1,chosen,3,44,outdoor_scenes,objects,5000,1,3,3
154,15966,0,155,3,3,1,gain5,no_gain5,A,B,43,19,objects,faces,36,61,Stimuli/Experimental_stims/objects/jonathan-greenaway-Y4hGgeiFn3s-unsplash.jpg,Stimuli/Experimental_stims/faces/joel-mott-LaK153ghdig-unsplash.jpg,0,0,723,0,unchosen,19,43,faces,objects,1500,0,3,3
155,15966,0,156,3,3,0,no_gain4,gain4,H,K,23,28,faces,body_parts,81,73,Stimuli/Experimental_stims/faces/rikonavt-HQjfrvdTfak-unsplash.jpg,Stimuli/Experimental_stims/body_parts/ira-vishnevskaya-8DQAvdCby1I-unsplash.jpg,0,0,897,1,chosen,28,23,body_parts,faces,1800,0,3,3
156,15966,0,157,3,3,0,no_gain6,gain1,J,D,44,45,objects,objects,46,32,Stimuli/Experimental_stims/objects/kuiye-chen-NuOGFo4PudE-unsplash.jpg,Stimuli/Experimental_stims/objects/leohoho-rngTKHXumy0-unsplash.jpg,0,0,733,1,chosen,45,44,objects,objects,1900,0,3,3
157,15966,0,158,3,3,1,gain6,no_gain5,F,B,34,19,body_parts,faces,48,61,Stimuli/Experimental_stims/body_parts/wagner-santos-mBWMvIuVnso-unsplash.jpg,Stimuli/Experimental_stims/faces/joel-mott-LaK153ghdig-unsplash.jpg,0,0,723,0,unchosen,19,34,faces,body_parts,2000,0,3,3
158,15966,0,159,3,3,1,gain1,no_gain5,D,B,45,0,objects,outdoor_scenes,32,57,Stimuli/Experimental_stims/objects/leohoho-rngTKHXumy0-unsplash.jpg,Stimuli/Experimental_stims/outdoor_scenes/aleksandra-boguslawska-MS7KD9Ti7FQ-unsplash.jpg,0,1,861,1,chosen,45,0,objects,outdoor_scenes,1300,0,3,3
159,15966,0,160,3,3,0,no_gain5,gain4,B,K,0,28,outdoor_scenes,body_parts,57,73,Stimuli/Experimental_stims/outdoor_scenes/aleksandra-boguslawska-MS7KD9Ti7FQ-unsplash.jpg,Stimuli/Experimental_stims/body_parts/ira-vishnevskaya-8DQAvdCby1I-unsplash.jpg,0,0,873,1,chosen,28,0,body_parts,outdoor_scenes,2700,0,3,3
160,15966,0,161,3,3,0,no_gain3,gain4,L,K,33,28,body_parts,body_parts,61,73,Stimuli/Experimental_stims/body_parts/tucker-good-36skLT5jZcc-unsplash.jpg,Stimuli/Experimental_stims/body_parts/ira-vishnevskaya-8DQAvdCby1I-unsplash.jpg,0,0,1019,1,chosen,28,33,body_parts,body_parts,1600,0,3,3
161,15966,0,162,3,3,1,gain4,no_gain3,K,L,38,16,objects,faces,67,59,Stimuli/Experimental_stims/objects/art-lasovsky-8XddFc6NkBY-unsplash.jpg,Stimuli/Experimental_stims/faces/freddy-kearney-o-ioeoATbIM-unsplash.jpg,0,0,1005,0,unchosen,16,38,faces,objects,4000,1,3,3
162,15966,0,163,3,3,0,no_gain1,gain3,G,E,11,30,outdoor_scenes,body_parts,79,62,Stimuli/Experimental_stims/outdoor_scenes/stephen-leonardi-gyIRjKPXupE-unsplash.jpg,Stimuli/Experimental_stims/body_parts/mika-korhonen-Xodzxosar18-unsplash.jpg,0,0,631,1,chosen,30,11,body_parts,outdoor_scenes,1900,0,3,3
163,15966,0,164,3,3,0,no_gain4,gain5,H,A,9,43,outdoor_scenes,objects,82,36,Stimuli/Experimental_stims/outdoor_scenes/sergey-pesterev-y-b_FOmJXdg-unsplash.jpg,Stimuli/Experimental_stims/objects/jonathan-greenaway-Y4hGgeiFn3s-unsplash.jpg,0,1,768,0,unchosen,9,43,outdoor_scenes,objects,1700,0,3,3
164,15966,0,165,3,3,0,no_gain6,gain4,J,K,44,28,objects,body_parts,46,73,Stimuli/Experimental_stims/objects/kuiye-chen-NuOGFo4PudE-unsplash.jpg,Stimuli/Experimental_stims/body_parts/ira-vishnevskaya-8DQAvdCby1I-unsplash.jpg,0,0,657,1,chosen,28,44,body_parts,objects,1800,0,3,3
165,15966,0,166,3,3,1,gain5,no_gain3,A,L,3,33,outdoor_scenes,body_parts,45,61,Stimuli/Experimental_stims/outdoor_scenes/henry-be-NLF6hTe4PAg-unsplash.jpg,Stimuli/Experimental_stims/body_parts/tucker-good-36skLT5jZcc-unsplash.jpg,0,1,802,1,chosen,3,33,outdoor_scenes,body_parts,1500,0,3,3
166,15966,0,167,3,3,1,gain4,no_gain2,K,I,28,29,body_parts,body_parts,73,58,Stimuli/Experimental_stims/body_parts/ira-vishnevskaya-8DQAvdCby1I-unsplash.jpg,Stimuli/Experimental_stims/body_parts/manuel-schinner-ZwjFuJ7ebpk-unsplash.jpg,0,1,541,1,chosen,28,29,body_parts,body_parts,2700,0,3,3
167,15966,0,168,3,3,0,no_gain6,gain6,J,F,20,34,faces,body_parts,50,48,Stimuli/Experimental_stims/faces/justin-chen-J7Cf1Gch49E-unsplash.jpg,Stimuli/Experimental_stims/body_parts/wagner-santos-mBWMvIuVnso-unsplash.jpg,0,1,799,0,unchosen,20,34,faces,body_parts,3600,1,3,3
168,15966,0,169,3,3,0,no_gain2,gain6,I,F,29,22,body_parts,faces,58,50,Stimuli/Experimental_stims/body_parts/manuel-schinner-ZwjFuJ7ebpk-unsplash.jpg,Stimuli/Experimental_stims/faces/ravi-patel-VMGAbeeJTKo-unsplash.jpg,0,0,1034,1,chosen,22,29,faces,body_parts,2100,0,3,3
169,15966,0,170,3,3,1,gain5,no_gain6,A,J,43,20,objects,faces,36,50,Stimuli/Experimental_stims/objects/jonathan-greenaway-Y4hGgeiFn3s-unsplash.jpg,Stimuli/Experimental_stims/faces/justin-chen-J7Cf1Gch49E-unsplash.jpg,0,0,700,0,unchosen,20,43,faces,objects,2300,0,3,3
170,15966,0,171,3,3,1,gain1,no_gain3,D,L,12,16,faces,faces,46,59,Stimuli/Experimental_stims/faces/aiony-haust-jmATI5Q_YgY-unsplash.jpg,Stimuli/Experimental_stims/faces/freddy-kearney-o-ioeoATbIM-unsplash.jpg,0,0,727,0,unchosen,16,12,faces,faces,1400,0,3,3
171,15966,0,172,3,3,1,gain3,no_gain3,E,L,30,33,body_parts,body_parts,62,61,Stimuli/Experimental_stims/body_parts/mika-korhonen-Xodzxosar18-unsplash.jpg,Stimuli/Experimental_stims/body_parts/tucker-good-36skLT5jZcc-unsplash.jpg,0,1,779,1,chosen,30,33,body_parts,body_parts,1200,0,3,3
172,15966,0,173,3,3,1,gain2,no_gain6,C,J,4,44,outdoor_scenes,objects,76,46,Stimuli/Experimental_stims/outdoor_scenes/jarrett-kow-1ZOyYPOBn7I-unsplash.jpg,Stimuli/Experimental_stims/objects/kuiye-chen-NuOGFo4PudE-unsplash.jpg,0,1,618,1,chosen,4,44,outdoor_scenes,objects,1900,0,3,3
173,15966,0,174,3,3,0,no_gain2,gain4,I,K,8,38,outdoor_scenes,objects,72,67,Stimuli/Experimental_stims/outdoor_scenes/samsommer-vddccTqwal8-unsplash.jpg,Stimuli/Experimental_stims/objects/art-lasovsky-8XddFc6NkBY-unsplash.jpg,0,1,704,0,unchosen,8,38,outdoor_scenes,objects,1800,0,3,3
174,15966,0,175,3,3,1,gain6,no_gain6,F,J,22,44,faces,objects,50,46,Stimuli/Experimental_stims/faces/ravi-patel-VMGAbeeJTKo-unsplash.jpg,Stimuli/Experimental_stims/objects/kuiye-chen-NuOGFo4PudE-unsplash.jpg,0,1,680,1,chosen,22,44,faces,objects,4100,1,3,3
175,15966,0,176,3,3,0,no_gain5,gain6,B,F,0,22,outdoor_scenes,faces,57,50,Stimuli/Experimental_stims/outdoor_scenes/aleksandra-boguslawska-MS7KD9Ti7FQ-unsplash.jpg,Stimuli/Experimental_stims/faces/ravi-patel-VMGAbeeJTKo-unsplash.jpg,0,0,916,1,chosen,22,0,faces,outdoor_scenes,1400,0,3,3
176,15966,0,177,3,3,0,no_gain2,gain6,I,F,8,34,outdoor_scenes,body_parts,72,48,Stimuli/Experimental_stims/outdoor_scenes/samsommer-vddccTqwal8-unsplash.jpg,Stimuli/Experimental_stims/body_parts/wagner-santos-mBWMvIuVnso-unsplash.jpg,0,1,934,0,unchosen,8,34,outdoor_scenes,body_parts,2200,0,3,3
177,15966,0,178,3,3,1,gain1,no_gain2,D,I,12,8,faces,outdoor_scenes,46,72,Stimuli/Experimental_stims/faces/aiony-haust-jmATI5Q_YgY-unsplash.jpg,Stimuli/Experimental_stims/outdoor_scenes/samsommer-vddccTqwal8-unsplash.jpg,0,0,901,0,unchosen,8,12,outdoor_scenes,faces,1400,0,3,3
178,15966,0,179,3,3,1,gain3,no_gain2,E,I,30,29,body_parts,body_parts,62,58,Stimuli/Experimental_stims/body_parts/mika-korhonen-Xodzxosar18-unsplash.jpg,Stimuli/Experimental_stims/body_parts/manuel-schinner-ZwjFuJ7ebpk-unsplash.jpg,0,1,912,1,chosen,30,29,body_parts,body_parts,1100,0,3,3
179,15966,0,180,3,3,1,gain4,no_gain1,K,G,28,11,body_parts,outdoor_scenes,73,79,Stimuli/Experimental_stims/body_parts/ira-vishnevskaya-8DQAvdCby1I-unsplash.jpg,Stimuli/Experimental_stims/outdoor_scenes/stephen-leonardi-gyIRjKPXupE-unsplash.jpg,0,1,895,1,chosen,28,11,body_parts,outdoor_scenes,1400,0,3,3
180,15966,0,181,3,3,1,gain1,no_gain4,D,H,12,9,faces,outdoor_scenes,46,82,Stimuli/Experimental_stims/faces/aiony-haust-jmATI5Q_YgY-unsplash.jpg,Stimuli/Experimental_stims/outdoor_scenes/sergey-pesterev-y-b_FOmJXdg-unsplash.jpg,0,0,796,0,unchosen,9,12,outdoor_scenes,faces,1700,0,3,3
181,15966,0,182,3,3,1,gain1,no_gain4,D,H,45,23,objects,faces,32,81,Stimuli/Experimental_stims/objects/leohoho-rngTKHXumy0-unsplash.jpg,Stimuli/Experimental_stims/faces/rikonavt-HQjfrvdTfak-unsplash.jpg,0,1,740,1,chosen,45,23,objects,faces,3400,1,3,3
182,15966,0,183,3,3,1,gain3,no_gain5,E,B,30,0,body_parts,outdoor_scenes,62,57,Stimuli/Experimental_stims/body_parts/mika-korhonen-Xodzxosar18-unsplash.jpg,Stimuli/Experimental_stims/outdoor_scenes/aleksandra-boguslawska-MS7KD9Ti7FQ-unsplash.jpg,0,1,687,1,chosen,30,0,body_parts,outdoor_scenes,1000,0,3,3
183,15966,0,184,3,3,1,gain1,no_gain6,D,J,12,20,faces,faces,46,50,Stimuli/Experimental_stims/faces/aiony-haust-jmATI5Q_YgY-unsplash.jpg,Stimuli/Experimental_stims/faces/justin-chen-J7Cf1Gch49E-unsplash.jpg,0,0,844,0,unchosen,20,12,faces,faces,1200,0,3,3
184,15966,0,185,3,3,0,no_gain5,gain4,B,K,19,38,faces,objects,61,67,Stimuli/Experimental_stims/faces/joel-mott-LaK153ghdig-unsplash.jpg,Stimuli/Experimental_stims/objects/art-lasovsky-8XddFc6NkBY-unsplash.jpg,0,1,659,0,unchosen,19,38,faces,objects,1200,0,3,3
185,15966,0,186,3,3,0,no_gain1,gain2,G,C,11,4,outdoor_scenes,outdoor_scenes,79,76,Stimuli/Experimental_stims/outdoor_scenes/stephen-leonardi-gyIRjKPXupE-unsplash.jpg,Stimuli/Experimental_stims/outdoor_scenes/jarrett-kow-1ZOyYPOBn7I-unsplash.jpg,0,0,900,1,chosen,4,11,outdoor_scenes,outdoor_scenes,2800,0,3,3
186,15966,0,187,3,3,0,no_gain1,gain4,G,K,47,38,objects,objects,60,67,Stimuli/Experimental_stims/objects/ronaldo-arthur-vidal-Cdz_lvnl37k-unsplash.jpg,Stimuli/Experimental_stims/objects/art-lasovsky-8XddFc6NkBY-unsplash.jpg,0,0,1155,1,unchosen,38,47,objects,objects,1200,0,3,3
187,15966,0,188,3,3,0,no_gain6,gain3,J,E,44,30,objects,body_parts,46,62,Stimuli/Experimental_stims/objects/kuiye-chen-NuOGFo4PudE-unsplash.jpg,Stimuli/Experimental_stims/body_parts/mika-korhonen-Xodzxosar18-unsplash.jpg,0,0,841,1,chosen,30,44,body_parts,objects,1200,0,3,3
188,15966,0,189,3,3,1,gain2,no_gain2,C,I,4,29,outdoor_scenes,body_parts,76,58,Stimuli/Experimental_stims/outdoor_scenes/jarrett-kow-1ZOyYPOBn7I-unsplash.jpg,Stimuli/Experimental_stims/body_parts/manuel-schinner-ZwjFuJ7ebpk-unsplash.jpg,0,1,779,1,chosen,4,29,outdoor_scenes,body_parts,2100,0,3,3
189,15966,0,190,3,3,1,gain2,no_gain6,C,J,32,20,body_parts,faces,46,50,Stimuli/Experimental_stims/body_parts/towfiqu-barbhuiya-3AsiVDsZnHg-unsplash.jpg,Stimuli/Experimental_stims/faces/justin-chen-J7Cf1Gch49E-unsplash.jpg,0,0,780,0,unchosen,20,32,faces,body_parts,3800,1,3,3
190,15966,0,191,3,3,0,no_gain3,gain2,L,C,33,4,body_parts,outdoor_scenes,61,76,Stimuli/Experimental_stims/body_parts/tucker-good-36skLT5jZcc-unsplash.jpg,Stimuli/Experimental_stims/outdoor_scenes/jarrett-kow-1ZOyYPOBn7I-unsplash.jpg,0,0,637,1,chosen,4,33,outdoor_scenes,body_parts,2200,0,3,3
191,15966,0,192,3,3,1,gain4,no_gain4,K,H,38,9,objects,outdoor_scenes,67,82,Stimuli/Experimental_stims/objects/art-lasovsky-8XddFc6NkBY-unsplash.jpg,Stimuli/Experimental_stims/outdoor_scenes/sergey-pesterev-y-b_FOmJXdg-unsplash.jpg,0,0,791,0,unchosen,9,38,outdoor_scenes,objects,2500,0,3,3
192,15966,0,193,3,3,1,gain2,no_gain5,C,B,4,0,outdoor_scenes,outdoor_scenes,76,57,Stimuli/Experimental_stims/outdoor_scenes/jarrett-kow-1ZOyYPOBn7I-unsplash.jpg,Stimuli/Experimental_stims/outdoor_scenes/aleksandra-boguslawska-MS7KD9Ti7FQ-unsplash.jpg,0,1,641,1,chosen,4,0,outdoor_scenes,outdoor_scenes,1100,0,3,3
193,15966,0,194,3,3,1,gain3,no_gain1,E,G,39,47,objects,objects,59,60,Stimuli/Experimental_stims/objects/charlesdeluvio-1-nx1QR5dTE-unsplash.jpg,Stimuli/Experimental_stims/objects/ronaldo-arthur-vidal-Cdz_lvnl37k-unsplash.jpg,0,1,1136,1,unchosen,39,47,objects,objects,1800,0,3,3
194,15966,0,195,3,3,1,gain3,no_gain6,E,J,39,20,objects,faces,59,50,Stimuli/Experimental_stims/objects/charlesdeluvio-1-nx1QR5dTE-unsplash.jpg,Stimuli/Experimental_stims/faces/justin-chen-J7Cf1Gch49E-unsplash.jpg,0,1,829,1,unchosen,39,20,objects,faces,3600,1,3,3
195,15966,0,196,3,3,1,gain4,no_gain6,K,J,38,20,objects,faces,67,50,Stimuli/Experimental_stims/objects/art-lasovsky-8XddFc6NkBY-unsplash.jpg,Stimuli/Experimental_stims/faces/justin-chen-J7Cf1Gch49E-unsplash.jpg,0,0,761,0,unchosen,20,38,faces,objects,2400,0,3,3
196,15966,0,197,3,3,1,gain1,no_gain1,D,G,45,11,objects,outdoor_scenes,32,79,Stimuli/Experimental_stims/objects/leohoho-rngTKHXumy0-unsplash.jpg,Stimuli/Experimental_stims/outdoor_scenes/stephen-leonardi-gyIRjKPXupE-unsplash.jpg,0,1,1461,1,chosen,45,11,objects,outdoor_scenes,2400,0,3,3
197,15966,0,198,3,3,0,no_gain3,gain2,L,C,16,32,faces,body_parts,59,46,Stimuli/Experimental_stims/faces/freddy-kearney-o-ioeoATbIM-unsplash.jpg,Stimuli/Experimental_stims/body_parts/towfiqu-barbhuiya-3AsiVDsZnHg-unsplash.jpg,0,1,959,0,unchosen,16,32,faces,body_parts,2200,0,3,3
198,15966,0,199,3,3,1,gain1,no_gain2,D,I,45,29,objects,body_parts,32,58,Stimuli/Experimental_stims/objects/leohoho-rngTKHXumy0-unsplash.jpg,Stimuli/Experimental_stims/body_parts/manuel-schinner-ZwjFuJ7ebpk-unsplash.jpg,0,1,528,1,chosen,45,29,objects,body_parts,2800,0,3,3
199,15966,0,200,3,3,0,no_gain2,gain3,I,E,8,39,outdoor_scenes,objects,72,59,Stimuli/Experimental_stims/outdoor_scenes/samsommer-vddccTqwal8-unsplash.jpg,Stimuli/Experimental_stims/objects/charlesdeluvio-1-nx1QR5dTE-unsplash.jpg,0,1,902,0,unchosen,8,39,outdoor_scenes,objects,1700,0,3,3
200,15966,0,201,3,3,0,no_gain1,gain6,G,F,47,34,objects,body_parts,60,48,Stimuli/Experimental_stims/objects/ronaldo-arthur-vidal-Cdz_lvnl37k-unsplash.jpg,Stimuli/Experimental_stims/body_parts/wagner-santos-mBWMvIuVnso-unsplash.jpg,0,1,902,0,unchosen,47,34,objects,body_parts,1100,0,3,3
201,15966,0,202,3,3,0,no_gain4,gain3,H,E,23,30,faces,body_parts,81,62,Stimuli/Experimental_stims/faces/rikonavt-HQjfrvdTfak-unsplash.jpg,Stimuli/Experimental_stims/body_parts/mika-korhonen-Xodzxosar18-unsplash.jpg,0,0,780,1,chosen,30,23,body_parts,faces,1200,0,3,3
202,15966,0,203,3,3,0,no_gain3,gain5,L,A,16,43,faces,objects,59,36,Stimuli/Experimental_stims/faces/freddy-kearney-o-ioeoATbIM-unsplash.jpg,Stimuli/Experimental_stims/objects/jonathan-greenaway-Y4hGgeiFn3s-unsplash.jpg,0,1,753,0,unchosen,16,43,faces,objects,2700,0,3,3
203,15966,0,204,3,3,0,no_gain1,gain1,G,D,47,12,objects,faces,60,46,Stimuli/Experimental_stims/objects/ronaldo-arthur-vidal-Cdz_lvnl37k-unsplash.jpg,Stimuli/Experimental_stims/faces/aiony-haust-jmATI5Q_YgY-unsplash.jpg,0,1,952,0,unchosen,47,12,objects,faces,1100,0,3,3
204,15966,0,205,3,3,1,gain5,no_gain5,A,B,3,0,outdoor_scenes,outdoor_scenes,45,57,Stimuli/Experimental_stims/outdoor_scenes/henry-be-NLF6hTe4PAg-unsplash.jpg,Stimuli/Experimental_stims/outdoor_scenes/aleksandra-boguslawska-MS7KD9Ti7FQ-unsplash.jpg,1,NaN,,NaN,chosen,NaN,NaN,NaN,NaN,1100,0,3,3
205,15966,0,206,3,3,0,no_gain4,gain6,H,F,23,22,faces,faces,81,50,Stimuli/Experimental_stims/faces/rikonavt-HQjfrvdTfak-unsplash.jpg,Stimuli/Experimental_stims/faces/ravi-patel-VMGAbeeJTKo-unsplash.jpg,0,0,667,1,chosen,22,23,faces,faces,1500,0,3,3
206,15966,0,207,3,3,0,no_gain5,gain3,B,E,19,39,faces,objects,61,59,Stimuli/Experimental_stims/faces/joel-mott-LaK153ghdig-unsplash.jpg,Stimuli/Experimental_stims/objects/charlesdeluvio-1-nx1QR5dTE-unsplash.jpg,0,1,917,0,unchosen,19,39,faces,objects,1600,0,3,3
207,15966,0,208,3,3,0,no_gain1,gain5,G,A,11,3,outdoor_scenes,outdoor_scenes,79,45,Stimuli/Experimental_stims/outdoor_scenes/stephen-leonardi-gyIRjKPXupE-unsplash.jpg,Stimuli/Experimental_stims/outdoor_scenes/henry-be-NLF6hTe4PAg-unsplash.jpg,0,0,668,1,chosen,3,11,outdoor_scenes,outdoor_scenes,1500,0,3,3
208,15966,0,209,3,3,1,gain1,no_gain3,D,L,45,33,objects,body_parts,32,61,Stimuli/Experimental_stims/objects/leohoho-rngTKHXumy0-unsplash.jpg,Stimuli/Experimental_stims/body_parts/tucker-good-36skLT5jZcc-unsplash.jpg,0,1,661,1,chosen,45,33,objects,body_parts,2800,0,3,3
209,15966,0,210,3,3,1,gain6,no_gain3,F,L,22,33,faces,body_parts,50,61,Stimuli/Experimental_stims/faces/ravi-patel-VMGAbeeJTKo-unsplash.jpg,Stimuli/Experimental_stims/body_parts/tucker-good-36skLT5jZcc-unsplash.jpg,0,1,739,1,chosen,22,33,faces,body_parts,3400,1,3,3
210,15966,0,211,3,3,1,gain2,no_gain4,C,H,32,9,body_parts,outdoor_scenes,46,82,Stimuli/Experimental_stims/body_parts/towfiqu-barbhuiya-3AsiVDsZnHg-unsplash.jpg,Stimuli/Experimental_stims/outdoor_scenes/sergey-pesterev-y-b_FOmJXdg-unsplash.jpg,0,0,922,0,unchosen,9,32,outdoor_scenes,body_parts,1500,0,3,3
211,15966,0,212,3,3,1,gain2,no_gain2,C,I,32,8,body_parts,outdoor_scenes,46,72,Stimuli/Experimental_stims/body_parts/towfiqu-barbhuiya-3AsiVDsZnHg-unsplash.jpg,Stimuli/Experimental_stims/outdoor_scenes/samsommer-vddccTqwal8-unsplash.jpg,0,0,962,0,unchosen,8,32,outdoor_scenes,body_parts,1500,0,3,3
212,15966,0,213,3,3,1,gain6,no_gain1,F,G,22,11,faces,outdoor_scenes,50,79,Stimuli/Experimental_stims/faces/ravi-patel-VMGAbeeJTKo-unsplash.jpg,Stimuli/Experimental_stims/outdoor_scenes/stephen-leonardi-gyIRjKPXupE-unsplash.jpg,0,1,715,1,chosen,22,11,faces,outdoor_scenes,1500,0,3,3
213,15966,0,214,3,3,0,no_gain5,gain2,B,C,19,32,faces,body_parts,61,46,Stimuli/Experimental_stims/faces/joel-mott-LaK153ghdig-unsplash.jpg,Stimuli/Experimental_stims/body_parts/towfiqu-barbhuiya-3AsiVDsZnHg-unsplash.jpg,0,1,965,0,unchosen,19,32,faces,body_parts,1200,0,3,3
214,15966,0,215,3,3,0,no_gain4,gain5,H,A,23,3,faces,outdoor_scenes,81,45,Stimuli/Experimental_stims/faces/rikonavt-HQjfrvdTfak-unsplash.jpg,Stimuli/Experimental_stims/outdoor_scenes/henry-be-NLF6hTe4PAg-unsplash.jpg,0,0,796,1,chosen,3,23,outdoor_scenes,faces,1900,0,3,3
215,15966,0,216,3,3,1,gain6,no_gain4,F,H,34,9,body_parts,outdoor_scenes,48,82,Stimuli/Experimental_stims/body_parts/wagner-santos-mBWMvIuVnso-unsplash.jpg,Stimuli/Experimental_stims/outdoor_scenes/sergey-pesterev-y-b_FOmJXdg-unsplash.jpg,0,0,678,0,unchosen,9,34,outdoor_scenes,body_parts,3600,1,3,3
216,15966,0,217,3,3,0,no_gain2,gain5,I,A,8,43,outdoor_scenes,objects,72,36,Stimuli/Experimental_stims/outdoor_scenes/samsommer-vddccTqwal8-unsplash.jpg,Stimuli/Experimental_stims/objects/jonathan-greenaway-Y4hGgeiFn3s-unsplash.jpg,0,1,691,0,unchosen,8,43,outdoor_scenes,objects,2500,0,3,3
217,15966,0,218,3,3,0,no_gain4,gain2,H,C,23,4,faces,outdoor_scenes,81,76,Stimuli/Experimental_stims/faces/rikonavt-HQjfrvdTfak-unsplash.jpg,Stimuli/Experimental_stims/outdoor_scenes/jarrett-kow-1ZOyYPOBn7I-unsplash.jpg,0,0,664,1,chosen,4,23,outdoor_scenes,faces,1600,0,3,3
218,15966,0,219,3,3,1,gain6,no_gain3,F,L,34,16,body_parts,faces,48,59,Stimuli/Experimental_stims/body_parts/wagner-santos-mBWMvIuVnso-unsplash.jpg,Stimuli/Experimental_stims/faces/freddy-kearney-o-ioeoATbIM-unsplash.jpg,0,0,827,0,unchosen,16,34,faces,body_parts,1200,0,3,3
219,15966,0,220,3,3,0,no_gain1,gain5,G,A,47,43,objects,objects,60,36,Stimuli/Experimental_stims/objects/ronaldo-arthur-vidal-Cdz_lvnl37k-unsplash.jpg,Stimuli/Experimental_stims/objects/jonathan-greenaway-Y4hGgeiFn3s-unsplash.jpg,0,0,839,1,unchosen,43,47,objects,objects,1300,0,3,3
220,15966,0,221,4,4,0,no_gain6,gain5,J,A,20,43,faces,objects,50,36,Stimuli/Experimental_stims/faces/justin-chen-J7Cf1Gch49E-unsplash.jpg,Stimuli/Experimental_stims/objects/jonathan-greenaway-Y4hGgeiFn3s-unsplash.jpg,0,1,963,0,unchosen,20,43,faces,objects,3300,1,1,3
221,15966,0,222,4,4,0,no_gain4,gain5,H,A,9,43,outdoor_scenes,objects,82,36,Stimuli/Experimental_stims/outdoor_scenes/sergey-pesterev-y-b_FOmJXdg-unsplash.jpg,Stimuli/Experimental_stims/objects/jonathan-greenaway-Y4hGgeiFn3s-unsplash.jpg,0,1,756,0,unchosen,9,43,outdoor_scenes,objects,1400,0,1,3
222,15966,0,223,4,4,1,gain5,no_gain5,A,B,3,0,outdoor_scenes,outdoor_scenes,45,57,Stimuli/Experimental_stims/outdoor_scenes/henry-be-NLF6hTe4PAg-unsplash.jpg,Stimuli/Experimental_stims/outdoor_scenes/aleksandra-boguslawska-MS7KD9Ti7FQ-unsplash.jpg,0,1,620,1,chosen,3,0,outdoor_scenes,outdoor_scenes,2400,0,1,3
223,15966,0,224,4,4,0,no_gain3,gain4,L,K,33,28,body_parts,body_parts,61,73,Stimuli/Experimental_stims/body_parts/tucker-good-36skLT5jZcc-unsplash.jpg,Stimuli/Experimental_stims/body_parts/ira-vishnevskaya-8DQAvdCby1I-unsplash.jpg,0,0,644,1,chosen,28,33,body_parts,body_parts,1200,0,1,3
224,15966,0,225,4,4,1,gain4,no_gain1,K,G,38,47,objects,objects,67,60,Stimuli/Experimental_stims/objects/art-lasovsky-8XddFc6NkBY-unsplash.jpg,Stimuli/Experimental_stims/objects/ronaldo-arthur-vidal-Cdz_lvnl37k-unsplash.jpg,0,1,729,1,unchosen,38,47,objects,objects,1100,0,1,3
225,15966,0,226,4,4,0,no_gain1,gain1,G,D,47,12,objects,faces,60,46,Stimuli/Experimental_stims/objects/ronaldo-arthur-vidal-Cdz_lvnl37k-unsplash.jpg,Stimuli/Experimental_stims/faces/aiony-haust-jmATI5Q_YgY-unsplash.jpg,0,0,912,1,unchosen,12,47,faces,objects,1600,0,1,3
226,15966,0,227,4,4,1,gain6,no_gain3,F,L,34,16,body_parts,faces,48,59,Stimuli/Experimental_stims/body_parts/wagner-santos-mBWMvIuVnso-unsplash.jpg,Stimuli/Experimental_stims/faces/freddy-kearney-o-ioeoATbIM-unsplash.jpg,0,0,726,0,unchosen,16,34,faces,body_parts,3100,1,1,3
227,15966,0,228,4,4,0,no_gain2,gain4,I,K,29,28,body_parts,body_parts,58,73,Stimuli/Experimental_stims/body_parts/manuel-schinner-ZwjFuJ7ebpk-unsplash.jpg,Stimuli/Experimental_stims/body_parts/ira-vishnevskaya-8DQAvdCby1I-unsplash.jpg,0,0,626,1,chosen,28,29,body_parts,body_parts,1000,0,1,3
228,15966,0,229,4,4,1,gain6,no_gain5,F,B,22,0,faces,outdoor_scenes,50,57,Stimuli/Experimental_stims/faces/ravi-patel-VMGAbeeJTKo-unsplash.jpg,Stimuli/Experimental_stims/outdoor_scenes/aleksandra-boguslawska-MS7KD9Ti7FQ-unsplash.jpg,0,0,633,0,chosen,0,22,outdoor_scenes,faces,3000,0,1,3
229,15966,0,230,4,4,0,no_gain4,gain5,H,A,23,3,faces,outdoor_scenes,81,45,Stimuli/Experimental_stims/faces/rikonavt-HQjfrvdTfak-unsplash.jpg,Stimuli/Experimental_stims/outdoor_scenes/henry-be-NLF6hTe4PAg-unsplash.jpg,0,0,590,1,chosen,3,23,outdoor_scenes,faces,1700,0,1,3
230,15966,0,231,4,4,1,gain1,no_gain4,D,H,12,9,faces,outdoor_scenes,46,82,Stimuli/Experimental_stims/faces/aiony-haust-jmATI5Q_YgY-unsplash.jpg,Stimuli/Experimental_stims/outdoor_scenes/sergey-pesterev-y-b_FOmJXdg-unsplash.jpg,0,0,744,0,unchosen,9,12,outdoor_scenes,faces,2400,0,1,3
231,15966,0,232,4,4,0,no_gain6,gain2,J,C,44,4,objects,outdoor_scenes,46,76,Stimuli/Experimental_stims/objects/kuiye-chen-NuOGFo4PudE-unsplash.jpg,Stimuli/Experimental_stims/outdoor_scenes/jarrett-kow-1ZOyYPOBn7I-unsplash.jpg,0,0,562,1,chosen,4,44,outdoor_scenes,objects,4000,1,1,3
232,15966,0,233,4,4,0,no_gain6,gain1,J,D,20,12,faces,faces,50,46,Stimuli/Experimental_stims/faces/justin-chen-J7Cf1Gch49E-unsplash.jpg,Stimuli/Experimental_stims/faces/aiony-haust-jmATI5Q_YgY-unsplash.jpg,0,1,724,0,unchosen,20,12,faces,faces,1900,0,1,3
233,15966,0,234,4,4,1,gain3,no_gain4,E,H,30,23,body_parts,faces,62,81,Stimuli/Experimental_stims/body_parts/mika-korhonen-Xodzxosar18-unsplash.jpg,Stimuli/Experimental_stims/faces/rikonavt-HQjfrvdTfak-unsplash.jpg,0,1,855,1,chosen,30,23,body_parts,faces,1100,0,1,3
234,15966,0,235,4,4,1,gain5,no_gain1,A,G,43,47,objects,objects,36,60,Stimuli/Experimental_stims/objects/jonathan-greenaway-Y4hGgeiFn3s-unsplash.jpg,Stimuli/Experimental_stims/objects/ronaldo-arthur-vidal-Cdz_lvnl37k-unsplash.jpg,0,1,1009,1,unchosen,43,47,objects,objects,1300,0,1,3
235,15966,0,236,4,4,0,no_gain4,gain4,H,K,23,28,faces,body_parts,81,73,Stimuli/Experimental_stims/faces/rikonavt-HQjfrvdTfak-unsplash.jpg,Stimuli/Experimental_stims/body_parts/ira-vishnevskaya-8DQAvdCby1I-unsplash.jpg,0,0,778,1,chosen,28,23,body_parts,faces,1900,0,1,3
236,15966,0,237,4,4,1,gain4,no_gain4,K,H,38,9,objects,outdoor_scenes,67,82,Stimuli/Experimental_stims/objects/art-lasovsky-8XddFc6NkBY-unsplash.jpg,Stimuli/Experimental_stims/outdoor_scenes/sergey-pesterev-y-b_FOmJXdg-unsplash.jpg,0,0,790,0,unchosen,9,38,outdoor_scenes,objects,1800,0,1,3
237,15966,0,238,4,4,1,gain4,no_gain5,K,B,38,19,objects,faces,67,61,Stimuli/Experimental_stims/objects/art-lasovsky-8XddFc6NkBY-unsplash.jpg,Stimuli/Experimental_stims/faces/joel-mott-LaK153ghdig-unsplash.jpg,0,0,759,0,unchosen,19,38,faces,objects,4300,1,1,3
238,15966,0,239,4,4,1,gain5,no_gain5,A,B,43,19,objects,faces,36,61,Stimuli/Experimental_stims/objects/jonathan-greenaway-Y4hGgeiFn3s-unsplash.jpg,Stimuli/Experimental_stims/faces/joel-mott-LaK153ghdig-unsplash.jpg,0,0,633,0,unchosen,19,43,faces,objects,2300,0,1,3
239,15966,0,240,4,4,1,gain3,no_gain2,E,I,30,29,body_parts,body_parts,62,58,Stimuli/Experimental_stims/body_parts/mika-korhonen-Xodzxosar18-unsplash.jpg,Stimuli/Experimental_stims/body_parts/manuel-schinner-ZwjFuJ7ebpk-unsplash.jpg,0,1,800,1,chosen,30,29,body_parts,body_parts,1200,0,1,3
240,15966,0,241,4,4,0,no_gain4,gain2,H,C,23,4,faces,outdoor_scenes,81,76,Stimuli/Experimental_stims/faces/rikonavt-HQjfrvdTfak-unsplash.jpg,Stimuli/Experimental_stims/outdoor_scenes/jarrett-kow-1ZOyYPOBn7I-unsplash.jpg,0,0,641,1,chosen,4,23,outdoor_scenes,faces,1300,0,1,3
241,15966,0,242,4,4,0,no_gain3,gain1,L,D,16,12,faces,faces,59,46,Stimuli/Experimental_stims/faces/freddy-kearney-o-ioeoATbIM-unsplash.jpg,Stimuli/Experimental_stims/faces/aiony-haust-jmATI5Q_YgY-unsplash.jpg,0,1,957,0,unchosen,16,12,faces,faces,1900,0,1,3
242,15966,0,243,4,4,1,gain3,no_gain6,E,J,39,20,objects,faces,59,50,Stimuli/Experimental_stims/objects/charlesdeluvio-1-nx1QR5dTE-unsplash.jpg,Stimuli/Experimental_stims/faces/justin-chen-J7Cf1Gch49E-unsplash.jpg,0,0,792,0,unchosen,20,39,faces,objects,1300,0,1,3
243,15966,0,244,4,4,1,gain4,no_gain1,K,G,28,11,body_parts,outdoor_scenes,73,79,Stimuli/Experimental_stims/body_parts/ira-vishnevskaya-8DQAvdCby1I-unsplash.jpg,Stimuli/Experimental_stims/outdoor_scenes/stephen-leonardi-gyIRjKPXupE-unsplash.jpg,0,0,799,0,chosen,11,28,outdoor_scenes,body_parts,4200,1,1,3
244,15966,0,245,4,4,0,no_gain2,gain5,I,A,8,43,outdoor_scenes,objects,72,36,Stimuli/Experimental_stims/outdoor_scenes/samsommer-vddccTqwal8-unsplash.jpg,Stimuli/Experimental_stims/objects/jonathan-greenaway-Y4hGgeiFn3s-unsplash.jpg,0,1,996,0,unchosen,8,43,outdoor_scenes,objects,2400,0,1,3
245,15966,0,246,4,4,1,gain2,no_gain2,C,I,4,29,outdoor_scenes,body_parts,76,58,Stimuli/Experimental_stims/outdoor_scenes/jarrett-kow-1ZOyYPOBn7I-unsplash.jpg,Stimuli/Experimental_stims/body_parts/manuel-schinner-ZwjFuJ7ebpk-unsplash.jpg,0,1,607,1,chosen,4,29,outdoor_scenes,body_parts,1700,0,1,3
246,15966,0,247,4,4,0,no_gain1,gain5,G,A,11,3,outdoor_scenes,outdoor_scenes,79,45,Stimuli/Experimental_stims/outdoor_scenes/stephen-leonardi-gyIRjKPXupE-unsplash.jpg,Stimuli/Experimental_stims/outdoor_scenes/henry-be-NLF6hTe4PAg-unsplash.jpg,0,0,848,1,chosen,3,11,outdoor_scenes,outdoor_scenes,1600,0,1,3
247,15966,0,248,4,4,1,gain3,no_gain5,E,B,39,19,objects,faces,59,61,Stimuli/Experimental_stims/objects/charlesdeluvio-1-nx1QR5dTE-unsplash.jpg,Stimuli/Experimental_stims/faces/joel-mott-LaK153ghdig-unsplash.jpg,0,0,939,0,unchosen,19,39,faces,objects,1100,0,1,3
248,15966,0,249,4,4,0,no_gain2,gain1,I,D,8,12,outdoor_scenes,faces,72,46,Stimuli/Experimental_stims/outdoor_scenes/samsommer-vddccTqwal8-unsplash.jpg,Stimuli/Experimental_stims/faces/aiony-haust-jmATI5Q_YgY-unsplash.jpg,0,1,801,0,unchosen,8,12,outdoor_scenes,faces,1200,0,1,3
249,15966,0,250,4,4,1,gain6,no_gain3,F,L,22,33,faces,body_parts,50,61,Stimuli/Experimental_stims/faces/ravi-patel-VMGAbeeJTKo-unsplash.jpg,Stimuli/Experimental_stims/body_parts/tucker-good-36skLT5jZcc-unsplash.jpg,0,1,771,1,chosen,22,33,faces,body_parts,3100,1,1,3
250,15966,0,251,4,4,1,gain3,no_gain6,E,J,30,44,body_parts,objects,62,46,Stimuli/Experimental_stims/body_parts/mika-korhonen-Xodzxosar18-unsplash.jpg,Stimuli/Experimental_stims/objects/kuiye-chen-NuOGFo4PudE-unsplash.jpg,0,1,670,1,chosen,30,44,body_parts,objects,2600,0,1,3
251,15966,0,252,4,4,0,no_gain1,gain6,G,F,47,34,objects,body_parts,60,48,Stimuli/Experimental_stims/objects/ronaldo-arthur-vidal-Cdz_lvnl37k-unsplash.jpg,Stimuli/Experimental_stims/body_parts/wagner-santos-mBWMvIuVnso-unsplash.jpg,0,1,971,0,unchosen,47,34,objects,body_parts,2400,0,1,3
252,15966,0,253,4,4,1,gain2,no_gain3,C,L,32,16,body_parts,faces,46,59,Stimuli/Experimental_stims/body_parts/towfiqu-barbhuiya-3AsiVDsZnHg-unsplash.jpg,Stimuli/Experimental_stims/faces/freddy-kearney-o-ioeoATbIM-unsplash.jpg,0,0,788,0,unchosen,16,32,faces,body_parts,1000,0,1,3
253,15966,0,254,4,4,0,no_gain6,gain4,J,K,44,28,objects,body_parts,46,73,Stimuli/Experimental_stims/objects/kuiye-chen-NuOGFo4PudE-unsplash.jpg,Stimuli/Experimental_stims/body_parts/ira-vishnevskaya-8DQAvdCby1I-unsplash.jpg,0,0,817,1,chosen,28,44,body_parts,objects,3000,0,1,3
254,15966,0,255,4,4,0,no_gain4,gain1,H,D,23,45,faces,objects,81,32,Stimuli/Experimental_stims/faces/rikonavt-HQjfrvdTfak-unsplash.jpg,Stimuli/Experimental_stims/objects/leohoho-rngTKHXumy0-unsplash.jpg,0,0,1040,1,chosen,45,23,objects,faces,2400,0,1,3
255,15966,0,256,4,4,0,no_gain2,gain3,I,E,8,39,outdoor_scenes,objects,72,59,Stimuli/Experimental_stims/outdoor_scenes/samsommer-vddccTqwal8-unsplash.jpg,Stimuli/Experimental_stims/objects/charlesdeluvio-1-nx1QR5dTE-unsplash.jpg,0,1,808,0,unchosen,8,39,outdoor_scenes,objects,2300,0,1,3
256,15966,0,257,4,4,1,gain3,no_gain3,E,L,30,33,body_parts,body_parts,62,61,Stimuli/Experimental_stims/body_parts/mika-korhonen-Xodzxosar18-unsplash.jpg,Stimuli/Experimental_stims/body_parts/tucker-good-36skLT5jZcc-unsplash.jpg,0,1,731,1,chosen,30,33,body_parts,body_parts,1900,0,1,3
257,15966,0,258,4,4,1,gain4,no_gain2,K,I,38,8,objects,outdoor_scenes,67,72,Stimuli/Experimental_stims/objects/art-lasovsky-8XddFc6NkBY-unsplash.jpg,Stimuli/Experimental_stims/outdoor_scenes/samsommer-vddccTqwal8-unsplash.jpg,0,0,832,0,unchosen,8,38,outdoor_scenes,objects,3200,1,1,3
258,15966,0,259,4,4,0,no_gain4,gain6,H,F,9,34,outdoor_scenes,body_parts,82,48,Stimuli/Experimental_stims/outdoor_scenes/sergey-pesterev-y-b_FOmJXdg-unsplash.jpg,Stimuli/Experimental_stims/body_parts/wagner-santos-mBWMvIuVnso-unsplash.jpg,0,1,706,0,unchosen,9,34,outdoor_scenes,body_parts,1000,0,1,3
259,15966,0,260,4,4,1,gain5,no_gain3,A,L,3,33,outdoor_scenes,body_parts,45,61,Stimuli/Experimental_stims/outdoor_scenes/henry-be-NLF6hTe4PAg-unsplash.jpg,Stimuli/Experimental_stims/body_parts/tucker-good-36skLT5jZcc-unsplash.jpg,0,1,859,1,chosen,3,33,outdoor_scenes,body_parts,1200,0,1,3
260,15966,0,261,4,4,0,no_gain5,gain4,B,K,0,28,outdoor_scenes,body_parts,57,73,Stimuli/Experimental_stims/outdoor_scenes/aleksandra-boguslawska-MS7KD9Ti7FQ-unsplash.jpg,Stimuli/Experimental_stims/body_parts/ira-vishnevskaya-8DQAvdCby1I-unsplash.jpg,0,0,652,1,chosen,28,0,body_parts,outdoor_scenes,2700,0,1,3
261,15966,0,262,4,4,0,no_gain1,gain1,G,D,11,45,outdoor_scenes,objects,79,32,Stimuli/Experimental_stims/outdoor_scenes/stephen-leonardi-gyIRjKPXupE-unsplash.jpg,Stimuli/Experimental_stims/objects/leohoho-rngTKHXumy0-unsplash.jpg,0,0,1069,1,chosen,45,11,objects,outdoor_scenes,1300,0,1,3
262,15966,0,263,4,4,0,no_gain1,gain2,G,C,47,32,objects,body_parts,60,46,Stimuli/Experimental_stims/objects/ronaldo-arthur-vidal-Cdz_lvnl37k-unsplash.jpg,Stimuli/Experimental_stims/body_parts/towfiqu-barbhuiya-3AsiVDsZnHg-unsplash.jpg,0,1,965,0,unchosen,47,32,objects,body_parts,1500,0,1,3
263,15966,0,264,4,4,1,gain3,no_gain5,E,B,30,0,body_parts,outdoor_scenes,62,57,Stimuli/Experimental_stims/body_parts/mika-korhonen-Xodzxosar18-unsplash.jpg,Stimuli/Experimental_stims/outdoor_scenes/aleksandra-boguslawska-MS7KD9Ti7FQ-unsplash.jpg,0,1,626,1,chosen,30,0,body_parts,outdoor_scenes,3700,1,1,3
264,15966,0,265,4,4,0,no_gain2,gain5,I,A,29,3,body_parts,outdoor_scenes,58,45,Stimuli/Experimental_stims/body_parts/manuel-schinner-ZwjFuJ7ebpk-unsplash.jpg,Stimuli/Experimental_stims/outdoor_scenes/henry-be-NLF6hTe4PAg-unsplash.jpg,0,0,709,1,chosen,3,29,outdoor_scenes,body_parts,1000,0,1,3
265,15966,0,266,4,4,1,gain4,no_gain6,K,J,38,20,objects,faces,67,50,Stimuli/Experimental_stims/objects/art-lasovsky-8XddFc6NkBY-unsplash.jpg,Stimuli/Experimental_stims/faces/justin-chen-J7Cf1Gch49E-unsplash.jpg,0,0,1044,0,unchosen,20,38,faces,objects,1700,0,1,3
266,15966,0,267,4,4,1,gain4,no_gain3,K,L,38,16,objects,faces,67,59,Stimuli/Experimental_stims/objects/art-lasovsky-8XddFc6NkBY-unsplash.jpg,Stimuli/Experimental_stims/faces/freddy-kearney-o-ioeoATbIM-unsplash.jpg,0,0,933,0,unchosen,16,38,faces,objects,1100,0,1,3
267,15966,0,268,4,4,0,no_gain4,gain3,H,E,9,39,outdoor_scenes,objects,82,59,Stimuli/Experimental_stims/outdoor_scenes/sergey-pesterev-y-b_FOmJXdg-unsplash.jpg,Stimuli/Experimental_stims/objects/charlesdeluvio-1-nx1QR5dTE-unsplash.jpg,0,1,734,0,unchosen,9,39,outdoor_scenes,objects,1200,0,1,3
268,15966,0,269,4,4,1,gain5,no_gain6,A,J,3,44,outdoor_scenes,objects,45,46,Stimuli/Experimental_stims/outdoor_scenes/henry-be-NLF6hTe4PAg-unsplash.jpg,Stimuli/Experimental_stims/objects/kuiye-chen-NuOGFo4PudE-unsplash.jpg,0,1,820,1,chosen,3,44,outdoor_scenes,objects,1300,0,1,3
269,15966,0,270,4,4,1,gain6,no_gain1,F,G,22,11,faces,outdoor_scenes,50,79,Stimuli/Experimental_stims/faces/ravi-patel-VMGAbeeJTKo-unsplash.jpg,Stimuli/Experimental_stims/outdoor_scenes/stephen-leonardi-gyIRjKPXupE-unsplash.jpg,0,1,795,1,chosen,22,11,faces,outdoor_scenes,1700,0,1,3
270,15966,0,271,4,4,1,gain2,no_gain2,C,I,32,8,body_parts,outdoor_scenes,46,72,Stimuli/Experimental_stims/body_parts/towfiqu-barbhuiya-3AsiVDsZnHg-unsplash.jpg,Stimuli/Experimental_stims/outdoor_scenes/samsommer-vddccTqwal8-unsplash.jpg,0,0,684,0,unchosen,8,32,outdoor_scenes,body_parts,3400,1,1,3
271,15966,0,272,4,4,0,no_gain5,gain6,B,F,19,34,faces,body_parts,61,48,Stimuli/Experimental_stims/faces/joel-mott-LaK153ghdig-unsplash.jpg,Stimuli/Experimental_stims/body_parts/wagner-santos-mBWMvIuVnso-unsplash.jpg,0,1,734,0,unchosen,19,34,faces,body_parts,2500,0,1,3
272,15966,0,273,4,4,1,gain2,no_gain1,C,G,4,11,outdoor_scenes,outdoor_scenes,76,79,Stimuli/Experimental_stims/outdoor_scenes/jarrett-kow-1ZOyYPOBn7I-unsplash.jpg,Stimuli/Experimental_stims/outdoor_scenes/stephen-leonardi-gyIRjKPXupE-unsplash.jpg,0,1,711,1,chosen,4,11,outdoor_scenes,outdoor_scenes,2600,0,1,3
273,15966,0,274,4,4,1,gain2,no_gain6,C,J,32,20,body_parts,faces,46,50,Stimuli/Experimental_stims/body_parts/towfiqu-barbhuiya-3AsiVDsZnHg-unsplash.jpg,Stimuli/Experimental_stims/faces/justin-chen-J7Cf1Gch49E-unsplash.jpg,0,0,801,0,unchosen,20,32,faces,body_parts,2000,0,1,3
274,15966,0,275,4,4,0,no_gain1,gain3,G,E,11,30,outdoor_scenes,body_parts,79,62,Stimuli/Experimental_stims/outdoor_scenes/stephen-leonardi-gyIRjKPXupE-unsplash.jpg,Stimuli/Experimental_stims/body_parts/mika-korhonen-Xodzxosar18-unsplash.jpg,0,0,983,1,chosen,30,11,body_parts,outdoor_scenes,1900,0,1,3
275,15966,0,276,4,4,0,no_gain2,gain6,I,F,8,34,outdoor_scenes,body_parts,72,48,Stimuli/Experimental_stims/outdoor_scenes/samsommer-vddccTqwal8-unsplash.jpg,Stimuli/Experimental_stims/body_parts/wagner-santos-mBWMvIuVnso-unsplash.jpg,0,1,1176,0,unchosen,8,34,outdoor_scenes,body_parts,1500,0,1,3
276,15966,0,277,4,4,1,gain2,no_gain5,C,B,32,19,body_parts,faces,46,61,Stimuli/Experimental_stims/body_parts/towfiqu-barbhuiya-3AsiVDsZnHg-unsplash.jpg,Stimuli/Experimental_stims/faces/joel-mott-LaK153ghdig-unsplash.jpg,0,0,1127,0,unchosen,19,32,faces,body_parts,2500,0,1,3
277,15966,0,278,4,4,0,no_gain6,gain6,J,F,44,22,objects,faces,46,50,Stimuli/Experimental_stims/objects/kuiye-chen-NuOGFo4PudE-unsplash.jpg,Stimuli/Experimental_stims/faces/ravi-patel-VMGAbeeJTKo-unsplash.jpg,0,0,858,1,chosen,22,44,faces,objects,1400,0,1,3
278,15966,0,279,4,4,0,no_gain3,gain2,L,C,33,4,body_parts,outdoor_scenes,61,76,Stimuli/Experimental_stims/body_parts/tucker-good-36skLT5jZcc-unsplash.jpg,Stimuli/Experimental_stims/outdoor_scenes/jarrett-kow-1ZOyYPOBn7I-unsplash.jpg,0,0,595,1,chosen,4,33,outdoor_scenes,body_parts,1300,0,1,3
279,15966,0,280,4,4,1,gain6,no_gain6,F,J,34,20,body_parts,faces,48,50,Stimuli/Experimental_stims/body_parts/wagner-santos-mBWMvIuVnso-unsplash.jpg,Stimuli/Experimental_stims/faces/justin-chen-J7Cf1Gch49E-unsplash.jpg,0,0,828,0,unchosen,20,34,faces,body_parts,1100,0,1,3
280,15966,0,281,4,4,1,gain6,no_gain2,F,I,22,29,faces,body_parts,50,58,Stimuli/Experimental_stims/faces/ravi-patel-VMGAbeeJTKo-unsplash.jpg,Stimuli/Experimental_stims/body_parts/manuel-schinner-ZwjFuJ7ebpk-unsplash.jpg,0,1,778,1,chosen,22,29,faces,body_parts,1100,0,1,3
281,15966,0,282,4,4,1,gain2,no_gain5,C,B,4,0,outdoor_scenes,outdoor_scenes,76,57,Stimuli/Experimental_stims/outdoor_scenes/jarrett-kow-1ZOyYPOBn7I-unsplash.jpg,Stimuli/Experimental_stims/outdoor_scenes/aleksandra-boguslawska-MS7KD9Ti7FQ-unsplash.jpg,0,1,598,1,chosen,4,0,outdoor_scenes,outdoor_scenes,3900,1,1,3
282,15966,0,283,4,4,1,gain2,no_gain4,C,H,32,9,body_parts,outdoor_scenes,46,82,Stimuli/Experimental_stims/body_parts/towfiqu-barbhuiya-3AsiVDsZnHg-unsplash.jpg,Stimuli/Experimental_stims/outdoor_scenes/sergey-pesterev-y-b_FOmJXdg-unsplash.jpg,0,0,973,0,unchosen,9,32,outdoor_scenes,body_parts,1200,0,1,3
283,15966,0,284,4,4,0,no_gain4,gain6,H,F,23,22,faces,faces,81,50,Stimuli/Experimental_stims/faces/rikonavt-HQjfrvdTfak-unsplash.jpg,Stimuli/Experimental_stims/faces/ravi-patel-VMGAbeeJTKo-unsplash.jpg,0,0,1000,1,chosen,22,23,faces,faces,1800,0,1,3
284,15966,0,285,4,4,0,no_gain1,gain3,G,E,47,39,objects,objects,60,59,Stimuli/Experimental_stims/objects/ronaldo-arthur-vidal-Cdz_lvnl37k-unsplash.jpg,Stimuli/Experimental_stims/objects/charlesdeluvio-1-nx1QR5dTE-unsplash.jpg,0,0,672,1,unchosen,39,47,objects,objects,1900,0,1,3
285,15966,0,286,4,4,1,gain1,no_gain3,D,L,45,33,objects,body_parts,32,61,Stimuli/Experimental_stims/objects/leohoho-rngTKHXumy0-unsplash.jpg,Stimuli/Experimental_stims/body_parts/tucker-good-36skLT5jZcc-unsplash.jpg,0,1,773,1,chosen,45,33,objects,body_parts,1100,0,1,3
286,15966,0,287,4,4,0,no_gain3,gain3,L,E,16,39,faces,objects,59,59,Stimuli/Experimental_stims/faces/freddy-kearney-o-ioeoATbIM-unsplash.jpg,Stimuli/Experimental_stims/objects/charlesdeluvio-1-nx1QR5dTE-unsplash.jpg,0,1,848,0,unchosen,16,39,faces,objects,3000,0,1,3
287,15966,0,288,4,4,0,no_gain5,gain1,B,D,19,12,faces,faces,61,46,Stimuli/Experimental_stims/faces/joel-mott-LaK153ghdig-unsplash.jpg,Stimuli/Experimental_stims/faces/aiony-haust-jmATI5Q_YgY-unsplash.jpg,0,1,860,0,unchosen,19,12,faces,faces,2800,0,1,3
288,15966,0,289,4,4,0,no_gain3,gain5,L,A,16,43,faces,objects,59,36,Stimuli/Experimental_stims/faces/freddy-kearney-o-ioeoATbIM-unsplash.jpg,Stimuli/Experimental_stims/objects/jonathan-greenaway-Y4hGgeiFn3s-unsplash.jpg,0,1,591,0,unchosen,16,43,faces,objects,1600,0,1,3
289,15966,0,290,4,4,0,no_gain6,gain1,J,D,44,45,objects,objects,46,32,Stimuli/Experimental_stims/objects/kuiye-chen-NuOGFo4PudE-unsplash.jpg,Stimuli/Experimental_stims/objects/leohoho-rngTKHXumy0-unsplash.jpg,0,0,758,1,chosen,45,44,objects,objects,1800,0,1,3
290,15966,0,291,4,4,0,no_gain2,gain1,I,D,29,45,body_parts,objects,58,32,Stimuli/Experimental_stims/body_parts/manuel-schinner-ZwjFuJ7ebpk-unsplash.jpg,Stimuli/Experimental_stims/objects/leohoho-rngTKHXumy0-unsplash.jpg,0,0,580,1,chosen,45,29,objects,body_parts,1900,0,1,3
291,15966,0,292,4,4,1,gain1,no_gain5,D,B,45,0,objects,outdoor_scenes,32,57,Stimuli/Experimental_stims/objects/leohoho-rngTKHXumy0-unsplash.jpg,Stimuli/Experimental_stims/outdoor_scenes/aleksandra-boguslawska-MS7KD9Ti7FQ-unsplash.jpg,0,1,747,1,chosen,45,0,objects,outdoor_scenes,1700,0,1,3