,PID,practice,trial,block,run,gain_left,left_item_id,right_item_id,left_pair_id,right_pair_id,left_stimulus,right_stimulus,left_category,right_category,left_path,right_path,no_response,left_chosen,rt,higher_outcome_chosen,choice_type,iti,long_iti,simulation,version,chosen_stimulus,unchosen_stimulus,chosen_category
0,19377,1,1,0,0,0,,,,,,,,,Stimuli/Practice_stims/Final_decisions/debby-hudson-FmCSSSGge-0-unsplash.jpg,Stimuli/Practice_stims/Final_decisions/yassine-khalfalli-adsQ9d_Cx0c-unsplash.jpg,1,NaN,,NaN,,3000,0,7,2,NaN,NaN,NaN
1,19377,1,2,0,0,0,,,,,,,,,Stimuli/Practice_stims/Final_decisions/florian-wehde-iVW7mZPwd4g-unsplash.jpg,Stimuli/Practice_stims/Final_decisions/patrick-perkins-3wylDrjxH-E-unsplash.jpg,1,NaN,,NaN,,1500,0,7,2,NaN,NaN,NaN
2,19377,1,3,0,0,0,,,,,,,,,Stimuli/Practice_stims/Final_decisions/debby-hudson-FmCSSSGge-0-unsplash.jpg,Stimuli/Practice_stims/Final_decisions/florian-wehde-iVW7mZPwd4g-unsplash.jpg,1,NaN,,NaN,,2000,0,7,2,NaN,NaN,NaN
3,19377,1,4,0,0,0,,,,,,,,,Stimuli/Practice_stims/Final_decisions/yassine-khalfalli-adsQ9d_Cx0c-unsplash.jpg,Stimuli/Practice_stims/Final_decisions/debby-hudson-FmCSSSGge-0-unsplash.jpg,1,NaN,,NaN,,1000,0,7,2,NaN,NaN,NaN
4,19377,0,5,1,1,1,gain2,no_gain3,D,K,13,45,faces,objects,Stimuli/Experimental_stims/faces/daniel-rigdon-dXmXKPP2L4E-unsplash.jpg,Stimuli/Experimental_stims/objects/leohoho-rngTKHXumy0-unsplash.jpg,1,NaN,,NaN,unchosen,4100,1,7,2,50,50,NaN,NaN,NaN
5,19377,0,6,1,1,1,gain3,no_gain5,L,C,32,3,body_parts,outdoor_scenes,Stimuli/Experimental_stims/body_parts/towfiqu-barbhuiya-3AsiVDsZnHg-unsplash.jpg,Stimuli/Experimental_stims/outdoor_scenes/henry-be-NLF6hTe4PAg-unsplash.jpg,1,NaN,,NaN,chosen,1200,0,7,2,50,50,NaN,NaN,NaN
6,19377,0,7,1,1,1,gain1,no_gain3,H,K,12,33,faces,body_parts,Stimuli/Experimental_stims/faces/aiony-haust-jmATI5Q_YgY-unsplash.jpg,Stimuli/Experimental_stims/body_parts/tucker-good-36skLT5jZcc-unsplash.jpg,1,NaN,,NaN,chosen,2600,0,7,2,50,50,NaN,NaN,NaN
7,19377,0,8,1,1,1,gain2,no_gain4,D,J,41,15,objects,faces,Stimuli/Experimental_stims/objects/insung-yoon-w2JtIQQXoRU-unsplash.jpg,Stimuli/Experimental_stims/faces/erik-lucatero-d2MSDujJl2g-unsplash.jpg,0,1,1,1,chosen,2000,0,7,2,50,50,41,faces,objects
8,19377,0,9,1,1,0,no_gain5,gain1,C,H,35,6,body_parts,outdoor_scenes,Stimuli/Experimental_stims/body_parts/wc-so-KH4AAPjb-tI-unsplash.jpg,Stimuli/Experimental_stims/outdoor_scenes/meng-ji-8BH_M-53CyA-unsplash.jpg,0,1,35,0,unchosen,1200,0,7,2,50,50,35,outdoor_scenes,body_parts
9,19377,0,10,1,1,0,no_gain4,gain3,J,L,15,32,faces,body_parts,Stimuli/Experimental_stims/faces/erik-lucatero-d2MSDujJl2g-unsplash.jpg,Stimuli/Experimental_stims/body_parts/towfiqu-barbhuiya-3AsiVDsZnHg-unsplash.jpg,0,1,42,0,chosen,3200,1,7,2,50,50,15,body_parts,faces
10,19377,0,11,1,1,0,no_gain1,gain3,F,L,16,32,faces,body_parts,Stimuli/Experimental_stims/faces/freddy-kearney-o-ioeoATbIM-unsplash.jpg,Stimuli/Experimental_stims/body_parts/towfiqu-barbhuiya-3AsiVDsZnHg-unsplash.jpg,0,1,40,0,chosen,1200,0,7,2,50,50,16,body_parts,faces
11,19377,0,12,1,1,0,no_gain2,gain1,E,H,44,12,objects,faces,Stimuli/Experimental_stims/objects/kuiye-chen-NuOGFo4PudE-unsplash.jpg,Stimuli/Experimental_stims/faces/aiony-haust-jmATI5Q_YgY-unsplash.jpg,0,1,29,0,chosen,1800,0,7,2,50,50,44,faces,objects
12,19377,0,13,1,1,1,gain2,no_gain1,D,F,13,29,faces,body_parts,Stimuli/Experimental_stims/faces/daniel-rigdon-dXmXKPP2L4E-unsplash.jpg,Stimuli/Experimental_stims/body_parts/manuel-schinner-ZwjFuJ7ebpk-unsplash.jpg,0,1,32,1,unchosen,1600,0,7,2,50,50,13,body_parts,faces
13,19377,0,14,1,1,0,no_gain6,gain6,A,I,46,1,objects,outdoor_scenes,Stimuli/Experimental_stims/objects/mockup-graphics-PNsj6RiHAF4-unsplash.jpg,Stimuli/Experimental_stims/outdoor_scenes/ashim-d-silva-S2Q5mdOrrVc-unsplash.jpg,0,1,46,0,unchosen,1300,0,7,2,50,50,46,outdoor_scenes,objects
14,19377,0,15,1,1,0,no_gain1,gain5,F,B,29,18,body_parts,faces,Stimuli/Experimental_stims/body_parts/manuel-schinner-ZwjFuJ7ebpk-unsplash.jpg,Stimuli/Experimental_stims/faces/jessica-radanavong-mrYkTuAesKE-unsplash.jpg,0,1,41,0,unchosen,1900,0,7,2,50,50,29,faces,body_parts
15,19377,0,16,1,1,0,no_gain3,gain2,K,D,33,41,body_parts,objects,Stimuli/Experimental_stims/body_parts/tucker-good-36skLT5jZcc-unsplash.jpg,Stimuli/Experimental_stims/objects/insung-yoon-w2JtIQQXoRU-unsplash.jpg,0,1,36,0,chosen,4100,1,7,2,50,50,33,objects,body_parts
16,19377,0,17,1,1,1,gain4,no_gain2,G,E,8,31,outdoor_scenes,body_parts,Stimuli/Experimental_stims/outdoor_scenes/samsommer-vddccTqwal8-unsplash.jpg,Stimuli/Experimental_stims/body_parts/sincerely-media-VN6DbKajo5s-unsplash.jpg,0,1,47,1,unchosen,1100,0,7,2,50,50,8,body_parts,outdoor_scenes
17,19377,0,18,1,1,1,gain6,no_gain2,I,E,34,44,body_parts,objects,Stimuli/Experimental_stims/body_parts/wagner-santos-mBWMvIuVnso-unsplash.jpg,Stimuli/Experimental_stims/objects/kuiye-chen-NuOGFo4PudE-unsplash.jpg,0,1,39,1,chosen,1200,0,7,2,50,50,34,objects,body_parts
18,19377,0,19,1,1,1,gain5,no_gain4,B,J,18,37,faces,objects,Stimuli/Experimental_stims/faces/jessica-radanavong-mrYkTuAesKE-unsplash.jpg,Stimuli/Experimental_stims/objects/alexander-andrews-VLGWE_SumrA-unsplash.jpg,0,1,37,1,unchosen,1400,0,7,2,50,50,18,objects,faces
19,19377,0,20,1,1,0,no_gain4,gain1,J,H,15,12,faces,faces,Stimuli/Experimental_stims/faces/erik-lucatero-d2MSDujJl2g-unsplash.jpg,Stimuli/Experimental_stims/faces/aiony-haust-jmATI5Q_YgY-unsplash.jpg,0,1,46,0,chosen,1300,0,7,2,50,50,15,faces,faces
20,19377,0,21,1,1,1,gain6,no_gain6,I,A,34,5,body_parts,outdoor_scenes,Stimuli/Experimental_stims/body_parts/wagner-santos-mBWMvIuVnso-unsplash.jpg,Stimuli/Experimental_stims/outdoor_scenes/jeff-king-bJHWJeiHfHc-unsplash.jpg,0,1,49,1,chosen,4600,1,7,2,50,50,34,outdoor_scenes,body_parts
21,19377,0,22,1,1,0,no_gain1,gain3,F,L,29,19,body_parts,faces,Stimuli/Experimental_stims/body_parts/manuel-schinner-ZwjFuJ7ebpk-unsplash.jpg,Stimuli/Experimental_stims/faces/joel-mott-LaK153ghdig-unsplash.jpg,0,1,29,0,unchosen,1000,0,7,2,50,50,29,faces,body_parts
22,19377,0,23,1,1,1,gain4,no_gain4,G,J,39,15,objects,faces,Stimuli/Experimental_stims/objects/charlesdeluvio-1-nx1QR5dTE-unsplash.jpg,Stimuli/Experimental_stims/faces/erik-lucatero-d2MSDujJl2g-unsplash.jpg,0,1,44,1,chosen,1100,0,7,2,50,50,39,faces,objects
23,19377,0,24,1,1,0,no_gain1,gain4,F,G,29,8,body_parts,outdoor_scenes,Stimuli/Experimental_stims/body_parts/manuel-schinner-ZwjFuJ7ebpk-unsplash.jpg,Stimuli/Experimental_stims/outdoor_scenes/samsommer-vddccTqwal8-unsplash.jpg,0,1,51,0,unchosen,1700,0,7,2,50,50,29,outdoor_scenes,body_parts
24,19377,0,25,1,1,0,no_gain3,gain5,K,B,45,18,objects,faces,Stimuli/Experimental_stims/objects/leohoho-rngTKHXumy0-unsplash.jpg,Stimuli/Experimental_stims/faces/jessica-radanavong-mrYkTuAesKE-unsplash.jpg,0,1,38,0,unchosen,2800,0,7,2,50,50,45,faces,objects
25,19377,0,26,1,1,1,gain4,no_gain3,G,K,39,33,objects,body_parts,Stimuli/Experimental_stims/objects/charlesdeluvio-1-nx1QR5dTE-unsplash.jpg,Stimuli/Experimental_stims/body_parts/tucker-good-36skLT5jZcc-unsplash.jpg,0,1,46,1,chosen,3200,1,7,2,50,50,39,body_parts,objects
26,19377,0,27,1,1,1,gain5,no_gain6,B,A,9,5,outdoor_scenes,outdoor_scenes,Stimuli/Experimental_stims/outdoor_scenes/sergey-pesterev-y-b_FOmJXdg-unsplash.jpg,Stimuli/Experimental_stims/outdoor_scenes/jeff-king-bJHWJeiHfHc-unsplash.jpg,0,1,81,1,chosen,2000,0,7,2,50,50,9,outdoor_scenes,outdoor_scenes
27,19377,0,28,1,1,0,no_gain3,gain3,K,L,45,19,objects,faces,Stimuli/Experimental_stims/objects/leohoho-rngTKHXumy0-unsplash.jpg,Stimuli/Experimental_stims/faces/joel-mott-LaK153ghdig-unsplash.jpg,0,1,50,0,unchosen,1600,0,7,2,50,50,45,faces,objects
28,19377,0,29,1,1,1,gain6,no_gain3,I,K,34,33,body_parts,body_parts,Stimuli/Experimental_stims/body_parts/wagner-santos-mBWMvIuVnso-unsplash.jpg,Stimuli/Experimental_stims/body_parts/tucker-good-36skLT5jZcc-unsplash.jpg,0,1,45,1,chosen,1300,0,7,2,50,50,34,body_parts,body_parts
29,19377,0,30,1,1,1,gain5,no_gain5,B,C,18,35,faces,body_parts,Stimuli/Experimental_stims/faces/jessica-radanavong-mrYkTuAesKE-unsplash.jpg,Stimuli/Experimental_stims/body_parts/wc-so-KH4AAPjb-tI-unsplash.jpg,0,1,39,1,unchosen,1200,0,7,2,50,50,18,body_parts,faces
30,19377,0,31,1,1,0,no_gain6,gain3,A,L,46,19,objects,faces,Stimuli/Experimental_stims/objects/mockup-graphics-PNsj6RiHAF4-unsplash.jpg,Stimuli/Experimental_stims/faces/joel-mott-LaK153ghdig-unsplash.jpg,0,1,46,0,unchosen,3500,1,7,2,50,50,46,faces,objects
31,19377,0,32,1,1,0,no_gain1,gain1,F,H,16,12,faces,faces,Stimuli/Experimental_stims/faces/freddy-kearney-o-ioeoATbIM-unsplash.jpg,Stimuli/Experimental_stims/faces/aiony-haust-jmATI5Q_YgY-unsplash.jpg,0,1,77,0,chosen,1800,0,7,2,50,50,16,faces,faces
32,19377,0,33,1,1,0,no_gain5,gain6,C,I,35,1,body_parts,outdoor_scenes,Stimuli/Experimental_stims/body_parts/wc-so-KH4AAPjb-tI-unsplash.jpg,Stimuli/Experimental_stims/outdoor_scenes/ashim-d-silva-S2Q5mdOrrVc-unsplash.jpg,1,NaN,,NaN,unchosen,1600,0,7,2,50,50,NaN,NaN,NaN
33,19377,0,34,1,1,0,no_gain1,gain5,F,B,16,9,faces,outdoor_scenes,Stimuli/Experimental_stims/faces/freddy-kearney-o-ioeoATbIM-unsplash.jpg,Stimuli/Experimental_stims/outdoor_scenes/sergey-pesterev-y-b_FOmJXdg-unsplash.jpg,0,1,8,0,chosen,2000,0,7,2,50,50,16,outdoor_scenes,faces
34,19377,0,35,1,1,0,no_gain5,gain5,C,B,3,9,outdoor_scenes,outdoor_scenes,Stimuli/Experimental_stims/outdoor_scenes/henry-be-NLF6hTe4PAg-unsplash.jpg,Stimuli/Experimental_stims/outdoor_scenes/sergey-pesterev-y-b_FOmJXdg-unsplash.jpg,0,1,52,0,chosen,1100,0,7,2,50,50,3,outdoor_scenes,outdoor_scenes
35,19377,0,36,1,1,1,gain1,no_gain2,H,E,6,31,outdoor_scenes,body_parts,Stimuli/Experimental_stims/outdoor_scenes/meng-ji-8BH_M-53CyA-unsplash.jpg,Stimuli/Experimental_stims/body_parts/sincerely-media-VN6DbKajo5s-unsplash.jpg,0,1,54,1,unchosen,2800,0,7,2,50,50,6,body_parts,outdoor_scenes
36,19377,0,37,1,1,0,no_gain2,gain5,E,B,44,9,objects,outdoor_scenes,Stimuli/Experimental_stims/objects/kuiye-chen-NuOGFo4PudE-unsplash.jpg,Stimuli/Experimental_stims/outdoor_scenes/sergey-pesterev-y-b_FOmJXdg-unsplash.jpg,0,1,52,0,chosen,3100,1,7,2,50,50,44,outdoor_scenes,objects
37,19377,0,38,1,1,0,no_gain4,gain2,J,D,37,13,objects,faces,Stimuli/Experimental_stims/objects/alexander-andrews-VLGWE_SumrA-unsplash.jpg,Stimuli/Experimental_stims/faces/daniel-rigdon-dXmXKPP2L4E-unsplash.jpg,0,1,24,0,unchosen,1100,0,7,2,50,50,37,faces,objects
38,19377,0,39,1,1,0,no_gain4,gain1,J,H,37,6,objects,outdoor_scenes,Stimuli/Experimental_stims/objects/alexander-andrews-VLGWE_SumrA-unsplash.jpg,Stimuli/Experimental_stims/outdoor_scenes/meng-ji-8BH_M-53CyA-unsplash.jpg,0,1,46,0,unchosen,1100,0,7,2,50,50,37,outdoor_scenes,objects
39,19377,0,40,1,1,1,gain2,no_gain1,D,F,41,16,objects,faces,Stimuli/Experimental_stims/objects/insung-yoon-w2JtIQQXoRU-unsplash.jpg,Stimuli/Experimental_stims/faces/freddy-kearney-o-ioeoATbIM-unsplash.jpg,0,1,28,1,chosen,1100,0,7,2,50,50,41,faces,objects
40,19377,0,41,1,1,1,gain2,no_gain5,D,C,13,35,faces,body_parts,Stimuli/Experimental_stims/faces/daniel-rigdon-dXmXKPP2L4E-unsplash.jpg,Stimuli/Experimental_stims/body_parts/wc-so-KH4AAPjb-tI-unsplash.jpg,0,1,30,1,unchosen,2300,0,7,2,50,50,13,body_parts,faces
41,19377,0,42,1,1,1,gain6,no_gain3,I,K,1,45,outdoor_scenes,objects,Stimuli/Experimental_stims/outdoor_scenes/ashim-d-silva-S2Q5mdOrrVc-unsplash.jpg,Stimuli/Experimental_stims/objects/leohoho-rngTKHXumy0-unsplash.jpg,0,1,54,1,unchosen,3700,1,7,2,50,50,1,objects,outdoor_scenes
42,19377,0,43,1,1,0,no_gain6,gain5,A,B,46,18,objects,faces,Stimuli/Experimental_stims/objects/mockup-graphics-PNsj6RiHAF4-unsplash.jpg,Stimuli/Experimental_stims/faces/jessica-radanavong-mrYkTuAesKE-unsplash.jpg,0,1,34,0,unchosen,2400,0,7,2,50,50,46,faces,objects
43,19377,0,44,1,1,0,no_gain5,gain6,C,I,3,34,outdoor_scenes,body_parts,Stimuli/Experimental_stims/outdoor_scenes/henry-be-NLF6hTe4PAg-unsplash.jpg,Stimuli/Experimental_stims/body_parts/wagner-santos-mBWMvIuVnso-unsplash.jpg,0,1,38,0,chosen,1400,0,7,2,50,50,3,body_parts,outdoor_scenes
44,19377,0,45,1,1,0,no_gain2,gain6,E,I,31,1,body_parts,outdoor_scenes,Stimuli/Experimental_stims/body_parts/sincerely-media-VN6DbKajo5s-unsplash.jpg,Stimuli/Experimental_stims/outdoor_scenes/ashim-d-silva-S2Q5mdOrrVc-unsplash.jpg,0,1,54,0,unchosen,2500,0,7,2,50,50,31,outdoor_scenes,body_parts
45,19377,0,46,1,1,1,gain6,no_gain1,I,F,34,16,body_parts,faces,Stimuli/Experimental_stims/body_parts/wagner-santos-mBWMvIuVnso-unsplash.jpg,Stimuli/Experimental_stims/faces/freddy-kearney-o-ioeoATbIM-unsplash.jpg,0,1,33,1,chosen,2600,0,7,2,50,50,34,faces,body_parts
46,19377,0,47,1,1,1,gain2,no_gain2,D,E,41,44,objects,objects,Stimuli/Experimental_stims/objects/insung-yoon-w2JtIQQXoRU-unsplash.jpg,Stimuli/Experimental_stims/objects/kuiye-chen-NuOGFo4PudE-unsplash.jpg,0,1,42,1,chosen,1100,0,7,2,50,50,41,objects,objects
47,19377,0,48,1,1,0,no_gain6,gain1,A,H,46,6,objects,outdoor_scenes,Stimuli/Experimental_stims/objects/mockup-graphics-PNsj6RiHAF4-unsplash.jpg,Stimuli/Experimental_stims/outdoor_scenes/meng-ji-8BH_M-53CyA-unsplash.jpg,0,1,69,0,unchosen,4800,1,7,2,50,50,46,outdoor_scenes,objects
48,19377,0,49,1,1,1,gain4,no_gain3,G,K,8,45,outdoor_scenes,objects,Stimuli/Experimental_stims/outdoor_scenes/samsommer-vddccTqwal8-unsplash.jpg,Stimuli/Experimental_stims/objects/leohoho-rngTKHXumy0-unsplash.jpg,0,1,46,1,unchosen,1600,0,7,2,50,50,8,objects,outdoor_scenes
49,19377,0,50,1,1,1,gain6,no_gain4,I,J,34,15,body_parts,faces,Stimuli/Experimental_stims/body_parts/wagner-santos-mBWMvIuVnso-unsplash.jpg,Stimuli/Experimental_stims/faces/erik-lucatero-d2MSDujJl2g-unsplash.jpg,0,1,41,1,chosen,2800,0,7,2,50,50,34,faces,body_parts
50,19377,0,51,1,1,1,gain1,no_gain3,H,K,6,45,outdoor_scenes,objects,Stimuli/Experimental_stims/outdoor_scenes/meng-ji-8BH_M-53CyA-unsplash.jpg,Stimuli/Experimental_stims/objects/leohoho-rngTKHXumy0-unsplash.jpg,0,1,30,1,unchosen,2300,0,7,2,50,50,6,objects,outdoor_scenes
51,19377,0,52,1,1,1,gain3,no_gain5,L,C,19,35,faces,body_parts,Stimuli/Experimental_stims/faces/joel-mott-LaK153ghdig-unsplash.jpg,Stimuli/Experimental_stims/body_parts/wc-so-KH4AAPjb-tI-unsplash.jpg,0,1,43,1,unchosen,2400,0,7,2,50,50,19,body_parts,faces
52,19377,0,53,1,1,1,gain4,no_gain4,G,J,8,37,outdoor_scenes,objects,Stimuli/Experimental_stims/outdoor_scenes/samsommer-vddccTqwal8-unsplash.jpg,Stimuli/Experimental_stims/objects/alexander-andrews-VLGWE_SumrA-unsplash.jpg,0,1,35,1,unchosen,1800,0,7,2,50,50,8,objects,outdoor_scenes
53,19377,0,54,1,1,0,no_gain6,gain1,A,H,5,12,outdoor_scenes,faces,Stimuli/Experimental_stims/outdoor_scenes/jeff-king-bJHWJeiHfHc-unsplash.jpg,Stimuli/Experimental_stims/faces/aiony-haust-jmATI5Q_YgY-unsplash.jpg,0,1,43,0,chosen,1500,0,7,2,50,50,5,faces,outdoor_scenes
54,19377,0,55,1,1,1,gain6,no_gain4,I,J,1,37,outdoor_scenes,objects,Stimuli/Experimental_stims/outdoor_scenes/ashim-d-silva-S2Q5mdOrrVc-unsplash.jpg,Stimuli/Experimental_stims/objects/alexander-andrews-VLGWE_SumrA-unsplash.jpg,0,1,48,1,unchosen,1900,0,7,2,50,50,1,objects,outdoor_scenes
55,19377,0,56,1,1,1,gain3,no_gain2,L,E,19,31,faces,body_parts,Stimuli/Experimental_stims/faces/joel-mott-LaK153ghdig-unsplash.jpg,Stimuli/Experimental_stims/body_parts/sincerely-media-VN6DbKajo5s-unsplash.jpg,0,1,32,1,unchosen,1100,0,7,2,50,50,19,body_parts,faces
56,19377,0,57,1,1,0,no_gain2,gain2,E,D,31,13,body_parts,faces,Stimuli/Experimental_stims/body_parts/sincerely-media-VN6DbKajo5s-unsplash.jpg,Stimuli/Experimental_stims/faces/daniel-rigdon-dXmXKPP2L4E-unsplash.jpg,0,1,25,0,unchosen,1700,0,7,2,50,50,31,faces,body_parts
57,19377,0,58,1,1,1,gain5,no_gain3,B,K,9,33,outdoor_scenes,body_parts,Stimuli/Experimental_stims/outdoor_scenes/sergey-pesterev-y-b_FOmJXdg-unsplash.jpg,Stimuli/Experimental_stims/body_parts/tucker-good-36skLT5jZcc-unsplash.jpg,0,1,48,1,chosen,1600,0,7,2,50,50,9,body_parts,outdoor_scenes
58,19377,0,59,1,1,1,gain6,no_gain1,I,F,1,29,outdoor_scenes,body_parts,Stimuli/Experimental_stims/outdoor_scenes/ashim-d-silva-S2Q5mdOrrVc-unsplash.jpg,Stimuli/Experimental_stims/body_parts/manuel-schinner-ZwjFuJ7ebpk-unsplash.jpg,0,1,27,1,unchosen,1700,0,7,2,50,50,1,body_parts,outdoor_scenes
59,19377,0,60,1,1,0,no_gain5,gain4,C,G,3,39,outdoor_scenes,objects,Stimuli/Experimental_stims/outdoor_scenes/henry-be-NLF6hTe4PAg-unsplash.jpg,Stimuli/Experimental_stims/objects/charlesdeluvio-1-nx1QR5dTE-unsplash.jpg,0,1,27,0,chosen,3000,0,7,2,50,50,3,objects,outdoor_scenes
60,19377,0,61,1,1,1,gain3,no_gain6,L,A,32,5,body_parts,outdoor_scenes,Stimuli/Experimental_stims/body_parts/towfiqu-barbhuiya-3AsiVDsZnHg-unsplash.jpg,Stimuli/Experimental_stims/outdoor_scenes/jeff-king-bJHWJeiHfHc-unsplash.jpg,0,1,51,1,chosen,2100,0,7,2,50,50,32,outdoor_scenes,body_parts
61,19377,0,62,1,1,1,gain5,no_gain2,B,E,18,31,faces,body_parts,Stimuli/Experimental_stims/faces/jessica-radanavong-mrYkTuAesKE-unsplash.jpg,Stimuli/Experimental_stims/body_parts/sincerely-media-VN6DbKajo5s-unsplash.jpg,0,1,43,1,unchosen,3200,1,7,2,50,50,18,body_parts,faces
62,19377,0,63,1,1,1,gain1,no_gain5,H,C,12,3,faces,outdoor_scenes,Stimuli/Experimental_stims/faces/aiony-haust-jmATI5Q_YgY-unsplash.jpg,Stimuli/Experimental_stims/outdoor_scenes/henry-be-NLF6hTe4PAg-unsplash.jpg,0,1,39,1,chosen,1600,0,7,2,50,50,12,outdoor_scenes,faces
63,19377,0,64,1,1,0,no_gain2,gain4,E,G,44,39,objects,objects,Stimuli/Experimental_stims/objects/kuiye-chen-NuOGFo4PudE-unsplash.jpg,Stimuli/Experimental_stims/objects/charlesdeluvio-1-nx1QR5dTE-unsplash.jpg,0,1,32,0,chosen,1300,0,7,2,50,50,44,objects,objects
64,19377,0,65,1,1,0,no_gain1,gain1,F,H,29,6,body_parts,outdoor_scenes,Stimuli/Experimental_stims/body_parts/manuel-schinner-ZwjFuJ7ebpk-unsplash.jpg,Stimuli/Experimental_stims/outdoor_scenes/meng-ji-8BH_M-53CyA-unsplash.jpg,0,1,54,0,unchosen,1800,0,7,2,50,50,29,outdoor_scenes,body_parts
65,19377,0,66,1,1,0,no_gain1,gain4,F,G,16,39,faces,objects,Stimuli/Experimental_stims/faces/freddy-kearney-o-ioeoATbIM-unsplash.jpg,Stimuli/Experimental_stims/objects/charlesdeluvio-1-nx1QR5dTE-unsplash.jpg,0,1,31,0,chosen,1400,0,7,2,50,50,16,objects,faces
66,19377,0,67,1,1,0,no_gain3,gain3,K,L,33,32,body_parts,body_parts,Stimuli/Experimental_stims/body_parts/tucker-good-36skLT5jZcc-unsplash.jpg,Stimuli/Experimental_stims/body_parts/towfiqu-barbhuiya-3AsiVDsZnHg-unsplash.jpg,0,1,46,0,chosen,1500,0,7,2,50,50,33,body_parts,body_parts
67,19377,0,68,1,1,0,no_gain6,gain2,A,D,5,41,outdoor_scenes,objects,Stimuli/Experimental_stims/outdoor_scenes/jeff-king-bJHWJeiHfHc-unsplash.jpg,Stimuli/Experimental_stims/objects/insung-yoon-w2JtIQQXoRU-unsplash.jpg,0,1,31,0,chosen,1100,0,7,2,50,50,5,objects,outdoor_scenes
68,19377,0,69,1,1,0,no_gain6,gain4,A,G,46,8,objects,outdoor_scenes,Stimuli/Experimental_stims/objects/mockup-graphics-PNsj6RiHAF4-unsplash.jpg,Stimuli/Experimental_stims/outdoor_scenes/samsommer-vddccTqwal8-unsplash.jpg,0,1,36,0,unchosen,4300,1,7,2,50,50,46,outdoor_scenes,objects
69,19377,0,70,1,1,0,no_gain2,gain3,E,L,44,32,objects,body_parts,Stimuli/Experimental_stims/objects/kuiye-chen-NuOGFo4PudE-unsplash.jpg,Stimuli/Experimental_stims/body_parts/towfiqu-barbhuiya-3AsiVDsZnHg-unsplash.jpg,0,1,50,0,chosen,1100,0,7,2,50,50,44,body_parts,objects
70,19377,0,71,1,1,1,gain2,no_gain5,D,C,41,3,objects,outdoor_scenes,Stimuli/Experimental_stims/objects/insung-yoon-w2JtIQQXoRU-unsplash.jpg,Stimuli/Experimental_stims/outdoor_scenes/henry-be-NLF6hTe4PAg-unsplash.jpg,0,1,35,1,chosen,1300,0,7,2,50,50,41,outdoor_scenes,objects
71,19377,0,72,1,1,1,gain2,no_gain6,D,A,13,46,faces,objects,Stimuli/Experimental_stims/faces/daniel-rigdon-dXmXKPP2L4E-unsplash.jpg,Stimuli/Experimental_stims/objects/mockup-graphics-PNsj6RiHAF4-unsplash.jpg,0,1,38,1,unchosen,2000,0,7,2,50,50,13,objects,faces
72,19377,0,73,1,1,0,no_gain4,gain3,J,L,37,19,objects,faces,Stimuli/Experimental_stims/objects/alexander-andrews-VLGWE_SumrA-unsplash.jpg,Stimuli/Experimental_stims/faces/joel-mott-LaK153ghdig-unsplash.jpg,0,1,37,0,unchosen,1900,0,7,2,50,50,37,faces,objects
73,19377,0,74,1,1,0,no_gain4,gain5,J,B,15,9,faces,outdoor_scenes,Stimuli/Experimental_stims/faces/erik-lucatero-d2MSDujJl2g-unsplash.jpg,Stimuli/Experimental_stims/outdoor_scenes/sergey-pesterev-y-b_FOmJXdg-unsplash.jpg,0,1,38,0,chosen,2200,0,7,2,50,50,15,outdoor_scenes,faces
74,19377,0,75,1,1,1,gain4,no_gain6,G,A,39,5,objects,outdoor_scenes,Stimuli/Experimental_stims/objects/charlesdeluvio-1-nx1QR5dTE-unsplash.jpg,Stimuli/Experimental_stims/outdoor_scenes/jeff-king-bJHWJeiHfHc-unsplash.jpg,0,1,41,1,chosen,1000,0,7,2,50,50,39,outdoor_scenes,objects
75,19377,0,76,1,1,1,gain4,no_gain5,G,C,8,35,outdoor_scenes,body_parts,Stimuli/Experimental_stims/outdoor_scenes/samsommer-vddccTqwal8-unsplash.jpg,Stimuli/Experimental_stims/body_parts/wc-so-KH4AAPjb-tI-unsplash.jpg,0,1,32,1,unchosen,1100,0,7,2,50,50,8,body_parts,outdoor_scenes
76,19377,0,77,2,2,1,gain6,no_gain3,I,K,1,45,outdoor_scenes,objects,Stimuli/Experimental_stims/outdoor_scenes/ashim-d-silva-S2Q5mdOrrVc-unsplash.jpg,Stimuli/Experimental_stims/objects/leohoho-rngTKHXumy0-unsplash.jpg,1,NaN,,NaN,unchosen,3800,1,10,2,50,50,NaN,NaN,NaN
77,19377,0,78,2,2,1,gain6,no_gain4,I,J,34,15,body_parts,faces,Stimuli/Experimental_stims/body_parts/wagner-santos-mBWMvIuVnso-unsplash.jpg,Stimuli/Experimental_stims/faces/erik-lucatero-d2MSDujJl2g-unsplash.jpg,0,1,83,1,chosen,2000,0,10,2,50,50,34,faces,body_parts
78,19377,0,79,2,2,1,gain3,no_gain1,L,F,32,16,body_parts,faces,Stimuli/Experimental_stims/body_parts/towfiqu-barbhuiya-3AsiVDsZnHg-unsplash.jpg,Stimuli/Experimental_stims/faces/freddy-kearney-o-ioeoATbIM-unsplash.jpg,0,1,43,1,chosen,3000,0,10,2,50,50,32,faces,body_parts
79,19377,0,80,2,2,1,gain4,no_gain3,G,K,8,45,outdoor_scenes,objects,Stimuli/Experimental_stims/outdoor_scenes/samsommer-vddccTqwal8-unsplash.jpg,Stimuli/Experimental_stims/objects/leohoho-rngTKHXumy0-unsplash.jpg,0,1,48,1,unchosen,1400,0,10,2,50,50,8,objects,outdoor_scenes
80,19377,0,81,2,2,1,gain6,no_gain6,I,A,34,5,body_parts,outdoor_scenes,Stimuli/Experimental_stims/body_parts/wagner-santos-mBWMvIuVnso-unsplash.jpg,Stimuli/Experimental_stims/outdoor_scenes/jeff-king-bJHWJeiHfHc-unsplash.jpg,0,1,40,1,chosen,2900,0,10,2,50,50,34,outdoor_scenes,body_parts
81,19377,0,82,2,2,1,gain2,no_gain1,D,F,41,16,objects,faces,Stimuli/Experimental_stims/objects/insung-yoon-w2JtIQQXoRU-unsplash.jpg,Stimuli/Experimental_stims/faces/freddy-kearney-o-ioeoATbIM-unsplash.jpg,0,1,39,1,chosen,2000,0,10,2,50,50,41,faces,objects
82,19377,0,83,2,2,0,no_gain1,gain3,F,L,29,19,body_parts,faces,Stimuli/Experimental_stims/body_parts/manuel-schinner-ZwjFuJ7ebpk-unsplash.jpg,Stimuli/Experimental_stims/faces/joel-mott-LaK153ghdig-unsplash.jpg,0,1,56,0,unchosen,2700,0,10,2,50,50,29,faces,body_parts
83,19377,0,84,2,2,0,no_gain6,gain2,A,D,5,41,outdoor_scenes,objects,Stimuli/Experimental_stims/outdoor_scenes/jeff-king-bJHWJeiHfHc-unsplash.jpg,Stimuli/Experimental_stims/objects/insung-yoon-w2JtIQQXoRU-unsplash.jpg,0,1,33,0,chosen,3600,1,10,2,50,50,5,objects,outdoor_scenes
84,19377,0,85,2,2,0,no_gain3,gain2,K,D,45,13,objects,faces,Stimuli/Experimental_stims/objects/leohoho-rngTKHXumy0-unsplash.jpg,Stimuli/Experimental_stims/faces/daniel-rigdon-dXmXKPP2L4E-unsplash.jpg,0,1,33,0,unchosen,1300,0,10,2,50,50,45,faces,objects
85,19377,0,86,2,2,1,gain6,no_gain1,I,F,1,29,outdoor_scenes,body_parts,Stimuli/Experimental_stims/outdoor_scenes/ashim-d-silva-S2Q5mdOrrVc-unsplash.jpg,Stimuli/Experimental_stims/body_parts/manuel-schinner-ZwjFuJ7ebpk-unsplash.jpg,0,1,36,1,unchosen,3000,0,10,2,50,50,1,body_parts,outdoor_scenes
86,19377,0,87,2,2,0,no_gain5,gain4,C,G,35,8,body_parts,outdoor_scenes,Stimuli/Experimental_stims/body_parts/wc-so-KH4AAPjb-tI-unsplash.jpg,Stimuli/Experimental_stims/outdoor_scenes/samsommer-vddccTqwal8-unsplash.jpg,0,1,32,0,unchosen,2600,0,10,2,50,50,35,outdoor_scenes,body_parts
87,19377,0,88,2,2,0,no_gain2,gain3,E,L,44,32,objects,body_parts,Stimuli/Experimental_stims/objects/kuiye-chen-NuOGFo4PudE-unsplash.jpg,Stimuli/Experimental_stims/body_parts/towfiqu-barbhuiya-3AsiVDsZnHg-unsplash.jpg,0,1,52,0,chosen,1100,0,10,2,50,50,44,body_parts,objects
88,19377,0,89,2,2,0,no_gain1,gain1,F,H,16,12,faces,faces,Stimuli/Experimental_stims/faces/freddy-kearney-o-ioeoATbIM-unsplash.jpg,Stimuli/Experimental_stims/faces/aiony-haust-jmATI5Q_YgY-unsplash.jpg,0,1,40,0,chosen,1400,0,10,2,50,50,16,faces,faces
89,19377,0,90,2,2,0,no_gain5,gain2,C,D,35,13,body_parts,faces,Stimuli/Experimental_stims/body_parts/wc-so-KH4AAPjb-tI-unsplash.jpg,Stimuli/Experimental_stims/faces/daniel-rigdon-dXmXKPP2L4E-unsplash.jpg,0,1,48,0,unchosen,1100,0,10,2,50,50,35,faces,body_parts
90,19377,0,91,2,2,1,gain3,no_gain3,L,K,19,45,faces,objects,Stimuli/Experimental_stims/faces/joel-mott-LaK153ghdig-unsplash.jpg,Stimuli/Experimental_stims/objects/leohoho-rngTKHXumy0-unsplash.jpg,0,1,32,1,unchosen,2900,0,10,2,50,50,19,objects,faces
91,19377,0,92,2,2,1,gain5,no_gain4,B,J,9,15,outdoor_scenes,faces,Stimuli/Experimental_stims/outdoor_scenes/sergey-pesterev-y-b_FOmJXdg-unsplash.jpg,Stimuli/Experimental_stims/faces/erik-lucatero-d2MSDujJl2g-unsplash.jpg,0,1,42,1,chosen,1600,0,10,2,50,50,9,faces,outdoor_scenes
92,19377,0,93,2,2,1,gain2,no_gain6,D,A,13,46,faces,objects,Stimuli/Experimental_stims/faces/daniel-rigdon-dXmXKPP2L4E-unsplash.jpg,Stimuli/Experimental_stims/objects/mockup-graphics-PNsj6RiHAF4-unsplash.jpg,0,1,51,1,unchosen,1500,0,10,2,50,50,13,objects,faces
93,19377,0,94,2,2,0,no_gain5,gain6,C,I,35,1,body_parts,outdoor_scenes,Stimuli/Experimental_stims/body_parts/wc-so-KH4AAPjb-tI-unsplash.jpg,Stimuli/Experimental_stims/outdoor_scenes/ashim-d-silva-S2Q5mdOrrVc-unsplash.jpg,0,1,32,0,unchosen,3800,1,10,2,50,50,35,outdoor_scenes,body_parts
94,19377,0,95,2,2,0,no_gain6,gain4,A,G,5,39,outdoor_scenes,objects,Stimuli/Experimental_stims/outdoor_scenes/jeff-king-bJHWJeiHfHc-unsplash.jpg,Stimuli/Experimental_stims/objects/charlesdeluvio-1-nx1QR5dTE-unsplash.jpg,0,1,52,0,chosen,1500,0,10,2,50,50,5,objects,outdoor_scenes
95,19377,0,96,2,2,1,gain5,no_gain2,B,E,18,31,faces,body_parts,Stimuli/Experimental_stims/faces/jessica-radanavong-mrYkTuAesKE-unsplash.jpg,Stimuli/Experimental_stims/body_parts/sincerely-media-VN6DbKajo5s-unsplash.jpg,0,1,38,1,unchosen,1000,0,10,2,50,50,18,body_parts,faces
96,19377,0,97,2,2,1,gain4,no_gain4,G,J,8,37,outdoor_scenes,objects,Stimuli/Experimental_stims/outdoor_scenes/samsommer-vddccTqwal8-unsplash.jpg,Stimuli/Experimental_stims/objects/alexander-andrews-VLGWE_SumrA-unsplash.jpg,0,1,56,1,unchosen,1600,0,10,2,50,50,8,objects,outdoor_scenes
97,19377,0,98,2,2,0,no_gain5,gain3,C,L,3,32,outdoor_scenes,body_parts,Stimuli/Experimental_stims/outdoor_scenes/henry-be-NLF6hTe4PAg-unsplash.jpg,Stimuli/Experimental_stims/body_parts/towfiqu-barbhuiya-3AsiVDsZnHg-unsplash.jpg,0,1,39,0,chosen,1300,0,10,2,50,50,3,body_parts,outdoor_scenes
98,19377,0,99,2,2,1,gain2,no_gain4,D,J,41,15,objects,faces,Stimuli/Experimental_stims/objects/insung-yoon-w2JtIQQXoRU-unsplash.jpg,Stimuli/Experimental_stims/faces/erik-lucatero-d2MSDujJl2g-unsplash.jpg,0,1,46,1,chosen,3500,1,10,2,50,50,41,faces,objects
99,19377,0,100,2,2,0,no_gain2,gain4,E,G,44,39,objects,objects,Stimuli/Experimental_stims/objects/kuiye-chen-NuOGFo4PudE-unsplash.jpg,Stimuli/Experimental_stims/objects/charlesdeluvio-1-nx1QR5dTE-unsplash.jpg,0,1,43,0,chosen,2500,0,10,2,50,50,44,objects,objects
100,19377,0,101,2,2,1,gain5,no_gain6,B,A,18,46,faces,objects,Stimuli/Experimental_stims/faces/jessica-radanavong-mrYkTuAesKE-unsplash.jpg,Stimuli/Experimental_stims/objects/mockup-graphics-PNsj6RiHAF4-unsplash.jpg,0,1,27,1,unchosen,1100,0,10,2,50,50,18,objects,faces
101,19377,0,102,2,2,1,gain3,no_gain3,L,K,32,33,body_parts,body_parts,Stimuli/Experimental_stims/body_parts/towfiqu-barbhuiya-3AsiVDsZnHg-unsplash.jpg,Stimuli/Experimental_stims/body_parts/tucker-good-36skLT5jZcc-unsplash.jpg,0,1,57,1,chosen,1000,0,10,2,50,50,32,body_parts,body_parts
102,19377,0,103,2,2,0,no_gain2,gain1,E,H,31,6,body_parts,outdoor_scenes,Stimuli/Experimental_stims/body_parts/sincerely-media-VN6DbKajo5s-unsplash.jpg,Stimuli/Experimental_stims/outdoor_scenes/meng-ji-8BH_M-53CyA-unsplash.jpg,0,1,56,0,unchosen,2100,0,10,2,50,50,31,outdoor_scenes,body_parts
103,19377,0,104,2,2,1,gain4,no_gain4,G,J,39,15,objects,faces,Stimuli/Experimental_stims/objects/charlesdeluvio-1-nx1QR5dTE-unsplash.jpg,Stimuli/Experimental_stims/faces/erik-lucatero-d2MSDujJl2g-unsplash.jpg,0,1,64,1,chosen,1300,0,10,2,50,50,39,faces,objects
104,19377,0,105,2,2,0,no_gain2,gain4,E,G,31,8,body_parts,outdoor_scenes,Stimuli/Experimental_stims/body_parts/sincerely-media-VN6DbKajo5s-unsplash.jpg,Stimuli/Experimental_stims/outdoor_scenes/samsommer-vddccTqwal8-unsplash.jpg,0,1,25,0,unchosen,2000,0,10,2,50,50,31,outdoor_scenes,body_parts
105,19377,0,106,2,2,1,gain5,no_gain1,B,F,9,16,outdoor_scenes,faces,Stimuli/Experimental_stims/outdoor_scenes/sergey-pesterev-y-b_FOmJXdg-unsplash.jpg,Stimuli/Experimental_stims/faces/freddy-kearney-o-ioeoATbIM-unsplash.jpg,0,1,43,1,chosen,3100,1,10,2,50,50,9,faces,outdoor_scenes
106,19377,0,107,2,2,0,no_gain6,gain3,A,L,46,19,objects,faces,Stimuli/Experimental_stims/objects/mockup-graphics-PNsj6RiHAF4-unsplash.jpg,Stimuli/Experimental_stims/faces/joel-mott-LaK153ghdig-unsplash.jpg,0,1,43,0,unchosen,1400,0,10,2,50,50,46,faces,objects
107,19377,0,108,2,2,1,gain6,no_gain1,I,F,34,16,body_parts,faces,Stimuli/Experimental_stims/body_parts/wagner-santos-mBWMvIuVnso-unsplash.jpg,Stimuli/Experimental_stims/faces/freddy-kearney-o-ioeoATbIM-unsplash.jpg,0,1,24,1,chosen,1300,0,10,2,50,50,34,faces,body_parts
108,19377,0,109,2,2,0,no_gain2,gain5,E,B,44,9,objects,outdoor_scenes,Stimuli/Experimental_stims/objects/kuiye-chen-NuOGFo4PudE-unsplash.jpg,Stimuli/Experimental_stims/outdoor_scenes/sergey-pesterev-y-b_FOmJXdg-unsplash.jpg,0,1,41,0,chosen,1300,0,10,2,50,50,44,outdoor_scenes,objects
109,19377,0,110,2,2,0,no_gain5,gain5,C,B,35,18,body_parts,faces,Stimuli/Experimental_stims/body_parts/wc-so-KH4AAPjb-tI-unsplash.jpg,Stimuli/Experimental_stims/faces/jessica-radanavong-mrYkTuAesKE-unsplash.jpg,0,1,62,0,unchosen,1200,0,10,2,50,50,35,faces,body_parts
110,19377,0,111,2,2,0,no_gain5,gain1,C,H,35,6,body_parts,outdoor_scenes,Stimuli/Experimental_stims/body_parts/wc-so-KH4AAPjb-tI-unsplash.jpg,Stimuli/Experimental_stims/outdoor_scenes/meng-ji-8BH_M-53CyA-unsplash.jpg,0,1,51,0,unchosen,1300,0,10,2,50,50,35,outdoor_scenes,body_parts
111,19377,0,112,2,2,0,no_gain6,gain5,A,B,5,9,outdoor_scenes,outdoor_scenes,Stimuli/Experimental_stims/outdoor_scenes/jeff-king-bJHWJeiHfHc-unsplash.jpg,Stimuli/Experimental_stims/outdoor_scenes/sergey-pesterev-y-b_FOmJXdg-unsplash.jpg,0,1,25,0,chosen,1100,0,10,2,50,50,5,outdoor_scenes,outdoor_scenes
112,19377,0,113,2,2,1,gain2,no_gain2,D,E,41,44,objects,objects,Stimuli/Experimental_stims/objects/insung-yoon-w2JtIQQXoRU-unsplash.jpg,Stimuli/Experimental_stims/objects/kuiye-chen-NuOGFo4PudE-unsplash.jpg,0,1,42,1,chosen,1900,0,10,2,50,50,41,objects,objects
113,19377,0,114,2,2,1,gain1,no_gain6,H,A,6,46,outdoor_scenes,objects,Stimuli/Experimental_stims/outdoor_scenes/meng-ji-8BH_M-53CyA-unsplash.jpg,Stimuli/Experimental_stims/objects/mockup-graphics-PNsj6RiHAF4-unsplash.jpg,0,1,46,1,unchosen,2100,0,10,2,50,50,6,objects,outdoor_scenes
114,19377,0,115,2,2,0,no_gain3,gain5,K,B,45,18,objects,faces,Stimuli/Experimental_stims/objects/leohoho-rngTKHXumy0-unsplash.jpg,Stimuli/Experimental_stims/faces/jessica-radanavong-mrYkTuAesKE-unsplash.jpg,0,1,36,0,unchosen,1400,0,10,2,50,50,45,faces,objects
115,19377,0,116,2,2,1,gain3,no_gain6,L,A,32,5,body_parts,outdoor_scenes,Stimuli/Experimental_stims/body_parts/towfiqu-barbhuiya-3AsiVDsZnHg-unsplash.jpg,Stimuli/Experimental_stims/outdoor_scenes/jeff-king-bJHWJeiHfHc-unsplash.jpg,0,1,55,1,chosen,1100,0,10,2,50,50,32,outdoor_scenes,body_parts
116,19377,0,117,2,2,0,no_gain5,gain5,C,B,3,9,outdoor_scenes,outdoor_scenes,Stimuli/Experimental_stims/outdoor_scenes/henry-be-NLF6hTe4PAg-unsplash.jpg,Stimuli/Experimental_stims/outdoor_scenes/sergey-pesterev-y-b_FOmJXdg-unsplash.jpg,0,1,47,0,chosen,1600,0,10,2,50,50,3,outdoor_scenes,outdoor_scenes
117,19377,0,118,2,2,1,gain3,no_gain4,L,J,19,37,faces,objects,Stimuli/Experimental_stims/faces/joel-mott-LaK153ghdig-unsplash.jpg,Stimuli/Experimental_stims/objects/alexander-andrews-VLGWE_SumrA-unsplash.jpg,0,1,50,1,unchosen,1300,0,10,2,50,50,19,objects,faces
118,19377,0,119,2,2,1,gain4,no_gain1,G,F,39,16,objects,faces,Stimuli/Experimental_stims/objects/charlesdeluvio-1-nx1QR5dTE-unsplash.jpg,Stimuli/Experimental_stims/faces/freddy-kearney-o-ioeoATbIM-unsplash.jpg,0,1,45,1,chosen,2500,0,10,2,50,50,39,faces,objects
119,19377,0,120,2,2,0,no_gain4,gain2,J,D,37,13,objects,faces,Stimuli/Experimental_stims/objects/alexander-andrews-VLGWE_SumrA-unsplash.jpg,Stimuli/Experimental_stims/faces/daniel-rigdon-dXmXKPP2L4E-unsplash.jpg,0,1,56,0,unchosen,4300,1,10,2,50,50,37,faces,objects
120,19377,0,121,2,2,0,no_gain3,gain4,K,G,33,39,body_parts,objects,Stimuli/Experimental_stims/body_parts/tucker-good-36skLT5jZcc-unsplash.jpg,Stimuli/Experimental_stims/objects/charlesdeluvio-1-nx1QR5dTE-unsplash.jpg,0,1,51,0,chosen,2400,0,10,2,50,50,33,objects,body_parts
121,19377,0,122,2,2,1,gain1,no_gain4,H,J,6,37,outdoor_scenes,objects,Stimuli/Experimental_stims/outdoor_scenes/meng-ji-8BH_M-53CyA-unsplash.jpg,Stimuli/Experimental_stims/objects/alexander-andrews-VLGWE_SumrA-unsplash.jpg,0,1,45,1,unchosen,1800,0,10,2,50,50,6,objects,outdoor_scenes
122,19377,0,123,2,2,1,gain6,no_gain3,I,K,34,33,body_parts,body_parts,Stimuli/Experimental_stims/body_parts/wagner-santos-mBWMvIuVnso-unsplash.jpg,Stimuli/Experimental_stims/body_parts/tucker-good-36skLT5jZcc-unsplash.jpg,0,1,60,1,chosen,1000,0,10,2,50,50,34,body_parts,body_parts
123,19377,0,124,2,2,1,gain5,no_gain1,B,F,18,29,faces,body_parts,Stimuli/Experimental_stims/faces/jessica-radanavong-mrYkTuAesKE-unsplash.jpg,Stimuli/Experimental_stims/body_parts/manuel-schinner-ZwjFuJ7ebpk-unsplash.jpg,0,1,54,1,unchosen,2000,0,10,2,50,50,18,body_parts,faces
124,19377,0,125,2,2,1,gain3,no_gain2,L,E,19,31,faces,body_parts,Stimuli/Experimental_stims/faces/joel-mott-LaK153ghdig-unsplash.jpg,Stimuli/Experimental_stims/body_parts/sincerely-media-VN6DbKajo5s-unsplash.jpg,0,1,45,1,unchosen,2700,0,10,2,50,50,19,body_parts,faces
125,19377,0,126,2,2,0,no_gain2,gain2,E,D,31,13,body_parts,faces,Stimuli/Experimental_stims/body_parts/sincerely-media-VN6DbKajo5s-unsplash.jpg,Stimuli/Experimental_stims/faces/daniel-rigdon-dXmXKPP2L4E-unsplash.jpg,0,1,64,0,unchosen,2500,0,10,2,50,50,31,faces,body_parts
126,19377,0,127,2,2,0,no_gain4,gain1,J,H,15,12,faces,faces,Stimuli/Experimental_stims/faces/erik-lucatero-d2MSDujJl2g-unsplash.jpg,Stimuli/Experimental_stims/faces/aiony-haust-jmATI5Q_YgY-unsplash.jpg,0,1,53,0,chosen,1800,0,10,2,50,50,15,faces,faces
127,19377,0,128,2,2,1,gain4,no_gain6,G,A,8,46,outdoor_scenes,objects,Stimuli/Experimental_stims/outdoor_scenes/samsommer-vddccTqwal8-unsplash.jpg,Stimuli/Experimental_stims/objects/mockup-graphics-PNsj6RiHAF4-unsplash.jpg,0,1,61,1,unchosen,1200,0,10,2,50,50,8,objects,outdoor_scenes
128,19377,0,129,2,2,0,no_gain1,gain2,F,D,29,13,body_parts,faces,Stimuli/Experimental_stims/body_parts/manuel-schinner-ZwjFuJ7ebpk-unsplash.jpg,Stimuli/Experimental_stims/faces/daniel-rigdon-dXmXKPP2L4E-unsplash.jpg,0,1,63,0,unchosen,3800,1,10,2,50,50,29,faces,body_parts
129,19377,0,130,2,2,1,gain1,no_gain6,H,A,12,5,faces,outdoor_scenes,Stimuli/Experimental_stims/faces/aiony-haust-jmATI5Q_YgY-unsplash.jpg,Stimuli/Experimental_stims/outdoor_scenes/jeff-king-bJHWJeiHfHc-unsplash.jpg,0,1,60,1,chosen,1300,0,10,2,50,50,12,outdoor_scenes,faces
130,19377,0,131,2,2,1,gain6,no_gain4,I,J,1,37,outdoor_scenes,objects,Stimuli/Experimental_stims/outdoor_scenes/ashim-d-silva-S2Q5mdOrrVc-unsplash.jpg,Stimuli/Experimental_stims/objects/alexander-andrews-VLGWE_SumrA-unsplash.jpg,0,1,49,1,unchosen,2900,0,10,2,50,50,1,objects,outdoor_scenes
131,19377,0,132,2,2,0,no_gain5,gain2,C,D,3,41,outdoor_scenes,objects,Stimuli/Experimental_stims/outdoor_scenes/henry-be-NLF6hTe4PAg-unsplash.jpg,Stimuli/Experimental_stims/objects/insung-yoon-w2JtIQQXoRU-unsplash.jpg,0,1,43,0,chosen,1200,0,10,2,50,50,3,objects,outdoor_scenes
132,19377,0,133,2,2,0,no_gain5,gain6,C,I,3,34,outdoor_scenes,body_parts,Stimuli/Experimental_stims/outdoor_scenes/henry-be-NLF6hTe4PAg-unsplash.jpg,Stimuli/Experimental_stims/body_parts/wagner-santos-mBWMvIuVnso-unsplash.jpg,0,1,34,0,chosen,1300,0,10,2,50,50,3,body_parts,outdoor_scenes
133,19377,0,134,2,2,0,no_gain2,gain6,E,I,31,1,body_parts,outdoor_scenes,Stimuli/Experimental_stims/body_parts/sincerely-media-VN6DbKajo5s-unsplash.jpg,Stimuli/Experimental_stims/outdoor_scenes/ashim-d-silva-S2Q5mdOrrVc-unsplash.jpg,0,1,46,0,unchosen,2500,0,10,2,50,50,31,outdoor_scenes,body_parts
134,19377,0,135,2,2,1,gain5,no_gain3,B,K,9,33,outdoor_scenes,body_parts,Stimuli/Experimental_stims/outdoor_scenes/sergey-pesterev-y-b_FOmJXdg-unsplash.jpg,Stimuli/Experimental_stims/body_parts/tucker-good-36skLT5jZcc-unsplash.jpg,0,1,42,1,chosen,3000,0,10,2,50,50,9,body_parts,outdoor_scenes
135,19377,0,136,2,2,1,gain4,no_gain5,G,C,39,3,objects,outdoor_scenes,Stimuli/Experimental_stims/objects/charlesdeluvio-1-nx1QR5dTE-unsplash.jpg,Stimuli/Experimental_stims/outdoor_scenes/henry-be-NLF6hTe4PAg-unsplash.jpg,0,1,75,1,chosen,4200,1,10,2,50,50,39,outdoor_scenes,objects
136,19377,0,137,2,2,0,no_gain6,gain6,A,I,46,1,objects,outdoor_scenes,Stimuli/Experimental_stims/objects/mockup-graphics-PNsj6RiHAF4-unsplash.jpg,Stimuli/Experimental_stims/outdoor_scenes/ashim-d-silva-S2Q5mdOrrVc-unsplash.jpg,0,1,49,0,unchosen,1700,0,10,2,50,50,46,outdoor_scenes,objects
137,19377,0,138,2,2,0,no_gain3,gain1,K,H,33,12,body_parts,faces,Stimuli/Experimental_stims/body_parts/tucker-good-36skLT5jZcc-unsplash.jpg,Stimuli/Experimental_stims/faces/aiony-haust-jmATI5Q_YgY-unsplash.jpg,0,1,61,0,chosen,1300,0,10,2,50,50,33,faces,body_parts
138,19377,0,139,2,2,0,no_gain2,gain1,E,H,44,12,objects,faces,Stimuli/Experimental_stims/objects/kuiye-chen-NuOGFo4PudE-unsplash.jpg,Stimuli/Experimental_stims/faces/aiony-haust-jmATI5Q_YgY-unsplash.jpg,0,1,45,0,chosen,1100,0,10,2,50,50,44,faces,objects
139,19377,0,140,2,2,0,no_gain2,gain6,E,I,44,34,objects,body_parts,Stimuli/Experimental_stims/objects/kuiye-chen-NuOGFo4PudE-unsplash.jpg,Stimuli/Experimental_stims/body_parts/wagner-santos-mBWMvIuVnso-unsplash.jpg,0,1,63,0,chosen,1300,0,10,2,50,50,44,body_parts,objects
140,19377,0,141,2,2,1,gain5,no_gain4,B,J,18,37,faces,objects,Stimuli/Experimental_stims/faces/jessica-radanavong-mrYkTuAesKE-unsplash.jpg,Stimuli/Experimental_stims/objects/alexander-andrews-VLGWE_SumrA-unsplash.jpg,0,1,75,1,unchosen,1500,0,10,2,50,50,18,objects,faces
141,19377,0,142,2,2,0,no_gain5,gain1,C,H,3,12,outdoor_scenes,faces,Stimuli/Experimental_stims/outdoor_scenes/henry-be-NLF6hTe4PAg-unsplash.jpg,Stimuli/Experimental_stims/faces/aiony-haust-jmATI5Q_YgY-unsplash.jpg,0,1,63,0,chosen,1800,0,10,2,50,50,3,faces,outdoor_scenes
142,19377,0,143,2,2,0,no_gain1,gain4,F,G,29,8,body_parts,outdoor_scenes,Stimuli/Experimental_stims/body_parts/manuel-schinner-ZwjFuJ7ebpk-unsplash.jpg,Stimuli/Experimental_stims/outdoor_scenes/samsommer-vddccTqwal8-unsplash.jpg,0,1,56,0,unchosen,1400,0,10,2,50,50,29,outdoor_scenes,body_parts
143,19377,0,144,2,2,1,gain3,no_gain5,L,C,19,35,faces,body_parts,Stimuli/Experimental_stims/faces/joel-mott-LaK153ghdig-unsplash.jpg,Stimuli/Experimental_stims/body_parts/wc-so-KH4AAPjb-tI-unsplash.jpg,0,1,67,1,unchosen,1400,0,10,2,50,50,19,body_parts,faces
144,19377,0,145,2,2,0,no_gain4,gain3,J,L,15,32,faces,body_parts,Stimuli/Experimental_stims/faces/erik-lucatero-d2MSDujJl2g-unsplash.jpg,Stimuli/Experimental_stims/body_parts/towfiqu-barbhuiya-3AsiVDsZnHg-unsplash.jpg,0,1,72,0,chosen,1600,0,10,2,50,50,15,body_parts,faces
145,19377,0,146,2,2,1,gain1,no_gain3,H,K,6,45,outdoor_scenes,objects,Stimuli/Experimental_stims/outdoor_scenes/meng-ji-8BH_M-53CyA-unsplash.jpg,Stimuli/Experimental_stims/objects/leohoho-rngTKHXumy0-unsplash.jpg,0,1,63,1,unchosen,2000,0,10,2,50,50,6,objects,outdoor_scenes
146,19377,0,147,2,2,0,no_gain1,gain1,F,H,29,6,body_parts,outdoor_scenes,Stimuli/Experimental_stims/body_parts/manuel-schinner-ZwjFuJ7ebpk-unsplash.jpg,Stimuli/Experimental_stims/outdoor_scenes/meng-ji-8BH_M-53CyA-unsplash.jpg,0,1,51,0,unchosen,2500,0,10,2,50,50,29,outdoor_scenes,body_parts
147,19377,0,148,2,2,1,gain2,no_gain3,D,K,41,33,objects,body_parts,Stimuli/Experimental_stims/objects/insung-yoon-w2JtIQQXoRU-unsplash.jpg,Stimuli/Experimental_stims/body_parts/tucker-good-36skLT5jZcc-unsplash.jpg,0,1,62,1,chosen,3300,1,10,2,50,50,41,body_parts,objects
148,19377,0,149,3,3,0,no_gain1,gain2,F,D,29,13,body_parts,faces,Stimuli/Experimental_stims/body_parts/manuel-schinner-ZwjFuJ7ebpk-unsplash.jpg,Stimuli/Experimental_stims/faces/daniel-rigdon-dXmXKPP2L4E-unsplash.jpg,1,NaN,,NaN,unchosen,2200,0,10,2,50,50,NaN,NaN,NaN
149,19377,0,150,3,3,1,gain2,no_gain4,D,J,13,37,faces,objects,Stimuli/Experimental_stims/faces/daniel-rigdon-dXmXKPP2L4E-unsplash.jpg,Stimuli/Experimental_stims/objects/alexander-andrews-VLGWE_SumrA-unsplash.jpg,1,NaN,,NaN,unchosen,1200,0,10,2,50,50,NaN,NaN,NaN
150,19377,0,151,3,3,0,no_gain5,gain1,C,H,35,6,body_parts,outdoor_scenes,Stimuli/Experimental_stims/body_parts/wc-so-KH4AAPjb-tI-unsplash.jpg,Stimuli/Experimental_stims/outdoor_scenes/meng-ji-8BH_M-53CyA-unsplash.jpg,1,NaN,,NaN,unchosen,1700,0,10,2,50,50,NaN,NaN,NaN
151,19377,0,152,3,3,0,no_gain6,gain4,A,G,5,39,outdoor_scenes,objects,Stimuli/Experimental_stims/outdoor_scenes/jeff-king-bJHWJeiHfHc-unsplash.jpg,Stimuli/Experimental_stims/objects/charlesdeluvio-1-nx1QR5dTE-unsplash.jpg,1,NaN,,NaN,chosen,1100,0,10,2,50,50,NaN,NaN,NaN
152,19377,0,153,3,3,0,no_gain1,gain3,F,L,16,32,faces,body_parts,Stimuli/Experimental_stims/faces/freddy-kearney-o-ioeoATbIM-unsplash.jpg,Stimuli/Experimental_stims/body_parts/towfiqu-barbhuiya-3AsiVDsZnHg-unsplash.jpg,0,1,0,0,chosen,1000,0,10,2,50,50,16,body_parts,faces
153,19377,0,154,3,3,1,gain4,no_gain3,G,K,8,45,outdoor_scenes,objects,Stimuli/Experimental_stims/outdoor_scenes/samsommer-vddccTqwal8-unsplash.jpg,Stimuli/Experimental_stims/objects/leohoho-rngTKHXumy0-unsplash.jpg,0,1,52,1,unchosen,1900,0,10,2,50,50,8,objects,outdoor_scenes
154,19377,0,155,3,3,1,gain3,no_gain3,L,K,19,45,faces,objects,Stimuli/Experimental_stims/faces/joel-mott-LaK153ghdig-unsplash.jpg,Stimuli/Experimental_stims/objects/leohoho-rngTKHXumy0-unsplash.jpg,0,1,56,1,unchosen,4700,1,10,2,50,50,19,objects,faces
155,19377,0,156,3,3,1,gain5,no_gain5,B,C,9,3,outdoor_scenes,outdoor_scenes,Stimuli/Experimental_stims/outdoor_scenes/sergey-pesterev-y-b_FOmJXdg-unsplash.jpg,Stimuli/Experimental_stims/outdoor_scenes/henry-be-NLF6hTe4PAg-unsplash.jpg,0,1,47,1,chosen,2400,0,10,2,50,50,9,outdoor_scenes,outdoor_scenes
156,19377,0,157,3,3,1,gain6,no_gain3,I,K,1,45,outdoor_scenes,objects,Stimuli/Experimental_stims/outdoor_scenes/ashim-d-silva-S2Q5mdOrrVc-unsplash.jpg,Stimuli/Experimental_stims/objects/leohoho-rngTKHXumy0-unsplash.jpg,0,1,53,1,unchosen,1900,0,10,2,50,50,1,objects,outdoor_scenes
157,19377,0,158,3,3,1,gain1,no_gain4,H,J,12,15,faces,faces,Stimuli/Experimental_stims/faces/aiony-haust-jmATI5Q_YgY-unsplash.jpg,Stimuli/Experimental_stims/faces/erik-lucatero-d2MSDujJl2g-unsplash.jpg,0,1,49,1,chosen,1000,0,10,2,50,50,12,faces,faces
158,19377,0,159,3,3,0,no_gain2,gain6,E,I,44,34,objects,body_parts,Stimuli/Experimental_stims/objects/kuiye-chen-NuOGFo4PudE-unsplash.jpg,Stimuli/Experimental_stims/body_parts/wagner-santos-mBWMvIuVnso-unsplash.jpg,0,1,36,0,chosen,1800,0,10,2,50,50,44,body_parts,objects
159,19377,0,160,3,3,1,gain4,no_gain4,G,J,8,37,outdoor_scenes,objects,Stimuli/Experimental_stims/outdoor_scenes/samsommer-vddccTqwal8-unsplash.jpg,Stimuli/Experimental_stims/objects/alexander-andrews-VLGWE_SumrA-unsplash.jpg,0,1,57,1,unchosen,1800,0,10,2,50,50,8,objects,outdoor_scenes
160,19377,0,161,3,3,0,no_gain4,gain3,J,L,37,19,objects,faces,Stimuli/Experimental_stims/objects/alexander-andrews-VLGWE_SumrA-unsplash.jpg,Stimuli/Experimental_stims/faces/joel-mott-LaK153ghdig-unsplash.jpg,0,1,70,0,unchosen,4700,1,10,2,50,50,37,faces,objects
161,19377,0,162,3,3,0,no_gain1,gain4,F,G,29,8,body_parts,outdoor_scenes,Stimuli/Experimental_stims/body_parts/manuel-schinner-ZwjFuJ7ebpk-unsplash.jpg,Stimuli/Experimental_stims/outdoor_scenes/samsommer-vddccTqwal8-unsplash.jpg,0,1,54,0,unchosen,1300,0,10,2,50,50,29,outdoor_scenes,body_parts
162,19377,0,163,3,3,1,gain2,no_gain5,D,C,41,3,objects,outdoor_scenes,Stimuli/Experimental_stims/objects/insung-yoon-w2JtIQQXoRU-unsplash.jpg,Stimuli/Experimental_stims/outdoor_scenes/henry-be-NLF6hTe4PAg-unsplash.jpg,0,1,67,1,chosen,1200,0,10,2,50,50,41,outdoor_scenes,objects
163,19377,0,164,3,3,0,no_gain3,gain4,K,G,33,39,body_parts,objects,Stimuli/Experimental_stims/body_parts/tucker-good-36skLT5jZcc-unsplash.jpg,Stimuli/Experimental_stims/objects/charlesdeluvio-1-nx1QR5dTE-unsplash.jpg,0,1,47,0,chosen,1600,0,10,2,50,50,33,objects,body_parts
164,19377,0,165,3,3,0,no_gain2,gain5,E,B,31,18,body_parts,faces,Stimuli/Experimental_stims/body_parts/sincerely-media-VN6DbKajo5s-unsplash.jpg,Stimuli/Experimental_stims/faces/jessica-radanavong-mrYkTuAesKE-unsplash.jpg,0,1,72,0,unchosen,1200,0,10,2,50,50,31,faces,body_parts
165,19377,0,166,3,3,1,gain6,no_gain5,I,C,1,35,outdoor_scenes,body_parts,Stimuli/Experimental_stims/outdoor_scenes/ashim-d-silva-S2Q5mdOrrVc-unsplash.jpg,Stimuli/Experimental_stims/body_parts/wc-so-KH4AAPjb-tI-unsplash.jpg,0,1,50,1,unchosen,1100,0,10,2,50,50,1,body_parts,outdoor_scenes
166,19377,0,167,3,3,0,no_gain6,gain3,A,L,5,32,outdoor_scenes,body_parts,Stimuli/Experimental_stims/outdoor_scenes/jeff-king-bJHWJeiHfHc-unsplash.jpg,Stimuli/Experimental_stims/body_parts/towfiqu-barbhuiya-3AsiVDsZnHg-unsplash.jpg,0,1,59,0,chosen,3100,1,10,2,50,50,5,body_parts,outdoor_scenes
167,19377,0,168,3,3,0,no_gain5,gain3,C,L,35,19,body_parts,faces,Stimuli/Experimental_stims/body_parts/wc-so-KH4AAPjb-tI-unsplash.jpg,Stimuli/Experimental_stims/faces/joel-mott-LaK153ghdig-unsplash.jpg,0,1,64,0,unchosen,1500,0,10,2,50,50,35,faces,body_parts
168,19377,0,169,3,3,0,no_gain4,gain3,J,L,15,32,faces,body_parts,Stimuli/Experimental_stims/faces/erik-lucatero-d2MSDujJl2g-unsplash.jpg,Stimuli/Experimental_stims/body_parts/towfiqu-barbhuiya-3AsiVDsZnHg-unsplash.jpg,0,1,58,0,chosen,1000,0,10,2,50,50,15,body_parts,faces
169,19377,0,170,3,3,0,no_gain5,gain2,C,D,35,13,body_parts,faces,Stimuli/Experimental_stims/body_parts/wc-so-KH4AAPjb-tI-unsplash.jpg,Stimuli/Experimental_stims/faces/daniel-rigdon-dXmXKPP2L4E-unsplash.jpg,0,1,47,0,unchosen,1500,0,10,2,50,50,35,faces,body_parts
170,19377,0,171,3,3,0,no_gain3,gain2,K,D,33,41,body_parts,objects,Stimuli/Experimental_stims/body_parts/tucker-good-36skLT5jZcc-unsplash.jpg,Stimuli/Experimental_stims/objects/insung-yoon-w2JtIQQXoRU-unsplash.jpg,0,1,38,0,chosen,1400,0,10,2,50,50,33,objects,body_parts
171,19377,0,172,3,3,1,gain1,no_gain2,H,E,12,44,faces,objects,Stimuli/Experimental_stims/faces/aiony-haust-jmATI5Q_YgY-unsplash.jpg,Stimuli/Experimental_stims/objects/kuiye-chen-NuOGFo4PudE-unsplash.jpg,0,1,65,1,chosen,3500,1,10,2,50,50,12,objects,faces
172,19377,0,173,3,3,0,no_gain4,gain2,J,D,15,41,faces,objects,Stimuli/Experimental_stims/faces/erik-lucatero-d2MSDujJl2g-unsplash.jpg,Stimuli/Experimental_stims/objects/insung-yoon-w2JtIQQXoRU-unsplash.jpg,0,1,56,0,chosen,1600,0,10,2,50,50,15,objects,faces
173,19377,0,174,3,3,0,no_gain4,gain5,J,B,37,18,objects,faces,Stimuli/Experimental_stims/objects/alexander-andrews-VLGWE_SumrA-unsplash.jpg,Stimuli/Experimental_stims/faces/jessica-radanavong-mrYkTuAesKE-unsplash.jpg,0,1,61,0,unchosen,2200,0,10,2,50,50,37,faces,objects
174,19377,0,175,3,3,0,no_gain3,gain2,K,D,45,13,objects,faces,Stimuli/Experimental_stims/objects/leohoho-rngTKHXumy0-unsplash.jpg,Stimuli/Experimental_stims/faces/daniel-rigdon-dXmXKPP2L4E-unsplash.jpg,0,1,63,0,unchosen,1200,0,10,2,50,50,45,faces,objects
175,19377,0,176,3,3,1,gain2,no_gain2,D,E,13,31,faces,body_parts,Stimuli/Experimental_stims/faces/daniel-rigdon-dXmXKPP2L4E-unsplash.jpg,Stimuli/Experimental_stims/body_parts/sincerely-media-VN6DbKajo5s-unsplash.jpg,0,1,54,1,unchosen,1900,0,10,2,50,50,13,body_parts,faces
176,19377,0,177,3,3,0,no_gain6,gain5,A,B,5,9,outdoor_scenes,outdoor_scenes,Stimuli/Experimental_stims/outdoor_scenes/jeff-king-bJHWJeiHfHc-unsplash.jpg,Stimuli/Experimental_stims/outdoor_scenes/sergey-pesterev-y-b_FOmJXdg-unsplash.jpg,0,1,54,0,chosen,2000,0,10,2,50,50,5,outdoor_scenes,outdoor_scenes
177,19377,0,178,3,3,1,gain6,no_gain1,I,F,34,16,body_parts,faces,Stimuli/Experimental_stims/body_parts/wagner-santos-mBWMvIuVnso-unsplash.jpg,Stimuli/Experimental_stims/faces/freddy-kearney-o-ioeoATbIM-unsplash.jpg,0,1,55,1,chosen,1800,0,10,2,50,50,34,faces,body_parts
178,19377,0,179,3,3,0,no_gain1,gain2,F,D,16,41,faces,objects,Stimuli/Experimental_stims/faces/freddy-kearney-o-ioeoATbIM-unsplash.jpg,Stimuli/Experimental_stims/objects/insung-yoon-w2JtIQQXoRU-unsplash.jpg,0,1,76,0,chosen,2200,0,10,2,50,50,16,objects,faces
179,19377,0,180,3,3,0,no_gain2,gain3,E,L,31,19,body_parts,faces,Stimuli/Experimental_stims/body_parts/sincerely-media-VN6DbKajo5s-unsplash.jpg,Stimuli/Experimental_stims/faces/joel-mott-LaK153ghdig-unsplash.jpg,0,1,50,0,unchosen,2300,0,10,2,50,50,31,faces,body_parts
180,19377,0,181,3,3,1,gain6,no_gain3,I,K,34,33,body_parts,body_parts,Stimuli/Experimental_stims/body_parts/wagner-santos-mBWMvIuVnso-unsplash.jpg,Stimuli/Experimental_stims/body_parts/tucker-good-36skLT5jZcc-unsplash.jpg,0,1,69,1,chosen,4300,1,10,2,50,50,34,body_parts,body_parts
181,19377,0,182,3,3,1,gain5,no_gain3,B,K,9,33,outdoor_scenes,body_parts,Stimuli/Experimental_stims/outdoor_scenes/sergey-pesterev-y-b_FOmJXdg-unsplash.jpg,Stimuli/Experimental_stims/body_parts/tucker-good-36skLT5jZcc-unsplash.jpg,0,1,57,1,chosen,1600,0,10,2,50,50,9,body_parts,outdoor_scenes
182,19377,0,183,3,3,0,no_gain2,gain4,E,G,31,8,body_parts,outdoor_scenes,Stimuli/Experimental_stims/body_parts/sincerely-media-VN6DbKajo5s-unsplash.jpg,Stimuli/Experimental_stims/outdoor_scenes/samsommer-vddccTqwal8-unsplash.jpg,0,1,64,0,unchosen,1600,0,10,2,50,50,31,outdoor_scenes,body_parts
183,19377,0,184,3,3,1,gain3,no_gain1,L,F,19,29,faces,body_parts,Stimuli/Experimental_stims/faces/joel-mott-LaK153ghdig-unsplash.jpg,Stimuli/Experimental_stims/body_parts/manuel-schinner-ZwjFuJ7ebpk-unsplash.jpg,0,1,41,1,unchosen,1100,0,10,2,50,50,19,body_parts,faces
184,19377,0,185,3,3,1,gain6,no_gain6,I,A,34,5,body_parts,outdoor_scenes,Stimuli/Experimental_stims/body_parts/wagner-santos-mBWMvIuVnso-unsplash.jpg,Stimuli/Experimental_stims/outdoor_scenes/jeff-king-bJHWJeiHfHc-unsplash.jpg,0,1,54,1,chosen,1000,0,10,2,50,50,34,outdoor_scenes,body_parts
185,19377,0,186,3,3,0,no_gain1,gain5,F,B,16,9,faces,outdoor_scenes,Stimuli/Experimental_stims/faces/freddy-kearney-o-ioeoATbIM-unsplash.jpg,Stimuli/Experimental_stims/outdoor_scenes/sergey-pesterev-y-b_FOmJXdg-unsplash.jpg,0,1,46,0,chosen,1000,0,10,2,50,50,16,outdoor_scenes,faces
186,19377,0,187,3,3,0,no_gain1,gain5,F,B,29,18,body_parts,faces,Stimuli/Experimental_stims/body_parts/manuel-schinner-ZwjFuJ7ebpk-unsplash.jpg,Stimuli/Experimental_stims/faces/jessica-radanavong-mrYkTuAesKE-unsplash.jpg,0,1,69,0,unchosen,3000,1,10,2,50,50,29,faces,body_parts
187,19377,0,188,3,3,1,gain4,no_gain1,G,F,39,16,objects,faces,Stimuli/Experimental_stims/objects/charlesdeluvio-1-nx1QR5dTE-unsplash.jpg,Stimuli/Experimental_stims/faces/freddy-kearney-o-ioeoATbIM-unsplash.jpg,0,1,45,1,chosen,1000,0,10,2,50,50,39,faces,objects
188,19377,0,189,3,3,1,gain3,no_gain3,L,K,32,33,body_parts,body_parts,Stimuli/Experimental_stims/body_parts/towfiqu-barbhuiya-3AsiVDsZnHg-unsplash.jpg,Stimuli/Experimental_stims/body_parts/tucker-good-36skLT5jZcc-unsplash.jpg,0,1,36,1,chosen,1600,0,10,2,50,50,32,body_parts,body_parts
189,19377,0,190,3,3,0,no_gain2,gain5,E,B,44,9,objects,outdoor_scenes,Stimuli/Experimental_stims/objects/kuiye-chen-NuOGFo4PudE-unsplash.jpg,Stimuli/Experimental_stims/outdoor_scenes/sergey-pesterev-y-b_FOmJXdg-unsplash.jpg,0,1,38,0,chosen,1500,0,10,2,50,50,44,outdoor_scenes,objects
190,19377,0,191,3,3,0,no_gain1,gain6,F,I,29,1,body_parts,outdoor_scenes,Stimuli/Experimental_stims/body_parts/manuel-schinner-ZwjFuJ7ebpk-unsplash.jpg,Stimuli/Experimental_stims/outdoor_scenes/ashim-d-silva-S2Q5mdOrrVc-unsplash.jpg,0,1,41,0,unchosen,1700,0,10,2,50,50,29,outdoor_scenes,body_parts
191,19377,0,192,3,3,1,gain5,no_gain6,B,A,18,46,faces,objects,Stimuli/Experimental_stims/faces/jessica-radanavong-mrYkTuAesKE-unsplash.jpg,Stimuli/Experimental_stims/objects/mockup-graphics-PNsj6RiHAF4-unsplash.jpg,0,1,66,1,unchosen,1300,0,10,2,50,50,18,objects,faces
192,19377,0,193,3,3,0,no_gain5,gain4,C,G,35,8,body_parts,outdoor_scenes,Stimuli/Experimental_stims/body_parts/wc-so-KH4AAPjb-tI-unsplash.jpg,Stimuli/Experimental_stims/outdoor_scenes/samsommer-vddccTqwal8-unsplash.jpg,0,1,50,0,unchosen,1300,0,10,2,50,50,35,outdoor_scenes,body_parts
193,19377,0,194,3,3,1,gain1,no_gain5,H,C,12,3,faces,outdoor_scenes,Stimuli/Experimental_stims/faces/aiony-haust-jmATI5Q_YgY-unsplash.jpg,Stimuli/Experimental_stims/outdoor_scenes/henry-be-NLF6hTe4PAg-unsplash.jpg,0,1,56,1,chosen,3600,1,10,2,50,50,12,outdoor_scenes,faces
194,19377,0,195,3,3,1,gain6,no_gain4,I,J,1,37,outdoor_scenes,objects,Stimuli/Experimental_stims/outdoor_scenes/ashim-d-silva-S2Q5mdOrrVc-unsplash.jpg,Stimuli/Experimental_stims/objects/alexander-andrews-VLGWE_SumrA-unsplash.jpg,0,1,54,1,unchosen,2100,0,10,2,50,50,1,objects,outdoor_scenes
195,19377,0,196,3,3,1,gain1,no_gain1,H,F,12,16,faces,faces,Stimuli/Experimental_stims/faces/aiony-haust-jmATI5Q_YgY-unsplash.jpg,Stimuli/Experimental_stims/faces/freddy-kearney-o-ioeoATbIM-unsplash.jpg,0,1,65,1,chosen,1600,0,10,2,50,50,12,faces,faces
196,19377,0,197,3,3,1,gain4,no_gain6,G,A,8,46,outdoor_scenes,objects,Stimuli/Experimental_stims/outdoor_scenes/samsommer-vddccTqwal8-unsplash.jpg,Stimuli/Experimental_stims/objects/mockup-graphics-PNsj6RiHAF4-unsplash.jpg,0,1,68,1,unchosen,1800,0,10,2,50,50,8,objects,outdoor_scenes
197,19377,0,198,3,3,1,gain3,no_gain6,L,A,19,46,faces,objects,Stimuli/Experimental_stims/faces/joel-mott-LaK153ghdig-unsplash.jpg,Stimuli/Experimental_stims/objects/mockup-graphics-PNsj6RiHAF4-unsplash.jpg,0,1,59,1,unchosen,1600,0,10,2,50,50,19,objects,faces
198,19377,0,199,3,3,1,gain1,no_gain3,H,K,12,33,faces,body_parts,Stimuli/Experimental_stims/faces/aiony-haust-jmATI5Q_YgY-unsplash.jpg,Stimuli/Experimental_stims/body_parts/tucker-good-36skLT5jZcc-unsplash.jpg,0,1,45,1,chosen,3100,1,10,2,50,50,12,body_parts,faces
199,19377,0,200,3,3,0,no_gain5,gain4,C,G,3,39,outdoor_scenes,objects,Stimuli/Experimental_stims/outdoor_scenes/henry-be-NLF6hTe4PAg-unsplash.jpg,Stimuli/Experimental_stims/objects/charlesdeluvio-1-nx1QR5dTE-unsplash.jpg,0,1,43,0,chosen,2500,0,10,2,50,50,3,objects,outdoor_scenes
200,19377,0,201,3,3,0,no_gain1,gain1,F,H,29,6,body_parts,outdoor_scenes,Stimuli/Experimental_stims/body_parts/manuel-schinner-ZwjFuJ7ebpk-unsplash.jpg,Stimuli/Experimental_stims/outdoor_scenes/meng-ji-8BH_M-53CyA-unsplash.jpg,0,1,36,0,unchosen,2000,0,10,2,50,50,29,outdoor_scenes,body_parts
201,19377,0,202,3,3,0,no_gain4,gain4,J,G,15,39,faces,objects,Stimuli/Experimental_stims/faces/erik-lucatero-d2MSDujJl2g-unsplash.jpg,Stimuli/Experimental_stims/objects/charlesdeluvio-1-nx1QR5dTE-unsplash.jpg,0,1,49,0,chosen,2100,0,10,2,50,50,15,objects,faces
202,19377,0,203,3,3,1,gain3,no_gain5,L,C,32,3,body_parts,outdoor_scenes,Stimuli/Experimental_stims/body_parts/towfiqu-barbhuiya-3AsiVDsZnHg-unsplash.jpg,Stimuli/Experimental_stims/outdoor_scenes/henry-be-NLF6hTe4PAg-unsplash.jpg,0,1,55,1,chosen,1200,0,10,2,50,50,32,outdoor_scenes,body_parts
203,19377,0,204,3,3,1,gain1,no_gain6,H,A,6,46,outdoor_scenes,objects,Stimuli/Experimental_stims/outdoor_scenes/meng-ji-8BH_M-53CyA-unsplash.jpg,Stimuli/Experimental_stims/objects/mockup-graphics-PNsj6RiHAF4-unsplash.jpg,0,1,44,1,unchosen,3300,1,10,2,50,50,6,objects,outdoor_scenes
204,19377,0,205,3,3,1,gain3,no_gain2,L,E,32,44,body_parts,objects,Stimuli/Experimental_stims/body_parts/towfiqu-barbhuiya-3AsiVDsZnHg-unsplash.jpg,Stimuli/Experimental_stims/objects/kuiye-chen-NuOGFo4PudE-unsplash.jpg,0,1,76,1,chosen,2100,0,10,2,50,50,32,objects,body_parts
205,19377,0,206,3,3,0,no_gain4,gain5,J,B,15,9,faces,outdoor_scenes,Stimuli/Experimental_stims/faces/erik-lucatero-d2MSDujJl2g-unsplash.jpg,Stimuli/Experimental_stims/outdoor_scenes/sergey-pesterev-y-b_FOmJXdg-unsplash.jpg,0,1,41,0,chosen,2100,0,10,2,50,50,15,outdoor_scenes,faces
206,19377,0,207,3,3,1,gain2,no_gain6,D,A,41,5,objects,outdoor_scenes,Stimuli/Experimental_stims/objects/insung-yoon-w2JtIQQXoRU-unsplash.jpg,Stimuli/Experimental_stims/outdoor_scenes/jeff-king-bJHWJeiHfHc-unsplash.jpg,0,1,32,1,chosen,2600,0,10,2,50,50,41,outdoor_scenes,objects
207,19377,0,208,3,3,1,gain1,no_gain2,H,E,6,31,outdoor_scenes,body_parts,Stimuli/Experimental_stims/outdoor_scenes/meng-ji-8BH_M-53CyA-unsplash.jpg,Stimuli/Experimental_stims/body_parts/sincerely-media-VN6DbKajo5s-unsplash.jpg,0,1,57,1,unchosen,2800,0,10,2,50,50,6,body_parts,outdoor_scenes
208,19377,0,209,3,3,1,gain1,no_gain4,H,J,6,37,outdoor_scenes,objects,Stimuli/Experimental_stims/outdoor_scenes/meng-ji-8BH_M-53CyA-unsplash.jpg,Stimuli/Experimental_stims/objects/alexander-andrews-VLGWE_SumrA-unsplash.jpg,0,1,49,1,unchosen,2100,0,10,2,50,50,6,objects,outdoor_scenes
209,19377,0,210,3,3,0,no_gain6,gain1,A,H,5,12,outdoor_scenes,faces,Stimuli/Experimental_stims/outdoor_scenes/jeff-king-bJHWJeiHfHc-unsplash.jpg,Stimuli/Experimental_stims/faces/aiony-haust-jmATI5Q_YgY-unsplash.jpg,0,1,34,0,chosen,1300,0,10,2,50,50,5,faces,outdoor_scenes
210,19377,0,211,3,3,0,no_gain5,gain6,C,I,3,34,outdoor_scenes,body_parts,Stimuli/Experimental_stims/outdoor_scenes/henry-be-NLF6hTe4PAg-unsplash.jpg,Stimuli/Experimental_stims/body_parts/wagner-santos-mBWMvIuVnso-unsplash.jpg,0,1,61,0,chosen,3900,1,10,2,50,50,3,body_parts,outdoor_scenes
211,19377,0,212,3,3,0,no_gain2,gain6,E,I,31,1,body_parts,outdoor_scenes,Stimuli/Experimental_stims/body_parts/sincerely-media-VN6DbKajo5s-unsplash.jpg,Stimuli/Experimental_stims/outdoor_scenes/ashim-d-silva-S2Q5mdOrrVc-unsplash.jpg,0,1,39,0,unchosen,1600,0,10,2,50,50,31,outdoor_scenes,body_parts
212,19377,0,213,3,3,1,gain4,no_gain2,G,E,39,44,objects,objects,Stimuli/Experimental_stims/objects/charlesdeluvio-1-nx1QR5dTE-unsplash.jpg,Stimuli/Experimental_stims/objects/kuiye-chen-NuOGFo4PudE-unsplash.jpg,0,1,40,1,chosen,1300,0,10,2,50,50,39,objects,objects
213,19377,0,214,3,3,0,no_gain3,gain5,K,B,45,18,objects,faces,Stimuli/Experimental_stims/objects/leohoho-rngTKHXumy0-unsplash.jpg,Stimuli/Experimental_stims/faces/jessica-radanavong-mrYkTuAesKE-unsplash.jpg,0,1,37,0,unchosen,1700,0,10,2,50,50,45,faces,objects
214,19377,0,215,3,3,1,gain2,no_gain6,D,A,13,46,faces,objects,Stimuli/Experimental_stims/faces/daniel-rigdon-dXmXKPP2L4E-unsplash.jpg,Stimuli/Experimental_stims/objects/mockup-graphics-PNsj6RiHAF4-unsplash.jpg,0,1,52,1,unchosen,1600,0,10,2,50,50,13,objects,faces
215,19377,0,216,3,3,0,no_gain4,gain6,J,I,15,34,faces,body_parts,Stimuli/Experimental_stims/faces/erik-lucatero-d2MSDujJl2g-unsplash.jpg,Stimuli/Experimental_stims/body_parts/wagner-santos-mBWMvIuVnso-unsplash.jpg,0,1,55,0,chosen,3600,1,10,2,50,50,15,body_parts,faces
216,19377,0,217,3,3,1,gain5,no_gain5,B,C,18,35,faces,body_parts,Stimuli/Experimental_stims/faces/jessica-radanavong-mrYkTuAesKE-unsplash.jpg,Stimuli/Experimental_stims/body_parts/wc-so-KH4AAPjb-tI-unsplash.jpg,0,1,71,1,unchosen,2700,0,10,2,50,50,18,body_parts,faces
217,19377,0,218,3,3,1,gain2,no_gain2,D,E,41,44,objects,objects,Stimuli/Experimental_stims/objects/insung-yoon-w2JtIQQXoRU-unsplash.jpg,Stimuli/Experimental_stims/objects/kuiye-chen-NuOGFo4PudE-unsplash.jpg,0,1,64,1,chosen,2800,0,10,2,50,50,41,objects,objects
218,19377,0,219,3,3,0,no_gain6,gain6,A,I,46,1,objects,outdoor_scenes,Stimuli/Experimental_stims/objects/mockup-graphics-PNsj6RiHAF4-unsplash.jpg,Stimuli/Experimental_stims/outdoor_scenes/ashim-d-silva-S2Q5mdOrrVc-unsplash.jpg,0,1,48,0,unchosen,2800,0,10,2,50,50,46,outdoor_scenes,objects
219,19377,0,220,3,3,1,gain1,no_gain3,H,K,6,45,outdoor_scenes,objects,Stimuli/Experimental_stims/outdoor_scenes/meng-ji-8BH_M-53CyA-unsplash.jpg,Stimuli/Experimental_stims/objects/leohoho-rngTKHXumy0-unsplash.jpg,0,1,54,1,unchosen,1100,0,10,2,50,50,6,objects,outdoor_scenes
220,19377,0,221,4,4,0,no_gain6,gain2,A,D,5,41,outdoor_scenes,objects,Stimuli/Experimental_stims/outdoor_scenes/jeff-king-bJHWJeiHfHc-unsplash.jpg,Stimuli/Experimental_stims/objects/insung-yoon-w2JtIQQXoRU-unsplash.jpg,1,NaN,,NaN,chosen,4200,1,9,2,50,50,NaN,NaN,NaN
221,19377,0,222,4,4,1,gain4,no_gain2,G,E,8,31,outdoor_scenes,body_parts,Stimuli/Experimental_stims/outdoor_scenes/samsommer-vddccTqwal8-unsplash.jpg,Stimuli/Experimental_stims/body_parts/sincerely-media-VN6DbKajo5s-unsplash.jpg,1,NaN,,NaN,unchosen,2400,0,9,2,50,50,NaN,NaN,NaN
222,19377,0,223,4,4,1,gain2,no_gain1,D,F,41,16,objects,faces,Stimuli/Experimental_stims/objects/insung-yoon-w2JtIQQXoRU-unsplash.jpg,Stimuli/Experimental_stims/faces/freddy-kearney-o-ioeoATbIM-unsplash.jpg,1,NaN,,NaN,chosen,1200,0,9,2,50,50,NaN,NaN,NaN
223,19377,0,224,4,4,0,no_gain4,gain4,J,G,15,39,faces,objects,Stimuli/Experimental_stims/faces/erik-lucatero-d2MSDujJl2g-unsplash.jpg,Stimuli/Experimental_stims/objects/charlesdeluvio-1-nx1QR5dTE-unsplash.jpg,1,NaN,,NaN,chosen,1400,0,9,2,50,50,NaN,NaN,NaN
224,19377,0,225,4,4,0,no_gain4,gain6,J,I,37,1,objects,outdoor_scenes,Stimuli/Experimental_stims/objects/alexander-andrews-VLGWE_SumrA-unsplash.jpg,Stimuli/Experimental_stims/outdoor_scenes/ashim-d-silva-S2Q5mdOrrVc-unsplash.jpg,0,1,0,0,unchosen,1800,0,9,2,50,50,37,outdoor_scenes,objects
225,19377,0,226,4,4,0,no_gain4,gain5,J,B,37,18,objects,faces,Stimuli/Experimental_stims/objects/alexander-andrews-VLGWE_SumrA-unsplash.jpg,Stimuli/Experimental_stims/faces/jessica-radanavong-mrYkTuAesKE-unsplash.jpg,0,1,37,0,unchosen,2200,0,9,2,50,50,37,faces,objects
226,19377,0,227,4,4,1,gain4,no_gain1,G,F,39,16,objects,faces,Stimuli/Experimental_stims/objects/charlesdeluvio-1-nx1QR5dTE-unsplash.jpg,Stimuli/Experimental_stims/faces/freddy-kearney-o-ioeoATbIM-unsplash.jpg,0,1,49,1,chosen,4000,1,9,2,50,50,39,faces,objects
227,19377,0,228,4,4,1,gain3,no_gain2,L,E,32,44,body_parts,objects,Stimuli/Experimental_stims/body_parts/towfiqu-barbhuiya-3AsiVDsZnHg-unsplash.jpg,Stimuli/Experimental_stims/objects/kuiye-chen-NuOGFo4PudE-unsplash.jpg,0,1,45,1,chosen,1900,0,9,2,50,50,32,objects,body_parts
228,19377,0,229,4,4,0,no_gain5,gain4,C,G,3,39,outdoor_scenes,objects,Stimuli/Experimental_stims/outdoor_scenes/henry-be-NLF6hTe4PAg-unsplash.jpg,Stimuli/Experimental_stims/objects/charlesdeluvio-1-nx1QR5dTE-unsplash.jpg,0,1,38,0,chosen,1800,0,9,2,50,50,3,objects,outdoor_scenes
229,19377,0,230,4,4,0,no_gain4,gain3,J,L,37,19,objects,faces,Stimuli/Experimental_stims/objects/alexander-andrews-VLGWE_SumrA-unsplash.jpg,Stimuli/Experimental_stims/faces/joel-mott-LaK153ghdig-unsplash.jpg,0,1,50,0,unchosen,1200,0,9,2,50,50,37,faces,objects
230,19377,0,231,4,4,0,no_gain3,gain5,K,B,45,18,objects,faces,Stimuli/Experimental_stims/objects/leohoho-rngTKHXumy0-unsplash.jpg,Stimuli/Experimental_stims/faces/jessica-radanavong-mrYkTuAesKE-unsplash.jpg,0,1,59,0,unchosen,1700,0,9,2,50,50,45,faces,objects
231,19377,0,232,4,4,0,no_gain2,gain5,E,B,31,18,body_parts,faces,Stimuli/Experimental_stims/body_parts/sincerely-media-VN6DbKajo5s-unsplash.jpg,Stimuli/Experimental_stims/faces/jessica-radanavong-mrYkTuAesKE-unsplash.jpg,0,1,37,0,unchosen,3500,1,9,2,50,50,31,faces,body_parts
232,19377,0,233,4,4,1,gain3,no_gain3,L,K,32,33,body_parts,body_parts,Stimuli/Experimental_stims/body_parts/towfiqu-barbhuiya-3AsiVDsZnHg-unsplash.jpg,Stimuli/Experimental_stims/body_parts/tucker-good-36skLT5jZcc-unsplash.jpg,0,1,43,1,chosen,1700,0,9,2,50,50,32,body_parts,body_parts
233,19377,0,234,4,4,1,gain2,no_gain2,D,E,13,31,faces,body_parts,Stimuli/Experimental_stims/faces/daniel-rigdon-dXmXKPP2L4E-unsplash.jpg,Stimuli/Experimental_stims/body_parts/sincerely-media-VN6DbKajo5s-unsplash.jpg,0,1,32,1,unchosen,2000,0,9,2,50,50,13,body_parts,faces
234,19377,0,235,4,4,0,no_gain6,gain5,A,B,46,18,objects,faces,Stimuli/Experimental_stims/objects/mockup-graphics-PNsj6RiHAF4-unsplash.jpg,Stimuli/Experimental_stims/faces/jessica-radanavong-mrYkTuAesKE-unsplash.jpg,0,1,44,0,unchosen,1300,0,9,2,50,50,46,faces,objects
235,19377,0,236,4,4,1,gain6,no_gain1,I,F,34,16,body_parts,faces,Stimuli/Experimental_stims/body_parts/wagner-santos-mBWMvIuVnso-unsplash.jpg,Stimuli/Experimental_stims/faces/freddy-kearney-o-ioeoATbIM-unsplash.jpg,0,1,37,1,chosen,1400,0,9,2,50,50,34,faces,body_parts
236,19377,0,237,4,4,1,gain1,no_gain4,H,J,6,37,outdoor_scenes,objects,Stimuli/Experimental_stims/outdoor_scenes/meng-ji-8BH_M-53CyA-unsplash.jpg,Stimuli/Experimental_stims/objects/alexander-andrews-VLGWE_SumrA-unsplash.jpg,0,1,39,1,unchosen,3600,1,9,2,50,50,6,objects,outdoor_scenes
237,19377,0,238,4,4,0,no_gain3,gain4,K,G,33,39,body_parts,objects,Stimuli/Experimental_stims/body_parts/tucker-good-36skLT5jZcc-unsplash.jpg,Stimuli/Experimental_stims/objects/charlesdeluvio-1-nx1QR5dTE-unsplash.jpg,0,1,29,0,chosen,2700,0,9,2,50,50,33,objects,body_parts
238,19377,0,239,4,4,0,no_gain5,gain1,C,H,35,6,body_parts,outdoor_scenes,Stimuli/Experimental_stims/body_parts/wc-so-KH4AAPjb-tI-unsplash.jpg,Stimuli/Experimental_stims/outdoor_scenes/meng-ji-8BH_M-53CyA-unsplash.jpg,0,1,48,0,unchosen,1900,0,9,2,50,50,35,outdoor_scenes,body_parts
239,19377,0,240,4,4,0,no_gain1,gain3,F,L,29,19,body_parts,faces,Stimuli/Experimental_stims/body_parts/manuel-schinner-ZwjFuJ7ebpk-unsplash.jpg,Stimuli/Experimental_stims/faces/joel-mott-LaK153ghdig-unsplash.jpg,0,1,34,0,unchosen,1200,0,9,2,50,50,29,faces,body_parts
240,19377,0,241,4,4,0,no_gain2,gain1,E,H,31,6,body_parts,outdoor_scenes,Stimuli/Experimental_stims/body_parts/sincerely-media-VN6DbKajo5s-unsplash.jpg,Stimuli/Experimental_stims/outdoor_scenes/meng-ji-8BH_M-53CyA-unsplash.jpg,0,1,29,0,unchosen,1000,0,9,2,50,50,31,outdoor_scenes,body_parts
241,19377,0,242,4,4,1,gain3,no_gain4,L,J,32,15,body_parts,faces,Stimuli/Experimental_stims/body_parts/towfiqu-barbhuiya-3AsiVDsZnHg-unsplash.jpg,Stimuli/Experimental_stims/faces/erik-lucatero-d2MSDujJl2g-unsplash.jpg,0,1,31,1,chosen,3700,1,9,2,50,50,32,faces,body_parts
242,19377,0,243,4,4,0,no_gain4,gain1,J,H,15,12,faces,faces,Stimuli/Experimental_stims/faces/erik-lucatero-d2MSDujJl2g-unsplash.jpg,Stimuli/Experimental_stims/faces/aiony-haust-jmATI5Q_YgY-unsplash.jpg,0,1,39,0,chosen,1200,0,9,2,50,50,15,faces,faces
243,19377,0,244,4,4,1,gain2,no_gain3,D,K,13,45,faces,objects,Stimuli/Experimental_stims/faces/daniel-rigdon-dXmXKPP2L4E-unsplash.jpg,Stimuli/Experimental_stims/objects/leohoho-rngTKHXumy0-unsplash.jpg,0,1,42,1,unchosen,2600,0,9,2,50,50,13,objects,faces
244,19377,0,245,4,4,1,gain4,no_gain4,G,J,8,37,outdoor_scenes,objects,Stimuli/Experimental_stims/outdoor_scenes/samsommer-vddccTqwal8-unsplash.jpg,Stimuli/Experimental_stims/objects/alexander-andrews-VLGWE_SumrA-unsplash.jpg,0,1,37,1,unchosen,2400,0,9,2,50,50,8,objects,outdoor_scenes
245,19377,0,246,4,4,1,gain2,no_gain6,D,A,13,46,faces,objects,Stimuli/Experimental_stims/faces/daniel-rigdon-dXmXKPP2L4E-unsplash.jpg,Stimuli/Experimental_stims/objects/mockup-graphics-PNsj6RiHAF4-unsplash.jpg,0,1,33,1,unchosen,1200,0,9,2,50,50,13,objects,faces
246,19377,0,247,4,4,0,no_gain6,gain6,A,I,5,34,outdoor_scenes,body_parts,Stimuli/Experimental_stims/outdoor_scenes/jeff-king-bJHWJeiHfHc-unsplash.jpg,Stimuli/Experimental_stims/body_parts/wagner-santos-mBWMvIuVnso-unsplash.jpg,0,1,32,0,chosen,2500,0,9,2,50,50,5,body_parts,outdoor_scenes
247,19377,0,248,4,4,1,gain2,no_gain5,D,C,13,35,faces,body_parts,Stimuli/Experimental_stims/faces/daniel-rigdon-dXmXKPP2L4E-unsplash.jpg,Stimuli/Experimental_stims/body_parts/wc-so-KH4AAPjb-tI-unsplash.jpg,0,1,33,1,unchosen,2200,0,9,2,50,50,13,body_parts,faces
248,19377,0,249,4,4,0,no_gain1,gain3,F,L,16,32,faces,body_parts,Stimuli/Experimental_stims/faces/freddy-kearney-o-ioeoATbIM-unsplash.jpg,Stimuli/Experimental_stims/body_parts/towfiqu-barbhuiya-3AsiVDsZnHg-unsplash.jpg,0,1,30,0,chosen,1100,0,9,2,50,50,16,body_parts,faces
249,19377,0,250,4,4,0,no_gain6,gain1,A,H,5,12,outdoor_scenes,faces,Stimuli/Experimental_stims/outdoor_scenes/jeff-king-bJHWJeiHfHc-unsplash.jpg,Stimuli/Experimental_stims/faces/aiony-haust-jmATI5Q_YgY-unsplash.jpg,0,1,36,0,chosen,1700,0,9,2,50,50,5,faces,outdoor_scenes
250,19377,0,251,4,4,0,no_gain1,gain2,F,D,29,13,body_parts,faces,Stimuli/Experimental_stims/body_parts/manuel-schinner-ZwjFuJ7ebpk-unsplash.jpg,Stimuli/Experimental_stims/faces/daniel-rigdon-dXmXKPP2L4E-unsplash.jpg,0,1,26,0,unchosen,1100,0,9,2,50,50,29,faces,body_parts
251,19377,0,252,4,4,1,gain6,no_gain3,I,K,34,33,body_parts,body_parts,Stimuli/Experimental_stims/body_parts/wagner-santos-mBWMvIuVnso-unsplash.jpg,Stimuli/Experimental_stims/body_parts/tucker-good-36skLT5jZcc-unsplash.jpg,0,1,31,1,chosen,1900,0,9,2,50,50,34,body_parts,body_parts
252,19377,0,253,4,4,1,gain4,no_gain1,G,F,8,29,outdoor_scenes,body_parts,Stimuli/Experimental_stims/outdoor_scenes/samsommer-vddccTqwal8-unsplash.jpg,Stimuli/Experimental_stims/body_parts/manuel-schinner-ZwjFuJ7ebpk-unsplash.jpg,0,1,35,1,unchosen,1100,0,9,2,50,50,8,body_parts,outdoor_scenes
253,19377,0,254,4,4,1,gain4,no_gain5,G,C,8,35,outdoor_scenes,body_parts,Stimuli/Experimental_stims/outdoor_scenes/samsommer-vddccTqwal8-unsplash.jpg,Stimuli/Experimental_stims/body_parts/wc-so-KH4AAPjb-tI-unsplash.jpg,0,1,35,1,unchosen,1000,0,9,2,50,50,8,body_parts,outdoor_scenes
254,19377,0,255,4,4,1,gain6,no_gain6,I,A,1,46,outdoor_scenes,objects,Stimuli/Experimental_stims/outdoor_scenes/ashim-d-silva-S2Q5mdOrrVc-unsplash.jpg,Stimuli/Experimental_stims/objects/mockup-graphics-PNsj6RiHAF4-unsplash.jpg,1,NaN,,NaN,unchosen,1600,0,9,2,50,50,NaN,NaN,NaN
255,19377,0,256,4,4,0,no_gain4,gain5,J,B,15,9,faces,outdoor_scenes,Stimuli/Experimental_stims/faces/erik-lucatero-d2MSDujJl2g-unsplash.jpg,Stimuli/Experimental_stims/outdoor_scenes/sergey-pesterev-y-b_FOmJXdg-unsplash.jpg,1,NaN,,NaN,chosen,2700,0,9,2,50,50,NaN,NaN,NaN
256,19377,0,257,4,4,1,gain4,no_gain6,G,A,8,46,outdoor_scenes,objects,Stimuli/Experimental_stims/outdoor_scenes/samsommer-vddccTqwal8-unsplash.jpg,Stimuli/Experimental_stims/objects/mockup-graphics-PNsj6RiHAF4-unsplash.jpg,1,NaN,,NaN,unchosen,3500,1,9,2,50,50,NaN,NaN,NaN
257,19377,0,258,4,4,0,no_gain2,gain6,E,I,31,1,body_parts,outdoor_scenes,Stimuli/Experimental_stims/body_parts/sincerely-media-VN6DbKajo5s-unsplash.jpg,Stimuli/Experimental_stims/outdoor_scenes/ashim-d-silva-S2Q5mdOrrVc-unsplash.jpg,1,NaN,,NaN,unchosen,1000,0,9,2,50,50,NaN,NaN,NaN
258,19377,0,259,4,4,0,no_gain2,gain3,E,L,31,19,body_parts,faces,Stimuli/Experimental_stims/body_parts/sincerely-media-VN6DbKajo5s-unsplash.jpg,Stimuli/Experimental_stims/faces/joel-mott-LaK153ghdig-unsplash.jpg,1,NaN,,NaN,unchosen,1700,0,9,2,50,50,NaN,NaN,NaN
259,19377,0,260,4,4,1,gain2,no_gain5,D,C,41,3,objects,outdoor_scenes,Stimuli/Experimental_stims/objects/insung-yoon-w2JtIQQXoRU-unsplash.jpg,Stimuli/Experimental_stims/outdoor_scenes/henry-be-NLF6hTe4PAg-unsplash.jpg,1,NaN,,NaN,chosen,1500,0,9,2,50,50,NaN,NaN,NaN
260,19377,0,261,4,4,1,gain3,no_gain5,L,C,32,3,body_parts,outdoor_scenes,Stimuli/Experimental_stims/body_parts/towfiqu-barbhuiya-3AsiVDsZnHg-unsplash.jpg,Stimuli/Experimental_stims/outdoor_scenes/henry-be-NLF6hTe4PAg-unsplash.jpg,1,NaN,,NaN,chosen,1400,0,9,2,50,50,NaN,NaN,NaN
261,19377,0,262,4,4,1,gain5,no_gain3,B,K,9,33,outdoor_scenes,body_parts,Stimuli/Experimental_stims/outdoor_scenes/sergey-pesterev-y-b_FOmJXdg-unsplash.jpg,Stimuli/Experimental_stims/body_parts/tucker-good-36skLT5jZcc-unsplash.jpg,1,NaN,,NaN,chosen,1300,0,9,2,50,50,NaN,NaN,NaN
262,19377,0,263,4,4,1,gain5,no_gain5,B,C,18,35,faces,body_parts,Stimuli/Experimental_stims/faces/jessica-radanavong-mrYkTuAesKE-unsplash.jpg,Stimuli/Experimental_stims/body_parts/wc-so-KH4AAPjb-tI-unsplash.jpg,1,NaN,,NaN,unchosen,4500,1,9,2,50,50,NaN,NaN,NaN
263,19377,0,264,4,4,0,no_gain5,gain6,C,I,35,1,body_parts,outdoor_scenes,Stimuli/Experimental_stims/body_parts/wc-so-KH4AAPjb-tI-unsplash.jpg,Stimuli/Experimental_stims/outdoor_scenes/ashim-d-silva-S2Q5mdOrrVc-unsplash.jpg,1,NaN,,NaN,unchosen,1900,0,9,2,50,50,NaN,NaN,NaN
264,19377,0,265,4,4,0,no_gain6,gain1,A,H,46,6,objects,outdoor_scenes,Stimuli/Experimental_stims/objects/mockup-graphics-PNsj6RiHAF4-unsplash.jpg,Stimuli/Experimental_stims/outdoor_scenes/meng-ji-8BH_M-53CyA-unsplash.jpg,1,NaN,,NaN,unchosen,1900,0,9,2,50,50,NaN,NaN,NaN
265,19377,0,266,4,4,1,gain5,no_gain5,B,C,9,3,outdoor_scenes,outdoor_scenes,Stimuli/Experimental_stims/outdoor_scenes/sergey-pesterev-y-b_FOmJXdg-unsplash.jpg,Stimuli/Experimental_stims/outdoor_scenes/henry-be-NLF6hTe4PAg-unsplash.jpg,1,NaN,,NaN,chosen,1600,0,9,2,50,50,NaN,NaN,NaN
266,19377,0,267,4,4,0,no_gain2,gain4,E,G,44,39,objects,objects,Stimuli/Experimental_stims/objects/kuiye-chen-NuOGFo4PudE-unsplash.jpg,Stimuli/Experimental_stims/objects/charlesdeluvio-1-nx1QR5dTE-unsplash.jpg,1,NaN,,NaN,chosen,2300,0,9,2,50,50,NaN,NaN,NaN
267,19377,0,268,4,4,1,gain6,no_gain2,I,E,34,44,body_parts,objects,Stimuli/Experimental_stims/body_parts/wagner-santos-mBWMvIuVnso-unsplash.jpg,Stimuli/Experimental_stims/objects/kuiye-chen-NuOGFo4PudE-unsplash.jpg,1,NaN,,NaN,chosen,3700,1,9,2,50,50,NaN,NaN,NaN
268,19377,0,269,4,4,0,no_gain3,gain3,K,L,45,19,objects,faces,Stimuli/Experimental_stims/objects/leohoho-rngTKHXumy0-unsplash.jpg,Stimuli/Experimental_stims/faces/joel-mott-LaK153ghdig-unsplash.jpg,1,NaN,,NaN,unchosen,1200,0,9,2,50,50,NaN,NaN,NaN
269,19377,0,270,4,4,1,gain4,no_gain3,G,K,8,45,outdoor_scenes,objects,Stimuli/Experimental_stims/outdoor_scenes/samsommer-vddccTqwal8-unsplash.jpg,Stimuli/Experimental_stims/objects/leohoho-rngTKHXumy0-unsplash.jpg,1,NaN,,NaN,unchosen,1900,0,9,2,50,50,NaN,NaN,NaN
270,19377,0,271,4,4,0,no_gain3,gain1,K,H,45,6,objects,outdoor_scenes,Stimuli/Experimental_stims/objects/leohoho-rngTKHXumy0-unsplash.jpg,Stimuli/Experimental_stims/outdoor_scenes/meng-ji-8BH_M-53CyA-unsplash.jpg,1,NaN,,NaN,unchosen,2000,0,9,2,50,50,NaN,NaN,NaN
271,19377,0,272,4,4,1,gain1,no_gain3,H,K,12,33,faces,body_parts,Stimuli/Experimental_stims/faces/aiony-haust-jmATI5Q_YgY-unsplash.jpg,Stimuli/Experimental_stims/body_parts/tucker-good-36skLT5jZcc-unsplash.jpg,1,NaN,,NaN,chosen,2700,0,9,2,50,50,NaN,NaN,NaN
272,19377,0,273,4,4,1,gain6,no_gain5,I,C,34,3,body_parts,outdoor_scenes,Stimuli/Experimental_stims/body_parts/wagner-santos-mBWMvIuVnso-unsplash.jpg,Stimuli/Experimental_stims/outdoor_scenes/henry-be-NLF6hTe4PAg-unsplash.jpg,1,NaN,,NaN,chosen,1100,0,9,2,50,50,NaN,NaN,NaN
273,19377,0,274,4,4,0,no_gain2,gain1,E,H,44,12,objects,faces,Stimuli/Experimental_stims/objects/kuiye-chen-NuOGFo4PudE-unsplash.jpg,Stimuli/Experimental_stims/faces/aiony-haust-jmATI5Q_YgY-unsplash.jpg,1,NaN,,NaN,chosen,4200,1,9,2,50,50,NaN,NaN,NaN
274,19377,0,275,4,4,1,gain3,no_gain6,L,A,19,46,faces,objects,Stimuli/Experimental_stims/faces/joel-mott-LaK153ghdig-unsplash.jpg,Stimuli/Experimental_stims/objects/mockup-graphics-PNsj6RiHAF4-unsplash.jpg,1,NaN,,NaN,unchosen,1300,0,9,2,50,50,NaN,NaN,NaN
275,19377,0,276,4,4,1,gain1,no_gain5,H,C,12,3,faces,outdoor_scenes,Stimuli/Experimental_stims/faces/aiony-haust-jmATI5Q_YgY-unsplash.jpg,Stimuli/Experimental_stims/outdoor_scenes/henry-be-NLF6hTe4PAg-unsplash.jpg,1,NaN,,NaN,chosen,2000,0,9,2,50,50,NaN,NaN,NaN
276,19377,0,277,4,4,0,no_gain3,gain2,K,D,33,41,body_parts,objects,Stimuli/Experimental_stims/body_parts/tucker-good-36skLT5jZcc-unsplash.jpg,Stimuli/Experimental_stims/objects/insung-yoon-w2JtIQQXoRU-unsplash.jpg,1,NaN,,NaN,chosen,1100,0,9,2,50,50,NaN,NaN,NaN
277,19377,0,278,4,4,1,gain5,no_gain1,B,F,18,29,faces,body_parts,Stimuli/Experimental_stims/faces/jessica-radanavong-mrYkTuAesKE-unsplash.jpg,Stimuli/Experimental_stims/body_parts/manuel-schinner-ZwjFuJ7ebpk-unsplash.jpg,1,NaN,,NaN,unchosen,2300,0,9,2,50,50,NaN,NaN,NaN
278,19377,0,279,4,4,1,gain2,no_gain2,D,E,41,44,objects,objects,Stimuli/Experimental_stims/objects/insung-yoon-w2JtIQQXoRU-unsplash.jpg,Stimuli/Experimental_stims/objects/kuiye-chen-NuOGFo4PudE-unsplash.jpg,1,NaN,,NaN,chosen,2900,0,9,2,50,50,NaN,NaN,NaN
279,19377,0,280,4,4,0,no_gain2,gain5,E,B,44,9,objects,outdoor_scenes,Stimuli/Experimental_stims/objects/kuiye-chen-NuOGFo4PudE-unsplash.jpg,Stimuli/Experimental_stims/outdoor_scenes/sergey-pesterev-y-b_FOmJXdg-unsplash.jpg,1,NaN,,NaN,chosen,1200,0,9,2,50,50,NaN,NaN,NaN
280,19377,0,281,4,4,1,gain5,no_gain6,B,A,9,5,outdoor_scenes,outdoor_scenes,Stimuli/Experimental_stims/outdoor_scenes/sergey-pesterev-y-b_FOmJXdg-unsplash.jpg,Stimuli/Experimental_stims/outdoor_scenes/jeff-king-bJHWJeiHfHc-unsplash.jpg,1,NaN,,NaN,chosen,1500,0,9,2,50,50,NaN,NaN,NaN
281,19377,0,282,4,4,1,gain6,no_gain3,I,K,1,45,outdoor_scenes,objects,Stimuli/Experimental_stims/outdoor_scenes/ashim-d-silva-S2Q5mdOrrVc-unsplash.jpg,Stimuli/Experimental_stims/objects/leohoho-rngTKHXumy0-unsplash.jpg,1,NaN,,NaN,unchosen,1100,0,9,2,50,50,NaN,NaN,NaN
282,19377,0,283,4,4,0,no_gain6,gain4,A,G,5,39,outdoor_scenes,objects,Stimuli/Experimental_stims/outdoor_scenes/jeff-king-bJHWJeiHfHc-unsplash.jpg,Stimuli/Experimental_stims/objects/charlesdeluvio-1-nx1QR5dTE-unsplash.jpg,1,NaN,,NaN,chosen,1200,0,9,2,50,50,NaN,NaN,NaN
283,19377,0,284,4,4,0,no_gain4,gain2,J,D,15,41,faces,objects,Stimuli/Experimental_stims/faces/erik-lucatero-d2MSDujJl2g-unsplash.jpg,Stimuli/Experimental_stims/objects/insung-yoon-w2JtIQQXoRU-unsplash.jpg,1,NaN,,NaN,chosen,1400,0,9,2,50,50,NaN,NaN,NaN
284,19377,0,285,4,4,1,gain2,no_gain4,D,J,13,37,faces,objects,Stimuli/Experimental_stims/faces/daniel-rigdon-dXmXKPP2L4E-unsplash.jpg,Stimuli/Experimental_stims/objects/alexander-andrews-VLGWE_SumrA-unsplash.jpg,1,NaN,,NaN,unchosen,1100,0,9,2,50,50,NaN,NaN,NaN
285,19377,0,286,4,4,1,gain3,no_gain6,L,A,32,5,body_parts,outdoor_scenes,Stimuli/Experimental_stims/body_parts/towfiqu-barbhuiya-3AsiVDsZnHg-unsplash.jpg,Stimuli/Experimental_stims/outdoor_scenes/jeff-king-bJHWJeiHfHc-unsplash.jpg,1,NaN,,NaN,chosen,2100,0,9,2,50,50,NaN,NaN,NaN
286,19377,0,287,4,4,0,no_gain1,gain1,F,H,29,6,body_parts,outdoor_scenes,Stimuli/Experimental_stims/body_parts/manuel-schinner-ZwjFuJ7ebpk-unsplash.jpg,Stimuli/Experimental_stims/outdoor_scenes/meng-ji-8BH_M-53CyA-unsplash.jpg,1,NaN,,NaN,unchosen,3300,1,9,2,50,50,NaN,NaN,NaN
287,19377,0,288,4,4,0,no_gain1,gain6,F,I,29,1,body_parts,outdoor_scenes,Stimuli/Experimental_stims/body_parts/manuel-schinner-ZwjFuJ7ebpk-unsplash.jpg,Stimuli/Experimental_stims/outdoor_scenes/ashim-d-silva-S2Q5mdOrrVc-unsplash.jpg,1,NaN,,NaN,unchosen,1900,0,9,2,50,50,NaN,NaN,NaN
288,19377,0,289,4,4,0,no_gain1,gain5,F,B,16,9,faces,outdoor_scenes,Stimuli/Experimental_stims/faces/freddy-kearney-o-ioeoATbIM-unsplash.jpg,Stimuli/Experimental_stims/outdoor_scenes/sergey-pesterev-y-b_FOmJXdg-unsplash.jpg,1,NaN,,NaN,chosen,2000,0,9,2,50,50,NaN,NaN,NaN
289,19377,0,290,4,4,0,no_gain4,gain6,J,I,15,34,faces,body_parts,Stimuli/Experimental_stims/faces/erik-lucatero-d2MSDujJl2g-unsplash.jpg,Stimuli/Experimental_stims/body_parts/wagner-santos-mBWMvIuVnso-unsplash.jpg,1,NaN,,NaN,chosen,1100,0,9,2,50,50,NaN,NaN,NaN
290,19377,0,291,4,4,1,gain3,no_gain5,L,C,19,35,faces,body_parts,Stimuli/Experimental_stims/faces/joel-mott-LaK153ghdig-unsplash.jpg,Stimuli/Experimental_stims/body_parts/wc-so-KH4AAPjb-tI-unsplash.jpg,1,NaN,,NaN,unchosen,1800,0,9,2,50,50,NaN,NaN,NaN
291,19377,0,292,4,4,0,no_gain1,gain1,F,H,16,12,faces,faces,Stimuli/Experimental_stims/faces/freddy-kearney-o-ioeoATbIM-unsplash.jpg,Stimuli/Experimental_stims/faces/aiony-haust-jmATI5Q_YgY-unsplash.jpg,1,NaN,,NaN,chosen,3200,1,9,2,50,50,NaN,NaN,NaN