,PID,practice,trial,block,run,gain_left,left_item_id,right_item_id,left_pair_id,right_pair_id,left_stimulus,right_stimulus,left_category,right_category,left_rating,right_rating,left_path,right_path,no_response,left_chosen,rt,higher_outcome_chosen,choice_type,chosen_stimulus,unchosen_stimulus,chosen_category,unchosen_category,iti,long_iti,simulation,version
0,39660,1,1,0,0,0,,,,,,,,,,,Stimuli/Practice_stims/Final_decisions/debby-hudson-FmCSSSGge-0-unsplash.jpg,Stimuli/Practice_stims/Final_decisions/yassine-khalfalli-adsQ9d_Cx0c-unsplash.jpg,0,0,1490,1,,,,,,3000,0,6,1
1,39660,1,2,0,0,0,,,,,,,,,,,Stimuli/Practice_stims/Final_decisions/florian-wehde-iVW7mZPwd4g-unsplash.jpg,Stimuli/Practice_stims/Final_decisions/patrick-perkins-3wylDrjxH-E-unsplash.jpg,0,1,1332,0,,,,,,1500,0,6,1
2,39660,1,3,0,0,0,,,,,,,,,,,Stimuli/Practice_stims/Final_decisions/debby-hudson-FmCSSSGge-0-unsplash.jpg,Stimuli/Practice_stims/Final_decisions/florian-wehde-iVW7mZPwd4g-unsplash.jpg,0,0,923,1,,,,,,2000,0,6,1
3,39660,1,4,0,0,0,,,,,,,,,,,Stimuli/Practice_stims/Final_decisions/yassine-khalfalli-adsQ9d_Cx0c-unsplash.jpg,Stimuli/Practice_stims/Final_decisions/debby-hudson-FmCSSSGge-0-unsplash.jpg,0,0,665,1,,,,,,1000,0,6,1
4,39660,0,5,1,1,0,no_gain4,gain5,B,K,22,36,faces,objects,21,29,Stimuli/Experimental_stims/faces/ravi-patel-VMGAbeeJTKo-unsplash.jpg,Stimuli/Experimental_stims/objects/alexander-andrews-JYGnB9gTCls-unsplash.jpg,0,1,762,0,chosen,22,36,faces,objects,1800,0,6,1
5,39660,0,6,1,1,1,gain3,no_gain6,C,L,8,20,outdoor_scenes,faces,91,79,Stimuli/Experimental_stims/outdoor_scenes/samsommer-vddccTqwal8-unsplash.jpg,Stimuli/Experimental_stims/faces/justin-chen-J7Cf1Gch49E-unsplash.jpg,0,0,807,0,chosen,20,8,faces,outdoor_scenes,1700,0,6,1
6,39660,0,7,1,1,1,gain6,no_gain3,J,A,39,38,objects,objects,73,66,Stimuli/Experimental_stims/objects/charlesdeluvio-1-nx1QR5dTE-unsplash.jpg,Stimuli/Experimental_stims/objects/art-lasovsky-8XddFc6NkBY-unsplash.jpg,0,0,440,0,unchosen,38,39,objects,objects,2300,0,6,1
7,39660,0,8,1,1,0,no_gain2,gain3,I,C,2,8,outdoor_scenes,outdoor_scenes,66,91,Stimuli/Experimental_stims/outdoor_scenes/bruno-van-der-kraan-qez8mNJ3ilU-unsplash.jpg,Stimuli/Experimental_stims/outdoor_scenes/samsommer-vddccTqwal8-unsplash.jpg,0,1,570,0,chosen,2,8,outdoor_scenes,outdoor_scenes,1700,0,6,1
8,39660,0,9,1,1,1,gain4,no_gain5,E,G,32,4,body_parts,outdoor_scenes,50,87,Stimuli/Experimental_stims/body_parts/towfiqu-barbhuiya-3AsiVDsZnHg-unsplash.jpg,Stimuli/Experimental_stims/outdoor_scenes/jarrett-kow-1ZOyYPOBn7I-unsplash.jpg,0,0,1222,0,unchosen,4,32,outdoor_scenes,body_parts,3900,1,6,1
9,39660,0,10,1,1,1,gain2,no_gain5,D,G,44,4,objects,outdoor_scenes,58,87,Stimuli/Experimental_stims/objects/kuiye-chen-NuOGFo4PudE-unsplash.jpg,Stimuli/Experimental_stims/outdoor_scenes/jarrett-kow-1ZOyYPOBn7I-unsplash.jpg,0,0,371,0,unchosen,4,44,outdoor_scenes,objects,1200,0,6,1
10,39660,0,11,1,1,1,gain2,no_gain5,D,G,13,43,faces,objects,37,51,Stimuli/Experimental_stims/faces/daniel-rigdon-dXmXKPP2L4E-unsplash.jpg,Stimuli/Experimental_stims/objects/jonathan-greenaway-Y4hGgeiFn3s-unsplash.jpg,0,1,528,1,chosen,13,43,faces,objects,1200,0,6,1
11,39660,0,12,1,1,0,no_gain5,gain5,G,K,43,36,objects,objects,51,29,Stimuli/Experimental_stims/objects/jonathan-greenaway-Y4hGgeiFn3s-unsplash.jpg,Stimuli/Experimental_stims/objects/alexander-andrews-JYGnB9gTCls-unsplash.jpg,0,0,1044,1,chosen,36,43,objects,objects,2600,0,6,1
12,39660,0,13,1,1,0,no_gain1,gain4,H,E,0,32,outdoor_scenes,body_parts,86,50,Stimuli/Experimental_stims/outdoor_scenes/aleksandra-boguslawska-MS7KD9Ti7FQ-unsplash.jpg,Stimuli/Experimental_stims/body_parts/towfiqu-barbhuiya-3AsiVDsZnHg-unsplash.jpg,0,0,632,1,unchosen,32,0,body_parts,outdoor_scenes,2200,0,6,1
13,39660,0,14,1,1,1,gain4,no_gain6,E,L,40,20,objects,faces,73,79,Stimuli/Experimental_stims/objects/fabian-blank-pElSkGRA2NU-unsplash.jpg,Stimuli/Experimental_stims/faces/justin-chen-J7Cf1Gch49E-unsplash.jpg,1,NaN,,NaN,chosen,NaN,NaN,NaN,NaN,1700,0,6,1
14,39660,0,15,1,1,1,gain4,no_gain4,E,B,40,22,objects,faces,73,21,Stimuli/Experimental_stims/objects/fabian-blank-pElSkGRA2NU-unsplash.jpg,Stimuli/Experimental_stims/faces/ravi-patel-VMGAbeeJTKo-unsplash.jpg,0,1,378,1,chosen,40,22,objects,faces,3100,1,6,1
15,39660,0,16,1,1,1,gain2,no_gain1,D,H,44,0,objects,outdoor_scenes,58,86,Stimuli/Experimental_stims/objects/kuiye-chen-NuOGFo4PudE-unsplash.jpg,Stimuli/Experimental_stims/outdoor_scenes/aleksandra-boguslawska-MS7KD9Ti7FQ-unsplash.jpg,0,0,441,0,unchosen,0,44,outdoor_scenes,objects,2100,0,6,1
16,39660,0,17,1,1,0,no_gain2,gain5,I,K,2,36,outdoor_scenes,objects,66,29,Stimuli/Experimental_stims/outdoor_scenes/bruno-van-der-kraan-qez8mNJ3ilU-unsplash.jpg,Stimuli/Experimental_stims/objects/alexander-andrews-JYGnB9gTCls-unsplash.jpg,0,0,414,1,chosen,36,2,objects,outdoor_scenes,1900,0,6,1
17,39660,0,18,1,1,0,no_gain1,gain5,H,K,16,36,faces,objects,76,29,Stimuli/Experimental_stims/faces/freddy-kearney-o-ioeoATbIM-unsplash.jpg,Stimuli/Experimental_stims/objects/alexander-andrews-JYGnB9gTCls-unsplash.jpg,0,0,648,1,chosen,36,16,objects,faces,1400,0,6,1
18,39660,0,19,1,1,1,gain3,no_gain5,C,G,8,43,outdoor_scenes,objects,91,51,Stimuli/Experimental_stims/outdoor_scenes/samsommer-vddccTqwal8-unsplash.jpg,Stimuli/Experimental_stims/objects/jonathan-greenaway-Y4hGgeiFn3s-unsplash.jpg,0,1,1196,1,chosen,8,43,outdoor_scenes,objects,1500,0,6,1
19,39660,0,20,1,1,0,no_gain4,gain2,B,D,9,44,outdoor_scenes,objects,83,58,Stimuli/Experimental_stims/outdoor_scenes/sergey-pesterev-y-b_FOmJXdg-unsplash.jpg,Stimuli/Experimental_stims/objects/kuiye-chen-NuOGFo4PudE-unsplash.jpg,0,0,1480,1,unchosen,44,9,objects,outdoor_scenes,1600,0,6,1
20,39660,0,21,1,1,0,no_gain1,gain3,H,C,16,8,faces,outdoor_scenes,76,91,Stimuli/Experimental_stims/faces/freddy-kearney-o-ioeoATbIM-unsplash.jpg,Stimuli/Experimental_stims/outdoor_scenes/samsommer-vddccTqwal8-unsplash.jpg,0,0,332,1,chosen,8,16,outdoor_scenes,faces,3200,1,6,1
21,39660,0,22,1,1,1,gain5,no_gain5,K,G,29,4,body_parts,outdoor_scenes,100,87,Stimuli/Experimental_stims/body_parts/manuel-schinner-ZwjFuJ7ebpk-unsplash.jpg,Stimuli/Experimental_stims/outdoor_scenes/jarrett-kow-1ZOyYPOBn7I-unsplash.jpg,0,1,523,1,unchosen,29,4,body_parts,outdoor_scenes,1900,0,6,1
22,39660,0,23,1,1,0,no_gain6,gain6,L,J,24,39,body_parts,objects,90,73,Stimuli/Experimental_stims/body_parts/clay-banks-LjqARJaJotc-unsplash.jpg,Stimuli/Experimental_stims/objects/charlesdeluvio-1-nx1QR5dTE-unsplash.jpg,0,1,394,0,unchosen,24,39,body_parts,objects,1600,0,6,1
23,39660,0,24,1,1,0,no_gain6,gain2,L,D,20,13,faces,faces,79,37,Stimuli/Experimental_stims/faces/justin-chen-J7Cf1Gch49E-unsplash.jpg,Stimuli/Experimental_stims/faces/daniel-rigdon-dXmXKPP2L4E-unsplash.jpg,0,0,491,1,chosen,13,20,faces,faces,1100,0,6,1
24,39660,0,25,1,1,1,gain4,no_gain2,E,I,32,31,body_parts,body_parts,50,63,Stimuli/Experimental_stims/body_parts/towfiqu-barbhuiya-3AsiVDsZnHg-unsplash.jpg,Stimuli/Experimental_stims/body_parts/sincerely-media-VN6DbKajo5s-unsplash.jpg,0,0,577,0,unchosen,31,32,body_parts,body_parts,2200,0,6,1
25,39660,0,26,1,1,1,gain2,no_gain3,D,A,44,38,objects,objects,58,66,Stimuli/Experimental_stims/objects/kuiye-chen-NuOGFo4PudE-unsplash.jpg,Stimuli/Experimental_stims/objects/art-lasovsky-8XddFc6NkBY-unsplash.jpg,0,0,561,0,unchosen,38,44,objects,objects,3300,1,6,1
26,39660,0,27,1,1,0,no_gain2,gain4,I,E,2,40,outdoor_scenes,objects,66,73,Stimuli/Experimental_stims/outdoor_scenes/bruno-van-der-kraan-qez8mNJ3ilU-unsplash.jpg,Stimuli/Experimental_stims/objects/fabian-blank-pElSkGRA2NU-unsplash.jpg,0,1,455,0,chosen,2,40,outdoor_scenes,objects,2100,0,6,1
27,39660,0,28,1,1,0,no_gain2,gain2,I,D,31,44,body_parts,objects,63,58,Stimuli/Experimental_stims/body_parts/sincerely-media-VN6DbKajo5s-unsplash.jpg,Stimuli/Experimental_stims/objects/kuiye-chen-NuOGFo4PudE-unsplash.jpg,0,0,497,1,unchosen,44,31,objects,body_parts,1000,0,6,1
28,39660,0,29,1,1,0,no_gain4,gain3,B,C,9,33,outdoor_scenes,body_parts,83,43,Stimuli/Experimental_stims/outdoor_scenes/sergey-pesterev-y-b_FOmJXdg-unsplash.jpg,Stimuli/Experimental_stims/body_parts/tucker-good-36skLT5jZcc-unsplash.jpg,1,NaN,,NaN,unchosen,NaN,NaN,NaN,NaN,2600,0,6,1
29,39660,0,30,1,1,0,no_gain3,gain2,A,D,5,13,outdoor_scenes,faces,95,37,Stimuli/Experimental_stims/outdoor_scenes/jeff-king-bJHWJeiHfHc-unsplash.jpg,Stimuli/Experimental_stims/faces/daniel-rigdon-dXmXKPP2L4E-unsplash.jpg,0,0,678,1,chosen,13,5,faces,outdoor_scenes,1500,0,6,1
30,39660,0,31,1,1,1,gain5,no_gain4,K,B,29,9,body_parts,outdoor_scenes,100,83,Stimuli/Experimental_stims/body_parts/manuel-schinner-ZwjFuJ7ebpk-unsplash.jpg,Stimuli/Experimental_stims/outdoor_scenes/sergey-pesterev-y-b_FOmJXdg-unsplash.jpg,0,0,510,0,unchosen,9,29,outdoor_scenes,body_parts,1200,0,6,1
31,39660,0,32,1,1,0,no_gain3,gain5,A,K,38,29,objects,body_parts,66,100,Stimuli/Experimental_stims/objects/art-lasovsky-8XddFc6NkBY-unsplash.jpg,Stimuli/Experimental_stims/body_parts/manuel-schinner-ZwjFuJ7ebpk-unsplash.jpg,0,0,577,1,unchosen,29,38,body_parts,objects,2100,0,6,1
32,39660,0,33,1,1,0,no_gain5,gain4,G,E,43,40,objects,objects,51,73,Stimuli/Experimental_stims/objects/jonathan-greenaway-Y4hGgeiFn3s-unsplash.jpg,Stimuli/Experimental_stims/objects/fabian-blank-pElSkGRA2NU-unsplash.jpg,0,0,482,1,chosen,40,43,objects,objects,4300,1,6,1
33,39660,0,34,1,1,0,no_gain1,gain5,H,K,0,29,outdoor_scenes,body_parts,86,100,Stimuli/Experimental_stims/outdoor_scenes/aleksandra-boguslawska-MS7KD9Ti7FQ-unsplash.jpg,Stimuli/Experimental_stims/body_parts/manuel-schinner-ZwjFuJ7ebpk-unsplash.jpg,0,0,406,1,unchosen,29,0,body_parts,outdoor_scenes,1000,0,6,1
34,39660,0,35,1,1,1,gain1,no_gain3,F,A,25,5,body_parts,outdoor_scenes,32,95,Stimuli/Experimental_stims/body_parts/engin-akyurt-Q2rfH3GW39c-unsplash.jpg,Stimuli/Experimental_stims/outdoor_scenes/jeff-king-bJHWJeiHfHc-unsplash.jpg,0,0,1441,0,chosen,5,25,outdoor_scenes,body_parts,2300,0,6,1
35,39660,0,36,1,1,0,no_gain6,gain5,L,K,24,29,body_parts,body_parts,90,100,Stimuli/Experimental_stims/body_parts/clay-banks-LjqARJaJotc-unsplash.jpg,Stimuli/Experimental_stims/body_parts/manuel-schinner-ZwjFuJ7ebpk-unsplash.jpg,0,0,223,1,unchosen,29,24,body_parts,body_parts,1200,0,6,1
36,39660,0,37,1,1,1,gain6,no_gain1,J,H,18,16,faces,faces,22,76,Stimuli/Experimental_stims/faces/jessica-radanavong-mrYkTuAesKE-unsplash.jpg,Stimuli/Experimental_stims/faces/freddy-kearney-o-ioeoATbIM-unsplash.jpg,1,NaN,,NaN,chosen,NaN,NaN,NaN,NaN,1300,0,6,1
37,39660,0,38,1,1,1,gain4,no_gain3,E,A,40,5,objects,outdoor_scenes,73,95,Stimuli/Experimental_stims/objects/fabian-blank-pElSkGRA2NU-unsplash.jpg,Stimuli/Experimental_stims/outdoor_scenes/jeff-king-bJHWJeiHfHc-unsplash.jpg,0,0,709,0,chosen,5,40,outdoor_scenes,objects,1700,0,6,1
38,39660,0,39,1,1,1,gain1,no_gain5,F,G,25,43,body_parts,objects,32,51,Stimuli/Experimental_stims/body_parts/engin-akyurt-Q2rfH3GW39c-unsplash.jpg,Stimuli/Experimental_stims/objects/jonathan-greenaway-Y4hGgeiFn3s-unsplash.jpg,0,0,1344,0,chosen,43,25,objects,body_parts,1300,0,6,1
39,39660,0,40,1,1,0,no_gain6,gain3,L,C,24,33,body_parts,body_parts,90,43,Stimuli/Experimental_stims/body_parts/clay-banks-LjqARJaJotc-unsplash.jpg,Stimuli/Experimental_stims/body_parts/tucker-good-36skLT5jZcc-unsplash.jpg,0,0,353,1,unchosen,33,24,body_parts,body_parts,1200,0,6,1
40,39660,0,41,1,1,0,no_gain2,gain1,I,F,2,25,outdoor_scenes,body_parts,66,32,Stimuli/Experimental_stims/outdoor_scenes/bruno-van-der-kraan-qez8mNJ3ilU-unsplash.jpg,Stimuli/Experimental_stims/body_parts/engin-akyurt-Q2rfH3GW39c-unsplash.jpg,0,0,1058,1,chosen,25,2,body_parts,outdoor_scenes,1900,0,6,1
41,39660,0,42,1,1,1,gain4,no_gain3,E,A,32,38,body_parts,objects,50,66,Stimuli/Experimental_stims/body_parts/towfiqu-barbhuiya-3AsiVDsZnHg-unsplash.jpg,Stimuli/Experimental_stims/objects/art-lasovsky-8XddFc6NkBY-unsplash.jpg,0,0,555,0,unchosen,38,32,objects,body_parts,1200,0,6,1
42,39660,0,43,1,1,1,gain6,no_gain6,J,L,18,20,faces,faces,22,79,Stimuli/Experimental_stims/faces/jessica-radanavong-mrYkTuAesKE-unsplash.jpg,Stimuli/Experimental_stims/faces/justin-chen-J7Cf1Gch49E-unsplash.jpg,1,NaN,,NaN,chosen,NaN,NaN,NaN,NaN,4000,1,6,1
43,39660,0,44,1,1,0,no_gain3,gain3,A,C,5,8,outdoor_scenes,outdoor_scenes,95,91,Stimuli/Experimental_stims/outdoor_scenes/jeff-king-bJHWJeiHfHc-unsplash.jpg,Stimuli/Experimental_stims/outdoor_scenes/samsommer-vddccTqwal8-unsplash.jpg,1,NaN,,NaN,chosen,NaN,NaN,NaN,NaN,2300,0,6,1
44,39660,0,45,1,1,1,gain2,no_gain6,D,L,44,24,objects,body_parts,58,90,Stimuli/Experimental_stims/objects/kuiye-chen-NuOGFo4PudE-unsplash.jpg,Stimuli/Experimental_stims/body_parts/clay-banks-LjqARJaJotc-unsplash.jpg,1,NaN,,NaN,unchosen,NaN,NaN,NaN,NaN,1500,0,6,1
45,39660,0,46,1,1,0,no_gain1,gain1,H,F,16,25,faces,body_parts,76,32,Stimuli/Experimental_stims/faces/freddy-kearney-o-ioeoATbIM-unsplash.jpg,Stimuli/Experimental_stims/body_parts/engin-akyurt-Q2rfH3GW39c-unsplash.jpg,1,NaN,,NaN,chosen,NaN,NaN,NaN,NaN,1100,0,6,1
46,39660,0,47,1,1,0,no_gain5,gain6,G,J,4,39,outdoor_scenes,objects,87,73,Stimuli/Experimental_stims/outdoor_scenes/jarrett-kow-1ZOyYPOBn7I-unsplash.jpg,Stimuli/Experimental_stims/objects/charlesdeluvio-1-nx1QR5dTE-unsplash.jpg,0,1,721,0,unchosen,4,39,outdoor_scenes,objects,1100,0,6,1
47,39660,0,48,1,1,0,no_gain5,gain6,G,J,43,18,objects,faces,51,22,Stimuli/Experimental_stims/objects/jonathan-greenaway-Y4hGgeiFn3s-unsplash.jpg,Stimuli/Experimental_stims/faces/jessica-radanavong-mrYkTuAesKE-unsplash.jpg,0,1,1449,0,chosen,43,18,objects,faces,3200,1,6,1
48,39660,0,49,1,1,0,no_gain2,gain6,I,J,31,39,body_parts,objects,63,73,Stimuli/Experimental_stims/body_parts/sincerely-media-VN6DbKajo5s-unsplash.jpg,Stimuli/Experimental_stims/objects/charlesdeluvio-1-nx1QR5dTE-unsplash.jpg,0,1,435,0,unchosen,31,39,body_parts,objects,1900,0,6,1
49,39660,0,50,1,1,1,gain4,no_gain4,E,B,32,9,body_parts,outdoor_scenes,50,83,Stimuli/Experimental_stims/body_parts/towfiqu-barbhuiya-3AsiVDsZnHg-unsplash.jpg,Stimuli/Experimental_stims/outdoor_scenes/sergey-pesterev-y-b_FOmJXdg-unsplash.jpg,0,1,761,1,unchosen,32,9,body_parts,outdoor_scenes,2300,0,6,1
50,39660,0,51,1,1,1,gain6,no_gain4,J,B,39,9,objects,outdoor_scenes,73,83,Stimuli/Experimental_stims/objects/charlesdeluvio-1-nx1QR5dTE-unsplash.jpg,Stimuli/Experimental_stims/outdoor_scenes/sergey-pesterev-y-b_FOmJXdg-unsplash.jpg,1,NaN,,NaN,unchosen,NaN,NaN,NaN,NaN,1200,0,6,1
51,39660,0,52,1,1,0,no_gain6,gain1,L,F,20,25,faces,body_parts,79,32,Stimuli/Experimental_stims/faces/justin-chen-J7Cf1Gch49E-unsplash.jpg,Stimuli/Experimental_stims/body_parts/engin-akyurt-Q2rfH3GW39c-unsplash.jpg,1,NaN,,NaN,chosen,NaN,NaN,NaN,NaN,2400,0,6,1
52,39660,0,53,1,1,1,gain2,no_gain1,D,H,13,16,faces,faces,37,76,Stimuli/Experimental_stims/faces/daniel-rigdon-dXmXKPP2L4E-unsplash.jpg,Stimuli/Experimental_stims/faces/freddy-kearney-o-ioeoATbIM-unsplash.jpg,1,NaN,,NaN,chosen,NaN,NaN,NaN,NaN,1600,0,6,1
53,39660,0,54,1,1,1,gain5,no_gain6,K,L,36,20,objects,faces,29,79,Stimuli/Experimental_stims/objects/alexander-andrews-JYGnB9gTCls-unsplash.jpg,Stimuli/Experimental_stims/faces/justin-chen-J7Cf1Gch49E-unsplash.jpg,1,NaN,,NaN,chosen,NaN,NaN,NaN,NaN,3100,1,6,1
54,39660,0,55,1,1,0,no_gain5,gain1,G,F,4,14,outdoor_scenes,faces,87,68,Stimuli/Experimental_stims/outdoor_scenes/jarrett-kow-1ZOyYPOBn7I-unsplash.jpg,Stimuli/Experimental_stims/faces/david-siglin-UuW4psOb388-unsplash.jpg,0,1,1408,0,unchosen,4,14,outdoor_scenes,faces,2300,0,6,1
55,39660,0,56,1,1,1,gain2,no_gain2,D,I,13,2,faces,outdoor_scenes,37,66,Stimuli/Experimental_stims/faces/daniel-rigdon-dXmXKPP2L4E-unsplash.jpg,Stimuli/Experimental_stims/outdoor_scenes/bruno-van-der-kraan-qez8mNJ3ilU-unsplash.jpg,1,NaN,,NaN,chosen,NaN,NaN,NaN,NaN,2600,0,6,1
56,39660,0,57,1,1,1,gain3,no_gain2,C,I,33,31,body_parts,body_parts,43,63,Stimuli/Experimental_stims/body_parts/tucker-good-36skLT5jZcc-unsplash.jpg,Stimuli/Experimental_stims/body_parts/sincerely-media-VN6DbKajo5s-unsplash.jpg,0,0,637,0,unchosen,31,33,body_parts,body_parts,1700,0,6,1
57,39660,0,58,1,1,0,no_gain1,gain3,H,C,0,33,outdoor_scenes,body_parts,86,43,Stimuli/Experimental_stims/outdoor_scenes/aleksandra-boguslawska-MS7KD9Ti7FQ-unsplash.jpg,Stimuli/Experimental_stims/body_parts/tucker-good-36skLT5jZcc-unsplash.jpg,0,0,31,1,unchosen,33,0,body_parts,outdoor_scenes,1100,0,6,1
58,39660,0,59,1,1,1,gain6,no_gain4,J,B,18,22,faces,faces,22,21,Stimuli/Experimental_stims/faces/jessica-radanavong-mrYkTuAesKE-unsplash.jpg,Stimuli/Experimental_stims/faces/ravi-patel-VMGAbeeJTKo-unsplash.jpg,1,NaN,,NaN,chosen,NaN,NaN,NaN,NaN,2600,0,6,1
59,39660,0,60,1,1,1,gain6,no_gain1,J,H,39,0,objects,outdoor_scenes,73,86,Stimuli/Experimental_stims/objects/charlesdeluvio-1-nx1QR5dTE-unsplash.jpg,Stimuli/Experimental_stims/outdoor_scenes/aleksandra-boguslawska-MS7KD9Ti7FQ-unsplash.jpg,0,0,171,0,unchosen,0,39,outdoor_scenes,objects,1000,0,6,1
60,39660,0,61,1,1,1,gain1,no_gain3,F,A,14,38,faces,objects,68,66,Stimuli/Experimental_stims/faces/david-siglin-UuW4psOb388-unsplash.jpg,Stimuli/Experimental_stims/objects/art-lasovsky-8XddFc6NkBY-unsplash.jpg,1,NaN,,NaN,unchosen,NaN,NaN,NaN,NaN,2400,0,6,1
61,39660,0,62,1,1,0,no_gain6,gain4,L,E,24,32,body_parts,body_parts,90,50,Stimuli/Experimental_stims/body_parts/clay-banks-LjqARJaJotc-unsplash.jpg,Stimuli/Experimental_stims/body_parts/towfiqu-barbhuiya-3AsiVDsZnHg-unsplash.jpg,0,0,619,1,unchosen,32,24,body_parts,body_parts,3500,1,6,1
62,39660,0,63,1,1,1,gain6,no_gain3,J,A,18,5,faces,outdoor_scenes,22,95,Stimuli/Experimental_stims/faces/jessica-radanavong-mrYkTuAesKE-unsplash.jpg,Stimuli/Experimental_stims/outdoor_scenes/jeff-king-bJHWJeiHfHc-unsplash.jpg,0,0,718,0,chosen,5,18,outdoor_scenes,faces,1700,0,6,1
63,39660,0,64,1,1,1,gain2,no_gain4,D,B,13,22,faces,faces,37,21,Stimuli/Experimental_stims/faces/daniel-rigdon-dXmXKPP2L4E-unsplash.jpg,Stimuli/Experimental_stims/faces/ravi-patel-VMGAbeeJTKo-unsplash.jpg,1,NaN,,NaN,chosen,NaN,NaN,NaN,NaN,1200,0,6,1
64,39660,0,65,1,1,0,no_gain6,gain1,L,F,24,14,body_parts,faces,90,68,Stimuli/Experimental_stims/body_parts/clay-banks-LjqARJaJotc-unsplash.jpg,Stimuli/Experimental_stims/faces/david-siglin-UuW4psOb388-unsplash.jpg,0,0,283,1,unchosen,14,24,faces,body_parts,1600,0,6,1
65,39660,0,66,1,1,0,no_gain4,gain1,B,F,9,14,outdoor_scenes,faces,83,68,Stimuli/Experimental_stims/outdoor_scenes/sergey-pesterev-y-b_FOmJXdg-unsplash.jpg,Stimuli/Experimental_stims/faces/david-siglin-UuW4psOb388-unsplash.jpg,0,1,519,0,unchosen,9,14,outdoor_scenes,faces,1200,0,6,1
66,39660,0,67,1,1,1,gain5,no_gain2,K,I,29,31,body_parts,body_parts,100,63,Stimuli/Experimental_stims/body_parts/manuel-schinner-ZwjFuJ7ebpk-unsplash.jpg,Stimuli/Experimental_stims/body_parts/sincerely-media-VN6DbKajo5s-unsplash.jpg,0,1,484,1,unchosen,29,31,body_parts,body_parts,3400,1,6,1
67,39660,0,68,1,1,0,no_gain1,gain4,H,E,16,40,faces,objects,76,73,Stimuli/Experimental_stims/faces/freddy-kearney-o-ioeoATbIM-unsplash.jpg,Stimuli/Experimental_stims/objects/fabian-blank-pElSkGRA2NU-unsplash.jpg,0,0,577,1,chosen,40,16,objects,faces,1900,0,6,1
68,39660,0,69,1,1,1,gain6,no_gain2,J,I,18,2,faces,outdoor_scenes,22,66,Stimuli/Experimental_stims/faces/jessica-radanavong-mrYkTuAesKE-unsplash.jpg,Stimuli/Experimental_stims/outdoor_scenes/bruno-van-der-kraan-qez8mNJ3ilU-unsplash.jpg,0,0,750,0,chosen,2,18,outdoor_scenes,faces,2200,0,6,1
69,39660,0,70,1,1,1,gain5,no_gain3,K,A,36,5,objects,outdoor_scenes,29,95,Stimuli/Experimental_stims/objects/alexander-andrews-JYGnB9gTCls-unsplash.jpg,Stimuli/Experimental_stims/outdoor_scenes/jeff-king-bJHWJeiHfHc-unsplash.jpg,0,0,646,0,chosen,5,36,outdoor_scenes,objects,1100,0,6,1
70,39660,0,71,1,1,0,no_gain1,gain1,H,F,0,14,outdoor_scenes,faces,86,68,Stimuli/Experimental_stims/outdoor_scenes/aleksandra-boguslawska-MS7KD9Ti7FQ-unsplash.jpg,Stimuli/Experimental_stims/faces/david-siglin-UuW4psOb388-unsplash.jpg,1,NaN,,NaN,unchosen,NaN,NaN,NaN,NaN,2600,0,6,1
71,39660,0,72,1,1,1,gain1,no_gain2,F,I,14,31,faces,body_parts,68,63,Stimuli/Experimental_stims/faces/david-siglin-UuW4psOb388-unsplash.jpg,Stimuli/Experimental_stims/body_parts/sincerely-media-VN6DbKajo5s-unsplash.jpg,0,1,429,1,unchosen,14,31,faces,body_parts,2100,0,6,1
72,39660,0,73,1,1,0,no_gain3,gain3,A,C,38,33,objects,body_parts,66,43,Stimuli/Experimental_stims/objects/art-lasovsky-8XddFc6NkBY-unsplash.jpg,Stimuli/Experimental_stims/body_parts/tucker-good-36skLT5jZcc-unsplash.jpg,0,1,513,0,unchosen,38,33,objects,body_parts,1600,0,6,1
73,39660,0,74,1,1,0,no_gain4,gain1,B,F,22,25,faces,body_parts,21,32,Stimuli/Experimental_stims/faces/ravi-patel-VMGAbeeJTKo-unsplash.jpg,Stimuli/Experimental_stims/body_parts/engin-akyurt-Q2rfH3GW39c-unsplash.jpg,0,0,437,1,chosen,25,22,body_parts,faces,1200,0,6,1
74,39660,0,75,1,1,1,gain3,no_gain5,C,G,33,4,body_parts,outdoor_scenes,43,87,Stimuli/Experimental_stims/body_parts/tucker-good-36skLT5jZcc-unsplash.jpg,Stimuli/Experimental_stims/outdoor_scenes/jarrett-kow-1ZOyYPOBn7I-unsplash.jpg,0,1,1115,1,unchosen,33,4,body_parts,outdoor_scenes,2600,0,6,1
75,39660,0,76,1,1,0,no_gain4,gain3,B,C,22,8,faces,outdoor_scenes,21,91,Stimuli/Experimental_stims/faces/ravi-patel-VMGAbeeJTKo-unsplash.jpg,Stimuli/Experimental_stims/outdoor_scenes/samsommer-vddccTqwal8-unsplash.jpg,0,0,462,1,chosen,8,22,outdoor_scenes,faces,3600,1,6,1
76,39660,0,77,2,2,1,gain4,no_gain6,E,L,32,24,body_parts,body_parts,50,90,Stimuli/Experimental_stims/body_parts/towfiqu-barbhuiya-3AsiVDsZnHg-unsplash.jpg,Stimuli/Experimental_stims/body_parts/clay-banks-LjqARJaJotc-unsplash.jpg,0,0,729,0,unchosen,24,32,body_parts,body_parts,3100,1,4,1
77,39660,0,78,2,2,1,gain3,no_gain1,C,H,8,16,outdoor_scenes,faces,91,76,Stimuli/Experimental_stims/outdoor_scenes/samsommer-vddccTqwal8-unsplash.jpg,Stimuli/Experimental_stims/faces/freddy-kearney-o-ioeoATbIM-unsplash.jpg,0,1,446,1,chosen,8,16,outdoor_scenes,faces,2600,0,4,1
78,39660,0,79,2,2,0,no_gain5,gain5,G,K,43,36,objects,objects,51,29,Stimuli/Experimental_stims/objects/jonathan-greenaway-Y4hGgeiFn3s-unsplash.jpg,Stimuli/Experimental_stims/objects/alexander-andrews-JYGnB9gTCls-unsplash.jpg,0,0,434,1,chosen,36,43,objects,objects,1800,0,4,1
79,39660,0,80,2,2,0,no_gain5,gain2,G,D,4,44,outdoor_scenes,objects,87,58,Stimuli/Experimental_stims/outdoor_scenes/jarrett-kow-1ZOyYPOBn7I-unsplash.jpg,Stimuli/Experimental_stims/objects/kuiye-chen-NuOGFo4PudE-unsplash.jpg,0,0,442,1,unchosen,44,4,objects,outdoor_scenes,1000,0,4,1
80,39660,0,81,2,2,0,no_gain5,gain6,G,J,43,18,objects,faces,51,22,Stimuli/Experimental_stims/objects/jonathan-greenaway-Y4hGgeiFn3s-unsplash.jpg,Stimuli/Experimental_stims/faces/jessica-radanavong-mrYkTuAesKE-unsplash.jpg,0,0,1115,1,chosen,18,43,faces,objects,2300,0,4,1
81,39660,0,82,2,2,1,gain2,no_gain1,D,H,13,16,faces,faces,37,76,Stimuli/Experimental_stims/faces/daniel-rigdon-dXmXKPP2L4E-unsplash.jpg,Stimuli/Experimental_stims/faces/freddy-kearney-o-ioeoATbIM-unsplash.jpg,0,0,695,0,chosen,16,13,faces,faces,1100,0,4,1
82,39660,0,83,2,2,1,gain6,no_gain4,J,B,18,22,faces,faces,22,21,Stimuli/Experimental_stims/faces/jessica-radanavong-mrYkTuAesKE-unsplash.jpg,Stimuli/Experimental_stims/faces/ravi-patel-VMGAbeeJTKo-unsplash.jpg,0,1,1087,1,chosen,18,22,faces,faces,1500,0,4,1
83,39660,0,84,2,2,1,gain1,no_gain4,F,B,14,9,faces,outdoor_scenes,68,83,Stimuli/Experimental_stims/faces/david-siglin-UuW4psOb388-unsplash.jpg,Stimuli/Experimental_stims/outdoor_scenes/sergey-pesterev-y-b_FOmJXdg-unsplash.jpg,0,1,1498,1,unchosen,14,9,faces,outdoor_scenes,2400,0,4,1
84,39660,0,85,2,2,0,no_gain2,gain2,I,D,31,44,body_parts,objects,63,58,Stimuli/Experimental_stims/body_parts/sincerely-media-VN6DbKajo5s-unsplash.jpg,Stimuli/Experimental_stims/objects/kuiye-chen-NuOGFo4PudE-unsplash.jpg,0,0,502,1,unchosen,44,31,objects,body_parts,2300,0,4,1
85,39660,0,86,2,2,1,gain6,no_gain3,J,A,18,5,faces,outdoor_scenes,22,95,Stimuli/Experimental_stims/faces/jessica-radanavong-mrYkTuAesKE-unsplash.jpg,Stimuli/Experimental_stims/outdoor_scenes/jeff-king-bJHWJeiHfHc-unsplash.jpg,0,0,716,0,chosen,5,18,outdoor_scenes,faces,1200,0,4,1
86,39660,0,87,2,2,0,no_gain5,gain4,G,E,4,32,outdoor_scenes,body_parts,87,50,Stimuli/Experimental_stims/outdoor_scenes/jarrett-kow-1ZOyYPOBn7I-unsplash.jpg,Stimuli/Experimental_stims/body_parts/towfiqu-barbhuiya-3AsiVDsZnHg-unsplash.jpg,0,0,631,1,unchosen,32,4,body_parts,outdoor_scenes,1300,0,4,1
87,39660,0,88,2,2,1,gain2,no_gain2,D,I,13,2,faces,outdoor_scenes,37,66,Stimuli/Experimental_stims/faces/daniel-rigdon-dXmXKPP2L4E-unsplash.jpg,Stimuli/Experimental_stims/outdoor_scenes/bruno-van-der-kraan-qez8mNJ3ilU-unsplash.jpg,0,0,473,0,chosen,2,13,outdoor_scenes,faces,3700,1,4,1
88,39660,0,89,2,2,1,gain5,no_gain3,K,A,36,5,objects,outdoor_scenes,29,95,Stimuli/Experimental_stims/objects/alexander-andrews-JYGnB9gTCls-unsplash.jpg,Stimuli/Experimental_stims/outdoor_scenes/jeff-king-bJHWJeiHfHc-unsplash.jpg,0,0,501,0,chosen,5,36,outdoor_scenes,objects,1600,0,4,1
89,39660,0,90,2,2,0,no_gain3,gain1,A,F,5,25,outdoor_scenes,body_parts,95,32,Stimuli/Experimental_stims/outdoor_scenes/jeff-king-bJHWJeiHfHc-unsplash.jpg,Stimuli/Experimental_stims/body_parts/engin-akyurt-Q2rfH3GW39c-unsplash.jpg,0,0,1366,1,chosen,25,5,body_parts,outdoor_scenes,1700,0,4,1
90,39660,0,91,2,2,0,no_gain2,gain1,I,F,31,14,body_parts,faces,63,68,Stimuli/Experimental_stims/body_parts/sincerely-media-VN6DbKajo5s-unsplash.jpg,Stimuli/Experimental_stims/faces/david-siglin-UuW4psOb388-unsplash.jpg,0,0,793,1,unchosen,14,31,faces,body_parts,1200,0,4,1
91,39660,0,92,2,2,0,no_gain6,gain5,L,K,20,36,faces,objects,79,29,Stimuli/Experimental_stims/faces/justin-chen-J7Cf1Gch49E-unsplash.jpg,Stimuli/Experimental_stims/objects/alexander-andrews-JYGnB9gTCls-unsplash.jpg,1,NaN,,NaN,chosen,NaN,NaN,NaN,NaN,1100,0,4,1
92,39660,0,93,2,2,0,no_gain4,gain3,B,C,22,8,faces,outdoor_scenes,21,91,Stimuli/Experimental_stims/faces/ravi-patel-VMGAbeeJTKo-unsplash.jpg,Stimuli/Experimental_stims/outdoor_scenes/samsommer-vddccTqwal8-unsplash.jpg,0,1,295,0,chosen,22,8,faces,outdoor_scenes,1300,0,4,1
93,39660,0,94,2,2,1,gain4,no_gain5,E,G,40,43,objects,objects,73,51,Stimuli/Experimental_stims/objects/fabian-blank-pElSkGRA2NU-unsplash.jpg,Stimuli/Experimental_stims/objects/jonathan-greenaway-Y4hGgeiFn3s-unsplash.jpg,0,0,547,0,chosen,43,40,objects,objects,4500,1,4,1
94,39660,0,95,2,2,0,no_gain5,gain1,G,F,4,14,outdoor_scenes,faces,87,68,Stimuli/Experimental_stims/outdoor_scenes/jarrett-kow-1ZOyYPOBn7I-unsplash.jpg,Stimuli/Experimental_stims/faces/david-siglin-UuW4psOb388-unsplash.jpg,0,1,423,0,unchosen,4,14,outdoor_scenes,faces,1900,0,4,1
95,39660,0,96,2,2,1,gain1,no_gain3,F,A,14,38,faces,objects,68,66,Stimuli/Experimental_stims/faces/david-siglin-UuW4psOb388-unsplash.jpg,Stimuli/Experimental_stims/objects/art-lasovsky-8XddFc6NkBY-unsplash.jpg,0,0,411,0,unchosen,38,14,objects,faces,1100,0,4,1
96,39660,0,97,2,2,1,gain3,no_gain3,C,A,33,38,body_parts,objects,43,66,Stimuli/Experimental_stims/body_parts/tucker-good-36skLT5jZcc-unsplash.jpg,Stimuli/Experimental_stims/objects/art-lasovsky-8XddFc6NkBY-unsplash.jpg,0,1,1022,1,unchosen,33,38,body_parts,objects,2300,0,4,1
97,39660,0,98,2,2,0,no_gain5,gain1,G,F,43,25,objects,body_parts,51,32,Stimuli/Experimental_stims/objects/jonathan-greenaway-Y4hGgeiFn3s-unsplash.jpg,Stimuli/Experimental_stims/body_parts/engin-akyurt-Q2rfH3GW39c-unsplash.jpg,0,0,382,1,chosen,25,43,body_parts,objects,2800,0,4,1
98,39660,0,99,2,2,0,no_gain5,gain5,G,K,4,29,outdoor_scenes,body_parts,87,100,Stimuli/Experimental_stims/outdoor_scenes/jarrett-kow-1ZOyYPOBn7I-unsplash.jpg,Stimuli/Experimental_stims/body_parts/manuel-schinner-ZwjFuJ7ebpk-unsplash.jpg,0,0,309,1,unchosen,29,4,body_parts,outdoor_scenes,3200,1,4,1
99,39660,0,100,2,2,1,gain5,no_gain1,K,H,36,16,objects,faces,29,76,Stimuli/Experimental_stims/objects/alexander-andrews-JYGnB9gTCls-unsplash.jpg,Stimuli/Experimental_stims/faces/freddy-kearney-o-ioeoATbIM-unsplash.jpg,0,0,524,0,chosen,16,36,faces,objects,2000,0,4,1
100,39660,0,101,2,2,0,no_gain2,gain6,I,J,2,18,outdoor_scenes,faces,66,22,Stimuli/Experimental_stims/outdoor_scenes/bruno-van-der-kraan-qez8mNJ3ilU-unsplash.jpg,Stimuli/Experimental_stims/faces/jessica-radanavong-mrYkTuAesKE-unsplash.jpg,0,0,825,1,chosen,18,2,faces,outdoor_scenes,2500,0,4,1
101,39660,0,102,2,2,1,gain3,no_gain5,C,G,33,4,body_parts,outdoor_scenes,43,87,Stimuli/Experimental_stims/body_parts/tucker-good-36skLT5jZcc-unsplash.jpg,Stimuli/Experimental_stims/outdoor_scenes/jarrett-kow-1ZOyYPOBn7I-unsplash.jpg,0,1,375,1,unchosen,33,4,body_parts,outdoor_scenes,1300,0,4,1
102,39660,0,103,2,2,1,gain6,no_gain3,J,A,39,38,objects,objects,73,66,Stimuli/Experimental_stims/objects/charlesdeluvio-1-nx1QR5dTE-unsplash.jpg,Stimuli/Experimental_stims/objects/art-lasovsky-8XddFc6NkBY-unsplash.jpg,0,1,561,1,unchosen,39,38,objects,objects,1300,0,4,1
103,39660,0,104,2,2,1,gain4,no_gain4,E,B,32,9,body_parts,outdoor_scenes,50,83,Stimuli/Experimental_stims/body_parts/towfiqu-barbhuiya-3AsiVDsZnHg-unsplash.jpg,Stimuli/Experimental_stims/outdoor_scenes/sergey-pesterev-y-b_FOmJXdg-unsplash.jpg,0,0,482,0,unchosen,9,32,outdoor_scenes,body_parts,4500,1,4,1
104,39660,0,105,2,2,1,gain6,no_gain1,J,H,18,16,faces,faces,22,76,Stimuli/Experimental_stims/faces/jessica-radanavong-mrYkTuAesKE-unsplash.jpg,Stimuli/Experimental_stims/faces/freddy-kearney-o-ioeoATbIM-unsplash.jpg,0,1,473,1,chosen,18,16,faces,faces,1400,0,4,1
105,39660,0,106,2,2,1,gain2,no_gain6,D,L,44,24,objects,body_parts,58,90,Stimuli/Experimental_stims/objects/kuiye-chen-NuOGFo4PudE-unsplash.jpg,Stimuli/Experimental_stims/body_parts/clay-banks-LjqARJaJotc-unsplash.jpg,0,0,423,0,unchosen,24,44,body_parts,objects,2600,0,4,1
106,39660,0,107,2,2,1,gain4,no_gain4,E,B,40,22,objects,faces,73,21,Stimuli/Experimental_stims/objects/fabian-blank-pElSkGRA2NU-unsplash.jpg,Stimuli/Experimental_stims/faces/ravi-patel-VMGAbeeJTKo-unsplash.jpg,0,1,370,1,chosen,40,22,objects,faces,2100,0,4,1
107,39660,0,108,2,2,0,no_gain6,gain6,L,J,24,39,body_parts,objects,90,73,Stimuli/Experimental_stims/body_parts/clay-banks-LjqARJaJotc-unsplash.jpg,Stimuli/Experimental_stims/objects/charlesdeluvio-1-nx1QR5dTE-unsplash.jpg,0,0,501,1,unchosen,39,24,objects,body_parts,2100,0,4,1
108,39660,0,109,2,2,1,gain4,no_gain3,E,A,32,38,body_parts,objects,50,66,Stimuli/Experimental_stims/body_parts/towfiqu-barbhuiya-3AsiVDsZnHg-unsplash.jpg,Stimuli/Experimental_stims/objects/art-lasovsky-8XddFc6NkBY-unsplash.jpg,0,1,455,1,unchosen,32,38,body_parts,objects,2600,0,4,1
109,39660,0,110,2,2,0,no_gain1,gain1,H,F,16,25,faces,body_parts,76,32,Stimuli/Experimental_stims/faces/freddy-kearney-o-ioeoATbIM-unsplash.jpg,Stimuli/Experimental_stims/body_parts/engin-akyurt-Q2rfH3GW39c-unsplash.jpg,0,0,376,1,chosen,25,16,body_parts,faces,3000,1,4,1
110,39660,0,111,2,2,1,gain2,no_gain4,D,B,13,22,faces,faces,37,21,Stimuli/Experimental_stims/faces/daniel-rigdon-dXmXKPP2L4E-unsplash.jpg,Stimuli/Experimental_stims/faces/ravi-patel-VMGAbeeJTKo-unsplash.jpg,0,0,375,0,chosen,22,13,faces,faces,1100,0,4,1
111,39660,0,112,2,2,0,no_gain1,gain3,H,C,0,33,outdoor_scenes,body_parts,86,43,Stimuli/Experimental_stims/outdoor_scenes/aleksandra-boguslawska-MS7KD9Ti7FQ-unsplash.jpg,Stimuli/Experimental_stims/body_parts/tucker-good-36skLT5jZcc-unsplash.jpg,0,1,566,0,unchosen,0,33,outdoor_scenes,body_parts,1000,0,4,1
112,39660,0,113,2,2,1,gain5,no_gain1,K,H,29,0,body_parts,outdoor_scenes,100,86,Stimuli/Experimental_stims/body_parts/manuel-schinner-ZwjFuJ7ebpk-unsplash.jpg,Stimuli/Experimental_stims/outdoor_scenes/aleksandra-boguslawska-MS7KD9Ti7FQ-unsplash.jpg,0,0,656,0,unchosen,0,29,outdoor_scenes,body_parts,1300,0,4,1
113,39660,0,114,2,2,1,gain3,no_gain6,C,L,8,20,outdoor_scenes,faces,91,79,Stimuli/Experimental_stims/outdoor_scenes/samsommer-vddccTqwal8-unsplash.jpg,Stimuli/Experimental_stims/faces/justin-chen-J7Cf1Gch49E-unsplash.jpg,0,0,607,0,chosen,20,8,faces,outdoor_scenes,1000,0,4,1
114,39660,0,115,2,2,0,no_gain1,gain1,H,F,0,14,outdoor_scenes,faces,86,68,Stimuli/Experimental_stims/outdoor_scenes/aleksandra-boguslawska-MS7KD9Ti7FQ-unsplash.jpg,Stimuli/Experimental_stims/faces/david-siglin-UuW4psOb388-unsplash.jpg,0,0,484,1,unchosen,14,0,faces,outdoor_scenes,1200,0,4,1
115,39660,0,116,2,2,0,no_gain5,gain3,G,C,43,8,objects,outdoor_scenes,51,91,Stimuli/Experimental_stims/objects/jonathan-greenaway-Y4hGgeiFn3s-unsplash.jpg,Stimuli/Experimental_stims/outdoor_scenes/samsommer-vddccTqwal8-unsplash.jpg,0,1,531,0,chosen,43,8,objects,outdoor_scenes,1800,0,4,1
116,39660,0,117,2,2,1,gain5,no_gain2,K,I,29,31,body_parts,body_parts,100,63,Stimuli/Experimental_stims/body_parts/manuel-schinner-ZwjFuJ7ebpk-unsplash.jpg,Stimuli/Experimental_stims/body_parts/sincerely-media-VN6DbKajo5s-unsplash.jpg,0,0,406,0,unchosen,31,29,body_parts,body_parts,2300,0,4,1
117,39660,0,118,2,2,1,gain4,no_gain1,E,H,40,16,objects,faces,73,76,Stimuli/Experimental_stims/objects/fabian-blank-pElSkGRA2NU-unsplash.jpg,Stimuli/Experimental_stims/faces/freddy-kearney-o-ioeoATbIM-unsplash.jpg,0,1,342,1,chosen,40,16,objects,faces,3500,1,4,1
118,39660,0,119,2,2,0,no_gain2,gain6,I,J,31,39,body_parts,objects,63,73,Stimuli/Experimental_stims/body_parts/sincerely-media-VN6DbKajo5s-unsplash.jpg,Stimuli/Experimental_stims/objects/charlesdeluvio-1-nx1QR5dTE-unsplash.jpg,0,1,393,0,unchosen,31,39,body_parts,objects,1300,0,4,1
119,39660,0,120,2,2,0,no_gain2,gain5,I,K,2,36,outdoor_scenes,objects,66,29,Stimuli/Experimental_stims/outdoor_scenes/bruno-van-der-kraan-qez8mNJ3ilU-unsplash.jpg,Stimuli/Experimental_stims/objects/alexander-andrews-JYGnB9gTCls-unsplash.jpg,0,0,612,1,chosen,36,2,objects,outdoor_scenes,1400,0,4,1
120,39660,0,121,2,2,1,gain3,no_gain3,C,A,8,5,outdoor_scenes,outdoor_scenes,91,95,Stimuli/Experimental_stims/outdoor_scenes/samsommer-vddccTqwal8-unsplash.jpg,Stimuli/Experimental_stims/outdoor_scenes/jeff-king-bJHWJeiHfHc-unsplash.jpg,0,0,709,0,chosen,5,8,outdoor_scenes,outdoor_scenes,1300,0,4,1
121,39660,0,122,2,2,1,gain6,no_gain1,J,H,39,0,objects,outdoor_scenes,73,86,Stimuli/Experimental_stims/objects/charlesdeluvio-1-nx1QR5dTE-unsplash.jpg,Stimuli/Experimental_stims/outdoor_scenes/aleksandra-boguslawska-MS7KD9Ti7FQ-unsplash.jpg,0,1,475,1,unchosen,39,0,objects,outdoor_scenes,2800,0,4,1
122,39660,0,123,2,2,1,gain5,no_gain6,K,L,29,24,body_parts,body_parts,100,90,Stimuli/Experimental_stims/body_parts/manuel-schinner-ZwjFuJ7ebpk-unsplash.jpg,Stimuli/Experimental_stims/body_parts/clay-banks-LjqARJaJotc-unsplash.jpg,0,0,454,0,unchosen,24,29,body_parts,body_parts,1800,0,4,1
123,39660,0,124,2,2,0,no_gain2,gain4,I,E,31,32,body_parts,body_parts,63,50,Stimuli/Experimental_stims/body_parts/sincerely-media-VN6DbKajo5s-unsplash.jpg,Stimuli/Experimental_stims/body_parts/towfiqu-barbhuiya-3AsiVDsZnHg-unsplash.jpg,1,NaN,,NaN,unchosen,NaN,NaN,NaN,NaN,1200,0,4,1
124,39660,0,125,2,2,0,no_gain3,gain4,A,E,5,40,outdoor_scenes,objects,95,73,Stimuli/Experimental_stims/outdoor_scenes/jeff-king-bJHWJeiHfHc-unsplash.jpg,Stimuli/Experimental_stims/objects/fabian-blank-pElSkGRA2NU-unsplash.jpg,0,0,976,1,chosen,40,5,objects,outdoor_scenes,1000,0,4,1
125,39660,0,126,2,2,1,gain3,no_gain4,C,B,33,9,body_parts,outdoor_scenes,43,83,Stimuli/Experimental_stims/body_parts/tucker-good-36skLT5jZcc-unsplash.jpg,Stimuli/Experimental_stims/outdoor_scenes/sergey-pesterev-y-b_FOmJXdg-unsplash.jpg,0,0,1165,0,unchosen,9,33,outdoor_scenes,body_parts,1600,0,4,1
126,39660,0,127,2,2,0,no_gain2,gain4,I,E,2,40,outdoor_scenes,objects,66,73,Stimuli/Experimental_stims/outdoor_scenes/bruno-van-der-kraan-qez8mNJ3ilU-unsplash.jpg,Stimuli/Experimental_stims/objects/fabian-blank-pElSkGRA2NU-unsplash.jpg,1,NaN,,NaN,chosen,NaN,NaN,NaN,NaN,1500,0,4,1
127,39660,0,128,2,2,0,no_gain5,gain2,G,D,43,13,objects,faces,51,37,Stimuli/Experimental_stims/objects/jonathan-greenaway-Y4hGgeiFn3s-unsplash.jpg,Stimuli/Experimental_stims/faces/daniel-rigdon-dXmXKPP2L4E-unsplash.jpg,0,0,795,1,chosen,13,43,faces,objects,3300,1,4,1
128,39660,0,129,2,2,0,no_gain4,gain1,B,F,22,25,faces,body_parts,21,32,Stimuli/Experimental_stims/faces/ravi-patel-VMGAbeeJTKo-unsplash.jpg,Stimuli/Experimental_stims/body_parts/engin-akyurt-Q2rfH3GW39c-unsplash.jpg,0,1,348,0,chosen,22,25,faces,body_parts,2200,0,4,1
129,39660,0,130,2,2,0,no_gain5,gain6,G,J,4,39,outdoor_scenes,objects,87,73,Stimuli/Experimental_stims/outdoor_scenes/jarrett-kow-1ZOyYPOBn7I-unsplash.jpg,Stimuli/Experimental_stims/objects/charlesdeluvio-1-nx1QR5dTE-unsplash.jpg,0,0,658,1,unchosen,39,4,objects,outdoor_scenes,2400,0,4,1
130,39660,0,131,2,2,1,gain2,no_gain3,D,A,13,5,faces,outdoor_scenes,37,95,Stimuli/Experimental_stims/faces/daniel-rigdon-dXmXKPP2L4E-unsplash.jpg,Stimuli/Experimental_stims/outdoor_scenes/jeff-king-bJHWJeiHfHc-unsplash.jpg,0,0,646,0,chosen,5,13,outdoor_scenes,faces,1300,0,4,1
131,39660,0,132,2,2,1,gain6,no_gain4,J,B,39,9,objects,outdoor_scenes,73,83,Stimuli/Experimental_stims/objects/charlesdeluvio-1-nx1QR5dTE-unsplash.jpg,Stimuli/Experimental_stims/outdoor_scenes/sergey-pesterev-y-b_FOmJXdg-unsplash.jpg,0,0,545,0,unchosen,9,39,outdoor_scenes,objects,2400,0,4,1
132,39660,0,133,2,2,0,no_gain1,gain4,H,E,0,32,outdoor_scenes,body_parts,86,50,Stimuli/Experimental_stims/outdoor_scenes/aleksandra-boguslawska-MS7KD9Ti7FQ-unsplash.jpg,Stimuli/Experimental_stims/body_parts/towfiqu-barbhuiya-3AsiVDsZnHg-unsplash.jpg,0,1,1032,0,unchosen,0,32,outdoor_scenes,body_parts,2200,0,4,1
133,39660,0,134,2,2,0,no_gain6,gain4,L,E,20,40,faces,objects,79,73,Stimuli/Experimental_stims/faces/justin-chen-J7Cf1Gch49E-unsplash.jpg,Stimuli/Experimental_stims/objects/fabian-blank-pElSkGRA2NU-unsplash.jpg,0,0,1221,1,chosen,40,20,objects,faces,2900,1,4,1
134,39660,0,135,2,2,1,gain1,no_gain6,F,L,25,20,body_parts,faces,32,79,Stimuli/Experimental_stims/body_parts/engin-akyurt-Q2rfH3GW39c-unsplash.jpg,Stimuli/Experimental_stims/faces/justin-chen-J7Cf1Gch49E-unsplash.jpg,0,0,1054,0,chosen,20,25,faces,body_parts,1900,0,4,1
135,39660,0,136,2,2,0,no_gain1,gain2,H,D,0,44,outdoor_scenes,objects,86,58,Stimuli/Experimental_stims/outdoor_scenes/aleksandra-boguslawska-MS7KD9Ti7FQ-unsplash.jpg,Stimuli/Experimental_stims/objects/kuiye-chen-NuOGFo4PudE-unsplash.jpg,0,0,908,1,unchosen,44,0,objects,outdoor_scenes,1700,0,4,1
136,39660,0,137,2,2,0,no_gain4,gain2,B,D,9,44,outdoor_scenes,objects,83,58,Stimuli/Experimental_stims/outdoor_scenes/sergey-pesterev-y-b_FOmJXdg-unsplash.jpg,Stimuli/Experimental_stims/objects/kuiye-chen-NuOGFo4PudE-unsplash.jpg,1,NaN,,NaN,unchosen,NaN,NaN,NaN,NaN,1900,0,4,1
137,39660,0,138,2,2,1,gain6,no_gain6,J,L,18,20,faces,faces,22,79,Stimuli/Experimental_stims/faces/jessica-radanavong-mrYkTuAesKE-unsplash.jpg,Stimuli/Experimental_stims/faces/justin-chen-J7Cf1Gch49E-unsplash.jpg,0,1,413,1,chosen,18,20,faces,faces,1700,0,4,1
138,39660,0,139,2,2,0,no_gain3,gain2,A,D,38,44,objects,objects,66,58,Stimuli/Experimental_stims/objects/art-lasovsky-8XddFc6NkBY-unsplash.jpg,Stimuli/Experimental_stims/objects/kuiye-chen-NuOGFo4PudE-unsplash.jpg,1,NaN,,NaN,unchosen,NaN,NaN,NaN,NaN,1300,0,4,1
139,39660,0,140,2,2,1,gain5,no_gain4,K,B,29,9,body_parts,outdoor_scenes,100,83,Stimuli/Experimental_stims/body_parts/manuel-schinner-ZwjFuJ7ebpk-unsplash.jpg,Stimuli/Experimental_stims/outdoor_scenes/sergey-pesterev-y-b_FOmJXdg-unsplash.jpg,1,NaN,,NaN,unchosen,NaN,NaN,NaN,NaN,3600,1,4,1
140,39660,0,141,2,2,1,gain5,no_gain4,K,B,36,22,objects,faces,29,21,Stimuli/Experimental_stims/objects/alexander-andrews-JYGnB9gTCls-unsplash.jpg,Stimuli/Experimental_stims/faces/ravi-patel-VMGAbeeJTKo-unsplash.jpg,0,0,435,0,chosen,22,36,faces,objects,1700,0,4,1
141,39660,0,142,2,2,0,no_gain6,gain2,L,D,20,13,faces,faces,79,37,Stimuli/Experimental_stims/faces/justin-chen-J7Cf1Gch49E-unsplash.jpg,Stimuli/Experimental_stims/faces/daniel-rigdon-dXmXKPP2L4E-unsplash.jpg,0,1,1206,0,chosen,20,13,faces,faces,1900,0,4,1
142,39660,0,143,2,2,0,no_gain2,gain1,I,F,2,25,outdoor_scenes,body_parts,66,32,Stimuli/Experimental_stims/outdoor_scenes/bruno-van-der-kraan-qez8mNJ3ilU-unsplash.jpg,Stimuli/Experimental_stims/body_parts/engin-akyurt-Q2rfH3GW39c-unsplash.jpg,0,0,1089,1,chosen,25,2,body_parts,outdoor_scenes,2200,0,4,1
143,39660,0,144,2,2,0,no_gain3,gain5,A,K,38,29,objects,body_parts,66,100,Stimuli/Experimental_stims/objects/art-lasovsky-8XddFc6NkBY-unsplash.jpg,Stimuli/Experimental_stims/body_parts/manuel-schinner-ZwjFuJ7ebpk-unsplash.jpg,0,0,541,1,unchosen,29,38,body_parts,objects,1800,0,4,1
144,39660,0,145,2,2,0,no_gain6,gain3,L,C,24,33,body_parts,body_parts,90,43,Stimuli/Experimental_stims/body_parts/clay-banks-LjqARJaJotc-unsplash.jpg,Stimuli/Experimental_stims/body_parts/tucker-good-36skLT5jZcc-unsplash.jpg,0,0,452,1,unchosen,33,24,body_parts,body_parts,1400,0,4,1
145,39660,0,146,2,2,0,no_gain2,gain3,I,C,2,8,outdoor_scenes,outdoor_scenes,66,91,Stimuli/Experimental_stims/outdoor_scenes/bruno-van-der-kraan-qez8mNJ3ilU-unsplash.jpg,Stimuli/Experimental_stims/outdoor_scenes/samsommer-vddccTqwal8-unsplash.jpg,0,1,938,0,chosen,2,8,outdoor_scenes,outdoor_scenes,1800,0,4,1
146,39660,0,147,2,2,1,gain3,no_gain2,C,I,33,31,body_parts,body_parts,43,63,Stimuli/Experimental_stims/body_parts/tucker-good-36skLT5jZcc-unsplash.jpg,Stimuli/Experimental_stims/body_parts/sincerely-media-VN6DbKajo5s-unsplash.jpg,0,0,769,0,unchosen,31,33,body_parts,body_parts,1300,0,4,1
147,39660,0,148,2,2,1,gain1,no_gain6,F,L,14,24,faces,body_parts,68,90,Stimuli/Experimental_stims/faces/david-siglin-UuW4psOb388-unsplash.jpg,Stimuli/Experimental_stims/body_parts/clay-banks-LjqARJaJotc-unsplash.jpg,0,0,1250,0,unchosen,24,14,body_parts,faces,3600,1,4,1
148,39660,0,149,3,3,1,gain3,no_gain6,C,L,33,24,body_parts,body_parts,43,90,Stimuli/Experimental_stims/body_parts/tucker-good-36skLT5jZcc-unsplash.jpg,Stimuli/Experimental_stims/body_parts/clay-banks-LjqARJaJotc-unsplash.jpg,0,0,887,0,unchosen,24,33,body_parts,body_parts,1200,0,5,1
149,39660,0,150,3,3,1,gain3,no_gain3,C,A,8,5,outdoor_scenes,outdoor_scenes,91,95,Stimuli/Experimental_stims/outdoor_scenes/samsommer-vddccTqwal8-unsplash.jpg,Stimuli/Experimental_stims/outdoor_scenes/jeff-king-bJHWJeiHfHc-unsplash.jpg,1,NaN,,NaN,chosen,NaN,NaN,NaN,NaN,1100,0,5,1
150,39660,0,151,3,3,1,gain1,no_gain4,F,B,25,22,body_parts,faces,32,21,Stimuli/Experimental_stims/body_parts/engin-akyurt-Q2rfH3GW39c-unsplash.jpg,Stimuli/Experimental_stims/faces/ravi-patel-VMGAbeeJTKo-unsplash.jpg,0,1,441,1,chosen,25,22,body_parts,faces,1100,0,5,1
151,39660,0,152,3,3,1,gain5,no_gain6,K,L,29,24,body_parts,body_parts,100,90,Stimuli/Experimental_stims/body_parts/manuel-schinner-ZwjFuJ7ebpk-unsplash.jpg,Stimuli/Experimental_stims/body_parts/clay-banks-LjqARJaJotc-unsplash.jpg,0,0,479,0,unchosen,24,29,body_parts,body_parts,1300,0,5,1
152,39660,0,153,3,3,1,gain2,no_gain6,D,L,13,20,faces,faces,37,79,Stimuli/Experimental_stims/faces/daniel-rigdon-dXmXKPP2L4E-unsplash.jpg,Stimuli/Experimental_stims/faces/justin-chen-J7Cf1Gch49E-unsplash.jpg,0,0,498,0,chosen,20,13,faces,faces,3300,1,5,1
153,39660,0,154,3,3,1,gain6,no_gain6,J,L,18,20,faces,faces,22,79,Stimuli/Experimental_stims/faces/jessica-radanavong-mrYkTuAesKE-unsplash.jpg,Stimuli/Experimental_stims/faces/justin-chen-J7Cf1Gch49E-unsplash.jpg,0,1,427,1,chosen,18,20,faces,faces,1000,0,5,1
154,39660,0,155,3,3,1,gain1,no_gain2,F,I,14,31,faces,body_parts,68,63,Stimuli/Experimental_stims/faces/david-siglin-UuW4psOb388-unsplash.jpg,Stimuli/Experimental_stims/body_parts/sincerely-media-VN6DbKajo5s-unsplash.jpg,0,1,870,1,unchosen,14,31,faces,body_parts,1300,0,5,1
155,39660,0,156,3,3,0,no_gain4,gain3,B,C,22,8,faces,outdoor_scenes,21,91,Stimuli/Experimental_stims/faces/ravi-patel-VMGAbeeJTKo-unsplash.jpg,Stimuli/Experimental_stims/outdoor_scenes/samsommer-vddccTqwal8-unsplash.jpg,0,1,632,0,chosen,22,8,faces,outdoor_scenes,1300,0,5,1
156,39660,0,157,3,3,0,no_gain4,gain4,B,E,22,40,faces,objects,21,73,Stimuli/Experimental_stims/faces/ravi-patel-VMGAbeeJTKo-unsplash.jpg,Stimuli/Experimental_stims/objects/fabian-blank-pElSkGRA2NU-unsplash.jpg,0,0,957,1,chosen,40,22,objects,faces,1600,0,5,1
157,39660,0,158,3,3,1,gain6,no_gain3,J,A,18,5,faces,outdoor_scenes,22,95,Stimuli/Experimental_stims/faces/jessica-radanavong-mrYkTuAesKE-unsplash.jpg,Stimuli/Experimental_stims/outdoor_scenes/jeff-king-bJHWJeiHfHc-unsplash.jpg,0,0,660,0,chosen,5,18,outdoor_scenes,faces,1400,0,5,1
158,39660,0,159,3,3,0,no_gain1,gain2,H,D,0,44,outdoor_scenes,objects,86,58,Stimuli/Experimental_stims/outdoor_scenes/aleksandra-boguslawska-MS7KD9Ti7FQ-unsplash.jpg,Stimuli/Experimental_stims/objects/kuiye-chen-NuOGFo4PudE-unsplash.jpg,0,1,1025,0,unchosen,0,44,outdoor_scenes,objects,2100,0,5,1
159,39660,0,160,3,3,0,no_gain4,gain3,B,C,9,33,outdoor_scenes,body_parts,83,43,Stimuli/Experimental_stims/outdoor_scenes/sergey-pesterev-y-b_FOmJXdg-unsplash.jpg,Stimuli/Experimental_stims/body_parts/tucker-good-36skLT5jZcc-unsplash.jpg,0,0,149,1,unchosen,33,9,body_parts,outdoor_scenes,1200,0,5,1
160,39660,0,161,3,3,0,no_gain1,gain3,H,C,16,8,faces,outdoor_scenes,76,91,Stimuli/Experimental_stims/faces/freddy-kearney-o-ioeoATbIM-unsplash.jpg,Stimuli/Experimental_stims/outdoor_scenes/samsommer-vddccTqwal8-unsplash.jpg,0,1,533,0,chosen,16,8,faces,outdoor_scenes,4100,1,5,1
161,39660,0,162,3,3,0,no_gain1,gain4,H,E,0,32,outdoor_scenes,body_parts,86,50,Stimuli/Experimental_stims/outdoor_scenes/aleksandra-boguslawska-MS7KD9Ti7FQ-unsplash.jpg,Stimuli/Experimental_stims/body_parts/towfiqu-barbhuiya-3AsiVDsZnHg-unsplash.jpg,0,0,95,1,unchosen,32,0,body_parts,outdoor_scenes,1900,0,5,1
162,39660,0,163,3,3,1,gain5,no_gain5,K,G,36,43,objects,objects,29,51,Stimuli/Experimental_stims/objects/alexander-andrews-JYGnB9gTCls-unsplash.jpg,Stimuli/Experimental_stims/objects/jonathan-greenaway-Y4hGgeiFn3s-unsplash.jpg,0,0,437,0,chosen,43,36,objects,objects,2000,0,5,1
163,39660,0,164,3,3,0,no_gain2,gain5,I,K,31,29,body_parts,body_parts,63,100,Stimuli/Experimental_stims/body_parts/sincerely-media-VN6DbKajo5s-unsplash.jpg,Stimuli/Experimental_stims/body_parts/manuel-schinner-ZwjFuJ7ebpk-unsplash.jpg,0,1,426,0,unchosen,31,29,body_parts,body_parts,2600,0,5,1
164,39660,0,165,3,3,1,gain1,no_gain4,F,B,14,9,faces,outdoor_scenes,68,83,Stimuli/Experimental_stims/faces/david-siglin-UuW4psOb388-unsplash.jpg,Stimuli/Experimental_stims/outdoor_scenes/sergey-pesterev-y-b_FOmJXdg-unsplash.jpg,0,0,355,0,unchosen,9,14,outdoor_scenes,faces,1100,0,5,1
165,39660,0,166,3,3,0,no_gain4,gain5,B,K,22,36,faces,objects,21,29,Stimuli/Experimental_stims/faces/ravi-patel-VMGAbeeJTKo-unsplash.jpg,Stimuli/Experimental_stims/objects/alexander-andrews-JYGnB9gTCls-unsplash.jpg,0,1,417,0,chosen,22,36,faces,objects,4400,1,5,1
166,39660,0,167,3,3,0,no_gain5,gain4,G,E,4,32,outdoor_scenes,body_parts,87,50,Stimuli/Experimental_stims/outdoor_scenes/jarrett-kow-1ZOyYPOBn7I-unsplash.jpg,Stimuli/Experimental_stims/body_parts/towfiqu-barbhuiya-3AsiVDsZnHg-unsplash.jpg,0,1,427,0,unchosen,4,32,outdoor_scenes,body_parts,1200,0,5,1
167,39660,0,168,3,3,0,no_gain5,gain6,G,J,43,18,objects,faces,51,22,Stimuli/Experimental_stims/objects/jonathan-greenaway-Y4hGgeiFn3s-unsplash.jpg,Stimuli/Experimental_stims/faces/jessica-radanavong-mrYkTuAesKE-unsplash.jpg,0,0,471,1,chosen,18,43,faces,objects,1100,0,5,1
168,39660,0,169,3,3,1,gain1,no_gain6,F,L,14,24,faces,body_parts,68,90,Stimuli/Experimental_stims/faces/david-siglin-UuW4psOb388-unsplash.jpg,Stimuli/Experimental_stims/body_parts/clay-banks-LjqARJaJotc-unsplash.jpg,0,1,977,1,unchosen,14,24,faces,body_parts,1700,0,5,1
169,39660,0,170,3,3,1,gain2,no_gain2,D,I,13,2,faces,outdoor_scenes,37,66,Stimuli/Experimental_stims/faces/daniel-rigdon-dXmXKPP2L4E-unsplash.jpg,Stimuli/Experimental_stims/outdoor_scenes/bruno-van-der-kraan-qez8mNJ3ilU-unsplash.jpg,0,1,618,1,chosen,13,2,faces,outdoor_scenes,1100,0,5,1
170,39660,0,171,3,3,0,no_gain2,gain4,I,E,31,32,body_parts,body_parts,63,50,Stimuli/Experimental_stims/body_parts/sincerely-media-VN6DbKajo5s-unsplash.jpg,Stimuli/Experimental_stims/body_parts/towfiqu-barbhuiya-3AsiVDsZnHg-unsplash.jpg,0,1,435,0,unchosen,31,32,body_parts,body_parts,3300,1,5,1
171,39660,0,172,3,3,0,no_gain3,gain2,A,D,5,13,outdoor_scenes,faces,95,37,Stimuli/Experimental_stims/outdoor_scenes/jeff-king-bJHWJeiHfHc-unsplash.jpg,Stimuli/Experimental_stims/faces/daniel-rigdon-dXmXKPP2L4E-unsplash.jpg,0,0,339,1,chosen,13,5,faces,outdoor_scenes,2800,0,5,1
172,39660,0,173,3,3,0,no_gain4,gain2,B,D,22,13,faces,faces,21,37,Stimuli/Experimental_stims/faces/ravi-patel-VMGAbeeJTKo-unsplash.jpg,Stimuli/Experimental_stims/faces/daniel-rigdon-dXmXKPP2L4E-unsplash.jpg,0,0,385,1,chosen,13,22,faces,faces,1000,0,5,1
173,39660,0,174,3,3,0,no_gain1,gain6,H,J,0,39,outdoor_scenes,objects,86,73,Stimuli/Experimental_stims/outdoor_scenes/aleksandra-boguslawska-MS7KD9Ti7FQ-unsplash.jpg,Stimuli/Experimental_stims/objects/charlesdeluvio-1-nx1QR5dTE-unsplash.jpg,0,1,398,0,unchosen,0,39,outdoor_scenes,objects,3100,0,5,1
174,39660,0,175,3,3,1,gain4,no_gain1,E,H,40,16,objects,faces,73,76,Stimuli/Experimental_stims/objects/fabian-blank-pElSkGRA2NU-unsplash.jpg,Stimuli/Experimental_stims/faces/freddy-kearney-o-ioeoATbIM-unsplash.jpg,0,1,410,1,chosen,40,16,objects,faces,2000,0,5,1
175,39660,0,176,3,3,0,no_gain6,gain6,L,J,24,39,body_parts,objects,90,73,Stimuli/Experimental_stims/body_parts/clay-banks-LjqARJaJotc-unsplash.jpg,Stimuli/Experimental_stims/objects/charlesdeluvio-1-nx1QR5dTE-unsplash.jpg,0,0,359,1,unchosen,39,24,objects,body_parts,2300,0,5,1
176,39660,0,177,3,3,0,no_gain2,gain5,I,K,2,36,outdoor_scenes,objects,66,29,Stimuli/Experimental_stims/outdoor_scenes/bruno-van-der-kraan-qez8mNJ3ilU-unsplash.jpg,Stimuli/Experimental_stims/objects/alexander-andrews-JYGnB9gTCls-unsplash.jpg,0,0,487,1,chosen,36,2,objects,outdoor_scenes,1500,0,5,1
177,39660,0,178,3,3,0,no_gain5,gain2,G,D,4,44,outdoor_scenes,objects,87,58,Stimuli/Experimental_stims/outdoor_scenes/jarrett-kow-1ZOyYPOBn7I-unsplash.jpg,Stimuli/Experimental_stims/objects/kuiye-chen-NuOGFo4PudE-unsplash.jpg,0,1,379,0,unchosen,4,44,outdoor_scenes,objects,1600,0,5,1
178,39660,0,179,3,3,1,gain6,no_gain1,J,H,18,16,faces,faces,22,76,Stimuli/Experimental_stims/faces/jessica-radanavong-mrYkTuAesKE-unsplash.jpg,Stimuli/Experimental_stims/faces/freddy-kearney-o-ioeoATbIM-unsplash.jpg,0,0,409,0,chosen,16,18,faces,faces,4200,1,5,1
179,39660,0,180,3,3,0,no_gain5,gain4,G,E,43,40,objects,objects,51,73,Stimuli/Experimental_stims/objects/jonathan-greenaway-Y4hGgeiFn3s-unsplash.jpg,Stimuli/Experimental_stims/objects/fabian-blank-pElSkGRA2NU-unsplash.jpg,0,1,413,0,chosen,43,40,objects,objects,1000,0,5,1
180,39660,0,181,3,3,0,no_gain6,gain3,L,C,20,8,faces,outdoor_scenes,79,91,Stimuli/Experimental_stims/faces/justin-chen-J7Cf1Gch49E-unsplash.jpg,Stimuli/Experimental_stims/outdoor_scenes/samsommer-vddccTqwal8-unsplash.jpg,0,0,520,1,chosen,8,20,outdoor_scenes,faces,2000,0,5,1
181,39660,0,182,3,3,1,gain4,no_gain3,E,A,32,38,body_parts,objects,50,66,Stimuli/Experimental_stims/body_parts/towfiqu-barbhuiya-3AsiVDsZnHg-unsplash.jpg,Stimuli/Experimental_stims/objects/art-lasovsky-8XddFc6NkBY-unsplash.jpg,0,0,485,0,unchosen,38,32,objects,body_parts,1700,0,5,1
182,39660,0,183,3,3,1,gain2,no_gain6,D,L,44,24,objects,body_parts,58,90,Stimuli/Experimental_stims/objects/kuiye-chen-NuOGFo4PudE-unsplash.jpg,Stimuli/Experimental_stims/body_parts/clay-banks-LjqARJaJotc-unsplash.jpg,0,0,392,0,unchosen,24,44,body_parts,objects,2300,0,5,1
183,39660,0,184,3,3,1,gain4,no_gain4,E,B,32,9,body_parts,outdoor_scenes,50,83,Stimuli/Experimental_stims/body_parts/towfiqu-barbhuiya-3AsiVDsZnHg-unsplash.jpg,Stimuli/Experimental_stims/outdoor_scenes/sergey-pesterev-y-b_FOmJXdg-unsplash.jpg,0,0,462,0,unchosen,9,32,outdoor_scenes,body_parts,3300,1,5,1
184,39660,0,185,3,3,0,no_gain1,gain2,H,D,16,13,faces,faces,76,37,Stimuli/Experimental_stims/faces/freddy-kearney-o-ioeoATbIM-unsplash.jpg,Stimuli/Experimental_stims/faces/daniel-rigdon-dXmXKPP2L4E-unsplash.jpg,0,1,433,0,chosen,16,13,faces,faces,1100,0,5,1
185,39660,0,186,3,3,0,no_gain4,gain6,B,J,22,18,faces,faces,21,22,Stimuli/Experimental_stims/faces/ravi-patel-VMGAbeeJTKo-unsplash.jpg,Stimuli/Experimental_stims/faces/jessica-radanavong-mrYkTuAesKE-unsplash.jpg,0,0,469,1,chosen,18,22,faces,faces,1900,0,5,1
186,39660,0,187,3,3,1,gain3,no_gain5,C,G,8,43,outdoor_scenes,objects,91,51,Stimuli/Experimental_stims/outdoor_scenes/samsommer-vddccTqwal8-unsplash.jpg,Stimuli/Experimental_stims/objects/jonathan-greenaway-Y4hGgeiFn3s-unsplash.jpg,0,1,411,1,chosen,8,43,outdoor_scenes,objects,2400,0,5,1
187,39660,0,188,3,3,0,no_gain2,gain6,I,J,31,39,body_parts,objects,63,73,Stimuli/Experimental_stims/body_parts/sincerely-media-VN6DbKajo5s-unsplash.jpg,Stimuli/Experimental_stims/objects/charlesdeluvio-1-nx1QR5dTE-unsplash.jpg,0,0,382,1,unchosen,39,31,objects,body_parts,1900,0,5,1
188,39660,0,189,3,3,0,no_gain1,gain1,H,F,0,14,outdoor_scenes,faces,86,68,Stimuli/Experimental_stims/outdoor_scenes/aleksandra-boguslawska-MS7KD9Ti7FQ-unsplash.jpg,Stimuli/Experimental_stims/faces/david-siglin-UuW4psOb388-unsplash.jpg,0,0,550,1,unchosen,14,0,faces,outdoor_scenes,3300,1,5,1
189,39660,0,190,3,3,0,no_gain3,gain5,A,K,38,29,objects,body_parts,66,100,Stimuli/Experimental_stims/objects/art-lasovsky-8XddFc6NkBY-unsplash.jpg,Stimuli/Experimental_stims/body_parts/manuel-schinner-ZwjFuJ7ebpk-unsplash.jpg,0,1,576,0,unchosen,38,29,objects,body_parts,1200,0,5,1
190,39660,0,191,3,3,1,gain1,no_gain1,F,H,25,16,body_parts,faces,32,76,Stimuli/Experimental_stims/body_parts/engin-akyurt-Q2rfH3GW39c-unsplash.jpg,Stimuli/Experimental_stims/faces/freddy-kearney-o-ioeoATbIM-unsplash.jpg,0,0,557,0,chosen,16,25,faces,body_parts,1100,0,5,1
191,39660,0,192,3,3,0,no_gain4,gain5,B,K,9,29,outdoor_scenes,body_parts,83,100,Stimuli/Experimental_stims/outdoor_scenes/sergey-pesterev-y-b_FOmJXdg-unsplash.jpg,Stimuli/Experimental_stims/body_parts/manuel-schinner-ZwjFuJ7ebpk-unsplash.jpg,0,0,615,1,unchosen,29,9,body_parts,outdoor_scenes,1400,0,5,1
192,39660,0,193,3,3,1,gain3,no_gain1,C,H,33,0,body_parts,outdoor_scenes,43,86,Stimuli/Experimental_stims/body_parts/tucker-good-36skLT5jZcc-unsplash.jpg,Stimuli/Experimental_stims/outdoor_scenes/aleksandra-boguslawska-MS7KD9Ti7FQ-unsplash.jpg,0,1,560,1,unchosen,33,0,body_parts,outdoor_scenes,2600,0,5,1
193,39660,0,194,3,3,1,gain6,no_gain4,J,B,39,9,objects,outdoor_scenes,73,83,Stimuli/Experimental_stims/objects/charlesdeluvio-1-nx1QR5dTE-unsplash.jpg,Stimuli/Experimental_stims/outdoor_scenes/sergey-pesterev-y-b_FOmJXdg-unsplash.jpg,0,0,409,0,unchosen,9,39,outdoor_scenes,objects,1100,0,5,1
194,39660,0,195,3,3,1,gain1,no_gain3,F,A,25,5,body_parts,outdoor_scenes,32,95,Stimuli/Experimental_stims/body_parts/engin-akyurt-Q2rfH3GW39c-unsplash.jpg,Stimuli/Experimental_stims/outdoor_scenes/jeff-king-bJHWJeiHfHc-unsplash.jpg,0,1,541,1,chosen,25,5,body_parts,outdoor_scenes,4100,1,5,1
195,39660,0,196,3,3,1,gain6,no_gain3,J,A,39,38,objects,objects,73,66,Stimuli/Experimental_stims/objects/charlesdeluvio-1-nx1QR5dTE-unsplash.jpg,Stimuli/Experimental_stims/objects/art-lasovsky-8XddFc6NkBY-unsplash.jpg,0,1,322,1,unchosen,39,38,objects,objects,1000,0,5,1
196,39660,0,197,3,3,0,no_gain3,gain4,A,E,5,40,outdoor_scenes,objects,95,73,Stimuli/Experimental_stims/outdoor_scenes/jeff-king-bJHWJeiHfHc-unsplash.jpg,Stimuli/Experimental_stims/objects/fabian-blank-pElSkGRA2NU-unsplash.jpg,0,0,513,1,chosen,40,5,objects,outdoor_scenes,1800,0,5,1
197,39660,0,198,3,3,1,gain1,no_gain3,F,A,14,38,faces,objects,68,66,Stimuli/Experimental_stims/faces/david-siglin-UuW4psOb388-unsplash.jpg,Stimuli/Experimental_stims/objects/art-lasovsky-8XddFc6NkBY-unsplash.jpg,0,1,480,1,unchosen,14,38,faces,objects,1600,0,5,1
198,39660,0,199,3,3,1,gain4,no_gain6,E,L,32,24,body_parts,body_parts,50,90,Stimuli/Experimental_stims/body_parts/towfiqu-barbhuiya-3AsiVDsZnHg-unsplash.jpg,Stimuli/Experimental_stims/body_parts/clay-banks-LjqARJaJotc-unsplash.jpg,0,0,417,0,unchosen,24,32,body_parts,body_parts,2100,0,5,1
199,39660,0,200,3,3,1,gain2,no_gain4,D,B,44,9,objects,outdoor_scenes,58,83,Stimuli/Experimental_stims/objects/kuiye-chen-NuOGFo4PudE-unsplash.jpg,Stimuli/Experimental_stims/outdoor_scenes/sergey-pesterev-y-b_FOmJXdg-unsplash.jpg,0,1,527,1,unchosen,44,9,objects,outdoor_scenes,1700,0,5,1
200,39660,0,201,3,3,1,gain5,no_gain3,K,A,36,5,objects,outdoor_scenes,29,95,Stimuli/Experimental_stims/objects/alexander-andrews-JYGnB9gTCls-unsplash.jpg,Stimuli/Experimental_stims/outdoor_scenes/jeff-king-bJHWJeiHfHc-unsplash.jpg,0,0,173,0,chosen,5,36,outdoor_scenes,objects,3200,1,5,1
201,39660,0,202,3,3,0,no_gain6,gain4,L,E,20,40,faces,objects,79,73,Stimuli/Experimental_stims/faces/justin-chen-J7Cf1Gch49E-unsplash.jpg,Stimuli/Experimental_stims/objects/fabian-blank-pElSkGRA2NU-unsplash.jpg,0,0,438,1,chosen,40,20,objects,faces,1100,0,5,1
202,39660,0,203,3,3,1,gain2,no_gain2,D,I,44,31,objects,body_parts,58,63,Stimuli/Experimental_stims/objects/kuiye-chen-NuOGFo4PudE-unsplash.jpg,Stimuli/Experimental_stims/body_parts/sincerely-media-VN6DbKajo5s-unsplash.jpg,0,1,491,1,unchosen,44,31,objects,body_parts,2800,0,5,1
203,39660,0,204,3,3,1,gain2,no_gain5,D,G,13,43,faces,objects,37,51,Stimuli/Experimental_stims/faces/daniel-rigdon-dXmXKPP2L4E-unsplash.jpg,Stimuli/Experimental_stims/objects/jonathan-greenaway-Y4hGgeiFn3s-unsplash.jpg,0,0,372,0,chosen,43,13,objects,faces,1400,0,5,1
204,39660,0,205,3,3,1,gain1,no_gain2,F,I,25,2,body_parts,outdoor_scenes,32,66,Stimuli/Experimental_stims/body_parts/engin-akyurt-Q2rfH3GW39c-unsplash.jpg,Stimuli/Experimental_stims/outdoor_scenes/bruno-van-der-kraan-qez8mNJ3ilU-unsplash.jpg,0,1,588,1,chosen,25,2,body_parts,outdoor_scenes,2200,0,5,1
205,39660,0,206,3,3,1,gain3,no_gain3,C,A,33,38,body_parts,objects,43,66,Stimuli/Experimental_stims/body_parts/tucker-good-36skLT5jZcc-unsplash.jpg,Stimuli/Experimental_stims/objects/art-lasovsky-8XddFc6NkBY-unsplash.jpg,0,1,364,1,unchosen,33,38,body_parts,objects,1200,0,5,1
206,39660,0,207,3,3,0,no_gain6,gain5,L,K,20,36,faces,objects,79,29,Stimuli/Experimental_stims/faces/justin-chen-J7Cf1Gch49E-unsplash.jpg,Stimuli/Experimental_stims/objects/alexander-andrews-JYGnB9gTCls-unsplash.jpg,0,0,508,1,chosen,36,20,objects,faces,2100,0,5,1
207,39660,0,208,3,3,1,gain1,no_gain5,F,G,25,43,body_parts,objects,32,51,Stimuli/Experimental_stims/body_parts/engin-akyurt-Q2rfH3GW39c-unsplash.jpg,Stimuli/Experimental_stims/objects/jonathan-greenaway-Y4hGgeiFn3s-unsplash.jpg,0,1,336,1,chosen,25,43,body_parts,objects,2600,0,5,1
208,39660,0,209,3,3,0,no_gain2,gain3,I,C,31,33,body_parts,body_parts,63,43,Stimuli/Experimental_stims/body_parts/sincerely-media-VN6DbKajo5s-unsplash.jpg,Stimuli/Experimental_stims/body_parts/tucker-good-36skLT5jZcc-unsplash.jpg,0,1,443,0,unchosen,31,33,body_parts,body_parts,3800,1,5,1
209,39660,0,210,3,3,0,no_gain6,gain1,L,F,20,25,faces,body_parts,79,32,Stimuli/Experimental_stims/faces/justin-chen-J7Cf1Gch49E-unsplash.jpg,Stimuli/Experimental_stims/body_parts/engin-akyurt-Q2rfH3GW39c-unsplash.jpg,0,0,323,1,chosen,25,20,body_parts,faces,2300,0,5,1
210,39660,0,211,3,3,1,gain3,no_gain2,C,I,8,2,outdoor_scenes,outdoor_scenes,91,66,Stimuli/Experimental_stims/outdoor_scenes/samsommer-vddccTqwal8-unsplash.jpg,Stimuli/Experimental_stims/outdoor_scenes/bruno-van-der-kraan-qez8mNJ3ilU-unsplash.jpg,0,0,491,0,chosen,2,8,outdoor_scenes,outdoor_scenes,1500,0,5,1
211,39660,0,212,3,3,0,no_gain3,gain2,A,D,38,44,objects,objects,66,58,Stimuli/Experimental_stims/objects/art-lasovsky-8XddFc6NkBY-unsplash.jpg,Stimuli/Experimental_stims/objects/kuiye-chen-NuOGFo4PudE-unsplash.jpg,0,1,519,0,unchosen,38,44,objects,objects,1700,0,5,1
212,39660,0,213,3,3,1,gain5,no_gain5,K,G,29,4,body_parts,outdoor_scenes,100,87,Stimuli/Experimental_stims/body_parts/manuel-schinner-ZwjFuJ7ebpk-unsplash.jpg,Stimuli/Experimental_stims/outdoor_scenes/jarrett-kow-1ZOyYPOBn7I-unsplash.jpg,0,1,496,1,unchosen,29,4,body_parts,outdoor_scenes,1000,0,5,1
213,39660,0,214,3,3,1,gain6,no_gain5,J,G,39,4,objects,outdoor_scenes,73,87,Stimuli/Experimental_stims/objects/charlesdeluvio-1-nx1QR5dTE-unsplash.jpg,Stimuli/Experimental_stims/outdoor_scenes/jarrett-kow-1ZOyYPOBn7I-unsplash.jpg,0,0,461,0,unchosen,4,39,outdoor_scenes,objects,2800,0,5,1
214,39660,0,215,3,3,0,no_gain1,gain5,H,K,16,36,faces,objects,76,29,Stimuli/Experimental_stims/faces/freddy-kearney-o-ioeoATbIM-unsplash.jpg,Stimuli/Experimental_stims/objects/alexander-andrews-JYGnB9gTCls-unsplash.jpg,0,0,521,1,chosen,36,16,objects,faces,2400,0,5,1
215,39660,0,216,3,3,0,no_gain1,gain5,H,K,0,29,outdoor_scenes,body_parts,86,100,Stimuli/Experimental_stims/outdoor_scenes/aleksandra-boguslawska-MS7KD9Ti7FQ-unsplash.jpg,Stimuli/Experimental_stims/body_parts/manuel-schinner-ZwjFuJ7ebpk-unsplash.jpg,0,1,428,0,unchosen,0,29,outdoor_scenes,body_parts,3800,1,5,1
216,39660,0,217,3,3,0,no_gain5,gain3,G,C,4,33,outdoor_scenes,body_parts,87,43,Stimuli/Experimental_stims/outdoor_scenes/jarrett-kow-1ZOyYPOBn7I-unsplash.jpg,Stimuli/Experimental_stims/body_parts/tucker-good-36skLT5jZcc-unsplash.jpg,0,0,356,1,unchosen,33,4,body_parts,outdoor_scenes,1500,0,5,1
217,39660,0,218,3,3,0,no_gain5,gain1,G,F,4,14,outdoor_scenes,faces,87,68,Stimuli/Experimental_stims/outdoor_scenes/jarrett-kow-1ZOyYPOBn7I-unsplash.jpg,Stimuli/Experimental_stims/faces/david-siglin-UuW4psOb388-unsplash.jpg,0,0,458,1,unchosen,14,4,faces,outdoor_scenes,1100,0,5,1
218,39660,0,219,3,3,1,gain4,no_gain2,E,I,40,2,objects,outdoor_scenes,73,66,Stimuli/Experimental_stims/objects/fabian-blank-pElSkGRA2NU-unsplash.jpg,Stimuli/Experimental_stims/outdoor_scenes/bruno-van-der-kraan-qez8mNJ3ilU-unsplash.jpg,0,1,420,1,chosen,40,2,objects,outdoor_scenes,1500,0,5,1
219,39660,0,220,3,3,0,no_gain2,gain6,I,J,2,18,outdoor_scenes,faces,66,22,Stimuli/Experimental_stims/outdoor_scenes/bruno-van-der-kraan-qez8mNJ3ilU-unsplash.jpg,Stimuli/Experimental_stims/faces/jessica-radanavong-mrYkTuAesKE-unsplash.jpg,0,0,416,1,chosen,18,2,faces,outdoor_scenes,2500,0,5,1
220,39660,0,221,4,4,0,no_gain5,gain1,G,F,4,14,outdoor_scenes,faces,87,68,Stimuli/Experimental_stims/outdoor_scenes/jarrett-kow-1ZOyYPOBn7I-unsplash.jpg,Stimuli/Experimental_stims/faces/david-siglin-UuW4psOb388-unsplash.jpg,0,0,621,1,unchosen,14,4,faces,outdoor_scenes,3400,1,3,1
221,39660,0,222,4,4,0,no_gain5,gain4,G,E,43,40,objects,objects,51,73,Stimuli/Experimental_stims/objects/jonathan-greenaway-Y4hGgeiFn3s-unsplash.jpg,Stimuli/Experimental_stims/objects/fabian-blank-pElSkGRA2NU-unsplash.jpg,0,1,475,0,chosen,43,40,objects,objects,1500,0,3,1
222,39660,0,223,4,4,0,no_gain2,gain3,I,C,31,33,body_parts,body_parts,63,43,Stimuli/Experimental_stims/body_parts/sincerely-media-VN6DbKajo5s-unsplash.jpg,Stimuli/Experimental_stims/body_parts/tucker-good-36skLT5jZcc-unsplash.jpg,0,0,657,1,unchosen,33,31,body_parts,body_parts,2000,0,3,1
223,39660,0,224,4,4,0,no_gain4,gain3,B,C,9,33,outdoor_scenes,body_parts,83,43,Stimuli/Experimental_stims/outdoor_scenes/sergey-pesterev-y-b_FOmJXdg-unsplash.jpg,Stimuli/Experimental_stims/body_parts/tucker-good-36skLT5jZcc-unsplash.jpg,0,1,478,0,unchosen,9,33,outdoor_scenes,body_parts,1100,0,3,1
224,39660,0,225,4,4,0,no_gain1,gain6,H,J,0,39,outdoor_scenes,objects,86,73,Stimuli/Experimental_stims/outdoor_scenes/aleksandra-boguslawska-MS7KD9Ti7FQ-unsplash.jpg,Stimuli/Experimental_stims/objects/charlesdeluvio-1-nx1QR5dTE-unsplash.jpg,0,0,464,1,unchosen,39,0,objects,outdoor_scenes,2700,0,3,1
225,39660,0,226,4,4,0,no_gain4,gain2,B,D,22,13,faces,faces,21,37,Stimuli/Experimental_stims/faces/ravi-patel-VMGAbeeJTKo-unsplash.jpg,Stimuli/Experimental_stims/faces/daniel-rigdon-dXmXKPP2L4E-unsplash.jpg,0,0,416,1,chosen,13,22,faces,faces,1700,0,3,1
226,39660,0,227,4,4,0,no_gain1,gain1,H,F,16,25,faces,body_parts,76,32,Stimuli/Experimental_stims/faces/freddy-kearney-o-ioeoATbIM-unsplash.jpg,Stimuli/Experimental_stims/body_parts/engin-akyurt-Q2rfH3GW39c-unsplash.jpg,0,0,436,1,chosen,25,16,body_parts,faces,3500,1,3,1
227,39660,0,228,4,4,0,no_gain3,gain3,A,C,38,33,objects,body_parts,66,43,Stimuli/Experimental_stims/objects/art-lasovsky-8XddFc6NkBY-unsplash.jpg,Stimuli/Experimental_stims/body_parts/tucker-good-36skLT5jZcc-unsplash.jpg,0,1,351,0,unchosen,38,33,objects,body_parts,2700,0,3,1
228,39660,0,229,4,4,1,gain4,no_gain5,E,G,32,4,body_parts,outdoor_scenes,50,87,Stimuli/Experimental_stims/body_parts/towfiqu-barbhuiya-3AsiVDsZnHg-unsplash.jpg,Stimuli/Experimental_stims/outdoor_scenes/jarrett-kow-1ZOyYPOBn7I-unsplash.jpg,0,1,432,1,unchosen,32,4,body_parts,outdoor_scenes,1500,0,3,1
229,39660,0,230,4,4,0,no_gain6,gain1,L,F,20,25,faces,body_parts,79,32,Stimuli/Experimental_stims/faces/justin-chen-J7Cf1Gch49E-unsplash.jpg,Stimuli/Experimental_stims/body_parts/engin-akyurt-Q2rfH3GW39c-unsplash.jpg,0,0,462,1,chosen,25,20,body_parts,faces,1700,0,3,1
230,39660,0,231,4,4,0,no_gain1,gain2,H,D,0,44,outdoor_scenes,objects,86,58,Stimuli/Experimental_stims/outdoor_scenes/aleksandra-boguslawska-MS7KD9Ti7FQ-unsplash.jpg,Stimuli/Experimental_stims/objects/kuiye-chen-NuOGFo4PudE-unsplash.jpg,0,0,405,1,unchosen,44,0,objects,outdoor_scenes,2300,0,3,1
231,39660,0,232,4,4,0,no_gain4,gain6,B,J,22,18,faces,faces,21,22,Stimuli/Experimental_stims/faces/ravi-patel-VMGAbeeJTKo-unsplash.jpg,Stimuli/Experimental_stims/faces/jessica-radanavong-mrYkTuAesKE-unsplash.jpg,0,0,446,1,chosen,18,22,faces,faces,3100,1,3,1
232,39660,0,233,4,4,1,gain5,no_gain3,K,A,36,5,objects,outdoor_scenes,29,95,Stimuli/Experimental_stims/objects/alexander-andrews-JYGnB9gTCls-unsplash.jpg,Stimuli/Experimental_stims/outdoor_scenes/jeff-king-bJHWJeiHfHc-unsplash.jpg,0,0,413,0,chosen,5,36,outdoor_scenes,objects,1300,0,3,1
233,39660,0,234,4,4,1,gain1,no_gain3,F,A,25,5,body_parts,outdoor_scenes,32,95,Stimuli/Experimental_stims/body_parts/engin-akyurt-Q2rfH3GW39c-unsplash.jpg,Stimuli/Experimental_stims/outdoor_scenes/jeff-king-bJHWJeiHfHc-unsplash.jpg,0,1,758,1,chosen,25,5,body_parts,outdoor_scenes,1400,0,3,1
234,39660,0,235,4,4,1,gain2,no_gain4,D,B,44,9,objects,outdoor_scenes,58,83,Stimuli/Experimental_stims/objects/kuiye-chen-NuOGFo4PudE-unsplash.jpg,Stimuli/Experimental_stims/outdoor_scenes/sergey-pesterev-y-b_FOmJXdg-unsplash.jpg,0,1,249,1,unchosen,44,9,objects,outdoor_scenes,2500,0,3,1
235,39660,0,236,4,4,1,gain2,no_gain5,D,G,44,4,objects,outdoor_scenes,58,87,Stimuli/Experimental_stims/objects/kuiye-chen-NuOGFo4PudE-unsplash.jpg,Stimuli/Experimental_stims/outdoor_scenes/jarrett-kow-1ZOyYPOBn7I-unsplash.jpg,0,0,419,0,unchosen,4,44,outdoor_scenes,objects,1500,0,3,1
236,39660,0,237,4,4,1,gain4,no_gain1,E,H,32,0,body_parts,outdoor_scenes,50,86,Stimuli/Experimental_stims/body_parts/towfiqu-barbhuiya-3AsiVDsZnHg-unsplash.jpg,Stimuli/Experimental_stims/outdoor_scenes/aleksandra-boguslawska-MS7KD9Ti7FQ-unsplash.jpg,0,1,576,1,unchosen,32,0,body_parts,outdoor_scenes,1900,0,3,1
237,39660,0,238,4,4,1,gain6,no_gain3,J,A,18,5,faces,outdoor_scenes,22,95,Stimuli/Experimental_stims/faces/jessica-radanavong-mrYkTuAesKE-unsplash.jpg,Stimuli/Experimental_stims/outdoor_scenes/jeff-king-bJHWJeiHfHc-unsplash.jpg,0,0,414,0,chosen,5,18,outdoor_scenes,faces,1200,0,3,1
238,39660,0,239,4,4,1,gain2,no_gain5,D,G,13,43,faces,objects,37,51,Stimuli/Experimental_stims/faces/daniel-rigdon-dXmXKPP2L4E-unsplash.jpg,Stimuli/Experimental_stims/objects/jonathan-greenaway-Y4hGgeiFn3s-unsplash.jpg,0,0,489,0,chosen,43,13,objects,faces,3500,1,3,1
239,39660,0,240,4,4,0,no_gain2,gain6,I,J,31,39,body_parts,objects,63,73,Stimuli/Experimental_stims/body_parts/sincerely-media-VN6DbKajo5s-unsplash.jpg,Stimuli/Experimental_stims/objects/charlesdeluvio-1-nx1QR5dTE-unsplash.jpg,0,0,517,1,unchosen,39,31,objects,body_parts,1500,0,3,1
240,39660,0,241,4,4,1,gain5,no_gain6,K,L,36,20,objects,faces,29,79,Stimuli/Experimental_stims/objects/alexander-andrews-JYGnB9gTCls-unsplash.jpg,Stimuli/Experimental_stims/faces/justin-chen-J7Cf1Gch49E-unsplash.jpg,0,0,608,0,chosen,20,36,faces,objects,2200,0,3,1
241,39660,0,242,4,4,1,gain6,no_gain2,J,I,18,2,faces,outdoor_scenes,22,66,Stimuli/Experimental_stims/faces/jessica-radanavong-mrYkTuAesKE-unsplash.jpg,Stimuli/Experimental_stims/outdoor_scenes/bruno-van-der-kraan-qez8mNJ3ilU-unsplash.jpg,0,0,429,0,chosen,2,18,outdoor_scenes,faces,1100,0,3,1
242,39660,0,243,4,4,0,no_gain3,gain2,A,D,5,13,outdoor_scenes,faces,95,37,Stimuli/Experimental_stims/outdoor_scenes/jeff-king-bJHWJeiHfHc-unsplash.jpg,Stimuli/Experimental_stims/faces/daniel-rigdon-dXmXKPP2L4E-unsplash.jpg,0,0,878,1,chosen,13,5,faces,outdoor_scenes,1300,0,3,1
243,39660,0,244,4,4,0,no_gain3,gain5,A,K,38,29,objects,body_parts,66,100,Stimuli/Experimental_stims/objects/art-lasovsky-8XddFc6NkBY-unsplash.jpg,Stimuli/Experimental_stims/body_parts/manuel-schinner-ZwjFuJ7ebpk-unsplash.jpg,0,0,1008,1,unchosen,29,38,body_parts,objects,1500,0,3,1
244,39660,0,245,4,4,0,no_gain6,gain6,L,J,20,18,faces,faces,79,22,Stimuli/Experimental_stims/faces/justin-chen-J7Cf1Gch49E-unsplash.jpg,Stimuli/Experimental_stims/faces/jessica-radanavong-mrYkTuAesKE-unsplash.jpg,0,0,416,1,chosen,18,20,faces,faces,1100,0,3,1
245,39660,0,246,4,4,1,gain3,no_gain6,C,L,8,20,outdoor_scenes,faces,91,79,Stimuli/Experimental_stims/outdoor_scenes/samsommer-vddccTqwal8-unsplash.jpg,Stimuli/Experimental_stims/faces/justin-chen-J7Cf1Gch49E-unsplash.jpg,0,0,1299,0,chosen,20,8,faces,outdoor_scenes,2000,0,3,1
246,39660,0,247,4,4,0,no_gain2,gain5,I,K,31,29,body_parts,body_parts,63,100,Stimuli/Experimental_stims/body_parts/sincerely-media-VN6DbKajo5s-unsplash.jpg,Stimuli/Experimental_stims/body_parts/manuel-schinner-ZwjFuJ7ebpk-unsplash.jpg,0,1,389,0,unchosen,31,29,body_parts,body_parts,4700,1,3,1
247,39660,0,248,4,4,0,no_gain1,gain3,H,C,16,8,faces,outdoor_scenes,76,91,Stimuli/Experimental_stims/faces/freddy-kearney-o-ioeoATbIM-unsplash.jpg,Stimuli/Experimental_stims/outdoor_scenes/samsommer-vddccTqwal8-unsplash.jpg,0,1,984,0,chosen,16,8,faces,outdoor_scenes,2400,0,3,1
248,39660,0,249,4,4,1,gain4,no_gain2,E,I,32,31,body_parts,body_parts,50,63,Stimuli/Experimental_stims/body_parts/towfiqu-barbhuiya-3AsiVDsZnHg-unsplash.jpg,Stimuli/Experimental_stims/body_parts/sincerely-media-VN6DbKajo5s-unsplash.jpg,0,0,421,0,unchosen,31,32,body_parts,body_parts,1100,0,3,1
249,39660,0,250,4,4,1,gain6,no_gain5,J,G,18,43,faces,objects,22,51,Stimuli/Experimental_stims/faces/jessica-radanavong-mrYkTuAesKE-unsplash.jpg,Stimuli/Experimental_stims/objects/jonathan-greenaway-Y4hGgeiFn3s-unsplash.jpg,0,1,1451,1,chosen,18,43,faces,objects,2400,0,3,1
250,39660,0,251,4,4,1,gain4,no_gain6,E,L,32,24,body_parts,body_parts,50,90,Stimuli/Experimental_stims/body_parts/towfiqu-barbhuiya-3AsiVDsZnHg-unsplash.jpg,Stimuli/Experimental_stims/body_parts/clay-banks-LjqARJaJotc-unsplash.jpg,0,0,383,0,unchosen,24,32,body_parts,body_parts,1600,0,3,1
251,39660,0,252,4,4,0,no_gain1,gain1,H,F,0,14,outdoor_scenes,faces,86,68,Stimuli/Experimental_stims/outdoor_scenes/aleksandra-boguslawska-MS7KD9Ti7FQ-unsplash.jpg,Stimuli/Experimental_stims/faces/david-siglin-UuW4psOb388-unsplash.jpg,0,1,482,0,unchosen,0,14,outdoor_scenes,faces,2300,0,3,1
252,39660,0,253,4,4,0,no_gain3,gain4,A,E,5,40,outdoor_scenes,objects,95,73,Stimuli/Experimental_stims/outdoor_scenes/jeff-king-bJHWJeiHfHc-unsplash.jpg,Stimuli/Experimental_stims/objects/fabian-blank-pElSkGRA2NU-unsplash.jpg,0,0,1331,1,chosen,40,5,objects,outdoor_scenes,2500,0,3,1
253,39660,0,254,4,4,1,gain3,no_gain5,C,G,8,43,outdoor_scenes,objects,91,51,Stimuli/Experimental_stims/outdoor_scenes/samsommer-vddccTqwal8-unsplash.jpg,Stimuli/Experimental_stims/objects/jonathan-greenaway-Y4hGgeiFn3s-unsplash.jpg,0,0,755,0,chosen,43,8,objects,outdoor_scenes,3700,1,3,1
254,39660,0,255,4,4,1,gain2,no_gain1,D,H,13,16,faces,faces,37,76,Stimuli/Experimental_stims/faces/daniel-rigdon-dXmXKPP2L4E-unsplash.jpg,Stimuli/Experimental_stims/faces/freddy-kearney-o-ioeoATbIM-unsplash.jpg,0,1,308,1,chosen,13,16,faces,faces,2100,0,3,1
255,39660,0,256,4,4,1,gain6,no_gain3,J,A,39,38,objects,objects,73,66,Stimuli/Experimental_stims/objects/charlesdeluvio-1-nx1QR5dTE-unsplash.jpg,Stimuli/Experimental_stims/objects/art-lasovsky-8XddFc6NkBY-unsplash.jpg,0,0,519,0,unchosen,38,39,objects,objects,2300,0,3,1
256,39660,0,257,4,4,0,no_gain6,gain1,L,F,24,14,body_parts,faces,90,68,Stimuli/Experimental_stims/body_parts/clay-banks-LjqARJaJotc-unsplash.jpg,Stimuli/Experimental_stims/faces/david-siglin-UuW4psOb388-unsplash.jpg,0,0,427,1,unchosen,14,24,faces,body_parts,1700,0,3,1
257,39660,0,258,4,4,0,no_gain4,gain6,B,J,9,39,outdoor_scenes,objects,83,73,Stimuli/Experimental_stims/outdoor_scenes/sergey-pesterev-y-b_FOmJXdg-unsplash.jpg,Stimuli/Experimental_stims/objects/charlesdeluvio-1-nx1QR5dTE-unsplash.jpg,0,0,445,1,unchosen,39,9,objects,outdoor_scenes,2900,0,3,1
258,39660,0,259,4,4,0,no_gain4,gain1,B,F,22,25,faces,body_parts,21,32,Stimuli/Experimental_stims/faces/ravi-patel-VMGAbeeJTKo-unsplash.jpg,Stimuli/Experimental_stims/body_parts/engin-akyurt-Q2rfH3GW39c-unsplash.jpg,0,1,421,0,chosen,22,25,faces,body_parts,3000,1,3,1
259,39660,0,260,4,4,1,gain2,no_gain3,D,A,44,38,objects,objects,58,66,Stimuli/Experimental_stims/objects/kuiye-chen-NuOGFo4PudE-unsplash.jpg,Stimuli/Experimental_stims/objects/art-lasovsky-8XddFc6NkBY-unsplash.jpg,0,1,306,1,unchosen,44,38,objects,objects,2600,0,3,1
260,39660,0,261,4,4,0,no_gain6,gain5,L,K,24,29,body_parts,body_parts,90,100,Stimuli/Experimental_stims/body_parts/clay-banks-LjqARJaJotc-unsplash.jpg,Stimuli/Experimental_stims/body_parts/manuel-schinner-ZwjFuJ7ebpk-unsplash.jpg,0,0,361,1,unchosen,29,24,body_parts,body_parts,1700,0,3,1
261,39660,0,262,4,4,0,no_gain3,gain1,A,F,38,14,objects,faces,66,68,Stimuli/Experimental_stims/objects/art-lasovsky-8XddFc6NkBY-unsplash.jpg,Stimuli/Experimental_stims/faces/david-siglin-UuW4psOb388-unsplash.jpg,0,1,1359,0,unchosen,38,14,objects,faces,1800,0,3,1
262,39660,0,263,4,4,1,gain5,no_gain5,K,G,36,43,objects,objects,29,51,Stimuli/Experimental_stims/objects/alexander-andrews-JYGnB9gTCls-unsplash.jpg,Stimuli/Experimental_stims/objects/jonathan-greenaway-Y4hGgeiFn3s-unsplash.jpg,0,0,1040,0,chosen,43,36,objects,objects,1400,0,3,1
263,39660,0,264,4,4,0,no_gain2,gain1,I,F,2,25,outdoor_scenes,body_parts,66,32,Stimuli/Experimental_stims/outdoor_scenes/bruno-van-der-kraan-qez8mNJ3ilU-unsplash.jpg,Stimuli/Experimental_stims/body_parts/engin-akyurt-Q2rfH3GW39c-unsplash.jpg,0,0,507,1,chosen,25,2,body_parts,outdoor_scenes,2200,0,3,1
264,39660,0,265,4,4,0,no_gain2,gain1,I,F,31,14,body_parts,faces,63,68,Stimuli/Experimental_stims/body_parts/sincerely-media-VN6DbKajo5s-unsplash.jpg,Stimuli/Experimental_stims/faces/david-siglin-UuW4psOb388-unsplash.jpg,0,1,388,0,unchosen,31,14,body_parts,faces,3500,1,3,1
265,39660,0,266,4,4,1,gain3,no_gain3,C,A,8,5,outdoor_scenes,outdoor_scenes,91,95,Stimuli/Experimental_stims/outdoor_scenes/samsommer-vddccTqwal8-unsplash.jpg,Stimuli/Experimental_stims/outdoor_scenes/jeff-king-bJHWJeiHfHc-unsplash.jpg,0,0,385,0,chosen,5,8,outdoor_scenes,outdoor_scenes,1400,0,3,1
266,39660,0,267,4,4,0,no_gain2,gain4,I,E,2,40,outdoor_scenes,objects,66,73,Stimuli/Experimental_stims/outdoor_scenes/bruno-van-der-kraan-qez8mNJ3ilU-unsplash.jpg,Stimuli/Experimental_stims/objects/fabian-blank-pElSkGRA2NU-unsplash.jpg,0,1,445,0,chosen,2,40,outdoor_scenes,objects,1100,0,3,1
267,39660,0,268,4,4,1,gain6,no_gain1,J,H,18,16,faces,faces,22,76,Stimuli/Experimental_stims/faces/jessica-radanavong-mrYkTuAesKE-unsplash.jpg,Stimuli/Experimental_stims/faces/freddy-kearney-o-ioeoATbIM-unsplash.jpg,0,0,464,0,chosen,16,18,faces,faces,1300,0,3,1
268,39660,0,269,4,4,0,no_gain1,gain3,H,C,0,33,outdoor_scenes,body_parts,86,43,Stimuli/Experimental_stims/outdoor_scenes/aleksandra-boguslawska-MS7KD9Ti7FQ-unsplash.jpg,Stimuli/Experimental_stims/body_parts/tucker-good-36skLT5jZcc-unsplash.jpg,0,0,511,1,unchosen,33,0,body_parts,outdoor_scenes,2600,0,3,1
269,39660,0,270,4,4,0,no_gain4,gain4,B,E,22,40,faces,objects,21,73,Stimuli/Experimental_stims/faces/ravi-patel-VMGAbeeJTKo-unsplash.jpg,Stimuli/Experimental_stims/objects/fabian-blank-pElSkGRA2NU-unsplash.jpg,0,1,350,0,chosen,22,40,faces,objects,1100,0,3,1
270,39660,0,271,4,4,1,gain1,no_gain4,F,B,14,9,faces,outdoor_scenes,68,83,Stimuli/Experimental_stims/faces/david-siglin-UuW4psOb388-unsplash.jpg,Stimuli/Experimental_stims/outdoor_scenes/sergey-pesterev-y-b_FOmJXdg-unsplash.jpg,0,1,642,1,unchosen,14,9,faces,outdoor_scenes,1400,0,3,1
271,39660,0,272,4,4,1,gain4,no_gain3,E,A,32,38,body_parts,objects,50,66,Stimuli/Experimental_stims/body_parts/towfiqu-barbhuiya-3AsiVDsZnHg-unsplash.jpg,Stimuli/Experimental_stims/objects/art-lasovsky-8XddFc6NkBY-unsplash.jpg,0,0,612,0,unchosen,38,32,objects,body_parts,3200,1,3,1
272,39660,0,273,4,4,0,no_gain6,gain2,L,D,20,13,faces,faces,79,37,Stimuli/Experimental_stims/faces/justin-chen-J7Cf1Gch49E-unsplash.jpg,Stimuli/Experimental_stims/faces/daniel-rigdon-dXmXKPP2L4E-unsplash.jpg,0,0,501,1,chosen,13,20,faces,faces,1600,0,3,1
273,39660,0,274,4,4,0,no_gain2,gain5,I,K,2,36,outdoor_scenes,objects,66,29,Stimuli/Experimental_stims/outdoor_scenes/bruno-van-der-kraan-qez8mNJ3ilU-unsplash.jpg,Stimuli/Experimental_stims/objects/alexander-andrews-JYGnB9gTCls-unsplash.jpg,0,1,615,0,chosen,2,36,outdoor_scenes,objects,1000,0,3,1
274,39660,0,275,4,4,1,gain1,no_gain5,F,G,25,43,body_parts,objects,32,51,Stimuli/Experimental_stims/body_parts/engin-akyurt-Q2rfH3GW39c-unsplash.jpg,Stimuli/Experimental_stims/objects/jonathan-greenaway-Y4hGgeiFn3s-unsplash.jpg,0,1,460,1,chosen,25,43,body_parts,objects,1700,0,3,1
275,39660,0,276,4,4,1,gain4,no_gain4,E,B,32,9,body_parts,outdoor_scenes,50,83,Stimuli/Experimental_stims/body_parts/towfiqu-barbhuiya-3AsiVDsZnHg-unsplash.jpg,Stimuli/Experimental_stims/outdoor_scenes/sergey-pesterev-y-b_FOmJXdg-unsplash.jpg,0,1,427,1,unchosen,32,9,body_parts,outdoor_scenes,1200,0,3,1
276,39660,0,277,4,4,1,gain3,no_gain5,C,G,33,4,body_parts,outdoor_scenes,43,87,Stimuli/Experimental_stims/body_parts/tucker-good-36skLT5jZcc-unsplash.jpg,Stimuli/Experimental_stims/outdoor_scenes/jarrett-kow-1ZOyYPOBn7I-unsplash.jpg,0,1,464,1,unchosen,33,4,body_parts,outdoor_scenes,2200,0,3,1
277,39660,0,278,4,4,0,no_gain5,gain6,G,J,4,39,outdoor_scenes,objects,87,73,Stimuli/Experimental_stims/outdoor_scenes/jarrett-kow-1ZOyYPOBn7I-unsplash.jpg,Stimuli/Experimental_stims/objects/charlesdeluvio-1-nx1QR5dTE-unsplash.jpg,0,0,345,1,unchosen,39,4,objects,outdoor_scenes,2000,0,3,1
278,39660,0,279,4,4,1,gain3,no_gain4,C,B,8,22,outdoor_scenes,faces,91,21,Stimuli/Experimental_stims/outdoor_scenes/samsommer-vddccTqwal8-unsplash.jpg,Stimuli/Experimental_stims/faces/ravi-patel-VMGAbeeJTKo-unsplash.jpg,0,0,451,0,chosen,22,8,faces,outdoor_scenes,3100,1,3,1
279,39660,0,280,4,4,1,gain5,no_gain5,K,G,29,4,body_parts,outdoor_scenes,100,87,Stimuli/Experimental_stims/body_parts/manuel-schinner-ZwjFuJ7ebpk-unsplash.jpg,Stimuli/Experimental_stims/outdoor_scenes/jarrett-kow-1ZOyYPOBn7I-unsplash.jpg,0,1,428,1,unchosen,29,4,body_parts,outdoor_scenes,2400,0,3,1
280,39660,0,281,4,4,1,gain4,no_gain1,E,H,40,16,objects,faces,73,76,Stimuli/Experimental_stims/objects/fabian-blank-pElSkGRA2NU-unsplash.jpg,Stimuli/Experimental_stims/faces/freddy-kearney-o-ioeoATbIM-unsplash.jpg,0,1,499,1,chosen,40,16,objects,faces,1000,0,3,1
281,39660,0,282,4,4,0,no_gain1,gain5,H,K,16,36,faces,objects,76,29,Stimuli/Experimental_stims/faces/freddy-kearney-o-ioeoATbIM-unsplash.jpg,Stimuli/Experimental_stims/objects/alexander-andrews-JYGnB9gTCls-unsplash.jpg,0,0,895,1,chosen,36,16,objects,faces,1900,0,3,1
282,39660,0,283,4,4,0,no_gain4,gain5,B,K,9,29,outdoor_scenes,body_parts,83,100,Stimuli/Experimental_stims/outdoor_scenes/sergey-pesterev-y-b_FOmJXdg-unsplash.jpg,Stimuli/Experimental_stims/body_parts/manuel-schinner-ZwjFuJ7ebpk-unsplash.jpg,0,0,432,1,unchosen,29,9,body_parts,outdoor_scenes,2400,0,3,1
283,39660,0,284,4,4,1,gain2,no_gain2,D,I,13,2,faces,outdoor_scenes,37,66,Stimuli/Experimental_stims/faces/daniel-rigdon-dXmXKPP2L4E-unsplash.jpg,Stimuli/Experimental_stims/outdoor_scenes/bruno-van-der-kraan-qez8mNJ3ilU-unsplash.jpg,0,0,517,0,chosen,2,13,outdoor_scenes,faces,1300,0,3,1
284,39660,0,285,4,4,0,no_gain4,gain5,B,K,22,36,faces,objects,21,29,Stimuli/Experimental_stims/faces/ravi-patel-VMGAbeeJTKo-unsplash.jpg,Stimuli/Experimental_stims/objects/alexander-andrews-JYGnB9gTCls-unsplash.jpg,1,NaN,,NaN,chosen,NaN,NaN,NaN,NaN,1600,0,3,1
285,39660,0,286,4,4,1,gain6,no_gain6,J,L,39,24,objects,body_parts,73,90,Stimuli/Experimental_stims/objects/charlesdeluvio-1-nx1QR5dTE-unsplash.jpg,Stimuli/Experimental_stims/body_parts/clay-banks-LjqARJaJotc-unsplash.jpg,0,1,487,1,unchosen,39,24,objects,body_parts,1000,0,3,1
286,39660,0,287,4,4,0,no_gain6,gain4,L,E,20,40,faces,objects,79,73,Stimuli/Experimental_stims/faces/justin-chen-J7Cf1Gch49E-unsplash.jpg,Stimuli/Experimental_stims/objects/fabian-blank-pElSkGRA2NU-unsplash.jpg,0,1,472,0,chosen,20,40,faces,objects,1500,0,3,1
287,39660,0,288,4,4,1,gain5,no_gain1,K,H,29,0,body_parts,outdoor_scenes,100,86,Stimuli/Experimental_stims/body_parts/manuel-schinner-ZwjFuJ7ebpk-unsplash.jpg,Stimuli/Experimental_stims/outdoor_scenes/aleksandra-boguslawska-MS7KD9Ti7FQ-unsplash.jpg,0,0,391,0,unchosen,0,29,outdoor_scenes,body_parts,1900,0,3,1
288,39660,0,289,4,4,1,gain3,no_gain2,C,I,8,2,outdoor_scenes,outdoor_scenes,91,66,Stimuli/Experimental_stims/outdoor_scenes/samsommer-vddccTqwal8-unsplash.jpg,Stimuli/Experimental_stims/outdoor_scenes/bruno-van-der-kraan-qez8mNJ3ilU-unsplash.jpg,0,1,427,1,chosen,8,2,outdoor_scenes,outdoor_scenes,1600,0,3,1
289,39660,0,290,4,4,1,gain3,no_gain6,C,L,33,24,body_parts,body_parts,43,90,Stimuli/Experimental_stims/body_parts/tucker-good-36skLT5jZcc-unsplash.jpg,Stimuli/Experimental_stims/body_parts/clay-banks-LjqARJaJotc-unsplash.jpg,0,0,426,0,unchosen,24,33,body_parts,body_parts,1200,0,3,1
290,39660,0,291,4,4,1,gain2,no_gain2,D,I,44,31,objects,body_parts,58,63,Stimuli/Experimental_stims/objects/kuiye-chen-NuOGFo4PudE-unsplash.jpg,Stimuli/Experimental_stims/body_parts/sincerely-media-VN6DbKajo5s-unsplash.jpg,0,0,443,0,unchosen,31,44,body_parts,objects,1000,0,3,1
291,39660,0,292,4,4,1,gain2,no_gain6,D,L,44,24,objects,body_parts,58,90,Stimuli/Experimental_stims/objects/kuiye-chen-NuOGFo4PudE-unsplash.jpg,Stimuli/Experimental_stims/body_parts/clay-banks-LjqARJaJotc-unsplash.jpg,0,0,418,0,unchosen,24,44,body_parts,objects,3200,1,3,1