,PID,practice,trial,block,run,gain_left,left_item_id,right_item_id,left_pair_id,right_pair_id,left_stimulus,right_stimulus,left_category,right_category,left_rating,right_rating,left_path,right_path,no_response,left_chosen,rt,higher_outcome_chosen,choice_type,chosen_stimulus,unchosen_stimulus,chosen_category,unchosen_category,iti,long_iti,simulation,version
0,59186,1,1,0,0,0,,,,,,,,,,,Stimuli/Practice_stims/Final_decisions/debby-hudson-FmCSSSGge-0-unsplash.jpg,Stimuli/Practice_stims/Final_decisions/yassine-khalfalli-adsQ9d_Cx0c-unsplash.jpg,0,1,550,0,,,,,,3000,0,9,3
1,59186,1,2,0,0,0,,,,,,,,,,,Stimuli/Practice_stims/Final_decisions/florian-wehde-iVW7mZPwd4g-unsplash.jpg,Stimuli/Practice_stims/Final_decisions/patrick-perkins-3wylDrjxH-E-unsplash.jpg,0,0,922,1,,,,,,1500,0,9,3
2,59186,1,3,0,0,0,,,,,,,,,,,Stimuli/Practice_stims/Final_decisions/debby-hudson-FmCSSSGge-0-unsplash.jpg,Stimuli/Practice_stims/Final_decisions/florian-wehde-iVW7mZPwd4g-unsplash.jpg,0,0,1142,1,,,,,,2000,0,9,3
3,59186,1,4,0,0,0,,,,,,,,,,,Stimuli/Practice_stims/Final_decisions/yassine-khalfalli-adsQ9d_Cx0c-unsplash.jpg,Stimuli/Practice_stims/Final_decisions/debby-hudson-FmCSSSGge-0-unsplash.jpg,0,1,988,0,,,,,,1000,0,9,3
4,59186,0,5,1,1,1,gain5,no_gain5,A,L,42,21,objects,faces,34,29,Stimuli/Experimental_stims/objects/jess-bailey-nOeVi8DsN8U-unsplash.jpg,Stimuli/Experimental_stims/faces/leilani-angel-K84vnnzxmTQ-unsplash.jpg,0,0,1473,0,unchosen,21,42,faces,objects,4700,1,9,3
5,59186,0,6,1,1,1,gain3,no_gain2,K,I,44,35,objects,body_parts,27,22,Stimuli/Experimental_stims/objects/kuiye-chen-NuOGFo4PudE-unsplash.jpg,Stimuli/Experimental_stims/body_parts/wc-so-KH4AAPjb-tI-unsplash.jpg,0,1,1170,1,unchosen,44,35,objects,body_parts,2300,0,9,3
6,59186,0,7,1,1,1,gain1,no_gain2,C,I,30,35,body_parts,body_parts,26,22,Stimuli/Experimental_stims/body_parts/mika-korhonen-Xodzxosar18-unsplash.jpg,Stimuli/Experimental_stims/body_parts/wc-so-KH4AAPjb-tI-unsplash.jpg,0,0,1140,0,unchosen,35,30,body_parts,body_parts,1100,0,9,3
7,59186,0,8,1,1,0,no_gain4,gain5,B,A,11,5,outdoor_scenes,outdoor_scenes,66,68,Stimuli/Experimental_stims/outdoor_scenes/stephen-leonardi-gyIRjKPXupE-unsplash.jpg,Stimuli/Experimental_stims/outdoor_scenes/jeff-king-bJHWJeiHfHc-unsplash.jpg,0,0,1212,1,chosen,5,11,outdoor_scenes,outdoor_scenes,1600,0,9,3
8,59186,0,9,1,1,0,no_gain5,gain1,L,C,21,30,faces,body_parts,29,26,Stimuli/Experimental_stims/faces/leilani-angel-K84vnnzxmTQ-unsplash.jpg,Stimuli/Experimental_stims/body_parts/mika-korhonen-Xodzxosar18-unsplash.jpg,0,1,940,0,unchosen,21,30,faces,body_parts,2300,0,9,3
9,59186,0,10,1,1,0,no_gain4,gain1,B,C,11,9,outdoor_scenes,outdoor_scenes,66,36,Stimuli/Experimental_stims/outdoor_scenes/stephen-leonardi-gyIRjKPXupE-unsplash.jpg,Stimuli/Experimental_stims/outdoor_scenes/sergey-pesterev-y-b_FOmJXdg-unsplash.jpg,0,0,822,1,chosen,9,11,outdoor_scenes,outdoor_scenes,1500,0,9,3
10,59186,0,11,1,1,1,gain1,no_gain3,C,F,9,26,outdoor_scenes,body_parts,36,34,Stimuli/Experimental_stims/outdoor_scenes/sergey-pesterev-y-b_FOmJXdg-unsplash.jpg,Stimuli/Experimental_stims/body_parts/engin-akyurt-x_3gyC42btc-unsplash.jpg,0,1,949,1,chosen,9,26,outdoor_scenes,body_parts,1500,0,9,3
11,59186,0,12,1,1,0,no_gain1,gain1,G,C,2,9,outdoor_scenes,outdoor_scenes,75,36,Stimuli/Experimental_stims/outdoor_scenes/bruno-van-der-kraan-qez8mNJ3ilU-unsplash.jpg,Stimuli/Experimental_stims/outdoor_scenes/sergey-pesterev-y-b_FOmJXdg-unsplash.jpg,0,0,1278,1,chosen,9,2,outdoor_scenes,outdoor_scenes,1200,0,9,3
12,59186,0,13,1,1,1,gain6,no_gain1,D,G,47,40,objects,objects,26,35,Stimuli/Experimental_stims/objects/ronaldo-arthur-vidal-Cdz_lvnl37k-unsplash.jpg,Stimuli/Experimental_stims/objects/fabian-blank-pElSkGRA2NU-unsplash.jpg,1,NaN,,NaN,unchosen,NaN,NaN,NaN,NaN,1300,0,9,3
13,59186,0,14,1,1,0,no_gain1,gain4,G,E,2,34,outdoor_scenes,body_parts,75,36,Stimuli/Experimental_stims/outdoor_scenes/bruno-van-der-kraan-qez8mNJ3ilU-unsplash.jpg,Stimuli/Experimental_stims/body_parts/wagner-santos-mBWMvIuVnso-unsplash.jpg,0,0,885,1,chosen,34,2,body_parts,outdoor_scenes,1200,0,9,3
14,59186,0,15,1,1,1,gain6,no_gain4,D,B,47,13,objects,faces,26,31,Stimuli/Experimental_stims/objects/ronaldo-arthur-vidal-Cdz_lvnl37k-unsplash.jpg,Stimuli/Experimental_stims/faces/daniel-rigdon-dXmXKPP2L4E-unsplash.jpg,0,0,906,0,unchosen,13,47,faces,objects,4100,1,9,3
15,59186,0,16,1,1,1,gain4,no_gain4,E,B,43,13,objects,faces,27,31,Stimuli/Experimental_stims/objects/jonathan-greenaway-Y4hGgeiFn3s-unsplash.jpg,Stimuli/Experimental_stims/faces/daniel-rigdon-dXmXKPP2L4E-unsplash.jpg,0,1,972,1,unchosen,43,13,objects,faces,1200,0,9,3
16,59186,0,17,1,1,1,gain5,no_gain6,A,J,5,23,outdoor_scenes,faces,68,27,Stimuli/Experimental_stims/outdoor_scenes/jeff-king-bJHWJeiHfHc-unsplash.jpg,Stimuli/Experimental_stims/faces/rikonavt-HQjfrvdTfak-unsplash.jpg,0,1,860,1,chosen,5,23,outdoor_scenes,faces,1200,0,9,3
17,59186,0,18,1,1,0,no_gain3,gain3,F,K,17,44,faces,objects,43,27,Stimuli/Experimental_stims/faces/good-faces-xmSWVeGEnJw-unsplash.jpg,Stimuli/Experimental_stims/objects/kuiye-chen-NuOGFo4PudE-unsplash.jpg,0,1,1408,0,unchosen,17,44,faces,objects,1600,0,9,3
18,59186,0,19,1,1,0,no_gain4,gain3,B,K,11,29,outdoor_scenes,body_parts,66,52,Stimuli/Experimental_stims/outdoor_scenes/stephen-leonardi-gyIRjKPXupE-unsplash.jpg,Stimuli/Experimental_stims/body_parts/manuel-schinner-ZwjFuJ7ebpk-unsplash.jpg,0,0,795,1,chosen,29,11,body_parts,outdoor_scenes,1400,0,9,3
19,59186,0,20,1,1,0,no_gain2,gain2,I,H,35,15,body_parts,faces,22,28,Stimuli/Experimental_stims/body_parts/wc-so-KH4AAPjb-tI-unsplash.jpg,Stimuli/Experimental_stims/faces/erik-lucatero-d2MSDujJl2g-unsplash.jpg,0,0,1214,1,unchosen,15,35,faces,body_parts,4300,1,9,3
20,59186,0,21,1,1,1,gain2,no_gain4,H,B,7,11,outdoor_scenes,outdoor_scenes,50,66,Stimuli/Experimental_stims/outdoor_scenes/petr-vysohlid-9fqwGqGLUxc-unsplash.jpg,Stimuli/Experimental_stims/outdoor_scenes/stephen-leonardi-gyIRjKPXupE-unsplash.jpg,0,1,911,1,chosen,7,11,outdoor_scenes,outdoor_scenes,1500,0,9,3
21,59186,0,22,1,1,1,gain2,no_gain5,H,L,7,32,outdoor_scenes,body_parts,50,35,Stimuli/Experimental_stims/outdoor_scenes/petr-vysohlid-9fqwGqGLUxc-unsplash.jpg,Stimuli/Experimental_stims/body_parts/towfiqu-barbhuiya-3AsiVDsZnHg-unsplash.jpg,0,1,782,1,chosen,7,32,outdoor_scenes,body_parts,1400,0,9,3
22,59186,0,23,1,1,1,gain4,no_gain2,E,I,43,35,objects,body_parts,27,22,Stimuli/Experimental_stims/objects/jonathan-greenaway-Y4hGgeiFn3s-unsplash.jpg,Stimuli/Experimental_stims/body_parts/wc-so-KH4AAPjb-tI-unsplash.jpg,0,0,788,0,unchosen,35,43,body_parts,objects,1300,0,9,3
23,59186,0,24,1,1,1,gain2,no_gain6,H,J,15,39,faces,objects,28,25,Stimuli/Experimental_stims/faces/erik-lucatero-d2MSDujJl2g-unsplash.jpg,Stimuli/Experimental_stims/objects/charlesdeluvio-1-nx1QR5dTE-unsplash.jpg,0,1,1015,1,unchosen,15,39,faces,objects,1000,0,9,3
24,59186,0,25,1,1,0,no_gain1,gain5,G,A,2,5,outdoor_scenes,outdoor_scenes,75,68,Stimuli/Experimental_stims/outdoor_scenes/bruno-van-der-kraan-qez8mNJ3ilU-unsplash.jpg,Stimuli/Experimental_stims/outdoor_scenes/jeff-king-bJHWJeiHfHc-unsplash.jpg,0,0,995,1,chosen,5,2,outdoor_scenes,outdoor_scenes,3100,1,9,3
25,59186,0,26,1,1,1,gain2,no_gain1,H,G,7,2,outdoor_scenes,outdoor_scenes,50,75,Stimuli/Experimental_stims/outdoor_scenes/petr-vysohlid-9fqwGqGLUxc-unsplash.jpg,Stimuli/Experimental_stims/outdoor_scenes/bruno-van-der-kraan-qez8mNJ3ilU-unsplash.jpg,0,1,1050,1,chosen,7,2,outdoor_scenes,outdoor_scenes,2700,0,9,3
26,59186,0,27,1,1,1,gain2,no_gain2,H,I,7,4,outdoor_scenes,outdoor_scenes,50,58,Stimuli/Experimental_stims/outdoor_scenes/petr-vysohlid-9fqwGqGLUxc-unsplash.jpg,Stimuli/Experimental_stims/outdoor_scenes/jarrett-kow-1ZOyYPOBn7I-unsplash.jpg,0,0,781,0,chosen,4,7,outdoor_scenes,outdoor_scenes,1400,0,9,3
27,59186,0,28,1,1,1,gain4,no_gain3,E,F,43,17,objects,faces,27,43,Stimuli/Experimental_stims/objects/jonathan-greenaway-Y4hGgeiFn3s-unsplash.jpg,Stimuli/Experimental_stims/faces/good-faces-xmSWVeGEnJw-unsplash.jpg,1,NaN,,NaN,unchosen,NaN,NaN,NaN,NaN,1100,0,9,3
28,59186,0,29,1,1,0,no_gain1,gain3,G,K,40,44,objects,objects,35,27,Stimuli/Experimental_stims/objects/fabian-blank-pElSkGRA2NU-unsplash.jpg,Stimuli/Experimental_stims/objects/kuiye-chen-NuOGFo4PudE-unsplash.jpg,0,1,901,0,unchosen,40,44,objects,objects,1900,0,9,3
29,59186,0,30,1,1,1,gain6,no_gain4,D,B,16,11,faces,outdoor_scenes,52,66,Stimuli/Experimental_stims/faces/freddy-kearney-o-ioeoATbIM-unsplash.jpg,Stimuli/Experimental_stims/outdoor_scenes/stephen-leonardi-gyIRjKPXupE-unsplash.jpg,0,1,684,1,chosen,16,11,faces,outdoor_scenes,1200,0,9,3
30,59186,0,31,1,1,1,gain5,no_gain3,A,F,5,26,outdoor_scenes,body_parts,68,34,Stimuli/Experimental_stims/outdoor_scenes/jeff-king-bJHWJeiHfHc-unsplash.jpg,Stimuli/Experimental_stims/body_parts/engin-akyurt-x_3gyC42btc-unsplash.jpg,0,1,1154,1,chosen,5,26,outdoor_scenes,body_parts,2300,0,9,3
31,59186,0,32,1,1,0,no_gain3,gain5,F,A,17,42,faces,objects,43,34,Stimuli/Experimental_stims/faces/good-faces-xmSWVeGEnJw-unsplash.jpg,Stimuli/Experimental_stims/objects/jess-bailey-nOeVi8DsN8U-unsplash.jpg,0,1,646,0,unchosen,17,42,faces,objects,2000,0,9,3
32,59186,0,33,1,1,1,gain6,no_gain6,D,J,16,23,faces,faces,52,27,Stimuli/Experimental_stims/faces/freddy-kearney-o-ioeoATbIM-unsplash.jpg,Stimuli/Experimental_stims/faces/rikonavt-HQjfrvdTfak-unsplash.jpg,0,1,660,1,chosen,16,23,faces,faces,2000,0,9,3
33,59186,0,34,1,1,0,no_gain6,gain6,J,D,39,47,objects,objects,25,26,Stimuli/Experimental_stims/objects/charlesdeluvio-1-nx1QR5dTE-unsplash.jpg,Stimuli/Experimental_stims/objects/ronaldo-arthur-vidal-Cdz_lvnl37k-unsplash.jpg,0,0,976,1,unchosen,47,39,objects,objects,1300,0,9,3
34,59186,0,35,1,1,0,no_gain6,gain1,J,C,39,30,objects,body_parts,25,26,Stimuli/Experimental_stims/objects/charlesdeluvio-1-nx1QR5dTE-unsplash.jpg,Stimuli/Experimental_stims/body_parts/mika-korhonen-Xodzxosar18-unsplash.jpg,0,1,1061,0,unchosen,39,30,objects,body_parts,3100,1,9,3
35,59186,0,36,1,1,0,no_gain3,gain2,F,H,26,7,body_parts,outdoor_scenes,34,50,Stimuli/Experimental_stims/body_parts/engin-akyurt-x_3gyC42btc-unsplash.jpg,Stimuli/Experimental_stims/outdoor_scenes/petr-vysohlid-9fqwGqGLUxc-unsplash.jpg,0,0,833,1,chosen,7,26,outdoor_scenes,body_parts,2600,0,9,3
36,59186,0,37,1,1,0,no_gain6,gain4,J,E,39,43,objects,objects,25,27,Stimuli/Experimental_stims/objects/charlesdeluvio-1-nx1QR5dTE-unsplash.jpg,Stimuli/Experimental_stims/objects/jonathan-greenaway-Y4hGgeiFn3s-unsplash.jpg,0,0,1015,1,unchosen,43,39,objects,objects,1200,0,9,3
37,59186,0,38,1,1,1,gain4,no_gain5,E,L,43,21,objects,faces,27,29,Stimuli/Experimental_stims/objects/jonathan-greenaway-Y4hGgeiFn3s-unsplash.jpg,Stimuli/Experimental_stims/faces/leilani-angel-K84vnnzxmTQ-unsplash.jpg,0,0,888,0,unchosen,21,43,faces,objects,1700,0,9,3
38,59186,0,39,1,1,1,gain2,no_gain5,H,L,15,21,faces,faces,28,29,Stimuli/Experimental_stims/faces/erik-lucatero-d2MSDujJl2g-unsplash.jpg,Stimuli/Experimental_stims/faces/leilani-angel-K84vnnzxmTQ-unsplash.jpg,0,0,941,0,unchosen,21,15,faces,faces,1600,0,9,3
39,59186,0,40,1,1,0,no_gain1,gain3,G,K,2,29,outdoor_scenes,body_parts,75,52,Stimuli/Experimental_stims/outdoor_scenes/bruno-van-der-kraan-qez8mNJ3ilU-unsplash.jpg,Stimuli/Experimental_stims/body_parts/manuel-schinner-ZwjFuJ7ebpk-unsplash.jpg,0,0,744,1,chosen,29,2,body_parts,outdoor_scenes,4400,1,9,3
40,59186,0,41,1,1,1,gain1,no_gain5,C,L,9,32,outdoor_scenes,body_parts,36,35,Stimuli/Experimental_stims/outdoor_scenes/sergey-pesterev-y-b_FOmJXdg-unsplash.jpg,Stimuli/Experimental_stims/body_parts/towfiqu-barbhuiya-3AsiVDsZnHg-unsplash.jpg,0,1,836,1,chosen,9,32,outdoor_scenes,body_parts,1600,0,9,3
41,59186,0,42,1,1,0,no_gain4,gain3,B,K,13,44,faces,objects,31,27,Stimuli/Experimental_stims/faces/daniel-rigdon-dXmXKPP2L4E-unsplash.jpg,Stimuli/Experimental_stims/objects/kuiye-chen-NuOGFo4PudE-unsplash.jpg,0,1,755,0,unchosen,13,44,faces,objects,1700,0,9,3
42,59186,0,43,1,1,1,gain6,no_gain2,D,I,16,4,faces,outdoor_scenes,52,58,Stimuli/Experimental_stims/faces/freddy-kearney-o-ioeoATbIM-unsplash.jpg,Stimuli/Experimental_stims/outdoor_scenes/jarrett-kow-1ZOyYPOBn7I-unsplash.jpg,0,1,594,1,chosen,16,4,faces,outdoor_scenes,1900,0,9,3
43,59186,0,44,1,1,1,gain4,no_gain4,E,B,34,11,body_parts,outdoor_scenes,36,66,Stimuli/Experimental_stims/body_parts/wagner-santos-mBWMvIuVnso-unsplash.jpg,Stimuli/Experimental_stims/outdoor_scenes/stephen-leonardi-gyIRjKPXupE-unsplash.jpg,0,1,767,1,chosen,34,11,body_parts,outdoor_scenes,1900,0,9,3
44,59186,0,45,1,1,0,no_gain4,gain1,B,C,13,30,faces,body_parts,31,26,Stimuli/Experimental_stims/faces/daniel-rigdon-dXmXKPP2L4E-unsplash.jpg,Stimuli/Experimental_stims/body_parts/mika-korhonen-Xodzxosar18-unsplash.jpg,0,1,761,0,unchosen,13,30,faces,body_parts,2000,0,9,3
45,59186,0,46,1,1,0,no_gain2,gain1,I,C,4,9,outdoor_scenes,outdoor_scenes,58,36,Stimuli/Experimental_stims/outdoor_scenes/jarrett-kow-1ZOyYPOBn7I-unsplash.jpg,Stimuli/Experimental_stims/outdoor_scenes/sergey-pesterev-y-b_FOmJXdg-unsplash.jpg,0,0,889,1,chosen,9,4,outdoor_scenes,outdoor_scenes,2200,0,9,3
46,59186,0,47,1,1,0,no_gain5,gain5,L,A,32,5,body_parts,outdoor_scenes,35,68,Stimuli/Experimental_stims/body_parts/towfiqu-barbhuiya-3AsiVDsZnHg-unsplash.jpg,Stimuli/Experimental_stims/outdoor_scenes/jeff-king-bJHWJeiHfHc-unsplash.jpg,0,0,679,1,chosen,5,32,outdoor_scenes,body_parts,3000,0,9,3
47,59186,0,48,1,1,0,no_gain2,gain3,I,K,4,29,outdoor_scenes,body_parts,58,52,Stimuli/Experimental_stims/outdoor_scenes/jarrett-kow-1ZOyYPOBn7I-unsplash.jpg,Stimuli/Experimental_stims/body_parts/manuel-schinner-ZwjFuJ7ebpk-unsplash.jpg,0,0,709,1,chosen,29,4,body_parts,outdoor_scenes,4200,1,9,3
48,59186,0,49,1,1,0,no_gain6,gain3,J,K,39,44,objects,objects,25,27,Stimuli/Experimental_stims/objects/charlesdeluvio-1-nx1QR5dTE-unsplash.jpg,Stimuli/Experimental_stims/objects/kuiye-chen-NuOGFo4PudE-unsplash.jpg,0,1,996,0,unchosen,39,44,objects,objects,2100,0,9,3
49,59186,0,50,1,1,0,no_gain5,gain4,L,E,32,34,body_parts,body_parts,35,36,Stimuli/Experimental_stims/body_parts/towfiqu-barbhuiya-3AsiVDsZnHg-unsplash.jpg,Stimuli/Experimental_stims/body_parts/wagner-santos-mBWMvIuVnso-unsplash.jpg,0,0,688,1,chosen,34,32,body_parts,body_parts,1800,0,9,3
50,59186,0,51,1,1,1,gain3,no_gain5,K,L,29,32,body_parts,body_parts,52,35,Stimuli/Experimental_stims/body_parts/manuel-schinner-ZwjFuJ7ebpk-unsplash.jpg,Stimuli/Experimental_stims/body_parts/towfiqu-barbhuiya-3AsiVDsZnHg-unsplash.jpg,0,1,854,1,chosen,29,32,body_parts,body_parts,2400,0,9,3
51,59186,0,52,1,1,0,no_gain4,gain2,B,H,13,15,faces,faces,31,28,Stimuli/Experimental_stims/faces/daniel-rigdon-dXmXKPP2L4E-unsplash.jpg,Stimuli/Experimental_stims/faces/erik-lucatero-d2MSDujJl2g-unsplash.jpg,0,1,674,0,unchosen,13,15,faces,faces,1100,0,9,3
52,59186,0,53,1,1,0,no_gain2,gain5,I,A,4,5,outdoor_scenes,outdoor_scenes,58,68,Stimuli/Experimental_stims/outdoor_scenes/jarrett-kow-1ZOyYPOBn7I-unsplash.jpg,Stimuli/Experimental_stims/outdoor_scenes/jeff-king-bJHWJeiHfHc-unsplash.jpg,0,0,772,1,chosen,5,4,outdoor_scenes,outdoor_scenes,1100,0,9,3
53,59186,0,54,1,1,0,no_gain2,gain6,I,D,35,47,body_parts,objects,22,26,Stimuli/Experimental_stims/body_parts/wc-so-KH4AAPjb-tI-unsplash.jpg,Stimuli/Experimental_stims/objects/ronaldo-arthur-vidal-Cdz_lvnl37k-unsplash.jpg,0,1,934,0,unchosen,35,47,body_parts,objects,1100,0,9,3
54,59186,0,55,1,1,1,gain6,no_gain3,D,F,16,26,faces,body_parts,52,34,Stimuli/Experimental_stims/faces/freddy-kearney-o-ioeoATbIM-unsplash.jpg,Stimuli/Experimental_stims/body_parts/engin-akyurt-x_3gyC42btc-unsplash.jpg,0,1,570,1,chosen,16,26,faces,body_parts,3900,1,9,3
55,59186,0,56,1,1,0,no_gain1,gain5,G,A,40,42,objects,objects,35,34,Stimuli/Experimental_stims/objects/fabian-blank-pElSkGRA2NU-unsplash.jpg,Stimuli/Experimental_stims/objects/jess-bailey-nOeVi8DsN8U-unsplash.jpg,0,1,833,0,unchosen,40,42,objects,objects,2100,0,9,3
56,59186,0,57,1,1,1,gain5,no_gain4,A,B,42,13,objects,faces,34,31,Stimuli/Experimental_stims/objects/jess-bailey-nOeVi8DsN8U-unsplash.jpg,Stimuli/Experimental_stims/faces/daniel-rigdon-dXmXKPP2L4E-unsplash.jpg,0,0,582,0,unchosen,13,42,faces,objects,1000,0,9,3
57,59186,0,58,1,1,0,no_gain1,gain4,G,E,40,43,objects,objects,35,27,Stimuli/Experimental_stims/objects/fabian-blank-pElSkGRA2NU-unsplash.jpg,Stimuli/Experimental_stims/objects/jonathan-greenaway-Y4hGgeiFn3s-unsplash.jpg,0,1,1082,0,unchosen,40,43,objects,objects,1200,0,9,3
58,59186,0,59,1,1,1,gain3,no_gain6,K,J,29,23,body_parts,faces,52,27,Stimuli/Experimental_stims/body_parts/manuel-schinner-ZwjFuJ7ebpk-unsplash.jpg,Stimuli/Experimental_stims/faces/rikonavt-HQjfrvdTfak-unsplash.jpg,0,1,750,1,chosen,29,23,body_parts,faces,1300,0,9,3
59,59186,0,60,1,1,1,gain4,no_gain6,E,J,34,23,body_parts,faces,36,27,Stimuli/Experimental_stims/body_parts/wagner-santos-mBWMvIuVnso-unsplash.jpg,Stimuli/Experimental_stims/faces/rikonavt-HQjfrvdTfak-unsplash.jpg,0,1,787,1,chosen,34,23,body_parts,faces,1300,0,9,3
60,59186,0,61,1,1,1,gain2,no_gain1,H,G,15,40,faces,objects,28,35,Stimuli/Experimental_stims/faces/erik-lucatero-d2MSDujJl2g-unsplash.jpg,Stimuli/Experimental_stims/objects/fabian-blank-pElSkGRA2NU-unsplash.jpg,0,1,662,1,unchosen,15,40,faces,objects,3300,1,9,3
61,59186,0,62,1,1,1,gain2,no_gain3,H,F,15,17,faces,faces,28,43,Stimuli/Experimental_stims/faces/erik-lucatero-d2MSDujJl2g-unsplash.jpg,Stimuli/Experimental_stims/faces/good-faces-xmSWVeGEnJw-unsplash.jpg,0,0,831,0,unchosen,17,15,faces,faces,1100,0,9,3
62,59186,0,63,1,1,0,no_gain5,gain6,L,D,32,16,body_parts,faces,35,52,Stimuli/Experimental_stims/body_parts/towfiqu-barbhuiya-3AsiVDsZnHg-unsplash.jpg,Stimuli/Experimental_stims/faces/freddy-kearney-o-ioeoATbIM-unsplash.jpg,0,0,723,1,chosen,16,32,faces,body_parts,1400,0,9,3
63,59186,0,64,1,1,0,no_gain2,gain4,I,E,4,34,outdoor_scenes,body_parts,58,36,Stimuli/Experimental_stims/outdoor_scenes/jarrett-kow-1ZOyYPOBn7I-unsplash.jpg,Stimuli/Experimental_stims/body_parts/wagner-santos-mBWMvIuVnso-unsplash.jpg,0,0,779,1,chosen,34,4,body_parts,outdoor_scenes,1400,0,9,3
64,59186,0,65,1,1,0,no_gain3,gain3,F,K,26,29,body_parts,body_parts,34,52,Stimuli/Experimental_stims/body_parts/engin-akyurt-x_3gyC42btc-unsplash.jpg,Stimuli/Experimental_stims/body_parts/manuel-schinner-ZwjFuJ7ebpk-unsplash.jpg,0,0,740,1,chosen,29,26,body_parts,body_parts,2700,0,9,3
65,59186,0,66,1,1,0,no_gain6,gain5,J,A,39,42,objects,objects,25,34,Stimuli/Experimental_stims/objects/charlesdeluvio-1-nx1QR5dTE-unsplash.jpg,Stimuli/Experimental_stims/objects/jess-bailey-nOeVi8DsN8U-unsplash.jpg,0,1,1336,0,unchosen,39,42,objects,objects,1500,0,9,3
66,59186,0,67,1,1,1,gain3,no_gain5,K,L,44,21,objects,faces,27,29,Stimuli/Experimental_stims/objects/kuiye-chen-NuOGFo4PudE-unsplash.jpg,Stimuli/Experimental_stims/faces/leilani-angel-K84vnnzxmTQ-unsplash.jpg,0,0,642,0,unchosen,21,44,faces,objects,3700,1,9,3
67,59186,0,68,1,1,0,no_gain1,gain1,G,C,40,30,objects,body_parts,35,26,Stimuli/Experimental_stims/objects/fabian-blank-pElSkGRA2NU-unsplash.jpg,Stimuli/Experimental_stims/body_parts/mika-korhonen-Xodzxosar18-unsplash.jpg,0,1,911,0,unchosen,40,30,objects,body_parts,2600,0,9,3
68,59186,0,69,1,1,1,gain4,no_gain3,E,F,34,26,body_parts,body_parts,36,34,Stimuli/Experimental_stims/body_parts/wagner-santos-mBWMvIuVnso-unsplash.jpg,Stimuli/Experimental_stims/body_parts/engin-akyurt-x_3gyC42btc-unsplash.jpg,0,1,598,1,chosen,34,26,body_parts,body_parts,1600,0,9,3
69,59186,0,70,1,1,1,gain6,no_gain3,D,F,47,17,objects,faces,26,43,Stimuli/Experimental_stims/objects/ronaldo-arthur-vidal-Cdz_lvnl37k-unsplash.jpg,Stimuli/Experimental_stims/faces/good-faces-xmSWVeGEnJw-unsplash.jpg,0,0,634,0,unchosen,17,47,faces,objects,1100,0,9,3
70,59186,0,71,1,1,0,no_gain6,gain2,J,H,23,7,faces,outdoor_scenes,27,50,Stimuli/Experimental_stims/faces/rikonavt-HQjfrvdTfak-unsplash.jpg,Stimuli/Experimental_stims/outdoor_scenes/petr-vysohlid-9fqwGqGLUxc-unsplash.jpg,0,0,733,1,chosen,7,23,outdoor_scenes,faces,1600,0,9,3
71,59186,0,72,1,1,0,no_gain6,gain1,J,C,23,9,faces,outdoor_scenes,27,36,Stimuli/Experimental_stims/faces/rikonavt-HQjfrvdTfak-unsplash.jpg,Stimuli/Experimental_stims/outdoor_scenes/sergey-pesterev-y-b_FOmJXdg-unsplash.jpg,0,0,625,1,chosen,9,23,outdoor_scenes,faces,4400,1,9,3
72,59186,0,73,1,1,1,gain6,no_gain1,D,G,16,2,faces,outdoor_scenes,52,75,Stimuli/Experimental_stims/faces/freddy-kearney-o-ioeoATbIM-unsplash.jpg,Stimuli/Experimental_stims/outdoor_scenes/bruno-van-der-kraan-qez8mNJ3ilU-unsplash.jpg,0,0,720,0,chosen,2,16,outdoor_scenes,faces,1100,0,9,3
73,59186,0,74,1,1,0,no_gain5,gain6,L,D,21,47,faces,objects,29,26,Stimuli/Experimental_stims/faces/leilani-angel-K84vnnzxmTQ-unsplash.jpg,Stimuli/Experimental_stims/objects/ronaldo-arthur-vidal-Cdz_lvnl37k-unsplash.jpg,0,1,910,0,unchosen,21,47,faces,objects,1700,0,9,3
74,59186,0,75,1,1,1,gain5,no_gain2,A,I,42,35,objects,body_parts,34,22,Stimuli/Experimental_stims/objects/jess-bailey-nOeVi8DsN8U-unsplash.jpg,Stimuli/Experimental_stims/body_parts/wc-so-KH4AAPjb-tI-unsplash.jpg,0,0,875,0,unchosen,35,42,body_parts,objects,2500,0,9,3
75,59186,0,76,1,1,1,gain1,no_gain3,C,F,30,17,body_parts,faces,26,43,Stimuli/Experimental_stims/body_parts/mika-korhonen-Xodzxosar18-unsplash.jpg,Stimuli/Experimental_stims/faces/good-faces-xmSWVeGEnJw-unsplash.jpg,0,0,883,0,unchosen,17,30,faces,body_parts,2100,0,9,3
76,59186,0,77,2,2,0,no_gain2,gain4,I,E,35,43,body_parts,objects,22,27,Stimuli/Experimental_stims/body_parts/wc-so-KH4AAPjb-tI-unsplash.jpg,Stimuli/Experimental_stims/objects/jonathan-greenaway-Y4hGgeiFn3s-unsplash.jpg,0,1,990,0,unchosen,35,43,body_parts,objects,3800,1,9,3
77,59186,0,78,2,2,0,no_gain6,gain5,J,A,23,5,faces,outdoor_scenes,27,68,Stimuli/Experimental_stims/faces/rikonavt-HQjfrvdTfak-unsplash.jpg,Stimuli/Experimental_stims/outdoor_scenes/jeff-king-bJHWJeiHfHc-unsplash.jpg,0,0,822,1,chosen,5,23,outdoor_scenes,faces,1200,0,9,3
78,59186,0,79,2,2,0,no_gain5,gain5,L,A,32,5,body_parts,outdoor_scenes,35,68,Stimuli/Experimental_stims/body_parts/towfiqu-barbhuiya-3AsiVDsZnHg-unsplash.jpg,Stimuli/Experimental_stims/outdoor_scenes/jeff-king-bJHWJeiHfHc-unsplash.jpg,0,0,650,1,chosen,5,32,outdoor_scenes,body_parts,1200,0,9,3
79,59186,0,80,2,2,0,no_gain6,gain3,J,K,39,44,objects,objects,25,27,Stimuli/Experimental_stims/objects/charlesdeluvio-1-nx1QR5dTE-unsplash.jpg,Stimuli/Experimental_stims/objects/kuiye-chen-NuOGFo4PudE-unsplash.jpg,0,1,794,0,unchosen,39,44,objects,objects,2700,0,9,3
80,59186,0,81,2,2,0,no_gain2,gain6,I,D,4,16,outdoor_scenes,faces,58,52,Stimuli/Experimental_stims/outdoor_scenes/jarrett-kow-1ZOyYPOBn7I-unsplash.jpg,Stimuli/Experimental_stims/faces/freddy-kearney-o-ioeoATbIM-unsplash.jpg,0,0,647,1,chosen,16,4,faces,outdoor_scenes,2900,0,9,3
81,59186,0,82,2,2,1,gain6,no_gain4,D,B,47,13,objects,faces,26,31,Stimuli/Experimental_stims/objects/ronaldo-arthur-vidal-Cdz_lvnl37k-unsplash.jpg,Stimuli/Experimental_stims/faces/daniel-rigdon-dXmXKPP2L4E-unsplash.jpg,0,0,665,0,unchosen,13,47,faces,objects,1400,0,9,3
82,59186,0,83,2,2,1,gain2,no_gain1,H,G,7,2,outdoor_scenes,outdoor_scenes,50,75,Stimuli/Experimental_stims/outdoor_scenes/petr-vysohlid-9fqwGqGLUxc-unsplash.jpg,Stimuli/Experimental_stims/outdoor_scenes/bruno-van-der-kraan-qez8mNJ3ilU-unsplash.jpg,0,1,803,1,chosen,7,2,outdoor_scenes,outdoor_scenes,1100,0,9,3
83,59186,0,84,2,2,0,no_gain5,gain3,L,K,32,29,body_parts,body_parts,35,52,Stimuli/Experimental_stims/body_parts/towfiqu-barbhuiya-3AsiVDsZnHg-unsplash.jpg,Stimuli/Experimental_stims/body_parts/manuel-schinner-ZwjFuJ7ebpk-unsplash.jpg,0,0,749,1,chosen,29,32,body_parts,body_parts,2400,0,9,3
84,59186,0,85,2,2,1,gain6,no_gain3,D,F,47,17,objects,faces,26,43,Stimuli/Experimental_stims/objects/ronaldo-arthur-vidal-Cdz_lvnl37k-unsplash.jpg,Stimuli/Experimental_stims/faces/good-faces-xmSWVeGEnJw-unsplash.jpg,0,0,665,0,unchosen,17,47,faces,objects,2400,0,9,3
85,59186,0,86,2,2,1,gain5,no_gain1,A,G,5,2,outdoor_scenes,outdoor_scenes,68,75,Stimuli/Experimental_stims/outdoor_scenes/jeff-king-bJHWJeiHfHc-unsplash.jpg,Stimuli/Experimental_stims/outdoor_scenes/bruno-van-der-kraan-qez8mNJ3ilU-unsplash.jpg,0,1,892,1,chosen,5,2,outdoor_scenes,outdoor_scenes,1400,0,9,3
86,59186,0,87,2,2,0,no_gain3,gain1,F,C,26,9,body_parts,outdoor_scenes,34,36,Stimuli/Experimental_stims/body_parts/engin-akyurt-x_3gyC42btc-unsplash.jpg,Stimuli/Experimental_stims/outdoor_scenes/sergey-pesterev-y-b_FOmJXdg-unsplash.jpg,0,1,1197,0,chosen,26,9,body_parts,outdoor_scenes,3000,1,9,3
87,59186,0,88,2,2,0,no_gain5,gain1,L,C,21,30,faces,body_parts,29,26,Stimuli/Experimental_stims/faces/leilani-angel-K84vnnzxmTQ-unsplash.jpg,Stimuli/Experimental_stims/body_parts/mika-korhonen-Xodzxosar18-unsplash.jpg,0,1,1016,0,unchosen,21,30,faces,body_parts,1000,0,9,3
88,59186,0,89,2,2,0,no_gain5,gain4,L,E,21,43,faces,objects,29,27,Stimuli/Experimental_stims/faces/leilani-angel-K84vnnzxmTQ-unsplash.jpg,Stimuli/Experimental_stims/objects/jonathan-greenaway-Y4hGgeiFn3s-unsplash.jpg,0,1,603,0,unchosen,21,43,faces,objects,1100,0,9,3
89,59186,0,90,2,2,0,no_gain3,gain2,F,H,17,15,faces,faces,43,28,Stimuli/Experimental_stims/faces/good-faces-xmSWVeGEnJw-unsplash.jpg,Stimuli/Experimental_stims/faces/erik-lucatero-d2MSDujJl2g-unsplash.jpg,0,1,688,0,unchosen,17,15,faces,faces,2200,0,9,3
90,59186,0,91,2,2,1,gain1,no_gain6,C,J,9,23,outdoor_scenes,faces,36,27,Stimuli/Experimental_stims/outdoor_scenes/sergey-pesterev-y-b_FOmJXdg-unsplash.jpg,Stimuli/Experimental_stims/faces/rikonavt-HQjfrvdTfak-unsplash.jpg,0,1,791,1,chosen,9,23,outdoor_scenes,faces,1600,0,9,3
91,59186,0,92,2,2,1,gain2,no_gain6,H,J,15,39,faces,objects,28,25,Stimuli/Experimental_stims/faces/erik-lucatero-d2MSDujJl2g-unsplash.jpg,Stimuli/Experimental_stims/objects/charlesdeluvio-1-nx1QR5dTE-unsplash.jpg,0,1,796,1,unchosen,15,39,faces,objects,3200,1,9,3
92,59186,0,93,2,2,0,no_gain5,gain6,L,D,21,47,faces,objects,29,26,Stimuli/Experimental_stims/faces/leilani-angel-K84vnnzxmTQ-unsplash.jpg,Stimuli/Experimental_stims/objects/ronaldo-arthur-vidal-Cdz_lvnl37k-unsplash.jpg,0,1,866,0,unchosen,21,47,faces,objects,2100,0,9,3
93,59186,0,94,2,2,1,gain3,no_gain3,K,F,44,17,objects,faces,27,43,Stimuli/Experimental_stims/objects/kuiye-chen-NuOGFo4PudE-unsplash.jpg,Stimuli/Experimental_stims/faces/good-faces-xmSWVeGEnJw-unsplash.jpg,0,0,640,0,unchosen,17,44,faces,objects,1100,0,9,3
94,59186,0,95,2,2,0,no_gain2,gain3,I,K,4,29,outdoor_scenes,body_parts,58,52,Stimuli/Experimental_stims/outdoor_scenes/jarrett-kow-1ZOyYPOBn7I-unsplash.jpg,Stimuli/Experimental_stims/body_parts/manuel-schinner-ZwjFuJ7ebpk-unsplash.jpg,0,0,985,1,chosen,29,4,body_parts,outdoor_scenes,2800,0,9,3
95,59186,0,96,2,2,1,gain1,no_gain4,C,B,30,13,body_parts,faces,26,31,Stimuli/Experimental_stims/body_parts/mika-korhonen-Xodzxosar18-unsplash.jpg,Stimuli/Experimental_stims/faces/daniel-rigdon-dXmXKPP2L4E-unsplash.jpg,0,0,632,0,unchosen,13,30,faces,body_parts,1100,0,9,3
96,59186,0,97,2,2,0,no_gain3,gain4,F,E,26,34,body_parts,body_parts,34,36,Stimuli/Experimental_stims/body_parts/engin-akyurt-x_3gyC42btc-unsplash.jpg,Stimuli/Experimental_stims/body_parts/wagner-santos-mBWMvIuVnso-unsplash.jpg,0,1,847,0,chosen,26,34,body_parts,body_parts,4900,1,9,3
97,59186,0,98,2,2,1,gain3,no_gain3,K,F,29,26,body_parts,body_parts,52,34,Stimuli/Experimental_stims/body_parts/manuel-schinner-ZwjFuJ7ebpk-unsplash.jpg,Stimuli/Experimental_stims/body_parts/engin-akyurt-x_3gyC42btc-unsplash.jpg,0,1,1032,1,chosen,29,26,body_parts,body_parts,1200,0,9,3
98,59186,0,99,2,2,0,no_gain5,gain5,L,A,21,42,faces,objects,29,34,Stimuli/Experimental_stims/faces/leilani-angel-K84vnnzxmTQ-unsplash.jpg,Stimuli/Experimental_stims/objects/jess-bailey-nOeVi8DsN8U-unsplash.jpg,0,1,778,0,unchosen,21,42,faces,objects,1200,0,9,3
99,59186,0,100,2,2,1,gain4,no_gain5,E,L,34,32,body_parts,body_parts,36,35,Stimuli/Experimental_stims/body_parts/wagner-santos-mBWMvIuVnso-unsplash.jpg,Stimuli/Experimental_stims/body_parts/towfiqu-barbhuiya-3AsiVDsZnHg-unsplash.jpg,0,1,873,1,chosen,34,32,body_parts,body_parts,1900,0,9,3
100,59186,0,101,2,2,0,no_gain6,gain4,J,E,23,34,faces,body_parts,27,36,Stimuli/Experimental_stims/faces/rikonavt-HQjfrvdTfak-unsplash.jpg,Stimuli/Experimental_stims/body_parts/wagner-santos-mBWMvIuVnso-unsplash.jpg,0,0,891,1,chosen,34,23,body_parts,faces,1500,0,9,3
101,59186,0,102,2,2,0,no_gain5,gain2,L,H,21,15,faces,faces,29,28,Stimuli/Experimental_stims/faces/leilani-angel-K84vnnzxmTQ-unsplash.jpg,Stimuli/Experimental_stims/faces/erik-lucatero-d2MSDujJl2g-unsplash.jpg,0,0,1279,1,unchosen,15,21,faces,faces,1600,0,9,3
102,59186,0,103,2,2,0,no_gain5,gain6,L,D,32,16,body_parts,faces,35,52,Stimuli/Experimental_stims/body_parts/towfiqu-barbhuiya-3AsiVDsZnHg-unsplash.jpg,Stimuli/Experimental_stims/faces/freddy-kearney-o-ioeoATbIM-unsplash.jpg,0,0,606,1,chosen,16,32,faces,body_parts,1500,0,9,3
103,59186,0,104,2,2,1,gain4,no_gain3,E,F,43,17,objects,faces,27,43,Stimuli/Experimental_stims/objects/jonathan-greenaway-Y4hGgeiFn3s-unsplash.jpg,Stimuli/Experimental_stims/faces/good-faces-xmSWVeGEnJw-unsplash.jpg,0,0,592,0,unchosen,17,43,faces,objects,2000,0,9,3
104,59186,0,105,2,2,1,gain2,no_gain4,H,B,7,11,outdoor_scenes,outdoor_scenes,50,66,Stimuli/Experimental_stims/outdoor_scenes/petr-vysohlid-9fqwGqGLUxc-unsplash.jpg,Stimuli/Experimental_stims/outdoor_scenes/stephen-leonardi-gyIRjKPXupE-unsplash.jpg,0,1,946,1,chosen,7,11,outdoor_scenes,outdoor_scenes,2000,0,9,3
105,59186,0,106,2,2,0,no_gain2,gain1,I,C,4,9,outdoor_scenes,outdoor_scenes,58,36,Stimuli/Experimental_stims/outdoor_scenes/jarrett-kow-1ZOyYPOBn7I-unsplash.jpg,Stimuli/Experimental_stims/outdoor_scenes/sergey-pesterev-y-b_FOmJXdg-unsplash.jpg,0,0,810,1,chosen,9,4,outdoor_scenes,outdoor_scenes,3400,1,9,3
106,59186,0,107,2,2,1,gain1,no_gain6,C,J,30,39,body_parts,objects,26,25,Stimuli/Experimental_stims/body_parts/mika-korhonen-Xodzxosar18-unsplash.jpg,Stimuli/Experimental_stims/objects/charlesdeluvio-1-nx1QR5dTE-unsplash.jpg,0,1,1260,1,unchosen,30,39,body_parts,objects,1600,0,9,3
107,59186,0,108,2,2,0,no_gain1,gain3,G,K,40,44,objects,objects,35,27,Stimuli/Experimental_stims/objects/fabian-blank-pElSkGRA2NU-unsplash.jpg,Stimuli/Experimental_stims/objects/kuiye-chen-NuOGFo4PudE-unsplash.jpg,0,1,751,0,unchosen,40,44,objects,objects,2400,0,9,3
108,59186,0,109,2,2,0,no_gain5,gain2,L,H,32,7,body_parts,outdoor_scenes,35,50,Stimuli/Experimental_stims/body_parts/towfiqu-barbhuiya-3AsiVDsZnHg-unsplash.jpg,Stimuli/Experimental_stims/outdoor_scenes/petr-vysohlid-9fqwGqGLUxc-unsplash.jpg,0,0,701,1,chosen,7,32,outdoor_scenes,body_parts,2900,0,9,3
109,59186,0,110,2,2,1,gain2,no_gain2,H,I,7,4,outdoor_scenes,outdoor_scenes,50,58,Stimuli/Experimental_stims/outdoor_scenes/petr-vysohlid-9fqwGqGLUxc-unsplash.jpg,Stimuli/Experimental_stims/outdoor_scenes/jarrett-kow-1ZOyYPOBn7I-unsplash.jpg,0,1,1135,1,chosen,7,4,outdoor_scenes,outdoor_scenes,2100,0,9,3
110,59186,0,111,2,2,1,gain5,no_gain6,A,J,42,39,objects,objects,34,25,Stimuli/Experimental_stims/objects/jess-bailey-nOeVi8DsN8U-unsplash.jpg,Stimuli/Experimental_stims/objects/charlesdeluvio-1-nx1QR5dTE-unsplash.jpg,1,NaN,,NaN,unchosen,NaN,NaN,NaN,NaN,3600,1,9,3
111,59186,0,112,2,2,1,gain6,no_gain4,D,B,16,11,faces,outdoor_scenes,52,66,Stimuli/Experimental_stims/faces/freddy-kearney-o-ioeoATbIM-unsplash.jpg,Stimuli/Experimental_stims/outdoor_scenes/stephen-leonardi-gyIRjKPXupE-unsplash.jpg,0,1,701,1,chosen,16,11,faces,outdoor_scenes,1900,0,9,3
112,59186,0,113,2,2,1,gain3,no_gain1,K,G,29,2,body_parts,outdoor_scenes,52,75,Stimuli/Experimental_stims/body_parts/manuel-schinner-ZwjFuJ7ebpk-unsplash.jpg,Stimuli/Experimental_stims/outdoor_scenes/bruno-van-der-kraan-qez8mNJ3ilU-unsplash.jpg,0,1,791,1,chosen,29,2,body_parts,outdoor_scenes,1000,0,9,3
113,59186,0,114,2,2,0,no_gain6,gain2,J,H,23,7,faces,outdoor_scenes,27,50,Stimuli/Experimental_stims/faces/rikonavt-HQjfrvdTfak-unsplash.jpg,Stimuli/Experimental_stims/outdoor_scenes/petr-vysohlid-9fqwGqGLUxc-unsplash.jpg,0,0,857,1,chosen,7,23,outdoor_scenes,faces,1500,0,9,3
114,59186,0,115,2,2,1,gain1,no_gain3,C,F,30,17,body_parts,faces,26,43,Stimuli/Experimental_stims/body_parts/mika-korhonen-Xodzxosar18-unsplash.jpg,Stimuli/Experimental_stims/faces/good-faces-xmSWVeGEnJw-unsplash.jpg,0,0,611,0,unchosen,17,30,faces,body_parts,1600,0,9,3
115,59186,0,116,2,2,0,no_gain1,gain1,G,C,40,30,objects,body_parts,35,26,Stimuli/Experimental_stims/objects/fabian-blank-pElSkGRA2NU-unsplash.jpg,Stimuli/Experimental_stims/body_parts/mika-korhonen-Xodzxosar18-unsplash.jpg,0,1,718,0,unchosen,40,30,objects,body_parts,1100,0,9,3
116,59186,0,117,2,2,1,gain6,no_gain1,D,G,16,2,faces,outdoor_scenes,52,75,Stimuli/Experimental_stims/faces/freddy-kearney-o-ioeoATbIM-unsplash.jpg,Stimuli/Experimental_stims/outdoor_scenes/bruno-van-der-kraan-qez8mNJ3ilU-unsplash.jpg,0,1,576,1,chosen,16,2,faces,outdoor_scenes,4400,1,9,3
117,59186,0,118,2,2,1,gain3,no_gain6,K,J,29,23,body_parts,faces,52,27,Stimuli/Experimental_stims/body_parts/manuel-schinner-ZwjFuJ7ebpk-unsplash.jpg,Stimuli/Experimental_stims/faces/rikonavt-HQjfrvdTfak-unsplash.jpg,0,1,730,1,chosen,29,23,body_parts,faces,1100,0,9,3
118,59186,0,119,2,2,1,gain3,no_gain4,K,B,44,13,objects,faces,27,31,Stimuli/Experimental_stims/objects/kuiye-chen-NuOGFo4PudE-unsplash.jpg,Stimuli/Experimental_stims/faces/daniel-rigdon-dXmXKPP2L4E-unsplash.jpg,0,0,754,0,unchosen,13,44,faces,objects,1200,0,9,3
119,59186,0,120,2,2,0,no_gain4,gain1,B,C,11,9,outdoor_scenes,outdoor_scenes,66,36,Stimuli/Experimental_stims/outdoor_scenes/stephen-leonardi-gyIRjKPXupE-unsplash.jpg,Stimuli/Experimental_stims/outdoor_scenes/sergey-pesterev-y-b_FOmJXdg-unsplash.jpg,0,0,923,1,chosen,9,11,outdoor_scenes,outdoor_scenes,1000,0,9,3
120,59186,0,121,2,2,0,no_gain3,gain5,F,A,17,42,faces,objects,43,34,Stimuli/Experimental_stims/faces/good-faces-xmSWVeGEnJw-unsplash.jpg,Stimuli/Experimental_stims/objects/jess-bailey-nOeVi8DsN8U-unsplash.jpg,0,1,640,0,unchosen,17,42,faces,objects,1500,0,9,3
121,59186,0,122,2,2,0,no_gain1,gain4,G,E,40,43,objects,objects,35,27,Stimuli/Experimental_stims/objects/fabian-blank-pElSkGRA2NU-unsplash.jpg,Stimuli/Experimental_stims/objects/jonathan-greenaway-Y4hGgeiFn3s-unsplash.jpg,0,1,604,0,unchosen,40,43,objects,objects,2000,0,9,3
122,59186,0,123,2,2,0,no_gain4,gain3,B,K,11,29,outdoor_scenes,body_parts,66,52,Stimuli/Experimental_stims/outdoor_scenes/stephen-leonardi-gyIRjKPXupE-unsplash.jpg,Stimuli/Experimental_stims/body_parts/manuel-schinner-ZwjFuJ7ebpk-unsplash.jpg,0,0,919,1,chosen,29,11,body_parts,outdoor_scenes,3700,1,9,3
123,59186,0,124,2,2,0,no_gain1,gain2,G,H,40,15,objects,faces,35,28,Stimuli/Experimental_stims/objects/fabian-blank-pElSkGRA2NU-unsplash.jpg,Stimuli/Experimental_stims/faces/erik-lucatero-d2MSDujJl2g-unsplash.jpg,0,0,944,1,unchosen,15,40,faces,objects,2100,0,9,3
124,59186,0,125,2,2,1,gain5,no_gain1,A,G,42,40,objects,objects,34,35,Stimuli/Experimental_stims/objects/jess-bailey-nOeVi8DsN8U-unsplash.jpg,Stimuli/Experimental_stims/objects/fabian-blank-pElSkGRA2NU-unsplash.jpg,0,0,730,0,unchosen,40,42,objects,objects,1100,0,9,3
125,59186,0,126,2,2,1,gain5,no_gain3,A,F,5,26,outdoor_scenes,body_parts,68,34,Stimuli/Experimental_stims/outdoor_scenes/jeff-king-bJHWJeiHfHc-unsplash.jpg,Stimuli/Experimental_stims/body_parts/engin-akyurt-x_3gyC42btc-unsplash.jpg,0,1,1331,1,chosen,5,26,outdoor_scenes,body_parts,1500,0,9,3
126,59186,0,127,2,2,0,no_gain5,gain1,L,C,32,9,body_parts,outdoor_scenes,35,36,Stimuli/Experimental_stims/body_parts/towfiqu-barbhuiya-3AsiVDsZnHg-unsplash.jpg,Stimuli/Experimental_stims/outdoor_scenes/sergey-pesterev-y-b_FOmJXdg-unsplash.jpg,0,0,753,1,chosen,9,32,outdoor_scenes,body_parts,1900,0,9,3
127,59186,0,128,2,2,0,no_gain2,gain6,I,D,35,47,body_parts,objects,22,26,Stimuli/Experimental_stims/body_parts/wc-so-KH4AAPjb-tI-unsplash.jpg,Stimuli/Experimental_stims/objects/ronaldo-arthur-vidal-Cdz_lvnl37k-unsplash.jpg,0,1,796,0,unchosen,35,47,body_parts,objects,1600,0,9,3
128,59186,0,129,2,2,1,gain5,no_gain4,A,B,42,13,objects,faces,34,31,Stimuli/Experimental_stims/objects/jess-bailey-nOeVi8DsN8U-unsplash.jpg,Stimuli/Experimental_stims/faces/daniel-rigdon-dXmXKPP2L4E-unsplash.jpg,0,0,638,0,unchosen,13,42,faces,objects,3100,1,9,3
129,59186,0,130,2,2,0,no_gain1,gain1,G,C,2,9,outdoor_scenes,outdoor_scenes,75,36,Stimuli/Experimental_stims/outdoor_scenes/bruno-van-der-kraan-qez8mNJ3ilU-unsplash.jpg,Stimuli/Experimental_stims/outdoor_scenes/sergey-pesterev-y-b_FOmJXdg-unsplash.jpg,0,0,851,1,chosen,9,2,outdoor_scenes,outdoor_scenes,2800,0,9,3
130,59186,0,131,2,2,1,gain5,no_gain4,A,B,5,11,outdoor_scenes,outdoor_scenes,68,66,Stimuli/Experimental_stims/outdoor_scenes/jeff-king-bJHWJeiHfHc-unsplash.jpg,Stimuli/Experimental_stims/outdoor_scenes/stephen-leonardi-gyIRjKPXupE-unsplash.jpg,0,1,876,1,chosen,5,11,outdoor_scenes,outdoor_scenes,1800,0,9,3
131,59186,0,132,2,2,0,no_gain6,gain6,J,D,39,47,objects,objects,25,26,Stimuli/Experimental_stims/objects/charlesdeluvio-1-nx1QR5dTE-unsplash.jpg,Stimuli/Experimental_stims/objects/ronaldo-arthur-vidal-Cdz_lvnl37k-unsplash.jpg,0,1,818,0,unchosen,39,47,objects,objects,2100,0,9,3
132,59186,0,133,2,2,1,gain6,no_gain3,D,F,16,26,faces,body_parts,52,34,Stimuli/Experimental_stims/faces/freddy-kearney-o-ioeoATbIM-unsplash.jpg,Stimuli/Experimental_stims/body_parts/engin-akyurt-x_3gyC42btc-unsplash.jpg,0,1,648,1,chosen,16,26,faces,body_parts,2100,0,9,3
133,59186,0,134,2,2,0,no_gain2,gain5,I,A,4,5,outdoor_scenes,outdoor_scenes,58,68,Stimuli/Experimental_stims/outdoor_scenes/jarrett-kow-1ZOyYPOBn7I-unsplash.jpg,Stimuli/Experimental_stims/outdoor_scenes/jeff-king-bJHWJeiHfHc-unsplash.jpg,0,0,684,1,chosen,5,4,outdoor_scenes,outdoor_scenes,1600,0,9,3
134,59186,0,135,2,2,0,no_gain4,gain2,B,H,13,15,faces,faces,31,28,Stimuli/Experimental_stims/faces/daniel-rigdon-dXmXKPP2L4E-unsplash.jpg,Stimuli/Experimental_stims/faces/erik-lucatero-d2MSDujJl2g-unsplash.jpg,0,1,750,0,unchosen,13,15,faces,faces,2600,0,9,3
135,59186,0,136,2,2,1,gain4,no_gain4,E,B,34,11,body_parts,outdoor_scenes,36,66,Stimuli/Experimental_stims/body_parts/wagner-santos-mBWMvIuVnso-unsplash.jpg,Stimuli/Experimental_stims/outdoor_scenes/stephen-leonardi-gyIRjKPXupE-unsplash.jpg,0,1,775,1,chosen,34,11,body_parts,outdoor_scenes,1100,0,9,3
136,59186,0,137,2,2,0,no_gain2,gain2,I,H,35,15,body_parts,faces,22,28,Stimuli/Experimental_stims/body_parts/wc-so-KH4AAPjb-tI-unsplash.jpg,Stimuli/Experimental_stims/faces/erik-lucatero-d2MSDujJl2g-unsplash.jpg,0,1,1029,0,unchosen,35,15,body_parts,faces,2700,0,9,3
137,59186,0,138,2,2,1,gain4,no_gain6,E,J,43,39,objects,objects,27,25,Stimuli/Experimental_stims/objects/jonathan-greenaway-Y4hGgeiFn3s-unsplash.jpg,Stimuli/Experimental_stims/objects/charlesdeluvio-1-nx1QR5dTE-unsplash.jpg,0,1,906,1,unchosen,43,39,objects,objects,1500,0,9,3
138,59186,0,139,2,2,1,gain3,no_gain5,K,L,44,21,objects,faces,27,29,Stimuli/Experimental_stims/objects/kuiye-chen-NuOGFo4PudE-unsplash.jpg,Stimuli/Experimental_stims/faces/leilani-angel-K84vnnzxmTQ-unsplash.jpg,0,0,631,0,unchosen,21,44,faces,objects,1100,0,9,3
139,59186,0,140,2,2,1,gain4,no_gain1,E,G,34,2,body_parts,outdoor_scenes,36,75,Stimuli/Experimental_stims/body_parts/wagner-santos-mBWMvIuVnso-unsplash.jpg,Stimuli/Experimental_stims/outdoor_scenes/bruno-van-der-kraan-qez8mNJ3ilU-unsplash.jpg,0,1,630,1,chosen,34,2,body_parts,outdoor_scenes,1200,0,9,3
140,59186,0,141,2,2,1,gain3,no_gain2,K,I,44,35,objects,body_parts,27,22,Stimuli/Experimental_stims/objects/kuiye-chen-NuOGFo4PudE-unsplash.jpg,Stimuli/Experimental_stims/body_parts/wc-so-KH4AAPjb-tI-unsplash.jpg,0,0,757,0,unchosen,35,44,body_parts,objects,1200,0,9,3
141,59186,0,142,2,2,0,no_gain2,gain1,I,C,35,30,body_parts,body_parts,22,26,Stimuli/Experimental_stims/body_parts/wc-so-KH4AAPjb-tI-unsplash.jpg,Stimuli/Experimental_stims/body_parts/mika-korhonen-Xodzxosar18-unsplash.jpg,0,1,1193,0,unchosen,35,30,body_parts,body_parts,4600,1,9,3
142,59186,0,143,2,2,1,gain6,no_gain6,D,J,16,23,faces,faces,52,27,Stimuli/Experimental_stims/faces/freddy-kearney-o-ioeoATbIM-unsplash.jpg,Stimuli/Experimental_stims/faces/rikonavt-HQjfrvdTfak-unsplash.jpg,0,1,741,1,chosen,16,23,faces,faces,2000,0,9,3
143,59186,0,144,2,2,1,gain4,no_gain4,E,B,43,13,objects,faces,27,31,Stimuli/Experimental_stims/objects/jonathan-greenaway-Y4hGgeiFn3s-unsplash.jpg,Stimuli/Experimental_stims/faces/daniel-rigdon-dXmXKPP2L4E-unsplash.jpg,0,0,605,0,unchosen,13,43,faces,objects,1700,0,9,3
144,59186,0,145,2,2,1,gain6,no_gain1,D,G,47,40,objects,objects,26,35,Stimuli/Experimental_stims/objects/ronaldo-arthur-vidal-Cdz_lvnl37k-unsplash.jpg,Stimuli/Experimental_stims/objects/fabian-blank-pElSkGRA2NU-unsplash.jpg,0,0,729,0,unchosen,40,47,objects,objects,1300,0,9,3
145,59186,0,146,2,2,0,no_gain2,gain4,I,E,4,34,outdoor_scenes,body_parts,58,36,Stimuli/Experimental_stims/outdoor_scenes/jarrett-kow-1ZOyYPOBn7I-unsplash.jpg,Stimuli/Experimental_stims/body_parts/wagner-santos-mBWMvIuVnso-unsplash.jpg,0,0,694,1,chosen,34,4,body_parts,outdoor_scenes,1300,0,9,3
146,59186,0,147,2,2,1,gain5,no_gain2,A,I,42,35,objects,body_parts,34,22,Stimuli/Experimental_stims/objects/jess-bailey-nOeVi8DsN8U-unsplash.jpg,Stimuli/Experimental_stims/body_parts/wc-so-KH4AAPjb-tI-unsplash.jpg,0,0,828,0,unchosen,35,42,body_parts,objects,1600,0,9,3
147,59186,0,148,2,2,1,gain2,no_gain3,H,F,7,26,outdoor_scenes,body_parts,50,34,Stimuli/Experimental_stims/outdoor_scenes/petr-vysohlid-9fqwGqGLUxc-unsplash.jpg,Stimuli/Experimental_stims/body_parts/engin-akyurt-x_3gyC42btc-unsplash.jpg,0,1,674,1,chosen,7,26,outdoor_scenes,body_parts,2900,0,9,3
148,59186,0,149,3,3,0,no_gain1,gain2,G,H,40,15,objects,faces,35,28,Stimuli/Experimental_stims/objects/fabian-blank-pElSkGRA2NU-unsplash.jpg,Stimuli/Experimental_stims/faces/erik-lucatero-d2MSDujJl2g-unsplash.jpg,0,0,759,1,unchosen,15,40,faces,objects,2500,0,3,3
149,59186,0,150,3,3,0,no_gain2,gain5,I,A,4,5,outdoor_scenes,outdoor_scenes,58,68,Stimuli/Experimental_stims/outdoor_scenes/jarrett-kow-1ZOyYPOBn7I-unsplash.jpg,Stimuli/Experimental_stims/outdoor_scenes/jeff-king-bJHWJeiHfHc-unsplash.jpg,0,0,874,1,chosen,5,4,outdoor_scenes,outdoor_scenes,1500,0,3,3
150,59186,0,151,3,3,0,no_gain5,gain1,L,C,21,30,faces,body_parts,29,26,Stimuli/Experimental_stims/faces/leilani-angel-K84vnnzxmTQ-unsplash.jpg,Stimuli/Experimental_stims/body_parts/mika-korhonen-Xodzxosar18-unsplash.jpg,0,1,712,0,unchosen,21,30,faces,body_parts,1000,0,3,3
151,59186,0,152,3,3,1,gain3,no_gain3,K,F,44,17,objects,faces,27,43,Stimuli/Experimental_stims/objects/kuiye-chen-NuOGFo4PudE-unsplash.jpg,Stimuli/Experimental_stims/faces/good-faces-xmSWVeGEnJw-unsplash.jpg,0,0,666,0,unchosen,17,44,faces,objects,2000,0,3,3
152,59186,0,153,3,3,0,no_gain4,gain3,B,K,13,44,faces,objects,31,27,Stimuli/Experimental_stims/faces/daniel-rigdon-dXmXKPP2L4E-unsplash.jpg,Stimuli/Experimental_stims/objects/kuiye-chen-NuOGFo4PudE-unsplash.jpg,0,1,581,0,unchosen,13,44,faces,objects,1600,0,3,3
153,59186,0,154,3,3,0,no_gain6,gain5,J,A,23,5,faces,outdoor_scenes,27,68,Stimuli/Experimental_stims/faces/rikonavt-HQjfrvdTfak-unsplash.jpg,Stimuli/Experimental_stims/outdoor_scenes/jeff-king-bJHWJeiHfHc-unsplash.jpg,0,0,766,1,chosen,5,23,outdoor_scenes,faces,5000,1,3,3
154,59186,0,155,3,3,1,gain5,no_gain5,A,L,42,21,objects,faces,34,29,Stimuli/Experimental_stims/objects/jess-bailey-nOeVi8DsN8U-unsplash.jpg,Stimuli/Experimental_stims/faces/leilani-angel-K84vnnzxmTQ-unsplash.jpg,0,0,509,0,unchosen,21,42,faces,objects,1500,0,3,3
155,59186,0,156,3,3,0,no_gain4,gain4,B,E,11,34,outdoor_scenes,body_parts,66,36,Stimuli/Experimental_stims/outdoor_scenes/stephen-leonardi-gyIRjKPXupE-unsplash.jpg,Stimuli/Experimental_stims/body_parts/wagner-santos-mBWMvIuVnso-unsplash.jpg,0,0,677,1,chosen,34,11,body_parts,outdoor_scenes,1800,0,3,3
156,59186,0,157,3,3,0,no_gain6,gain1,J,C,23,9,faces,outdoor_scenes,27,36,Stimuli/Experimental_stims/faces/rikonavt-HQjfrvdTfak-unsplash.jpg,Stimuli/Experimental_stims/outdoor_scenes/sergey-pesterev-y-b_FOmJXdg-unsplash.jpg,0,1,664,0,chosen,23,9,faces,outdoor_scenes,1900,0,3,3
157,59186,0,158,3,3,1,gain6,no_gain5,D,L,47,21,objects,faces,26,29,Stimuli/Experimental_stims/objects/ronaldo-arthur-vidal-Cdz_lvnl37k-unsplash.jpg,Stimuli/Experimental_stims/faces/leilani-angel-K84vnnzxmTQ-unsplash.jpg,0,0,548,0,unchosen,21,47,faces,objects,2000,0,3,3
158,59186,0,159,3,3,1,gain1,no_gain5,C,L,9,32,outdoor_scenes,body_parts,36,35,Stimuli/Experimental_stims/outdoor_scenes/sergey-pesterev-y-b_FOmJXdg-unsplash.jpg,Stimuli/Experimental_stims/body_parts/towfiqu-barbhuiya-3AsiVDsZnHg-unsplash.jpg,0,1,709,1,chosen,9,32,outdoor_scenes,body_parts,1300,0,3,3
159,59186,0,160,3,3,0,no_gain5,gain4,L,E,32,34,body_parts,body_parts,35,36,Stimuli/Experimental_stims/body_parts/towfiqu-barbhuiya-3AsiVDsZnHg-unsplash.jpg,Stimuli/Experimental_stims/body_parts/wagner-santos-mBWMvIuVnso-unsplash.jpg,0,0,682,1,chosen,34,32,body_parts,body_parts,2700,0,3,3
160,59186,0,161,3,3,0,no_gain3,gain4,F,E,26,34,body_parts,body_parts,34,36,Stimuli/Experimental_stims/body_parts/engin-akyurt-x_3gyC42btc-unsplash.jpg,Stimuli/Experimental_stims/body_parts/wagner-santos-mBWMvIuVnso-unsplash.jpg,0,0,676,1,chosen,34,26,body_parts,body_parts,1600,0,3,3
161,59186,0,162,3,3,1,gain4,no_gain3,E,F,43,17,objects,faces,27,43,Stimuli/Experimental_stims/objects/jonathan-greenaway-Y4hGgeiFn3s-unsplash.jpg,Stimuli/Experimental_stims/faces/good-faces-xmSWVeGEnJw-unsplash.jpg,0,0,506,0,unchosen,17,43,faces,objects,4000,1,3,3
162,59186,0,163,3,3,0,no_gain1,gain3,G,K,2,29,outdoor_scenes,body_parts,75,52,Stimuli/Experimental_stims/outdoor_scenes/bruno-van-der-kraan-qez8mNJ3ilU-unsplash.jpg,Stimuli/Experimental_stims/body_parts/manuel-schinner-ZwjFuJ7ebpk-unsplash.jpg,0,0,683,1,chosen,29,2,body_parts,outdoor_scenes,1900,0,3,3
163,59186,0,164,3,3,0,no_gain4,gain5,B,A,13,42,faces,objects,31,34,Stimuli/Experimental_stims/faces/daniel-rigdon-dXmXKPP2L4E-unsplash.jpg,Stimuli/Experimental_stims/objects/jess-bailey-nOeVi8DsN8U-unsplash.jpg,1,NaN,,NaN,unchosen,NaN,NaN,NaN,NaN,1700,0,3,3
164,59186,0,165,3,3,0,no_gain6,gain4,J,E,23,34,faces,body_parts,27,36,Stimuli/Experimental_stims/faces/rikonavt-HQjfrvdTfak-unsplash.jpg,Stimuli/Experimental_stims/body_parts/wagner-santos-mBWMvIuVnso-unsplash.jpg,0,0,851,1,chosen,34,23,body_parts,faces,1800,0,3,3
165,59186,0,166,3,3,1,gain5,no_gain3,A,F,5,26,outdoor_scenes,body_parts,68,34,Stimuli/Experimental_stims/outdoor_scenes/jeff-king-bJHWJeiHfHc-unsplash.jpg,Stimuli/Experimental_stims/body_parts/engin-akyurt-x_3gyC42btc-unsplash.jpg,0,1,688,1,chosen,5,26,outdoor_scenes,body_parts,1500,0,3,3
166,59186,0,167,3,3,1,gain4,no_gain2,E,I,34,4,body_parts,outdoor_scenes,36,58,Stimuli/Experimental_stims/body_parts/wagner-santos-mBWMvIuVnso-unsplash.jpg,Stimuli/Experimental_stims/outdoor_scenes/jarrett-kow-1ZOyYPOBn7I-unsplash.jpg,0,1,748,1,chosen,34,4,body_parts,outdoor_scenes,2700,0,3,3
167,59186,0,168,3,3,0,no_gain6,gain6,J,D,39,47,objects,objects,25,26,Stimuli/Experimental_stims/objects/charlesdeluvio-1-nx1QR5dTE-unsplash.jpg,Stimuli/Experimental_stims/objects/ronaldo-arthur-vidal-Cdz_lvnl37k-unsplash.jpg,0,1,738,0,unchosen,39,47,objects,objects,3600,1,3,3
168,59186,0,169,3,3,0,no_gain2,gain6,I,D,4,16,outdoor_scenes,faces,58,52,Stimuli/Experimental_stims/outdoor_scenes/jarrett-kow-1ZOyYPOBn7I-unsplash.jpg,Stimuli/Experimental_stims/faces/freddy-kearney-o-ioeoATbIM-unsplash.jpg,0,0,515,1,chosen,16,4,faces,outdoor_scenes,2100,0,3,3
169,59186,0,170,3,3,1,gain5,no_gain6,A,J,42,39,objects,objects,34,25,Stimuli/Experimental_stims/objects/jess-bailey-nOeVi8DsN8U-unsplash.jpg,Stimuli/Experimental_stims/objects/charlesdeluvio-1-nx1QR5dTE-unsplash.jpg,0,0,793,0,unchosen,39,42,objects,objects,2300,0,3,3
170,59186,0,171,3,3,1,gain1,no_gain3,C,F,30,17,body_parts,faces,26,43,Stimuli/Experimental_stims/body_parts/mika-korhonen-Xodzxosar18-unsplash.jpg,Stimuli/Experimental_stims/faces/good-faces-xmSWVeGEnJw-unsplash.jpg,0,0,643,0,unchosen,17,30,faces,body_parts,1400,0,3,3
171,59186,0,172,3,3,1,gain3,no_gain3,K,F,29,26,body_parts,body_parts,52,34,Stimuli/Experimental_stims/body_parts/manuel-schinner-ZwjFuJ7ebpk-unsplash.jpg,Stimuli/Experimental_stims/body_parts/engin-akyurt-x_3gyC42btc-unsplash.jpg,0,1,947,1,chosen,29,26,body_parts,body_parts,1200,0,3,3
172,59186,0,173,3,3,1,gain2,no_gain6,H,J,7,23,outdoor_scenes,faces,50,27,Stimuli/Experimental_stims/outdoor_scenes/petr-vysohlid-9fqwGqGLUxc-unsplash.jpg,Stimuli/Experimental_stims/faces/rikonavt-HQjfrvdTfak-unsplash.jpg,0,0,541,0,chosen,23,7,faces,outdoor_scenes,1900,0,3,3
173,59186,0,174,3,3,0,no_gain2,gain4,I,E,35,43,body_parts,objects,22,27,Stimuli/Experimental_stims/body_parts/wc-so-KH4AAPjb-tI-unsplash.jpg,Stimuli/Experimental_stims/objects/jonathan-greenaway-Y4hGgeiFn3s-unsplash.jpg,0,1,643,0,unchosen,35,43,body_parts,objects,1800,0,3,3
174,59186,0,175,3,3,1,gain6,no_gain6,D,J,16,23,faces,faces,52,27,Stimuli/Experimental_stims/faces/freddy-kearney-o-ioeoATbIM-unsplash.jpg,Stimuli/Experimental_stims/faces/rikonavt-HQjfrvdTfak-unsplash.jpg,0,1,747,1,chosen,16,23,faces,faces,4100,1,3,3
175,59186,0,176,3,3,0,no_gain5,gain6,L,D,32,16,body_parts,faces,35,52,Stimuli/Experimental_stims/body_parts/towfiqu-barbhuiya-3AsiVDsZnHg-unsplash.jpg,Stimuli/Experimental_stims/faces/freddy-kearney-o-ioeoATbIM-unsplash.jpg,0,0,605,1,chosen,16,32,faces,body_parts,1400,0,3,3
176,59186,0,177,3,3,0,no_gain2,gain6,I,D,35,47,body_parts,objects,22,26,Stimuli/Experimental_stims/body_parts/wc-so-KH4AAPjb-tI-unsplash.jpg,Stimuli/Experimental_stims/objects/ronaldo-arthur-vidal-Cdz_lvnl37k-unsplash.jpg,0,1,687,0,unchosen,35,47,body_parts,objects,2200,0,3,3
177,59186,0,178,3,3,1,gain1,no_gain2,C,I,30,35,body_parts,body_parts,26,22,Stimuli/Experimental_stims/body_parts/mika-korhonen-Xodzxosar18-unsplash.jpg,Stimuli/Experimental_stims/body_parts/wc-so-KH4AAPjb-tI-unsplash.jpg,0,1,818,1,unchosen,30,35,body_parts,body_parts,1400,0,3,3
178,59186,0,179,3,3,1,gain3,no_gain2,K,I,29,4,body_parts,outdoor_scenes,52,58,Stimuli/Experimental_stims/body_parts/manuel-schinner-ZwjFuJ7ebpk-unsplash.jpg,Stimuli/Experimental_stims/outdoor_scenes/jarrett-kow-1ZOyYPOBn7I-unsplash.jpg,0,0,646,0,chosen,4,29,outdoor_scenes,body_parts,1100,0,3,3
179,59186,0,180,3,3,1,gain4,no_gain1,E,G,34,2,body_parts,outdoor_scenes,36,75,Stimuli/Experimental_stims/body_parts/wagner-santos-mBWMvIuVnso-unsplash.jpg,Stimuli/Experimental_stims/outdoor_scenes/bruno-van-der-kraan-qez8mNJ3ilU-unsplash.jpg,0,1,579,1,chosen,34,2,body_parts,outdoor_scenes,1400,0,3,3
180,59186,0,181,3,3,1,gain1,no_gain4,C,B,30,13,body_parts,faces,26,31,Stimuli/Experimental_stims/body_parts/mika-korhonen-Xodzxosar18-unsplash.jpg,Stimuli/Experimental_stims/faces/daniel-rigdon-dXmXKPP2L4E-unsplash.jpg,0,0,749,0,unchosen,13,30,faces,body_parts,1700,0,3,3
181,59186,0,182,3,3,1,gain1,no_gain4,C,B,9,11,outdoor_scenes,outdoor_scenes,36,66,Stimuli/Experimental_stims/outdoor_scenes/sergey-pesterev-y-b_FOmJXdg-unsplash.jpg,Stimuli/Experimental_stims/outdoor_scenes/stephen-leonardi-gyIRjKPXupE-unsplash.jpg,0,1,817,1,chosen,9,11,outdoor_scenes,outdoor_scenes,3400,1,3,3
182,59186,0,183,3,3,1,gain3,no_gain5,K,L,29,32,body_parts,body_parts,52,35,Stimuli/Experimental_stims/body_parts/manuel-schinner-ZwjFuJ7ebpk-unsplash.jpg,Stimuli/Experimental_stims/body_parts/towfiqu-barbhuiya-3AsiVDsZnHg-unsplash.jpg,0,1,810,1,chosen,29,32,body_parts,body_parts,1000,0,3,3
183,59186,0,184,3,3,1,gain1,no_gain6,C,J,30,39,body_parts,objects,26,25,Stimuli/Experimental_stims/body_parts/mika-korhonen-Xodzxosar18-unsplash.jpg,Stimuli/Experimental_stims/objects/charlesdeluvio-1-nx1QR5dTE-unsplash.jpg,0,1,979,1,unchosen,30,39,body_parts,objects,1200,0,3,3
184,59186,0,185,3,3,0,no_gain5,gain4,L,E,21,43,faces,objects,29,27,Stimuli/Experimental_stims/faces/leilani-angel-K84vnnzxmTQ-unsplash.jpg,Stimuli/Experimental_stims/objects/jonathan-greenaway-Y4hGgeiFn3s-unsplash.jpg,0,1,601,0,unchosen,21,43,faces,objects,1200,0,3,3
185,59186,0,186,3,3,0,no_gain1,gain2,G,H,2,7,outdoor_scenes,outdoor_scenes,75,50,Stimuli/Experimental_stims/outdoor_scenes/bruno-van-der-kraan-qez8mNJ3ilU-unsplash.jpg,Stimuli/Experimental_stims/outdoor_scenes/petr-vysohlid-9fqwGqGLUxc-unsplash.jpg,0,0,1234,1,chosen,7,2,outdoor_scenes,outdoor_scenes,2800,0,3,3
186,59186,0,187,3,3,0,no_gain1,gain4,G,E,40,43,objects,objects,35,27,Stimuli/Experimental_stims/objects/fabian-blank-pElSkGRA2NU-unsplash.jpg,Stimuli/Experimental_stims/objects/jonathan-greenaway-Y4hGgeiFn3s-unsplash.jpg,0,1,696,0,unchosen,40,43,objects,objects,1200,0,3,3
187,59186,0,188,3,3,0,no_gain6,gain3,J,K,23,29,faces,body_parts,27,52,Stimuli/Experimental_stims/faces/rikonavt-HQjfrvdTfak-unsplash.jpg,Stimuli/Experimental_stims/body_parts/manuel-schinner-ZwjFuJ7ebpk-unsplash.jpg,0,0,740,1,chosen,29,23,body_parts,faces,1200,0,3,3
188,59186,0,189,3,3,1,gain2,no_gain2,H,I,7,4,outdoor_scenes,outdoor_scenes,50,58,Stimuli/Experimental_stims/outdoor_scenes/petr-vysohlid-9fqwGqGLUxc-unsplash.jpg,Stimuli/Experimental_stims/outdoor_scenes/jarrett-kow-1ZOyYPOBn7I-unsplash.jpg,0,1,820,1,chosen,7,4,outdoor_scenes,outdoor_scenes,2100,0,3,3
189,59186,0,190,3,3,1,gain2,no_gain6,H,J,15,39,faces,objects,28,25,Stimuli/Experimental_stims/faces/erik-lucatero-d2MSDujJl2g-unsplash.jpg,Stimuli/Experimental_stims/objects/charlesdeluvio-1-nx1QR5dTE-unsplash.jpg,0,1,653,1,unchosen,15,39,faces,objects,3800,1,3,3
190,59186,0,191,3,3,0,no_gain3,gain2,F,H,26,7,body_parts,outdoor_scenes,34,50,Stimuli/Experimental_stims/body_parts/engin-akyurt-x_3gyC42btc-unsplash.jpg,Stimuli/Experimental_stims/outdoor_scenes/petr-vysohlid-9fqwGqGLUxc-unsplash.jpg,0,0,664,1,chosen,7,26,outdoor_scenes,body_parts,2200,0,3,3
191,59186,0,192,3,3,1,gain4,no_gain4,E,B,43,13,objects,faces,27,31,Stimuli/Experimental_stims/objects/jonathan-greenaway-Y4hGgeiFn3s-unsplash.jpg,Stimuli/Experimental_stims/faces/daniel-rigdon-dXmXKPP2L4E-unsplash.jpg,0,0,708,0,unchosen,13,43,faces,objects,2500,0,3,3
192,59186,0,193,3,3,1,gain2,no_gain5,H,L,7,32,outdoor_scenes,body_parts,50,35,Stimuli/Experimental_stims/outdoor_scenes/petr-vysohlid-9fqwGqGLUxc-unsplash.jpg,Stimuli/Experimental_stims/body_parts/towfiqu-barbhuiya-3AsiVDsZnHg-unsplash.jpg,0,1,588,1,chosen,7,32,outdoor_scenes,body_parts,1100,0,3,3
193,59186,0,194,3,3,1,gain3,no_gain1,K,G,44,40,objects,objects,27,35,Stimuli/Experimental_stims/objects/kuiye-chen-NuOGFo4PudE-unsplash.jpg,Stimuli/Experimental_stims/objects/fabian-blank-pElSkGRA2NU-unsplash.jpg,0,0,547,0,unchosen,40,44,objects,objects,1800,0,3,3
194,59186,0,195,3,3,1,gain3,no_gain6,K,J,44,39,objects,objects,27,25,Stimuli/Experimental_stims/objects/kuiye-chen-NuOGFo4PudE-unsplash.jpg,Stimuli/Experimental_stims/objects/charlesdeluvio-1-nx1QR5dTE-unsplash.jpg,0,0,707,0,unchosen,39,44,objects,objects,3600,1,3,3
195,59186,0,196,3,3,1,gain4,no_gain6,E,J,43,39,objects,objects,27,25,Stimuli/Experimental_stims/objects/jonathan-greenaway-Y4hGgeiFn3s-unsplash.jpg,Stimuli/Experimental_stims/objects/charlesdeluvio-1-nx1QR5dTE-unsplash.jpg,0,1,819,1,unchosen,43,39,objects,objects,2400,0,3,3
196,59186,0,197,3,3,1,gain1,no_gain1,C,G,9,2,outdoor_scenes,outdoor_scenes,36,75,Stimuli/Experimental_stims/outdoor_scenes/sergey-pesterev-y-b_FOmJXdg-unsplash.jpg,Stimuli/Experimental_stims/outdoor_scenes/bruno-van-der-kraan-qez8mNJ3ilU-unsplash.jpg,0,1,984,1,chosen,9,2,outdoor_scenes,outdoor_scenes,2400,0,3,3
197,59186,0,198,3,3,0,no_gain3,gain2,F,H,17,15,faces,faces,43,28,Stimuli/Experimental_stims/faces/good-faces-xmSWVeGEnJw-unsplash.jpg,Stimuli/Experimental_stims/faces/erik-lucatero-d2MSDujJl2g-unsplash.jpg,0,1,645,0,unchosen,17,15,faces,faces,2200,0,3,3
198,59186,0,199,3,3,1,gain1,no_gain2,C,I,9,4,outdoor_scenes,outdoor_scenes,36,58,Stimuli/Experimental_stims/outdoor_scenes/sergey-pesterev-y-b_FOmJXdg-unsplash.jpg,Stimuli/Experimental_stims/outdoor_scenes/jarrett-kow-1ZOyYPOBn7I-unsplash.jpg,0,1,853,1,chosen,9,4,outdoor_scenes,outdoor_scenes,2800,0,3,3
199,59186,0,200,3,3,0,no_gain2,gain3,I,K,35,44,body_parts,objects,22,27,Stimuli/Experimental_stims/body_parts/wc-so-KH4AAPjb-tI-unsplash.jpg,Stimuli/Experimental_stims/objects/kuiye-chen-NuOGFo4PudE-unsplash.jpg,0,1,700,0,unchosen,35,44,body_parts,objects,1700,0,3,3
200,59186,0,201,3,3,0,no_gain1,gain6,G,D,40,47,objects,objects,35,26,Stimuli/Experimental_stims/objects/fabian-blank-pElSkGRA2NU-unsplash.jpg,Stimuli/Experimental_stims/objects/ronaldo-arthur-vidal-Cdz_lvnl37k-unsplash.jpg,0,1,620,0,unchosen,40,47,objects,objects,1100,0,3,3
201,59186,0,202,3,3,0,no_gain4,gain3,B,K,11,29,outdoor_scenes,body_parts,66,52,Stimuli/Experimental_stims/outdoor_scenes/stephen-leonardi-gyIRjKPXupE-unsplash.jpg,Stimuli/Experimental_stims/body_parts/manuel-schinner-ZwjFuJ7ebpk-unsplash.jpg,0,0,749,1,chosen,29,11,body_parts,outdoor_scenes,1200,0,3,3
202,59186,0,203,3,3,0,no_gain3,gain5,F,A,17,42,faces,objects,43,34,Stimuli/Experimental_stims/faces/good-faces-xmSWVeGEnJw-unsplash.jpg,Stimuli/Experimental_stims/objects/jess-bailey-nOeVi8DsN8U-unsplash.jpg,0,1,603,0,unchosen,17,42,faces,objects,2700,0,3,3
203,59186,0,204,3,3,0,no_gain1,gain1,G,C,40,30,objects,body_parts,35,26,Stimuli/Experimental_stims/objects/fabian-blank-pElSkGRA2NU-unsplash.jpg,Stimuli/Experimental_stims/body_parts/mika-korhonen-Xodzxosar18-unsplash.jpg,0,1,614,0,unchosen,40,30,objects,body_parts,1100,0,3,3
204,59186,0,205,3,3,1,gain5,no_gain5,A,L,5,32,outdoor_scenes,body_parts,68,35,Stimuli/Experimental_stims/outdoor_scenes/jeff-king-bJHWJeiHfHc-unsplash.jpg,Stimuli/Experimental_stims/body_parts/towfiqu-barbhuiya-3AsiVDsZnHg-unsplash.jpg,0,1,629,1,chosen,5,32,outdoor_scenes,body_parts,1100,0,3,3
205,59186,0,206,3,3,0,no_gain4,gain6,B,D,11,16,outdoor_scenes,faces,66,52,Stimuli/Experimental_stims/outdoor_scenes/stephen-leonardi-gyIRjKPXupE-unsplash.jpg,Stimuli/Experimental_stims/faces/freddy-kearney-o-ioeoATbIM-unsplash.jpg,0,0,692,1,chosen,16,11,faces,outdoor_scenes,1500,0,3,3
206,59186,0,207,3,3,0,no_gain5,gain3,L,K,21,44,faces,objects,29,27,Stimuli/Experimental_stims/faces/leilani-angel-K84vnnzxmTQ-unsplash.jpg,Stimuli/Experimental_stims/objects/kuiye-chen-NuOGFo4PudE-unsplash.jpg,0,1,464,0,unchosen,21,44,faces,objects,1600,0,3,3
207,59186,0,208,3,3,0,no_gain1,gain5,G,A,2,5,outdoor_scenes,outdoor_scenes,75,68,Stimuli/Experimental_stims/outdoor_scenes/bruno-van-der-kraan-qez8mNJ3ilU-unsplash.jpg,Stimuli/Experimental_stims/outdoor_scenes/jeff-king-bJHWJeiHfHc-unsplash.jpg,0,1,645,0,chosen,2,5,outdoor_scenes,outdoor_scenes,1500,0,3,3
208,59186,0,209,3,3,1,gain1,no_gain3,C,F,9,26,outdoor_scenes,body_parts,36,34,Stimuli/Experimental_stims/outdoor_scenes/sergey-pesterev-y-b_FOmJXdg-unsplash.jpg,Stimuli/Experimental_stims/body_parts/engin-akyurt-x_3gyC42btc-unsplash.jpg,0,1,666,1,chosen,9,26,outdoor_scenes,body_parts,2800,0,3,3
209,59186,0,210,3,3,1,gain6,no_gain3,D,F,16,26,faces,body_parts,52,34,Stimuli/Experimental_stims/faces/freddy-kearney-o-ioeoATbIM-unsplash.jpg,Stimuli/Experimental_stims/body_parts/engin-akyurt-x_3gyC42btc-unsplash.jpg,0,1,566,1,chosen,16,26,faces,body_parts,3400,1,3,3
210,59186,0,211,3,3,1,gain2,no_gain4,H,B,15,13,faces,faces,28,31,Stimuli/Experimental_stims/faces/erik-lucatero-d2MSDujJl2g-unsplash.jpg,Stimuli/Experimental_stims/faces/daniel-rigdon-dXmXKPP2L4E-unsplash.jpg,0,1,573,1,unchosen,15,13,faces,faces,1500,0,3,3
211,59186,0,212,3,3,1,gain2,no_gain2,H,I,15,35,faces,body_parts,28,22,Stimuli/Experimental_stims/faces/erik-lucatero-d2MSDujJl2g-unsplash.jpg,Stimuli/Experimental_stims/body_parts/wc-so-KH4AAPjb-tI-unsplash.jpg,0,1,588,1,unchosen,15,35,faces,body_parts,1500,0,3,3
212,59186,0,213,3,3,1,gain6,no_gain1,D,G,16,2,faces,outdoor_scenes,52,75,Stimuli/Experimental_stims/faces/freddy-kearney-o-ioeoATbIM-unsplash.jpg,Stimuli/Experimental_stims/outdoor_scenes/bruno-van-der-kraan-qez8mNJ3ilU-unsplash.jpg,0,1,534,1,chosen,16,2,faces,outdoor_scenes,1500,0,3,3
213,59186,0,214,3,3,0,no_gain5,gain2,L,H,21,15,faces,faces,29,28,Stimuli/Experimental_stims/faces/leilani-angel-K84vnnzxmTQ-unsplash.jpg,Stimuli/Experimental_stims/faces/erik-lucatero-d2MSDujJl2g-unsplash.jpg,0,1,667,0,unchosen,21,15,faces,faces,1200,0,3,3
214,59186,0,215,3,3,0,no_gain4,gain5,B,A,11,5,outdoor_scenes,outdoor_scenes,66,68,Stimuli/Experimental_stims/outdoor_scenes/stephen-leonardi-gyIRjKPXupE-unsplash.jpg,Stimuli/Experimental_stims/outdoor_scenes/jeff-king-bJHWJeiHfHc-unsplash.jpg,0,1,711,0,chosen,11,5,outdoor_scenes,outdoor_scenes,1900,0,3,3
215,59186,0,216,3,3,1,gain6,no_gain4,D,B,47,13,objects,faces,26,31,Stimuli/Experimental_stims/objects/ronaldo-arthur-vidal-Cdz_lvnl37k-unsplash.jpg,Stimuli/Experimental_stims/faces/daniel-rigdon-dXmXKPP2L4E-unsplash.jpg,0,0,591,0,unchosen,13,47,faces,objects,3600,1,3,3
216,59186,0,217,3,3,0,no_gain2,gain5,I,A,35,42,body_parts,objects,22,34,Stimuli/Experimental_stims/body_parts/wc-so-KH4AAPjb-tI-unsplash.jpg,Stimuli/Experimental_stims/objects/jess-bailey-nOeVi8DsN8U-unsplash.jpg,0,1,636,0,unchosen,35,42,body_parts,objects,2500,0,3,3
217,59186,0,218,3,3,0,no_gain4,gain2,B,H,11,7,outdoor_scenes,outdoor_scenes,66,50,Stimuli/Experimental_stims/outdoor_scenes/stephen-leonardi-gyIRjKPXupE-unsplash.jpg,Stimuli/Experimental_stims/outdoor_scenes/petr-vysohlid-9fqwGqGLUxc-unsplash.jpg,0,0,781,1,chosen,7,11,outdoor_scenes,outdoor_scenes,1600,0,3,3
218,59186,0,219,3,3,1,gain6,no_gain3,D,F,47,17,objects,faces,26,43,Stimuli/Experimental_stims/objects/ronaldo-arthur-vidal-Cdz_lvnl37k-unsplash.jpg,Stimuli/Experimental_stims/faces/good-faces-xmSWVeGEnJw-unsplash.jpg,0,0,624,0,unchosen,17,47,faces,objects,1200,0,3,3
219,59186,0,220,3,3,0,no_gain1,gain5,G,A,40,42,objects,objects,35,34,Stimuli/Experimental_stims/objects/fabian-blank-pElSkGRA2NU-unsplash.jpg,Stimuli/Experimental_stims/objects/jess-bailey-nOeVi8DsN8U-unsplash.jpg,0,1,844,0,unchosen,40,42,objects,objects,1300,0,3,3
220,59186,0,221,4,4,0,no_gain6,gain5,J,A,39,42,objects,objects,25,34,Stimuli/Experimental_stims/objects/charlesdeluvio-1-nx1QR5dTE-unsplash.jpg,Stimuli/Experimental_stims/objects/jess-bailey-nOeVi8DsN8U-unsplash.jpg,0,1,664,0,unchosen,39,42,objects,objects,3300,1,1,3
221,59186,0,222,4,4,0,no_gain4,gain5,B,A,13,42,faces,objects,31,34,Stimuli/Experimental_stims/faces/daniel-rigdon-dXmXKPP2L4E-unsplash.jpg,Stimuli/Experimental_stims/objects/jess-bailey-nOeVi8DsN8U-unsplash.jpg,0,1,693,0,unchosen,13,42,faces,objects,1400,0,1,3
222,59186,0,223,4,4,1,gain5,no_gain5,A,L,5,32,outdoor_scenes,body_parts,68,35,Stimuli/Experimental_stims/outdoor_scenes/jeff-king-bJHWJeiHfHc-unsplash.jpg,Stimuli/Experimental_stims/body_parts/towfiqu-barbhuiya-3AsiVDsZnHg-unsplash.jpg,0,1,515,1,chosen,5,32,outdoor_scenes,body_parts,2400,0,1,3
223,59186,0,224,4,4,0,no_gain3,gain4,F,E,26,34,body_parts,body_parts,34,36,Stimuli/Experimental_stims/body_parts/engin-akyurt-x_3gyC42btc-unsplash.jpg,Stimuli/Experimental_stims/body_parts/wagner-santos-mBWMvIuVnso-unsplash.jpg,0,1,466,0,chosen,26,34,body_parts,body_parts,1200,0,1,3
224,59186,0,225,4,4,1,gain4,no_gain1,E,G,43,40,objects,objects,27,35,Stimuli/Experimental_stims/objects/jonathan-greenaway-Y4hGgeiFn3s-unsplash.jpg,Stimuli/Experimental_stims/objects/fabian-blank-pElSkGRA2NU-unsplash.jpg,0,1,1205,1,unchosen,43,40,objects,objects,1100,0,1,3
225,59186,0,226,4,4,0,no_gain1,gain1,G,C,40,30,objects,body_parts,35,26,Stimuli/Experimental_stims/objects/fabian-blank-pElSkGRA2NU-unsplash.jpg,Stimuli/Experimental_stims/body_parts/mika-korhonen-Xodzxosar18-unsplash.jpg,0,1,760,0,unchosen,40,30,objects,body_parts,1600,0,1,3
226,59186,0,227,4,4,1,gain6,no_gain3,D,F,47,17,objects,faces,26,43,Stimuli/Experimental_stims/objects/ronaldo-arthur-vidal-Cdz_lvnl37k-unsplash.jpg,Stimuli/Experimental_stims/faces/good-faces-xmSWVeGEnJw-unsplash.jpg,0,0,470,0,unchosen,17,47,faces,objects,3100,1,1,3
227,59186,0,228,4,4,0,no_gain2,gain4,I,E,4,34,outdoor_scenes,body_parts,58,36,Stimuli/Experimental_stims/outdoor_scenes/jarrett-kow-1ZOyYPOBn7I-unsplash.jpg,Stimuli/Experimental_stims/body_parts/wagner-santos-mBWMvIuVnso-unsplash.jpg,0,0,737,1,chosen,34,4,body_parts,outdoor_scenes,1000,0,1,3
228,59186,0,229,4,4,1,gain6,no_gain5,D,L,16,32,faces,body_parts,52,35,Stimuli/Experimental_stims/faces/freddy-kearney-o-ioeoATbIM-unsplash.jpg,Stimuli/Experimental_stims/body_parts/towfiqu-barbhuiya-3AsiVDsZnHg-unsplash.jpg,0,1,638,1,chosen,16,32,faces,body_parts,3000,0,1,3
229,59186,0,230,4,4,0,no_gain4,gain5,B,A,11,5,outdoor_scenes,outdoor_scenes,66,68,Stimuli/Experimental_stims/outdoor_scenes/stephen-leonardi-gyIRjKPXupE-unsplash.jpg,Stimuli/Experimental_stims/outdoor_scenes/jeff-king-bJHWJeiHfHc-unsplash.jpg,0,0,932,1,chosen,5,11,outdoor_scenes,outdoor_scenes,1700,0,1,3
230,59186,0,231,4,4,1,gain1,no_gain4,C,B,30,13,body_parts,faces,26,31,Stimuli/Experimental_stims/body_parts/mika-korhonen-Xodzxosar18-unsplash.jpg,Stimuli/Experimental_stims/faces/daniel-rigdon-dXmXKPP2L4E-unsplash.jpg,0,0,670,0,unchosen,13,30,faces,body_parts,2400,0,1,3
231,59186,0,232,4,4,0,no_gain6,gain2,J,H,23,7,faces,outdoor_scenes,27,50,Stimuli/Experimental_stims/faces/rikonavt-HQjfrvdTfak-unsplash.jpg,Stimuli/Experimental_stims/outdoor_scenes/petr-vysohlid-9fqwGqGLUxc-unsplash.jpg,0,1,495,0,chosen,23,7,faces,outdoor_scenes,4000,1,1,3
232,59186,0,233,4,4,0,no_gain6,gain1,J,C,39,30,objects,body_parts,25,26,Stimuli/Experimental_stims/objects/charlesdeluvio-1-nx1QR5dTE-unsplash.jpg,Stimuli/Experimental_stims/body_parts/mika-korhonen-Xodzxosar18-unsplash.jpg,0,0,855,1,unchosen,30,39,body_parts,objects,1900,0,1,3
233,59186,0,234,4,4,1,gain3,no_gain4,K,B,29,11,body_parts,outdoor_scenes,52,66,Stimuli/Experimental_stims/body_parts/manuel-schinner-ZwjFuJ7ebpk-unsplash.jpg,Stimuli/Experimental_stims/outdoor_scenes/stephen-leonardi-gyIRjKPXupE-unsplash.jpg,0,1,715,1,chosen,29,11,body_parts,outdoor_scenes,1100,0,1,3
234,59186,0,235,4,4,1,gain5,no_gain1,A,G,42,40,objects,objects,34,35,Stimuli/Experimental_stims/objects/jess-bailey-nOeVi8DsN8U-unsplash.jpg,Stimuli/Experimental_stims/objects/fabian-blank-pElSkGRA2NU-unsplash.jpg,0,0,833,0,unchosen,40,42,objects,objects,1300,0,1,3
235,59186,0,236,4,4,0,no_gain4,gain4,B,E,11,34,outdoor_scenes,body_parts,66,36,Stimuli/Experimental_stims/outdoor_scenes/stephen-leonardi-gyIRjKPXupE-unsplash.jpg,Stimuli/Experimental_stims/body_parts/wagner-santos-mBWMvIuVnso-unsplash.jpg,0,0,904,1,chosen,34,11,body_parts,outdoor_scenes,1900,0,1,3
236,59186,0,237,4,4,1,gain4,no_gain4,E,B,43,13,objects,faces,27,31,Stimuli/Experimental_stims/objects/jonathan-greenaway-Y4hGgeiFn3s-unsplash.jpg,Stimuli/Experimental_stims/faces/daniel-rigdon-dXmXKPP2L4E-unsplash.jpg,0,0,550,0,unchosen,13,43,faces,objects,1800,0,1,3
237,59186,0,238,4,4,1,gain4,no_gain5,E,L,43,21,objects,faces,27,29,Stimuli/Experimental_stims/objects/jonathan-greenaway-Y4hGgeiFn3s-unsplash.jpg,Stimuli/Experimental_stims/faces/leilani-angel-K84vnnzxmTQ-unsplash.jpg,0,0,584,0,unchosen,21,43,faces,objects,4300,1,1,3
238,59186,0,239,4,4,1,gain5,no_gain5,A,L,42,21,objects,faces,34,29,Stimuli/Experimental_stims/objects/jess-bailey-nOeVi8DsN8U-unsplash.jpg,Stimuli/Experimental_stims/faces/leilani-angel-K84vnnzxmTQ-unsplash.jpg,0,0,518,0,unchosen,21,42,faces,objects,2300,0,1,3
239,59186,0,240,4,4,1,gain3,no_gain2,K,I,29,4,body_parts,outdoor_scenes,52,58,Stimuli/Experimental_stims/body_parts/manuel-schinner-ZwjFuJ7ebpk-unsplash.jpg,Stimuli/Experimental_stims/outdoor_scenes/jarrett-kow-1ZOyYPOBn7I-unsplash.jpg,0,1,718,1,chosen,29,4,body_parts,outdoor_scenes,1200,0,1,3
240,59186,0,241,4,4,0,no_gain4,gain2,B,H,11,7,outdoor_scenes,outdoor_scenes,66,50,Stimuli/Experimental_stims/outdoor_scenes/stephen-leonardi-gyIRjKPXupE-unsplash.jpg,Stimuli/Experimental_stims/outdoor_scenes/petr-vysohlid-9fqwGqGLUxc-unsplash.jpg,0,0,933,1,chosen,7,11,outdoor_scenes,outdoor_scenes,1300,0,1,3
241,59186,0,242,4,4,0,no_gain3,gain1,F,C,17,30,faces,body_parts,43,26,Stimuli/Experimental_stims/faces/good-faces-xmSWVeGEnJw-unsplash.jpg,Stimuli/Experimental_stims/body_parts/mika-korhonen-Xodzxosar18-unsplash.jpg,0,1,623,0,unchosen,17,30,faces,body_parts,1900,0,1,3
242,59186,0,243,4,4,1,gain3,no_gain6,K,J,44,39,objects,objects,27,25,Stimuli/Experimental_stims/objects/kuiye-chen-NuOGFo4PudE-unsplash.jpg,Stimuli/Experimental_stims/objects/charlesdeluvio-1-nx1QR5dTE-unsplash.jpg,0,0,812,0,unchosen,39,44,objects,objects,1300,0,1,3
243,59186,0,244,4,4,1,gain4,no_gain1,E,G,34,2,body_parts,outdoor_scenes,36,75,Stimuli/Experimental_stims/body_parts/wagner-santos-mBWMvIuVnso-unsplash.jpg,Stimuli/Experimental_stims/outdoor_scenes/bruno-van-der-kraan-qez8mNJ3ilU-unsplash.jpg,0,1,786,1,chosen,34,2,body_parts,outdoor_scenes,4200,1,1,3
244,59186,0,245,4,4,0,no_gain2,gain5,I,A,35,42,body_parts,objects,22,34,Stimuli/Experimental_stims/body_parts/wc-so-KH4AAPjb-tI-unsplash.jpg,Stimuli/Experimental_stims/objects/jess-bailey-nOeVi8DsN8U-unsplash.jpg,0,1,552,0,unchosen,35,42,body_parts,objects,2400,0,1,3
245,59186,0,246,4,4,1,gain2,no_gain2,H,I,7,4,outdoor_scenes,outdoor_scenes,50,58,Stimuli/Experimental_stims/outdoor_scenes/petr-vysohlid-9fqwGqGLUxc-unsplash.jpg,Stimuli/Experimental_stims/outdoor_scenes/jarrett-kow-1ZOyYPOBn7I-unsplash.jpg,0,1,921,1,chosen,7,4,outdoor_scenes,outdoor_scenes,1700,0,1,3
246,59186,0,247,4,4,0,no_gain1,gain5,G,A,2,5,outdoor_scenes,outdoor_scenes,75,68,Stimuli/Experimental_stims/outdoor_scenes/bruno-van-der-kraan-qez8mNJ3ilU-unsplash.jpg,Stimuli/Experimental_stims/outdoor_scenes/jeff-king-bJHWJeiHfHc-unsplash.jpg,0,0,839,1,chosen,5,2,outdoor_scenes,outdoor_scenes,1600,0,1,3
247,59186,0,248,4,4,1,gain3,no_gain5,K,L,44,21,objects,faces,27,29,Stimuli/Experimental_stims/objects/kuiye-chen-NuOGFo4PudE-unsplash.jpg,Stimuli/Experimental_stims/faces/leilani-angel-K84vnnzxmTQ-unsplash.jpg,0,0,588,0,unchosen,21,44,faces,objects,1100,0,1,3
248,59186,0,249,4,4,0,no_gain2,gain1,I,C,35,30,body_parts,body_parts,22,26,Stimuli/Experimental_stims/body_parts/wc-so-KH4AAPjb-tI-unsplash.jpg,Stimuli/Experimental_stims/body_parts/mika-korhonen-Xodzxosar18-unsplash.jpg,0,1,660,0,unchosen,35,30,body_parts,body_parts,1200,0,1,3
249,59186,0,250,4,4,1,gain6,no_gain3,D,F,16,26,faces,body_parts,52,34,Stimuli/Experimental_stims/faces/freddy-kearney-o-ioeoATbIM-unsplash.jpg,Stimuli/Experimental_stims/body_parts/engin-akyurt-x_3gyC42btc-unsplash.jpg,0,1,552,1,chosen,16,26,faces,body_parts,3100,1,1,3
250,59186,0,251,4,4,1,gain3,no_gain6,K,J,29,23,body_parts,faces,52,27,Stimuli/Experimental_stims/body_parts/manuel-schinner-ZwjFuJ7ebpk-unsplash.jpg,Stimuli/Experimental_stims/faces/rikonavt-HQjfrvdTfak-unsplash.jpg,0,0,534,0,chosen,23,29,faces,body_parts,2600,0,1,3
251,59186,0,252,4,4,0,no_gain1,gain6,G,D,40,47,objects,objects,35,26,Stimuli/Experimental_stims/objects/fabian-blank-pElSkGRA2NU-unsplash.jpg,Stimuli/Experimental_stims/objects/ronaldo-arthur-vidal-Cdz_lvnl37k-unsplash.jpg,0,1,599,0,unchosen,40,47,objects,objects,2400,0,1,3
252,59186,0,253,4,4,1,gain2,no_gain3,H,F,15,17,faces,faces,28,43,Stimuli/Experimental_stims/faces/erik-lucatero-d2MSDujJl2g-unsplash.jpg,Stimuli/Experimental_stims/faces/good-faces-xmSWVeGEnJw-unsplash.jpg,0,1,976,1,unchosen,15,17,faces,faces,1000,0,1,3
253,59186,0,254,4,4,0,no_gain6,gain4,J,E,23,34,faces,body_parts,27,36,Stimuli/Experimental_stims/faces/rikonavt-HQjfrvdTfak-unsplash.jpg,Stimuli/Experimental_stims/body_parts/wagner-santos-mBWMvIuVnso-unsplash.jpg,0,0,723,1,chosen,34,23,body_parts,faces,3000,0,1,3
254,59186,0,255,4,4,0,no_gain4,gain1,B,C,11,9,outdoor_scenes,outdoor_scenes,66,36,Stimuli/Experimental_stims/outdoor_scenes/stephen-leonardi-gyIRjKPXupE-unsplash.jpg,Stimuli/Experimental_stims/outdoor_scenes/sergey-pesterev-y-b_FOmJXdg-unsplash.jpg,0,0,847,1,chosen,9,11,outdoor_scenes,outdoor_scenes,2400,0,1,3
255,59186,0,256,4,4,0,no_gain2,gain3,I,K,35,44,body_parts,objects,22,27,Stimuli/Experimental_stims/body_parts/wc-so-KH4AAPjb-tI-unsplash.jpg,Stimuli/Experimental_stims/objects/kuiye-chen-NuOGFo4PudE-unsplash.jpg,0,1,699,0,unchosen,35,44,body_parts,objects,2300,0,1,3
256,59186,0,257,4,4,1,gain3,no_gain3,K,F,29,26,body_parts,body_parts,52,34,Stimuli/Experimental_stims/body_parts/manuel-schinner-ZwjFuJ7ebpk-unsplash.jpg,Stimuli/Experimental_stims/body_parts/engin-akyurt-x_3gyC42btc-unsplash.jpg,0,1,609,1,chosen,29,26,body_parts,body_parts,1900,0,1,3
257,59186,0,258,4,4,1,gain4,no_gain2,E,I,43,35,objects,body_parts,27,22,Stimuli/Experimental_stims/objects/jonathan-greenaway-Y4hGgeiFn3s-unsplash.jpg,Stimuli/Experimental_stims/body_parts/wc-so-KH4AAPjb-tI-unsplash.jpg,0,0,780,0,unchosen,35,43,body_parts,objects,3200,1,1,3
258,59186,0,259,4,4,0,no_gain4,gain6,B,D,13,47,faces,objects,31,26,Stimuli/Experimental_stims/faces/daniel-rigdon-dXmXKPP2L4E-unsplash.jpg,Stimuli/Experimental_stims/objects/ronaldo-arthur-vidal-Cdz_lvnl37k-unsplash.jpg,0,1,569,0,unchosen,13,47,faces,objects,1000,0,1,3
259,59186,0,260,4,4,1,gain5,no_gain3,A,F,5,26,outdoor_scenes,body_parts,68,34,Stimuli/Experimental_stims/outdoor_scenes/jeff-king-bJHWJeiHfHc-unsplash.jpg,Stimuli/Experimental_stims/body_parts/engin-akyurt-x_3gyC42btc-unsplash.jpg,0,1,714,1,chosen,5,26,outdoor_scenes,body_parts,1200,0,1,3
260,59186,0,261,4,4,0,no_gain5,gain4,L,E,32,34,body_parts,body_parts,35,36,Stimuli/Experimental_stims/body_parts/towfiqu-barbhuiya-3AsiVDsZnHg-unsplash.jpg,Stimuli/Experimental_stims/body_parts/wagner-santos-mBWMvIuVnso-unsplash.jpg,0,0,749,1,chosen,34,32,body_parts,body_parts,2700,0,1,3
261,59186,0,262,4,4,0,no_gain1,gain1,G,C,2,9,outdoor_scenes,outdoor_scenes,75,36,Stimuli/Experimental_stims/outdoor_scenes/bruno-van-der-kraan-qez8mNJ3ilU-unsplash.jpg,Stimuli/Experimental_stims/outdoor_scenes/sergey-pesterev-y-b_FOmJXdg-unsplash.jpg,0,0,837,1,chosen,9,2,outdoor_scenes,outdoor_scenes,1300,0,1,3
262,59186,0,263,4,4,0,no_gain1,gain2,G,H,40,15,objects,faces,35,28,Stimuli/Experimental_stims/objects/fabian-blank-pElSkGRA2NU-unsplash.jpg,Stimuli/Experimental_stims/faces/erik-lucatero-d2MSDujJl2g-unsplash.jpg,0,0,746,1,unchosen,15,40,faces,objects,1500,0,1,3
263,59186,0,264,4,4,1,gain3,no_gain5,K,L,29,32,body_parts,body_parts,52,35,Stimuli/Experimental_stims/body_parts/manuel-schinner-ZwjFuJ7ebpk-unsplash.jpg,Stimuli/Experimental_stims/body_parts/towfiqu-barbhuiya-3AsiVDsZnHg-unsplash.jpg,0,1,750,1,chosen,29,32,body_parts,body_parts,3700,1,1,3
264,59186,0,265,4,4,0,no_gain2,gain5,I,A,4,5,outdoor_scenes,outdoor_scenes,58,68,Stimuli/Experimental_stims/outdoor_scenes/jarrett-kow-1ZOyYPOBn7I-unsplash.jpg,Stimuli/Experimental_stims/outdoor_scenes/jeff-king-bJHWJeiHfHc-unsplash.jpg,0,0,715,1,chosen,5,4,outdoor_scenes,outdoor_scenes,1000,0,1,3
265,59186,0,266,4,4,1,gain4,no_gain6,E,J,43,39,objects,objects,27,25,Stimuli/Experimental_stims/objects/jonathan-greenaway-Y4hGgeiFn3s-unsplash.jpg,Stimuli/Experimental_stims/objects/charlesdeluvio-1-nx1QR5dTE-unsplash.jpg,0,1,803,1,unchosen,43,39,objects,objects,1700,0,1,3
266,59186,0,267,4,4,1,gain4,no_gain3,E,F,43,17,objects,faces,27,43,Stimuli/Experimental_stims/objects/jonathan-greenaway-Y4hGgeiFn3s-unsplash.jpg,Stimuli/Experimental_stims/faces/good-faces-xmSWVeGEnJw-unsplash.jpg,0,0,621,0,unchosen,17,43,faces,objects,1100,0,1,3
267,59186,0,268,4,4,0,no_gain4,gain3,B,K,13,44,faces,objects,31,27,Stimuli/Experimental_stims/faces/daniel-rigdon-dXmXKPP2L4E-unsplash.jpg,Stimuli/Experimental_stims/objects/kuiye-chen-NuOGFo4PudE-unsplash.jpg,0,1,587,0,unchosen,13,44,faces,objects,1200,0,1,3
268,59186,0,269,4,4,1,gain5,no_gain6,A,J,5,23,outdoor_scenes,faces,68,27,Stimuli/Experimental_stims/outdoor_scenes/jeff-king-bJHWJeiHfHc-unsplash.jpg,Stimuli/Experimental_stims/faces/rikonavt-HQjfrvdTfak-unsplash.jpg,0,1,683,1,chosen,5,23,outdoor_scenes,faces,1300,0,1,3
269,59186,0,270,4,4,1,gain6,no_gain1,D,G,16,2,faces,outdoor_scenes,52,75,Stimuli/Experimental_stims/faces/freddy-kearney-o-ioeoATbIM-unsplash.jpg,Stimuli/Experimental_stims/outdoor_scenes/bruno-van-der-kraan-qez8mNJ3ilU-unsplash.jpg,0,1,587,1,chosen,16,2,faces,outdoor_scenes,1700,0,1,3
270,59186,0,271,4,4,1,gain2,no_gain2,H,I,15,35,faces,body_parts,28,22,Stimuli/Experimental_stims/faces/erik-lucatero-d2MSDujJl2g-unsplash.jpg,Stimuli/Experimental_stims/body_parts/wc-so-KH4AAPjb-tI-unsplash.jpg,0,1,685,1,unchosen,15,35,faces,body_parts,3400,1,1,3
271,59186,0,272,4,4,0,no_gain5,gain6,L,D,21,47,faces,objects,29,26,Stimuli/Experimental_stims/faces/leilani-angel-K84vnnzxmTQ-unsplash.jpg,Stimuli/Experimental_stims/objects/ronaldo-arthur-vidal-Cdz_lvnl37k-unsplash.jpg,0,1,541,0,unchosen,21,47,faces,objects,2500,0,1,3
272,59186,0,273,4,4,1,gain2,no_gain1,H,G,7,2,outdoor_scenes,outdoor_scenes,50,75,Stimuli/Experimental_stims/outdoor_scenes/petr-vysohlid-9fqwGqGLUxc-unsplash.jpg,Stimuli/Experimental_stims/outdoor_scenes/bruno-van-der-kraan-qez8mNJ3ilU-unsplash.jpg,0,1,915,1,chosen,7,2,outdoor_scenes,outdoor_scenes,2600,0,1,3
273,59186,0,274,4,4,1,gain2,no_gain6,H,J,15,39,faces,objects,28,25,Stimuli/Experimental_stims/faces/erik-lucatero-d2MSDujJl2g-unsplash.jpg,Stimuli/Experimental_stims/objects/charlesdeluvio-1-nx1QR5dTE-unsplash.jpg,0,1,609,1,unchosen,15,39,faces,objects,2000,0,1,3
274,59186,0,275,4,4,0,no_gain1,gain3,G,K,2,29,outdoor_scenes,body_parts,75,52,Stimuli/Experimental_stims/outdoor_scenes/bruno-van-der-kraan-qez8mNJ3ilU-unsplash.jpg,Stimuli/Experimental_stims/body_parts/manuel-schinner-ZwjFuJ7ebpk-unsplash.jpg,0,0,748,1,chosen,29,2,body_parts,outdoor_scenes,1900,0,1,3
275,59186,0,276,4,4,0,no_gain2,gain6,I,D,35,47,body_parts,objects,22,26,Stimuli/Experimental_stims/body_parts/wc-so-KH4AAPjb-tI-unsplash.jpg,Stimuli/Experimental_stims/objects/ronaldo-arthur-vidal-Cdz_lvnl37k-unsplash.jpg,0,1,692,0,unchosen,35,47,body_parts,objects,1500,0,1,3
276,59186,0,277,4,4,1,gain2,no_gain5,H,L,15,21,faces,faces,28,29,Stimuli/Experimental_stims/faces/erik-lucatero-d2MSDujJl2g-unsplash.jpg,Stimuli/Experimental_stims/faces/leilani-angel-K84vnnzxmTQ-unsplash.jpg,0,0,1031,0,unchosen,21,15,faces,faces,2500,0,1,3
277,59186,0,278,4,4,0,no_gain6,gain6,J,D,23,16,faces,faces,27,52,Stimuli/Experimental_stims/faces/rikonavt-HQjfrvdTfak-unsplash.jpg,Stimuli/Experimental_stims/faces/freddy-kearney-o-ioeoATbIM-unsplash.jpg,0,0,1167,1,chosen,16,23,faces,faces,1400,0,1,3
278,59186,0,279,4,4,0,no_gain3,gain2,F,H,26,7,body_parts,outdoor_scenes,34,50,Stimuli/Experimental_stims/body_parts/engin-akyurt-x_3gyC42btc-unsplash.jpg,Stimuli/Experimental_stims/outdoor_scenes/petr-vysohlid-9fqwGqGLUxc-unsplash.jpg,0,0,743,1,chosen,7,26,outdoor_scenes,body_parts,1300,0,1,3
279,59186,0,280,4,4,1,gain6,no_gain6,D,J,47,39,objects,objects,26,25,Stimuli/Experimental_stims/objects/ronaldo-arthur-vidal-Cdz_lvnl37k-unsplash.jpg,Stimuli/Experimental_stims/objects/charlesdeluvio-1-nx1QR5dTE-unsplash.jpg,0,0,1183,0,unchosen,39,47,objects,objects,1100,0,1,3
280,59186,0,281,4,4,1,gain6,no_gain2,D,I,16,4,faces,outdoor_scenes,52,58,Stimuli/Experimental_stims/faces/freddy-kearney-o-ioeoATbIM-unsplash.jpg,Stimuli/Experimental_stims/outdoor_scenes/jarrett-kow-1ZOyYPOBn7I-unsplash.jpg,0,1,726,1,chosen,16,4,faces,outdoor_scenes,1100,0,1,3
281,59186,0,282,4,4,1,gain2,no_gain5,H,L,7,32,outdoor_scenes,body_parts,50,35,Stimuli/Experimental_stims/outdoor_scenes/petr-vysohlid-9fqwGqGLUxc-unsplash.jpg,Stimuli/Experimental_stims/body_parts/towfiqu-barbhuiya-3AsiVDsZnHg-unsplash.jpg,0,1,710,1,chosen,7,32,outdoor_scenes,body_parts,3900,1,1,3
282,59186,0,283,4,4,1,gain2,no_gain4,H,B,15,13,faces,faces,28,31,Stimuli/Experimental_stims/faces/erik-lucatero-d2MSDujJl2g-unsplash.jpg,Stimuli/Experimental_stims/faces/daniel-rigdon-dXmXKPP2L4E-unsplash.jpg,0,0,793,0,unchosen,13,15,faces,faces,1200,0,1,3
283,59186,0,284,4,4,0,no_gain4,gain6,B,D,11,16,outdoor_scenes,faces,66,52,Stimuli/Experimental_stims/outdoor_scenes/stephen-leonardi-gyIRjKPXupE-unsplash.jpg,Stimuli/Experimental_stims/faces/freddy-kearney-o-ioeoATbIM-unsplash.jpg,0,0,692,1,chosen,16,11,faces,outdoor_scenes,1800,0,1,3
284,59186,0,285,4,4,0,no_gain1,gain3,G,K,40,44,objects,objects,35,27,Stimuli/Experimental_stims/objects/fabian-blank-pElSkGRA2NU-unsplash.jpg,Stimuli/Experimental_stims/objects/kuiye-chen-NuOGFo4PudE-unsplash.jpg,0,1,725,0,unchosen,40,44,objects,objects,1900,0,1,3
285,59186,0,286,4,4,1,gain1,no_gain3,C,F,9,26,outdoor_scenes,body_parts,36,34,Stimuli/Experimental_stims/outdoor_scenes/sergey-pesterev-y-b_FOmJXdg-unsplash.jpg,Stimuli/Experimental_stims/body_parts/engin-akyurt-x_3gyC42btc-unsplash.jpg,0,1,793,1,chosen,9,26,outdoor_scenes,body_parts,1100,0,1,3
286,59186,0,287,4,4,0,no_gain3,gain3,F,K,17,44,faces,objects,43,27,Stimuli/Experimental_stims/faces/good-faces-xmSWVeGEnJw-unsplash.jpg,Stimuli/Experimental_stims/objects/kuiye-chen-NuOGFo4PudE-unsplash.jpg,0,1,717,0,unchosen,17,44,faces,objects,3000,0,1,3
287,59186,0,288,4,4,0,no_gain5,gain1,L,C,21,30,faces,body_parts,29,26,Stimuli/Experimental_stims/faces/leilani-angel-K84vnnzxmTQ-unsplash.jpg,Stimuli/Experimental_stims/body_parts/mika-korhonen-Xodzxosar18-unsplash.jpg,0,1,620,0,unchosen,21,30,faces,body_parts,2800,0,1,3
288,59186,0,289,4,4,0,no_gain3,gain5,F,A,17,42,faces,objects,43,34,Stimuli/Experimental_stims/faces/good-faces-xmSWVeGEnJw-unsplash.jpg,Stimuli/Experimental_stims/objects/jess-bailey-nOeVi8DsN8U-unsplash.jpg,0,1,605,0,unchosen,17,42,faces,objects,1600,0,1,3
289,59186,0,290,4,4,0,no_gain6,gain1,J,C,23,9,faces,outdoor_scenes,27,36,Stimuli/Experimental_stims/faces/rikonavt-HQjfrvdTfak-unsplash.jpg,Stimuli/Experimental_stims/outdoor_scenes/sergey-pesterev-y-b_FOmJXdg-unsplash.jpg,0,0,839,1,chosen,9,23,outdoor_scenes,faces,1800,0,1,3
290,59186,0,291,4,4,0,no_gain2,gain1,I,C,4,9,outdoor_scenes,outdoor_scenes,58,36,Stimuli/Experimental_stims/outdoor_scenes/jarrett-kow-1ZOyYPOBn7I-unsplash.jpg,Stimuli/Experimental_stims/outdoor_scenes/sergey-pesterev-y-b_FOmJXdg-unsplash.jpg,0,0,851,1,chosen,9,4,outdoor_scenes,outdoor_scenes,1900,0,1,3
291,59186,0,292,4,4,1,gain1,no_gain5,C,L,9,32,outdoor_scenes,body_parts,36,35,Stimuli/Experimental_stims/outdoor_scenes/sergey-pesterev-y-b_FOmJXdg-unsplash.jpg,Stimuli/Experimental_stims/body_parts/towfiqu-barbhuiya-3AsiVDsZnHg-unsplash.jpg,0,1,654,1,chosen,9,32,outdoor_scenes,body_parts,1700,0,1,3