,PID,practice,trial,block,run,gain_left,left_item_id,right_item_id,left_pair_id,right_pair_id,left_stimulus,right_stimulus,left_category,right_category,left_rating,right_rating,left_path,right_path,no_response,left_chosen,rt,higher_outcome_chosen,choice_type,chosen_stimulus,unchosen_stimulus,chosen_category,unchosen_category,iti,long_iti,simulation,version
0,21859,1,1,0,0,0,,,,,,,,,,,Stimuli/Practice_stims/Final_decisions/debby-hudson-FmCSSSGge-0-unsplash.jpg,Stimuli/Practice_stims/Final_decisions/yassine-khalfalli-adsQ9d_Cx0c-unsplash.jpg,0,0,167,1,,,,,,3000,0,5,4
1,21859,1,2,0,0,0,,,,,,,,,,,Stimuli/Practice_stims/Final_decisions/florian-wehde-iVW7mZPwd4g-unsplash.jpg,Stimuli/Practice_stims/Final_decisions/patrick-perkins-3wylDrjxH-E-unsplash.jpg,0,0,53,1,,,,,,1500,0,5,4
2,21859,1,3,0,0,0,,,,,,,,,,,Stimuli/Practice_stims/Final_decisions/debby-hudson-FmCSSSGge-0-unsplash.jpg,Stimuli/Practice_stims/Final_decisions/florian-wehde-iVW7mZPwd4g-unsplash.jpg,0,1,71,0,,,,,,2000,0,5,4
3,21859,1,4,0,0,0,,,,,,,,,,,Stimuli/Practice_stims/Final_decisions/yassine-khalfalli-adsQ9d_Cx0c-unsplash.jpg,Stimuli/Practice_stims/Final_decisions/debby-hudson-FmCSSSGge-0-unsplash.jpg,0,1,37,0,,,,,,1000,0,5,4
4,21859,0,5,1,1,0,no_gain2,gain4,I,F,27,20,body_parts,faces,82,53,Stimuli/Experimental_stims/body_parts/heike-mintel-i_Gns0ELnLw-unsplash.jpg,Stimuli/Experimental_stims/faces/justin-chen-J7Cf1Gch49E-unsplash.jpg,0,1,501,0,chosen,27,20,body_parts,faces,5000,1,5,4
5,21859,0,6,1,1,0,no_gain1,gain4,G,F,3,25,outdoor_scenes,body_parts,80,72,Stimuli/Experimental_stims/outdoor_scenes/henry-be-NLF6hTe4PAg-unsplash.jpg,Stimuli/Experimental_stims/body_parts/engin-akyurt-Q2rfH3GW39c-unsplash.jpg,0,0,8,1,unchosen,25,3,body_parts,outdoor_scenes,1700,0,5,4
6,21859,0,7,1,1,1,gain2,no_gain4,B,A,1,6,outdoor_scenes,outdoor_scenes,30,35,Stimuli/Experimental_stims/outdoor_scenes/ashim-d-silva-S2Q5mdOrrVc-unsplash.jpg,Stimuli/Experimental_stims/outdoor_scenes/meng-ji-8BH_M-53CyA-unsplash.jpg,0,0,57,0,chosen,6,1,outdoor_scenes,outdoor_scenes,1600,0,5,4
7,21859,0,8,1,1,1,gain1,no_gain2,E,I,32,0,body_parts,outdoor_scenes,47,77,Stimuli/Experimental_stims/body_parts/towfiqu-barbhuiya-3AsiVDsZnHg-unsplash.jpg,Stimuli/Experimental_stims/outdoor_scenes/aleksandra-boguslawska-MS7KD9Ti7FQ-unsplash.jpg,0,1,132,1,unchosen,32,0,body_parts,outdoor_scenes,1800,0,5,4
8,21859,0,9,1,1,0,no_gain6,gain6,L,C,13,4,faces,outdoor_scenes,75,87,Stimuli/Experimental_stims/faces/daniel-rigdon-dXmXKPP2L4E-unsplash.jpg,Stimuli/Experimental_stims/outdoor_scenes/jarrett-kow-1ZOyYPOBn7I-unsplash.jpg,0,1,28,0,unchosen,13,4,faces,outdoor_scenes,1300,0,5,4
9,21859,0,10,1,1,1,gain6,no_gain1,C,G,4,3,outdoor_scenes,outdoor_scenes,87,80,Stimuli/Experimental_stims/outdoor_scenes/jarrett-kow-1ZOyYPOBn7I-unsplash.jpg,Stimuli/Experimental_stims/outdoor_scenes/henry-be-NLF6hTe4PAg-unsplash.jpg,0,0,136,0,unchosen,3,4,outdoor_scenes,outdoor_scenes,1200,0,5,4
10,21859,0,11,1,1,0,no_gain4,gain5,A,K,6,24,outdoor_scenes,body_parts,35,75,Stimuli/Experimental_stims/outdoor_scenes/meng-ji-8BH_M-53CyA-unsplash.jpg,Stimuli/Experimental_stims/body_parts/clay-banks-LjqARJaJotc-unsplash.jpg,0,1,33,0,chosen,6,24,outdoor_scenes,body_parts,3800,1,5,4
11,21859,0,12,1,1,0,no_gain3,gain2,H,B,11,1,outdoor_scenes,outdoor_scenes,91,30,Stimuli/Experimental_stims/outdoor_scenes/stephen-leonardi-gyIRjKPXupE-unsplash.jpg,Stimuli/Experimental_stims/outdoor_scenes/ashim-d-silva-S2Q5mdOrrVc-unsplash.jpg,0,0,58,1,chosen,1,11,outdoor_scenes,outdoor_scenes,1100,0,5,4
12,21859,0,13,1,1,1,gain5,no_gain4,K,A,46,38,objects,objects,68,39,Stimuli/Experimental_stims/objects/mockup-graphics-PNsj6RiHAF4-unsplash.jpg,Stimuli/Experimental_stims/objects/art-lasovsky-8XddFc6NkBY-unsplash.jpg,0,1,186,1,unchosen,46,38,objects,objects,2500,0,5,4
13,21859,0,14,1,1,0,no_gain3,gain3,H,J,11,47,outdoor_scenes,objects,91,70,Stimuli/Experimental_stims/outdoor_scenes/stephen-leonardi-gyIRjKPXupE-unsplash.jpg,Stimuli/Experimental_stims/objects/ronaldo-arthur-vidal-Cdz_lvnl37k-unsplash.jpg,0,0,111,1,chosen,47,11,objects,outdoor_scenes,1500,0,5,4
14,21859,0,15,1,1,0,no_gain6,gain1,L,E,13,32,faces,body_parts,75,47,Stimuli/Experimental_stims/faces/daniel-rigdon-dXmXKPP2L4E-unsplash.jpg,Stimuli/Experimental_stims/body_parts/towfiqu-barbhuiya-3AsiVDsZnHg-unsplash.jpg,0,0,28,1,unchosen,32,13,body_parts,faces,1400,0,5,4
15,21859,0,16,1,1,0,no_gain2,gain3,I,J,27,47,body_parts,objects,82,70,Stimuli/Experimental_stims/body_parts/heike-mintel-i_Gns0ELnLw-unsplash.jpg,Stimuli/Experimental_stims/objects/ronaldo-arthur-vidal-Cdz_lvnl37k-unsplash.jpg,0,0,122,1,chosen,47,27,objects,body_parts,3300,1,5,4
16,21859,0,17,1,1,0,no_gain3,gain3,H,J,22,15,faces,faces,64,75,Stimuli/Experimental_stims/faces/ravi-patel-VMGAbeeJTKo-unsplash.jpg,Stimuli/Experimental_stims/faces/erik-lucatero-d2MSDujJl2g-unsplash.jpg,0,0,76,1,unchosen,15,22,faces,faces,1800,0,5,4
17,21859,0,18,1,1,0,no_gain1,gain3,G,J,3,15,outdoor_scenes,faces,80,75,Stimuli/Experimental_stims/outdoor_scenes/henry-be-NLF6hTe4PAg-unsplash.jpg,Stimuli/Experimental_stims/faces/erik-lucatero-d2MSDujJl2g-unsplash.jpg,0,1,43,0,unchosen,3,15,outdoor_scenes,faces,1900,0,5,4
18,21859,0,19,1,1,0,no_gain6,gain4,L,F,13,25,faces,body_parts,75,72,Stimuli/Experimental_stims/faces/daniel-rigdon-dXmXKPP2L4E-unsplash.jpg,Stimuli/Experimental_stims/body_parts/engin-akyurt-Q2rfH3GW39c-unsplash.jpg,0,0,206,1,unchosen,25,13,body_parts,faces,1100,0,5,4
19,21859,0,20,1,1,0,no_gain2,gain1,I,E,27,36,body_parts,objects,82,80,Stimuli/Experimental_stims/body_parts/heike-mintel-i_Gns0ELnLw-unsplash.jpg,Stimuli/Experimental_stims/objects/alexander-andrews-JYGnB9gTCls-unsplash.jpg,0,0,285,1,chosen,36,27,objects,body_parts,1200,0,5,4
20,21859,0,21,1,1,1,gain4,no_gain4,F,A,25,38,body_parts,objects,72,39,Stimuli/Experimental_stims/body_parts/engin-akyurt-Q2rfH3GW39c-unsplash.jpg,Stimuli/Experimental_stims/objects/art-lasovsky-8XddFc6NkBY-unsplash.jpg,0,1,37,1,unchosen,25,38,body_parts,objects,1400,0,5,4
21,21859,0,22,1,1,0,no_gain4,gain3,A,J,6,47,outdoor_scenes,objects,35,70,Stimuli/Experimental_stims/outdoor_scenes/meng-ji-8BH_M-53CyA-unsplash.jpg,Stimuli/Experimental_stims/objects/ronaldo-arthur-vidal-Cdz_lvnl37k-unsplash.jpg,0,1,48,0,chosen,6,47,outdoor_scenes,objects,1100,0,5,4
22,21859,0,23,1,1,0,no_gain3,gain5,H,K,22,46,faces,objects,64,68,Stimuli/Experimental_stims/faces/ravi-patel-VMGAbeeJTKo-unsplash.jpg,Stimuli/Experimental_stims/objects/mockup-graphics-PNsj6RiHAF4-unsplash.jpg,0,1,6,0,unchosen,22,46,faces,objects,1500,0,5,4
23,21859,0,24,1,1,1,gain1,no_gain3,E,H,36,11,objects,outdoor_scenes,80,91,Stimuli/Experimental_stims/objects/alexander-andrews-JYGnB9gTCls-unsplash.jpg,Stimuli/Experimental_stims/outdoor_scenes/stephen-leonardi-gyIRjKPXupE-unsplash.jpg,0,1,200,1,chosen,36,11,objects,outdoor_scenes,1600,0,5,4
24,21859,0,25,1,1,1,gain2,no_gain1,B,G,14,3,faces,outdoor_scenes,28,80,Stimuli/Experimental_stims/faces/david-siglin-UuW4psOb388-unsplash.jpg,Stimuli/Experimental_stims/outdoor_scenes/henry-be-NLF6hTe4PAg-unsplash.jpg,0,1,102,1,unchosen,14,3,faces,outdoor_scenes,3000,1,5,4
25,21859,0,26,1,1,1,gain6,no_gain4,C,A,30,6,body_parts,outdoor_scenes,45,35,Stimuli/Experimental_stims/body_parts/mika-korhonen-Xodzxosar18-unsplash.jpg,Stimuli/Experimental_stims/outdoor_scenes/meng-ji-8BH_M-53CyA-unsplash.jpg,0,0,35,0,chosen,6,30,outdoor_scenes,body_parts,1600,0,5,4
26,21859,0,27,1,1,0,no_gain1,gain1,G,E,3,32,outdoor_scenes,body_parts,80,47,Stimuli/Experimental_stims/outdoor_scenes/henry-be-NLF6hTe4PAg-unsplash.jpg,Stimuli/Experimental_stims/body_parts/towfiqu-barbhuiya-3AsiVDsZnHg-unsplash.jpg,0,1,1,0,unchosen,3,32,outdoor_scenes,body_parts,2900,0,5,4
27,21859,0,28,1,1,0,no_gain1,gain3,G,J,40,47,objects,objects,31,70,Stimuli/Experimental_stims/objects/fabian-blank-pElSkGRA2NU-unsplash.jpg,Stimuli/Experimental_stims/objects/ronaldo-arthur-vidal-Cdz_lvnl37k-unsplash.jpg,0,0,42,1,chosen,47,40,objects,objects,2700,0,5,4
28,21859,0,29,1,1,1,gain5,no_gain3,K,H,24,11,body_parts,outdoor_scenes,75,91,Stimuli/Experimental_stims/body_parts/clay-banks-LjqARJaJotc-unsplash.jpg,Stimuli/Experimental_stims/outdoor_scenes/stephen-leonardi-gyIRjKPXupE-unsplash.jpg,0,1,30,1,chosen,24,11,body_parts,outdoor_scenes,1800,0,5,4
29,21859,0,30,1,1,1,gain5,no_gain5,K,D,46,18,objects,faces,68,20,Stimuli/Experimental_stims/objects/mockup-graphics-PNsj6RiHAF4-unsplash.jpg,Stimuli/Experimental_stims/faces/jessica-radanavong-mrYkTuAesKE-unsplash.jpg,0,0,27,0,unchosen,18,46,faces,objects,2300,0,5,4
30,21859,0,31,1,1,0,no_gain1,gain4,G,F,40,20,objects,faces,31,53,Stimuli/Experimental_stims/objects/fabian-blank-pElSkGRA2NU-unsplash.jpg,Stimuli/Experimental_stims/faces/justin-chen-J7Cf1Gch49E-unsplash.jpg,0,0,130,1,chosen,20,40,faces,objects,2000,0,5,4
31,21859,0,32,1,1,1,gain6,no_gain2,C,I,30,27,body_parts,body_parts,45,82,Stimuli/Experimental_stims/body_parts/mika-korhonen-Xodzxosar18-unsplash.jpg,Stimuli/Experimental_stims/body_parts/heike-mintel-i_Gns0ELnLw-unsplash.jpg,0,1,59,1,chosen,30,27,body_parts,body_parts,2600,0,5,4
32,21859,0,33,1,1,1,gain4,no_gain3,F,H,25,22,body_parts,faces,72,64,Stimuli/Experimental_stims/body_parts/engin-akyurt-Q2rfH3GW39c-unsplash.jpg,Stimuli/Experimental_stims/faces/ravi-patel-VMGAbeeJTKo-unsplash.jpg,0,1,104,1,unchosen,25,22,body_parts,faces,3500,1,5,4
33,21859,0,34,1,1,1,gain4,no_gain5,F,D,25,18,body_parts,faces,72,20,Stimuli/Experimental_stims/body_parts/engin-akyurt-Q2rfH3GW39c-unsplash.jpg,Stimuli/Experimental_stims/faces/jessica-radanavong-mrYkTuAesKE-unsplash.jpg,0,1,180,1,unchosen,25,18,body_parts,faces,1000,0,5,4
34,21859,0,35,1,1,0,no_gain5,gain6,D,C,43,30,objects,body_parts,67,45,Stimuli/Experimental_stims/objects/jonathan-greenaway-Y4hGgeiFn3s-unsplash.jpg,Stimuli/Experimental_stims/body_parts/mika-korhonen-Xodzxosar18-unsplash.jpg,0,1,1,0,chosen,43,30,objects,body_parts,1600,0,5,4
35,21859,0,36,1,1,1,gain1,no_gain5,E,D,36,43,objects,objects,80,67,Stimuli/Experimental_stims/objects/alexander-andrews-JYGnB9gTCls-unsplash.jpg,Stimuli/Experimental_stims/objects/jonathan-greenaway-Y4hGgeiFn3s-unsplash.jpg,0,1,27,1,chosen,36,43,objects,objects,1200,0,5,4
36,21859,0,37,1,1,0,no_gain6,gain2,L,B,33,1,body_parts,outdoor_scenes,24,30,Stimuli/Experimental_stims/body_parts/tucker-good-36skLT5jZcc-unsplash.jpg,Stimuli/Experimental_stims/outdoor_scenes/ashim-d-silva-S2Q5mdOrrVc-unsplash.jpg,0,1,358,0,chosen,33,1,body_parts,outdoor_scenes,1500,0,5,4
37,21859,0,38,1,1,1,gain2,no_gain6,B,L,14,13,faces,faces,28,75,Stimuli/Experimental_stims/faces/david-siglin-UuW4psOb388-unsplash.jpg,Stimuli/Experimental_stims/faces/daniel-rigdon-dXmXKPP2L4E-unsplash.jpg,0,0,123,0,unchosen,13,14,faces,faces,4800,1,5,4
38,21859,0,39,1,1,1,gain2,no_gain2,B,I,1,27,outdoor_scenes,body_parts,30,82,Stimuli/Experimental_stims/outdoor_scenes/ashim-d-silva-S2Q5mdOrrVc-unsplash.jpg,Stimuli/Experimental_stims/body_parts/heike-mintel-i_Gns0ELnLw-unsplash.jpg,0,1,0,1,chosen,1,27,outdoor_scenes,body_parts,1500,0,5,4
39,21859,0,40,1,1,0,no_gain5,gain1,D,E,18,32,faces,body_parts,20,47,Stimuli/Experimental_stims/faces/jessica-radanavong-mrYkTuAesKE-unsplash.jpg,Stimuli/Experimental_stims/body_parts/towfiqu-barbhuiya-3AsiVDsZnHg-unsplash.jpg,0,0,68,1,unchosen,32,18,body_parts,faces,1700,0,5,4
40,21859,0,41,1,1,0,no_gain4,gain1,A,E,38,32,objects,body_parts,39,47,Stimuli/Experimental_stims/objects/art-lasovsky-8XddFc6NkBY-unsplash.jpg,Stimuli/Experimental_stims/body_parts/towfiqu-barbhuiya-3AsiVDsZnHg-unsplash.jpg,0,0,115,1,unchosen,32,38,body_parts,objects,1200,0,5,4
41,21859,0,42,1,1,1,gain5,no_gain2,K,I,46,0,objects,outdoor_scenes,68,77,Stimuli/Experimental_stims/objects/mockup-graphics-PNsj6RiHAF4-unsplash.jpg,Stimuli/Experimental_stims/outdoor_scenes/aleksandra-boguslawska-MS7KD9Ti7FQ-unsplash.jpg,0,1,75,1,unchosen,46,0,objects,outdoor_scenes,1400,0,5,4
42,21859,0,43,1,1,1,gain6,no_gain6,C,L,30,33,body_parts,body_parts,45,24,Stimuli/Experimental_stims/body_parts/mika-korhonen-Xodzxosar18-unsplash.jpg,Stimuli/Experimental_stims/body_parts/tucker-good-36skLT5jZcc-unsplash.jpg,0,1,72,1,chosen,30,33,body_parts,body_parts,1800,0,5,4
43,21859,0,44,1,1,1,gain1,no_gain3,E,H,32,22,body_parts,faces,47,64,Stimuli/Experimental_stims/body_parts/towfiqu-barbhuiya-3AsiVDsZnHg-unsplash.jpg,Stimuli/Experimental_stims/faces/ravi-patel-VMGAbeeJTKo-unsplash.jpg,0,1,49,1,unchosen,32,22,body_parts,faces,3600,1,5,4
44,21859,0,45,1,1,1,gain2,no_gain5,B,D,1,43,outdoor_scenes,objects,30,67,Stimuli/Experimental_stims/outdoor_scenes/ashim-d-silva-S2Q5mdOrrVc-unsplash.jpg,Stimuli/Experimental_stims/objects/jonathan-greenaway-Y4hGgeiFn3s-unsplash.jpg,0,1,139,1,chosen,1,43,outdoor_scenes,objects,1200,0,5,4
45,21859,0,46,1,1,0,no_gain2,gain5,I,K,27,24,body_parts,body_parts,82,75,Stimuli/Experimental_stims/body_parts/heike-mintel-i_Gns0ELnLw-unsplash.jpg,Stimuli/Experimental_stims/body_parts/clay-banks-LjqARJaJotc-unsplash.jpg,0,1,104,0,chosen,27,24,body_parts,body_parts,2700,0,5,4
46,21859,0,47,1,1,0,no_gain4,gain3,A,J,38,15,objects,faces,39,75,Stimuli/Experimental_stims/objects/art-lasovsky-8XddFc6NkBY-unsplash.jpg,Stimuli/Experimental_stims/faces/erik-lucatero-d2MSDujJl2g-unsplash.jpg,0,1,55,0,unchosen,38,15,objects,faces,2100,0,5,4
47,21859,0,48,1,1,1,gain6,no_gain4,C,A,4,38,outdoor_scenes,objects,87,39,Stimuli/Experimental_stims/outdoor_scenes/jarrett-kow-1ZOyYPOBn7I-unsplash.jpg,Stimuli/Experimental_stims/objects/art-lasovsky-8XddFc6NkBY-unsplash.jpg,0,0,159,0,unchosen,38,4,objects,outdoor_scenes,2500,0,5,4
48,21859,0,49,1,1,1,gain3,no_gain6,J,L,47,33,objects,body_parts,70,24,Stimuli/Experimental_stims/objects/ronaldo-arthur-vidal-Cdz_lvnl37k-unsplash.jpg,Stimuli/Experimental_stims/body_parts/tucker-good-36skLT5jZcc-unsplash.jpg,0,1,244,1,chosen,47,33,objects,body_parts,1500,0,5,4
49,21859,0,50,1,1,1,gain2,no_gain1,B,G,1,40,outdoor_scenes,objects,30,31,Stimuli/Experimental_stims/outdoor_scenes/ashim-d-silva-S2Q5mdOrrVc-unsplash.jpg,Stimuli/Experimental_stims/objects/fabian-blank-pElSkGRA2NU-unsplash.jpg,0,0,9,0,chosen,40,1,objects,outdoor_scenes,1300,0,5,4
50,21859,0,51,1,1,1,gain6,no_gain3,C,H,30,11,body_parts,outdoor_scenes,45,91,Stimuli/Experimental_stims/body_parts/mika-korhonen-Xodzxosar18-unsplash.jpg,Stimuli/Experimental_stims/outdoor_scenes/stephen-leonardi-gyIRjKPXupE-unsplash.jpg,0,0,195,0,chosen,11,30,outdoor_scenes,body_parts,1000,0,5,4
51,21859,0,52,1,1,1,gain6,no_gain3,C,H,4,22,outdoor_scenes,faces,87,64,Stimuli/Experimental_stims/outdoor_scenes/jarrett-kow-1ZOyYPOBn7I-unsplash.jpg,Stimuli/Experimental_stims/faces/ravi-patel-VMGAbeeJTKo-unsplash.jpg,0,1,220,1,unchosen,4,22,outdoor_scenes,faces,1500,0,5,4
52,21859,0,53,1,1,0,no_gain6,gain3,L,J,13,15,faces,faces,75,75,Stimuli/Experimental_stims/faces/daniel-rigdon-dXmXKPP2L4E-unsplash.jpg,Stimuli/Experimental_stims/faces/erik-lucatero-d2MSDujJl2g-unsplash.jpg,0,1,233,0,unchosen,13,15,faces,faces,2200,0,5,4
53,21859,0,54,1,1,1,gain2,no_gain5,B,D,14,18,faces,faces,28,20,Stimuli/Experimental_stims/faces/david-siglin-UuW4psOb388-unsplash.jpg,Stimuli/Experimental_stims/faces/jessica-radanavong-mrYkTuAesKE-unsplash.jpg,0,1,135,1,unchosen,14,18,faces,faces,1300,0,5,4
54,21859,0,55,1,1,1,gain4,no_gain6,F,L,20,33,faces,body_parts,53,24,Stimuli/Experimental_stims/faces/justin-chen-J7Cf1Gch49E-unsplash.jpg,Stimuli/Experimental_stims/body_parts/tucker-good-36skLT5jZcc-unsplash.jpg,0,0,66,0,chosen,33,20,body_parts,faces,3000,1,5,4
55,21859,0,56,1,1,1,gain4,no_gain2,F,I,25,0,body_parts,outdoor_scenes,72,77,Stimuli/Experimental_stims/body_parts/engin-akyurt-Q2rfH3GW39c-unsplash.jpg,Stimuli/Experimental_stims/outdoor_scenes/aleksandra-boguslawska-MS7KD9Ti7FQ-unsplash.jpg,0,1,85,1,unchosen,25,0,body_parts,outdoor_scenes,1400,0,5,4
56,21859,0,57,1,1,1,gain3,no_gain2,J,I,15,0,faces,outdoor_scenes,75,77,Stimuli/Experimental_stims/faces/erik-lucatero-d2MSDujJl2g-unsplash.jpg,Stimuli/Experimental_stims/outdoor_scenes/aleksandra-boguslawska-MS7KD9Ti7FQ-unsplash.jpg,0,1,807,1,unchosen,15,0,faces,outdoor_scenes,1500,0,5,4
57,21859,0,58,1,1,0,no_gain4,gain1,A,E,6,36,outdoor_scenes,objects,35,80,Stimuli/Experimental_stims/outdoor_scenes/meng-ji-8BH_M-53CyA-unsplash.jpg,Stimuli/Experimental_stims/objects/alexander-andrews-JYGnB9gTCls-unsplash.jpg,0,1,97,0,chosen,6,36,outdoor_scenes,objects,1200,0,5,4
58,21859,0,59,1,1,0,no_gain2,gain2,I,B,0,14,outdoor_scenes,faces,77,28,Stimuli/Experimental_stims/outdoor_scenes/aleksandra-boguslawska-MS7KD9Ti7FQ-unsplash.jpg,Stimuli/Experimental_stims/faces/david-siglin-UuW4psOb388-unsplash.jpg,0,1,1143,0,unchosen,0,14,outdoor_scenes,faces,1600,0,5,4
59,21859,0,60,1,1,0,no_gain6,gain1,L,E,33,36,body_parts,objects,24,80,Stimuli/Experimental_stims/body_parts/tucker-good-36skLT5jZcc-unsplash.jpg,Stimuli/Experimental_stims/objects/alexander-andrews-JYGnB9gTCls-unsplash.jpg,0,1,27,0,chosen,33,36,body_parts,objects,2300,0,5,4
60,21859,0,61,1,1,1,gain2,no_gain3,B,H,14,22,faces,faces,28,64,Stimuli/Experimental_stims/faces/david-siglin-UuW4psOb388-unsplash.jpg,Stimuli/Experimental_stims/faces/ravi-patel-VMGAbeeJTKo-unsplash.jpg,0,1,175,1,unchosen,14,22,faces,faces,1400,0,5,4
61,21859,0,62,1,1,0,no_gain5,gain4,D,F,43,20,objects,faces,67,53,Stimuli/Experimental_stims/objects/jonathan-greenaway-Y4hGgeiFn3s-unsplash.jpg,Stimuli/Experimental_stims/faces/justin-chen-J7Cf1Gch49E-unsplash.jpg,0,1,152,0,chosen,43,20,objects,faces,4400,1,5,4
62,21859,0,63,1,1,1,gain3,no_gain5,J,D,47,43,objects,objects,70,67,Stimuli/Experimental_stims/objects/ronaldo-arthur-vidal-Cdz_lvnl37k-unsplash.jpg,Stimuli/Experimental_stims/objects/jonathan-greenaway-Y4hGgeiFn3s-unsplash.jpg,0,0,0,0,chosen,43,47,objects,objects,1900,0,5,4
63,21859,0,64,1,1,0,no_gain6,gain5,L,K,13,46,faces,objects,75,68,Stimuli/Experimental_stims/faces/daniel-rigdon-dXmXKPP2L4E-unsplash.jpg,Stimuli/Experimental_stims/objects/mockup-graphics-PNsj6RiHAF4-unsplash.jpg,0,1,37,0,unchosen,13,46,faces,objects,2000,0,5,4
64,21859,0,65,1,1,0,no_gain5,gain6,D,C,18,4,faces,outdoor_scenes,20,87,Stimuli/Experimental_stims/faces/jessica-radanavong-mrYkTuAesKE-unsplash.jpg,Stimuli/Experimental_stims/outdoor_scenes/jarrett-kow-1ZOyYPOBn7I-unsplash.jpg,0,0,28,1,unchosen,4,18,outdoor_scenes,faces,1500,0,5,4
65,21859,0,66,1,1,1,gain5,no_gain6,K,L,24,33,body_parts,body_parts,75,24,Stimuli/Experimental_stims/body_parts/clay-banks-LjqARJaJotc-unsplash.jpg,Stimuli/Experimental_stims/body_parts/tucker-good-36skLT5jZcc-unsplash.jpg,0,1,33,1,chosen,24,33,body_parts,body_parts,1600,0,5,4
66,21859,0,67,1,1,0,no_gain2,gain6,I,C,0,4,outdoor_scenes,outdoor_scenes,77,87,Stimuli/Experimental_stims/outdoor_scenes/aleksandra-boguslawska-MS7KD9Ti7FQ-unsplash.jpg,Stimuli/Experimental_stims/outdoor_scenes/jarrett-kow-1ZOyYPOBn7I-unsplash.jpg,0,0,29,1,unchosen,4,0,outdoor_scenes,outdoor_scenes,3000,1,5,4
67,21859,0,68,1,1,0,no_gain1,gain1,G,E,40,36,objects,objects,31,80,Stimuli/Experimental_stims/objects/fabian-blank-pElSkGRA2NU-unsplash.jpg,Stimuli/Experimental_stims/objects/alexander-andrews-JYGnB9gTCls-unsplash.jpg,0,0,22,1,chosen,36,40,objects,objects,1900,0,5,4
68,21859,0,69,1,1,0,no_gain4,gain2,A,B,38,14,objects,faces,39,28,Stimuli/Experimental_stims/objects/art-lasovsky-8XddFc6NkBY-unsplash.jpg,Stimuli/Experimental_stims/faces/david-siglin-UuW4psOb388-unsplash.jpg,0,0,13,1,unchosen,14,38,faces,objects,1100,0,5,4
69,21859,0,70,1,1,1,gain4,no_gain3,F,H,20,11,faces,outdoor_scenes,53,91,Stimuli/Experimental_stims/faces/justin-chen-J7Cf1Gch49E-unsplash.jpg,Stimuli/Experimental_stims/outdoor_scenes/stephen-leonardi-gyIRjKPXupE-unsplash.jpg,0,1,3,1,chosen,20,11,faces,outdoor_scenes,1300,0,5,4
70,21859,0,71,1,1,1,gain6,no_gain1,C,G,30,40,body_parts,objects,45,31,Stimuli/Experimental_stims/body_parts/mika-korhonen-Xodzxosar18-unsplash.jpg,Stimuli/Experimental_stims/objects/fabian-blank-pElSkGRA2NU-unsplash.jpg,0,1,190,1,chosen,30,40,body_parts,objects,2600,0,5,4
71,21859,0,72,1,1,0,no_gain5,gain5,D,K,43,24,objects,body_parts,67,75,Stimuli/Experimental_stims/objects/jonathan-greenaway-Y4hGgeiFn3s-unsplash.jpg,Stimuli/Experimental_stims/body_parts/clay-banks-LjqARJaJotc-unsplash.jpg,0,1,114,0,chosen,43,24,objects,body_parts,1100,0,5,4
72,21859,0,73,1,1,0,no_gain1,gain5,G,K,3,46,outdoor_scenes,objects,80,68,Stimuli/Experimental_stims/outdoor_scenes/henry-be-NLF6hTe4PAg-unsplash.jpg,Stimuli/Experimental_stims/objects/mockup-graphics-PNsj6RiHAF4-unsplash.jpg,0,0,122,1,unchosen,46,3,objects,outdoor_scenes,2500,0,5,4
73,21859,0,74,1,1,1,gain4,no_gain4,F,A,20,6,faces,outdoor_scenes,53,35,Stimuli/Experimental_stims/faces/justin-chen-J7Cf1Gch49E-unsplash.jpg,Stimuli/Experimental_stims/outdoor_scenes/meng-ji-8BH_M-53CyA-unsplash.jpg,0,0,41,0,chosen,6,20,outdoor_scenes,faces,2600,0,5,4
74,21859,0,75,1,1,0,no_gain1,gain5,G,K,40,24,objects,body_parts,31,75,Stimuli/Experimental_stims/objects/fabian-blank-pElSkGRA2NU-unsplash.jpg,Stimuli/Experimental_stims/body_parts/clay-banks-LjqARJaJotc-unsplash.jpg,0,1,247,0,chosen,40,24,objects,body_parts,1100,0,5,4
75,21859,0,76,1,1,1,gain3,no_gain5,J,D,15,18,faces,faces,75,20,Stimuli/Experimental_stims/faces/erik-lucatero-d2MSDujJl2g-unsplash.jpg,Stimuli/Experimental_stims/faces/jessica-radanavong-mrYkTuAesKE-unsplash.jpg,0,1,28,1,unchosen,15,18,faces,faces,4200,1,5,4
76,21859,0,77,2,2,1,gain4,no_gain6,F,L,25,13,body_parts,faces,72,75,Stimuli/Experimental_stims/body_parts/engin-akyurt-Q2rfH3GW39c-unsplash.jpg,Stimuli/Experimental_stims/faces/daniel-rigdon-dXmXKPP2L4E-unsplash.jpg,0,1,472,1,unchosen,25,13,body_parts,faces,1200,0,8,4
77,21859,0,78,2,2,1,gain4,no_gain3,F,H,25,22,body_parts,faces,72,64,Stimuli/Experimental_stims/body_parts/engin-akyurt-Q2rfH3GW39c-unsplash.jpg,Stimuli/Experimental_stims/faces/ravi-patel-VMGAbeeJTKo-unsplash.jpg,0,1,833,1,unchosen,25,22,body_parts,faces,1400,0,8,4
78,21859,0,79,2,2,1,gain5,no_gain2,K,I,46,0,objects,outdoor_scenes,68,77,Stimuli/Experimental_stims/objects/mockup-graphics-PNsj6RiHAF4-unsplash.jpg,Stimuli/Experimental_stims/outdoor_scenes/aleksandra-boguslawska-MS7KD9Ti7FQ-unsplash.jpg,0,1,211,1,unchosen,46,0,objects,outdoor_scenes,2800,0,8,4
79,21859,0,80,2,2,0,no_gain3,gain1,H,E,11,36,outdoor_scenes,objects,91,80,Stimuli/Experimental_stims/outdoor_scenes/stephen-leonardi-gyIRjKPXupE-unsplash.jpg,Stimuli/Experimental_stims/objects/alexander-andrews-JYGnB9gTCls-unsplash.jpg,0,1,245,0,chosen,11,36,outdoor_scenes,objects,1700,0,8,4
80,21859,0,81,2,2,0,no_gain5,gain6,D,C,18,4,faces,outdoor_scenes,20,87,Stimuli/Experimental_stims/faces/jessica-radanavong-mrYkTuAesKE-unsplash.jpg,Stimuli/Experimental_stims/outdoor_scenes/jarrett-kow-1ZOyYPOBn7I-unsplash.jpg,0,1,408,0,unchosen,18,4,faces,outdoor_scenes,3700,1,8,4
81,21859,0,82,2,2,1,gain1,no_gain4,E,A,32,38,body_parts,objects,47,39,Stimuli/Experimental_stims/body_parts/towfiqu-barbhuiya-3AsiVDsZnHg-unsplash.jpg,Stimuli/Experimental_stims/objects/art-lasovsky-8XddFc6NkBY-unsplash.jpg,0,1,236,1,unchosen,32,38,body_parts,objects,2300,0,8,4
82,21859,0,83,2,2,0,no_gain1,gain1,G,E,40,36,objects,objects,31,80,Stimuli/Experimental_stims/objects/fabian-blank-pElSkGRA2NU-unsplash.jpg,Stimuli/Experimental_stims/objects/alexander-andrews-JYGnB9gTCls-unsplash.jpg,0,1,177,0,chosen,40,36,objects,objects,2900,0,8,4
83,21859,0,84,2,2,0,no_gain3,gain5,H,K,22,46,faces,objects,64,68,Stimuli/Experimental_stims/faces/ravi-patel-VMGAbeeJTKo-unsplash.jpg,Stimuli/Experimental_stims/objects/mockup-graphics-PNsj6RiHAF4-unsplash.jpg,0,0,159,1,unchosen,46,22,objects,faces,2300,0,8,4
84,21859,0,85,2,2,0,no_gain2,gain1,I,E,27,36,body_parts,objects,82,80,Stimuli/Experimental_stims/body_parts/heike-mintel-i_Gns0ELnLw-unsplash.jpg,Stimuli/Experimental_stims/objects/alexander-andrews-JYGnB9gTCls-unsplash.jpg,0,0,97,1,chosen,36,27,objects,body_parts,1200,0,8,4
85,21859,0,86,2,2,0,no_gain1,gain1,G,E,3,32,outdoor_scenes,body_parts,80,47,Stimuli/Experimental_stims/outdoor_scenes/henry-be-NLF6hTe4PAg-unsplash.jpg,Stimuli/Experimental_stims/body_parts/towfiqu-barbhuiya-3AsiVDsZnHg-unsplash.jpg,0,0,67,1,unchosen,32,3,body_parts,outdoor_scenes,3100,1,8,4
86,21859,0,87,2,2,0,no_gain2,gain4,I,F,27,20,body_parts,faces,82,53,Stimuli/Experimental_stims/body_parts/heike-mintel-i_Gns0ELnLw-unsplash.jpg,Stimuli/Experimental_stims/faces/justin-chen-J7Cf1Gch49E-unsplash.jpg,0,0,99,1,chosen,20,27,faces,body_parts,1200,0,8,4
87,21859,0,88,2,2,0,no_gain5,gain2,D,B,18,14,faces,faces,20,28,Stimuli/Experimental_stims/faces/jessica-radanavong-mrYkTuAesKE-unsplash.jpg,Stimuli/Experimental_stims/faces/david-siglin-UuW4psOb388-unsplash.jpg,0,1,1,0,unchosen,18,14,faces,faces,1900,0,8,4
88,21859,0,89,2,2,1,gain6,no_gain1,C,G,30,40,body_parts,objects,45,31,Stimuli/Experimental_stims/body_parts/mika-korhonen-Xodzxosar18-unsplash.jpg,Stimuli/Experimental_stims/objects/fabian-blank-pElSkGRA2NU-unsplash.jpg,0,0,287,0,chosen,40,30,objects,body_parts,2800,0,8,4
89,21859,0,90,2,2,1,gain5,no_gain3,K,H,24,11,body_parts,outdoor_scenes,75,91,Stimuli/Experimental_stims/body_parts/clay-banks-LjqARJaJotc-unsplash.jpg,Stimuli/Experimental_stims/outdoor_scenes/stephen-leonardi-gyIRjKPXupE-unsplash.jpg,0,0,35,0,chosen,11,24,outdoor_scenes,body_parts,1200,0,8,4
90,21859,0,91,2,2,1,gain4,no_gain4,F,A,25,38,body_parts,objects,72,39,Stimuli/Experimental_stims/body_parts/engin-akyurt-Q2rfH3GW39c-unsplash.jpg,Stimuli/Experimental_stims/objects/art-lasovsky-8XddFc6NkBY-unsplash.jpg,0,0,85,0,unchosen,38,25,objects,body_parts,3800,1,8,4
91,21859,0,92,2,2,0,no_gain1,gain2,G,B,3,14,outdoor_scenes,faces,80,28,Stimuli/Experimental_stims/outdoor_scenes/henry-be-NLF6hTe4PAg-unsplash.jpg,Stimuli/Experimental_stims/faces/david-siglin-UuW4psOb388-unsplash.jpg,0,0,33,1,unchosen,14,3,faces,outdoor_scenes,1800,0,8,4
92,21859,0,93,2,2,0,no_gain3,gain4,H,F,11,20,outdoor_scenes,faces,91,53,Stimuli/Experimental_stims/outdoor_scenes/stephen-leonardi-gyIRjKPXupE-unsplash.jpg,Stimuli/Experimental_stims/faces/justin-chen-J7Cf1Gch49E-unsplash.jpg,0,0,158,1,chosen,20,11,faces,outdoor_scenes,2300,0,8,4
93,21859,0,94,2,2,1,gain5,no_gain1,K,G,24,40,body_parts,objects,75,31,Stimuli/Experimental_stims/body_parts/clay-banks-LjqARJaJotc-unsplash.jpg,Stimuli/Experimental_stims/objects/fabian-blank-pElSkGRA2NU-unsplash.jpg,0,0,408,0,chosen,40,24,objects,body_parts,1400,0,8,4
94,21859,0,95,2,2,0,no_gain5,gain4,D,F,18,25,faces,body_parts,20,72,Stimuli/Experimental_stims/faces/jessica-radanavong-mrYkTuAesKE-unsplash.jpg,Stimuli/Experimental_stims/body_parts/engin-akyurt-Q2rfH3GW39c-unsplash.jpg,0,1,579,0,unchosen,18,25,faces,body_parts,1300,0,8,4
95,21859,0,96,2,2,1,gain4,no_gain5,F,D,20,43,faces,objects,53,67,Stimuli/Experimental_stims/faces/justin-chen-J7Cf1Gch49E-unsplash.jpg,Stimuli/Experimental_stims/objects/jonathan-greenaway-Y4hGgeiFn3s-unsplash.jpg,0,1,151,1,chosen,20,43,faces,objects,1700,0,8,4
96,21859,0,97,2,2,1,gain5,no_gain1,K,G,46,3,objects,outdoor_scenes,68,80,Stimuli/Experimental_stims/objects/mockup-graphics-PNsj6RiHAF4-unsplash.jpg,Stimuli/Experimental_stims/outdoor_scenes/henry-be-NLF6hTe4PAg-unsplash.jpg,0,1,19,1,unchosen,46,3,objects,outdoor_scenes,3100,1,8,4
97,21859,0,98,2,2,1,gain1,no_gain6,E,L,36,33,objects,body_parts,80,24,Stimuli/Experimental_stims/objects/alexander-andrews-JYGnB9gTCls-unsplash.jpg,Stimuli/Experimental_stims/body_parts/tucker-good-36skLT5jZcc-unsplash.jpg,0,1,1026,1,chosen,36,33,objects,body_parts,1300,0,8,4
98,21859,0,99,2,2,0,no_gain2,gain1,I,E,0,32,outdoor_scenes,body_parts,77,47,Stimuli/Experimental_stims/outdoor_scenes/aleksandra-boguslawska-MS7KD9Ti7FQ-unsplash.jpg,Stimuli/Experimental_stims/body_parts/towfiqu-barbhuiya-3AsiVDsZnHg-unsplash.jpg,0,1,116,0,unchosen,0,32,outdoor_scenes,body_parts,2100,0,8,4
99,21859,0,100,2,2,1,gain2,no_gain3,B,H,1,11,outdoor_scenes,outdoor_scenes,30,91,Stimuli/Experimental_stims/outdoor_scenes/ashim-d-silva-S2Q5mdOrrVc-unsplash.jpg,Stimuli/Experimental_stims/outdoor_scenes/stephen-leonardi-gyIRjKPXupE-unsplash.jpg,0,0,33,0,chosen,11,1,outdoor_scenes,outdoor_scenes,1000,0,8,4
100,21859,0,101,2,2,1,gain2,no_gain2,B,I,1,27,outdoor_scenes,body_parts,30,82,Stimuli/Experimental_stims/outdoor_scenes/ashim-d-silva-S2Q5mdOrrVc-unsplash.jpg,Stimuli/Experimental_stims/body_parts/heike-mintel-i_Gns0ELnLw-unsplash.jpg,0,1,330,1,chosen,1,27,outdoor_scenes,body_parts,1200,0,8,4
101,21859,0,102,2,2,1,gain3,no_gain1,J,G,47,40,objects,objects,70,31,Stimuli/Experimental_stims/objects/ronaldo-arthur-vidal-Cdz_lvnl37k-unsplash.jpg,Stimuli/Experimental_stims/objects/fabian-blank-pElSkGRA2NU-unsplash.jpg,0,0,146,0,chosen,40,47,objects,objects,1700,0,8,4
102,21859,0,103,2,2,0,no_gain5,gain5,D,K,18,46,faces,objects,20,68,Stimuli/Experimental_stims/faces/jessica-radanavong-mrYkTuAesKE-unsplash.jpg,Stimuli/Experimental_stims/objects/mockup-graphics-PNsj6RiHAF4-unsplash.jpg,0,0,27,1,unchosen,46,18,objects,faces,1100,0,8,4
103,21859,0,104,2,2,0,no_gain6,gain5,L,K,33,24,body_parts,body_parts,24,75,Stimuli/Experimental_stims/body_parts/tucker-good-36skLT5jZcc-unsplash.jpg,Stimuli/Experimental_stims/body_parts/clay-banks-LjqARJaJotc-unsplash.jpg,0,1,121,0,chosen,33,24,body_parts,body_parts,1900,0,8,4
104,21859,0,105,2,2,0,no_gain2,gain3,I,J,27,47,body_parts,objects,82,70,Stimuli/Experimental_stims/body_parts/heike-mintel-i_Gns0ELnLw-unsplash.jpg,Stimuli/Experimental_stims/objects/ronaldo-arthur-vidal-Cdz_lvnl37k-unsplash.jpg,0,1,229,0,chosen,27,47,body_parts,objects,4100,1,8,4
105,21859,0,106,2,2,0,no_gain1,gain4,G,F,3,25,outdoor_scenes,body_parts,80,72,Stimuli/Experimental_stims/outdoor_scenes/henry-be-NLF6hTe4PAg-unsplash.jpg,Stimuli/Experimental_stims/body_parts/engin-akyurt-Q2rfH3GW39c-unsplash.jpg,0,0,223,1,unchosen,25,3,body_parts,outdoor_scenes,1400,0,8,4
106,21859,0,107,2,2,0,no_gain4,gain2,A,B,38,14,objects,faces,39,28,Stimuli/Experimental_stims/objects/art-lasovsky-8XddFc6NkBY-unsplash.jpg,Stimuli/Experimental_stims/faces/david-siglin-UuW4psOb388-unsplash.jpg,0,0,16,1,unchosen,14,38,faces,objects,2400,0,8,4
107,21859,0,108,2,2,0,no_gain5,gain1,D,E,43,36,objects,objects,67,80,Stimuli/Experimental_stims/objects/jonathan-greenaway-Y4hGgeiFn3s-unsplash.jpg,Stimuli/Experimental_stims/objects/alexander-andrews-JYGnB9gTCls-unsplash.jpg,0,0,91,1,chosen,36,43,objects,objects,1200,0,8,4
108,21859,0,109,2,2,1,gain6,no_gain1,C,G,4,3,outdoor_scenes,outdoor_scenes,87,80,Stimuli/Experimental_stims/outdoor_scenes/jarrett-kow-1ZOyYPOBn7I-unsplash.jpg,Stimuli/Experimental_stims/outdoor_scenes/henry-be-NLF6hTe4PAg-unsplash.jpg,0,1,63,1,unchosen,4,3,outdoor_scenes,outdoor_scenes,1500,0,8,4
109,21859,0,110,2,2,1,gain1,no_gain6,E,L,32,13,body_parts,faces,47,75,Stimuli/Experimental_stims/body_parts/towfiqu-barbhuiya-3AsiVDsZnHg-unsplash.jpg,Stimuli/Experimental_stims/faces/daniel-rigdon-dXmXKPP2L4E-unsplash.jpg,0,0,61,0,unchosen,13,32,faces,body_parts,3200,1,8,4
110,21859,0,111,2,2,0,no_gain5,gain2,D,B,43,1,objects,outdoor_scenes,67,30,Stimuli/Experimental_stims/objects/jonathan-greenaway-Y4hGgeiFn3s-unsplash.jpg,Stimuli/Experimental_stims/outdoor_scenes/ashim-d-silva-S2Q5mdOrrVc-unsplash.jpg,0,1,482,0,chosen,43,1,objects,outdoor_scenes,1800,0,8,4
111,21859,0,112,2,2,0,no_gain5,gain1,D,E,18,32,faces,body_parts,20,47,Stimuli/Experimental_stims/faces/jessica-radanavong-mrYkTuAesKE-unsplash.jpg,Stimuli/Experimental_stims/body_parts/towfiqu-barbhuiya-3AsiVDsZnHg-unsplash.jpg,0,1,403,0,unchosen,18,32,faces,body_parts,1100,0,8,4
112,21859,0,113,2,2,1,gain2,no_gain6,B,L,14,13,faces,faces,28,75,Stimuli/Experimental_stims/faces/david-siglin-UuW4psOb388-unsplash.jpg,Stimuli/Experimental_stims/faces/daniel-rigdon-dXmXKPP2L4E-unsplash.jpg,0,1,191,1,unchosen,14,13,faces,faces,1700,0,8,4
113,21859,0,114,2,2,1,gain6,no_gain4,C,A,30,6,body_parts,outdoor_scenes,45,35,Stimuli/Experimental_stims/body_parts/mika-korhonen-Xodzxosar18-unsplash.jpg,Stimuli/Experimental_stims/outdoor_scenes/meng-ji-8BH_M-53CyA-unsplash.jpg,0,1,28,1,chosen,30,6,body_parts,outdoor_scenes,2700,0,8,4
114,21859,0,115,2,2,1,gain6,no_gain3,C,H,4,22,outdoor_scenes,faces,87,64,Stimuli/Experimental_stims/outdoor_scenes/jarrett-kow-1ZOyYPOBn7I-unsplash.jpg,Stimuli/Experimental_stims/faces/ravi-patel-VMGAbeeJTKo-unsplash.jpg,0,1,232,1,unchosen,4,22,outdoor_scenes,faces,1100,0,8,4
115,21859,0,116,2,2,0,no_gain6,gain4,L,F,33,20,body_parts,faces,24,53,Stimuli/Experimental_stims/body_parts/tucker-good-36skLT5jZcc-unsplash.jpg,Stimuli/Experimental_stims/faces/justin-chen-J7Cf1Gch49E-unsplash.jpg,0,0,253,1,chosen,20,33,faces,body_parts,1100,0,8,4
116,21859,0,117,2,2,0,no_gain1,gain3,G,J,3,15,outdoor_scenes,faces,80,75,Stimuli/Experimental_stims/outdoor_scenes/henry-be-NLF6hTe4PAg-unsplash.jpg,Stimuli/Experimental_stims/faces/erik-lucatero-d2MSDujJl2g-unsplash.jpg,0,1,112,0,unchosen,3,15,outdoor_scenes,faces,2400,0,8,4
117,21859,0,118,2,2,1,gain3,no_gain6,J,L,47,33,objects,body_parts,70,24,Stimuli/Experimental_stims/objects/ronaldo-arthur-vidal-Cdz_lvnl37k-unsplash.jpg,Stimuli/Experimental_stims/body_parts/tucker-good-36skLT5jZcc-unsplash.jpg,0,0,123,0,chosen,33,47,body_parts,objects,3400,1,8,4
118,21859,0,119,2,2,1,gain3,no_gain3,J,H,47,11,objects,outdoor_scenes,70,91,Stimuli/Experimental_stims/objects/ronaldo-arthur-vidal-Cdz_lvnl37k-unsplash.jpg,Stimuli/Experimental_stims/outdoor_scenes/stephen-leonardi-gyIRjKPXupE-unsplash.jpg,0,1,56,1,chosen,47,11,objects,outdoor_scenes,2000,0,8,4
119,21859,0,120,2,2,0,no_gain6,gain3,L,J,13,15,faces,faces,75,75,Stimuli/Experimental_stims/faces/daniel-rigdon-dXmXKPP2L4E-unsplash.jpg,Stimuli/Experimental_stims/faces/erik-lucatero-d2MSDujJl2g-unsplash.jpg,0,1,198,0,unchosen,13,15,faces,faces,2100,0,8,4
120,21859,0,121,2,2,0,no_gain2,gain6,I,C,0,4,outdoor_scenes,outdoor_scenes,77,87,Stimuli/Experimental_stims/outdoor_scenes/aleksandra-boguslawska-MS7KD9Ti7FQ-unsplash.jpg,Stimuli/Experimental_stims/outdoor_scenes/jarrett-kow-1ZOyYPOBn7I-unsplash.jpg,0,1,180,0,unchosen,0,4,outdoor_scenes,outdoor_scenes,2500,0,8,4
121,21859,0,122,2,2,1,gain5,no_gain4,K,A,46,38,objects,objects,68,39,Stimuli/Experimental_stims/objects/mockup-graphics-PNsj6RiHAF4-unsplash.jpg,Stimuli/Experimental_stims/objects/art-lasovsky-8XddFc6NkBY-unsplash.jpg,0,1,441,1,unchosen,46,38,objects,objects,1600,0,8,4
122,21859,0,123,2,2,1,gain2,no_gain4,B,A,1,6,outdoor_scenes,outdoor_scenes,30,35,Stimuli/Experimental_stims/outdoor_scenes/ashim-d-silva-S2Q5mdOrrVc-unsplash.jpg,Stimuli/Experimental_stims/outdoor_scenes/meng-ji-8BH_M-53CyA-unsplash.jpg,0,0,90,0,chosen,6,1,outdoor_scenes,outdoor_scenes,2400,0,8,4
123,21859,0,124,2,2,1,gain4,no_gain1,F,G,20,40,faces,objects,53,31,Stimuli/Experimental_stims/faces/justin-chen-J7Cf1Gch49E-unsplash.jpg,Stimuli/Experimental_stims/objects/fabian-blank-pElSkGRA2NU-unsplash.jpg,0,0,117,0,chosen,40,20,objects,faces,1300,0,8,4
124,21859,0,125,2,2,1,gain3,no_gain4,J,A,15,38,faces,objects,75,39,Stimuli/Experimental_stims/faces/erik-lucatero-d2MSDujJl2g-unsplash.jpg,Stimuli/Experimental_stims/objects/art-lasovsky-8XddFc6NkBY-unsplash.jpg,0,1,369,1,unchosen,15,38,faces,objects,1900,0,8,4
125,21859,0,126,2,2,1,gain2,no_gain1,B,G,1,40,outdoor_scenes,objects,30,31,Stimuli/Experimental_stims/outdoor_scenes/ashim-d-silva-S2Q5mdOrrVc-unsplash.jpg,Stimuli/Experimental_stims/objects/fabian-blank-pElSkGRA2NU-unsplash.jpg,0,1,18,1,chosen,1,40,outdoor_scenes,objects,1600,0,8,4
126,21859,0,127,2,2,0,no_gain2,gain5,I,K,27,24,body_parts,body_parts,82,75,Stimuli/Experimental_stims/body_parts/heike-mintel-i_Gns0ELnLw-unsplash.jpg,Stimuli/Experimental_stims/body_parts/clay-banks-LjqARJaJotc-unsplash.jpg,0,0,95,1,chosen,24,27,body_parts,body_parts,1100,0,8,4
127,21859,0,128,2,2,1,gain3,no_gain2,J,I,15,0,faces,outdoor_scenes,75,77,Stimuli/Experimental_stims/faces/erik-lucatero-d2MSDujJl2g-unsplash.jpg,Stimuli/Experimental_stims/outdoor_scenes/aleksandra-boguslawska-MS7KD9Ti7FQ-unsplash.jpg,0,0,48,0,unchosen,0,15,outdoor_scenes,faces,1200,0,8,4
128,21859,0,129,2,2,1,gain3,no_gain3,J,H,15,22,faces,faces,75,64,Stimuli/Experimental_stims/faces/erik-lucatero-d2MSDujJl2g-unsplash.jpg,Stimuli/Experimental_stims/faces/ravi-patel-VMGAbeeJTKo-unsplash.jpg,0,0,477,0,unchosen,22,15,faces,faces,1300,0,8,4
129,21859,0,130,2,2,1,gain4,no_gain4,F,A,20,6,faces,outdoor_scenes,53,35,Stimuli/Experimental_stims/faces/justin-chen-J7Cf1Gch49E-unsplash.jpg,Stimuli/Experimental_stims/outdoor_scenes/meng-ji-8BH_M-53CyA-unsplash.jpg,0,0,84,0,chosen,6,20,outdoor_scenes,faces,1000,0,8,4
130,21859,0,131,2,2,0,no_gain4,gain1,A,E,6,36,outdoor_scenes,objects,35,80,Stimuli/Experimental_stims/outdoor_scenes/meng-ji-8BH_M-53CyA-unsplash.jpg,Stimuli/Experimental_stims/objects/alexander-andrews-JYGnB9gTCls-unsplash.jpg,0,0,77,1,chosen,36,6,objects,outdoor_scenes,2900,0,8,4
131,21859,0,132,2,2,0,no_gain2,gain6,I,C,27,30,body_parts,body_parts,82,45,Stimuli/Experimental_stims/body_parts/heike-mintel-i_Gns0ELnLw-unsplash.jpg,Stimuli/Experimental_stims/body_parts/mika-korhonen-Xodzxosar18-unsplash.jpg,0,0,16,1,chosen,30,27,body_parts,body_parts,2200,0,8,4
132,21859,0,133,2,2,0,no_gain3,gain2,H,B,22,14,faces,faces,64,28,Stimuli/Experimental_stims/faces/ravi-patel-VMGAbeeJTKo-unsplash.jpg,Stimuli/Experimental_stims/faces/david-siglin-UuW4psOb388-unsplash.jpg,0,1,112,0,unchosen,22,14,faces,faces,3200,1,8,4
133,21859,0,134,2,2,1,gain1,no_gain3,E,H,32,22,body_parts,faces,47,64,Stimuli/Experimental_stims/body_parts/towfiqu-barbhuiya-3AsiVDsZnHg-unsplash.jpg,Stimuli/Experimental_stims/faces/ravi-patel-VMGAbeeJTKo-unsplash.jpg,0,1,123,1,unchosen,32,22,body_parts,faces,2600,0,8,4
134,21859,0,135,2,2,0,no_gain6,gain6,L,C,13,4,faces,outdoor_scenes,75,87,Stimuli/Experimental_stims/faces/daniel-rigdon-dXmXKPP2L4E-unsplash.jpg,Stimuli/Experimental_stims/outdoor_scenes/jarrett-kow-1ZOyYPOBn7I-unsplash.jpg,0,1,30,0,unchosen,13,4,faces,outdoor_scenes,1200,0,8,4
135,21859,0,136,2,2,0,no_gain4,gain3,A,J,6,47,outdoor_scenes,objects,35,70,Stimuli/Experimental_stims/outdoor_scenes/meng-ji-8BH_M-53CyA-unsplash.jpg,Stimuli/Experimental_stims/objects/ronaldo-arthur-vidal-Cdz_lvnl37k-unsplash.jpg,0,0,9,1,chosen,47,6,objects,outdoor_scenes,1100,0,8,4
136,21859,0,137,2,2,1,gain5,no_gain6,K,L,46,13,objects,faces,68,75,Stimuli/Experimental_stims/objects/mockup-graphics-PNsj6RiHAF4-unsplash.jpg,Stimuli/Experimental_stims/faces/daniel-rigdon-dXmXKPP2L4E-unsplash.jpg,0,0,201,0,unchosen,13,46,faces,objects,2000,0,8,4
137,21859,0,138,2,2,0,no_gain6,gain2,L,B,33,1,body_parts,outdoor_scenes,24,30,Stimuli/Experimental_stims/body_parts/tucker-good-36skLT5jZcc-unsplash.jpg,Stimuli/Experimental_stims/outdoor_scenes/ashim-d-silva-S2Q5mdOrrVc-unsplash.jpg,0,0,140,1,chosen,1,33,outdoor_scenes,body_parts,4100,1,8,4
138,21859,0,139,2,2,0,no_gain2,gain4,I,F,0,25,outdoor_scenes,body_parts,77,72,Stimuli/Experimental_stims/outdoor_scenes/aleksandra-boguslawska-MS7KD9Ti7FQ-unsplash.jpg,Stimuli/Experimental_stims/body_parts/engin-akyurt-Q2rfH3GW39c-unsplash.jpg,0,0,5,1,unchosen,25,0,body_parts,outdoor_scenes,1700,0,8,4
139,21859,0,140,2,2,0,no_gain2,gain2,I,B,0,14,outdoor_scenes,faces,77,28,Stimuli/Experimental_stims/outdoor_scenes/aleksandra-boguslawska-MS7KD9Ti7FQ-unsplash.jpg,Stimuli/Experimental_stims/faces/david-siglin-UuW4psOb388-unsplash.jpg,0,1,39,0,unchosen,0,14,outdoor_scenes,faces,1200,0,8,4
140,21859,0,141,2,2,1,gain6,no_gain3,C,H,30,11,body_parts,outdoor_scenes,45,91,Stimuli/Experimental_stims/body_parts/mika-korhonen-Xodzxosar18-unsplash.jpg,Stimuli/Experimental_stims/outdoor_scenes/stephen-leonardi-gyIRjKPXupE-unsplash.jpg,0,0,109,0,chosen,11,30,outdoor_scenes,body_parts,1000,0,8,4
141,21859,0,142,2,2,0,no_gain5,gain5,D,K,43,24,objects,body_parts,67,75,Stimuli/Experimental_stims/objects/jonathan-greenaway-Y4hGgeiFn3s-unsplash.jpg,Stimuli/Experimental_stims/body_parts/clay-banks-LjqARJaJotc-unsplash.jpg,0,1,29,0,chosen,43,24,objects,body_parts,1800,0,8,4
142,21859,0,143,2,2,0,no_gain5,gain6,D,C,43,30,objects,body_parts,67,45,Stimuli/Experimental_stims/objects/jonathan-greenaway-Y4hGgeiFn3s-unsplash.jpg,Stimuli/Experimental_stims/body_parts/mika-korhonen-Xodzxosar18-unsplash.jpg,0,0,26,1,chosen,30,43,body_parts,objects,3500,1,8,4
143,21859,0,144,2,2,1,gain6,no_gain4,C,A,4,38,outdoor_scenes,objects,87,39,Stimuli/Experimental_stims/outdoor_scenes/jarrett-kow-1ZOyYPOBn7I-unsplash.jpg,Stimuli/Experimental_stims/objects/art-lasovsky-8XddFc6NkBY-unsplash.jpg,0,1,19,1,unchosen,4,38,outdoor_scenes,objects,2700,0,8,4
144,21859,0,145,2,2,1,gain6,no_gain6,C,L,30,33,body_parts,body_parts,45,24,Stimuli/Experimental_stims/body_parts/mika-korhonen-Xodzxosar18-unsplash.jpg,Stimuli/Experimental_stims/body_parts/tucker-good-36skLT5jZcc-unsplash.jpg,0,0,52,0,chosen,33,30,body_parts,body_parts,2400,0,8,4
145,21859,0,146,2,2,1,gain3,no_gain5,J,D,15,18,faces,faces,75,20,Stimuli/Experimental_stims/faces/erik-lucatero-d2MSDujJl2g-unsplash.jpg,Stimuli/Experimental_stims/faces/jessica-radanavong-mrYkTuAesKE-unsplash.jpg,0,0,57,0,unchosen,18,15,faces,faces,1400,0,8,4
146,21859,0,147,2,2,1,gain5,no_gain4,K,A,24,6,body_parts,outdoor_scenes,75,35,Stimuli/Experimental_stims/body_parts/clay-banks-LjqARJaJotc-unsplash.jpg,Stimuli/Experimental_stims/outdoor_scenes/meng-ji-8BH_M-53CyA-unsplash.jpg,0,0,14,0,chosen,6,24,outdoor_scenes,body_parts,1200,0,8,4
147,21859,0,148,2,2,0,no_gain5,gain3,D,J,43,47,objects,objects,67,70,Stimuli/Experimental_stims/objects/jonathan-greenaway-Y4hGgeiFn3s-unsplash.jpg,Stimuli/Experimental_stims/objects/ronaldo-arthur-vidal-Cdz_lvnl37k-unsplash.jpg,0,0,0,1,chosen,47,43,objects,objects,3300,1,8,4
148,21859,0,149,3,3,1,gain5,no_gain3,K,H,24,11,body_parts,outdoor_scenes,75,91,Stimuli/Experimental_stims/body_parts/clay-banks-LjqARJaJotc-unsplash.jpg,Stimuli/Experimental_stims/outdoor_scenes/stephen-leonardi-gyIRjKPXupE-unsplash.jpg,1,NaN,,NaN,chosen,NaN,NaN,NaN,NaN,3900,1,7,4
149,21859,0,150,3,3,0,no_gain3,gain4,H,F,11,20,outdoor_scenes,faces,91,53,Stimuli/Experimental_stims/outdoor_scenes/stephen-leonardi-gyIRjKPXupE-unsplash.jpg,Stimuli/Experimental_stims/faces/justin-chen-J7Cf1Gch49E-unsplash.jpg,0,0,18,1,chosen,20,11,faces,outdoor_scenes,1200,0,7,4
150,21859,0,151,3,3,1,gain6,no_gain3,C,H,30,11,body_parts,outdoor_scenes,45,91,Stimuli/Experimental_stims/body_parts/mika-korhonen-Xodzxosar18-unsplash.jpg,Stimuli/Experimental_stims/outdoor_scenes/stephen-leonardi-gyIRjKPXupE-unsplash.jpg,0,1,25,1,chosen,30,11,body_parts,outdoor_scenes,1500,0,7,4
151,21859,0,152,3,3,1,gain4,no_gain4,F,A,25,38,body_parts,objects,72,39,Stimuli/Experimental_stims/body_parts/engin-akyurt-Q2rfH3GW39c-unsplash.jpg,Stimuli/Experimental_stims/objects/art-lasovsky-8XddFc6NkBY-unsplash.jpg,0,0,91,0,unchosen,38,25,objects,body_parts,2700,0,7,4
152,21859,0,153,3,3,1,gain5,no_gain5,K,D,46,18,objects,faces,68,20,Stimuli/Experimental_stims/objects/mockup-graphics-PNsj6RiHAF4-unsplash.jpg,Stimuli/Experimental_stims/faces/jessica-radanavong-mrYkTuAesKE-unsplash.jpg,0,1,169,1,unchosen,46,18,objects,faces,1300,0,7,4
153,21859,0,154,3,3,0,no_gain6,gain1,L,E,33,36,body_parts,objects,24,80,Stimuli/Experimental_stims/body_parts/tucker-good-36skLT5jZcc-unsplash.jpg,Stimuli/Experimental_stims/objects/alexander-andrews-JYGnB9gTCls-unsplash.jpg,0,1,330,0,chosen,33,36,body_parts,objects,1000,0,7,4
154,21859,0,155,3,3,1,gain1,no_gain3,E,H,36,11,objects,outdoor_scenes,80,91,Stimuli/Experimental_stims/objects/alexander-andrews-JYGnB9gTCls-unsplash.jpg,Stimuli/Experimental_stims/outdoor_scenes/stephen-leonardi-gyIRjKPXupE-unsplash.jpg,0,1,1,1,chosen,36,11,objects,outdoor_scenes,3000,1,7,4
155,21859,0,156,3,3,0,no_gain2,gain3,I,J,0,15,outdoor_scenes,faces,77,75,Stimuli/Experimental_stims/outdoor_scenes/aleksandra-boguslawska-MS7KD9Ti7FQ-unsplash.jpg,Stimuli/Experimental_stims/faces/erik-lucatero-d2MSDujJl2g-unsplash.jpg,0,0,196,1,unchosen,15,0,faces,outdoor_scenes,2800,0,7,4
156,21859,0,157,3,3,1,gain3,no_gain5,J,D,47,43,objects,objects,70,67,Stimuli/Experimental_stims/objects/ronaldo-arthur-vidal-Cdz_lvnl37k-unsplash.jpg,Stimuli/Experimental_stims/objects/jonathan-greenaway-Y4hGgeiFn3s-unsplash.jpg,0,1,275,1,chosen,47,43,objects,objects,1400,0,7,4
157,21859,0,158,3,3,1,gain1,no_gain1,E,G,36,40,objects,objects,80,31,Stimuli/Experimental_stims/objects/alexander-andrews-JYGnB9gTCls-unsplash.jpg,Stimuli/Experimental_stims/objects/fabian-blank-pElSkGRA2NU-unsplash.jpg,0,1,11,1,chosen,36,40,objects,objects,2500,0,7,4
158,21859,0,159,3,3,0,no_gain3,gain2,H,B,22,14,faces,faces,64,28,Stimuli/Experimental_stims/faces/ravi-patel-VMGAbeeJTKo-unsplash.jpg,Stimuli/Experimental_stims/faces/david-siglin-UuW4psOb388-unsplash.jpg,0,0,329,1,unchosen,14,22,faces,faces,1600,0,7,4
159,21859,0,160,3,3,1,gain2,no_gain4,B,A,14,38,faces,objects,28,39,Stimuli/Experimental_stims/faces/david-siglin-UuW4psOb388-unsplash.jpg,Stimuli/Experimental_stims/objects/art-lasovsky-8XddFc6NkBY-unsplash.jpg,0,0,60,0,unchosen,38,14,objects,faces,3600,1,7,4
160,21859,0,161,3,3,0,no_gain4,gain5,A,K,38,46,objects,objects,39,68,Stimuli/Experimental_stims/objects/art-lasovsky-8XddFc6NkBY-unsplash.jpg,Stimuli/Experimental_stims/objects/mockup-graphics-PNsj6RiHAF4-unsplash.jpg,0,1,1,0,unchosen,38,46,objects,objects,1200,0,7,4
161,21859,0,162,3,3,0,no_gain5,gain4,D,F,43,20,objects,faces,67,53,Stimuli/Experimental_stims/objects/jonathan-greenaway-Y4hGgeiFn3s-unsplash.jpg,Stimuli/Experimental_stims/faces/justin-chen-J7Cf1Gch49E-unsplash.jpg,0,1,81,0,chosen,43,20,objects,faces,1800,0,7,4
162,21859,0,163,3,3,1,gain2,no_gain5,B,D,1,43,outdoor_scenes,objects,30,67,Stimuli/Experimental_stims/outdoor_scenes/ashim-d-silva-S2Q5mdOrrVc-unsplash.jpg,Stimuli/Experimental_stims/objects/jonathan-greenaway-Y4hGgeiFn3s-unsplash.jpg,0,1,72,1,chosen,1,43,outdoor_scenes,objects,2800,0,7,4
163,21859,0,164,3,3,1,gain5,no_gain6,K,L,46,13,objects,faces,68,75,Stimuli/Experimental_stims/objects/mockup-graphics-PNsj6RiHAF4-unsplash.jpg,Stimuli/Experimental_stims/faces/daniel-rigdon-dXmXKPP2L4E-unsplash.jpg,0,0,129,0,unchosen,13,46,faces,objects,2100,0,7,4
164,21859,0,165,3,3,0,no_gain4,gain3,A,J,6,47,outdoor_scenes,objects,35,70,Stimuli/Experimental_stims/outdoor_scenes/meng-ji-8BH_M-53CyA-unsplash.jpg,Stimuli/Experimental_stims/objects/ronaldo-arthur-vidal-Cdz_lvnl37k-unsplash.jpg,0,1,143,0,chosen,6,47,outdoor_scenes,objects,1500,0,7,4
165,21859,0,166,3,3,0,no_gain1,gain5,G,K,40,24,objects,body_parts,31,75,Stimuli/Experimental_stims/objects/fabian-blank-pElSkGRA2NU-unsplash.jpg,Stimuli/Experimental_stims/body_parts/clay-banks-LjqARJaJotc-unsplash.jpg,0,0,2,1,chosen,24,40,body_parts,objects,2100,0,7,4
166,21859,0,167,3,3,0,no_gain3,gain2,H,B,11,1,outdoor_scenes,outdoor_scenes,91,30,Stimuli/Experimental_stims/outdoor_scenes/stephen-leonardi-gyIRjKPXupE-unsplash.jpg,Stimuli/Experimental_stims/outdoor_scenes/ashim-d-silva-S2Q5mdOrrVc-unsplash.jpg,0,1,235,0,chosen,11,1,outdoor_scenes,outdoor_scenes,3600,1,7,4
167,21859,0,168,3,3,1,gain6,no_gain4,C,A,4,38,outdoor_scenes,objects,87,39,Stimuli/Experimental_stims/outdoor_scenes/jarrett-kow-1ZOyYPOBn7I-unsplash.jpg,Stimuli/Experimental_stims/objects/art-lasovsky-8XddFc6NkBY-unsplash.jpg,0,1,578,1,unchosen,4,38,outdoor_scenes,objects,1300,0,7,4
168,21859,0,169,3,3,0,no_gain4,gain2,A,B,6,1,outdoor_scenes,outdoor_scenes,35,30,Stimuli/Experimental_stims/outdoor_scenes/meng-ji-8BH_M-53CyA-unsplash.jpg,Stimuli/Experimental_stims/outdoor_scenes/ashim-d-silva-S2Q5mdOrrVc-unsplash.jpg,0,1,245,0,chosen,6,1,outdoor_scenes,outdoor_scenes,2700,0,7,4
169,21859,0,170,3,3,1,gain1,no_gain4,E,A,32,38,body_parts,objects,47,39,Stimuli/Experimental_stims/body_parts/towfiqu-barbhuiya-3AsiVDsZnHg-unsplash.jpg,Stimuli/Experimental_stims/objects/art-lasovsky-8XddFc6NkBY-unsplash.jpg,0,1,87,1,unchosen,32,38,body_parts,objects,1400,0,7,4
170,21859,0,171,3,3,0,no_gain2,gain4,I,F,0,25,outdoor_scenes,body_parts,77,72,Stimuli/Experimental_stims/outdoor_scenes/aleksandra-boguslawska-MS7KD9Ti7FQ-unsplash.jpg,Stimuli/Experimental_stims/body_parts/engin-akyurt-Q2rfH3GW39c-unsplash.jpg,0,0,100,1,unchosen,25,0,body_parts,outdoor_scenes,2300,0,7,4
171,21859,0,172,3,3,0,no_gain1,gain1,G,E,3,32,outdoor_scenes,body_parts,80,47,Stimuli/Experimental_stims/outdoor_scenes/henry-be-NLF6hTe4PAg-unsplash.jpg,Stimuli/Experimental_stims/body_parts/towfiqu-barbhuiya-3AsiVDsZnHg-unsplash.jpg,0,0,497,1,unchosen,32,3,body_parts,outdoor_scenes,3400,1,7,4
172,21859,0,173,3,3,1,gain4,no_gain2,F,I,20,27,faces,body_parts,53,82,Stimuli/Experimental_stims/faces/justin-chen-J7Cf1Gch49E-unsplash.jpg,Stimuli/Experimental_stims/body_parts/heike-mintel-i_Gns0ELnLw-unsplash.jpg,0,0,84,0,chosen,27,20,body_parts,faces,1200,0,7,4
173,21859,0,174,3,3,0,no_gain6,gain6,L,C,13,4,faces,outdoor_scenes,75,87,Stimuli/Experimental_stims/faces/daniel-rigdon-dXmXKPP2L4E-unsplash.jpg,Stimuli/Experimental_stims/outdoor_scenes/jarrett-kow-1ZOyYPOBn7I-unsplash.jpg,0,1,109,0,unchosen,13,4,faces,outdoor_scenes,2500,0,7,4
174,21859,0,175,3,3,1,gain3,no_gain3,J,H,47,11,objects,outdoor_scenes,70,91,Stimuli/Experimental_stims/objects/ronaldo-arthur-vidal-Cdz_lvnl37k-unsplash.jpg,Stimuli/Experimental_stims/outdoor_scenes/stephen-leonardi-gyIRjKPXupE-unsplash.jpg,0,1,120,1,chosen,47,11,objects,outdoor_scenes,2600,0,7,4
175,21859,0,176,3,3,0,no_gain2,gain6,I,C,0,4,outdoor_scenes,outdoor_scenes,77,87,Stimuli/Experimental_stims/outdoor_scenes/aleksandra-boguslawska-MS7KD9Ti7FQ-unsplash.jpg,Stimuli/Experimental_stims/outdoor_scenes/jarrett-kow-1ZOyYPOBn7I-unsplash.jpg,0,1,223,0,unchosen,0,4,outdoor_scenes,outdoor_scenes,2100,0,7,4
176,21859,0,177,3,3,1,gain1,no_gain5,E,D,36,43,objects,objects,80,67,Stimuli/Experimental_stims/objects/alexander-andrews-JYGnB9gTCls-unsplash.jpg,Stimuli/Experimental_stims/objects/jonathan-greenaway-Y4hGgeiFn3s-unsplash.jpg,0,1,141,1,chosen,36,43,objects,objects,3300,1,7,4
177,21859,0,178,3,3,0,no_gain1,gain5,G,K,3,46,outdoor_scenes,objects,80,68,Stimuli/Experimental_stims/outdoor_scenes/henry-be-NLF6hTe4PAg-unsplash.jpg,Stimuli/Experimental_stims/objects/mockup-graphics-PNsj6RiHAF4-unsplash.jpg,0,1,44,0,unchosen,3,46,outdoor_scenes,objects,1200,0,7,4
178,21859,0,179,3,3,1,gain2,no_gain6,B,L,1,33,outdoor_scenes,body_parts,30,24,Stimuli/Experimental_stims/outdoor_scenes/ashim-d-silva-S2Q5mdOrrVc-unsplash.jpg,Stimuli/Experimental_stims/body_parts/tucker-good-36skLT5jZcc-unsplash.jpg,0,1,38,1,chosen,1,33,outdoor_scenes,body_parts,1500,0,7,4
179,21859,0,180,3,3,1,gain3,no_gain6,J,L,15,13,faces,faces,75,75,Stimuli/Experimental_stims/faces/erik-lucatero-d2MSDujJl2g-unsplash.jpg,Stimuli/Experimental_stims/faces/daniel-rigdon-dXmXKPP2L4E-unsplash.jpg,0,1,40,1,unchosen,15,13,faces,faces,1700,0,7,4
180,21859,0,181,3,3,0,no_gain5,gain1,D,E,18,32,faces,body_parts,20,47,Stimuli/Experimental_stims/faces/jessica-radanavong-mrYkTuAesKE-unsplash.jpg,Stimuli/Experimental_stims/body_parts/towfiqu-barbhuiya-3AsiVDsZnHg-unsplash.jpg,0,1,210,0,unchosen,18,32,faces,body_parts,1500,0,7,4
181,21859,0,182,3,3,1,gain2,no_gain6,B,L,14,13,faces,faces,28,75,Stimuli/Experimental_stims/faces/david-siglin-UuW4psOb388-unsplash.jpg,Stimuli/Experimental_stims/faces/daniel-rigdon-dXmXKPP2L4E-unsplash.jpg,0,1,590,1,unchosen,14,13,faces,faces,1300,0,7,4
182,21859,0,183,3,3,1,gain1,no_gain4,E,A,36,6,objects,outdoor_scenes,80,35,Stimuli/Experimental_stims/objects/alexander-andrews-JYGnB9gTCls-unsplash.jpg,Stimuli/Experimental_stims/outdoor_scenes/meng-ji-8BH_M-53CyA-unsplash.jpg,0,1,210,1,chosen,36,6,objects,outdoor_scenes,2000,0,7,4
183,21859,0,184,3,3,0,no_gain1,gain6,G,C,3,4,outdoor_scenes,outdoor_scenes,80,87,Stimuli/Experimental_stims/outdoor_scenes/henry-be-NLF6hTe4PAg-unsplash.jpg,Stimuli/Experimental_stims/outdoor_scenes/jarrett-kow-1ZOyYPOBn7I-unsplash.jpg,0,1,78,0,unchosen,3,4,outdoor_scenes,outdoor_scenes,1500,0,7,4
184,21859,0,185,3,3,1,gain5,no_gain5,K,D,24,43,body_parts,objects,75,67,Stimuli/Experimental_stims/body_parts/clay-banks-LjqARJaJotc-unsplash.jpg,Stimuli/Experimental_stims/objects/jonathan-greenaway-Y4hGgeiFn3s-unsplash.jpg,0,1,204,1,chosen,24,43,body_parts,objects,2200,0,7,4
185,21859,0,186,3,3,1,gain6,no_gain1,C,G,30,40,body_parts,objects,45,31,Stimuli/Experimental_stims/body_parts/mika-korhonen-Xodzxosar18-unsplash.jpg,Stimuli/Experimental_stims/objects/fabian-blank-pElSkGRA2NU-unsplash.jpg,0,1,97,1,chosen,30,40,body_parts,objects,1300,0,7,4
186,21859,0,187,3,3,0,no_gain6,gain4,L,F,33,20,body_parts,faces,24,53,Stimuli/Experimental_stims/body_parts/tucker-good-36skLT5jZcc-unsplash.jpg,Stimuli/Experimental_stims/faces/justin-chen-J7Cf1Gch49E-unsplash.jpg,0,1,209,0,chosen,33,20,body_parts,faces,1000,0,7,4
187,21859,0,188,3,3,1,gain1,no_gain2,E,I,32,0,body_parts,outdoor_scenes,47,77,Stimuli/Experimental_stims/body_parts/towfiqu-barbhuiya-3AsiVDsZnHg-unsplash.jpg,Stimuli/Experimental_stims/outdoor_scenes/aleksandra-boguslawska-MS7KD9Ti7FQ-unsplash.jpg,0,1,65,1,unchosen,32,0,body_parts,outdoor_scenes,3000,1,7,4
188,21859,0,189,3,3,0,no_gain2,gain5,I,K,0,46,outdoor_scenes,objects,77,68,Stimuli/Experimental_stims/outdoor_scenes/aleksandra-boguslawska-MS7KD9Ti7FQ-unsplash.jpg,Stimuli/Experimental_stims/objects/mockup-graphics-PNsj6RiHAF4-unsplash.jpg,0,1,29,0,unchosen,0,46,outdoor_scenes,objects,1300,0,7,4
189,21859,0,190,3,3,1,gain1,no_gain3,E,H,32,22,body_parts,faces,47,64,Stimuli/Experimental_stims/body_parts/towfiqu-barbhuiya-3AsiVDsZnHg-unsplash.jpg,Stimuli/Experimental_stims/faces/ravi-patel-VMGAbeeJTKo-unsplash.jpg,0,0,72,0,unchosen,22,32,faces,body_parts,2200,0,7,4
190,21859,0,191,3,3,0,no_gain1,gain2,G,B,40,1,objects,outdoor_scenes,31,30,Stimuli/Experimental_stims/objects/fabian-blank-pElSkGRA2NU-unsplash.jpg,Stimuli/Experimental_stims/outdoor_scenes/ashim-d-silva-S2Q5mdOrrVc-unsplash.jpg,0,0,119,1,chosen,1,40,outdoor_scenes,objects,1100,0,7,4
191,21859,0,192,3,3,0,no_gain3,gain5,H,K,22,46,faces,objects,64,68,Stimuli/Experimental_stims/faces/ravi-patel-VMGAbeeJTKo-unsplash.jpg,Stimuli/Experimental_stims/objects/mockup-graphics-PNsj6RiHAF4-unsplash.jpg,0,0,27,1,unchosen,46,22,objects,faces,2100,0,7,4
192,21859,0,193,3,3,0,no_gain2,gain6,I,C,27,30,body_parts,body_parts,82,45,Stimuli/Experimental_stims/body_parts/heike-mintel-i_Gns0ELnLw-unsplash.jpg,Stimuli/Experimental_stims/body_parts/mika-korhonen-Xodzxosar18-unsplash.jpg,0,1,172,0,chosen,27,30,body_parts,body_parts,2300,0,7,4
193,21859,0,194,3,3,0,no_gain4,gain5,A,K,6,24,outdoor_scenes,body_parts,35,75,Stimuli/Experimental_stims/outdoor_scenes/meng-ji-8BH_M-53CyA-unsplash.jpg,Stimuli/Experimental_stims/body_parts/clay-banks-LjqARJaJotc-unsplash.jpg,0,1,208,0,chosen,6,24,outdoor_scenes,body_parts,3900,1,7,4
194,21859,0,195,3,3,0,no_gain4,gain6,A,C,6,30,outdoor_scenes,body_parts,35,45,Stimuli/Experimental_stims/outdoor_scenes/meng-ji-8BH_M-53CyA-unsplash.jpg,Stimuli/Experimental_stims/body_parts/mika-korhonen-Xodzxosar18-unsplash.jpg,1,NaN,,NaN,chosen,NaN,NaN,NaN,NaN,1700,0,7,4
195,21859,0,196,3,3,1,gain4,no_gain3,F,H,25,22,body_parts,faces,72,64,Stimuli/Experimental_stims/body_parts/engin-akyurt-Q2rfH3GW39c-unsplash.jpg,Stimuli/Experimental_stims/faces/ravi-patel-VMGAbeeJTKo-unsplash.jpg,0,1,99,1,unchosen,25,22,body_parts,faces,1200,0,7,4
196,21859,0,197,3,3,0,no_gain1,gain4,G,F,3,25,outdoor_scenes,body_parts,80,72,Stimuli/Experimental_stims/outdoor_scenes/henry-be-NLF6hTe4PAg-unsplash.jpg,Stimuli/Experimental_stims/body_parts/engin-akyurt-Q2rfH3GW39c-unsplash.jpg,0,0,88,1,unchosen,25,3,body_parts,outdoor_scenes,1200,0,7,4
197,21859,0,198,3,3,1,gain2,no_gain2,B,I,14,0,faces,outdoor_scenes,28,77,Stimuli/Experimental_stims/faces/david-siglin-UuW4psOb388-unsplash.jpg,Stimuli/Experimental_stims/outdoor_scenes/aleksandra-boguslawska-MS7KD9Ti7FQ-unsplash.jpg,0,0,117,0,unchosen,0,14,outdoor_scenes,faces,1900,0,7,4
198,21859,0,199,3,3,0,no_gain6,gain3,L,J,33,47,body_parts,objects,24,70,Stimuli/Experimental_stims/body_parts/tucker-good-36skLT5jZcc-unsplash.jpg,Stimuli/Experimental_stims/objects/ronaldo-arthur-vidal-Cdz_lvnl37k-unsplash.jpg,0,1,28,0,chosen,33,47,body_parts,objects,1000,0,7,4
199,21859,0,200,3,3,0,no_gain4,gain4,A,F,6,20,outdoor_scenes,faces,35,53,Stimuli/Experimental_stims/outdoor_scenes/meng-ji-8BH_M-53CyA-unsplash.jpg,Stimuli/Experimental_stims/faces/justin-chen-J7Cf1Gch49E-unsplash.jpg,0,1,114,0,chosen,6,20,outdoor_scenes,faces,3900,1,7,4
200,21859,0,201,3,3,0,no_gain6,gain5,L,K,33,24,body_parts,body_parts,24,75,Stimuli/Experimental_stims/body_parts/tucker-good-36skLT5jZcc-unsplash.jpg,Stimuli/Experimental_stims/body_parts/clay-banks-LjqARJaJotc-unsplash.jpg,0,1,37,0,chosen,33,24,body_parts,body_parts,2100,0,7,4
201,21859,0,202,3,3,1,gain6,no_gain5,C,D,4,18,outdoor_scenes,faces,87,20,Stimuli/Experimental_stims/outdoor_scenes/jarrett-kow-1ZOyYPOBn7I-unsplash.jpg,Stimuli/Experimental_stims/faces/jessica-radanavong-mrYkTuAesKE-unsplash.jpg,0,0,129,0,unchosen,18,4,faces,outdoor_scenes,1300,0,7,4
202,21859,0,203,3,3,0,no_gain2,gain5,I,K,27,24,body_parts,body_parts,82,75,Stimuli/Experimental_stims/body_parts/heike-mintel-i_Gns0ELnLw-unsplash.jpg,Stimuli/Experimental_stims/body_parts/clay-banks-LjqARJaJotc-unsplash.jpg,0,1,175,0,chosen,27,24,body_parts,body_parts,1800,0,7,4
203,21859,0,204,3,3,1,gain4,no_gain1,F,G,20,40,faces,objects,53,31,Stimuli/Experimental_stims/faces/justin-chen-J7Cf1Gch49E-unsplash.jpg,Stimuli/Experimental_stims/objects/fabian-blank-pElSkGRA2NU-unsplash.jpg,0,0,42,0,chosen,40,20,objects,faces,1900,0,7,4
204,21859,0,205,3,3,1,gain6,no_gain3,C,H,4,22,outdoor_scenes,faces,87,64,Stimuli/Experimental_stims/outdoor_scenes/jarrett-kow-1ZOyYPOBn7I-unsplash.jpg,Stimuli/Experimental_stims/faces/ravi-patel-VMGAbeeJTKo-unsplash.jpg,0,1,230,1,unchosen,4,22,outdoor_scenes,faces,2600,0,7,4
205,21859,0,206,3,3,1,gain4,no_gain6,F,L,25,13,body_parts,faces,72,75,Stimuli/Experimental_stims/body_parts/engin-akyurt-Q2rfH3GW39c-unsplash.jpg,Stimuli/Experimental_stims/faces/daniel-rigdon-dXmXKPP2L4E-unsplash.jpg,0,1,20,1,unchosen,25,13,body_parts,faces,2400,0,7,4
206,21859,0,207,3,3,0,no_gain5,gain4,D,F,18,25,faces,body_parts,20,72,Stimuli/Experimental_stims/faces/jessica-radanavong-mrYkTuAesKE-unsplash.jpg,Stimuli/Experimental_stims/body_parts/engin-akyurt-Q2rfH3GW39c-unsplash.jpg,0,1,97,0,unchosen,18,25,faces,body_parts,2500,0,7,4
207,21859,0,208,3,3,0,no_gain5,gain6,D,C,43,30,objects,body_parts,67,45,Stimuli/Experimental_stims/objects/jonathan-greenaway-Y4hGgeiFn3s-unsplash.jpg,Stimuli/Experimental_stims/body_parts/mika-korhonen-Xodzxosar18-unsplash.jpg,0,1,1122,0,chosen,43,30,objects,body_parts,2900,1,7,4
208,21859,0,209,3,3,0,no_gain4,gain3,A,J,38,15,objects,faces,39,75,Stimuli/Experimental_stims/objects/art-lasovsky-8XddFc6NkBY-unsplash.jpg,Stimuli/Experimental_stims/faces/erik-lucatero-d2MSDujJl2g-unsplash.jpg,0,0,51,1,unchosen,15,38,faces,objects,1000,0,7,4
209,21859,0,210,3,3,0,no_gain1,gain3,G,J,40,47,objects,objects,31,70,Stimuli/Experimental_stims/objects/fabian-blank-pElSkGRA2NU-unsplash.jpg,Stimuli/Experimental_stims/objects/ronaldo-arthur-vidal-Cdz_lvnl37k-unsplash.jpg,0,1,131,0,chosen,40,47,objects,objects,1500,0,7,4
210,21859,0,211,3,3,1,gain3,no_gain3,J,H,15,22,faces,faces,75,64,Stimuli/Experimental_stims/faces/erik-lucatero-d2MSDujJl2g-unsplash.jpg,Stimuli/Experimental_stims/faces/ravi-patel-VMGAbeeJTKo-unsplash.jpg,0,1,118,1,unchosen,15,22,faces,faces,2000,0,7,4
211,21859,0,212,3,3,1,gain1,no_gain6,E,L,32,13,body_parts,faces,47,75,Stimuli/Experimental_stims/body_parts/towfiqu-barbhuiya-3AsiVDsZnHg-unsplash.jpg,Stimuli/Experimental_stims/faces/daniel-rigdon-dXmXKPP2L4E-unsplash.jpg,0,0,195,0,unchosen,13,32,faces,body_parts,1400,0,7,4
212,21859,0,213,3,3,0,no_gain5,gain2,D,B,18,14,faces,faces,20,28,Stimuli/Experimental_stims/faces/jessica-radanavong-mrYkTuAesKE-unsplash.jpg,Stimuli/Experimental_stims/faces/david-siglin-UuW4psOb388-unsplash.jpg,0,1,0,0,unchosen,18,14,faces,faces,1800,0,7,4
213,21859,0,214,3,3,1,gain6,no_gain6,C,L,30,33,body_parts,body_parts,45,24,Stimuli/Experimental_stims/body_parts/mika-korhonen-Xodzxosar18-unsplash.jpg,Stimuli/Experimental_stims/body_parts/tucker-good-36skLT5jZcc-unsplash.jpg,0,1,178,1,chosen,30,33,body_parts,body_parts,2500,0,7,4
214,21859,0,215,3,3,1,gain1,no_gain2,E,I,36,27,objects,body_parts,80,82,Stimuli/Experimental_stims/objects/alexander-andrews-JYGnB9gTCls-unsplash.jpg,Stimuli/Experimental_stims/body_parts/heike-mintel-i_Gns0ELnLw-unsplash.jpg,0,1,96,1,chosen,36,27,objects,body_parts,1600,0,7,4
215,21859,0,216,3,3,0,no_gain1,gain2,G,B,3,14,outdoor_scenes,faces,80,28,Stimuli/Experimental_stims/outdoor_scenes/henry-be-NLF6hTe4PAg-unsplash.jpg,Stimuli/Experimental_stims/faces/david-siglin-UuW4psOb388-unsplash.jpg,0,1,157,0,unchosen,3,14,outdoor_scenes,faces,3700,1,7,4
216,21859,0,217,3,3,0,no_gain5,gain3,D,J,18,15,faces,faces,20,75,Stimuli/Experimental_stims/faces/jessica-radanavong-mrYkTuAesKE-unsplash.jpg,Stimuli/Experimental_stims/faces/erik-lucatero-d2MSDujJl2g-unsplash.jpg,0,1,50,0,unchosen,18,15,faces,faces,1200,0,7,4
217,21859,0,218,3,3,1,gain3,no_gain2,J,I,47,27,objects,body_parts,70,82,Stimuli/Experimental_stims/objects/ronaldo-arthur-vidal-Cdz_lvnl37k-unsplash.jpg,Stimuli/Experimental_stims/body_parts/heike-mintel-i_Gns0ELnLw-unsplash.jpg,0,1,1,1,chosen,47,27,objects,body_parts,1200,0,7,4
218,21859,0,219,3,3,1,gain3,no_gain1,J,G,15,3,faces,outdoor_scenes,75,80,Stimuli/Experimental_stims/faces/erik-lucatero-d2MSDujJl2g-unsplash.jpg,Stimuli/Experimental_stims/outdoor_scenes/henry-be-NLF6hTe4PAg-unsplash.jpg,0,0,24,0,unchosen,3,15,outdoor_scenes,faces,1100,0,7,4
219,21859,0,220,3,3,1,gain2,no_gain2,B,I,1,27,outdoor_scenes,body_parts,30,82,Stimuli/Experimental_stims/outdoor_scenes/ashim-d-silva-S2Q5mdOrrVc-unsplash.jpg,Stimuli/Experimental_stims/body_parts/heike-mintel-i_Gns0ELnLw-unsplash.jpg,0,1,15,1,chosen,1,27,outdoor_scenes,body_parts,1100,0,7,4
220,21859,0,221,4,4,1,gain4,no_gain1,F,G,25,3,body_parts,outdoor_scenes,72,80,Stimuli/Experimental_stims/body_parts/engin-akyurt-Q2rfH3GW39c-unsplash.jpg,Stimuli/Experimental_stims/outdoor_scenes/henry-be-NLF6hTe4PAg-unsplash.jpg,0,1,338,1,unchosen,25,3,body_parts,outdoor_scenes,4000,1,8,4
221,21859,0,222,4,4,0,no_gain1,gain5,G,K,40,24,objects,body_parts,31,75,Stimuli/Experimental_stims/objects/fabian-blank-pElSkGRA2NU-unsplash.jpg,Stimuli/Experimental_stims/body_parts/clay-banks-LjqARJaJotc-unsplash.jpg,0,1,37,0,chosen,40,24,objects,body_parts,1900,0,8,4
222,21859,0,223,4,4,1,gain2,no_gain1,B,G,1,40,outdoor_scenes,objects,30,31,Stimuli/Experimental_stims/outdoor_scenes/ashim-d-silva-S2Q5mdOrrVc-unsplash.jpg,Stimuli/Experimental_stims/objects/fabian-blank-pElSkGRA2NU-unsplash.jpg,0,1,237,1,chosen,1,40,outdoor_scenes,objects,1200,0,8,4
223,21859,0,224,4,4,1,gain4,no_gain6,F,L,25,13,body_parts,faces,72,75,Stimuli/Experimental_stims/body_parts/engin-akyurt-Q2rfH3GW39c-unsplash.jpg,Stimuli/Experimental_stims/faces/daniel-rigdon-dXmXKPP2L4E-unsplash.jpg,0,1,143,1,unchosen,25,13,body_parts,faces,1200,0,8,4
224,21859,0,225,4,4,1,gain4,no_gain3,F,H,25,22,body_parts,faces,72,64,Stimuli/Experimental_stims/body_parts/engin-akyurt-Q2rfH3GW39c-unsplash.jpg,Stimuli/Experimental_stims/faces/ravi-patel-VMGAbeeJTKo-unsplash.jpg,0,0,219,0,unchosen,22,25,faces,body_parts,2900,0,8,4
225,21859,0,226,4,4,1,gain2,no_gain3,B,H,14,22,faces,faces,28,64,Stimuli/Experimental_stims/faces/david-siglin-UuW4psOb388-unsplash.jpg,Stimuli/Experimental_stims/faces/ravi-patel-VMGAbeeJTKo-unsplash.jpg,0,1,72,1,unchosen,14,22,faces,faces,1800,0,8,4
226,21859,0,227,4,4,1,gain1,no_gain3,E,H,36,11,objects,outdoor_scenes,80,91,Stimuli/Experimental_stims/objects/alexander-andrews-JYGnB9gTCls-unsplash.jpg,Stimuli/Experimental_stims/outdoor_scenes/stephen-leonardi-gyIRjKPXupE-unsplash.jpg,0,1,127,1,chosen,36,11,objects,outdoor_scenes,4700,1,8,4
227,21859,0,228,4,4,0,no_gain2,gain5,I,K,27,24,body_parts,body_parts,82,75,Stimuli/Experimental_stims/body_parts/heike-mintel-i_Gns0ELnLw-unsplash.jpg,Stimuli/Experimental_stims/body_parts/clay-banks-LjqARJaJotc-unsplash.jpg,0,0,87,1,chosen,24,27,body_parts,body_parts,2800,0,8,4
228,21859,0,229,4,4,1,gain5,no_gain1,K,G,46,3,objects,outdoor_scenes,68,80,Stimuli/Experimental_stims/objects/mockup-graphics-PNsj6RiHAF4-unsplash.jpg,Stimuli/Experimental_stims/outdoor_scenes/henry-be-NLF6hTe4PAg-unsplash.jpg,0,0,65,0,unchosen,3,46,outdoor_scenes,objects,1100,0,8,4
229,21859,0,230,4,4,0,no_gain4,gain5,A,K,6,24,outdoor_scenes,body_parts,35,75,Stimuli/Experimental_stims/outdoor_scenes/meng-ji-8BH_M-53CyA-unsplash.jpg,Stimuli/Experimental_stims/body_parts/clay-banks-LjqARJaJotc-unsplash.jpg,0,1,169,0,chosen,6,24,outdoor_scenes,body_parts,2200,0,8,4
230,21859,0,231,4,4,0,no_gain1,gain6,G,C,3,4,outdoor_scenes,outdoor_scenes,80,87,Stimuli/Experimental_stims/outdoor_scenes/henry-be-NLF6hTe4PAg-unsplash.jpg,Stimuli/Experimental_stims/outdoor_scenes/jarrett-kow-1ZOyYPOBn7I-unsplash.jpg,0,0,2,1,unchosen,4,3,outdoor_scenes,outdoor_scenes,2000,0,8,4
231,21859,0,232,4,4,1,gain3,no_gain5,J,D,15,18,faces,faces,75,20,Stimuli/Experimental_stims/faces/erik-lucatero-d2MSDujJl2g-unsplash.jpg,Stimuli/Experimental_stims/faces/jessica-radanavong-mrYkTuAesKE-unsplash.jpg,0,1,37,1,unchosen,15,18,faces,faces,1100,0,8,4
232,21859,0,233,4,4,0,no_gain6,gain1,L,E,13,32,faces,body_parts,75,47,Stimuli/Experimental_stims/faces/daniel-rigdon-dXmXKPP2L4E-unsplash.jpg,Stimuli/Experimental_stims/body_parts/towfiqu-barbhuiya-3AsiVDsZnHg-unsplash.jpg,0,0,316,1,unchosen,32,13,body_parts,faces,3000,1,8,4
233,21859,0,234,4,4,1,gain3,no_gain5,J,D,47,43,objects,objects,70,67,Stimuli/Experimental_stims/objects/ronaldo-arthur-vidal-Cdz_lvnl37k-unsplash.jpg,Stimuli/Experimental_stims/objects/jonathan-greenaway-Y4hGgeiFn3s-unsplash.jpg,0,1,165,1,chosen,47,43,objects,objects,1800,0,8,4
234,21859,0,235,4,4,0,no_gain3,gain1,H,E,22,32,faces,body_parts,64,47,Stimuli/Experimental_stims/faces/ravi-patel-VMGAbeeJTKo-unsplash.jpg,Stimuli/Experimental_stims/body_parts/towfiqu-barbhuiya-3AsiVDsZnHg-unsplash.jpg,0,1,544,0,unchosen,22,32,faces,body_parts,1700,0,8,4
235,21859,0,236,4,4,0,no_gain2,gain5,I,K,0,46,outdoor_scenes,objects,77,68,Stimuli/Experimental_stims/outdoor_scenes/aleksandra-boguslawska-MS7KD9Ti7FQ-unsplash.jpg,Stimuli/Experimental_stims/objects/mockup-graphics-PNsj6RiHAF4-unsplash.jpg,0,0,330,1,unchosen,46,0,objects,outdoor_scenes,1500,0,8,4
236,21859,0,237,4,4,0,no_gain2,gain1,I,E,0,32,outdoor_scenes,body_parts,77,47,Stimuli/Experimental_stims/outdoor_scenes/aleksandra-boguslawska-MS7KD9Ti7FQ-unsplash.jpg,Stimuli/Experimental_stims/body_parts/towfiqu-barbhuiya-3AsiVDsZnHg-unsplash.jpg,0,0,21,1,unchosen,32,0,body_parts,outdoor_scenes,1400,0,8,4
237,21859,0,238,4,4,1,gain6,no_gain2,C,I,30,27,body_parts,body_parts,45,82,Stimuli/Experimental_stims/body_parts/mika-korhonen-Xodzxosar18-unsplash.jpg,Stimuli/Experimental_stims/body_parts/heike-mintel-i_Gns0ELnLw-unsplash.jpg,0,0,30,0,chosen,27,30,body_parts,body_parts,3000,1,8,4
238,21859,0,239,4,4,1,gain4,no_gain2,F,I,25,0,body_parts,outdoor_scenes,72,77,Stimuli/Experimental_stims/body_parts/engin-akyurt-Q2rfH3GW39c-unsplash.jpg,Stimuli/Experimental_stims/outdoor_scenes/aleksandra-boguslawska-MS7KD9Ti7FQ-unsplash.jpg,0,1,24,1,unchosen,25,0,body_parts,outdoor_scenes,1000,0,8,4
239,21859,0,240,4,4,0,no_gain1,gain2,G,B,3,14,outdoor_scenes,faces,80,28,Stimuli/Experimental_stims/outdoor_scenes/henry-be-NLF6hTe4PAg-unsplash.jpg,Stimuli/Experimental_stims/faces/david-siglin-UuW4psOb388-unsplash.jpg,0,0,38,1,unchosen,14,3,faces,outdoor_scenes,1100,0,8,4
240,21859,0,241,4,4,0,no_gain4,gain3,A,J,38,15,objects,faces,39,75,Stimuli/Experimental_stims/objects/art-lasovsky-8XddFc6NkBY-unsplash.jpg,Stimuli/Experimental_stims/faces/erik-lucatero-d2MSDujJl2g-unsplash.jpg,0,1,82,0,unchosen,38,15,objects,faces,1600,0,8,4
241,21859,0,242,4,4,0,no_gain5,gain4,D,F,43,20,objects,faces,67,53,Stimuli/Experimental_stims/objects/jonathan-greenaway-Y4hGgeiFn3s-unsplash.jpg,Stimuli/Experimental_stims/faces/justin-chen-J7Cf1Gch49E-unsplash.jpg,0,0,157,1,chosen,20,43,faces,objects,1100,0,8,4
242,21859,0,243,4,4,1,gain6,no_gain6,C,L,4,13,outdoor_scenes,faces,87,75,Stimuli/Experimental_stims/outdoor_scenes/jarrett-kow-1ZOyYPOBn7I-unsplash.jpg,Stimuli/Experimental_stims/faces/daniel-rigdon-dXmXKPP2L4E-unsplash.jpg,0,0,125,0,unchosen,13,4,faces,outdoor_scenes,1100,0,8,4
243,21859,0,244,4,4,1,gain3,no_gain2,J,I,47,27,objects,body_parts,70,82,Stimuli/Experimental_stims/objects/ronaldo-arthur-vidal-Cdz_lvnl37k-unsplash.jpg,Stimuli/Experimental_stims/body_parts/heike-mintel-i_Gns0ELnLw-unsplash.jpg,0,1,205,1,chosen,47,27,objects,body_parts,1800,0,8,4
244,21859,0,245,4,4,0,no_gain1,gain1,G,E,40,36,objects,objects,31,80,Stimuli/Experimental_stims/objects/fabian-blank-pElSkGRA2NU-unsplash.jpg,Stimuli/Experimental_stims/objects/alexander-andrews-JYGnB9gTCls-unsplash.jpg,0,1,126,0,chosen,40,36,objects,objects,1400,0,8,4
245,21859,0,246,4,4,0,no_gain4,gain5,A,K,38,46,objects,objects,39,68,Stimuli/Experimental_stims/objects/art-lasovsky-8XddFc6NkBY-unsplash.jpg,Stimuli/Experimental_stims/objects/mockup-graphics-PNsj6RiHAF4-unsplash.jpg,0,0,173,1,unchosen,46,38,objects,objects,1600,0,8,4
246,21859,0,247,4,4,1,gain2,no_gain2,B,I,1,27,outdoor_scenes,body_parts,30,82,Stimuli/Experimental_stims/outdoor_scenes/ashim-d-silva-S2Q5mdOrrVc-unsplash.jpg,Stimuli/Experimental_stims/body_parts/heike-mintel-i_Gns0ELnLw-unsplash.jpg,0,0,39,0,chosen,27,1,body_parts,outdoor_scenes,2000,0,8,4
247,21859,0,248,4,4,0,no_gain1,gain3,G,J,3,15,outdoor_scenes,faces,80,75,Stimuli/Experimental_stims/outdoor_scenes/henry-be-NLF6hTe4PAg-unsplash.jpg,Stimuli/Experimental_stims/faces/erik-lucatero-d2MSDujJl2g-unsplash.jpg,0,1,73,0,unchosen,3,15,outdoor_scenes,faces,2200,0,8,4
248,21859,0,249,4,4,0,no_gain4,gain2,A,B,6,1,outdoor_scenes,outdoor_scenes,35,30,Stimuli/Experimental_stims/outdoor_scenes/meng-ji-8BH_M-53CyA-unsplash.jpg,Stimuli/Experimental_stims/outdoor_scenes/ashim-d-silva-S2Q5mdOrrVc-unsplash.jpg,0,1,146,0,chosen,6,1,outdoor_scenes,outdoor_scenes,2100,0,8,4
249,21859,0,250,4,4,0,no_gain3,gain2,H,B,11,1,outdoor_scenes,outdoor_scenes,91,30,Stimuli/Experimental_stims/outdoor_scenes/stephen-leonardi-gyIRjKPXupE-unsplash.jpg,Stimuli/Experimental_stims/outdoor_scenes/ashim-d-silva-S2Q5mdOrrVc-unsplash.jpg,0,1,163,0,chosen,11,1,outdoor_scenes,outdoor_scenes,2900,0,8,4
250,21859,0,251,4,4,0,no_gain6,gain5,L,K,13,46,faces,objects,75,68,Stimuli/Experimental_stims/faces/daniel-rigdon-dXmXKPP2L4E-unsplash.jpg,Stimuli/Experimental_stims/objects/mockup-graphics-PNsj6RiHAF4-unsplash.jpg,0,1,31,0,unchosen,13,46,faces,objects,1600,0,8,4
251,21859,0,252,4,4,1,gain3,no_gain4,J,A,47,6,objects,outdoor_scenes,70,35,Stimuli/Experimental_stims/objects/ronaldo-arthur-vidal-Cdz_lvnl37k-unsplash.jpg,Stimuli/Experimental_stims/outdoor_scenes/meng-ji-8BH_M-53CyA-unsplash.jpg,0,1,191,1,chosen,47,6,objects,outdoor_scenes,1600,0,8,4
252,21859,0,253,4,4,0,no_gain1,gain1,G,E,3,32,outdoor_scenes,body_parts,80,47,Stimuli/Experimental_stims/outdoor_scenes/henry-be-NLF6hTe4PAg-unsplash.jpg,Stimuli/Experimental_stims/body_parts/towfiqu-barbhuiya-3AsiVDsZnHg-unsplash.jpg,0,1,23,0,unchosen,3,32,outdoor_scenes,body_parts,4900,1,8,4
253,21859,0,254,4,4,0,no_gain5,gain1,D,E,18,32,faces,body_parts,20,47,Stimuli/Experimental_stims/faces/jessica-radanavong-mrYkTuAesKE-unsplash.jpg,Stimuli/Experimental_stims/body_parts/towfiqu-barbhuiya-3AsiVDsZnHg-unsplash.jpg,0,1,499,0,unchosen,18,32,faces,body_parts,2600,0,8,4
254,21859,0,255,4,4,1,gain5,no_gain5,K,D,24,43,body_parts,objects,75,67,Stimuli/Experimental_stims/body_parts/clay-banks-LjqARJaJotc-unsplash.jpg,Stimuli/Experimental_stims/objects/jonathan-greenaway-Y4hGgeiFn3s-unsplash.jpg,0,0,25,0,chosen,43,24,objects,body_parts,1800,0,8,4
255,21859,0,256,4,4,0,no_gain1,gain3,G,J,40,47,objects,objects,31,70,Stimuli/Experimental_stims/objects/fabian-blank-pElSkGRA2NU-unsplash.jpg,Stimuli/Experimental_stims/objects/ronaldo-arthur-vidal-Cdz_lvnl37k-unsplash.jpg,0,1,561,0,chosen,40,47,objects,objects,1500,0,8,4
256,21859,0,257,4,4,1,gain5,no_gain3,K,H,24,11,body_parts,outdoor_scenes,75,91,Stimuli/Experimental_stims/body_parts/clay-banks-LjqARJaJotc-unsplash.jpg,Stimuli/Experimental_stims/outdoor_scenes/stephen-leonardi-gyIRjKPXupE-unsplash.jpg,0,1,159,1,chosen,24,11,body_parts,outdoor_scenes,1700,0,8,4
257,21859,0,258,4,4,1,gain2,no_gain4,B,A,14,38,faces,objects,28,39,Stimuli/Experimental_stims/faces/david-siglin-UuW4psOb388-unsplash.jpg,Stimuli/Experimental_stims/objects/art-lasovsky-8XddFc6NkBY-unsplash.jpg,0,1,111,1,unchosen,14,38,faces,objects,3200,1,8,4
258,21859,0,259,4,4,1,gain3,no_gain3,J,H,47,11,objects,outdoor_scenes,70,91,Stimuli/Experimental_stims/objects/ronaldo-arthur-vidal-Cdz_lvnl37k-unsplash.jpg,Stimuli/Experimental_stims/outdoor_scenes/stephen-leonardi-gyIRjKPXupE-unsplash.jpg,0,1,287,1,chosen,47,11,objects,outdoor_scenes,2100,0,8,4
259,21859,0,260,4,4,0,no_gain6,gain1,L,E,33,36,body_parts,objects,24,80,Stimuli/Experimental_stims/body_parts/tucker-good-36skLT5jZcc-unsplash.jpg,Stimuli/Experimental_stims/objects/alexander-andrews-JYGnB9gTCls-unsplash.jpg,0,1,8,0,chosen,33,36,body_parts,objects,1600,0,8,4
260,21859,0,261,4,4,0,no_gain2,gain3,I,J,0,15,outdoor_scenes,faces,77,75,Stimuli/Experimental_stims/outdoor_scenes/aleksandra-boguslawska-MS7KD9Ti7FQ-unsplash.jpg,Stimuli/Experimental_stims/faces/erik-lucatero-d2MSDujJl2g-unsplash.jpg,0,1,89,0,unchosen,0,15,outdoor_scenes,faces,1700,0,8,4
261,21859,0,262,4,4,0,no_gain4,gain4,A,F,6,20,outdoor_scenes,faces,35,53,Stimuli/Experimental_stims/outdoor_scenes/meng-ji-8BH_M-53CyA-unsplash.jpg,Stimuli/Experimental_stims/faces/justin-chen-J7Cf1Gch49E-unsplash.jpg,0,1,27,0,chosen,6,20,outdoor_scenes,faces,1300,0,8,4
262,21859,0,263,4,4,1,gain6,no_gain1,C,G,30,40,body_parts,objects,45,31,Stimuli/Experimental_stims/body_parts/mika-korhonen-Xodzxosar18-unsplash.jpg,Stimuli/Experimental_stims/objects/fabian-blank-pElSkGRA2NU-unsplash.jpg,0,1,164,1,chosen,30,40,body_parts,objects,3700,1,8,4
263,21859,0,264,4,4,1,gain1,no_gain4,E,A,32,38,body_parts,objects,47,39,Stimuli/Experimental_stims/body_parts/towfiqu-barbhuiya-3AsiVDsZnHg-unsplash.jpg,Stimuli/Experimental_stims/objects/art-lasovsky-8XddFc6NkBY-unsplash.jpg,0,1,124,1,unchosen,32,38,body_parts,objects,1500,0,8,4
264,21859,0,265,4,4,1,gain4,no_gain1,F,G,20,40,faces,objects,53,31,Stimuli/Experimental_stims/faces/justin-chen-J7Cf1Gch49E-unsplash.jpg,Stimuli/Experimental_stims/objects/fabian-blank-pElSkGRA2NU-unsplash.jpg,0,1,537,1,chosen,20,40,faces,objects,1500,0,8,4
265,21859,0,266,4,4,1,gain2,no_gain5,B,D,14,18,faces,faces,28,20,Stimuli/Experimental_stims/faces/david-siglin-UuW4psOb388-unsplash.jpg,Stimuli/Experimental_stims/faces/jessica-radanavong-mrYkTuAesKE-unsplash.jpg,0,1,650,1,unchosen,14,18,faces,faces,1400,0,8,4
266,21859,0,267,4,4,0,no_gain2,gain4,I,F,27,20,body_parts,faces,82,53,Stimuli/Experimental_stims/body_parts/heike-mintel-i_Gns0ELnLw-unsplash.jpg,Stimuli/Experimental_stims/faces/justin-chen-J7Cf1Gch49E-unsplash.jpg,0,1,536,0,chosen,27,20,body_parts,faces,1700,0,8,4
267,21859,0,268,4,4,0,no_gain4,gain6,A,C,6,30,outdoor_scenes,body_parts,35,45,Stimuli/Experimental_stims/outdoor_scenes/meng-ji-8BH_M-53CyA-unsplash.jpg,Stimuli/Experimental_stims/body_parts/mika-korhonen-Xodzxosar18-unsplash.jpg,0,1,94,0,chosen,6,30,outdoor_scenes,body_parts,2500,0,8,4
268,21859,0,269,4,4,0,no_gain6,gain6,L,C,33,30,body_parts,body_parts,24,45,Stimuli/Experimental_stims/body_parts/tucker-good-36skLT5jZcc-unsplash.jpg,Stimuli/Experimental_stims/body_parts/mika-korhonen-Xodzxosar18-unsplash.jpg,0,1,1,0,chosen,33,30,body_parts,body_parts,1800,0,8,4
269,21859,0,270,4,4,0,no_gain2,gain6,I,C,0,4,outdoor_scenes,outdoor_scenes,77,87,Stimuli/Experimental_stims/outdoor_scenes/aleksandra-boguslawska-MS7KD9Ti7FQ-unsplash.jpg,Stimuli/Experimental_stims/outdoor_scenes/jarrett-kow-1ZOyYPOBn7I-unsplash.jpg,0,0,18,1,unchosen,4,0,outdoor_scenes,outdoor_scenes,2200,0,8,4
270,21859,0,271,4,4,0,no_gain5,gain6,D,C,18,4,faces,outdoor_scenes,20,87,Stimuli/Experimental_stims/faces/jessica-radanavong-mrYkTuAesKE-unsplash.jpg,Stimuli/Experimental_stims/outdoor_scenes/jarrett-kow-1ZOyYPOBn7I-unsplash.jpg,0,1,30,0,unchosen,18,4,faces,outdoor_scenes,1400,0,8,4
271,21859,0,272,4,4,1,gain3,no_gain6,J,L,47,33,objects,body_parts,70,24,Stimuli/Experimental_stims/objects/ronaldo-arthur-vidal-Cdz_lvnl37k-unsplash.jpg,Stimuli/Experimental_stims/body_parts/tucker-good-36skLT5jZcc-unsplash.jpg,0,0,25,0,chosen,33,47,body_parts,objects,4200,1,8,4
272,21859,0,273,4,4,1,gain5,no_gain5,K,D,46,18,objects,faces,68,20,Stimuli/Experimental_stims/objects/mockup-graphics-PNsj6RiHAF4-unsplash.jpg,Stimuli/Experimental_stims/faces/jessica-radanavong-mrYkTuAesKE-unsplash.jpg,0,1,21,1,unchosen,46,18,objects,faces,2400,0,8,4
273,21859,0,274,4,4,0,no_gain4,gain6,A,C,38,4,objects,outdoor_scenes,39,87,Stimuli/Experimental_stims/objects/art-lasovsky-8XddFc6NkBY-unsplash.jpg,Stimuli/Experimental_stims/outdoor_scenes/jarrett-kow-1ZOyYPOBn7I-unsplash.jpg,0,1,3,0,unchosen,38,4,objects,outdoor_scenes,1100,0,8,4
274,21859,0,275,4,4,0,no_gain2,gain1,I,E,27,36,body_parts,objects,82,80,Stimuli/Experimental_stims/body_parts/heike-mintel-i_Gns0ELnLw-unsplash.jpg,Stimuli/Experimental_stims/objects/alexander-andrews-JYGnB9gTCls-unsplash.jpg,0,1,130,0,chosen,27,36,body_parts,objects,1400,0,8,4
275,21859,0,276,4,4,0,no_gain3,gain3,H,J,22,15,faces,faces,64,75,Stimuli/Experimental_stims/faces/ravi-patel-VMGAbeeJTKo-unsplash.jpg,Stimuli/Experimental_stims/faces/erik-lucatero-d2MSDujJl2g-unsplash.jpg,0,1,4,0,unchosen,22,15,faces,faces,1400,0,8,4
276,21859,0,277,4,4,1,gain5,no_gain6,K,L,24,33,body_parts,body_parts,75,24,Stimuli/Experimental_stims/body_parts/clay-banks-LjqARJaJotc-unsplash.jpg,Stimuli/Experimental_stims/body_parts/tucker-good-36skLT5jZcc-unsplash.jpg,0,1,224,1,chosen,24,33,body_parts,body_parts,1000,0,8,4
277,21859,0,278,4,4,1,gain1,no_gain5,E,D,36,43,objects,objects,80,67,Stimuli/Experimental_stims/objects/alexander-andrews-JYGnB9gTCls-unsplash.jpg,Stimuli/Experimental_stims/objects/jonathan-greenaway-Y4hGgeiFn3s-unsplash.jpg,0,0,189,0,chosen,43,36,objects,objects,1900,0,8,4
278,21859,0,279,4,4,1,gain2,no_gain6,B,L,14,13,faces,faces,28,75,Stimuli/Experimental_stims/faces/david-siglin-UuW4psOb388-unsplash.jpg,Stimuli/Experimental_stims/faces/daniel-rigdon-dXmXKPP2L4E-unsplash.jpg,0,1,43,1,unchosen,14,13,faces,faces,2100,0,8,4
279,21859,0,280,4,4,1,gain2,no_gain2,B,I,14,0,faces,outdoor_scenes,28,77,Stimuli/Experimental_stims/faces/david-siglin-UuW4psOb388-unsplash.jpg,Stimuli/Experimental_stims/outdoor_scenes/aleksandra-boguslawska-MS7KD9Ti7FQ-unsplash.jpg,0,0,22,0,unchosen,0,14,outdoor_scenes,faces,1100,0,8,4
280,21859,0,281,4,4,1,gain3,no_gain6,J,L,15,13,faces,faces,75,75,Stimuli/Experimental_stims/faces/erik-lucatero-d2MSDujJl2g-unsplash.jpg,Stimuli/Experimental_stims/faces/daniel-rigdon-dXmXKPP2L4E-unsplash.jpg,0,0,94,0,unchosen,13,15,faces,faces,3800,1,8,4
281,21859,0,282,4,4,0,no_gain6,gain2,L,B,33,1,body_parts,outdoor_scenes,24,30,Stimuli/Experimental_stims/body_parts/tucker-good-36skLT5jZcc-unsplash.jpg,Stimuli/Experimental_stims/outdoor_scenes/ashim-d-silva-S2Q5mdOrrVc-unsplash.jpg,0,0,64,1,chosen,1,33,outdoor_scenes,body_parts,1200,0,8,4
282,21859,0,283,4,4,0,no_gain3,gain4,H,F,11,20,outdoor_scenes,faces,91,53,Stimuli/Experimental_stims/outdoor_scenes/stephen-leonardi-gyIRjKPXupE-unsplash.jpg,Stimuli/Experimental_stims/faces/justin-chen-J7Cf1Gch49E-unsplash.jpg,0,1,139,0,chosen,11,20,outdoor_scenes,faces,2500,0,8,4
283,21859,0,284,4,4,0,no_gain6,gain4,L,F,33,20,body_parts,faces,24,53,Stimuli/Experimental_stims/body_parts/tucker-good-36skLT5jZcc-unsplash.jpg,Stimuli/Experimental_stims/faces/justin-chen-J7Cf1Gch49E-unsplash.jpg,0,1,356,0,chosen,33,20,body_parts,faces,1200,0,8,4
284,21859,0,285,4,4,1,gain4,no_gain5,F,D,25,18,body_parts,faces,72,20,Stimuli/Experimental_stims/body_parts/engin-akyurt-Q2rfH3GW39c-unsplash.jpg,Stimuli/Experimental_stims/faces/jessica-radanavong-mrYkTuAesKE-unsplash.jpg,0,1,217,1,unchosen,25,18,body_parts,faces,1600,0,8,4
285,21859,0,286,4,4,1,gain6,no_gain5,C,D,30,43,body_parts,objects,45,67,Stimuli/Experimental_stims/body_parts/mika-korhonen-Xodzxosar18-unsplash.jpg,Stimuli/Experimental_stims/objects/jonathan-greenaway-Y4hGgeiFn3s-unsplash.jpg,0,1,94,1,chosen,30,43,body_parts,objects,1900,0,8,4
286,21859,0,287,4,4,1,gain2,no_gain5,B,D,1,43,outdoor_scenes,objects,30,67,Stimuli/Experimental_stims/outdoor_scenes/ashim-d-silva-S2Q5mdOrrVc-unsplash.jpg,Stimuli/Experimental_stims/objects/jonathan-greenaway-Y4hGgeiFn3s-unsplash.jpg,0,1,104,1,chosen,1,43,outdoor_scenes,objects,1000,0,8,4
287,21859,0,288,4,4,1,gain6,no_gain3,C,H,4,22,outdoor_scenes,faces,87,64,Stimuli/Experimental_stims/outdoor_scenes/jarrett-kow-1ZOyYPOBn7I-unsplash.jpg,Stimuli/Experimental_stims/faces/ravi-patel-VMGAbeeJTKo-unsplash.jpg,0,1,15,1,unchosen,4,22,outdoor_scenes,faces,5000,1,8,4
288,21859,0,289,4,4,0,no_gain4,gain1,A,E,6,36,outdoor_scenes,objects,35,80,Stimuli/Experimental_stims/outdoor_scenes/meng-ji-8BH_M-53CyA-unsplash.jpg,Stimuli/Experimental_stims/objects/alexander-andrews-JYGnB9gTCls-unsplash.jpg,0,1,139,0,chosen,6,36,outdoor_scenes,objects,2400,0,8,4
289,21859,0,290,4,4,0,no_gain3,gain5,H,K,22,46,faces,objects,64,68,Stimuli/Experimental_stims/faces/ravi-patel-VMGAbeeJTKo-unsplash.jpg,Stimuli/Experimental_stims/objects/mockup-graphics-PNsj6RiHAF4-unsplash.jpg,0,0,133,1,unchosen,46,22,objects,faces,1500,0,8,4
290,21859,0,291,4,4,1,gain6,no_gain3,C,H,30,11,body_parts,outdoor_scenes,45,91,Stimuli/Experimental_stims/body_parts/mika-korhonen-Xodzxosar18-unsplash.jpg,Stimuli/Experimental_stims/outdoor_scenes/stephen-leonardi-gyIRjKPXupE-unsplash.jpg,1,NaN,,NaN,chosen,NaN,NaN,NaN,NaN,1500,0,8,4
291,21859,0,292,4,4,1,gain4,no_gain4,F,A,25,38,body_parts,objects,72,39,Stimuli/Experimental_stims/body_parts/engin-akyurt-Q2rfH3GW39c-unsplash.jpg,Stimuli/Experimental_stims/objects/art-lasovsky-8XddFc6NkBY-unsplash.jpg,0,0,70,0,unchosen,38,25,objects,body_parts,1300,0,8,4