,PID,practice,trial,block,run,gain_left,left_item_id,right_item_id,left_pair_id,right_pair_id,left_stimulus,right_stimulus,left_category,right_category,left_path,right_path,no_response,left_chosen,rt,higher_outcome_chosen,choice_type,iti,long_iti,simulation,version,chosen_stimulus,unchosen_stimulus,chosen_category,unchosen_category
0,77890,1,1,0,0,0,,,,,,,,,Stimuli/Practice_stims/Final_decisions/debby-hudson-FmCSSSGge-0-unsplash.jpg,Stimuli/Practice_stims/Final_decisions/yassine-khalfalli-adsQ9d_Cx0c-unsplash.jpg,1,NaN,,NaN,,3000,0,9,3,NaN,NaN,NaN,NaN
1,77890,1,2,0,0,0,,,,,,,,,Stimuli/Practice_stims/Final_decisions/florian-wehde-iVW7mZPwd4g-unsplash.jpg,Stimuli/Practice_stims/Final_decisions/patrick-perkins-3wylDrjxH-E-unsplash.jpg,1,NaN,,NaN,,1500,0,9,3,NaN,NaN,NaN,NaN
2,77890,1,3,0,0,0,,,,,,,,,Stimuli/Practice_stims/Final_decisions/debby-hudson-FmCSSSGge-0-unsplash.jpg,Stimuli/Practice_stims/Final_decisions/florian-wehde-iVW7mZPwd4g-unsplash.jpg,1,NaN,,NaN,,2000,0,9,3,NaN,NaN,NaN,NaN
3,77890,1,4,0,0,0,,,,,,,,,Stimuli/Practice_stims/Final_decisions/yassine-khalfalli-adsQ9d_Cx0c-unsplash.jpg,Stimuli/Practice_stims/Final_decisions/debby-hudson-FmCSSSGge-0-unsplash.jpg,1,NaN,,NaN,,1000,0,9,3,NaN,NaN,NaN,NaN
4,77890,0,5,1,1,1,gain5,no_gain5,K,J,35,20,body_parts,faces,Stimuli/Experimental_stims/body_parts/wc-so-KH4AAPjb-tI-unsplash.jpg,Stimuli/Experimental_stims/faces/justin-chen-J7Cf1Gch49E-unsplash.jpg,1,NaN,,NaN,unchosen,4700,1,9,3,50,50,NaN,NaN,NaN,NaN
5,77890,0,6,1,1,1,gain3,no_gain2,D,B,46,4,objects,outdoor_scenes,Stimuli/Experimental_stims/objects/mockup-graphics-PNsj6RiHAF4-unsplash.jpg,Stimuli/Experimental_stims/outdoor_scenes/jarrett-kow-1ZOyYPOBn7I-unsplash.jpg,1,NaN,,NaN,unchosen,2300,0,9,3,50,50,NaN,NaN,NaN,NaN
6,77890,0,7,1,1,1,gain1,no_gain2,F,B,19,4,faces,outdoor_scenes,Stimuli/Experimental_stims/faces/joel-mott-LaK153ghdig-unsplash.jpg,Stimuli/Experimental_stims/outdoor_scenes/jarrett-kow-1ZOyYPOBn7I-unsplash.jpg,1,NaN,,NaN,unchosen,1100,0,9,3,50,50,NaN,NaN,NaN,NaN
7,77890,0,8,1,1,0,no_gain4,gain5,L,K,14,47,faces,objects,Stimuli/Experimental_stims/faces/david-siglin-UuW4psOb388-unsplash.jpg,Stimuli/Experimental_stims/objects/ronaldo-arthur-vidal-Cdz_lvnl37k-unsplash.jpg,1,NaN,,NaN,chosen,1600,0,9,3,50,50,NaN,NaN,NaN,NaN
8,77890,0,9,1,1,0,no_gain5,gain1,J,F,20,19,faces,faces,Stimuli/Experimental_stims/faces/justin-chen-J7Cf1Gch49E-unsplash.jpg,Stimuli/Experimental_stims/faces/joel-mott-LaK153ghdig-unsplash.jpg,1,NaN,,NaN,unchosen,2300,0,9,3,50,50,NaN,NaN,NaN,NaN
9,77890,0,10,1,1,0,no_gain4,gain1,L,F,14,33,faces,body_parts,Stimuli/Experimental_stims/faces/david-siglin-UuW4psOb388-unsplash.jpg,Stimuli/Experimental_stims/body_parts/tucker-good-36skLT5jZcc-unsplash.jpg,1,NaN,,NaN,chosen,1500,0,9,3,50,50,NaN,NaN,NaN,NaN
10,77890,0,11,1,1,1,gain1,no_gain3,F,I,33,10,body_parts,outdoor_scenes,Stimuli/Experimental_stims/body_parts/tucker-good-36skLT5jZcc-unsplash.jpg,Stimuli/Experimental_stims/outdoor_scenes/shannon-kunkle-dM8INmkyDas-unsplash.jpg,1,NaN,,NaN,chosen,1500,0,9,3,50,50,NaN,NaN,NaN,NaN
11,77890,0,12,1,1,0,no_gain1,gain1,E,F,29,33,body_parts,body_parts,Stimuli/Experimental_stims/body_parts/manuel-schinner-ZwjFuJ7ebpk-unsplash.jpg,Stimuli/Experimental_stims/body_parts/tucker-good-36skLT5jZcc-unsplash.jpg,1,NaN,,NaN,chosen,1200,0,9,3,50,50,NaN,NaN,NaN,NaN
12,77890,0,13,1,1,1,gain6,no_gain1,A,E,11,39,outdoor_scenes,objects,Stimuli/Experimental_stims/outdoor_scenes/stephen-leonardi-gyIRjKPXupE-unsplash.jpg,Stimuli/Experimental_stims/objects/charlesdeluvio-1-nx1QR5dTE-unsplash.jpg,1,NaN,,NaN,unchosen,1300,0,9,3,50,50,NaN,NaN,NaN,NaN
13,77890,0,14,1,1,0,no_gain1,gain4,E,C,29,26,body_parts,body_parts,Stimuli/Experimental_stims/body_parts/manuel-schinner-ZwjFuJ7ebpk-unsplash.jpg,Stimuli/Experimental_stims/body_parts/engin-akyurt-x_3gyC42btc-unsplash.jpg,1,NaN,,NaN,chosen,1200,0,9,3,50,50,NaN,NaN,NaN,NaN
14,77890,0,15,1,1,1,gain6,no_gain4,A,L,11,28,outdoor_scenes,body_parts,Stimuli/Experimental_stims/outdoor_scenes/stephen-leonardi-gyIRjKPXupE-unsplash.jpg,Stimuli/Experimental_stims/body_parts/ira-vishnevskaya-8DQAvdCby1I-unsplash.jpg,1,NaN,,NaN,unchosen,4100,1,9,3,50,50,NaN,NaN,NaN,NaN
15,77890,0,16,1,1,1,gain4,no_gain4,C,L,2,28,outdoor_scenes,body_parts,Stimuli/Experimental_stims/outdoor_scenes/bruno-van-der-kraan-qez8mNJ3ilU-unsplash.jpg,Stimuli/Experimental_stims/body_parts/ira-vishnevskaya-8DQAvdCby1I-unsplash.jpg,1,NaN,,NaN,unchosen,1200,0,9,3,50,50,NaN,NaN,NaN,NaN
16,77890,0,17,1,1,1,gain5,no_gain6,K,G,47,8,objects,outdoor_scenes,Stimuli/Experimental_stims/objects/ronaldo-arthur-vidal-Cdz_lvnl37k-unsplash.jpg,Stimuli/Experimental_stims/outdoor_scenes/samsommer-vddccTqwal8-unsplash.jpg,1,NaN,,NaN,chosen,1200,0,9,3,50,50,NaN,NaN,NaN,NaN
17,77890,0,18,1,1,0,no_gain3,gain3,I,D,25,46,body_parts,objects,Stimuli/Experimental_stims/body_parts/engin-akyurt-Q2rfH3GW39c-unsplash.jpg,Stimuli/Experimental_stims/objects/mockup-graphics-PNsj6RiHAF4-unsplash.jpg,1,NaN,,NaN,unchosen,1600,0,9,3,50,50,NaN,NaN,NaN,NaN
18,77890,0,19,1,1,0,no_gain4,gain3,L,D,14,22,faces,faces,Stimuli/Experimental_stims/faces/david-siglin-UuW4psOb388-unsplash.jpg,Stimuli/Experimental_stims/faces/ravi-patel-VMGAbeeJTKo-unsplash.jpg,1,NaN,,NaN,chosen,1400,0,9,3,50,50,NaN,NaN,NaN,NaN
19,77890,0,20,1,1,0,no_gain2,gain2,B,H,4,13,outdoor_scenes,faces,Stimuli/Experimental_stims/outdoor_scenes/jarrett-kow-1ZOyYPOBn7I-unsplash.jpg,Stimuli/Experimental_stims/faces/daniel-rigdon-dXmXKPP2L4E-unsplash.jpg,1,NaN,,NaN,unchosen,4300,1,9,3,50,50,NaN,NaN,NaN,NaN
20,77890,0,21,1,1,1,gain2,no_gain4,H,L,3,14,outdoor_scenes,faces,Stimuli/Experimental_stims/outdoor_scenes/henry-be-NLF6hTe4PAg-unsplash.jpg,Stimuli/Experimental_stims/faces/david-siglin-UuW4psOb388-unsplash.jpg,1,NaN,,NaN,chosen,1500,0,9,3,50,50,NaN,NaN,NaN,NaN
21,77890,0,22,1,1,1,gain2,no_gain5,H,J,3,42,outdoor_scenes,objects,Stimuli/Experimental_stims/outdoor_scenes/henry-be-NLF6hTe4PAg-unsplash.jpg,Stimuli/Experimental_stims/objects/jess-bailey-nOeVi8DsN8U-unsplash.jpg,1,NaN,,NaN,chosen,1400,0,9,3,50,50,NaN,NaN,NaN,NaN
22,77890,0,23,1,1,1,gain4,no_gain2,C,B,2,4,outdoor_scenes,outdoor_scenes,Stimuli/Experimental_stims/outdoor_scenes/bruno-van-der-kraan-qez8mNJ3ilU-unsplash.jpg,Stimuli/Experimental_stims/outdoor_scenes/jarrett-kow-1ZOyYPOBn7I-unsplash.jpg,1,NaN,,NaN,unchosen,1300,0,9,3,50,50,NaN,NaN,NaN,NaN
23,77890,0,24,1,1,1,gain2,no_gain6,H,G,13,41,faces,objects,Stimuli/Experimental_stims/faces/daniel-rigdon-dXmXKPP2L4E-unsplash.jpg,Stimuli/Experimental_stims/objects/insung-yoon-w2JtIQQXoRU-unsplash.jpg,1,NaN,,NaN,unchosen,1000,0,9,3,50,50,NaN,NaN,NaN,NaN
24,77890,0,25,1,1,0,no_gain1,gain5,E,K,29,47,body_parts,objects,Stimuli/Experimental_stims/body_parts/manuel-schinner-ZwjFuJ7ebpk-unsplash.jpg,Stimuli/Experimental_stims/objects/ronaldo-arthur-vidal-Cdz_lvnl37k-unsplash.jpg,1,NaN,,NaN,chosen,3100,1,9,3,50,50,NaN,NaN,NaN,NaN
25,77890,0,26,1,1,1,gain2,no_gain1,H,E,3,29,outdoor_scenes,body_parts,Stimuli/Experimental_stims/outdoor_scenes/henry-be-NLF6hTe4PAg-unsplash.jpg,Stimuli/Experimental_stims/body_parts/manuel-schinner-ZwjFuJ7ebpk-unsplash.jpg,1,NaN,,NaN,chosen,2700,0,9,3,50,50,NaN,NaN,NaN,NaN
26,77890,0,27,1,1,1,gain2,no_gain2,H,B,3,17,outdoor_scenes,faces,Stimuli/Experimental_stims/outdoor_scenes/henry-be-NLF6hTe4PAg-unsplash.jpg,Stimuli/Experimental_stims/faces/good-faces-xmSWVeGEnJw-unsplash.jpg,1,NaN,,NaN,chosen,1400,0,9,3,50,50,NaN,NaN,NaN,NaN
27,77890,0,28,1,1,1,gain4,no_gain3,C,I,2,25,outdoor_scenes,body_parts,Stimuli/Experimental_stims/outdoor_scenes/bruno-van-der-kraan-qez8mNJ3ilU-unsplash.jpg,Stimuli/Experimental_stims/body_parts/engin-akyurt-Q2rfH3GW39c-unsplash.jpg,1,NaN,,NaN,unchosen,1100,0,9,3,50,50,NaN,NaN,NaN,NaN
28,77890,0,29,1,1,0,no_gain1,gain3,E,D,39,46,objects,objects,Stimuli/Experimental_stims/objects/charlesdeluvio-1-nx1QR5dTE-unsplash.jpg,Stimuli/Experimental_stims/objects/mockup-graphics-PNsj6RiHAF4-unsplash.jpg,1,NaN,,NaN,unchosen,1900,0,9,3,50,50,NaN,NaN,NaN,NaN
29,77890,0,30,1,1,1,gain6,no_gain4,A,L,37,14,objects,faces,Stimuli/Experimental_stims/objects/alexander-andrews-VLGWE_SumrA-unsplash.jpg,Stimuli/Experimental_stims/faces/david-siglin-UuW4psOb388-unsplash.jpg,1,NaN,,NaN,chosen,1200,0,9,3,50,50,NaN,NaN,NaN,NaN
30,77890,0,31,1,1,1,gain5,no_gain3,K,I,47,10,objects,outdoor_scenes,Stimuli/Experimental_stims/objects/ronaldo-arthur-vidal-Cdz_lvnl37k-unsplash.jpg,Stimuli/Experimental_stims/outdoor_scenes/shannon-kunkle-dM8INmkyDas-unsplash.jpg,1,NaN,,NaN,chosen,2300,0,9,3,50,50,NaN,NaN,NaN,NaN
31,77890,0,32,1,1,0,no_gain3,gain5,I,K,25,35,body_parts,body_parts,Stimuli/Experimental_stims/body_parts/engin-akyurt-Q2rfH3GW39c-unsplash.jpg,Stimuli/Experimental_stims/body_parts/wc-so-KH4AAPjb-tI-unsplash.jpg,1,NaN,,NaN,unchosen,2000,0,9,3,50,50,NaN,NaN,NaN,NaN
32,77890,0,33,1,1,1,gain6,no_gain6,A,G,37,8,objects,outdoor_scenes,Stimuli/Experimental_stims/objects/alexander-andrews-VLGWE_SumrA-unsplash.jpg,Stimuli/Experimental_stims/outdoor_scenes/samsommer-vddccTqwal8-unsplash.jpg,1,NaN,,NaN,chosen,2000,0,9,3,50,50,NaN,NaN,NaN,NaN
33,77890,0,34,1,1,0,no_gain6,gain6,G,A,41,11,objects,outdoor_scenes,Stimuli/Experimental_stims/objects/insung-yoon-w2JtIQQXoRU-unsplash.jpg,Stimuli/Experimental_stims/outdoor_scenes/stephen-leonardi-gyIRjKPXupE-unsplash.jpg,1,NaN,,NaN,unchosen,1300,0,9,3,50,50,NaN,NaN,NaN,NaN
34,77890,0,35,1,1,0,no_gain6,gain1,G,F,41,19,objects,faces,Stimuli/Experimental_stims/objects/insung-yoon-w2JtIQQXoRU-unsplash.jpg,Stimuli/Experimental_stims/faces/joel-mott-LaK153ghdig-unsplash.jpg,1,NaN,,NaN,unchosen,3100,1,9,3,50,50,NaN,NaN,NaN,NaN
35,77890,0,36,1,1,0,no_gain3,gain2,I,H,10,3,outdoor_scenes,outdoor_scenes,Stimuli/Experimental_stims/outdoor_scenes/shannon-kunkle-dM8INmkyDas-unsplash.jpg,Stimuli/Experimental_stims/outdoor_scenes/henry-be-NLF6hTe4PAg-unsplash.jpg,1,NaN,,NaN,chosen,2600,0,9,3,50,50,NaN,NaN,NaN,NaN
36,77890,0,37,1,1,0,no_gain6,gain4,G,C,41,2,objects,outdoor_scenes,Stimuli/Experimental_stims/objects/insung-yoon-w2JtIQQXoRU-unsplash.jpg,Stimuli/Experimental_stims/outdoor_scenes/bruno-van-der-kraan-qez8mNJ3ilU-unsplash.jpg,1,NaN,,NaN,unchosen,1200,0,9,3,50,50,NaN,NaN,NaN,NaN
37,77890,0,38,1,1,1,gain4,no_gain5,C,J,2,20,outdoor_scenes,faces,Stimuli/Experimental_stims/outdoor_scenes/bruno-van-der-kraan-qez8mNJ3ilU-unsplash.jpg,Stimuli/Experimental_stims/faces/justin-chen-J7Cf1Gch49E-unsplash.jpg,1,NaN,,NaN,unchosen,1700,0,9,3,50,50,NaN,NaN,NaN,NaN
38,77890,0,39,1,1,1,gain2,no_gain5,H,J,13,20,faces,faces,Stimuli/Experimental_stims/faces/daniel-rigdon-dXmXKPP2L4E-unsplash.jpg,Stimuli/Experimental_stims/faces/justin-chen-J7Cf1Gch49E-unsplash.jpg,1,NaN,,NaN,unchosen,1600,0,9,3,50,50,NaN,NaN,NaN,NaN
39,77890,0,40,1,1,0,no_gain1,gain3,E,D,29,22,body_parts,faces,Stimuli/Experimental_stims/body_parts/manuel-schinner-ZwjFuJ7ebpk-unsplash.jpg,Stimuli/Experimental_stims/faces/ravi-patel-VMGAbeeJTKo-unsplash.jpg,1,NaN,,NaN,chosen,4400,1,9,3,50,50,NaN,NaN,NaN,NaN
40,77890,0,41,1,1,1,gain1,no_gain5,F,J,33,42,body_parts,objects,Stimuli/Experimental_stims/body_parts/tucker-good-36skLT5jZcc-unsplash.jpg,Stimuli/Experimental_stims/objects/jess-bailey-nOeVi8DsN8U-unsplash.jpg,1,NaN,,NaN,chosen,1600,0,9,3,50,50,NaN,NaN,NaN,NaN
41,77890,0,42,1,1,0,no_gain4,gain3,L,D,28,46,body_parts,objects,Stimuli/Experimental_stims/body_parts/ira-vishnevskaya-8DQAvdCby1I-unsplash.jpg,Stimuli/Experimental_stims/objects/mockup-graphics-PNsj6RiHAF4-unsplash.jpg,1,NaN,,NaN,unchosen,1700,0,9,3,50,50,NaN,NaN,NaN,NaN
42,77890,0,43,1,1,1,gain6,no_gain2,A,B,37,17,objects,faces,Stimuli/Experimental_stims/objects/alexander-andrews-VLGWE_SumrA-unsplash.jpg,Stimuli/Experimental_stims/faces/good-faces-xmSWVeGEnJw-unsplash.jpg,1,NaN,,NaN,chosen,1900,0,9,3,50,50,NaN,NaN,NaN,NaN
43,77890,0,44,1,1,1,gain4,no_gain4,C,L,26,14,body_parts,faces,Stimuli/Experimental_stims/body_parts/engin-akyurt-x_3gyC42btc-unsplash.jpg,Stimuli/Experimental_stims/faces/david-siglin-UuW4psOb388-unsplash.jpg,1,NaN,,NaN,chosen,1900,0,9,3,50,50,NaN,NaN,NaN,NaN
44,77890,0,45,1,1,0,no_gain4,gain1,L,F,28,19,body_parts,faces,Stimuli/Experimental_stims/body_parts/ira-vishnevskaya-8DQAvdCby1I-unsplash.jpg,Stimuli/Experimental_stims/faces/joel-mott-LaK153ghdig-unsplash.jpg,1,NaN,,NaN,unchosen,2000,0,9,3,50,50,NaN,NaN,NaN,NaN
45,77890,0,46,1,1,0,no_gain2,gain1,B,F,17,33,faces,body_parts,Stimuli/Experimental_stims/faces/good-faces-xmSWVeGEnJw-unsplash.jpg,Stimuli/Experimental_stims/body_parts/tucker-good-36skLT5jZcc-unsplash.jpg,1,NaN,,NaN,chosen,2200,0,9,3,50,50,NaN,NaN,NaN,NaN
46,77890,0,47,1,1,0,no_gain5,gain5,J,K,42,47,objects,objects,Stimuli/Experimental_stims/objects/jess-bailey-nOeVi8DsN8U-unsplash.jpg,Stimuli/Experimental_stims/objects/ronaldo-arthur-vidal-Cdz_lvnl37k-unsplash.jpg,1,NaN,,NaN,chosen,3000,0,9,3,50,50,NaN,NaN,NaN,NaN
47,77890,0,48,1,1,0,no_gain2,gain3,B,D,17,22,faces,faces,Stimuli/Experimental_stims/faces/good-faces-xmSWVeGEnJw-unsplash.jpg,Stimuli/Experimental_stims/faces/ravi-patel-VMGAbeeJTKo-unsplash.jpg,1,NaN,,NaN,chosen,4200,1,9,3,50,50,NaN,NaN,NaN,NaN
48,77890,0,49,1,1,0,no_gain6,gain3,G,D,41,46,objects,objects,Stimuli/Experimental_stims/objects/insung-yoon-w2JtIQQXoRU-unsplash.jpg,Stimuli/Experimental_stims/objects/mockup-graphics-PNsj6RiHAF4-unsplash.jpg,1,NaN,,NaN,unchosen,2100,0,9,3,50,50,NaN,NaN,NaN,NaN
49,77890,0,50,1,1,0,no_gain5,gain4,J,C,42,26,objects,body_parts,Stimuli/Experimental_stims/objects/jess-bailey-nOeVi8DsN8U-unsplash.jpg,Stimuli/Experimental_stims/body_parts/engin-akyurt-x_3gyC42btc-unsplash.jpg,1,NaN,,NaN,chosen,1800,0,9,3,50,50,NaN,NaN,NaN,NaN
50,77890,0,51,1,1,1,gain3,no_gain5,D,J,22,42,faces,objects,Stimuli/Experimental_stims/faces/ravi-patel-VMGAbeeJTKo-unsplash.jpg,Stimuli/Experimental_stims/objects/jess-bailey-nOeVi8DsN8U-unsplash.jpg,1,NaN,,NaN,chosen,2400,0,9,3,50,50,NaN,NaN,NaN,NaN
51,77890,0,52,1,1,0,no_gain4,gain2,L,H,28,13,body_parts,faces,Stimuli/Experimental_stims/body_parts/ira-vishnevskaya-8DQAvdCby1I-unsplash.jpg,Stimuli/Experimental_stims/faces/daniel-rigdon-dXmXKPP2L4E-unsplash.jpg,1,NaN,,NaN,unchosen,1100,0,9,3,50,50,NaN,NaN,NaN,NaN
52,77890,0,53,1,1,0,no_gain2,gain5,B,K,17,47,faces,objects,Stimuli/Experimental_stims/faces/good-faces-xmSWVeGEnJw-unsplash.jpg,Stimuli/Experimental_stims/objects/ronaldo-arthur-vidal-Cdz_lvnl37k-unsplash.jpg,1,NaN,,NaN,chosen,1100,0,9,3,50,50,NaN,NaN,NaN,NaN
53,77890,0,54,1,1,0,no_gain2,gain6,B,A,4,11,outdoor_scenes,outdoor_scenes,Stimuli/Experimental_stims/outdoor_scenes/jarrett-kow-1ZOyYPOBn7I-unsplash.jpg,Stimuli/Experimental_stims/outdoor_scenes/stephen-leonardi-gyIRjKPXupE-unsplash.jpg,1,NaN,,NaN,unchosen,1100,0,9,3,50,50,NaN,NaN,NaN,NaN
54,77890,0,55,1,1,1,gain6,no_gain3,A,I,37,10,objects,outdoor_scenes,Stimuli/Experimental_stims/objects/alexander-andrews-VLGWE_SumrA-unsplash.jpg,Stimuli/Experimental_stims/outdoor_scenes/shannon-kunkle-dM8INmkyDas-unsplash.jpg,1,NaN,,NaN,chosen,3900,1,9,3,50,50,NaN,NaN,NaN,NaN
55,77890,0,56,1,1,0,no_gain1,gain5,E,K,39,35,objects,body_parts,Stimuli/Experimental_stims/objects/charlesdeluvio-1-nx1QR5dTE-unsplash.jpg,Stimuli/Experimental_stims/body_parts/wc-so-KH4AAPjb-tI-unsplash.jpg,1,NaN,,NaN,unchosen,2100,0,9,3,50,50,NaN,NaN,NaN,NaN
56,77890,0,57,1,1,1,gain5,no_gain4,K,L,35,28,body_parts,body_parts,Stimuli/Experimental_stims/body_parts/wc-so-KH4AAPjb-tI-unsplash.jpg,Stimuli/Experimental_stims/body_parts/ira-vishnevskaya-8DQAvdCby1I-unsplash.jpg,1,NaN,,NaN,unchosen,1000,0,9,3,50,50,NaN,NaN,NaN,NaN
57,77890,0,58,1,1,0,no_gain1,gain4,E,C,39,2,objects,outdoor_scenes,Stimuli/Experimental_stims/objects/charlesdeluvio-1-nx1QR5dTE-unsplash.jpg,Stimuli/Experimental_stims/outdoor_scenes/bruno-van-der-kraan-qez8mNJ3ilU-unsplash.jpg,1,NaN,,NaN,unchosen,1200,0,9,3,50,50,NaN,NaN,NaN,NaN
58,77890,0,59,1,1,1,gain3,no_gain6,D,G,22,8,faces,outdoor_scenes,Stimuli/Experimental_stims/faces/ravi-patel-VMGAbeeJTKo-unsplash.jpg,Stimuli/Experimental_stims/outdoor_scenes/samsommer-vddccTqwal8-unsplash.jpg,1,NaN,,NaN,chosen,1300,0,9,3,50,50,NaN,NaN,NaN,NaN
59,77890,0,60,1,1,1,gain4,no_gain6,C,G,26,8,body_parts,outdoor_scenes,Stimuli/Experimental_stims/body_parts/engin-akyurt-x_3gyC42btc-unsplash.jpg,Stimuli/Experimental_stims/outdoor_scenes/samsommer-vddccTqwal8-unsplash.jpg,1,NaN,,NaN,chosen,1300,0,9,3,50,50,NaN,NaN,NaN,NaN
60,77890,0,61,1,1,1,gain2,no_gain1,H,E,13,39,faces,objects,Stimuli/Experimental_stims/faces/daniel-rigdon-dXmXKPP2L4E-unsplash.jpg,Stimuli/Experimental_stims/objects/charlesdeluvio-1-nx1QR5dTE-unsplash.jpg,1,NaN,,NaN,unchosen,3300,1,9,3,50,50,NaN,NaN,NaN,NaN
61,77890,0,62,1,1,1,gain2,no_gain3,H,I,13,25,faces,body_parts,Stimuli/Experimental_stims/faces/daniel-rigdon-dXmXKPP2L4E-unsplash.jpg,Stimuli/Experimental_stims/body_parts/engin-akyurt-Q2rfH3GW39c-unsplash.jpg,1,NaN,,NaN,unchosen,1100,0,9,3,50,50,NaN,NaN,NaN,NaN
62,77890,0,63,1,1,0,no_gain5,gain6,J,A,42,37,objects,objects,Stimuli/Experimental_stims/objects/jess-bailey-nOeVi8DsN8U-unsplash.jpg,Stimuli/Experimental_stims/objects/alexander-andrews-VLGWE_SumrA-unsplash.jpg,1,NaN,,NaN,chosen,1400,0,9,3,50,50,NaN,NaN,NaN,NaN
63,77890,0,64,1,1,0,no_gain2,gain4,B,C,17,26,faces,body_parts,Stimuli/Experimental_stims/faces/good-faces-xmSWVeGEnJw-unsplash.jpg,Stimuli/Experimental_stims/body_parts/engin-akyurt-x_3gyC42btc-unsplash.jpg,1,NaN,,NaN,chosen,1400,0,9,3,50,50,NaN,NaN,NaN,NaN
64,77890,0,65,1,1,0,no_gain3,gain3,I,D,10,22,outdoor_scenes,faces,Stimuli/Experimental_stims/outdoor_scenes/shannon-kunkle-dM8INmkyDas-unsplash.jpg,Stimuli/Experimental_stims/faces/ravi-patel-VMGAbeeJTKo-unsplash.jpg,1,NaN,,NaN,chosen,2700,0,9,3,50,50,NaN,NaN,NaN,NaN
65,77890,0,66,1,1,0,no_gain6,gain5,G,K,41,35,objects,body_parts,Stimuli/Experimental_stims/objects/insung-yoon-w2JtIQQXoRU-unsplash.jpg,Stimuli/Experimental_stims/body_parts/wc-so-KH4AAPjb-tI-unsplash.jpg,1,NaN,,NaN,unchosen,1500,0,9,3,50,50,NaN,NaN,NaN,NaN
66,77890,0,67,1,1,1,gain3,no_gain5,D,J,46,20,objects,faces,Stimuli/Experimental_stims/objects/mockup-graphics-PNsj6RiHAF4-unsplash.jpg,Stimuli/Experimental_stims/faces/justin-chen-J7Cf1Gch49E-unsplash.jpg,1,NaN,,NaN,unchosen,3700,1,9,3,50,50,NaN,NaN,NaN,NaN
67,77890,0,68,1,1,0,no_gain1,gain1,E,F,39,19,objects,faces,Stimuli/Experimental_stims/objects/charlesdeluvio-1-nx1QR5dTE-unsplash.jpg,Stimuli/Experimental_stims/faces/joel-mott-LaK153ghdig-unsplash.jpg,1,NaN,,NaN,unchosen,2600,0,9,3,50,50,NaN,NaN,NaN,NaN
68,77890,0,69,1,1,1,gain4,no_gain3,C,I,26,10,body_parts,outdoor_scenes,Stimuli/Experimental_stims/body_parts/engin-akyurt-x_3gyC42btc-unsplash.jpg,Stimuli/Experimental_stims/outdoor_scenes/shannon-kunkle-dM8INmkyDas-unsplash.jpg,1,NaN,,NaN,chosen,1600,0,9,3,50,50,NaN,NaN,NaN,NaN
69,77890,0,70,1,1,1,gain6,no_gain3,A,I,11,25,outdoor_scenes,body_parts,Stimuli/Experimental_stims/outdoor_scenes/stephen-leonardi-gyIRjKPXupE-unsplash.jpg,Stimuli/Experimental_stims/body_parts/engin-akyurt-Q2rfH3GW39c-unsplash.jpg,1,NaN,,NaN,unchosen,1100,0,9,3,50,50,NaN,NaN,NaN,NaN
70,77890,0,71,1,1,0,no_gain6,gain2,G,H,8,3,outdoor_scenes,outdoor_scenes,Stimuli/Experimental_stims/outdoor_scenes/samsommer-vddccTqwal8-unsplash.jpg,Stimuli/Experimental_stims/outdoor_scenes/henry-be-NLF6hTe4PAg-unsplash.jpg,1,NaN,,NaN,chosen,1600,0,9,3,50,50,NaN,NaN,NaN,NaN
71,77890,0,72,1,1,0,no_gain6,gain1,G,F,8,33,outdoor_scenes,body_parts,Stimuli/Experimental_stims/outdoor_scenes/samsommer-vddccTqwal8-unsplash.jpg,Stimuli/Experimental_stims/body_parts/tucker-good-36skLT5jZcc-unsplash.jpg,1,NaN,,NaN,chosen,4400,1,9,3,50,50,NaN,NaN,NaN,NaN
72,77890,0,73,1,1,1,gain6,no_gain1,A,E,37,29,objects,body_parts,Stimuli/Experimental_stims/objects/alexander-andrews-VLGWE_SumrA-unsplash.jpg,Stimuli/Experimental_stims/body_parts/manuel-schinner-ZwjFuJ7ebpk-unsplash.jpg,1,NaN,,NaN,chosen,1100,0,9,3,50,50,NaN,NaN,NaN,NaN
73,77890,0,74,1,1,0,no_gain5,gain6,J,A,20,11,faces,outdoor_scenes,Stimuli/Experimental_stims/faces/justin-chen-J7Cf1Gch49E-unsplash.jpg,Stimuli/Experimental_stims/outdoor_scenes/stephen-leonardi-gyIRjKPXupE-unsplash.jpg,1,NaN,,NaN,unchosen,1700,0,9,3,50,50,NaN,NaN,NaN,NaN
74,77890,0,75,1,1,1,gain5,no_gain2,K,B,35,4,body_parts,outdoor_scenes,Stimuli/Experimental_stims/body_parts/wc-so-KH4AAPjb-tI-unsplash.jpg,Stimuli/Experimental_stims/outdoor_scenes/jarrett-kow-1ZOyYPOBn7I-unsplash.jpg,1,NaN,,NaN,unchosen,2500,0,9,3,50,50,NaN,NaN,NaN,NaN
75,77890,0,76,1,1,1,gain1,no_gain3,F,I,19,25,faces,body_parts,Stimuli/Experimental_stims/faces/joel-mott-LaK153ghdig-unsplash.jpg,Stimuli/Experimental_stims/body_parts/engin-akyurt-Q2rfH3GW39c-unsplash.jpg,1,NaN,,NaN,unchosen,2100,0,9,3,50,50,NaN,NaN,NaN,NaN
76,77890,0,77,2,2,0,no_gain2,gain4,B,C,4,2,outdoor_scenes,outdoor_scenes,Stimuli/Experimental_stims/outdoor_scenes/jarrett-kow-1ZOyYPOBn7I-unsplash.jpg,Stimuli/Experimental_stims/outdoor_scenes/bruno-van-der-kraan-qez8mNJ3ilU-unsplash.jpg,1,NaN,,NaN,unchosen,3800,1,9,3,50,50,NaN,NaN,NaN,NaN
77,77890,0,78,2,2,0,no_gain6,gain5,G,K,8,47,outdoor_scenes,objects,Stimuli/Experimental_stims/outdoor_scenes/samsommer-vddccTqwal8-unsplash.jpg,Stimuli/Experimental_stims/objects/ronaldo-arthur-vidal-Cdz_lvnl37k-unsplash.jpg,1,NaN,,NaN,chosen,1200,0,9,3,50,50,NaN,NaN,NaN,NaN
78,77890,0,79,2,2,0,no_gain5,gain5,J,K,42,47,objects,objects,Stimuli/Experimental_stims/objects/jess-bailey-nOeVi8DsN8U-unsplash.jpg,Stimuli/Experimental_stims/objects/ronaldo-arthur-vidal-Cdz_lvnl37k-unsplash.jpg,1,NaN,,NaN,chosen,1200,0,9,3,50,50,NaN,NaN,NaN,NaN
79,77890,0,80,2,2,0,no_gain6,gain3,G,D,41,46,objects,objects,Stimuli/Experimental_stims/objects/insung-yoon-w2JtIQQXoRU-unsplash.jpg,Stimuli/Experimental_stims/objects/mockup-graphics-PNsj6RiHAF4-unsplash.jpg,1,NaN,,NaN,unchosen,2700,0,9,3,50,50,NaN,NaN,NaN,NaN
80,77890,0,81,2,2,0,no_gain2,gain6,B,A,17,37,faces,objects,Stimuli/Experimental_stims/faces/good-faces-xmSWVeGEnJw-unsplash.jpg,Stimuli/Experimental_stims/objects/alexander-andrews-VLGWE_SumrA-unsplash.jpg,1,NaN,,NaN,chosen,2900,0,9,3,50,50,NaN,NaN,NaN,NaN
81,77890,0,82,2,2,1,gain6,no_gain4,A,L,11,28,outdoor_scenes,body_parts,Stimuli/Experimental_stims/outdoor_scenes/stephen-leonardi-gyIRjKPXupE-unsplash.jpg,Stimuli/Experimental_stims/body_parts/ira-vishnevskaya-8DQAvdCby1I-unsplash.jpg,1,NaN,,NaN,unchosen,1400,0,9,3,50,50,NaN,NaN,NaN,NaN
82,77890,0,83,2,2,1,gain2,no_gain1,H,E,3,29,outdoor_scenes,body_parts,Stimuli/Experimental_stims/outdoor_scenes/henry-be-NLF6hTe4PAg-unsplash.jpg,Stimuli/Experimental_stims/body_parts/manuel-schinner-ZwjFuJ7ebpk-unsplash.jpg,1,NaN,,NaN,chosen,1100,0,9,3,50,50,NaN,NaN,NaN,NaN
83,77890,0,84,2,2,0,no_gain5,gain3,J,D,42,22,objects,faces,Stimuli/Experimental_stims/objects/jess-bailey-nOeVi8DsN8U-unsplash.jpg,Stimuli/Experimental_stims/faces/ravi-patel-VMGAbeeJTKo-unsplash.jpg,1,NaN,,NaN,chosen,2400,0,9,3,50,50,NaN,NaN,NaN,NaN
84,77890,0,85,2,2,1,gain6,no_gain3,A,I,11,25,outdoor_scenes,body_parts,Stimuli/Experimental_stims/outdoor_scenes/stephen-leonardi-gyIRjKPXupE-unsplash.jpg,Stimuli/Experimental_stims/body_parts/engin-akyurt-Q2rfH3GW39c-unsplash.jpg,1,NaN,,NaN,unchosen,2400,0,9,3,50,50,NaN,NaN,NaN,NaN
85,77890,0,86,2,2,1,gain5,no_gain1,K,E,47,29,objects,body_parts,Stimuli/Experimental_stims/objects/ronaldo-arthur-vidal-Cdz_lvnl37k-unsplash.jpg,Stimuli/Experimental_stims/body_parts/manuel-schinner-ZwjFuJ7ebpk-unsplash.jpg,1,NaN,,NaN,chosen,1400,0,9,3,50,50,NaN,NaN,NaN,NaN
86,77890,0,87,2,2,0,no_gain3,gain1,I,F,10,33,outdoor_scenes,body_parts,Stimuli/Experimental_stims/outdoor_scenes/shannon-kunkle-dM8INmkyDas-unsplash.jpg,Stimuli/Experimental_stims/body_parts/tucker-good-36skLT5jZcc-unsplash.jpg,1,NaN,,NaN,chosen,3000,1,9,3,50,50,NaN,NaN,NaN,NaN
87,77890,0,88,2,2,0,no_gain5,gain1,J,F,20,19,faces,faces,Stimuli/Experimental_stims/faces/justin-chen-J7Cf1Gch49E-unsplash.jpg,Stimuli/Experimental_stims/faces/joel-mott-LaK153ghdig-unsplash.jpg,1,NaN,,NaN,unchosen,1000,0,9,3,50,50,NaN,NaN,NaN,NaN
88,77890,0,89,2,2,0,no_gain5,gain4,J,C,20,2,faces,outdoor_scenes,Stimuli/Experimental_stims/faces/justin-chen-J7Cf1Gch49E-unsplash.jpg,Stimuli/Experimental_stims/outdoor_scenes/bruno-van-der-kraan-qez8mNJ3ilU-unsplash.jpg,1,NaN,,NaN,unchosen,1100,0,9,3,50,50,NaN,NaN,NaN,NaN
89,77890,0,90,2,2,0,no_gain3,gain2,I,H,25,13,body_parts,faces,Stimuli/Experimental_stims/body_parts/engin-akyurt-Q2rfH3GW39c-unsplash.jpg,Stimuli/Experimental_stims/faces/daniel-rigdon-dXmXKPP2L4E-unsplash.jpg,1,NaN,,NaN,unchosen,2200,0,9,3,50,50,NaN,NaN,NaN,NaN
90,77890,0,91,2,2,1,gain1,no_gain6,F,G,33,8,body_parts,outdoor_scenes,Stimuli/Experimental_stims/body_parts/tucker-good-36skLT5jZcc-unsplash.jpg,Stimuli/Experimental_stims/outdoor_scenes/samsommer-vddccTqwal8-unsplash.jpg,1,NaN,,NaN,chosen,1600,0,9,3,50,50,NaN,NaN,NaN,NaN
91,77890,0,92,2,2,1,gain2,no_gain6,H,G,13,41,faces,objects,Stimuli/Experimental_stims/faces/daniel-rigdon-dXmXKPP2L4E-unsplash.jpg,Stimuli/Experimental_stims/objects/insung-yoon-w2JtIQQXoRU-unsplash.jpg,1,NaN,,NaN,unchosen,3200,1,9,3,50,50,NaN,NaN,NaN,NaN
92,77890,0,93,2,2,0,no_gain5,gain6,J,A,20,11,faces,outdoor_scenes,Stimuli/Experimental_stims/faces/justin-chen-J7Cf1Gch49E-unsplash.jpg,Stimuli/Experimental_stims/outdoor_scenes/stephen-leonardi-gyIRjKPXupE-unsplash.jpg,1,NaN,,NaN,unchosen,2100,0,9,3,50,50,NaN,NaN,NaN,NaN
93,77890,0,94,2,2,1,gain3,no_gain3,D,I,46,25,objects,body_parts,Stimuli/Experimental_stims/objects/mockup-graphics-PNsj6RiHAF4-unsplash.jpg,Stimuli/Experimental_stims/body_parts/engin-akyurt-Q2rfH3GW39c-unsplash.jpg,1,NaN,,NaN,unchosen,1100,0,9,3,50,50,NaN,NaN,NaN,NaN
94,77890,0,95,2,2,0,no_gain2,gain3,B,D,17,22,faces,faces,Stimuli/Experimental_stims/faces/good-faces-xmSWVeGEnJw-unsplash.jpg,Stimuli/Experimental_stims/faces/ravi-patel-VMGAbeeJTKo-unsplash.jpg,1,NaN,,NaN,chosen,2800,0,9,3,50,50,NaN,NaN,NaN,NaN
95,77890,0,96,2,2,1,gain1,no_gain4,F,L,19,28,faces,body_parts,Stimuli/Experimental_stims/faces/joel-mott-LaK153ghdig-unsplash.jpg,Stimuli/Experimental_stims/body_parts/ira-vishnevskaya-8DQAvdCby1I-unsplash.jpg,1,NaN,,NaN,unchosen,1100,0,9,3,50,50,NaN,NaN,NaN,NaN
96,77890,0,97,2,2,0,no_gain3,gain4,I,C,10,26,outdoor_scenes,body_parts,Stimuli/Experimental_stims/outdoor_scenes/shannon-kunkle-dM8INmkyDas-unsplash.jpg,Stimuli/Experimental_stims/body_parts/engin-akyurt-x_3gyC42btc-unsplash.jpg,1,NaN,,NaN,chosen,4900,1,9,3,50,50,NaN,NaN,NaN,NaN
97,77890,0,98,2,2,1,gain3,no_gain3,D,I,22,10,faces,outdoor_scenes,Stimuli/Experimental_stims/faces/ravi-patel-VMGAbeeJTKo-unsplash.jpg,Stimuli/Experimental_stims/outdoor_scenes/shannon-kunkle-dM8INmkyDas-unsplash.jpg,1,NaN,,NaN,chosen,1200,0,9,3,50,50,NaN,NaN,NaN,NaN
98,77890,0,99,2,2,0,no_gain5,gain5,J,K,20,35,faces,body_parts,Stimuli/Experimental_stims/faces/justin-chen-J7Cf1Gch49E-unsplash.jpg,Stimuli/Experimental_stims/body_parts/wc-so-KH4AAPjb-tI-unsplash.jpg,1,NaN,,NaN,unchosen,1200,0,9,3,50,50,NaN,NaN,NaN,NaN
99,77890,0,100,2,2,1,gain4,no_gain5,C,J,26,42,body_parts,objects,Stimuli/Experimental_stims/body_parts/engin-akyurt-x_3gyC42btc-unsplash.jpg,Stimuli/Experimental_stims/objects/jess-bailey-nOeVi8DsN8U-unsplash.jpg,1,NaN,,NaN,chosen,1900,0,9,3,50,50,NaN,NaN,NaN,NaN
100,77890,0,101,2,2,0,no_gain6,gain4,G,C,8,26,outdoor_scenes,body_parts,Stimuli/Experimental_stims/outdoor_scenes/samsommer-vddccTqwal8-unsplash.jpg,Stimuli/Experimental_stims/body_parts/engin-akyurt-x_3gyC42btc-unsplash.jpg,1,NaN,,NaN,chosen,1500,0,9,3,50,50,NaN,NaN,NaN,NaN
101,77890,0,102,2,2,0,no_gain5,gain2,J,H,20,13,faces,faces,Stimuli/Experimental_stims/faces/justin-chen-J7Cf1Gch49E-unsplash.jpg,Stimuli/Experimental_stims/faces/daniel-rigdon-dXmXKPP2L4E-unsplash.jpg,1,NaN,,NaN,unchosen,1600,0,9,3,50,50,NaN,NaN,NaN,NaN
102,77890,0,103,2,2,0,no_gain5,gain6,J,A,42,37,objects,objects,Stimuli/Experimental_stims/objects/jess-bailey-nOeVi8DsN8U-unsplash.jpg,Stimuli/Experimental_stims/objects/alexander-andrews-VLGWE_SumrA-unsplash.jpg,1,NaN,,NaN,chosen,1500,0,9,3,50,50,NaN,NaN,NaN,NaN
103,77890,0,104,2,2,1,gain4,no_gain3,C,I,2,25,outdoor_scenes,body_parts,Stimuli/Experimental_stims/outdoor_scenes/bruno-van-der-kraan-qez8mNJ3ilU-unsplash.jpg,Stimuli/Experimental_stims/body_parts/engin-akyurt-Q2rfH3GW39c-unsplash.jpg,1,NaN,,NaN,unchosen,2000,0,9,3,50,50,NaN,NaN,NaN,NaN
104,77890,0,105,2,2,1,gain2,no_gain4,H,L,3,14,outdoor_scenes,faces,Stimuli/Experimental_stims/outdoor_scenes/henry-be-NLF6hTe4PAg-unsplash.jpg,Stimuli/Experimental_stims/faces/david-siglin-UuW4psOb388-unsplash.jpg,1,NaN,,NaN,chosen,2000,0,9,3,50,50,NaN,NaN,NaN,NaN
105,77890,0,106,2,2,0,no_gain2,gain1,B,F,17,33,faces,body_parts,Stimuli/Experimental_stims/faces/good-faces-xmSWVeGEnJw-unsplash.jpg,Stimuli/Experimental_stims/body_parts/tucker-good-36skLT5jZcc-unsplash.jpg,1,NaN,,NaN,chosen,3400,1,9,3,50,50,NaN,NaN,NaN,NaN
106,77890,0,107,2,2,1,gain1,no_gain6,F,G,19,41,faces,objects,Stimuli/Experimental_stims/faces/joel-mott-LaK153ghdig-unsplash.jpg,Stimuli/Experimental_stims/objects/insung-yoon-w2JtIQQXoRU-unsplash.jpg,1,NaN,,NaN,unchosen,1600,0,9,3,50,50,NaN,NaN,NaN,NaN
107,77890,0,108,2,2,0,no_gain1,gain3,E,D,39,46,objects,objects,Stimuli/Experimental_stims/objects/charlesdeluvio-1-nx1QR5dTE-unsplash.jpg,Stimuli/Experimental_stims/objects/mockup-graphics-PNsj6RiHAF4-unsplash.jpg,1,NaN,,NaN,unchosen,2400,0,9,3,50,50,NaN,NaN,NaN,NaN
108,77890,0,109,2,2,0,no_gain5,gain2,J,H,42,3,objects,outdoor_scenes,Stimuli/Experimental_stims/objects/jess-bailey-nOeVi8DsN8U-unsplash.jpg,Stimuli/Experimental_stims/outdoor_scenes/henry-be-NLF6hTe4PAg-unsplash.jpg,1,NaN,,NaN,chosen,2900,0,9,3,50,50,NaN,NaN,NaN,NaN
109,77890,0,110,2,2,1,gain2,no_gain2,H,B,3,17,outdoor_scenes,faces,Stimuli/Experimental_stims/outdoor_scenes/henry-be-NLF6hTe4PAg-unsplash.jpg,Stimuli/Experimental_stims/faces/good-faces-xmSWVeGEnJw-unsplash.jpg,1,NaN,,NaN,chosen,2100,0,9,3,50,50,NaN,NaN,NaN,NaN
110,77890,0,111,2,2,1,gain5,no_gain6,K,G,35,41,body_parts,objects,Stimuli/Experimental_stims/body_parts/wc-so-KH4AAPjb-tI-unsplash.jpg,Stimuli/Experimental_stims/objects/insung-yoon-w2JtIQQXoRU-unsplash.jpg,1,NaN,,NaN,unchosen,3600,1,9,3,50,50,NaN,NaN,NaN,NaN
111,77890,0,112,2,2,1,gain6,no_gain4,A,L,37,14,objects,faces,Stimuli/Experimental_stims/objects/alexander-andrews-VLGWE_SumrA-unsplash.jpg,Stimuli/Experimental_stims/faces/david-siglin-UuW4psOb388-unsplash.jpg,1,NaN,,NaN,chosen,1900,0,9,3,50,50,NaN,NaN,NaN,NaN
112,77890,0,113,2,2,1,gain3,no_gain1,D,E,22,29,faces,body_parts,Stimuli/Experimental_stims/faces/ravi-patel-VMGAbeeJTKo-unsplash.jpg,Stimuli/Experimental_stims/body_parts/manuel-schinner-ZwjFuJ7ebpk-unsplash.jpg,1,NaN,,NaN,chosen,1000,0,9,3,50,50,NaN,NaN,NaN,NaN
113,77890,0,114,2,2,0,no_gain6,gain2,G,H,8,3,outdoor_scenes,outdoor_scenes,Stimuli/Experimental_stims/outdoor_scenes/samsommer-vddccTqwal8-unsplash.jpg,Stimuli/Experimental_stims/outdoor_scenes/henry-be-NLF6hTe4PAg-unsplash.jpg,1,NaN,,NaN,chosen,1500,0,9,3,50,50,NaN,NaN,NaN,NaN
114,77890,0,115,2,2,1,gain1,no_gain3,F,I,19,25,faces,body_parts,Stimuli/Experimental_stims/faces/joel-mott-LaK153ghdig-unsplash.jpg,Stimuli/Experimental_stims/body_parts/engin-akyurt-Q2rfH3GW39c-unsplash.jpg,1,NaN,,NaN,unchosen,1600,0,9,3,50,50,NaN,NaN,NaN,NaN
115,77890,0,116,2,2,0,no_gain1,gain1,E,F,39,19,objects,faces,Stimuli/Experimental_stims/objects/charlesdeluvio-1-nx1QR5dTE-unsplash.jpg,Stimuli/Experimental_stims/faces/joel-mott-LaK153ghdig-unsplash.jpg,1,NaN,,NaN,unchosen,1100,0,9,3,50,50,NaN,NaN,NaN,NaN
116,77890,0,117,2,2,1,gain6,no_gain1,A,E,37,29,objects,body_parts,Stimuli/Experimental_stims/objects/alexander-andrews-VLGWE_SumrA-unsplash.jpg,Stimuli/Experimental_stims/body_parts/manuel-schinner-ZwjFuJ7ebpk-unsplash.jpg,1,NaN,,NaN,chosen,4400,1,9,3,50,50,NaN,NaN,NaN,NaN
117,77890,0,118,2,2,1,gain3,no_gain6,D,G,22,8,faces,outdoor_scenes,Stimuli/Experimental_stims/faces/ravi-patel-VMGAbeeJTKo-unsplash.jpg,Stimuli/Experimental_stims/outdoor_scenes/samsommer-vddccTqwal8-unsplash.jpg,1,NaN,,NaN,chosen,1100,0,9,3,50,50,NaN,NaN,NaN,NaN
118,77890,0,119,2,2,1,gain3,no_gain4,D,L,46,28,objects,body_parts,Stimuli/Experimental_stims/objects/mockup-graphics-PNsj6RiHAF4-unsplash.jpg,Stimuli/Experimental_stims/body_parts/ira-vishnevskaya-8DQAvdCby1I-unsplash.jpg,1,NaN,,NaN,unchosen,1200,0,9,3,50,50,NaN,NaN,NaN,NaN
119,77890,0,120,2,2,0,no_gain4,gain1,L,F,14,33,faces,body_parts,Stimuli/Experimental_stims/faces/david-siglin-UuW4psOb388-unsplash.jpg,Stimuli/Experimental_stims/body_parts/tucker-good-36skLT5jZcc-unsplash.jpg,1,NaN,,NaN,chosen,1000,0,9,3,50,50,NaN,NaN,NaN,NaN
120,77890,0,121,2,2,0,no_gain3,gain5,I,K,25,35,body_parts,body_parts,Stimuli/Experimental_stims/body_parts/engin-akyurt-Q2rfH3GW39c-unsplash.jpg,Stimuli/Experimental_stims/body_parts/wc-so-KH4AAPjb-tI-unsplash.jpg,1,NaN,,NaN,unchosen,1500,0,9,3,50,50,NaN,NaN,NaN,NaN
121,77890,0,122,2,2,0,no_gain1,gain4,E,C,39,2,objects,outdoor_scenes,Stimuli/Experimental_stims/objects/charlesdeluvio-1-nx1QR5dTE-unsplash.jpg,Stimuli/Experimental_stims/outdoor_scenes/bruno-van-der-kraan-qez8mNJ3ilU-unsplash.jpg,1,NaN,,NaN,unchosen,2000,0,9,3,50,50,NaN,NaN,NaN,NaN
122,77890,0,123,2,2,0,no_gain4,gain3,L,D,14,22,faces,faces,Stimuli/Experimental_stims/faces/david-siglin-UuW4psOb388-unsplash.jpg,Stimuli/Experimental_stims/faces/ravi-patel-VMGAbeeJTKo-unsplash.jpg,1,NaN,,NaN,chosen,3700,1,9,3,50,50,NaN,NaN,NaN,NaN
123,77890,0,124,2,2,0,no_gain1,gain2,E,H,39,13,objects,faces,Stimuli/Experimental_stims/objects/charlesdeluvio-1-nx1QR5dTE-unsplash.jpg,Stimuli/Experimental_stims/faces/daniel-rigdon-dXmXKPP2L4E-unsplash.jpg,1,NaN,,NaN,unchosen,2100,0,9,3,50,50,NaN,NaN,NaN,NaN
124,77890,0,125,2,2,1,gain5,no_gain1,K,E,35,39,body_parts,objects,Stimuli/Experimental_stims/body_parts/wc-so-KH4AAPjb-tI-unsplash.jpg,Stimuli/Experimental_stims/objects/charlesdeluvio-1-nx1QR5dTE-unsplash.jpg,1,NaN,,NaN,unchosen,1100,0,9,3,50,50,NaN,NaN,NaN,NaN
125,77890,0,126,2,2,1,gain5,no_gain3,K,I,47,10,objects,outdoor_scenes,Stimuli/Experimental_stims/objects/ronaldo-arthur-vidal-Cdz_lvnl37k-unsplash.jpg,Stimuli/Experimental_stims/outdoor_scenes/shannon-kunkle-dM8INmkyDas-unsplash.jpg,1,NaN,,NaN,chosen,1500,0,9,3,50,50,NaN,NaN,NaN,NaN
126,77890,0,127,2,2,0,no_gain5,gain1,J,F,42,33,objects,body_parts,Stimuli/Experimental_stims/objects/jess-bailey-nOeVi8DsN8U-unsplash.jpg,Stimuli/Experimental_stims/body_parts/tucker-good-36skLT5jZcc-unsplash.jpg,1,NaN,,NaN,chosen,1900,0,9,3,50,50,NaN,NaN,NaN,NaN
127,77890,0,128,2,2,0,no_gain2,gain6,B,A,4,11,outdoor_scenes,outdoor_scenes,Stimuli/Experimental_stims/outdoor_scenes/jarrett-kow-1ZOyYPOBn7I-unsplash.jpg,Stimuli/Experimental_stims/outdoor_scenes/stephen-leonardi-gyIRjKPXupE-unsplash.jpg,1,NaN,,NaN,unchosen,1600,0,9,3,50,50,NaN,NaN,NaN,NaN
128,77890,0,129,2,2,1,gain5,no_gain4,K,L,35,28,body_parts,body_parts,Stimuli/Experimental_stims/body_parts/wc-so-KH4AAPjb-tI-unsplash.jpg,Stimuli/Experimental_stims/body_parts/ira-vishnevskaya-8DQAvdCby1I-unsplash.jpg,1,NaN,,NaN,unchosen,3100,1,9,3,50,50,NaN,NaN,NaN,NaN
129,77890,0,130,2,2,0,no_gain1,gain1,E,F,29,33,body_parts,body_parts,Stimuli/Experimental_stims/body_parts/manuel-schinner-ZwjFuJ7ebpk-unsplash.jpg,Stimuli/Experimental_stims/body_parts/tucker-good-36skLT5jZcc-unsplash.jpg,1,NaN,,NaN,chosen,2800,0,9,3,50,50,NaN,NaN,NaN,NaN
130,77890,0,131,2,2,1,gain5,no_gain4,K,L,47,14,objects,faces,Stimuli/Experimental_stims/objects/ronaldo-arthur-vidal-Cdz_lvnl37k-unsplash.jpg,Stimuli/Experimental_stims/faces/david-siglin-UuW4psOb388-unsplash.jpg,1,NaN,,NaN,chosen,1800,0,9,3,50,50,NaN,NaN,NaN,NaN
131,77890,0,132,2,2,0,no_gain6,gain6,G,A,41,11,objects,outdoor_scenes,Stimuli/Experimental_stims/objects/insung-yoon-w2JtIQQXoRU-unsplash.jpg,Stimuli/Experimental_stims/outdoor_scenes/stephen-leonardi-gyIRjKPXupE-unsplash.jpg,1,NaN,,NaN,unchosen,2100,0,9,3,50,50,NaN,NaN,NaN,NaN
132,77890,0,133,2,2,1,gain6,no_gain3,A,I,37,10,objects,outdoor_scenes,Stimuli/Experimental_stims/objects/alexander-andrews-VLGWE_SumrA-unsplash.jpg,Stimuli/Experimental_stims/outdoor_scenes/shannon-kunkle-dM8INmkyDas-unsplash.jpg,1,NaN,,NaN,chosen,2100,0,9,3,50,50,NaN,NaN,NaN,NaN
133,77890,0,134,2,2,0,no_gain2,gain5,B,K,17,47,faces,objects,Stimuli/Experimental_stims/faces/good-faces-xmSWVeGEnJw-unsplash.jpg,Stimuli/Experimental_stims/objects/ronaldo-arthur-vidal-Cdz_lvnl37k-unsplash.jpg,1,NaN,,NaN,chosen,1600,0,9,3,50,50,NaN,NaN,NaN,NaN
134,77890,0,135,2,2,0,no_gain4,gain2,L,H,28,13,body_parts,faces,Stimuli/Experimental_stims/body_parts/ira-vishnevskaya-8DQAvdCby1I-unsplash.jpg,Stimuli/Experimental_stims/faces/daniel-rigdon-dXmXKPP2L4E-unsplash.jpg,1,NaN,,NaN,unchosen,2600,0,9,3,50,50,NaN,NaN,NaN,NaN
135,77890,0,136,2,2,1,gain4,no_gain4,C,L,26,14,body_parts,faces,Stimuli/Experimental_stims/body_parts/engin-akyurt-x_3gyC42btc-unsplash.jpg,Stimuli/Experimental_stims/faces/david-siglin-UuW4psOb388-unsplash.jpg,1,NaN,,NaN,chosen,1100,0,9,3,50,50,NaN,NaN,NaN,NaN
136,77890,0,137,2,2,0,no_gain2,gain2,B,H,4,13,outdoor_scenes,faces,Stimuli/Experimental_stims/outdoor_scenes/jarrett-kow-1ZOyYPOBn7I-unsplash.jpg,Stimuli/Experimental_stims/faces/daniel-rigdon-dXmXKPP2L4E-unsplash.jpg,1,NaN,,NaN,unchosen,2700,0,9,3,50,50,NaN,NaN,NaN,NaN
137,77890,0,138,2,2,1,gain4,no_gain6,C,G,2,41,outdoor_scenes,objects,Stimuli/Experimental_stims/outdoor_scenes/bruno-van-der-kraan-qez8mNJ3ilU-unsplash.jpg,Stimuli/Experimental_stims/objects/insung-yoon-w2JtIQQXoRU-unsplash.jpg,1,NaN,,NaN,unchosen,1500,0,9,3,50,50,NaN,NaN,NaN,NaN
138,77890,0,139,2,2,1,gain3,no_gain5,D,J,46,20,objects,faces,Stimuli/Experimental_stims/objects/mockup-graphics-PNsj6RiHAF4-unsplash.jpg,Stimuli/Experimental_stims/faces/justin-chen-J7Cf1Gch49E-unsplash.jpg,1,NaN,,NaN,unchosen,1100,0,9,3,50,50,NaN,NaN,NaN,NaN
139,77890,0,140,2,2,1,gain4,no_gain1,C,E,26,29,body_parts,body_parts,Stimuli/Experimental_stims/body_parts/engin-akyurt-x_3gyC42btc-unsplash.jpg,Stimuli/Experimental_stims/body_parts/manuel-schinner-ZwjFuJ7ebpk-unsplash.jpg,1,NaN,,NaN,chosen,1200,0,9,3,50,50,NaN,NaN,NaN,NaN
140,77890,0,141,2,2,1,gain3,no_gain2,D,B,46,4,objects,outdoor_scenes,Stimuli/Experimental_stims/objects/mockup-graphics-PNsj6RiHAF4-unsplash.jpg,Stimuli/Experimental_stims/outdoor_scenes/jarrett-kow-1ZOyYPOBn7I-unsplash.jpg,1,NaN,,NaN,unchosen,1200,0,9,3,50,50,NaN,NaN,NaN,NaN
141,77890,0,142,2,2,0,no_gain2,gain1,B,F,4,19,outdoor_scenes,faces,Stimuli/Experimental_stims/outdoor_scenes/jarrett-kow-1ZOyYPOBn7I-unsplash.jpg,Stimuli/Experimental_stims/faces/joel-mott-LaK153ghdig-unsplash.jpg,1,NaN,,NaN,unchosen,4600,1,9,3,50,50,NaN,NaN,NaN,NaN
142,77890,0,143,2,2,1,gain6,no_gain6,A,G,37,8,objects,outdoor_scenes,Stimuli/Experimental_stims/objects/alexander-andrews-VLGWE_SumrA-unsplash.jpg,Stimuli/Experimental_stims/outdoor_scenes/samsommer-vddccTqwal8-unsplash.jpg,1,NaN,,NaN,chosen,2000,0,9,3,50,50,NaN,NaN,NaN,NaN
143,77890,0,144,2,2,1,gain4,no_gain4,C,L,2,28,outdoor_scenes,body_parts,Stimuli/Experimental_stims/outdoor_scenes/bruno-van-der-kraan-qez8mNJ3ilU-unsplash.jpg,Stimuli/Experimental_stims/body_parts/ira-vishnevskaya-8DQAvdCby1I-unsplash.jpg,1,NaN,,NaN,unchosen,1700,0,9,3,50,50,NaN,NaN,NaN,NaN
144,77890,0,145,2,2,1,gain6,no_gain1,A,E,11,39,outdoor_scenes,objects,Stimuli/Experimental_stims/outdoor_scenes/stephen-leonardi-gyIRjKPXupE-unsplash.jpg,Stimuli/Experimental_stims/objects/charlesdeluvio-1-nx1QR5dTE-unsplash.jpg,1,NaN,,NaN,unchosen,1300,0,9,3,50,50,NaN,NaN,NaN,NaN
145,77890,0,146,2,2,0,no_gain2,gain4,B,C,17,26,faces,body_parts,Stimuli/Experimental_stims/faces/good-faces-xmSWVeGEnJw-unsplash.jpg,Stimuli/Experimental_stims/body_parts/engin-akyurt-x_3gyC42btc-unsplash.jpg,1,NaN,,NaN,chosen,1300,0,9,3,50,50,NaN,NaN,NaN,NaN
146,77890,0,147,2,2,1,gain5,no_gain2,K,B,35,4,body_parts,outdoor_scenes,Stimuli/Experimental_stims/body_parts/wc-so-KH4AAPjb-tI-unsplash.jpg,Stimuli/Experimental_stims/outdoor_scenes/jarrett-kow-1ZOyYPOBn7I-unsplash.jpg,1,NaN,,NaN,unchosen,1600,0,9,3,50,50,NaN,NaN,NaN,NaN
147,77890,0,148,2,2,1,gain2,no_gain3,H,I,3,10,outdoor_scenes,outdoor_scenes,Stimuli/Experimental_stims/outdoor_scenes/henry-be-NLF6hTe4PAg-unsplash.jpg,Stimuli/Experimental_stims/outdoor_scenes/shannon-kunkle-dM8INmkyDas-unsplash.jpg,1,NaN,,NaN,chosen,2900,0,9,3,50,50,NaN,NaN,NaN,NaN
148,77890,0,149,3,3,0,no_gain1,gain2,E,H,39,13,objects,faces,Stimuli/Experimental_stims/objects/charlesdeluvio-1-nx1QR5dTE-unsplash.jpg,Stimuli/Experimental_stims/faces/daniel-rigdon-dXmXKPP2L4E-unsplash.jpg,1,NaN,,NaN,unchosen,2500,0,3,3,50,50,NaN,NaN,NaN,NaN
149,77890,0,150,3,3,0,no_gain2,gain5,B,K,17,47,faces,objects,Stimuli/Experimental_stims/faces/good-faces-xmSWVeGEnJw-unsplash.jpg,Stimuli/Experimental_stims/objects/ronaldo-arthur-vidal-Cdz_lvnl37k-unsplash.jpg,1,NaN,,NaN,chosen,1500,0,3,3,50,50,NaN,NaN,NaN,NaN
150,77890,0,151,3,3,0,no_gain5,gain1,J,F,20,19,faces,faces,Stimuli/Experimental_stims/faces/justin-chen-J7Cf1Gch49E-unsplash.jpg,Stimuli/Experimental_stims/faces/joel-mott-LaK153ghdig-unsplash.jpg,1,NaN,,NaN,unchosen,1000,0,3,3,50,50,NaN,NaN,NaN,NaN
151,77890,0,152,3,3,1,gain3,no_gain3,D,I,46,25,objects,body_parts,Stimuli/Experimental_stims/objects/mockup-graphics-PNsj6RiHAF4-unsplash.jpg,Stimuli/Experimental_stims/body_parts/engin-akyurt-Q2rfH3GW39c-unsplash.jpg,1,NaN,,NaN,unchosen,2000,0,3,3,50,50,NaN,NaN,NaN,NaN
152,77890,0,153,3,3,0,no_gain4,gain3,L,D,28,46,body_parts,objects,Stimuli/Experimental_stims/body_parts/ira-vishnevskaya-8DQAvdCby1I-unsplash.jpg,Stimuli/Experimental_stims/objects/mockup-graphics-PNsj6RiHAF4-unsplash.jpg,1,NaN,,NaN,unchosen,1600,0,3,3,50,50,NaN,NaN,NaN,NaN
153,77890,0,154,3,3,0,no_gain6,gain5,G,K,8,47,outdoor_scenes,objects,Stimuli/Experimental_stims/outdoor_scenes/samsommer-vddccTqwal8-unsplash.jpg,Stimuli/Experimental_stims/objects/ronaldo-arthur-vidal-Cdz_lvnl37k-unsplash.jpg,1,NaN,,NaN,chosen,5000,1,3,3,50,50,NaN,NaN,NaN,NaN
154,77890,0,155,3,3,1,gain5,no_gain5,K,J,35,20,body_parts,faces,Stimuli/Experimental_stims/body_parts/wc-so-KH4AAPjb-tI-unsplash.jpg,Stimuli/Experimental_stims/faces/justin-chen-J7Cf1Gch49E-unsplash.jpg,1,NaN,,NaN,unchosen,1500,0,3,3,50,50,NaN,NaN,NaN,NaN
155,77890,0,156,3,3,0,no_gain4,gain4,L,C,14,26,faces,body_parts,Stimuli/Experimental_stims/faces/david-siglin-UuW4psOb388-unsplash.jpg,Stimuli/Experimental_stims/body_parts/engin-akyurt-x_3gyC42btc-unsplash.jpg,1,NaN,,NaN,chosen,1800,0,3,3,50,50,NaN,NaN,NaN,NaN
156,77890,0,157,3,3,0,no_gain6,gain1,G,F,8,33,outdoor_scenes,body_parts,Stimuli/Experimental_stims/outdoor_scenes/samsommer-vddccTqwal8-unsplash.jpg,Stimuli/Experimental_stims/body_parts/tucker-good-36skLT5jZcc-unsplash.jpg,1,NaN,,NaN,chosen,1900,0,3,3,50,50,NaN,NaN,NaN,NaN
157,77890,0,158,3,3,1,gain6,no_gain5,A,J,11,20,outdoor_scenes,faces,Stimuli/Experimental_stims/outdoor_scenes/stephen-leonardi-gyIRjKPXupE-unsplash.jpg,Stimuli/Experimental_stims/faces/justin-chen-J7Cf1Gch49E-unsplash.jpg,1,NaN,,NaN,unchosen,2000,0,3,3,50,50,NaN,NaN,NaN,NaN
158,77890,0,159,3,3,1,gain1,no_gain5,F,J,33,42,body_parts,objects,Stimuli/Experimental_stims/body_parts/tucker-good-36skLT5jZcc-unsplash.jpg,Stimuli/Experimental_stims/objects/jess-bailey-nOeVi8DsN8U-unsplash.jpg,1,NaN,,NaN,chosen,1300,0,3,3,50,50,NaN,NaN,NaN,NaN
159,77890,0,160,3,3,0,no_gain5,gain4,J,C,42,26,objects,body_parts,Stimuli/Experimental_stims/objects/jess-bailey-nOeVi8DsN8U-unsplash.jpg,Stimuli/Experimental_stims/body_parts/engin-akyurt-x_3gyC42btc-unsplash.jpg,1,NaN,,NaN,chosen,2700,0,3,3,50,50,NaN,NaN,NaN,NaN
160,77890,0,161,3,3,0,no_gain3,gain4,I,C,10,26,outdoor_scenes,body_parts,Stimuli/Experimental_stims/outdoor_scenes/shannon-kunkle-dM8INmkyDas-unsplash.jpg,Stimuli/Experimental_stims/body_parts/engin-akyurt-x_3gyC42btc-unsplash.jpg,1,NaN,,NaN,chosen,1600,0,3,3,50,50,NaN,NaN,NaN,NaN
161,77890,0,162,3,3,1,gain4,no_gain3,C,I,2,25,outdoor_scenes,body_parts,Stimuli/Experimental_stims/outdoor_scenes/bruno-van-der-kraan-qez8mNJ3ilU-unsplash.jpg,Stimuli/Experimental_stims/body_parts/engin-akyurt-Q2rfH3GW39c-unsplash.jpg,1,NaN,,NaN,unchosen,4000,1,3,3,50,50,NaN,NaN,NaN,NaN
162,77890,0,163,3,3,0,no_gain1,gain3,E,D,29,22,body_parts,faces,Stimuli/Experimental_stims/body_parts/manuel-schinner-ZwjFuJ7ebpk-unsplash.jpg,Stimuli/Experimental_stims/faces/ravi-patel-VMGAbeeJTKo-unsplash.jpg,1,NaN,,NaN,chosen,1900,0,3,3,50,50,NaN,NaN,NaN,NaN
163,77890,0,164,3,3,0,no_gain4,gain5,L,K,28,35,body_parts,body_parts,Stimuli/Experimental_stims/body_parts/ira-vishnevskaya-8DQAvdCby1I-unsplash.jpg,Stimuli/Experimental_stims/body_parts/wc-so-KH4AAPjb-tI-unsplash.jpg,1,NaN,,NaN,unchosen,1700,0,3,3,50,50,NaN,NaN,NaN,NaN
164,77890,0,165,3,3,0,no_gain6,gain4,G,C,8,26,outdoor_scenes,body_parts,Stimuli/Experimental_stims/outdoor_scenes/samsommer-vddccTqwal8-unsplash.jpg,Stimuli/Experimental_stims/body_parts/engin-akyurt-x_3gyC42btc-unsplash.jpg,1,NaN,,NaN,chosen,1800,0,3,3,50,50,NaN,NaN,NaN,NaN
165,77890,0,166,3,3,1,gain5,no_gain3,K,I,47,10,objects,outdoor_scenes,Stimuli/Experimental_stims/objects/ronaldo-arthur-vidal-Cdz_lvnl37k-unsplash.jpg,Stimuli/Experimental_stims/outdoor_scenes/shannon-kunkle-dM8INmkyDas-unsplash.jpg,1,NaN,,NaN,chosen,1500,0,3,3,50,50,NaN,NaN,NaN,NaN
166,77890,0,167,3,3,1,gain4,no_gain2,C,B,26,17,body_parts,faces,Stimuli/Experimental_stims/body_parts/engin-akyurt-x_3gyC42btc-unsplash.jpg,Stimuli/Experimental_stims/faces/good-faces-xmSWVeGEnJw-unsplash.jpg,1,NaN,,NaN,chosen,2700,0,3,3,50,50,NaN,NaN,NaN,NaN
167,77890,0,168,3,3,0,no_gain6,gain6,G,A,41,11,objects,outdoor_scenes,Stimuli/Experimental_stims/objects/insung-yoon-w2JtIQQXoRU-unsplash.jpg,Stimuli/Experimental_stims/outdoor_scenes/stephen-leonardi-gyIRjKPXupE-unsplash.jpg,1,NaN,,NaN,unchosen,3600,1,3,3,50,50,NaN,NaN,NaN,NaN
168,77890,0,169,3,3,0,no_gain2,gain6,B,A,17,37,faces,objects,Stimuli/Experimental_stims/faces/good-faces-xmSWVeGEnJw-unsplash.jpg,Stimuli/Experimental_stims/objects/alexander-andrews-VLGWE_SumrA-unsplash.jpg,1,NaN,,NaN,chosen,2100,0,3,3,50,50,NaN,NaN,NaN,NaN
169,77890,0,170,3,3,1,gain5,no_gain6,K,G,35,41,body_parts,objects,Stimuli/Experimental_stims/body_parts/wc-so-KH4AAPjb-tI-unsplash.jpg,Stimuli/Experimental_stims/objects/insung-yoon-w2JtIQQXoRU-unsplash.jpg,1,NaN,,NaN,unchosen,2300,0,3,3,50,50,NaN,NaN,NaN,NaN
170,77890,0,171,3,3,1,gain1,no_gain3,F,I,19,25,faces,body_parts,Stimuli/Experimental_stims/faces/joel-mott-LaK153ghdig-unsplash.jpg,Stimuli/Experimental_stims/body_parts/engin-akyurt-Q2rfH3GW39c-unsplash.jpg,1,NaN,,NaN,unchosen,1400,0,3,3,50,50,NaN,NaN,NaN,NaN
171,77890,0,172,3,3,1,gain3,no_gain3,D,I,22,10,faces,outdoor_scenes,Stimuli/Experimental_stims/faces/ravi-patel-VMGAbeeJTKo-unsplash.jpg,Stimuli/Experimental_stims/outdoor_scenes/shannon-kunkle-dM8INmkyDas-unsplash.jpg,1,NaN,,NaN,chosen,1200,0,3,3,50,50,NaN,NaN,NaN,NaN
172,77890,0,173,3,3,1,gain2,no_gain6,H,G,3,8,outdoor_scenes,outdoor_scenes,Stimuli/Experimental_stims/outdoor_scenes/henry-be-NLF6hTe4PAg-unsplash.jpg,Stimuli/Experimental_stims/outdoor_scenes/samsommer-vddccTqwal8-unsplash.jpg,1,NaN,,NaN,chosen,1900,0,3,3,50,50,NaN,NaN,NaN,NaN
173,77890,0,174,3,3,0,no_gain2,gain4,B,C,4,2,outdoor_scenes,outdoor_scenes,Stimuli/Experimental_stims/outdoor_scenes/jarrett-kow-1ZOyYPOBn7I-unsplash.jpg,Stimuli/Experimental_stims/outdoor_scenes/bruno-van-der-kraan-qez8mNJ3ilU-unsplash.jpg,1,NaN,,NaN,unchosen,1800,0,3,3,50,50,NaN,NaN,NaN,NaN
174,77890,0,175,3,3,1,gain6,no_gain6,A,G,37,8,objects,outdoor_scenes,Stimuli/Experimental_stims/objects/alexander-andrews-VLGWE_SumrA-unsplash.jpg,Stimuli/Experimental_stims/outdoor_scenes/samsommer-vddccTqwal8-unsplash.jpg,1,NaN,,NaN,chosen,4100,1,3,3,50,50,NaN,NaN,NaN,NaN
175,77890,0,176,3,3,0,no_gain5,gain6,J,A,42,37,objects,objects,Stimuli/Experimental_stims/objects/jess-bailey-nOeVi8DsN8U-unsplash.jpg,Stimuli/Experimental_stims/objects/alexander-andrews-VLGWE_SumrA-unsplash.jpg,1,NaN,,NaN,chosen,1400,0,3,3,50,50,NaN,NaN,NaN,NaN
176,77890,0,177,3,3,0,no_gain2,gain6,B,A,4,11,outdoor_scenes,outdoor_scenes,Stimuli/Experimental_stims/outdoor_scenes/jarrett-kow-1ZOyYPOBn7I-unsplash.jpg,Stimuli/Experimental_stims/outdoor_scenes/stephen-leonardi-gyIRjKPXupE-unsplash.jpg,1,NaN,,NaN,unchosen,2200,0,3,3,50,50,NaN,NaN,NaN,NaN
177,77890,0,178,3,3,1,gain1,no_gain2,F,B,19,4,faces,outdoor_scenes,Stimuli/Experimental_stims/faces/joel-mott-LaK153ghdig-unsplash.jpg,Stimuli/Experimental_stims/outdoor_scenes/jarrett-kow-1ZOyYPOBn7I-unsplash.jpg,1,NaN,,NaN,unchosen,1400,0,3,3,50,50,NaN,NaN,NaN,NaN
178,77890,0,179,3,3,1,gain3,no_gain2,D,B,22,17,faces,faces,Stimuli/Experimental_stims/faces/ravi-patel-VMGAbeeJTKo-unsplash.jpg,Stimuli/Experimental_stims/faces/good-faces-xmSWVeGEnJw-unsplash.jpg,1,NaN,,NaN,chosen,1100,0,3,3,50,50,NaN,NaN,NaN,NaN
179,77890,0,180,3,3,1,gain4,no_gain1,C,E,26,29,body_parts,body_parts,Stimuli/Experimental_stims/body_parts/engin-akyurt-x_3gyC42btc-unsplash.jpg,Stimuli/Experimental_stims/body_parts/manuel-schinner-ZwjFuJ7ebpk-unsplash.jpg,1,NaN,,NaN,chosen,1400,0,3,3,50,50,NaN,NaN,NaN,NaN
180,77890,0,181,3,3,1,gain1,no_gain4,F,L,19,28,faces,body_parts,Stimuli/Experimental_stims/faces/joel-mott-LaK153ghdig-unsplash.jpg,Stimuli/Experimental_stims/body_parts/ira-vishnevskaya-8DQAvdCby1I-unsplash.jpg,1,NaN,,NaN,unchosen,1700,0,3,3,50,50,NaN,NaN,NaN,NaN
181,77890,0,182,3,3,1,gain1,no_gain4,F,L,33,14,body_parts,faces,Stimuli/Experimental_stims/body_parts/tucker-good-36skLT5jZcc-unsplash.jpg,Stimuli/Experimental_stims/faces/david-siglin-UuW4psOb388-unsplash.jpg,1,NaN,,NaN,chosen,3400,1,3,3,50,50,NaN,NaN,NaN,NaN
182,77890,0,183,3,3,1,gain3,no_gain5,D,J,22,42,faces,objects,Stimuli/Experimental_stims/faces/ravi-patel-VMGAbeeJTKo-unsplash.jpg,Stimuli/Experimental_stims/objects/jess-bailey-nOeVi8DsN8U-unsplash.jpg,1,NaN,,NaN,chosen,1000,0,3,3,50,50,NaN,NaN,NaN,NaN
183,77890,0,184,3,3,1,gain1,no_gain6,F,G,19,41,faces,objects,Stimuli/Experimental_stims/faces/joel-mott-LaK153ghdig-unsplash.jpg,Stimuli/Experimental_stims/objects/insung-yoon-w2JtIQQXoRU-unsplash.jpg,1,NaN,,NaN,unchosen,1200,0,3,3,50,50,NaN,NaN,NaN,NaN
184,77890,0,185,3,3,0,no_gain5,gain4,J,C,20,2,faces,outdoor_scenes,Stimuli/Experimental_stims/faces/justin-chen-J7Cf1Gch49E-unsplash.jpg,Stimuli/Experimental_stims/outdoor_scenes/bruno-van-der-kraan-qez8mNJ3ilU-unsplash.jpg,1,NaN,,NaN,unchosen,1200,0,3,3,50,50,NaN,NaN,NaN,NaN
185,77890,0,186,3,3,0,no_gain1,gain2,E,H,29,3,body_parts,outdoor_scenes,Stimuli/Experimental_stims/body_parts/manuel-schinner-ZwjFuJ7ebpk-unsplash.jpg,Stimuli/Experimental_stims/outdoor_scenes/henry-be-NLF6hTe4PAg-unsplash.jpg,1,NaN,,NaN,chosen,2800,0,3,3,50,50,NaN,NaN,NaN,NaN
186,77890,0,187,3,3,0,no_gain1,gain4,E,C,39,2,objects,outdoor_scenes,Stimuli/Experimental_stims/objects/charlesdeluvio-1-nx1QR5dTE-unsplash.jpg,Stimuli/Experimental_stims/outdoor_scenes/bruno-van-der-kraan-qez8mNJ3ilU-unsplash.jpg,1,NaN,,NaN,unchosen,1200,0,3,3,50,50,NaN,NaN,NaN,NaN
187,77890,0,188,3,3,0,no_gain6,gain3,G,D,8,22,outdoor_scenes,faces,Stimuli/Experimental_stims/outdoor_scenes/samsommer-vddccTqwal8-unsplash.jpg,Stimuli/Experimental_stims/faces/ravi-patel-VMGAbeeJTKo-unsplash.jpg,1,NaN,,NaN,chosen,1200,0,3,3,50,50,NaN,NaN,NaN,NaN
188,77890,0,189,3,3,1,gain2,no_gain2,H,B,3,17,outdoor_scenes,faces,Stimuli/Experimental_stims/outdoor_scenes/henry-be-NLF6hTe4PAg-unsplash.jpg,Stimuli/Experimental_stims/faces/good-faces-xmSWVeGEnJw-unsplash.jpg,1,NaN,,NaN,chosen,2100,0,3,3,50,50,NaN,NaN,NaN,NaN
189,77890,0,190,3,3,1,gain2,no_gain6,H,G,13,41,faces,objects,Stimuli/Experimental_stims/faces/daniel-rigdon-dXmXKPP2L4E-unsplash.jpg,Stimuli/Experimental_stims/objects/insung-yoon-w2JtIQQXoRU-unsplash.jpg,1,NaN,,NaN,unchosen,3800,1,3,3,50,50,NaN,NaN,NaN,NaN
190,77890,0,191,3,3,0,no_gain3,gain2,I,H,10,3,outdoor_scenes,outdoor_scenes,Stimuli/Experimental_stims/outdoor_scenes/shannon-kunkle-dM8INmkyDas-unsplash.jpg,Stimuli/Experimental_stims/outdoor_scenes/henry-be-NLF6hTe4PAg-unsplash.jpg,1,NaN,,NaN,chosen,2200,0,3,3,50,50,NaN,NaN,NaN,NaN
191,77890,0,192,3,3,1,gain4,no_gain4,C,L,2,28,outdoor_scenes,body_parts,Stimuli/Experimental_stims/outdoor_scenes/bruno-van-der-kraan-qez8mNJ3ilU-unsplash.jpg,Stimuli/Experimental_stims/body_parts/ira-vishnevskaya-8DQAvdCby1I-unsplash.jpg,1,NaN,,NaN,unchosen,2500,0,3,3,50,50,NaN,NaN,NaN,NaN
192,77890,0,193,3,3,1,gain2,no_gain5,H,J,3,42,outdoor_scenes,objects,Stimuli/Experimental_stims/outdoor_scenes/henry-be-NLF6hTe4PAg-unsplash.jpg,Stimuli/Experimental_stims/objects/jess-bailey-nOeVi8DsN8U-unsplash.jpg,1,NaN,,NaN,chosen,1100,0,3,3,50,50,NaN,NaN,NaN,NaN
193,77890,0,194,3,3,1,gain3,no_gain1,D,E,46,39,objects,objects,Stimuli/Experimental_stims/objects/mockup-graphics-PNsj6RiHAF4-unsplash.jpg,Stimuli/Experimental_stims/objects/charlesdeluvio-1-nx1QR5dTE-unsplash.jpg,1,NaN,,NaN,unchosen,1800,0,3,3,50,50,NaN,NaN,NaN,NaN
194,77890,0,195,3,3,1,gain3,no_gain6,D,G,46,41,objects,objects,Stimuli/Experimental_stims/objects/mockup-graphics-PNsj6RiHAF4-unsplash.jpg,Stimuli/Experimental_stims/objects/insung-yoon-w2JtIQQXoRU-unsplash.jpg,1,NaN,,NaN,unchosen,3600,1,3,3,50,50,NaN,NaN,NaN,NaN
195,77890,0,196,3,3,1,gain4,no_gain6,C,G,2,41,outdoor_scenes,objects,Stimuli/Experimental_stims/outdoor_scenes/bruno-van-der-kraan-qez8mNJ3ilU-unsplash.jpg,Stimuli/Experimental_stims/objects/insung-yoon-w2JtIQQXoRU-unsplash.jpg,1,NaN,,NaN,unchosen,2400,0,3,3,50,50,NaN,NaN,NaN,NaN
196,77890,0,197,3,3,1,gain1,no_gain1,F,E,33,29,body_parts,body_parts,Stimuli/Experimental_stims/body_parts/tucker-good-36skLT5jZcc-unsplash.jpg,Stimuli/Experimental_stims/body_parts/manuel-schinner-ZwjFuJ7ebpk-unsplash.jpg,1,NaN,,NaN,chosen,2400,0,3,3,50,50,NaN,NaN,NaN,NaN
197,77890,0,198,3,3,0,no_gain3,gain2,I,H,25,13,body_parts,faces,Stimuli/Experimental_stims/body_parts/engin-akyurt-Q2rfH3GW39c-unsplash.jpg,Stimuli/Experimental_stims/faces/daniel-rigdon-dXmXKPP2L4E-unsplash.jpg,1,NaN,,NaN,unchosen,2200,0,3,3,50,50,NaN,NaN,NaN,NaN
198,77890,0,199,3,3,1,gain1,no_gain2,F,B,33,17,body_parts,faces,Stimuli/Experimental_stims/body_parts/tucker-good-36skLT5jZcc-unsplash.jpg,Stimuli/Experimental_stims/faces/good-faces-xmSWVeGEnJw-unsplash.jpg,1,NaN,,NaN,chosen,2800,0,3,3,50,50,NaN,NaN,NaN,NaN
199,77890,0,200,3,3,0,no_gain2,gain3,B,D,4,46,outdoor_scenes,objects,Stimuli/Experimental_stims/outdoor_scenes/jarrett-kow-1ZOyYPOBn7I-unsplash.jpg,Stimuli/Experimental_stims/objects/mockup-graphics-PNsj6RiHAF4-unsplash.jpg,1,NaN,,NaN,unchosen,1700,0,3,3,50,50,NaN,NaN,NaN,NaN
200,77890,0,201,3,3,0,no_gain1,gain6,E,A,39,11,objects,outdoor_scenes,Stimuli/Experimental_stims/objects/charlesdeluvio-1-nx1QR5dTE-unsplash.jpg,Stimuli/Experimental_stims/outdoor_scenes/stephen-leonardi-gyIRjKPXupE-unsplash.jpg,1,NaN,,NaN,unchosen,1100,0,3,3,50,50,NaN,NaN,NaN,NaN
201,77890,0,202,3,3,0,no_gain4,gain3,L,D,14,22,faces,faces,Stimuli/Experimental_stims/faces/david-siglin-UuW4psOb388-unsplash.jpg,Stimuli/Experimental_stims/faces/ravi-patel-VMGAbeeJTKo-unsplash.jpg,1,NaN,,NaN,chosen,1200,0,3,3,50,50,NaN,NaN,NaN,NaN
202,77890,0,203,3,3,0,no_gain3,gain5,I,K,25,35,body_parts,body_parts,Stimuli/Experimental_stims/body_parts/engin-akyurt-Q2rfH3GW39c-unsplash.jpg,Stimuli/Experimental_stims/body_parts/wc-so-KH4AAPjb-tI-unsplash.jpg,1,NaN,,NaN,unchosen,2700,0,3,3,50,50,NaN,NaN,NaN,NaN
203,77890,0,204,3,3,0,no_gain1,gain1,E,F,39,19,objects,faces,Stimuli/Experimental_stims/objects/charlesdeluvio-1-nx1QR5dTE-unsplash.jpg,Stimuli/Experimental_stims/faces/joel-mott-LaK153ghdig-unsplash.jpg,1,NaN,,NaN,unchosen,1100,0,3,3,50,50,NaN,NaN,NaN,NaN
204,77890,0,205,3,3,1,gain5,no_gain5,K,J,47,42,objects,objects,Stimuli/Experimental_stims/objects/ronaldo-arthur-vidal-Cdz_lvnl37k-unsplash.jpg,Stimuli/Experimental_stims/objects/jess-bailey-nOeVi8DsN8U-unsplash.jpg,1,NaN,,NaN,chosen,1100,0,3,3,50,50,NaN,NaN,NaN,NaN
205,77890,0,206,3,3,0,no_gain4,gain6,L,A,14,37,faces,objects,Stimuli/Experimental_stims/faces/david-siglin-UuW4psOb388-unsplash.jpg,Stimuli/Experimental_stims/objects/alexander-andrews-VLGWE_SumrA-unsplash.jpg,1,NaN,,NaN,chosen,1500,0,3,3,50,50,NaN,NaN,NaN,NaN
206,77890,0,207,3,3,0,no_gain5,gain3,J,D,20,46,faces,objects,Stimuli/Experimental_stims/faces/justin-chen-J7Cf1Gch49E-unsplash.jpg,Stimuli/Experimental_stims/objects/mockup-graphics-PNsj6RiHAF4-unsplash.jpg,1,NaN,,NaN,unchosen,1600,0,3,3,50,50,NaN,NaN,NaN,NaN
207,77890,0,208,3,3,0,no_gain1,gain5,E,K,29,47,body_parts,objects,Stimuli/Experimental_stims/body_parts/manuel-schinner-ZwjFuJ7ebpk-unsplash.jpg,Stimuli/Experimental_stims/objects/ronaldo-arthur-vidal-Cdz_lvnl37k-unsplash.jpg,1,NaN,,NaN,chosen,1500,0,3,3,50,50,NaN,NaN,NaN,NaN
208,77890,0,209,3,3,1,gain1,no_gain3,F,I,33,10,body_parts,outdoor_scenes,Stimuli/Experimental_stims/body_parts/tucker-good-36skLT5jZcc-unsplash.jpg,Stimuli/Experimental_stims/outdoor_scenes/shannon-kunkle-dM8INmkyDas-unsplash.jpg,1,NaN,,NaN,chosen,2800,0,3,3,50,50,NaN,NaN,NaN,NaN
209,77890,0,210,3,3,1,gain6,no_gain3,A,I,37,10,objects,outdoor_scenes,Stimuli/Experimental_stims/objects/alexander-andrews-VLGWE_SumrA-unsplash.jpg,Stimuli/Experimental_stims/outdoor_scenes/shannon-kunkle-dM8INmkyDas-unsplash.jpg,1,NaN,,NaN,chosen,3400,1,3,3,50,50,NaN,NaN,NaN,NaN
210,77890,0,211,3,3,1,gain2,no_gain4,H,L,13,28,faces,body_parts,Stimuli/Experimental_stims/faces/daniel-rigdon-dXmXKPP2L4E-unsplash.jpg,Stimuli/Experimental_stims/body_parts/ira-vishnevskaya-8DQAvdCby1I-unsplash.jpg,1,NaN,,NaN,unchosen,1500,0,3,3,50,50,NaN,NaN,NaN,NaN
211,77890,0,212,3,3,1,gain2,no_gain2,H,B,13,4,faces,outdoor_scenes,Stimuli/Experimental_stims/faces/daniel-rigdon-dXmXKPP2L4E-unsplash.jpg,Stimuli/Experimental_stims/outdoor_scenes/jarrett-kow-1ZOyYPOBn7I-unsplash.jpg,1,NaN,,NaN,unchosen,1500,0,3,3,50,50,NaN,NaN,NaN,NaN
212,77890,0,213,3,3,1,gain6,no_gain1,A,E,37,29,objects,body_parts,Stimuli/Experimental_stims/objects/alexander-andrews-VLGWE_SumrA-unsplash.jpg,Stimuli/Experimental_stims/body_parts/manuel-schinner-ZwjFuJ7ebpk-unsplash.jpg,1,NaN,,NaN,chosen,1500,0,3,3,50,50,NaN,NaN,NaN,NaN
213,77890,0,214,3,3,0,no_gain5,gain2,J,H,20,13,faces,faces,Stimuli/Experimental_stims/faces/justin-chen-J7Cf1Gch49E-unsplash.jpg,Stimuli/Experimental_stims/faces/daniel-rigdon-dXmXKPP2L4E-unsplash.jpg,1,NaN,,NaN,unchosen,1200,0,3,3,50,50,NaN,NaN,NaN,NaN
214,77890,0,215,3,3,0,no_gain4,gain5,L,K,14,47,faces,objects,Stimuli/Experimental_stims/faces/david-siglin-UuW4psOb388-unsplash.jpg,Stimuli/Experimental_stims/objects/ronaldo-arthur-vidal-Cdz_lvnl37k-unsplash.jpg,1,NaN,,NaN,chosen,1900,0,3,3,50,50,NaN,NaN,NaN,NaN
215,77890,0,216,3,3,1,gain6,no_gain4,A,L,11,28,outdoor_scenes,body_parts,Stimuli/Experimental_stims/outdoor_scenes/stephen-leonardi-gyIRjKPXupE-unsplash.jpg,Stimuli/Experimental_stims/body_parts/ira-vishnevskaya-8DQAvdCby1I-unsplash.jpg,1,NaN,,NaN,unchosen,3600,1,3,3,50,50,NaN,NaN,NaN,NaN
216,77890,0,217,3,3,0,no_gain2,gain5,B,K,4,35,outdoor_scenes,body_parts,Stimuli/Experimental_stims/outdoor_scenes/jarrett-kow-1ZOyYPOBn7I-unsplash.jpg,Stimuli/Experimental_stims/body_parts/wc-so-KH4AAPjb-tI-unsplash.jpg,1,NaN,,NaN,unchosen,2500,0,3,3,50,50,NaN,NaN,NaN,NaN
217,77890,0,218,3,3,0,no_gain4,gain2,L,H,14,3,faces,outdoor_scenes,Stimuli/Experimental_stims/faces/david-siglin-UuW4psOb388-unsplash.jpg,Stimuli/Experimental_stims/outdoor_scenes/henry-be-NLF6hTe4PAg-unsplash.jpg,1,NaN,,NaN,chosen,1600,0,3,3,50,50,NaN,NaN,NaN,NaN
218,77890,0,219,3,3,1,gain6,no_gain3,A,I,11,25,outdoor_scenes,body_parts,Stimuli/Experimental_stims/outdoor_scenes/stephen-leonardi-gyIRjKPXupE-unsplash.jpg,Stimuli/Experimental_stims/body_parts/engin-akyurt-Q2rfH3GW39c-unsplash.jpg,1,NaN,,NaN,unchosen,1200,0,3,3,50,50,NaN,NaN,NaN,NaN
219,77890,0,220,3,3,0,no_gain1,gain5,E,K,39,35,objects,body_parts,Stimuli/Experimental_stims/objects/charlesdeluvio-1-nx1QR5dTE-unsplash.jpg,Stimuli/Experimental_stims/body_parts/wc-so-KH4AAPjb-tI-unsplash.jpg,1,NaN,,NaN,unchosen,1300,0,3,3,50,50,NaN,NaN,NaN,NaN
220,77890,0,221,4,4,0,no_gain6,gain5,G,K,41,35,objects,body_parts,Stimuli/Experimental_stims/objects/insung-yoon-w2JtIQQXoRU-unsplash.jpg,Stimuli/Experimental_stims/body_parts/wc-so-KH4AAPjb-tI-unsplash.jpg,1,NaN,,NaN,unchosen,3300,1,1,3,50,50,NaN,NaN,NaN,NaN
221,77890,0,222,4,4,0,no_gain4,gain5,L,K,28,35,body_parts,body_parts,Stimuli/Experimental_stims/body_parts/ira-vishnevskaya-8DQAvdCby1I-unsplash.jpg,Stimuli/Experimental_stims/body_parts/wc-so-KH4AAPjb-tI-unsplash.jpg,1,NaN,,NaN,unchosen,1400,0,1,3,50,50,NaN,NaN,NaN,NaN
222,77890,0,223,4,4,1,gain5,no_gain5,K,J,47,42,objects,objects,Stimuli/Experimental_stims/objects/ronaldo-arthur-vidal-Cdz_lvnl37k-unsplash.jpg,Stimuli/Experimental_stims/objects/jess-bailey-nOeVi8DsN8U-unsplash.jpg,1,NaN,,NaN,chosen,2400,0,1,3,50,50,NaN,NaN,NaN,NaN
223,77890,0,224,4,4,0,no_gain3,gain4,I,C,10,26,outdoor_scenes,body_parts,Stimuli/Experimental_stims/outdoor_scenes/shannon-kunkle-dM8INmkyDas-unsplash.jpg,Stimuli/Experimental_stims/body_parts/engin-akyurt-x_3gyC42btc-unsplash.jpg,1,NaN,,NaN,chosen,1200,0,1,3,50,50,NaN,NaN,NaN,NaN
224,77890,0,225,4,4,1,gain4,no_gain1,C,E,2,39,outdoor_scenes,objects,Stimuli/Experimental_stims/outdoor_scenes/bruno-van-der-kraan-qez8mNJ3ilU-unsplash.jpg,Stimuli/Experimental_stims/objects/charlesdeluvio-1-nx1QR5dTE-unsplash.jpg,1,NaN,,NaN,unchosen,1100,0,1,3,50,50,NaN,NaN,NaN,NaN
225,77890,0,226,4,4,0,no_gain1,gain1,E,F,39,19,objects,faces,Stimuli/Experimental_stims/objects/charlesdeluvio-1-nx1QR5dTE-unsplash.jpg,Stimuli/Experimental_stims/faces/joel-mott-LaK153ghdig-unsplash.jpg,1,NaN,,NaN,unchosen,1600,0,1,3,50,50,NaN,NaN,NaN,NaN
226,77890,0,227,4,4,1,gain6,no_gain3,A,I,11,25,outdoor_scenes,body_parts,Stimuli/Experimental_stims/outdoor_scenes/stephen-leonardi-gyIRjKPXupE-unsplash.jpg,Stimuli/Experimental_stims/body_parts/engin-akyurt-Q2rfH3GW39c-unsplash.jpg,1,NaN,,NaN,unchosen,3100,1,1,3,50,50,NaN,NaN,NaN,NaN
227,77890,0,228,4,4,0,no_gain2,gain4,B,C,17,26,faces,body_parts,Stimuli/Experimental_stims/faces/good-faces-xmSWVeGEnJw-unsplash.jpg,Stimuli/Experimental_stims/body_parts/engin-akyurt-x_3gyC42btc-unsplash.jpg,1,NaN,,NaN,chosen,1000,0,1,3,50,50,NaN,NaN,NaN,NaN
228,77890,0,229,4,4,1,gain6,no_gain5,A,J,37,42,objects,objects,Stimuli/Experimental_stims/objects/alexander-andrews-VLGWE_SumrA-unsplash.jpg,Stimuli/Experimental_stims/objects/jess-bailey-nOeVi8DsN8U-unsplash.jpg,1,NaN,,NaN,chosen,3000,0,1,3,50,50,NaN,NaN,NaN,NaN
229,77890,0,230,4,4,0,no_gain4,gain5,L,K,14,47,faces,objects,Stimuli/Experimental_stims/faces/david-siglin-UuW4psOb388-unsplash.jpg,Stimuli/Experimental_stims/objects/ronaldo-arthur-vidal-Cdz_lvnl37k-unsplash.jpg,1,NaN,,NaN,chosen,1700,0,1,3,50,50,NaN,NaN,NaN,NaN
230,77890,0,231,4,4,1,gain1,no_gain4,F,L,19,28,faces,body_parts,Stimuli/Experimental_stims/faces/joel-mott-LaK153ghdig-unsplash.jpg,Stimuli/Experimental_stims/body_parts/ira-vishnevskaya-8DQAvdCby1I-unsplash.jpg,1,NaN,,NaN,unchosen,2400,0,1,3,50,50,NaN,NaN,NaN,NaN
231,77890,0,232,4,4,0,no_gain6,gain2,G,H,8,3,outdoor_scenes,outdoor_scenes,Stimuli/Experimental_stims/outdoor_scenes/samsommer-vddccTqwal8-unsplash.jpg,Stimuli/Experimental_stims/outdoor_scenes/henry-be-NLF6hTe4PAg-unsplash.jpg,1,NaN,,NaN,chosen,4000,1,1,3,50,50,NaN,NaN,NaN,NaN
232,77890,0,233,4,4,0,no_gain6,gain1,G,F,41,19,objects,faces,Stimuli/Experimental_stims/objects/insung-yoon-w2JtIQQXoRU-unsplash.jpg,Stimuli/Experimental_stims/faces/joel-mott-LaK153ghdig-unsplash.jpg,1,NaN,,NaN,unchosen,1900,0,1,3,50,50,NaN,NaN,NaN,NaN
233,77890,0,234,4,4,1,gain3,no_gain4,D,L,22,14,faces,faces,Stimuli/Experimental_stims/faces/ravi-patel-VMGAbeeJTKo-unsplash.jpg,Stimuli/Experimental_stims/faces/david-siglin-UuW4psOb388-unsplash.jpg,1,NaN,,NaN,chosen,1100,0,1,3,50,50,NaN,NaN,NaN,NaN
234,77890,0,235,4,4,1,gain5,no_gain1,K,E,35,39,body_parts,objects,Stimuli/Experimental_stims/body_parts/wc-so-KH4AAPjb-tI-unsplash.jpg,Stimuli/Experimental_stims/objects/charlesdeluvio-1-nx1QR5dTE-unsplash.jpg,1,NaN,,NaN,unchosen,1300,0,1,3,50,50,NaN,NaN,NaN,NaN
235,77890,0,236,4,4,0,no_gain4,gain4,L,C,14,26,faces,body_parts,Stimuli/Experimental_stims/faces/david-siglin-UuW4psOb388-unsplash.jpg,Stimuli/Experimental_stims/body_parts/engin-akyurt-x_3gyC42btc-unsplash.jpg,1,NaN,,NaN,chosen,1900,0,1,3,50,50,NaN,NaN,NaN,NaN
236,77890,0,237,4,4,1,gain4,no_gain4,C,L,2,28,outdoor_scenes,body_parts,Stimuli/Experimental_stims/outdoor_scenes/bruno-van-der-kraan-qez8mNJ3ilU-unsplash.jpg,Stimuli/Experimental_stims/body_parts/ira-vishnevskaya-8DQAvdCby1I-unsplash.jpg,1,NaN,,NaN,unchosen,1800,0,1,3,50,50,NaN,NaN,NaN,NaN
237,77890,0,238,4,4,1,gain4,no_gain5,C,J,2,20,outdoor_scenes,faces,Stimuli/Experimental_stims/outdoor_scenes/bruno-van-der-kraan-qez8mNJ3ilU-unsplash.jpg,Stimuli/Experimental_stims/faces/justin-chen-J7Cf1Gch49E-unsplash.jpg,1,NaN,,NaN,unchosen,4300,1,1,3,50,50,NaN,NaN,NaN,NaN
238,77890,0,239,4,4,1,gain5,no_gain5,K,J,35,20,body_parts,faces,Stimuli/Experimental_stims/body_parts/wc-so-KH4AAPjb-tI-unsplash.jpg,Stimuli/Experimental_stims/faces/justin-chen-J7Cf1Gch49E-unsplash.jpg,1,NaN,,NaN,unchosen,2300,0,1,3,50,50,NaN,NaN,NaN,NaN
239,77890,0,240,4,4,1,gain3,no_gain2,D,B,22,17,faces,faces,Stimuli/Experimental_stims/faces/ravi-patel-VMGAbeeJTKo-unsplash.jpg,Stimuli/Experimental_stims/faces/good-faces-xmSWVeGEnJw-unsplash.jpg,1,NaN,,NaN,chosen,1200,0,1,3,50,50,NaN,NaN,NaN,NaN
240,77890,0,241,4,4,0,no_gain4,gain2,L,H,14,3,faces,outdoor_scenes,Stimuli/Experimental_stims/faces/david-siglin-UuW4psOb388-unsplash.jpg,Stimuli/Experimental_stims/outdoor_scenes/henry-be-NLF6hTe4PAg-unsplash.jpg,1,NaN,,NaN,chosen,1300,0,1,3,50,50,NaN,NaN,NaN,NaN
241,77890,0,242,4,4,0,no_gain3,gain1,I,F,25,19,body_parts,faces,Stimuli/Experimental_stims/body_parts/engin-akyurt-Q2rfH3GW39c-unsplash.jpg,Stimuli/Experimental_stims/faces/joel-mott-LaK153ghdig-unsplash.jpg,1,NaN,,NaN,unchosen,1900,0,1,3,50,50,NaN,NaN,NaN,NaN
242,77890,0,243,4,4,1,gain3,no_gain6,D,G,46,41,objects,objects,Stimuli/Experimental_stims/objects/mockup-graphics-PNsj6RiHAF4-unsplash.jpg,Stimuli/Experimental_stims/objects/insung-yoon-w2JtIQQXoRU-unsplash.jpg,1,NaN,,NaN,unchosen,1300,0,1,3,50,50,NaN,NaN,NaN,NaN
243,77890,0,244,4,4,1,gain4,no_gain1,C,E,26,29,body_parts,body_parts,Stimuli/Experimental_stims/body_parts/engin-akyurt-x_3gyC42btc-unsplash.jpg,Stimuli/Experimental_stims/body_parts/manuel-schinner-ZwjFuJ7ebpk-unsplash.jpg,1,NaN,,NaN,chosen,4200,1,1,3,50,50,NaN,NaN,NaN,NaN
244,77890,0,245,4,4,0,no_gain2,gain5,B,K,4,35,outdoor_scenes,body_parts,Stimuli/Experimental_stims/outdoor_scenes/jarrett-kow-1ZOyYPOBn7I-unsplash.jpg,Stimuli/Experimental_stims/body_parts/wc-so-KH4AAPjb-tI-unsplash.jpg,1,NaN,,NaN,unchosen,2400,0,1,3,50,50,NaN,NaN,NaN,NaN
245,77890,0,246,4,4,1,gain2,no_gain2,H,B,3,17,outdoor_scenes,faces,Stimuli/Experimental_stims/outdoor_scenes/henry-be-NLF6hTe4PAg-unsplash.jpg,Stimuli/Experimental_stims/faces/good-faces-xmSWVeGEnJw-unsplash.jpg,1,NaN,,NaN,chosen,1700,0,1,3,50,50,NaN,NaN,NaN,NaN
246,77890,0,247,4,4,0,no_gain1,gain5,E,K,29,47,body_parts,objects,Stimuli/Experimental_stims/body_parts/manuel-schinner-ZwjFuJ7ebpk-unsplash.jpg,Stimuli/Experimental_stims/objects/ronaldo-arthur-vidal-Cdz_lvnl37k-unsplash.jpg,1,NaN,,NaN,chosen,1600,0,1,3,50,50,NaN,NaN,NaN,NaN
247,77890,0,248,4,4,1,gain3,no_gain5,D,J,46,20,objects,faces,Stimuli/Experimental_stims/objects/mockup-graphics-PNsj6RiHAF4-unsplash.jpg,Stimuli/Experimental_stims/faces/justin-chen-J7Cf1Gch49E-unsplash.jpg,1,NaN,,NaN,unchosen,1100,0,1,3,50,50,NaN,NaN,NaN,NaN
248,77890,0,249,4,4,0,no_gain2,gain1,B,F,4,19,outdoor_scenes,faces,Stimuli/Experimental_stims/outdoor_scenes/jarrett-kow-1ZOyYPOBn7I-unsplash.jpg,Stimuli/Experimental_stims/faces/joel-mott-LaK153ghdig-unsplash.jpg,1,NaN,,NaN,unchosen,1200,0,1,3,50,50,NaN,NaN,NaN,NaN
249,77890,0,250,4,4,1,gain6,no_gain3,A,I,37,10,objects,outdoor_scenes,Stimuli/Experimental_stims/objects/alexander-andrews-VLGWE_SumrA-unsplash.jpg,Stimuli/Experimental_stims/outdoor_scenes/shannon-kunkle-dM8INmkyDas-unsplash.jpg,1,NaN,,NaN,chosen,3100,1,1,3,50,50,NaN,NaN,NaN,NaN
250,77890,0,251,4,4,1,gain3,no_gain6,D,G,22,8,faces,outdoor_scenes,Stimuli/Experimental_stims/faces/ravi-patel-VMGAbeeJTKo-unsplash.jpg,Stimuli/Experimental_stims/outdoor_scenes/samsommer-vddccTqwal8-unsplash.jpg,1,NaN,,NaN,chosen,2600,0,1,3,50,50,NaN,NaN,NaN,NaN
251,77890,0,252,4,4,0,no_gain1,gain6,E,A,39,11,objects,outdoor_scenes,Stimuli/Experimental_stims/objects/charlesdeluvio-1-nx1QR5dTE-unsplash.jpg,Stimuli/Experimental_stims/outdoor_scenes/stephen-leonardi-gyIRjKPXupE-unsplash.jpg,1,NaN,,NaN,unchosen,2400,0,1,3,50,50,NaN,NaN,NaN,NaN
252,77890,0,253,4,4,1,gain2,no_gain3,H,I,13,25,faces,body_parts,Stimuli/Experimental_stims/faces/daniel-rigdon-dXmXKPP2L4E-unsplash.jpg,Stimuli/Experimental_stims/body_parts/engin-akyurt-Q2rfH3GW39c-unsplash.jpg,1,NaN,,NaN,unchosen,1000,0,1,3,50,50,NaN,NaN,NaN,NaN
253,77890,0,254,4,4,0,no_gain6,gain4,G,C,8,26,outdoor_scenes,body_parts,Stimuli/Experimental_stims/outdoor_scenes/samsommer-vddccTqwal8-unsplash.jpg,Stimuli/Experimental_stims/body_parts/engin-akyurt-x_3gyC42btc-unsplash.jpg,1,NaN,,NaN,chosen,3000,0,1,3,50,50,NaN,NaN,NaN,NaN
254,77890,0,255,4,4,0,no_gain4,gain1,L,F,14,33,faces,body_parts,Stimuli/Experimental_stims/faces/david-siglin-UuW4psOb388-unsplash.jpg,Stimuli/Experimental_stims/body_parts/tucker-good-36skLT5jZcc-unsplash.jpg,1,NaN,,NaN,chosen,2400,0,1,3,50,50,NaN,NaN,NaN,NaN
255,77890,0,256,4,4,0,no_gain2,gain3,B,D,4,46,outdoor_scenes,objects,Stimuli/Experimental_stims/outdoor_scenes/jarrett-kow-1ZOyYPOBn7I-unsplash.jpg,Stimuli/Experimental_stims/objects/mockup-graphics-PNsj6RiHAF4-unsplash.jpg,1,NaN,,NaN,unchosen,2300,0,1,3,50,50,NaN,NaN,NaN,NaN
256,77890,0,257,4,4,1,gain3,no_gain3,D,I,22,10,faces,outdoor_scenes,Stimuli/Experimental_stims/faces/ravi-patel-VMGAbeeJTKo-unsplash.jpg,Stimuli/Experimental_stims/outdoor_scenes/shannon-kunkle-dM8INmkyDas-unsplash.jpg,1,NaN,,NaN,chosen,1900,0,1,3,50,50,NaN,NaN,NaN,NaN
257,77890,0,258,4,4,1,gain4,no_gain2,C,B,2,4,outdoor_scenes,outdoor_scenes,Stimuli/Experimental_stims/outdoor_scenes/bruno-van-der-kraan-qez8mNJ3ilU-unsplash.jpg,Stimuli/Experimental_stims/outdoor_scenes/jarrett-kow-1ZOyYPOBn7I-unsplash.jpg,1,NaN,,NaN,unchosen,3200,1,1,3,50,50,NaN,NaN,NaN,NaN
258,77890,0,259,4,4,0,no_gain4,gain6,L,A,28,11,body_parts,outdoor_scenes,Stimuli/Experimental_stims/body_parts/ira-vishnevskaya-8DQAvdCby1I-unsplash.jpg,Stimuli/Experimental_stims/outdoor_scenes/stephen-leonardi-gyIRjKPXupE-unsplash.jpg,1,NaN,,NaN,unchosen,1000,0,1,3,50,50,NaN,NaN,NaN,NaN
259,77890,0,260,4,4,1,gain5,no_gain3,K,I,47,10,objects,outdoor_scenes,Stimuli/Experimental_stims/objects/ronaldo-arthur-vidal-Cdz_lvnl37k-unsplash.jpg,Stimuli/Experimental_stims/outdoor_scenes/shannon-kunkle-dM8INmkyDas-unsplash.jpg,1,NaN,,NaN,chosen,1200,0,1,3,50,50,NaN,NaN,NaN,NaN
260,77890,0,261,4,4,0,no_gain5,gain4,J,C,42,26,objects,body_parts,Stimuli/Experimental_stims/objects/jess-bailey-nOeVi8DsN8U-unsplash.jpg,Stimuli/Experimental_stims/body_parts/engin-akyurt-x_3gyC42btc-unsplash.jpg,1,NaN,,NaN,chosen,2700,0,1,3,50,50,NaN,NaN,NaN,NaN
261,77890,0,262,4,4,0,no_gain1,gain1,E,F,29,33,body_parts,body_parts,Stimuli/Experimental_stims/body_parts/manuel-schinner-ZwjFuJ7ebpk-unsplash.jpg,Stimuli/Experimental_stims/body_parts/tucker-good-36skLT5jZcc-unsplash.jpg,1,NaN,,NaN,chosen,1300,0,1,3,50,50,NaN,NaN,NaN,NaN
262,77890,0,263,4,4,0,no_gain1,gain2,E,H,39,13,objects,faces,Stimuli/Experimental_stims/objects/charlesdeluvio-1-nx1QR5dTE-unsplash.jpg,Stimuli/Experimental_stims/faces/daniel-rigdon-dXmXKPP2L4E-unsplash.jpg,1,NaN,,NaN,unchosen,1500,0,1,3,50,50,NaN,NaN,NaN,NaN
263,77890,0,264,4,4,1,gain3,no_gain5,D,J,22,42,faces,objects,Stimuli/Experimental_stims/faces/ravi-patel-VMGAbeeJTKo-unsplash.jpg,Stimuli/Experimental_stims/objects/jess-bailey-nOeVi8DsN8U-unsplash.jpg,1,NaN,,NaN,chosen,3700,1,1,3,50,50,NaN,NaN,NaN,NaN
264,77890,0,265,4,4,0,no_gain2,gain5,B,K,17,47,faces,objects,Stimuli/Experimental_stims/faces/good-faces-xmSWVeGEnJw-unsplash.jpg,Stimuli/Experimental_stims/objects/ronaldo-arthur-vidal-Cdz_lvnl37k-unsplash.jpg,1,NaN,,NaN,chosen,1000,0,1,3,50,50,NaN,NaN,NaN,NaN
265,77890,0,266,4,4,1,gain4,no_gain6,C,G,2,41,outdoor_scenes,objects,Stimuli/Experimental_stims/outdoor_scenes/bruno-van-der-kraan-qez8mNJ3ilU-unsplash.jpg,Stimuli/Experimental_stims/objects/insung-yoon-w2JtIQQXoRU-unsplash.jpg,1,NaN,,NaN,unchosen,1700,0,1,3,50,50,NaN,NaN,NaN,NaN
266,77890,0,267,4,4,1,gain4,no_gain3,C,I,2,25,outdoor_scenes,body_parts,Stimuli/Experimental_stims/outdoor_scenes/bruno-van-der-kraan-qez8mNJ3ilU-unsplash.jpg,Stimuli/Experimental_stims/body_parts/engin-akyurt-Q2rfH3GW39c-unsplash.jpg,1,NaN,,NaN,unchosen,1100,0,1,3,50,50,NaN,NaN,NaN,NaN
267,77890,0,268,4,4,0,no_gain4,gain3,L,D,28,46,body_parts,objects,Stimuli/Experimental_stims/body_parts/ira-vishnevskaya-8DQAvdCby1I-unsplash.jpg,Stimuli/Experimental_stims/objects/mockup-graphics-PNsj6RiHAF4-unsplash.jpg,1,NaN,,NaN,unchosen,1200,0,1,3,50,50,NaN,NaN,NaN,NaN
268,77890,0,269,4,4,1,gain5,no_gain6,K,G,47,8,objects,outdoor_scenes,Stimuli/Experimental_stims/objects/ronaldo-arthur-vidal-Cdz_lvnl37k-unsplash.jpg,Stimuli/Experimental_stims/outdoor_scenes/samsommer-vddccTqwal8-unsplash.jpg,1,NaN,,NaN,chosen,1300,0,1,3,50,50,NaN,NaN,NaN,NaN
269,77890,0,270,4,4,1,gain6,no_gain1,A,E,37,29,objects,body_parts,Stimuli/Experimental_stims/objects/alexander-andrews-VLGWE_SumrA-unsplash.jpg,Stimuli/Experimental_stims/body_parts/manuel-schinner-ZwjFuJ7ebpk-unsplash.jpg,1,NaN,,NaN,chosen,1700,0,1,3,50,50,NaN,NaN,NaN,NaN
270,77890,0,271,4,4,1,gain2,no_gain2,H,B,13,4,faces,outdoor_scenes,Stimuli/Experimental_stims/faces/daniel-rigdon-dXmXKPP2L4E-unsplash.jpg,Stimuli/Experimental_stims/outdoor_scenes/jarrett-kow-1ZOyYPOBn7I-unsplash.jpg,1,NaN,,NaN,unchosen,3400,1,1,3,50,50,NaN,NaN,NaN,NaN
271,77890,0,272,4,4,0,no_gain5,gain6,J,A,20,11,faces,outdoor_scenes,Stimuli/Experimental_stims/faces/justin-chen-J7Cf1Gch49E-unsplash.jpg,Stimuli/Experimental_stims/outdoor_scenes/stephen-leonardi-gyIRjKPXupE-unsplash.jpg,1,NaN,,NaN,unchosen,2500,0,1,3,50,50,NaN,NaN,NaN,NaN
272,77890,0,273,4,4,1,gain2,no_gain1,H,E,3,29,outdoor_scenes,body_parts,Stimuli/Experimental_stims/outdoor_scenes/henry-be-NLF6hTe4PAg-unsplash.jpg,Stimuli/Experimental_stims/body_parts/manuel-schinner-ZwjFuJ7ebpk-unsplash.jpg,1,NaN,,NaN,chosen,2600,0,1,3,50,50,NaN,NaN,NaN,NaN
273,77890,0,274,4,4,1,gain2,no_gain6,H,G,13,41,faces,objects,Stimuli/Experimental_stims/faces/daniel-rigdon-dXmXKPP2L4E-unsplash.jpg,Stimuli/Experimental_stims/objects/insung-yoon-w2JtIQQXoRU-unsplash.jpg,1,NaN,,NaN,unchosen,2000,0,1,3,50,50,NaN,NaN,NaN,NaN
274,77890,0,275,4,4,0,no_gain1,gain3,E,D,29,22,body_parts,faces,Stimuli/Experimental_stims/body_parts/manuel-schinner-ZwjFuJ7ebpk-unsplash.jpg,Stimuli/Experimental_stims/faces/ravi-patel-VMGAbeeJTKo-unsplash.jpg,1,NaN,,NaN,chosen,1900,0,1,3,50,50,NaN,NaN,NaN,NaN
275,77890,0,276,4,4,0,no_gain2,gain6,B,A,4,11,outdoor_scenes,outdoor_scenes,Stimuli/Experimental_stims/outdoor_scenes/jarrett-kow-1ZOyYPOBn7I-unsplash.jpg,Stimuli/Experimental_stims/outdoor_scenes/stephen-leonardi-gyIRjKPXupE-unsplash.jpg,1,NaN,,NaN,unchosen,1500,0,1,3,50,50,NaN,NaN,NaN,NaN
276,77890,0,277,4,4,1,gain2,no_gain5,H,J,13,20,faces,faces,Stimuli/Experimental_stims/faces/daniel-rigdon-dXmXKPP2L4E-unsplash.jpg,Stimuli/Experimental_stims/faces/justin-chen-J7Cf1Gch49E-unsplash.jpg,1,NaN,,NaN,unchosen,2500,0,1,3,50,50,NaN,NaN,NaN,NaN
277,77890,0,278,4,4,0,no_gain6,gain6,G,A,8,37,outdoor_scenes,objects,Stimuli/Experimental_stims/outdoor_scenes/samsommer-vddccTqwal8-unsplash.jpg,Stimuli/Experimental_stims/objects/alexander-andrews-VLGWE_SumrA-unsplash.jpg,1,NaN,,NaN,chosen,1400,0,1,3,50,50,NaN,NaN,NaN,NaN
278,77890,0,279,4,4,0,no_gain3,gain2,I,H,10,3,outdoor_scenes,outdoor_scenes,Stimuli/Experimental_stims/outdoor_scenes/shannon-kunkle-dM8INmkyDas-unsplash.jpg,Stimuli/Experimental_stims/outdoor_scenes/henry-be-NLF6hTe4PAg-unsplash.jpg,1,NaN,,NaN,chosen,1300,0,1,3,50,50,NaN,NaN,NaN,NaN
279,77890,0,280,4,4,1,gain6,no_gain6,A,G,11,41,outdoor_scenes,objects,Stimuli/Experimental_stims/outdoor_scenes/stephen-leonardi-gyIRjKPXupE-unsplash.jpg,Stimuli/Experimental_stims/objects/insung-yoon-w2JtIQQXoRU-unsplash.jpg,1,NaN,,NaN,unchosen,1100,0,1,3,50,50,NaN,NaN,NaN,NaN
280,77890,0,281,4,4,1,gain6,no_gain2,A,B,37,17,objects,faces,Stimuli/Experimental_stims/objects/alexander-andrews-VLGWE_SumrA-unsplash.jpg,Stimuli/Experimental_stims/faces/good-faces-xmSWVeGEnJw-unsplash.jpg,1,NaN,,NaN,chosen,1100,0,1,3,50,50,NaN,NaN,NaN,NaN
281,77890,0,282,4,4,1,gain2,no_gain5,H,J,3,42,outdoor_scenes,objects,Stimuli/Experimental_stims/outdoor_scenes/henry-be-NLF6hTe4PAg-unsplash.jpg,Stimuli/Experimental_stims/objects/jess-bailey-nOeVi8DsN8U-unsplash.jpg,1,NaN,,NaN,chosen,3900,1,1,3,50,50,NaN,NaN,NaN,NaN
282,77890,0,283,4,4,1,gain2,no_gain4,H,L,13,28,faces,body_parts,Stimuli/Experimental_stims/faces/daniel-rigdon-dXmXKPP2L4E-unsplash.jpg,Stimuli/Experimental_stims/body_parts/ira-vishnevskaya-8DQAvdCby1I-unsplash.jpg,1,NaN,,NaN,unchosen,1200,0,1,3,50,50,NaN,NaN,NaN,NaN
283,77890,0,284,4,4,0,no_gain4,gain6,L,A,14,37,faces,objects,Stimuli/Experimental_stims/faces/david-siglin-UuW4psOb388-unsplash.jpg,Stimuli/Experimental_stims/objects/alexander-andrews-VLGWE_SumrA-unsplash.jpg,1,NaN,,NaN,chosen,1800,0,1,3,50,50,NaN,NaN,NaN,NaN
284,77890,0,285,4,4,0,no_gain1,gain3,E,D,39,46,objects,objects,Stimuli/Experimental_stims/objects/charlesdeluvio-1-nx1QR5dTE-unsplash.jpg,Stimuli/Experimental_stims/objects/mockup-graphics-PNsj6RiHAF4-unsplash.jpg,1,NaN,,NaN,unchosen,1900,0,1,3,50,50,NaN,NaN,NaN,NaN
285,77890,0,286,4,4,1,gain1,no_gain3,F,I,33,10,body_parts,outdoor_scenes,Stimuli/Experimental_stims/body_parts/tucker-good-36skLT5jZcc-unsplash.jpg,Stimuli/Experimental_stims/outdoor_scenes/shannon-kunkle-dM8INmkyDas-unsplash.jpg,1,NaN,,NaN,chosen,1100,0,1,3,50,50,NaN,NaN,NaN,NaN
286,77890,0,287,4,4,0,no_gain3,gain3,I,D,25,46,body_parts,objects,Stimuli/Experimental_stims/body_parts/engin-akyurt-Q2rfH3GW39c-unsplash.jpg,Stimuli/Experimental_stims/objects/mockup-graphics-PNsj6RiHAF4-unsplash.jpg,1,NaN,,NaN,unchosen,3000,0,1,3,50,50,NaN,NaN,NaN,NaN
287,77890,0,288,4,4,0,no_gain5,gain1,J,F,20,19,faces,faces,Stimuli/Experimental_stims/faces/justin-chen-J7Cf1Gch49E-unsplash.jpg,Stimuli/Experimental_stims/faces/joel-mott-LaK153ghdig-unsplash.jpg,1,NaN,,NaN,unchosen,2800,0,1,3,50,50,NaN,NaN,NaN,NaN
288,77890,0,289,4,4,0,no_gain3,gain5,I,K,25,35,body_parts,body_parts,Stimuli/Experimental_stims/body_parts/engin-akyurt-Q2rfH3GW39c-unsplash.jpg,Stimuli/Experimental_stims/body_parts/wc-so-KH4AAPjb-tI-unsplash.jpg,1,NaN,,NaN,unchosen,1600,0,1,3,50,50,NaN,NaN,NaN,NaN
289,77890,0,290,4,4,0,no_gain6,gain1,G,F,8,33,outdoor_scenes,body_parts,Stimuli/Experimental_stims/outdoor_scenes/samsommer-vddccTqwal8-unsplash.jpg,Stimuli/Experimental_stims/body_parts/tucker-good-36skLT5jZcc-unsplash.jpg,1,NaN,,NaN,chosen,1800,0,1,3,50,50,NaN,NaN,NaN,NaN
290,77890,0,291,4,4,0,no_gain2,gain1,B,F,17,33,faces,body_parts,Stimuli/Experimental_stims/faces/good-faces-xmSWVeGEnJw-unsplash.jpg,Stimuli/Experimental_stims/body_parts/tucker-good-36skLT5jZcc-unsplash.jpg,1,NaN,,NaN,chosen,1900,0,1,3,50,50,NaN,NaN,NaN,NaN
291,77890,0,292,4,4,1,gain1,no_gain5,F,J,33,42,body_parts,objects,Stimuli/Experimental_stims/body_parts/tucker-good-36skLT5jZcc-unsplash.jpg,Stimuli/Experimental_stims/objects/jess-bailey-nOeVi8DsN8U-unsplash.jpg,1,NaN,,NaN,chosen,1700,0,1,3,50,50,NaN,NaN,NaN,NaN