,PID,practice,trial,block,run,gain_left,left_item_id,right_item_id,left_pair_id,right_pair_id,left_stimulus,right_stimulus,left_category,left_rating,right_rating,right_category,left_path,right_path,no_response,left_chosen,rt,higher_outcome_chosen,choice_type,chosen_stimulus,unchosen_stimulus,chosen_category,unchosen_category,iti,long_iti,simulation,version
0,44945,1,1,0,0,0,,,,,,,,,,,Stimuli/Practice_stims/Final_decisions/debby-hudson-FmCSSSGge-0-unsplash.jpg,Stimuli/Practice_stims/Final_decisions/yassine-khalfalli-adsQ9d_Cx0c-unsplash.jpg,0,0,262,1,,,,,,3000,0,7,2
1,44945,1,2,0,0,0,,,,,,,,,,,Stimuli/Practice_stims/Final_decisions/florian-wehde-iVW7mZPwd4g-unsplash.jpg,Stimuli/Practice_stims/Final_decisions/patrick-perkins-3wylDrjxH-E-unsplash.jpg,0,0,133,1,,,,,,1500,0,7,2
2,44945,1,3,0,0,0,,,,,,,,,,,Stimuli/Practice_stims/Final_decisions/debby-hudson-FmCSSSGge-0-unsplash.jpg,Stimuli/Practice_stims/Final_decisions/florian-wehde-iVW7mZPwd4g-unsplash.jpg,0,0,900,1,,,,,,2000,0,7,2
3,44945,1,4,0,0,0,,,,,,,,,,,Stimuli/Practice_stims/Final_decisions/yassine-khalfalli-adsQ9d_Cx0c-unsplash.jpg,Stimuli/Practice_stims/Final_decisions/debby-hudson-FmCSSSGge-0-unsplash.jpg,0,1,109,0,,,,,,1000,0,7,2
4,44945,0,5,1,1,1,gain2,no_gain3,L,A,34,45,body_parts,75,77,objects,Stimuli/Experimental_stims/body_parts/wagner-santos-mBWMvIuVnso-unsplash.jpg,Stimuli/Experimental_stims/objects/leohoho-rngTKHXumy0-unsplash.jpg,1,NaN,,NaN,unchosen,NaN,NaN,NaN,NaN,4100,1,7,2
5,44945,0,6,1,1,1,gain3,no_gain5,J,E,38,36,objects,73,76,objects,Stimuli/Experimental_stims/objects/art-lasovsky-8XddFc6NkBY-unsplash.jpg,Stimuli/Experimental_stims/objects/alexander-andrews-JYGnB9gTCls-unsplash.jpg,1,NaN,,NaN,chosen,NaN,NaN,NaN,NaN,1200,0,7,2
6,44945,0,7,1,1,1,gain1,no_gain3,F,A,35,5,body_parts,61,71,outdoor_scenes,Stimuli/Experimental_stims/body_parts/wc-so-KH4AAPjb-tI-unsplash.jpg,Stimuli/Experimental_stims/outdoor_scenes/jeff-king-bJHWJeiHfHc-unsplash.jpg,1,NaN,,NaN,chosen,NaN,NaN,NaN,NaN,2600,0,7,2
7,44945,0,8,1,1,1,gain2,no_gain4,L,H,17,15,faces,80,84,faces,Stimuli/Experimental_stims/faces/good-faces-xmSWVeGEnJw-unsplash.jpg,Stimuli/Experimental_stims/faces/erik-lucatero-d2MSDujJl2g-unsplash.jpg,0,0,24,0,chosen,15,17,faces,faces,2000,0,7,2
8,44945,0,9,1,1,0,no_gain5,gain1,E,F,28,12,body_parts,68,84,faces,Stimuli/Experimental_stims/body_parts/ira-vishnevskaya-8DQAvdCby1I-unsplash.jpg,Stimuli/Experimental_stims/faces/aiony-haust-jmATI5Q_YgY-unsplash.jpg,0,0,172,1,unchosen,12,28,faces,body_parts,1200,0,7,2
9,44945,0,10,1,1,0,no_gain4,gain3,H,J,15,38,faces,84,73,objects,Stimuli/Experimental_stims/faces/erik-lucatero-d2MSDujJl2g-unsplash.jpg,Stimuli/Experimental_stims/objects/art-lasovsky-8XddFc6NkBY-unsplash.jpg,0,0,144,1,chosen,38,15,objects,faces,3200,1,7,2
10,44945,0,11,1,1,0,no_gain1,gain3,K,J,25,38,body_parts,75,73,objects,Stimuli/Experimental_stims/body_parts/engin-akyurt-Q2rfH3GW39c-unsplash.jpg,Stimuli/Experimental_stims/objects/art-lasovsky-8XddFc6NkBY-unsplash.jpg,0,0,130,1,chosen,38,25,objects,body_parts,1200,0,7,2
11,44945,0,12,1,1,0,no_gain2,gain1,C,F,8,35,outdoor_scenes,88,61,body_parts,Stimuli/Experimental_stims/outdoor_scenes/samsommer-vddccTqwal8-unsplash.jpg,Stimuli/Experimental_stims/body_parts/wc-so-KH4AAPjb-tI-unsplash.jpg,0,1,194,0,chosen,8,35,outdoor_scenes,body_parts,1800,0,7,2
12,44945,0,13,1,1,1,gain2,no_gain1,L,K,34,43,body_parts,75,83,objects,Stimuli/Experimental_stims/body_parts/wagner-santos-mBWMvIuVnso-unsplash.jpg,Stimuli/Experimental_stims/objects/jonathan-greenaway-Y4hGgeiFn3s-unsplash.jpg,0,0,133,0,unchosen,43,34,objects,body_parts,1600,0,7,2
13,44945,0,14,1,1,0,no_gain6,gain6,I,B,26,20,body_parts,71,81,faces,Stimuli/Experimental_stims/body_parts/engin-akyurt-x_3gyC42btc-unsplash.jpg,Stimuli/Experimental_stims/faces/justin-chen-J7Cf1Gch49E-unsplash.jpg,0,0,274,1,unchosen,20,26,faces,body_parts,1300,0,7,2
14,44945,0,15,1,1,0,no_gain1,gain5,K,D,43,42,objects,83,56,objects,Stimuli/Experimental_stims/objects/jonathan-greenaway-Y4hGgeiFn3s-unsplash.jpg,Stimuli/Experimental_stims/objects/jess-bailey-nOeVi8DsN8U-unsplash.jpg,0,1,258,0,unchosen,43,42,objects,objects,1900,0,7,2
15,44945,0,16,1,1,0,no_gain3,gain2,A,L,5,17,outdoor_scenes,71,80,faces,Stimuli/Experimental_stims/outdoor_scenes/jeff-king-bJHWJeiHfHc-unsplash.jpg,Stimuli/Experimental_stims/faces/good-faces-xmSWVeGEnJw-unsplash.jpg,0,0,82,1,chosen,17,5,faces,outdoor_scenes,4100,1,7,2
16,44945,0,17,1,1,1,gain4,no_gain2,G,C,40,32,objects,72,72,body_parts,Stimuli/Experimental_stims/objects/fabian-blank-pElSkGRA2NU-unsplash.jpg,Stimuli/Experimental_stims/body_parts/towfiqu-barbhuiya-3AsiVDsZnHg-unsplash.jpg,0,1,3,1,unchosen,40,32,objects,body_parts,1100,0,7,2
17,44945,0,18,1,1,1,gain6,no_gain2,B,C,2,8,outdoor_scenes,69,88,outdoor_scenes,Stimuli/Experimental_stims/outdoor_scenes/bruno-van-der-kraan-qez8mNJ3ilU-unsplash.jpg,Stimuli/Experimental_stims/outdoor_scenes/samsommer-vddccTqwal8-unsplash.jpg,0,0,71,0,chosen,8,2,outdoor_scenes,outdoor_scenes,1200,0,7,2
18,44945,0,19,1,1,1,gain5,no_gain4,D,H,42,10,objects,56,79,outdoor_scenes,Stimuli/Experimental_stims/objects/jess-bailey-nOeVi8DsN8U-unsplash.jpg,Stimuli/Experimental_stims/outdoor_scenes/shannon-kunkle-dM8INmkyDas-unsplash.jpg,0,1,86,1,unchosen,42,10,objects,outdoor_scenes,1400,0,7,2
19,44945,0,20,1,1,0,no_gain4,gain1,H,F,15,35,faces,84,61,body_parts,Stimuli/Experimental_stims/faces/erik-lucatero-d2MSDujJl2g-unsplash.jpg,Stimuli/Experimental_stims/body_parts/wc-so-KH4AAPjb-tI-unsplash.jpg,0,1,94,0,chosen,15,35,faces,body_parts,1300,0,7,2
20,44945,0,21,1,1,1,gain6,no_gain6,B,I,2,3,outdoor_scenes,69,75,outdoor_scenes,Stimuli/Experimental_stims/outdoor_scenes/bruno-van-der-kraan-qez8mNJ3ilU-unsplash.jpg,Stimuli/Experimental_stims/outdoor_scenes/henry-be-NLF6hTe4PAg-unsplash.jpg,0,0,86,0,chosen,3,2,outdoor_scenes,outdoor_scenes,4600,1,7,2
21,44945,0,22,1,1,0,no_gain1,gain3,K,J,43,19,objects,83,72,faces,Stimuli/Experimental_stims/objects/jonathan-greenaway-Y4hGgeiFn3s-unsplash.jpg,Stimuli/Experimental_stims/faces/joel-mott-LaK153ghdig-unsplash.jpg,0,0,3,1,unchosen,19,43,faces,objects,1000,0,7,2
22,44945,0,23,1,1,1,gain4,no_gain4,G,H,6,15,outdoor_scenes,72,84,faces,Stimuli/Experimental_stims/outdoor_scenes/meng-ji-8BH_M-53CyA-unsplash.jpg,Stimuli/Experimental_stims/faces/erik-lucatero-d2MSDujJl2g-unsplash.jpg,0,1,113,1,chosen,6,15,outdoor_scenes,faces,1100,0,7,2
23,44945,0,24,1,1,0,no_gain1,gain4,K,G,43,40,objects,83,72,objects,Stimuli/Experimental_stims/objects/jonathan-greenaway-Y4hGgeiFn3s-unsplash.jpg,Stimuli/Experimental_stims/objects/fabian-blank-pElSkGRA2NU-unsplash.jpg,0,1,62,0,unchosen,43,40,objects,objects,1700,0,7,2
24,44945,0,25,1,1,0,no_gain3,gain5,A,D,45,42,objects,77,56,objects,Stimuli/Experimental_stims/objects/leohoho-rngTKHXumy0-unsplash.jpg,Stimuli/Experimental_stims/objects/jess-bailey-nOeVi8DsN8U-unsplash.jpg,0,0,140,1,unchosen,42,45,objects,objects,2800,0,7,2
25,44945,0,26,1,1,1,gain4,no_gain3,G,A,6,5,outdoor_scenes,72,71,outdoor_scenes,Stimuli/Experimental_stims/outdoor_scenes/meng-ji-8BH_M-53CyA-unsplash.jpg,Stimuli/Experimental_stims/outdoor_scenes/jeff-king-bJHWJeiHfHc-unsplash.jpg,0,0,178,0,chosen,5,6,outdoor_scenes,outdoor_scenes,3200,1,7,2
26,44945,0,27,1,1,1,gain5,no_gain6,D,I,16,3,faces,71,75,outdoor_scenes,Stimuli/Experimental_stims/faces/freddy-kearney-o-ioeoATbIM-unsplash.jpg,Stimuli/Experimental_stims/outdoor_scenes/henry-be-NLF6hTe4PAg-unsplash.jpg,0,0,27,0,chosen,3,16,outdoor_scenes,faces,2000,0,7,2
27,44945,0,28,1,1,0,no_gain3,gain3,A,J,45,19,objects,77,72,faces,Stimuli/Experimental_stims/objects/leohoho-rngTKHXumy0-unsplash.jpg,Stimuli/Experimental_stims/faces/joel-mott-LaK153ghdig-unsplash.jpg,0,1,47,0,unchosen,45,19,objects,faces,1600,0,7,2
28,44945,0,29,1,1,1,gain6,no_gain3,B,A,2,5,outdoor_scenes,69,71,outdoor_scenes,Stimuli/Experimental_stims/outdoor_scenes/bruno-van-der-kraan-qez8mNJ3ilU-unsplash.jpg,Stimuli/Experimental_stims/outdoor_scenes/jeff-king-bJHWJeiHfHc-unsplash.jpg,0,0,58,0,chosen,5,2,outdoor_scenes,outdoor_scenes,1300,0,7,2
29,44945,0,30,1,1,1,gain5,no_gain5,D,E,42,28,objects,56,68,body_parts,Stimuli/Experimental_stims/objects/jess-bailey-nOeVi8DsN8U-unsplash.jpg,Stimuli/Experimental_stims/body_parts/ira-vishnevskaya-8DQAvdCby1I-unsplash.jpg,0,0,310,0,unchosen,28,42,body_parts,objects,1200,0,7,2
30,44945,0,31,1,1,0,no_gain6,gain3,I,J,26,19,body_parts,71,72,faces,Stimuli/Experimental_stims/body_parts/engin-akyurt-x_3gyC42btc-unsplash.jpg,Stimuli/Experimental_stims/faces/joel-mott-LaK153ghdig-unsplash.jpg,0,1,31,0,unchosen,26,19,body_parts,faces,3500,1,7,2
31,44945,0,32,1,1,0,no_gain1,gain1,K,F,25,35,body_parts,75,61,body_parts,Stimuli/Experimental_stims/body_parts/engin-akyurt-Q2rfH3GW39c-unsplash.jpg,Stimuli/Experimental_stims/body_parts/wc-so-KH4AAPjb-tI-unsplash.jpg,0,1,254,0,chosen,25,35,body_parts,body_parts,1800,0,7,2
32,44945,0,33,1,1,0,no_gain5,gain6,E,B,28,20,body_parts,68,81,faces,Stimuli/Experimental_stims/body_parts/ira-vishnevskaya-8DQAvdCby1I-unsplash.jpg,Stimuli/Experimental_stims/faces/justin-chen-J7Cf1Gch49E-unsplash.jpg,0,0,232,1,unchosen,20,28,faces,body_parts,1600,0,7,2
33,44945,0,34,1,1,0,no_gain1,gain5,K,D,25,16,body_parts,75,71,faces,Stimuli/Experimental_stims/body_parts/engin-akyurt-Q2rfH3GW39c-unsplash.jpg,Stimuli/Experimental_stims/faces/freddy-kearney-o-ioeoATbIM-unsplash.jpg,0,0,9,1,chosen,16,25,faces,body_parts,2000,0,7,2
34,44945,0,35,1,1,0,no_gain5,gain5,E,D,36,16,objects,76,71,faces,Stimuli/Experimental_stims/objects/alexander-andrews-JYGnB9gTCls-unsplash.jpg,Stimuli/Experimental_stims/faces/freddy-kearney-o-ioeoATbIM-unsplash.jpg,0,0,13,1,chosen,16,36,faces,objects,1100,0,7,2
35,44945,0,36,1,1,1,gain1,no_gain2,F,C,12,32,faces,84,72,body_parts,Stimuli/Experimental_stims/faces/aiony-haust-jmATI5Q_YgY-unsplash.jpg,Stimuli/Experimental_stims/body_parts/towfiqu-barbhuiya-3AsiVDsZnHg-unsplash.jpg,0,1,190,1,unchosen,12,32,faces,body_parts,2800,0,7,2
36,44945,0,37,1,1,0,no_gain2,gain5,C,D,8,16,outdoor_scenes,88,71,faces,Stimuli/Experimental_stims/outdoor_scenes/samsommer-vddccTqwal8-unsplash.jpg,Stimuli/Experimental_stims/faces/freddy-kearney-o-ioeoATbIM-unsplash.jpg,0,1,217,0,chosen,8,16,outdoor_scenes,faces,3100,1,7,2
37,44945,0,38,1,1,0,no_gain4,gain2,H,L,10,34,outdoor_scenes,79,75,body_parts,Stimuli/Experimental_stims/outdoor_scenes/shannon-kunkle-dM8INmkyDas-unsplash.jpg,Stimuli/Experimental_stims/body_parts/wagner-santos-mBWMvIuVnso-unsplash.jpg,0,0,555,1,unchosen,34,10,body_parts,outdoor_scenes,1100,0,7,2
38,44945,0,39,1,1,0,no_gain4,gain1,H,F,10,12,outdoor_scenes,79,84,faces,Stimuli/Experimental_stims/outdoor_scenes/shannon-kunkle-dM8INmkyDas-unsplash.jpg,Stimuli/Experimental_stims/faces/aiony-haust-jmATI5Q_YgY-unsplash.jpg,0,0,10,1,unchosen,12,10,faces,outdoor_scenes,1100,0,7,2
39,44945,0,40,1,1,1,gain2,no_gain1,L,K,17,25,faces,80,75,body_parts,Stimuli/Experimental_stims/faces/good-faces-xmSWVeGEnJw-unsplash.jpg,Stimuli/Experimental_stims/body_parts/engin-akyurt-Q2rfH3GW39c-unsplash.jpg,0,0,203,0,chosen,25,17,body_parts,faces,1100,0,7,2
40,44945,0,41,1,1,1,gain2,no_gain5,L,E,34,28,body_parts,75,68,body_parts,Stimuli/Experimental_stims/body_parts/wagner-santos-mBWMvIuVnso-unsplash.jpg,Stimuli/Experimental_stims/body_parts/ira-vishnevskaya-8DQAvdCby1I-unsplash.jpg,1,NaN,,NaN,unchosen,NaN,NaN,NaN,NaN,2300,0,7,2
41,44945,0,42,1,1,1,gain6,no_gain3,B,A,20,45,faces,81,77,objects,Stimuli/Experimental_stims/faces/justin-chen-J7Cf1Gch49E-unsplash.jpg,Stimuli/Experimental_stims/objects/leohoho-rngTKHXumy0-unsplash.jpg,0,1,27,1,unchosen,20,45,faces,objects,3700,1,7,2
42,44945,0,43,1,1,0,no_gain6,gain5,I,D,26,42,body_parts,71,56,objects,Stimuli/Experimental_stims/body_parts/engin-akyurt-x_3gyC42btc-unsplash.jpg,Stimuli/Experimental_stims/objects/jess-bailey-nOeVi8DsN8U-unsplash.jpg,0,0,230,1,unchosen,42,26,objects,body_parts,2400,0,7,2
43,44945,0,44,1,1,0,no_gain5,gain6,E,B,36,2,objects,76,69,outdoor_scenes,Stimuli/Experimental_stims/objects/alexander-andrews-JYGnB9gTCls-unsplash.jpg,Stimuli/Experimental_stims/outdoor_scenes/bruno-van-der-kraan-qez8mNJ3ilU-unsplash.jpg,0,0,761,1,chosen,2,36,outdoor_scenes,objects,1400,0,7,2
44,44945,0,45,1,1,0,no_gain2,gain6,C,B,32,20,body_parts,72,81,faces,Stimuli/Experimental_stims/body_parts/towfiqu-barbhuiya-3AsiVDsZnHg-unsplash.jpg,Stimuli/Experimental_stims/faces/justin-chen-J7Cf1Gch49E-unsplash.jpg,0,0,264,1,unchosen,20,32,faces,body_parts,2500,0,7,2
45,44945,0,46,1,1,1,gain6,no_gain1,B,K,2,25,outdoor_scenes,69,75,body_parts,Stimuli/Experimental_stims/outdoor_scenes/bruno-van-der-kraan-qez8mNJ3ilU-unsplash.jpg,Stimuli/Experimental_stims/body_parts/engin-akyurt-Q2rfH3GW39c-unsplash.jpg,0,0,127,0,chosen,25,2,body_parts,outdoor_scenes,2600,0,7,2
46,44945,0,47,1,1,1,gain2,no_gain2,L,C,17,8,faces,80,88,outdoor_scenes,Stimuli/Experimental_stims/faces/good-faces-xmSWVeGEnJw-unsplash.jpg,Stimuli/Experimental_stims/outdoor_scenes/samsommer-vddccTqwal8-unsplash.jpg,0,1,6,1,chosen,17,8,faces,outdoor_scenes,1100,0,7,2
47,44945,0,48,1,1,0,no_gain6,gain1,I,F,26,12,body_parts,71,84,faces,Stimuli/Experimental_stims/body_parts/engin-akyurt-x_3gyC42btc-unsplash.jpg,Stimuli/Experimental_stims/faces/aiony-haust-jmATI5Q_YgY-unsplash.jpg,0,1,271,0,unchosen,26,12,body_parts,faces,4800,1,7,2
48,44945,0,49,1,1,1,gain4,no_gain3,G,A,40,45,objects,72,77,objects,Stimuli/Experimental_stims/objects/fabian-blank-pElSkGRA2NU-unsplash.jpg,Stimuli/Experimental_stims/objects/leohoho-rngTKHXumy0-unsplash.jpg,0,0,461,0,unchosen,45,40,objects,objects,1600,0,7,2
49,44945,0,50,1,1,1,gain6,no_gain4,B,H,2,15,outdoor_scenes,69,84,faces,Stimuli/Experimental_stims/outdoor_scenes/bruno-van-der-kraan-qez8mNJ3ilU-unsplash.jpg,Stimuli/Experimental_stims/faces/erik-lucatero-d2MSDujJl2g-unsplash.jpg,0,1,192,1,chosen,2,15,outdoor_scenes,faces,2800,0,7,2
50,44945,0,51,1,1,1,gain1,no_gain3,F,A,12,45,faces,84,77,objects,Stimuli/Experimental_stims/faces/aiony-haust-jmATI5Q_YgY-unsplash.jpg,Stimuli/Experimental_stims/objects/leohoho-rngTKHXumy0-unsplash.jpg,0,0,57,0,unchosen,45,12,objects,faces,2300,0,7,2
51,44945,0,52,1,1,1,gain3,no_gain5,J,E,19,28,faces,72,68,body_parts,Stimuli/Experimental_stims/faces/joel-mott-LaK153ghdig-unsplash.jpg,Stimuli/Experimental_stims/body_parts/ira-vishnevskaya-8DQAvdCby1I-unsplash.jpg,0,1,58,1,unchosen,19,28,faces,body_parts,2400,0,7,2
52,44945,0,53,1,1,1,gain4,no_gain4,G,H,40,10,objects,72,79,outdoor_scenes,Stimuli/Experimental_stims/objects/fabian-blank-pElSkGRA2NU-unsplash.jpg,Stimuli/Experimental_stims/outdoor_scenes/shannon-kunkle-dM8INmkyDas-unsplash.jpg,0,1,222,1,unchosen,40,10,objects,outdoor_scenes,1800,0,7,2
53,44945,0,54,1,1,0,no_gain6,gain1,I,F,3,35,outdoor_scenes,75,61,body_parts,Stimuli/Experimental_stims/outdoor_scenes/henry-be-NLF6hTe4PAg-unsplash.jpg,Stimuli/Experimental_stims/body_parts/wc-so-KH4AAPjb-tI-unsplash.jpg,0,0,219,1,chosen,35,3,body_parts,outdoor_scenes,1500,0,7,2
54,44945,0,55,1,1,1,gain6,no_gain4,B,H,20,10,faces,81,79,outdoor_scenes,Stimuli/Experimental_stims/faces/justin-chen-J7Cf1Gch49E-unsplash.jpg,Stimuli/Experimental_stims/outdoor_scenes/shannon-kunkle-dM8INmkyDas-unsplash.jpg,0,0,146,0,unchosen,10,20,outdoor_scenes,faces,1900,0,7,2
55,44945,0,56,1,1,1,gain3,no_gain2,J,C,19,32,faces,72,72,body_parts,Stimuli/Experimental_stims/faces/joel-mott-LaK153ghdig-unsplash.jpg,Stimuli/Experimental_stims/body_parts/towfiqu-barbhuiya-3AsiVDsZnHg-unsplash.jpg,0,1,174,1,unchosen,19,32,faces,body_parts,1100,0,7,2
56,44945,0,57,1,1,0,no_gain2,gain2,C,L,32,34,body_parts,72,75,body_parts,Stimuli/Experimental_stims/body_parts/towfiqu-barbhuiya-3AsiVDsZnHg-unsplash.jpg,Stimuli/Experimental_stims/body_parts/wagner-santos-mBWMvIuVnso-unsplash.jpg,0,1,131,0,unchosen,32,34,body_parts,body_parts,1700,0,7,2
57,44945,0,58,1,1,1,gain5,no_gain3,D,A,16,5,faces,71,71,outdoor_scenes,Stimuli/Experimental_stims/faces/freddy-kearney-o-ioeoATbIM-unsplash.jpg,Stimuli/Experimental_stims/outdoor_scenes/jeff-king-bJHWJeiHfHc-unsplash.jpg,0,1,20,1,chosen,16,5,faces,outdoor_scenes,1600,0,7,2
58,44945,0,59,1,1,1,gain6,no_gain1,B,K,20,43,faces,81,83,objects,Stimuli/Experimental_stims/faces/justin-chen-J7Cf1Gch49E-unsplash.jpg,Stimuli/Experimental_stims/objects/jonathan-greenaway-Y4hGgeiFn3s-unsplash.jpg,0,0,107,0,unchosen,43,20,objects,faces,1700,0,7,2
59,44945,0,60,1,1,0,no_gain5,gain4,E,G,36,6,objects,76,72,outdoor_scenes,Stimuli/Experimental_stims/objects/alexander-andrews-JYGnB9gTCls-unsplash.jpg,Stimuli/Experimental_stims/outdoor_scenes/meng-ji-8BH_M-53CyA-unsplash.jpg,0,1,24,0,chosen,36,6,objects,outdoor_scenes,3000,0,7,2
60,44945,0,61,1,1,1,gain3,no_gain6,J,I,38,3,objects,73,75,outdoor_scenes,Stimuli/Experimental_stims/objects/art-lasovsky-8XddFc6NkBY-unsplash.jpg,Stimuli/Experimental_stims/outdoor_scenes/henry-be-NLF6hTe4PAg-unsplash.jpg,0,1,89,1,chosen,38,3,objects,outdoor_scenes,2100,0,7,2
61,44945,0,62,1,1,1,gain5,no_gain2,D,C,42,32,objects,56,72,body_parts,Stimuli/Experimental_stims/objects/jess-bailey-nOeVi8DsN8U-unsplash.jpg,Stimuli/Experimental_stims/body_parts/towfiqu-barbhuiya-3AsiVDsZnHg-unsplash.jpg,0,0,18,0,unchosen,32,42,body_parts,objects,3200,1,7,2
62,44945,0,63,1,1,1,gain1,no_gain5,F,E,35,36,body_parts,61,76,objects,Stimuli/Experimental_stims/body_parts/wc-so-KH4AAPjb-tI-unsplash.jpg,Stimuli/Experimental_stims/objects/alexander-andrews-JYGnB9gTCls-unsplash.jpg,0,0,294,0,chosen,36,35,objects,body_parts,1600,0,7,2
63,44945,0,64,1,1,0,no_gain2,gain4,C,G,8,6,outdoor_scenes,88,72,outdoor_scenes,Stimuli/Experimental_stims/outdoor_scenes/samsommer-vddccTqwal8-unsplash.jpg,Stimuli/Experimental_stims/outdoor_scenes/meng-ji-8BH_M-53CyA-unsplash.jpg,0,1,23,0,chosen,8,6,outdoor_scenes,outdoor_scenes,1300,0,7,2
64,44945,0,65,1,1,0,no_gain1,gain1,K,F,43,12,objects,83,84,faces,Stimuli/Experimental_stims/objects/jonathan-greenaway-Y4hGgeiFn3s-unsplash.jpg,Stimuli/Experimental_stims/faces/aiony-haust-jmATI5Q_YgY-unsplash.jpg,0,1,196,0,unchosen,43,12,objects,faces,1800,0,7,2
65,44945,0,66,1,1,0,no_gain1,gain4,K,G,25,6,body_parts,75,72,outdoor_scenes,Stimuli/Experimental_stims/body_parts/engin-akyurt-Q2rfH3GW39c-unsplash.jpg,Stimuli/Experimental_stims/outdoor_scenes/meng-ji-8BH_M-53CyA-unsplash.jpg,0,0,2,1,chosen,6,25,outdoor_scenes,body_parts,1400,0,7,2
66,44945,0,67,1,1,0,no_gain3,gain3,A,J,5,38,outdoor_scenes,71,73,objects,Stimuli/Experimental_stims/outdoor_scenes/jeff-king-bJHWJeiHfHc-unsplash.jpg,Stimuli/Experimental_stims/objects/art-lasovsky-8XddFc6NkBY-unsplash.jpg,0,1,148,0,chosen,5,38,outdoor_scenes,objects,1500,0,7,2
67,44945,0,68,1,1,0,no_gain6,gain2,I,L,3,17,outdoor_scenes,75,80,faces,Stimuli/Experimental_stims/outdoor_scenes/henry-be-NLF6hTe4PAg-unsplash.jpg,Stimuli/Experimental_stims/faces/good-faces-xmSWVeGEnJw-unsplash.jpg,0,0,31,1,chosen,17,3,faces,outdoor_scenes,1100,0,7,2
68,44945,0,69,1,1,0,no_gain6,gain4,I,G,26,40,body_parts,71,72,objects,Stimuli/Experimental_stims/body_parts/engin-akyurt-x_3gyC42btc-unsplash.jpg,Stimuli/Experimental_stims/objects/fabian-blank-pElSkGRA2NU-unsplash.jpg,0,0,13,1,unchosen,40,26,objects,body_parts,4300,1,7,2
69,44945,0,70,1,1,0,no_gain2,gain3,C,J,8,38,outdoor_scenes,88,73,objects,Stimuli/Experimental_stims/outdoor_scenes/samsommer-vddccTqwal8-unsplash.jpg,Stimuli/Experimental_stims/objects/art-lasovsky-8XddFc6NkBY-unsplash.jpg,0,0,129,1,chosen,38,8,objects,outdoor_scenes,1100,0,7,2
70,44945,0,71,1,1,1,gain2,no_gain5,L,E,17,36,faces,80,76,objects,Stimuli/Experimental_stims/faces/good-faces-xmSWVeGEnJw-unsplash.jpg,Stimuli/Experimental_stims/objects/alexander-andrews-JYGnB9gTCls-unsplash.jpg,0,0,153,0,chosen,36,17,objects,faces,1300,0,7,2
71,44945,0,72,1,1,1,gain2,no_gain6,L,I,34,26,body_parts,75,71,body_parts,Stimuli/Experimental_stims/body_parts/wagner-santos-mBWMvIuVnso-unsplash.jpg,Stimuli/Experimental_stims/body_parts/engin-akyurt-x_3gyC42btc-unsplash.jpg,0,0,5,0,unchosen,26,34,body_parts,body_parts,2000,0,7,2
72,44945,0,73,1,1,0,no_gain4,gain3,H,J,10,19,outdoor_scenes,79,72,faces,Stimuli/Experimental_stims/outdoor_scenes/shannon-kunkle-dM8INmkyDas-unsplash.jpg,Stimuli/Experimental_stims/faces/joel-mott-LaK153ghdig-unsplash.jpg,0,0,172,1,unchosen,19,10,faces,outdoor_scenes,1900,0,7,2
73,44945,0,74,1,1,0,no_gain4,gain5,H,D,15,16,faces,84,71,faces,Stimuli/Experimental_stims/faces/erik-lucatero-d2MSDujJl2g-unsplash.jpg,Stimuli/Experimental_stims/faces/freddy-kearney-o-ioeoATbIM-unsplash.jpg,0,0,125,1,chosen,16,15,faces,faces,2200,0,7,2
74,44945,0,75,1,1,1,gain4,no_gain6,G,I,6,3,outdoor_scenes,72,75,outdoor_scenes,Stimuli/Experimental_stims/outdoor_scenes/meng-ji-8BH_M-53CyA-unsplash.jpg,Stimuli/Experimental_stims/outdoor_scenes/henry-be-NLF6hTe4PAg-unsplash.jpg,0,1,189,1,chosen,6,3,outdoor_scenes,outdoor_scenes,1000,0,7,2
75,44945,0,76,1,1,1,gain4,no_gain5,G,E,40,28,objects,72,68,body_parts,Stimuli/Experimental_stims/objects/fabian-blank-pElSkGRA2NU-unsplash.jpg,Stimuli/Experimental_stims/body_parts/ira-vishnevskaya-8DQAvdCby1I-unsplash.jpg,0,0,192,0,unchosen,28,40,body_parts,objects,1100,0,7,2
76,44945,0,77,2,2,1,gain6,no_gain3,B,A,20,45,faces,81,77,objects,Stimuli/Experimental_stims/faces/justin-chen-J7Cf1Gch49E-unsplash.jpg,Stimuli/Experimental_stims/objects/leohoho-rngTKHXumy0-unsplash.jpg,0,1,1473,1,unchosen,20,45,faces,objects,3800,1,10,2
77,44945,0,78,2,2,1,gain6,no_gain4,B,H,2,15,outdoor_scenes,69,84,faces,Stimuli/Experimental_stims/outdoor_scenes/bruno-van-der-kraan-qez8mNJ3ilU-unsplash.jpg,Stimuli/Experimental_stims/faces/erik-lucatero-d2MSDujJl2g-unsplash.jpg,0,1,139,1,chosen,2,15,outdoor_scenes,faces,2000,0,10,2
78,44945,0,79,2,2,1,gain3,no_gain1,J,K,38,25,objects,73,75,body_parts,Stimuli/Experimental_stims/objects/art-lasovsky-8XddFc6NkBY-unsplash.jpg,Stimuli/Experimental_stims/body_parts/engin-akyurt-Q2rfH3GW39c-unsplash.jpg,0,1,187,1,chosen,38,25,objects,body_parts,3000,0,10,2
79,44945,0,80,2,2,1,gain4,no_gain3,G,A,40,45,objects,72,77,objects,Stimuli/Experimental_stims/objects/fabian-blank-pElSkGRA2NU-unsplash.jpg,Stimuli/Experimental_stims/objects/leohoho-rngTKHXumy0-unsplash.jpg,0,1,190,1,unchosen,40,45,objects,objects,1400,0,10,2
80,44945,0,81,2,2,1,gain6,no_gain6,B,I,2,3,outdoor_scenes,69,75,outdoor_scenes,Stimuli/Experimental_stims/outdoor_scenes/bruno-van-der-kraan-qez8mNJ3ilU-unsplash.jpg,Stimuli/Experimental_stims/outdoor_scenes/henry-be-NLF6hTe4PAg-unsplash.jpg,0,1,153,1,chosen,2,3,outdoor_scenes,outdoor_scenes,2900,0,10,2
81,44945,0,82,2,2,1,gain2,no_gain1,L,K,17,25,faces,80,75,body_parts,Stimuli/Experimental_stims/faces/good-faces-xmSWVeGEnJw-unsplash.jpg,Stimuli/Experimental_stims/body_parts/engin-akyurt-Q2rfH3GW39c-unsplash.jpg,0,1,25,1,chosen,17,25,faces,body_parts,2000,0,10,2
82,44945,0,83,2,2,0,no_gain1,gain3,K,J,43,19,objects,83,72,faces,Stimuli/Experimental_stims/objects/jonathan-greenaway-Y4hGgeiFn3s-unsplash.jpg,Stimuli/Experimental_stims/faces/joel-mott-LaK153ghdig-unsplash.jpg,0,0,155,1,unchosen,19,43,faces,objects,2700,0,10,2
83,44945,0,84,2,2,0,no_gain6,gain2,I,L,3,17,outdoor_scenes,75,80,faces,Stimuli/Experimental_stims/outdoor_scenes/henry-be-NLF6hTe4PAg-unsplash.jpg,Stimuli/Experimental_stims/faces/good-faces-xmSWVeGEnJw-unsplash.jpg,0,0,0,1,chosen,17,3,faces,outdoor_scenes,3600,1,10,2
84,44945,0,85,2,2,0,no_gain3,gain2,A,L,45,34,objects,77,75,body_parts,Stimuli/Experimental_stims/objects/leohoho-rngTKHXumy0-unsplash.jpg,Stimuli/Experimental_stims/body_parts/wagner-santos-mBWMvIuVnso-unsplash.jpg,0,1,154,0,unchosen,45,34,objects,body_parts,1300,0,10,2
85,44945,0,86,2,2,1,gain6,no_gain1,B,K,20,43,faces,81,83,objects,Stimuli/Experimental_stims/faces/justin-chen-J7Cf1Gch49E-unsplash.jpg,Stimuli/Experimental_stims/objects/jonathan-greenaway-Y4hGgeiFn3s-unsplash.jpg,0,0,109,0,unchosen,43,20,objects,faces,3000,0,10,2
86,44945,0,87,2,2,0,no_gain5,gain4,E,G,28,40,body_parts,68,72,objects,Stimuli/Experimental_stims/body_parts/ira-vishnevskaya-8DQAvdCby1I-unsplash.jpg,Stimuli/Experimental_stims/objects/fabian-blank-pElSkGRA2NU-unsplash.jpg,0,0,109,1,unchosen,40,28,objects,body_parts,2600,0,10,2
87,44945,0,88,2,2,0,no_gain2,gain3,C,J,8,38,outdoor_scenes,88,73,objects,Stimuli/Experimental_stims/outdoor_scenes/samsommer-vddccTqwal8-unsplash.jpg,Stimuli/Experimental_stims/objects/art-lasovsky-8XddFc6NkBY-unsplash.jpg,0,1,257,0,chosen,8,38,outdoor_scenes,objects,1100,0,10,2
88,44945,0,89,2,2,0,no_gain1,gain1,K,F,25,35,body_parts,75,61,body_parts,Stimuli/Experimental_stims/body_parts/engin-akyurt-Q2rfH3GW39c-unsplash.jpg,Stimuli/Experimental_stims/body_parts/wc-so-KH4AAPjb-tI-unsplash.jpg,0,0,8,1,chosen,35,25,body_parts,body_parts,1400,0,10,2
89,44945,0,90,2,2,0,no_gain5,gain2,E,L,28,34,body_parts,68,75,body_parts,Stimuli/Experimental_stims/body_parts/ira-vishnevskaya-8DQAvdCby1I-unsplash.jpg,Stimuli/Experimental_stims/body_parts/wagner-santos-mBWMvIuVnso-unsplash.jpg,0,0,46,1,unchosen,34,28,body_parts,body_parts,1100,0,10,2
90,44945,0,91,2,2,1,gain3,no_gain3,J,A,19,45,faces,72,77,objects,Stimuli/Experimental_stims/faces/joel-mott-LaK153ghdig-unsplash.jpg,Stimuli/Experimental_stims/objects/leohoho-rngTKHXumy0-unsplash.jpg,0,1,204,1,unchosen,19,45,faces,objects,2900,0,10,2
91,44945,0,92,2,2,1,gain5,no_gain4,D,H,16,15,faces,71,84,faces,Stimuli/Experimental_stims/faces/freddy-kearney-o-ioeoATbIM-unsplash.jpg,Stimuli/Experimental_stims/faces/erik-lucatero-d2MSDujJl2g-unsplash.jpg,0,0,61,0,chosen,15,16,faces,faces,1600,0,10,2
92,44945,0,93,2,2,1,gain2,no_gain6,L,I,34,26,body_parts,75,71,body_parts,Stimuli/Experimental_stims/body_parts/wagner-santos-mBWMvIuVnso-unsplash.jpg,Stimuli/Experimental_stims/body_parts/engin-akyurt-x_3gyC42btc-unsplash.jpg,0,0,585,0,unchosen,26,34,body_parts,body_parts,1500,0,10,2
93,44945,0,94,2,2,0,no_gain5,gain6,E,B,28,20,body_parts,68,81,faces,Stimuli/Experimental_stims/body_parts/ira-vishnevskaya-8DQAvdCby1I-unsplash.jpg,Stimuli/Experimental_stims/faces/justin-chen-J7Cf1Gch49E-unsplash.jpg,0,0,68,1,unchosen,20,28,faces,body_parts,3800,1,10,2
94,44945,0,95,2,2,0,no_gain6,gain4,I,G,3,6,outdoor_scenes,75,72,outdoor_scenes,Stimuli/Experimental_stims/outdoor_scenes/henry-be-NLF6hTe4PAg-unsplash.jpg,Stimuli/Experimental_stims/outdoor_scenes/meng-ji-8BH_M-53CyA-unsplash.jpg,0,0,150,1,chosen,6,3,outdoor_scenes,outdoor_scenes,1500,0,10,2
95,44945,0,96,2,2,1,gain5,no_gain2,D,C,42,32,objects,56,72,body_parts,Stimuli/Experimental_stims/objects/jess-bailey-nOeVi8DsN8U-unsplash.jpg,Stimuli/Experimental_stims/body_parts/towfiqu-barbhuiya-3AsiVDsZnHg-unsplash.jpg,0,1,74,1,unchosen,42,32,objects,body_parts,1000,0,10,2
96,44945,0,97,2,2,1,gain4,no_gain4,G,H,40,10,objects,72,79,outdoor_scenes,Stimuli/Experimental_stims/objects/fabian-blank-pElSkGRA2NU-unsplash.jpg,Stimuli/Experimental_stims/outdoor_scenes/shannon-kunkle-dM8INmkyDas-unsplash.jpg,0,0,72,0,unchosen,10,40,outdoor_scenes,objects,1600,0,10,2
97,44945,0,98,2,2,0,no_gain5,gain3,E,J,36,38,objects,76,73,objects,Stimuli/Experimental_stims/objects/alexander-andrews-JYGnB9gTCls-unsplash.jpg,Stimuli/Experimental_stims/objects/art-lasovsky-8XddFc6NkBY-unsplash.jpg,0,0,103,1,chosen,38,36,objects,objects,1300,0,10,2
98,44945,0,99,2,2,1,gain2,no_gain4,L,H,17,15,faces,80,84,faces,Stimuli/Experimental_stims/faces/good-faces-xmSWVeGEnJw-unsplash.jpg,Stimuli/Experimental_stims/faces/erik-lucatero-d2MSDujJl2g-unsplash.jpg,0,1,112,1,chosen,17,15,faces,faces,3500,1,10,2
99,44945,0,100,2,2,0,no_gain2,gain4,C,G,8,6,outdoor_scenes,88,72,outdoor_scenes,Stimuli/Experimental_stims/outdoor_scenes/samsommer-vddccTqwal8-unsplash.jpg,Stimuli/Experimental_stims/outdoor_scenes/meng-ji-8BH_M-53CyA-unsplash.jpg,0,0,289,1,chosen,6,8,outdoor_scenes,outdoor_scenes,2500,0,10,2
100,44945,0,101,2,2,1,gain5,no_gain6,D,I,42,26,objects,56,71,body_parts,Stimuli/Experimental_stims/objects/jess-bailey-nOeVi8DsN8U-unsplash.jpg,Stimuli/Experimental_stims/body_parts/engin-akyurt-x_3gyC42btc-unsplash.jpg,0,1,185,1,unchosen,42,26,objects,body_parts,1100,0,10,2
101,44945,0,102,2,2,1,gain3,no_gain3,J,A,38,5,objects,73,71,outdoor_scenes,Stimuli/Experimental_stims/objects/art-lasovsky-8XddFc6NkBY-unsplash.jpg,Stimuli/Experimental_stims/outdoor_scenes/jeff-king-bJHWJeiHfHc-unsplash.jpg,0,0,134,0,chosen,5,38,outdoor_scenes,objects,1000,0,10,2
102,44945,0,103,2,2,0,no_gain2,gain1,C,F,32,12,body_parts,72,84,faces,Stimuli/Experimental_stims/body_parts/towfiqu-barbhuiya-3AsiVDsZnHg-unsplash.jpg,Stimuli/Experimental_stims/faces/aiony-haust-jmATI5Q_YgY-unsplash.jpg,0,0,190,1,unchosen,12,32,faces,body_parts,2100,0,10,2
103,44945,0,104,2,2,1,gain4,no_gain4,G,H,6,15,outdoor_scenes,72,84,faces,Stimuli/Experimental_stims/outdoor_scenes/meng-ji-8BH_M-53CyA-unsplash.jpg,Stimuli/Experimental_stims/faces/erik-lucatero-d2MSDujJl2g-unsplash.jpg,0,0,16,0,chosen,15,6,faces,outdoor_scenes,1300,0,10,2
104,44945,0,105,2,2,0,no_gain2,gain4,C,G,32,40,body_parts,72,72,objects,Stimuli/Experimental_stims/body_parts/towfiqu-barbhuiya-3AsiVDsZnHg-unsplash.jpg,Stimuli/Experimental_stims/objects/fabian-blank-pElSkGRA2NU-unsplash.jpg,0,1,16,0,unchosen,32,40,body_parts,objects,2000,0,10,2
105,44945,0,106,2,2,1,gain5,no_gain1,D,K,16,25,faces,71,75,body_parts,Stimuli/Experimental_stims/faces/freddy-kearney-o-ioeoATbIM-unsplash.jpg,Stimuli/Experimental_stims/body_parts/engin-akyurt-Q2rfH3GW39c-unsplash.jpg,0,0,155,0,chosen,25,16,body_parts,faces,3100,1,10,2
106,44945,0,107,2,2,0,no_gain6,gain3,I,J,26,19,body_parts,71,72,faces,Stimuli/Experimental_stims/body_parts/engin-akyurt-x_3gyC42btc-unsplash.jpg,Stimuli/Experimental_stims/faces/joel-mott-LaK153ghdig-unsplash.jpg,0,0,53,1,unchosen,19,26,faces,body_parts,1400,0,10,2
107,44945,0,108,2,2,1,gain6,no_gain1,B,K,2,25,outdoor_scenes,69,75,body_parts,Stimuli/Experimental_stims/outdoor_scenes/bruno-van-der-kraan-qez8mNJ3ilU-unsplash.jpg,Stimuli/Experimental_stims/body_parts/engin-akyurt-Q2rfH3GW39c-unsplash.jpg,0,1,185,1,chosen,2,25,outdoor_scenes,body_parts,1300,0,10,2
108,44945,0,109,2,2,0,no_gain2,gain5,C,D,8,16,outdoor_scenes,88,71,faces,Stimuli/Experimental_stims/outdoor_scenes/samsommer-vddccTqwal8-unsplash.jpg,Stimuli/Experimental_stims/faces/freddy-kearney-o-ioeoATbIM-unsplash.jpg,0,0,46,1,chosen,16,8,faces,outdoor_scenes,1300,0,10,2
109,44945,0,110,2,2,0,no_gain5,gain5,E,D,28,42,body_parts,68,56,objects,Stimuli/Experimental_stims/body_parts/ira-vishnevskaya-8DQAvdCby1I-unsplash.jpg,Stimuli/Experimental_stims/objects/jess-bailey-nOeVi8DsN8U-unsplash.jpg,0,1,7,0,unchosen,28,42,body_parts,objects,1200,0,10,2
110,44945,0,111,2,2,0,no_gain5,gain1,E,F,28,12,body_parts,68,84,faces,Stimuli/Experimental_stims/body_parts/ira-vishnevskaya-8DQAvdCby1I-unsplash.jpg,Stimuli/Experimental_stims/faces/aiony-haust-jmATI5Q_YgY-unsplash.jpg,0,1,37,0,unchosen,28,12,body_parts,faces,1300,0,10,2
111,44945,0,112,2,2,0,no_gain6,gain5,I,D,3,16,outdoor_scenes,75,71,faces,Stimuli/Experimental_stims/outdoor_scenes/henry-be-NLF6hTe4PAg-unsplash.jpg,Stimuli/Experimental_stims/faces/freddy-kearney-o-ioeoATbIM-unsplash.jpg,0,1,7,0,chosen,3,16,outdoor_scenes,faces,1100,0,10,2
112,44945,0,113,2,2,1,gain2,no_gain2,L,C,17,8,faces,80,88,outdoor_scenes,Stimuli/Experimental_stims/faces/good-faces-xmSWVeGEnJw-unsplash.jpg,Stimuli/Experimental_stims/outdoor_scenes/samsommer-vddccTqwal8-unsplash.jpg,0,0,44,0,chosen,8,17,outdoor_scenes,faces,1900,0,10,2
113,44945,0,114,2,2,1,gain1,no_gain6,F,I,12,26,faces,84,71,body_parts,Stimuli/Experimental_stims/faces/aiony-haust-jmATI5Q_YgY-unsplash.jpg,Stimuli/Experimental_stims/body_parts/engin-akyurt-x_3gyC42btc-unsplash.jpg,0,0,141,0,unchosen,26,12,body_parts,faces,2100,0,10,2
114,44945,0,115,2,2,0,no_gain3,gain5,A,D,45,42,objects,77,56,objects,Stimuli/Experimental_stims/objects/leohoho-rngTKHXumy0-unsplash.jpg,Stimuli/Experimental_stims/objects/jess-bailey-nOeVi8DsN8U-unsplash.jpg,0,0,3,1,unchosen,42,45,objects,objects,1400,0,10,2
115,44945,0,116,2,2,1,gain3,no_gain6,J,I,38,3,objects,73,75,outdoor_scenes,Stimuli/Experimental_stims/objects/art-lasovsky-8XddFc6NkBY-unsplash.jpg,Stimuli/Experimental_stims/outdoor_scenes/henry-be-NLF6hTe4PAg-unsplash.jpg,0,0,43,0,chosen,3,38,outdoor_scenes,objects,1100,0,10,2
116,44945,0,117,2,2,0,no_gain5,gain5,E,D,36,16,objects,76,71,faces,Stimuli/Experimental_stims/objects/alexander-andrews-JYGnB9gTCls-unsplash.jpg,Stimuli/Experimental_stims/faces/freddy-kearney-o-ioeoATbIM-unsplash.jpg,0,0,155,1,chosen,16,36,faces,objects,1600,0,10,2
117,44945,0,118,2,2,1,gain3,no_gain4,J,H,19,10,faces,72,79,outdoor_scenes,Stimuli/Experimental_stims/faces/joel-mott-LaK153ghdig-unsplash.jpg,Stimuli/Experimental_stims/outdoor_scenes/shannon-kunkle-dM8INmkyDas-unsplash.jpg,0,0,52,0,unchosen,10,19,outdoor_scenes,faces,1300,0,10,2
118,44945,0,119,2,2,1,gain4,no_gain1,G,K,6,25,outdoor_scenes,72,75,body_parts,Stimuli/Experimental_stims/outdoor_scenes/meng-ji-8BH_M-53CyA-unsplash.jpg,Stimuli/Experimental_stims/body_parts/engin-akyurt-Q2rfH3GW39c-unsplash.jpg,0,0,191,0,chosen,25,6,body_parts,outdoor_scenes,2500,0,10,2
119,44945,0,120,2,2,0,no_gain4,gain2,H,L,10,34,outdoor_scenes,79,75,body_parts,Stimuli/Experimental_stims/outdoor_scenes/shannon-kunkle-dM8INmkyDas-unsplash.jpg,Stimuli/Experimental_stims/body_parts/wagner-santos-mBWMvIuVnso-unsplash.jpg,0,0,154,1,unchosen,34,10,body_parts,outdoor_scenes,4300,1,10,2
120,44945,0,121,2,2,0,no_gain3,gain4,A,G,5,6,outdoor_scenes,71,72,outdoor_scenes,Stimuli/Experimental_stims/outdoor_scenes/jeff-king-bJHWJeiHfHc-unsplash.jpg,Stimuli/Experimental_stims/outdoor_scenes/meng-ji-8BH_M-53CyA-unsplash.jpg,0,0,2,1,chosen,6,5,outdoor_scenes,outdoor_scenes,2400,0,10,2
121,44945,0,122,2,2,1,gain1,no_gain4,F,H,12,10,faces,84,79,outdoor_scenes,Stimuli/Experimental_stims/faces/aiony-haust-jmATI5Q_YgY-unsplash.jpg,Stimuli/Experimental_stims/outdoor_scenes/shannon-kunkle-dM8INmkyDas-unsplash.jpg,0,0,51,0,unchosen,10,12,outdoor_scenes,faces,1800,0,10,2
122,44945,0,123,2,2,1,gain6,no_gain3,B,A,2,5,outdoor_scenes,69,71,outdoor_scenes,Stimuli/Experimental_stims/outdoor_scenes/bruno-van-der-kraan-qez8mNJ3ilU-unsplash.jpg,Stimuli/Experimental_stims/outdoor_scenes/jeff-king-bJHWJeiHfHc-unsplash.jpg,0,0,175,0,chosen,5,2,outdoor_scenes,outdoor_scenes,1000,0,10,2
123,44945,0,124,2,2,1,gain5,no_gain1,D,K,42,43,objects,56,83,objects,Stimuli/Experimental_stims/objects/jess-bailey-nOeVi8DsN8U-unsplash.jpg,Stimuli/Experimental_stims/objects/jonathan-greenaway-Y4hGgeiFn3s-unsplash.jpg,0,1,96,1,unchosen,42,43,objects,objects,2000,0,10,2
124,44945,0,125,2,2,1,gain3,no_gain2,J,C,19,32,faces,72,72,body_parts,Stimuli/Experimental_stims/faces/joel-mott-LaK153ghdig-unsplash.jpg,Stimuli/Experimental_stims/body_parts/towfiqu-barbhuiya-3AsiVDsZnHg-unsplash.jpg,0,0,1,0,unchosen,32,19,body_parts,faces,2700,0,10,2
125,44945,0,126,2,2,0,no_gain2,gain2,C,L,32,34,body_parts,72,75,body_parts,Stimuli/Experimental_stims/body_parts/towfiqu-barbhuiya-3AsiVDsZnHg-unsplash.jpg,Stimuli/Experimental_stims/body_parts/wagner-santos-mBWMvIuVnso-unsplash.jpg,0,0,107,1,unchosen,34,32,body_parts,body_parts,2500,0,10,2
126,44945,0,127,2,2,0,no_gain4,gain1,H,F,15,35,faces,84,61,body_parts,Stimuli/Experimental_stims/faces/erik-lucatero-d2MSDujJl2g-unsplash.jpg,Stimuli/Experimental_stims/body_parts/wc-so-KH4AAPjb-tI-unsplash.jpg,0,0,4,1,chosen,35,15,body_parts,faces,1800,0,10,2
127,44945,0,128,2,2,1,gain4,no_gain6,G,I,40,26,objects,72,71,body_parts,Stimuli/Experimental_stims/objects/fabian-blank-pElSkGRA2NU-unsplash.jpg,Stimuli/Experimental_stims/body_parts/engin-akyurt-x_3gyC42btc-unsplash.jpg,0,0,0,0,unchosen,26,40,body_parts,objects,1200,0,10,2
128,44945,0,129,2,2,0,no_gain1,gain2,K,L,43,34,objects,83,75,body_parts,Stimuli/Experimental_stims/objects/jonathan-greenaway-Y4hGgeiFn3s-unsplash.jpg,Stimuli/Experimental_stims/body_parts/wagner-santos-mBWMvIuVnso-unsplash.jpg,0,0,0,1,unchosen,34,43,body_parts,objects,3800,1,10,2
129,44945,0,130,2,2,1,gain1,no_gain6,F,I,35,3,body_parts,61,75,outdoor_scenes,Stimuli/Experimental_stims/body_parts/wc-so-KH4AAPjb-tI-unsplash.jpg,Stimuli/Experimental_stims/outdoor_scenes/henry-be-NLF6hTe4PAg-unsplash.jpg,0,0,1276,0,chosen,3,35,outdoor_scenes,body_parts,1300,0,10,2
130,44945,0,131,2,2,1,gain6,no_gain4,B,H,20,10,faces,81,79,outdoor_scenes,Stimuli/Experimental_stims/faces/justin-chen-J7Cf1Gch49E-unsplash.jpg,Stimuli/Experimental_stims/outdoor_scenes/shannon-kunkle-dM8INmkyDas-unsplash.jpg,0,1,133,1,unchosen,20,10,faces,outdoor_scenes,2900,0,10,2
131,44945,0,132,2,2,0,no_gain5,gain2,E,L,36,17,objects,76,80,faces,Stimuli/Experimental_stims/objects/alexander-andrews-JYGnB9gTCls-unsplash.jpg,Stimuli/Experimental_stims/faces/good-faces-xmSWVeGEnJw-unsplash.jpg,0,0,228,1,chosen,17,36,faces,objects,1200,0,10,2
132,44945,0,133,2,2,0,no_gain5,gain6,E,B,36,2,objects,76,69,outdoor_scenes,Stimuli/Experimental_stims/objects/alexander-andrews-JYGnB9gTCls-unsplash.jpg,Stimuli/Experimental_stims/outdoor_scenes/bruno-van-der-kraan-qez8mNJ3ilU-unsplash.jpg,0,1,62,0,chosen,36,2,objects,outdoor_scenes,1300,0,10,2
133,44945,0,134,2,2,0,no_gain2,gain6,C,B,32,20,body_parts,72,81,faces,Stimuli/Experimental_stims/body_parts/towfiqu-barbhuiya-3AsiVDsZnHg-unsplash.jpg,Stimuli/Experimental_stims/faces/justin-chen-J7Cf1Gch49E-unsplash.jpg,0,0,2,1,unchosen,20,32,faces,body_parts,2500,0,10,2
134,44945,0,135,2,2,1,gain5,no_gain3,D,A,16,5,faces,71,71,outdoor_scenes,Stimuli/Experimental_stims/faces/freddy-kearney-o-ioeoATbIM-unsplash.jpg,Stimuli/Experimental_stims/outdoor_scenes/jeff-king-bJHWJeiHfHc-unsplash.jpg,0,1,198,1,chosen,16,5,faces,outdoor_scenes,3000,0,10,2
135,44945,0,136,2,2,1,gain4,no_gain5,G,E,6,36,outdoor_scenes,72,76,objects,Stimuli/Experimental_stims/outdoor_scenes/meng-ji-8BH_M-53CyA-unsplash.jpg,Stimuli/Experimental_stims/objects/alexander-andrews-JYGnB9gTCls-unsplash.jpg,0,1,162,1,chosen,6,36,outdoor_scenes,objects,4200,1,10,2
136,44945,0,137,2,2,0,no_gain6,gain6,I,B,26,20,body_parts,71,81,faces,Stimuli/Experimental_stims/body_parts/engin-akyurt-x_3gyC42btc-unsplash.jpg,Stimuli/Experimental_stims/faces/justin-chen-J7Cf1Gch49E-unsplash.jpg,0,0,232,1,unchosen,20,26,faces,body_parts,1700,0,10,2
137,44945,0,138,2,2,0,no_gain3,gain1,A,F,5,35,outdoor_scenes,71,61,body_parts,Stimuli/Experimental_stims/outdoor_scenes/jeff-king-bJHWJeiHfHc-unsplash.jpg,Stimuli/Experimental_stims/body_parts/wc-so-KH4AAPjb-tI-unsplash.jpg,0,1,8,0,chosen,5,35,outdoor_scenes,body_parts,1300,0,10,2
138,44945,0,139,2,2,0,no_gain2,gain1,C,F,8,35,outdoor_scenes,88,61,body_parts,Stimuli/Experimental_stims/outdoor_scenes/samsommer-vddccTqwal8-unsplash.jpg,Stimuli/Experimental_stims/body_parts/wc-so-KH4AAPjb-tI-unsplash.jpg,0,1,117,0,chosen,8,35,outdoor_scenes,body_parts,1100,0,10,2
139,44945,0,140,2,2,0,no_gain2,gain6,C,B,8,2,outdoor_scenes,88,69,outdoor_scenes,Stimuli/Experimental_stims/outdoor_scenes/samsommer-vddccTqwal8-unsplash.jpg,Stimuli/Experimental_stims/outdoor_scenes/bruno-van-der-kraan-qez8mNJ3ilU-unsplash.jpg,0,0,45,1,chosen,2,8,outdoor_scenes,outdoor_scenes,1300,0,10,2
140,44945,0,141,2,2,1,gain5,no_gain4,D,H,42,10,objects,56,79,outdoor_scenes,Stimuli/Experimental_stims/objects/jess-bailey-nOeVi8DsN8U-unsplash.jpg,Stimuli/Experimental_stims/outdoor_scenes/shannon-kunkle-dM8INmkyDas-unsplash.jpg,0,1,194,1,unchosen,42,10,objects,outdoor_scenes,1500,0,10,2
141,44945,0,142,2,2,0,no_gain5,gain1,E,F,36,35,objects,76,61,body_parts,Stimuli/Experimental_stims/objects/alexander-andrews-JYGnB9gTCls-unsplash.jpg,Stimuli/Experimental_stims/body_parts/wc-so-KH4AAPjb-tI-unsplash.jpg,0,0,60,1,chosen,35,36,body_parts,objects,1800,0,10,2
142,44945,0,143,2,2,0,no_gain1,gain4,K,G,43,40,objects,83,72,objects,Stimuli/Experimental_stims/objects/jonathan-greenaway-Y4hGgeiFn3s-unsplash.jpg,Stimuli/Experimental_stims/objects/fabian-blank-pElSkGRA2NU-unsplash.jpg,0,0,33,1,unchosen,40,43,objects,objects,1400,0,10,2
143,44945,0,144,2,2,1,gain3,no_gain5,J,E,19,28,faces,72,68,body_parts,Stimuli/Experimental_stims/faces/joel-mott-LaK153ghdig-unsplash.jpg,Stimuli/Experimental_stims/body_parts/ira-vishnevskaya-8DQAvdCby1I-unsplash.jpg,0,0,182,0,unchosen,28,19,body_parts,faces,1400,0,10,2
144,44945,0,145,2,2,0,no_gain4,gain3,H,J,15,38,faces,84,73,objects,Stimuli/Experimental_stims/faces/erik-lucatero-d2MSDujJl2g-unsplash.jpg,Stimuli/Experimental_stims/objects/art-lasovsky-8XddFc6NkBY-unsplash.jpg,0,1,186,0,chosen,15,38,faces,objects,1600,0,10,2
145,44945,0,146,2,2,1,gain1,no_gain3,F,A,12,45,faces,84,77,objects,Stimuli/Experimental_stims/faces/aiony-haust-jmATI5Q_YgY-unsplash.jpg,Stimuli/Experimental_stims/objects/leohoho-rngTKHXumy0-unsplash.jpg,0,1,144,1,unchosen,12,45,faces,objects,2000,0,10,2
146,44945,0,147,2,2,0,no_gain1,gain1,K,F,43,12,objects,83,84,faces,Stimuli/Experimental_stims/objects/jonathan-greenaway-Y4hGgeiFn3s-unsplash.jpg,Stimuli/Experimental_stims/faces/aiony-haust-jmATI5Q_YgY-unsplash.jpg,0,1,32,0,unchosen,43,12,objects,faces,2500,0,10,2
147,44945,0,148,2,2,1,gain2,no_gain3,L,A,17,5,faces,80,71,outdoor_scenes,Stimuli/Experimental_stims/faces/good-faces-xmSWVeGEnJw-unsplash.jpg,Stimuli/Experimental_stims/outdoor_scenes/jeff-king-bJHWJeiHfHc-unsplash.jpg,0,1,1401,1,chosen,17,5,faces,outdoor_scenes,3300,1,10,2
148,44945,0,149,3,3,0,no_gain1,gain2,K,L,43,34,objects,83,75,body_parts,Stimuli/Experimental_stims/objects/jonathan-greenaway-Y4hGgeiFn3s-unsplash.jpg,Stimuli/Experimental_stims/body_parts/wagner-santos-mBWMvIuVnso-unsplash.jpg,1,NaN,,NaN,unchosen,NaN,NaN,NaN,NaN,2200,0,10,2
149,44945,0,150,3,3,1,gain2,no_gain4,L,H,34,10,body_parts,75,79,outdoor_scenes,Stimuli/Experimental_stims/body_parts/wagner-santos-mBWMvIuVnso-unsplash.jpg,Stimuli/Experimental_stims/outdoor_scenes/shannon-kunkle-dM8INmkyDas-unsplash.jpg,0,1,202,1,unchosen,34,10,body_parts,outdoor_scenes,1200,0,10,2
150,44945,0,151,3,3,0,no_gain5,gain1,E,F,28,12,body_parts,68,84,faces,Stimuli/Experimental_stims/body_parts/ira-vishnevskaya-8DQAvdCby1I-unsplash.jpg,Stimuli/Experimental_stims/faces/aiony-haust-jmATI5Q_YgY-unsplash.jpg,0,0,20,1,unchosen,12,28,faces,body_parts,1700,0,10,2
151,44945,0,152,3,3,0,no_gain6,gain4,I,G,3,6,outdoor_scenes,75,72,outdoor_scenes,Stimuli/Experimental_stims/outdoor_scenes/henry-be-NLF6hTe4PAg-unsplash.jpg,Stimuli/Experimental_stims/outdoor_scenes/meng-ji-8BH_M-53CyA-unsplash.jpg,0,0,165,1,chosen,6,3,outdoor_scenes,outdoor_scenes,1100,0,10,2
152,44945,0,153,3,3,0,no_gain1,gain3,K,J,25,38,body_parts,75,73,objects,Stimuli/Experimental_stims/body_parts/engin-akyurt-Q2rfH3GW39c-unsplash.jpg,Stimuli/Experimental_stims/objects/art-lasovsky-8XddFc6NkBY-unsplash.jpg,0,0,131,1,chosen,38,25,objects,body_parts,1000,0,10,2
153,44945,0,154,3,3,1,gain4,no_gain3,G,A,40,45,objects,72,77,objects,Stimuli/Experimental_stims/objects/fabian-blank-pElSkGRA2NU-unsplash.jpg,Stimuli/Experimental_stims/objects/leohoho-rngTKHXumy0-unsplash.jpg,0,1,90,1,unchosen,40,45,objects,objects,1900,0,10,2
154,44945,0,155,3,3,1,gain3,no_gain3,J,A,19,45,faces,72,77,objects,Stimuli/Experimental_stims/faces/joel-mott-LaK153ghdig-unsplash.jpg,Stimuli/Experimental_stims/objects/leohoho-rngTKHXumy0-unsplash.jpg,0,0,11,0,unchosen,45,19,objects,faces,4700,1,10,2
155,44945,0,156,3,3,1,gain5,no_gain5,D,E,16,36,faces,71,76,objects,Stimuli/Experimental_stims/faces/freddy-kearney-o-ioeoATbIM-unsplash.jpg,Stimuli/Experimental_stims/objects/alexander-andrews-JYGnB9gTCls-unsplash.jpg,0,1,215,1,chosen,16,36,faces,objects,2400,0,10,2
156,44945,0,157,3,3,1,gain6,no_gain3,B,A,20,45,faces,81,77,objects,Stimuli/Experimental_stims/faces/justin-chen-J7Cf1Gch49E-unsplash.jpg,Stimuli/Experimental_stims/objects/leohoho-rngTKHXumy0-unsplash.jpg,0,1,58,1,unchosen,20,45,faces,objects,1900,0,10,2
157,44945,0,158,3,3,1,gain1,no_gain4,F,H,35,15,body_parts,61,84,faces,Stimuli/Experimental_stims/body_parts/wc-so-KH4AAPjb-tI-unsplash.jpg,Stimuli/Experimental_stims/faces/erik-lucatero-d2MSDujJl2g-unsplash.jpg,0,0,35,0,chosen,15,35,faces,body_parts,1000,0,10,2
158,44945,0,159,3,3,0,no_gain2,gain6,C,B,8,2,outdoor_scenes,88,69,outdoor_scenes,Stimuli/Experimental_stims/outdoor_scenes/samsommer-vddccTqwal8-unsplash.jpg,Stimuli/Experimental_stims/outdoor_scenes/bruno-van-der-kraan-qez8mNJ3ilU-unsplash.jpg,0,0,93,1,chosen,2,8,outdoor_scenes,outdoor_scenes,1800,0,10,2
159,44945,0,160,3,3,1,gain4,no_gain4,G,H,40,10,objects,72,79,outdoor_scenes,Stimuli/Experimental_stims/objects/fabian-blank-pElSkGRA2NU-unsplash.jpg,Stimuli/Experimental_stims/outdoor_scenes/shannon-kunkle-dM8INmkyDas-unsplash.jpg,0,1,142,1,unchosen,40,10,objects,outdoor_scenes,1800,0,10,2
160,44945,0,161,3,3,0,no_gain4,gain3,H,J,10,19,outdoor_scenes,79,72,faces,Stimuli/Experimental_stims/outdoor_scenes/shannon-kunkle-dM8INmkyDas-unsplash.jpg,Stimuli/Experimental_stims/faces/joel-mott-LaK153ghdig-unsplash.jpg,0,0,128,1,unchosen,19,10,faces,outdoor_scenes,4700,1,10,2
161,44945,0,162,3,3,0,no_gain1,gain4,K,G,43,40,objects,83,72,objects,Stimuli/Experimental_stims/objects/jonathan-greenaway-Y4hGgeiFn3s-unsplash.jpg,Stimuli/Experimental_stims/objects/fabian-blank-pElSkGRA2NU-unsplash.jpg,0,0,23,1,unchosen,40,43,objects,objects,1300,0,10,2
162,44945,0,163,3,3,1,gain2,no_gain5,L,E,17,36,faces,80,76,objects,Stimuli/Experimental_stims/faces/good-faces-xmSWVeGEnJw-unsplash.jpg,Stimuli/Experimental_stims/objects/alexander-andrews-JYGnB9gTCls-unsplash.jpg,0,1,50,1,chosen,17,36,faces,objects,1200,0,10,2
163,44945,0,164,3,3,0,no_gain3,gain4,A,G,5,6,outdoor_scenes,71,72,outdoor_scenes,Stimuli/Experimental_stims/outdoor_scenes/jeff-king-bJHWJeiHfHc-unsplash.jpg,Stimuli/Experimental_stims/outdoor_scenes/meng-ji-8BH_M-53CyA-unsplash.jpg,0,0,143,1,chosen,6,5,outdoor_scenes,outdoor_scenes,1600,0,10,2
164,44945,0,165,3,3,0,no_gain2,gain5,C,D,32,42,body_parts,72,56,objects,Stimuli/Experimental_stims/body_parts/towfiqu-barbhuiya-3AsiVDsZnHg-unsplash.jpg,Stimuli/Experimental_stims/objects/jess-bailey-nOeVi8DsN8U-unsplash.jpg,0,1,123,0,unchosen,32,42,body_parts,objects,1200,0,10,2
165,44945,0,166,3,3,1,gain6,no_gain5,B,E,20,28,faces,81,68,body_parts,Stimuli/Experimental_stims/faces/justin-chen-J7Cf1Gch49E-unsplash.jpg,Stimuli/Experimental_stims/body_parts/ira-vishnevskaya-8DQAvdCby1I-unsplash.jpg,0,1,3,1,unchosen,20,28,faces,body_parts,1100,0,10,2
166,44945,0,167,3,3,0,no_gain6,gain3,I,J,3,38,outdoor_scenes,75,73,objects,Stimuli/Experimental_stims/outdoor_scenes/henry-be-NLF6hTe4PAg-unsplash.jpg,Stimuli/Experimental_stims/objects/art-lasovsky-8XddFc6NkBY-unsplash.jpg,0,0,111,1,chosen,38,3,objects,outdoor_scenes,3100,1,10,2
167,44945,0,168,3,3,0,no_gain5,gain3,E,J,28,19,body_parts,68,72,faces,Stimuli/Experimental_stims/body_parts/ira-vishnevskaya-8DQAvdCby1I-unsplash.jpg,Stimuli/Experimental_stims/faces/joel-mott-LaK153ghdig-unsplash.jpg,0,0,124,1,unchosen,19,28,faces,body_parts,1500,0,10,2
168,44945,0,169,3,3,0,no_gain4,gain3,H,J,15,38,faces,84,73,objects,Stimuli/Experimental_stims/faces/erik-lucatero-d2MSDujJl2g-unsplash.jpg,Stimuli/Experimental_stims/objects/art-lasovsky-8XddFc6NkBY-unsplash.jpg,0,0,318,1,chosen,38,15,objects,faces,1000,0,10,2
169,44945,0,170,3,3,0,no_gain5,gain2,E,L,28,34,body_parts,68,75,body_parts,Stimuli/Experimental_stims/body_parts/ira-vishnevskaya-8DQAvdCby1I-unsplash.jpg,Stimuli/Experimental_stims/body_parts/wagner-santos-mBWMvIuVnso-unsplash.jpg,0,1,79,0,unchosen,28,34,body_parts,body_parts,1500,0,10,2
170,44945,0,171,3,3,0,no_gain3,gain2,A,L,5,17,outdoor_scenes,71,80,faces,Stimuli/Experimental_stims/outdoor_scenes/jeff-king-bJHWJeiHfHc-unsplash.jpg,Stimuli/Experimental_stims/faces/good-faces-xmSWVeGEnJw-unsplash.jpg,0,1,59,0,chosen,5,17,outdoor_scenes,faces,1400,0,10,2
171,44945,0,172,3,3,1,gain1,no_gain2,F,C,35,8,body_parts,61,88,outdoor_scenes,Stimuli/Experimental_stims/body_parts/wc-so-KH4AAPjb-tI-unsplash.jpg,Stimuli/Experimental_stims/outdoor_scenes/samsommer-vddccTqwal8-unsplash.jpg,0,0,264,0,chosen,8,35,outdoor_scenes,body_parts,3500,1,10,2
172,44945,0,173,3,3,0,no_gain4,gain2,H,L,15,17,faces,84,80,faces,Stimuli/Experimental_stims/faces/erik-lucatero-d2MSDujJl2g-unsplash.jpg,Stimuli/Experimental_stims/faces/good-faces-xmSWVeGEnJw-unsplash.jpg,0,0,248,1,chosen,17,15,faces,faces,1600,0,10,2
173,44945,0,174,3,3,0,no_gain4,gain5,H,D,10,42,outdoor_scenes,79,56,objects,Stimuli/Experimental_stims/outdoor_scenes/shannon-kunkle-dM8INmkyDas-unsplash.jpg,Stimuli/Experimental_stims/objects/jess-bailey-nOeVi8DsN8U-unsplash.jpg,0,1,79,0,unchosen,10,42,outdoor_scenes,objects,2200,0,10,2
174,44945,0,175,3,3,0,no_gain3,gain2,A,L,45,34,objects,77,75,body_parts,Stimuli/Experimental_stims/objects/leohoho-rngTKHXumy0-unsplash.jpg,Stimuli/Experimental_stims/body_parts/wagner-santos-mBWMvIuVnso-unsplash.jpg,0,0,18,1,unchosen,34,45,body_parts,objects,1200,0,10,2
175,44945,0,176,3,3,1,gain2,no_gain2,L,C,34,32,body_parts,75,72,body_parts,Stimuli/Experimental_stims/body_parts/wagner-santos-mBWMvIuVnso-unsplash.jpg,Stimuli/Experimental_stims/body_parts/towfiqu-barbhuiya-3AsiVDsZnHg-unsplash.jpg,0,1,171,1,unchosen,34,32,body_parts,body_parts,1900,0,10,2
176,44945,0,177,3,3,0,no_gain6,gain5,I,D,3,16,outdoor_scenes,75,71,faces,Stimuli/Experimental_stims/outdoor_scenes/henry-be-NLF6hTe4PAg-unsplash.jpg,Stimuli/Experimental_stims/faces/freddy-kearney-o-ioeoATbIM-unsplash.jpg,0,0,69,1,chosen,16,3,faces,outdoor_scenes,2000,0,10,2
177,44945,0,178,3,3,1,gain6,no_gain1,B,K,2,25,outdoor_scenes,69,75,body_parts,Stimuli/Experimental_stims/outdoor_scenes/bruno-van-der-kraan-qez8mNJ3ilU-unsplash.jpg,Stimuli/Experimental_stims/body_parts/engin-akyurt-Q2rfH3GW39c-unsplash.jpg,0,0,72,0,chosen,25,2,body_parts,outdoor_scenes,1800,0,10,2
178,44945,0,179,3,3,0,no_gain1,gain2,K,L,25,17,body_parts,75,80,faces,Stimuli/Experimental_stims/body_parts/engin-akyurt-Q2rfH3GW39c-unsplash.jpg,Stimuli/Experimental_stims/faces/good-faces-xmSWVeGEnJw-unsplash.jpg,0,1,175,0,chosen,25,17,body_parts,faces,2200,0,10,2
179,44945,0,180,3,3,0,no_gain2,gain3,C,J,32,19,body_parts,72,72,faces,Stimuli/Experimental_stims/body_parts/towfiqu-barbhuiya-3AsiVDsZnHg-unsplash.jpg,Stimuli/Experimental_stims/faces/joel-mott-LaK153ghdig-unsplash.jpg,0,1,174,0,unchosen,32,19,body_parts,faces,2300,0,10,2
180,44945,0,181,3,3,1,gain6,no_gain3,B,A,2,5,outdoor_scenes,69,71,outdoor_scenes,Stimuli/Experimental_stims/outdoor_scenes/bruno-van-der-kraan-qez8mNJ3ilU-unsplash.jpg,Stimuli/Experimental_stims/outdoor_scenes/jeff-king-bJHWJeiHfHc-unsplash.jpg,0,1,124,1,chosen,2,5,outdoor_scenes,outdoor_scenes,4300,1,10,2
181,44945,0,182,3,3,1,gain5,no_gain3,D,A,16,5,faces,71,71,outdoor_scenes,Stimuli/Experimental_stims/faces/freddy-kearney-o-ioeoATbIM-unsplash.jpg,Stimuli/Experimental_stims/outdoor_scenes/jeff-king-bJHWJeiHfHc-unsplash.jpg,0,1,3,1,chosen,16,5,faces,outdoor_scenes,1600,0,10,2
182,44945,0,183,3,3,0,no_gain2,gain4,C,G,32,40,body_parts,72,72,objects,Stimuli/Experimental_stims/body_parts/towfiqu-barbhuiya-3AsiVDsZnHg-unsplash.jpg,Stimuli/Experimental_stims/objects/fabian-blank-pElSkGRA2NU-unsplash.jpg,0,1,95,0,unchosen,32,40,body_parts,objects,1600,0,10,2
183,44945,0,184,3,3,1,gain3,no_gain1,J,K,19,43,faces,72,83,objects,Stimuli/Experimental_stims/faces/joel-mott-LaK153ghdig-unsplash.jpg,Stimuli/Experimental_stims/objects/jonathan-greenaway-Y4hGgeiFn3s-unsplash.jpg,0,0,15,0,unchosen,43,19,objects,faces,1100,0,10,2
184,44945,0,185,3,3,1,gain6,no_gain6,B,I,2,3,outdoor_scenes,69,75,outdoor_scenes,Stimuli/Experimental_stims/outdoor_scenes/bruno-van-der-kraan-qez8mNJ3ilU-unsplash.jpg,Stimuli/Experimental_stims/outdoor_scenes/henry-be-NLF6hTe4PAg-unsplash.jpg,0,0,95,0,chosen,3,2,outdoor_scenes,outdoor_scenes,1000,0,10,2
185,44945,0,186,3,3,0,no_gain1,gain5,K,D,25,16,body_parts,75,71,faces,Stimuli/Experimental_stims/body_parts/engin-akyurt-Q2rfH3GW39c-unsplash.jpg,Stimuli/Experimental_stims/faces/freddy-kearney-o-ioeoATbIM-unsplash.jpg,0,0,154,1,chosen,16,25,faces,body_parts,1000,0,10,2
186,44945,0,187,3,3,0,no_gain1,gain5,K,D,43,42,objects,83,56,objects,Stimuli/Experimental_stims/objects/jonathan-greenaway-Y4hGgeiFn3s-unsplash.jpg,Stimuli/Experimental_stims/objects/jess-bailey-nOeVi8DsN8U-unsplash.jpg,0,0,111,1,unchosen,42,43,objects,objects,3000,1,10,2
187,44945,0,188,3,3,1,gain4,no_gain1,G,K,6,25,outdoor_scenes,72,75,body_parts,Stimuli/Experimental_stims/outdoor_scenes/meng-ji-8BH_M-53CyA-unsplash.jpg,Stimuli/Experimental_stims/body_parts/engin-akyurt-Q2rfH3GW39c-unsplash.jpg,0,0,206,0,chosen,25,6,body_parts,outdoor_scenes,1000,0,10,2
188,44945,0,189,3,3,1,gain3,no_gain3,J,A,38,5,objects,73,71,outdoor_scenes,Stimuli/Experimental_stims/objects/art-lasovsky-8XddFc6NkBY-unsplash.jpg,Stimuli/Experimental_stims/outdoor_scenes/jeff-king-bJHWJeiHfHc-unsplash.jpg,0,0,79,0,chosen,5,38,outdoor_scenes,objects,1600,0,10,2
189,44945,0,190,3,3,0,no_gain2,gain5,C,D,8,16,outdoor_scenes,88,71,faces,Stimuli/Experimental_stims/outdoor_scenes/samsommer-vddccTqwal8-unsplash.jpg,Stimuli/Experimental_stims/faces/freddy-kearney-o-ioeoATbIM-unsplash.jpg,0,0,122,1,chosen,16,8,faces,outdoor_scenes,1500,0,10,2
190,44945,0,191,3,3,0,no_gain1,gain6,K,B,43,20,objects,83,81,faces,Stimuli/Experimental_stims/objects/jonathan-greenaway-Y4hGgeiFn3s-unsplash.jpg,Stimuli/Experimental_stims/faces/justin-chen-J7Cf1Gch49E-unsplash.jpg,0,1,15,0,unchosen,43,20,objects,faces,1700,0,10,2
191,44945,0,192,3,3,1,gain5,no_gain6,D,I,42,26,objects,56,71,body_parts,Stimuli/Experimental_stims/objects/jess-bailey-nOeVi8DsN8U-unsplash.jpg,Stimuli/Experimental_stims/body_parts/engin-akyurt-x_3gyC42btc-unsplash.jpg,0,1,110,1,unchosen,42,26,objects,body_parts,1300,0,10,2
192,44945,0,193,3,3,0,no_gain5,gain4,E,G,28,40,body_parts,68,72,objects,Stimuli/Experimental_stims/body_parts/ira-vishnevskaya-8DQAvdCby1I-unsplash.jpg,Stimuli/Experimental_stims/objects/fabian-blank-pElSkGRA2NU-unsplash.jpg,0,0,41,1,unchosen,40,28,objects,body_parts,1300,0,10,2
193,44945,0,194,3,3,1,gain1,no_gain5,F,E,35,36,body_parts,61,76,objects,Stimuli/Experimental_stims/body_parts/wc-so-KH4AAPjb-tI-unsplash.jpg,Stimuli/Experimental_stims/objects/alexander-andrews-JYGnB9gTCls-unsplash.jpg,0,1,90,1,chosen,35,36,body_parts,objects,3600,1,10,2
194,44945,0,195,3,3,1,gain6,no_gain4,B,H,20,10,faces,81,79,outdoor_scenes,Stimuli/Experimental_stims/faces/justin-chen-J7Cf1Gch49E-unsplash.jpg,Stimuli/Experimental_stims/outdoor_scenes/shannon-kunkle-dM8INmkyDas-unsplash.jpg,0,1,248,1,unchosen,20,10,faces,outdoor_scenes,2100,0,10,2
195,44945,0,196,3,3,1,gain1,no_gain1,F,K,35,25,body_parts,61,75,body_parts,Stimuli/Experimental_stims/body_parts/wc-so-KH4AAPjb-tI-unsplash.jpg,Stimuli/Experimental_stims/body_parts/engin-akyurt-Q2rfH3GW39c-unsplash.jpg,0,0,205,0,chosen,25,35,body_parts,body_parts,1600,0,10,2
196,44945,0,197,3,3,1,gain4,no_gain6,G,I,40,26,objects,72,71,body_parts,Stimuli/Experimental_stims/objects/fabian-blank-pElSkGRA2NU-unsplash.jpg,Stimuli/Experimental_stims/body_parts/engin-akyurt-x_3gyC42btc-unsplash.jpg,0,1,100,1,unchosen,40,26,objects,body_parts,1800,0,10,2
197,44945,0,198,3,3,1,gain3,no_gain6,J,I,19,26,faces,72,71,body_parts,Stimuli/Experimental_stims/faces/joel-mott-LaK153ghdig-unsplash.jpg,Stimuli/Experimental_stims/body_parts/engin-akyurt-x_3gyC42btc-unsplash.jpg,0,1,2,1,unchosen,19,26,faces,body_parts,1600,0,10,2
198,44945,0,199,3,3,1,gain1,no_gain3,F,A,35,5,body_parts,61,71,outdoor_scenes,Stimuli/Experimental_stims/body_parts/wc-so-KH4AAPjb-tI-unsplash.jpg,Stimuli/Experimental_stims/outdoor_scenes/jeff-king-bJHWJeiHfHc-unsplash.jpg,0,0,112,0,chosen,5,35,outdoor_scenes,body_parts,3100,1,10,2
199,44945,0,200,3,3,0,no_gain5,gain4,E,G,36,6,objects,76,72,outdoor_scenes,Stimuli/Experimental_stims/objects/alexander-andrews-JYGnB9gTCls-unsplash.jpg,Stimuli/Experimental_stims/outdoor_scenes/meng-ji-8BH_M-53CyA-unsplash.jpg,0,1,2,0,chosen,36,6,objects,outdoor_scenes,2500,0,10,2
200,44945,0,201,3,3,0,no_gain1,gain1,K,F,43,12,objects,83,84,faces,Stimuli/Experimental_stims/objects/jonathan-greenaway-Y4hGgeiFn3s-unsplash.jpg,Stimuli/Experimental_stims/faces/aiony-haust-jmATI5Q_YgY-unsplash.jpg,0,1,134,0,unchosen,43,12,objects,faces,2000,0,10,2
201,44945,0,202,3,3,0,no_gain4,gain4,H,G,15,6,faces,84,72,outdoor_scenes,Stimuli/Experimental_stims/faces/erik-lucatero-d2MSDujJl2g-unsplash.jpg,Stimuli/Experimental_stims/outdoor_scenes/meng-ji-8BH_M-53CyA-unsplash.jpg,0,0,89,1,chosen,6,15,outdoor_scenes,faces,2100,0,10,2
202,44945,0,203,3,3,1,gain3,no_gain5,J,E,38,36,objects,73,76,objects,Stimuli/Experimental_stims/objects/art-lasovsky-8XddFc6NkBY-unsplash.jpg,Stimuli/Experimental_stims/objects/alexander-andrews-JYGnB9gTCls-unsplash.jpg,0,0,1,0,chosen,36,38,objects,objects,1200,0,10,2
203,44945,0,204,3,3,1,gain1,no_gain6,F,I,12,26,faces,84,71,body_parts,Stimuli/Experimental_stims/faces/aiony-haust-jmATI5Q_YgY-unsplash.jpg,Stimuli/Experimental_stims/body_parts/engin-akyurt-x_3gyC42btc-unsplash.jpg,0,0,112,0,unchosen,26,12,body_parts,faces,3300,1,10,2
204,44945,0,205,3,3,1,gain3,no_gain2,J,C,38,8,objects,73,88,outdoor_scenes,Stimuli/Experimental_stims/objects/art-lasovsky-8XddFc6NkBY-unsplash.jpg,Stimuli/Experimental_stims/outdoor_scenes/samsommer-vddccTqwal8-unsplash.jpg,0,0,67,0,chosen,8,38,outdoor_scenes,objects,2100,0,10,2
205,44945,0,206,3,3,0,no_gain4,gain5,H,D,15,16,faces,84,71,faces,Stimuli/Experimental_stims/faces/erik-lucatero-d2MSDujJl2g-unsplash.jpg,Stimuli/Experimental_stims/faces/freddy-kearney-o-ioeoATbIM-unsplash.jpg,0,0,1,1,chosen,16,15,faces,faces,2100,0,10,2
206,44945,0,207,3,3,1,gain2,no_gain6,L,I,17,3,faces,80,75,outdoor_scenes,Stimuli/Experimental_stims/faces/good-faces-xmSWVeGEnJw-unsplash.jpg,Stimuli/Experimental_stims/outdoor_scenes/henry-be-NLF6hTe4PAg-unsplash.jpg,0,0,139,0,chosen,3,17,outdoor_scenes,faces,2600,0,10,2
207,44945,0,208,3,3,1,gain1,no_gain2,F,C,12,32,faces,84,72,body_parts,Stimuli/Experimental_stims/faces/aiony-haust-jmATI5Q_YgY-unsplash.jpg,Stimuli/Experimental_stims/body_parts/towfiqu-barbhuiya-3AsiVDsZnHg-unsplash.jpg,0,0,335,0,unchosen,32,12,body_parts,faces,2800,0,10,2
208,44945,0,209,3,3,1,gain1,no_gain4,F,H,12,10,faces,84,79,outdoor_scenes,Stimuli/Experimental_stims/faces/aiony-haust-jmATI5Q_YgY-unsplash.jpg,Stimuli/Experimental_stims/outdoor_scenes/shannon-kunkle-dM8INmkyDas-unsplash.jpg,0,0,933,0,unchosen,10,12,outdoor_scenes,faces,2100,0,10,2
209,44945,0,210,3,3,0,no_gain6,gain1,I,F,3,35,outdoor_scenes,75,61,body_parts,Stimuli/Experimental_stims/outdoor_scenes/henry-be-NLF6hTe4PAg-unsplash.jpg,Stimuli/Experimental_stims/body_parts/wc-so-KH4AAPjb-tI-unsplash.jpg,0,0,140,1,chosen,35,3,body_parts,outdoor_scenes,1300,0,10,2
210,44945,0,211,3,3,0,no_gain5,gain6,E,B,36,2,objects,76,69,outdoor_scenes,Stimuli/Experimental_stims/objects/alexander-andrews-JYGnB9gTCls-unsplash.jpg,Stimuli/Experimental_stims/outdoor_scenes/bruno-van-der-kraan-qez8mNJ3ilU-unsplash.jpg,0,0,128,1,chosen,2,36,outdoor_scenes,objects,3900,1,10,2
211,44945,0,212,3,3,0,no_gain2,gain6,C,B,32,20,body_parts,72,81,faces,Stimuli/Experimental_stims/body_parts/towfiqu-barbhuiya-3AsiVDsZnHg-unsplash.jpg,Stimuli/Experimental_stims/faces/justin-chen-J7Cf1Gch49E-unsplash.jpg,0,0,28,1,unchosen,20,32,faces,body_parts,1600,0,10,2
212,44945,0,213,3,3,1,gain4,no_gain2,G,C,6,8,outdoor_scenes,72,88,outdoor_scenes,Stimuli/Experimental_stims/outdoor_scenes/meng-ji-8BH_M-53CyA-unsplash.jpg,Stimuli/Experimental_stims/outdoor_scenes/samsommer-vddccTqwal8-unsplash.jpg,0,0,132,0,chosen,8,6,outdoor_scenes,outdoor_scenes,1300,0,10,2
213,44945,0,214,3,3,0,no_gain3,gain5,A,D,45,42,objects,77,56,objects,Stimuli/Experimental_stims/objects/leohoho-rngTKHXumy0-unsplash.jpg,Stimuli/Experimental_stims/objects/jess-bailey-nOeVi8DsN8U-unsplash.jpg,0,0,16,1,unchosen,42,45,objects,objects,1700,0,10,2
214,44945,0,215,3,3,1,gain2,no_gain6,L,I,34,26,body_parts,75,71,body_parts,Stimuli/Experimental_stims/body_parts/wagner-santos-mBWMvIuVnso-unsplash.jpg,Stimuli/Experimental_stims/body_parts/engin-akyurt-x_3gyC42btc-unsplash.jpg,0,1,2,1,unchosen,34,26,body_parts,body_parts,1600,0,10,2
215,44945,0,216,3,3,0,no_gain4,gain6,H,B,15,2,faces,84,69,outdoor_scenes,Stimuli/Experimental_stims/faces/erik-lucatero-d2MSDujJl2g-unsplash.jpg,Stimuli/Experimental_stims/outdoor_scenes/bruno-van-der-kraan-qez8mNJ3ilU-unsplash.jpg,0,0,47,1,chosen,2,15,outdoor_scenes,faces,3600,1,10,2
216,44945,0,217,3,3,1,gain5,no_gain5,D,E,42,28,objects,56,68,body_parts,Stimuli/Experimental_stims/objects/jess-bailey-nOeVi8DsN8U-unsplash.jpg,Stimuli/Experimental_stims/body_parts/ira-vishnevskaya-8DQAvdCby1I-unsplash.jpg,0,0,811,0,unchosen,28,42,body_parts,objects,2700,0,10,2
217,44945,0,218,3,3,1,gain2,no_gain2,L,C,17,8,faces,80,88,outdoor_scenes,Stimuli/Experimental_stims/faces/good-faces-xmSWVeGEnJw-unsplash.jpg,Stimuli/Experimental_stims/outdoor_scenes/samsommer-vddccTqwal8-unsplash.jpg,0,1,1082,1,chosen,17,8,faces,outdoor_scenes,2800,0,10,2
218,44945,0,219,3,3,0,no_gain6,gain6,I,B,26,20,body_parts,71,81,faces,Stimuli/Experimental_stims/body_parts/engin-akyurt-x_3gyC42btc-unsplash.jpg,Stimuli/Experimental_stims/faces/justin-chen-J7Cf1Gch49E-unsplash.jpg,0,1,603,0,unchosen,26,20,body_parts,faces,2800,0,10,2
219,44945,0,220,3,3,1,gain1,no_gain3,F,A,12,45,faces,84,77,objects,Stimuli/Experimental_stims/faces/aiony-haust-jmATI5Q_YgY-unsplash.jpg,Stimuli/Experimental_stims/objects/leohoho-rngTKHXumy0-unsplash.jpg,0,1,52,1,unchosen,12,45,faces,objects,1100,0,10,2
220,44945,0,221,4,4,0,no_gain6,gain2,I,L,3,17,outdoor_scenes,75,80,faces,Stimuli/Experimental_stims/outdoor_scenes/henry-be-NLF6hTe4PAg-unsplash.jpg,Stimuli/Experimental_stims/faces/good-faces-xmSWVeGEnJw-unsplash.jpg,0,1,1403,0,chosen,3,17,outdoor_scenes,faces,4200,1,9,2
221,44945,0,222,4,4,1,gain4,no_gain2,G,C,40,32,objects,72,72,body_parts,Stimuli/Experimental_stims/objects/fabian-blank-pElSkGRA2NU-unsplash.jpg,Stimuli/Experimental_stims/body_parts/towfiqu-barbhuiya-3AsiVDsZnHg-unsplash.jpg,0,0,706,0,unchosen,32,40,body_parts,objects,2400,0,9,2
222,44945,0,223,4,4,1,gain2,no_gain1,L,K,17,25,faces,80,75,body_parts,Stimuli/Experimental_stims/faces/good-faces-xmSWVeGEnJw-unsplash.jpg,Stimuli/Experimental_stims/body_parts/engin-akyurt-Q2rfH3GW39c-unsplash.jpg,0,0,89,0,chosen,25,17,body_parts,faces,1200,0,9,2
223,44945,0,224,4,4,0,no_gain4,gain4,H,G,15,6,faces,84,72,outdoor_scenes,Stimuli/Experimental_stims/faces/erik-lucatero-d2MSDujJl2g-unsplash.jpg,Stimuli/Experimental_stims/outdoor_scenes/meng-ji-8BH_M-53CyA-unsplash.jpg,0,0,148,1,chosen,6,15,outdoor_scenes,faces,1400,0,9,2
224,44945,0,225,4,4,0,no_gain4,gain6,H,B,10,20,outdoor_scenes,79,81,faces,Stimuli/Experimental_stims/outdoor_scenes/shannon-kunkle-dM8INmkyDas-unsplash.jpg,Stimuli/Experimental_stims/faces/justin-chen-J7Cf1Gch49E-unsplash.jpg,0,0,148,1,unchosen,20,10,faces,outdoor_scenes,1800,0,9,2
225,44945,0,226,4,4,0,no_gain4,gain5,H,D,10,42,outdoor_scenes,79,56,objects,Stimuli/Experimental_stims/outdoor_scenes/shannon-kunkle-dM8INmkyDas-unsplash.jpg,Stimuli/Experimental_stims/objects/jess-bailey-nOeVi8DsN8U-unsplash.jpg,0,0,199,1,unchosen,42,10,objects,outdoor_scenes,2200,0,9,2
226,44945,0,227,4,4,1,gain4,no_gain1,G,K,6,25,outdoor_scenes,72,75,body_parts,Stimuli/Experimental_stims/outdoor_scenes/meng-ji-8BH_M-53CyA-unsplash.jpg,Stimuli/Experimental_stims/body_parts/engin-akyurt-Q2rfH3GW39c-unsplash.jpg,0,0,220,0,chosen,25,6,body_parts,outdoor_scenes,4000,1,9,2
227,44945,0,228,4,4,1,gain3,no_gain2,J,C,38,8,objects,73,88,outdoor_scenes,Stimuli/Experimental_stims/objects/art-lasovsky-8XddFc6NkBY-unsplash.jpg,Stimuli/Experimental_stims/outdoor_scenes/samsommer-vddccTqwal8-unsplash.jpg,0,0,18,0,chosen,8,38,outdoor_scenes,objects,1900,0,9,2
228,44945,0,229,4,4,0,no_gain5,gain4,E,G,36,6,objects,76,72,outdoor_scenes,Stimuli/Experimental_stims/objects/alexander-andrews-JYGnB9gTCls-unsplash.jpg,Stimuli/Experimental_stims/outdoor_scenes/meng-ji-8BH_M-53CyA-unsplash.jpg,0,0,159,1,chosen,6,36,outdoor_scenes,objects,1800,0,9,2
229,44945,0,230,4,4,0,no_gain4,gain3,H,J,10,19,outdoor_scenes,79,72,faces,Stimuli/Experimental_stims/outdoor_scenes/shannon-kunkle-dM8INmkyDas-unsplash.jpg,Stimuli/Experimental_stims/faces/joel-mott-LaK153ghdig-unsplash.jpg,0,1,290,0,unchosen,10,19,outdoor_scenes,faces,1200,0,9,2
230,44945,0,231,4,4,0,no_gain3,gain5,A,D,45,42,objects,77,56,objects,Stimuli/Experimental_stims/objects/leohoho-rngTKHXumy0-unsplash.jpg,Stimuli/Experimental_stims/objects/jess-bailey-nOeVi8DsN8U-unsplash.jpg,0,1,37,0,unchosen,45,42,objects,objects,1700,0,9,2
231,44945,0,232,4,4,0,no_gain2,gain5,C,D,32,42,body_parts,72,56,objects,Stimuli/Experimental_stims/body_parts/towfiqu-barbhuiya-3AsiVDsZnHg-unsplash.jpg,Stimuli/Experimental_stims/objects/jess-bailey-nOeVi8DsN8U-unsplash.jpg,0,1,35,0,unchosen,32,42,body_parts,objects,3500,1,9,2
232,44945,0,233,4,4,1,gain3,no_gain3,J,A,38,5,objects,73,71,outdoor_scenes,Stimuli/Experimental_stims/objects/art-lasovsky-8XddFc6NkBY-unsplash.jpg,Stimuli/Experimental_stims/outdoor_scenes/jeff-king-bJHWJeiHfHc-unsplash.jpg,0,0,158,0,chosen,5,38,outdoor_scenes,objects,1700,0,9,2
233,44945,0,234,4,4,1,gain2,no_gain2,L,C,34,32,body_parts,75,72,body_parts,Stimuli/Experimental_stims/body_parts/wagner-santos-mBWMvIuVnso-unsplash.jpg,Stimuli/Experimental_stims/body_parts/towfiqu-barbhuiya-3AsiVDsZnHg-unsplash.jpg,0,0,19,0,unchosen,32,34,body_parts,body_parts,2000,0,9,2
234,44945,0,235,4,4,0,no_gain6,gain5,I,D,26,42,body_parts,71,56,objects,Stimuli/Experimental_stims/body_parts/engin-akyurt-x_3gyC42btc-unsplash.jpg,Stimuli/Experimental_stims/objects/jess-bailey-nOeVi8DsN8U-unsplash.jpg,0,0,80,1,unchosen,42,26,objects,body_parts,1300,0,9,2
235,44945,0,236,4,4,1,gain6,no_gain1,B,K,2,25,outdoor_scenes,69,75,body_parts,Stimuli/Experimental_stims/outdoor_scenes/bruno-van-der-kraan-qez8mNJ3ilU-unsplash.jpg,Stimuli/Experimental_stims/body_parts/engin-akyurt-Q2rfH3GW39c-unsplash.jpg,0,0,5,0,chosen,25,2,body_parts,outdoor_scenes,1400,0,9,2
236,44945,0,237,4,4,1,gain1,no_gain4,F,H,12,10,faces,84,79,outdoor_scenes,Stimuli/Experimental_stims/faces/aiony-haust-jmATI5Q_YgY-unsplash.jpg,Stimuli/Experimental_stims/outdoor_scenes/shannon-kunkle-dM8INmkyDas-unsplash.jpg,0,1,24,1,unchosen,12,10,faces,outdoor_scenes,3600,1,9,2
237,44945,0,238,4,4,0,no_gain3,gain4,A,G,5,6,outdoor_scenes,71,72,outdoor_scenes,Stimuli/Experimental_stims/outdoor_scenes/jeff-king-bJHWJeiHfHc-unsplash.jpg,Stimuli/Experimental_stims/outdoor_scenes/meng-ji-8BH_M-53CyA-unsplash.jpg,0,0,329,1,chosen,6,5,outdoor_scenes,outdoor_scenes,2700,0,9,2
238,44945,0,239,4,4,0,no_gain5,gain1,E,F,28,12,body_parts,68,84,faces,Stimuli/Experimental_stims/body_parts/ira-vishnevskaya-8DQAvdCby1I-unsplash.jpg,Stimuli/Experimental_stims/faces/aiony-haust-jmATI5Q_YgY-unsplash.jpg,0,1,56,0,unchosen,28,12,body_parts,faces,1900,0,9,2
239,44945,0,240,4,4,0,no_gain1,gain3,K,J,43,19,objects,83,72,faces,Stimuli/Experimental_stims/objects/jonathan-greenaway-Y4hGgeiFn3s-unsplash.jpg,Stimuli/Experimental_stims/faces/joel-mott-LaK153ghdig-unsplash.jpg,0,0,110,1,unchosen,19,43,faces,objects,1200,0,9,2
240,44945,0,241,4,4,0,no_gain2,gain1,C,F,32,12,body_parts,72,84,faces,Stimuli/Experimental_stims/body_parts/towfiqu-barbhuiya-3AsiVDsZnHg-unsplash.jpg,Stimuli/Experimental_stims/faces/aiony-haust-jmATI5Q_YgY-unsplash.jpg,0,1,26,0,unchosen,32,12,body_parts,faces,1000,0,9,2
241,44945,0,242,4,4,1,gain3,no_gain4,J,H,38,15,objects,73,84,faces,Stimuli/Experimental_stims/objects/art-lasovsky-8XddFc6NkBY-unsplash.jpg,Stimuli/Experimental_stims/faces/erik-lucatero-d2MSDujJl2g-unsplash.jpg,0,1,10,1,chosen,38,15,objects,faces,3700,1,9,2
242,44945,0,243,4,4,0,no_gain4,gain1,H,F,15,35,faces,84,61,body_parts,Stimuli/Experimental_stims/faces/erik-lucatero-d2MSDujJl2g-unsplash.jpg,Stimuli/Experimental_stims/body_parts/wc-so-KH4AAPjb-tI-unsplash.jpg,0,0,176,1,chosen,35,15,body_parts,faces,1200,0,9,2
243,44945,0,244,4,4,1,gain2,no_gain3,L,A,34,45,body_parts,75,77,objects,Stimuli/Experimental_stims/body_parts/wagner-santos-mBWMvIuVnso-unsplash.jpg,Stimuli/Experimental_stims/objects/leohoho-rngTKHXumy0-unsplash.jpg,0,0,127,0,unchosen,45,34,objects,body_parts,2600,0,9,2
244,44945,0,245,4,4,1,gain4,no_gain4,G,H,40,10,objects,72,79,outdoor_scenes,Stimuli/Experimental_stims/objects/fabian-blank-pElSkGRA2NU-unsplash.jpg,Stimuli/Experimental_stims/outdoor_scenes/shannon-kunkle-dM8INmkyDas-unsplash.jpg,0,0,25,0,unchosen,10,40,outdoor_scenes,objects,2400,0,9,2
245,44945,0,246,4,4,1,gain2,no_gain6,L,I,34,26,body_parts,75,71,body_parts,Stimuli/Experimental_stims/body_parts/wagner-santos-mBWMvIuVnso-unsplash.jpg,Stimuli/Experimental_stims/body_parts/engin-akyurt-x_3gyC42btc-unsplash.jpg,0,0,186,0,unchosen,26,34,body_parts,body_parts,1200,0,9,2
246,44945,0,247,4,4,0,no_gain6,gain6,I,B,3,2,outdoor_scenes,75,69,outdoor_scenes,Stimuli/Experimental_stims/outdoor_scenes/henry-be-NLF6hTe4PAg-unsplash.jpg,Stimuli/Experimental_stims/outdoor_scenes/bruno-van-der-kraan-qez8mNJ3ilU-unsplash.jpg,0,1,104,0,chosen,3,2,outdoor_scenes,outdoor_scenes,2500,0,9,2
247,44945,0,248,4,4,1,gain2,no_gain5,L,E,34,28,body_parts,75,68,body_parts,Stimuli/Experimental_stims/body_parts/wagner-santos-mBWMvIuVnso-unsplash.jpg,Stimuli/Experimental_stims/body_parts/ira-vishnevskaya-8DQAvdCby1I-unsplash.jpg,0,0,125,0,unchosen,28,34,body_parts,body_parts,2200,0,9,2
248,44945,0,249,4,4,0,no_gain1,gain3,K,J,25,38,body_parts,75,73,objects,Stimuli/Experimental_stims/body_parts/engin-akyurt-Q2rfH3GW39c-unsplash.jpg,Stimuli/Experimental_stims/objects/art-lasovsky-8XddFc6NkBY-unsplash.jpg,0,0,42,1,chosen,38,25,objects,body_parts,1100,0,9,2
249,44945,0,250,4,4,0,no_gain6,gain1,I,F,3,35,outdoor_scenes,75,61,body_parts,Stimuli/Experimental_stims/outdoor_scenes/henry-be-NLF6hTe4PAg-unsplash.jpg,Stimuli/Experimental_stims/body_parts/wc-so-KH4AAPjb-tI-unsplash.jpg,0,0,126,1,chosen,35,3,body_parts,outdoor_scenes,1700,0,9,2
250,44945,0,251,4,4,0,no_gain1,gain2,K,L,43,34,objects,83,75,body_parts,Stimuli/Experimental_stims/objects/jonathan-greenaway-Y4hGgeiFn3s-unsplash.jpg,Stimuli/Experimental_stims/body_parts/wagner-santos-mBWMvIuVnso-unsplash.jpg,0,0,174,1,unchosen,34,43,body_parts,objects,1100,0,9,2
251,44945,0,252,4,4,1,gain6,no_gain3,B,A,2,5,outdoor_scenes,69,71,outdoor_scenes,Stimuli/Experimental_stims/outdoor_scenes/bruno-van-der-kraan-qez8mNJ3ilU-unsplash.jpg,Stimuli/Experimental_stims/outdoor_scenes/jeff-king-bJHWJeiHfHc-unsplash.jpg,0,0,62,0,chosen,5,2,outdoor_scenes,outdoor_scenes,1900,0,9,2
252,44945,0,253,4,4,1,gain4,no_gain1,G,K,40,43,objects,72,83,objects,Stimuli/Experimental_stims/objects/fabian-blank-pElSkGRA2NU-unsplash.jpg,Stimuli/Experimental_stims/objects/jonathan-greenaway-Y4hGgeiFn3s-unsplash.jpg,0,0,32,0,unchosen,43,40,objects,objects,1100,0,9,2
253,44945,0,254,4,4,1,gain4,no_gain5,G,E,40,28,objects,72,68,body_parts,Stimuli/Experimental_stims/objects/fabian-blank-pElSkGRA2NU-unsplash.jpg,Stimuli/Experimental_stims/body_parts/ira-vishnevskaya-8DQAvdCby1I-unsplash.jpg,0,0,2,0,unchosen,28,40,body_parts,objects,1000,0,9,2
254,44945,0,255,4,4,1,gain6,no_gain6,B,I,20,26,faces,81,71,body_parts,Stimuli/Experimental_stims/faces/justin-chen-J7Cf1Gch49E-unsplash.jpg,Stimuli/Experimental_stims/body_parts/engin-akyurt-x_3gyC42btc-unsplash.jpg,0,0,2,0,unchosen,26,20,body_parts,faces,1600,0,9,2
255,44945,0,256,4,4,0,no_gain4,gain5,H,D,15,16,faces,84,71,faces,Stimuli/Experimental_stims/faces/erik-lucatero-d2MSDujJl2g-unsplash.jpg,Stimuli/Experimental_stims/faces/freddy-kearney-o-ioeoATbIM-unsplash.jpg,0,0,180,1,chosen,16,15,faces,faces,2700,0,9,2
256,44945,0,257,4,4,1,gain4,no_gain6,G,I,40,26,objects,72,71,body_parts,Stimuli/Experimental_stims/objects/fabian-blank-pElSkGRA2NU-unsplash.jpg,Stimuli/Experimental_stims/body_parts/engin-akyurt-x_3gyC42btc-unsplash.jpg,0,0,154,0,unchosen,26,40,body_parts,objects,3500,1,9,2
257,44945,0,258,4,4,0,no_gain2,gain6,C,B,32,20,body_parts,72,81,faces,Stimuli/Experimental_stims/body_parts/towfiqu-barbhuiya-3AsiVDsZnHg-unsplash.jpg,Stimuli/Experimental_stims/faces/justin-chen-J7Cf1Gch49E-unsplash.jpg,0,1,167,0,unchosen,32,20,body_parts,faces,1000,0,9,2
258,44945,0,259,4,4,0,no_gain2,gain3,C,J,32,19,body_parts,72,72,faces,Stimuli/Experimental_stims/body_parts/towfiqu-barbhuiya-3AsiVDsZnHg-unsplash.jpg,Stimuli/Experimental_stims/faces/joel-mott-LaK153ghdig-unsplash.jpg,0,0,650,1,unchosen,19,32,faces,body_parts,1700,0,9,2
259,44945,0,260,4,4,1,gain2,no_gain5,L,E,17,36,faces,80,76,objects,Stimuli/Experimental_stims/faces/good-faces-xmSWVeGEnJw-unsplash.jpg,Stimuli/Experimental_stims/objects/alexander-andrews-JYGnB9gTCls-unsplash.jpg,0,0,223,0,chosen,36,17,objects,faces,1500,0,9,2
260,44945,0,261,4,4,1,gain3,no_gain5,J,E,38,36,objects,73,76,objects,Stimuli/Experimental_stims/objects/art-lasovsky-8XddFc6NkBY-unsplash.jpg,Stimuli/Experimental_stims/objects/alexander-andrews-JYGnB9gTCls-unsplash.jpg,0,1,148,1,chosen,38,36,objects,objects,1400,0,9,2
261,44945,0,262,4,4,1,gain5,no_gain3,D,A,16,5,faces,71,71,outdoor_scenes,Stimuli/Experimental_stims/faces/freddy-kearney-o-ioeoATbIM-unsplash.jpg,Stimuli/Experimental_stims/outdoor_scenes/jeff-king-bJHWJeiHfHc-unsplash.jpg,0,1,201,1,chosen,16,5,faces,outdoor_scenes,1300,0,9,2
262,44945,0,263,4,4,1,gain5,no_gain5,D,E,42,28,objects,56,68,body_parts,Stimuli/Experimental_stims/objects/jess-bailey-nOeVi8DsN8U-unsplash.jpg,Stimuli/Experimental_stims/body_parts/ira-vishnevskaya-8DQAvdCby1I-unsplash.jpg,0,1,2,1,unchosen,42,28,objects,body_parts,4500,1,9,2
263,44945,0,264,4,4,0,no_gain5,gain6,E,B,28,20,body_parts,68,81,faces,Stimuli/Experimental_stims/body_parts/ira-vishnevskaya-8DQAvdCby1I-unsplash.jpg,Stimuli/Experimental_stims/faces/justin-chen-J7Cf1Gch49E-unsplash.jpg,0,1,216,0,unchosen,28,20,body_parts,faces,1900,0,9,2
264,44945,0,265,4,4,0,no_gain6,gain1,I,F,26,12,body_parts,71,84,faces,Stimuli/Experimental_stims/body_parts/engin-akyurt-x_3gyC42btc-unsplash.jpg,Stimuli/Experimental_stims/faces/aiony-haust-jmATI5Q_YgY-unsplash.jpg,0,1,250,0,unchosen,26,12,body_parts,faces,1900,0,9,2
265,44945,0,266,4,4,1,gain5,no_gain5,D,E,16,36,faces,71,76,objects,Stimuli/Experimental_stims/faces/freddy-kearney-o-ioeoATbIM-unsplash.jpg,Stimuli/Experimental_stims/objects/alexander-andrews-JYGnB9gTCls-unsplash.jpg,0,1,167,1,chosen,16,36,faces,objects,1600,0,9,2
266,44945,0,267,4,4,0,no_gain2,gain4,C,G,8,6,outdoor_scenes,88,72,outdoor_scenes,Stimuli/Experimental_stims/outdoor_scenes/samsommer-vddccTqwal8-unsplash.jpg,Stimuli/Experimental_stims/outdoor_scenes/meng-ji-8BH_M-53CyA-unsplash.jpg,0,1,266,0,chosen,8,6,outdoor_scenes,outdoor_scenes,2300,0,9,2
267,44945,0,268,4,4,1,gain6,no_gain2,B,C,2,8,outdoor_scenes,69,88,outdoor_scenes,Stimuli/Experimental_stims/outdoor_scenes/bruno-van-der-kraan-qez8mNJ3ilU-unsplash.jpg,Stimuli/Experimental_stims/outdoor_scenes/samsommer-vddccTqwal8-unsplash.jpg,0,1,1,1,chosen,2,8,outdoor_scenes,outdoor_scenes,3700,1,9,2
268,44945,0,269,4,4,0,no_gain3,gain3,A,J,45,19,objects,77,72,faces,Stimuli/Experimental_stims/objects/leohoho-rngTKHXumy0-unsplash.jpg,Stimuli/Experimental_stims/faces/joel-mott-LaK153ghdig-unsplash.jpg,0,0,198,1,unchosen,19,45,faces,objects,1200,0,9,2
269,44945,0,270,4,4,1,gain4,no_gain3,G,A,40,45,objects,72,77,objects,Stimuli/Experimental_stims/objects/fabian-blank-pElSkGRA2NU-unsplash.jpg,Stimuli/Experimental_stims/objects/leohoho-rngTKHXumy0-unsplash.jpg,0,1,18,1,unchosen,40,45,objects,objects,1900,0,9,2
270,44945,0,271,4,4,0,no_gain3,gain1,A,F,45,12,objects,77,84,faces,Stimuli/Experimental_stims/objects/leohoho-rngTKHXumy0-unsplash.jpg,Stimuli/Experimental_stims/faces/aiony-haust-jmATI5Q_YgY-unsplash.jpg,0,1,165,0,unchosen,45,12,objects,faces,2000,0,9,2
271,44945,0,272,4,4,1,gain1,no_gain3,F,A,35,5,body_parts,61,71,outdoor_scenes,Stimuli/Experimental_stims/body_parts/wc-so-KH4AAPjb-tI-unsplash.jpg,Stimuli/Experimental_stims/outdoor_scenes/jeff-king-bJHWJeiHfHc-unsplash.jpg,0,0,106,0,chosen,5,35,outdoor_scenes,body_parts,2700,0,9,2
272,44945,0,273,4,4,1,gain6,no_gain5,B,E,2,36,outdoor_scenes,69,76,objects,Stimuli/Experimental_stims/outdoor_scenes/bruno-van-der-kraan-qez8mNJ3ilU-unsplash.jpg,Stimuli/Experimental_stims/objects/alexander-andrews-JYGnB9gTCls-unsplash.jpg,0,0,113,0,chosen,36,2,objects,outdoor_scenes,1100,0,9,2
273,44945,0,274,4,4,0,no_gain2,gain1,C,F,8,35,outdoor_scenes,88,61,body_parts,Stimuli/Experimental_stims/outdoor_scenes/samsommer-vddccTqwal8-unsplash.jpg,Stimuli/Experimental_stims/body_parts/wc-so-KH4AAPjb-tI-unsplash.jpg,0,0,8,1,chosen,35,8,body_parts,outdoor_scenes,4200,1,9,2
274,44945,0,275,4,4,1,gain3,no_gain6,J,I,19,26,faces,72,71,body_parts,Stimuli/Experimental_stims/faces/joel-mott-LaK153ghdig-unsplash.jpg,Stimuli/Experimental_stims/body_parts/engin-akyurt-x_3gyC42btc-unsplash.jpg,0,0,93,0,unchosen,26,19,body_parts,faces,1300,0,9,2
275,44945,0,276,4,4,1,gain1,no_gain5,F,E,35,36,body_parts,61,76,objects,Stimuli/Experimental_stims/body_parts/wc-so-KH4AAPjb-tI-unsplash.jpg,Stimuli/Experimental_stims/objects/alexander-andrews-JYGnB9gTCls-unsplash.jpg,0,0,773,0,chosen,36,35,objects,body_parts,2000,0,9,2
276,44945,0,277,4,4,0,no_gain3,gain2,A,L,5,17,outdoor_scenes,71,80,faces,Stimuli/Experimental_stims/outdoor_scenes/jeff-king-bJHWJeiHfHc-unsplash.jpg,Stimuli/Experimental_stims/faces/good-faces-xmSWVeGEnJw-unsplash.jpg,0,0,245,1,chosen,17,5,faces,outdoor_scenes,1100,0,9,2
277,44945,0,278,4,4,1,gain5,no_gain1,D,K,42,43,objects,56,83,objects,Stimuli/Experimental_stims/objects/jess-bailey-nOeVi8DsN8U-unsplash.jpg,Stimuli/Experimental_stims/objects/jonathan-greenaway-Y4hGgeiFn3s-unsplash.jpg,0,1,43,1,unchosen,42,43,objects,objects,2300,0,9,2
278,44945,0,279,4,4,1,gain2,no_gain2,L,C,17,8,faces,80,88,outdoor_scenes,Stimuli/Experimental_stims/faces/good-faces-xmSWVeGEnJw-unsplash.jpg,Stimuli/Experimental_stims/outdoor_scenes/samsommer-vddccTqwal8-unsplash.jpg,0,1,221,1,chosen,17,8,faces,outdoor_scenes,2900,0,9,2
279,44945,0,280,4,4,0,no_gain2,gain5,C,D,8,16,outdoor_scenes,88,71,faces,Stimuli/Experimental_stims/outdoor_scenes/samsommer-vddccTqwal8-unsplash.jpg,Stimuli/Experimental_stims/faces/freddy-kearney-o-ioeoATbIM-unsplash.jpg,0,0,53,1,chosen,16,8,faces,outdoor_scenes,1200,0,9,2
280,44945,0,281,4,4,1,gain5,no_gain6,D,I,16,3,faces,71,75,outdoor_scenes,Stimuli/Experimental_stims/faces/freddy-kearney-o-ioeoATbIM-unsplash.jpg,Stimuli/Experimental_stims/outdoor_scenes/henry-be-NLF6hTe4PAg-unsplash.jpg,0,1,999,1,chosen,16,3,faces,outdoor_scenes,1500,0,9,2
281,44945,0,282,4,4,1,gain6,no_gain3,B,A,20,45,faces,81,77,objects,Stimuli/Experimental_stims/faces/justin-chen-J7Cf1Gch49E-unsplash.jpg,Stimuli/Experimental_stims/objects/leohoho-rngTKHXumy0-unsplash.jpg,0,0,12,0,unchosen,45,20,objects,faces,1100,0,9,2
282,44945,0,283,4,4,0,no_gain6,gain4,I,G,3,6,outdoor_scenes,75,72,outdoor_scenes,Stimuli/Experimental_stims/outdoor_scenes/henry-be-NLF6hTe4PAg-unsplash.jpg,Stimuli/Experimental_stims/outdoor_scenes/meng-ji-8BH_M-53CyA-unsplash.jpg,0,1,79,0,chosen,3,6,outdoor_scenes,outdoor_scenes,1200,0,9,2
283,44945,0,284,4,4,0,no_gain4,gain2,H,L,15,17,faces,84,80,faces,Stimuli/Experimental_stims/faces/erik-lucatero-d2MSDujJl2g-unsplash.jpg,Stimuli/Experimental_stims/faces/good-faces-xmSWVeGEnJw-unsplash.jpg,0,1,16,0,chosen,15,17,faces,faces,1400,0,9,2
284,44945,0,285,4,4,1,gain2,no_gain4,L,H,34,10,body_parts,75,79,outdoor_scenes,Stimuli/Experimental_stims/body_parts/wagner-santos-mBWMvIuVnso-unsplash.jpg,Stimuli/Experimental_stims/outdoor_scenes/shannon-kunkle-dM8INmkyDas-unsplash.jpg,0,1,11,1,unchosen,34,10,body_parts,outdoor_scenes,1100,0,9,2
285,44945,0,286,4,4,1,gain3,no_gain6,J,I,38,3,objects,73,75,outdoor_scenes,Stimuli/Experimental_stims/objects/art-lasovsky-8XddFc6NkBY-unsplash.jpg,Stimuli/Experimental_stims/outdoor_scenes/henry-be-NLF6hTe4PAg-unsplash.jpg,0,0,113,0,chosen,3,38,outdoor_scenes,objects,2100,0,9,2
286,44945,0,287,4,4,0,no_gain1,gain1,K,F,43,12,objects,83,84,faces,Stimuli/Experimental_stims/objects/jonathan-greenaway-Y4hGgeiFn3s-unsplash.jpg,Stimuli/Experimental_stims/faces/aiony-haust-jmATI5Q_YgY-unsplash.jpg,0,0,149,1,unchosen,12,43,faces,objects,3300,1,9,2
287,44945,0,288,4,4,0,no_gain1,gain6,K,B,43,20,objects,83,81,faces,Stimuli/Experimental_stims/objects/jonathan-greenaway-Y4hGgeiFn3s-unsplash.jpg,Stimuli/Experimental_stims/faces/justin-chen-J7Cf1Gch49E-unsplash.jpg,0,0,32,1,unchosen,20,43,faces,objects,1900,0,9,2
288,44945,0,289,4,4,0,no_gain1,gain5,K,D,25,16,body_parts,75,71,faces,Stimuli/Experimental_stims/body_parts/engin-akyurt-Q2rfH3GW39c-unsplash.jpg,Stimuli/Experimental_stims/faces/freddy-kearney-o-ioeoATbIM-unsplash.jpg,0,1,243,0,chosen,25,16,body_parts,faces,2000,0,9,2
289,44945,0,290,4,4,0,no_gain4,gain6,H,B,15,2,faces,84,69,outdoor_scenes,Stimuli/Experimental_stims/faces/erik-lucatero-d2MSDujJl2g-unsplash.jpg,Stimuli/Experimental_stims/outdoor_scenes/bruno-van-der-kraan-qez8mNJ3ilU-unsplash.jpg,0,0,263,1,chosen,2,15,outdoor_scenes,faces,1100,0,9,2
290,44945,0,291,4,4,1,gain3,no_gain5,J,E,19,28,faces,72,68,body_parts,Stimuli/Experimental_stims/faces/joel-mott-LaK153ghdig-unsplash.jpg,Stimuli/Experimental_stims/body_parts/ira-vishnevskaya-8DQAvdCby1I-unsplash.jpg,0,0,3,0,unchosen,28,19,body_parts,faces,1800,0,9,2
291,44945,0,292,4,4,0,no_gain1,gain1,K,F,25,35,body_parts,75,61,body_parts,Stimuli/Experimental_stims/body_parts/engin-akyurt-Q2rfH3GW39c-unsplash.jpg,Stimuli/Experimental_stims/body_parts/wc-so-KH4AAPjb-tI-unsplash.jpg,0,0,107,1,chosen,35,25,body_parts,body_parts,3200,1,9,2