,PID,practice,trial,block,run,gain_left,left_item_id,right_item_id,left_pair_id,right_pair_id,left_stimulus,right_stimulus,left_category,right_category,left_path,right_path,no_response,left_chosen,rt,higher_outcome_chosen,choice_type,iti,long_iti,simulation,version
0,46835,1,1,0,0,0,,,,,,,,,Stimuli/Practice_stims/Final_decisions/debby-hudson-FmCSSSGge-0-unsplash.jpg,Stimuli/Practice_stims/Final_decisions/yassine-khalfalli-adsQ9d_Cx0c-unsplash.jpg,0,NaN,NaN,NaN,,3000,0,5,4
1,46835,1,2,0,0,0,,,,,,,,,Stimuli/Practice_stims/Final_decisions/florian-wehde-iVW7mZPwd4g-unsplash.jpg,Stimuli/Practice_stims/Final_decisions/patrick-perkins-3wylDrjxH-E-unsplash.jpg,0,NaN,NaN,NaN,,1500,0,5,4
2,46835,1,3,0,0,0,,,,,,,,,Stimuli/Practice_stims/Final_decisions/debby-hudson-FmCSSSGge-0-unsplash.jpg,Stimuli/Practice_stims/Final_decisions/florian-wehde-iVW7mZPwd4g-unsplash.jpg,0,NaN,NaN,NaN,,2000,0,5,4
3,46835,1,4,0,0,0,,,,,,,,,Stimuli/Practice_stims/Final_decisions/yassine-khalfalli-adsQ9d_Cx0c-unsplash.jpg,Stimuli/Practice_stims/Final_decisions/debby-hudson-FmCSSSGge-0-unsplash.jpg,0,NaN,NaN,NaN,,1000,0,5,4
4,46835,0,5,1,1,0,no_gain2,gain4,J,D,15,46,faces,objects,Stimuli/Experimental_stims/faces/erik-lucatero-d2MSDujJl2g-unsplash.jpg,Stimuli/Experimental_stims/objects/mockup-graphics-PNsj6RiHAF4-unsplash.jpg,0,NaN,NaN,NaN,chosen,5000,1,5,4,50,50
5,46835,0,6,1,1,0,no_gain1,gain4,C,D,29,14,body_parts,faces,Stimuli/Experimental_stims/body_parts/manuel-schinner-ZwjFuJ7ebpk-unsplash.jpg,Stimuli/Experimental_stims/faces/david-siglin-UuW4psOb388-unsplash.jpg,0,NaN,NaN,NaN,unchosen,1700,0,5,4,50,50
6,46835,0,7,1,1,1,gain2,no_gain4,L,E,28,42,body_parts,objects,Stimuli/Experimental_stims/body_parts/ira-vishnevskaya-8DQAvdCby1I-unsplash.jpg,Stimuli/Experimental_stims/objects/jess-bailey-nOeVi8DsN8U-unsplash.jpg,0,NaN,NaN,NaN,chosen,1600,0,5,4,50,50
7,46835,0,8,1,1,1,gain1,no_gain2,B,J,17,45,faces,objects,Stimuli/Experimental_stims/faces/good-faces-xmSWVeGEnJw-unsplash.jpg,Stimuli/Experimental_stims/objects/leohoho-rngTKHXumy0-unsplash.jpg,0,NaN,NaN,NaN,unchosen,1800,0,5,4,50,50
8,46835,0,9,1,1,0,no_gain6,gain6,K,G,41,10,objects,outdoor_scenes,Stimuli/Experimental_stims/objects/insung-yoon-w2JtIQQXoRU-unsplash.jpg,Stimuli/Experimental_stims/outdoor_scenes/shannon-kunkle-dM8INmkyDas-unsplash.jpg,0,NaN,NaN,NaN,unchosen,1300,0,5,4,50,50
9,46835,0,10,1,1,1,gain6,no_gain1,G,C,10,29,outdoor_scenes,body_parts,Stimuli/Experimental_stims/outdoor_scenes/shannon-kunkle-dM8INmkyDas-unsplash.jpg,Stimuli/Experimental_stims/body_parts/manuel-schinner-ZwjFuJ7ebpk-unsplash.jpg,0,NaN,NaN,NaN,unchosen,1200,0,5,4,50,50
10,46835,0,11,1,1,0,no_gain4,gain5,E,H,42,18,objects,faces,Stimuli/Experimental_stims/objects/jess-bailey-nOeVi8DsN8U-unsplash.jpg,Stimuli/Experimental_stims/faces/jessica-radanavong-mrYkTuAesKE-unsplash.jpg,0,NaN,NaN,NaN,chosen,3800,1,5,4,50,50
11,46835,0,12,1,1,0,no_gain3,gain2,A,L,11,28,outdoor_scenes,body_parts,Stimuli/Experimental_stims/outdoor_scenes/stephen-leonardi-gyIRjKPXupE-unsplash.jpg,Stimuli/Experimental_stims/body_parts/ira-vishnevskaya-8DQAvdCby1I-unsplash.jpg,0,NaN,NaN,NaN,chosen,1100,0,5,4,50,50
12,46835,0,13,1,1,1,gain5,no_gain4,H,E,8,30,outdoor_scenes,body_parts,Stimuli/Experimental_stims/outdoor_scenes/samsommer-vddccTqwal8-unsplash.jpg,Stimuli/Experimental_stims/body_parts/mika-korhonen-Xodzxosar18-unsplash.jpg,0,NaN,NaN,NaN,unchosen,2500,0,5,4,50,50
13,46835,0,14,1,1,0,no_gain3,gain3,A,I,11,27,outdoor_scenes,body_parts,Stimuli/Experimental_stims/outdoor_scenes/stephen-leonardi-gyIRjKPXupE-unsplash.jpg,Stimuli/Experimental_stims/body_parts/heike-mintel-i_Gns0ELnLw-unsplash.jpg,0,NaN,NaN,NaN,chosen,1500,0,5,4,50,50
14,46835,0,15,1,1,0,no_gain6,gain1,K,B,41,17,objects,faces,Stimuli/Experimental_stims/objects/insung-yoon-w2JtIQQXoRU-unsplash.jpg,Stimuli/Experimental_stims/faces/good-faces-xmSWVeGEnJw-unsplash.jpg,0,NaN,NaN,NaN,unchosen,1400,0,5,4,50,50
15,46835,0,16,1,1,0,no_gain2,gain3,J,I,15,27,faces,body_parts,Stimuli/Experimental_stims/faces/erik-lucatero-d2MSDujJl2g-unsplash.jpg,Stimuli/Experimental_stims/body_parts/heike-mintel-i_Gns0ELnLw-unsplash.jpg,0,NaN,NaN,NaN,chosen,3300,1,5,4,50,50
16,46835,0,17,1,1,0,no_gain3,gain3,A,I,37,9,objects,outdoor_scenes,Stimuli/Experimental_stims/objects/alexander-andrews-VLGWE_SumrA-unsplash.jpg,Stimuli/Experimental_stims/outdoor_scenes/sergey-pesterev-y-b_FOmJXdg-unsplash.jpg,0,NaN,NaN,NaN,unchosen,1800,0,5,4,50,50
17,46835,0,18,1,1,0,no_gain1,gain3,C,I,29,9,body_parts,outdoor_scenes,Stimuli/Experimental_stims/body_parts/manuel-schinner-ZwjFuJ7ebpk-unsplash.jpg,Stimuli/Experimental_stims/outdoor_scenes/sergey-pesterev-y-b_FOmJXdg-unsplash.jpg,0,NaN,NaN,NaN,unchosen,1900,0,5,4,50,50
18,46835,0,19,1,1,0,no_gain6,gain4,K,D,41,14,objects,faces,Stimuli/Experimental_stims/objects/insung-yoon-w2JtIQQXoRU-unsplash.jpg,Stimuli/Experimental_stims/faces/david-siglin-UuW4psOb388-unsplash.jpg,0,NaN,NaN,NaN,unchosen,1100,0,5,4,50,50
19,46835,0,20,1,1,0,no_gain2,gain1,J,B,15,5,faces,outdoor_scenes,Stimuli/Experimental_stims/faces/erik-lucatero-d2MSDujJl2g-unsplash.jpg,Stimuli/Experimental_stims/outdoor_scenes/jeff-king-bJHWJeiHfHc-unsplash.jpg,0,NaN,NaN,NaN,chosen,1200,0,5,4,50,50
20,46835,0,21,1,1,1,gain4,no_gain4,D,E,14,30,faces,body_parts,Stimuli/Experimental_stims/faces/david-siglin-UuW4psOb388-unsplash.jpg,Stimuli/Experimental_stims/body_parts/mika-korhonen-Xodzxosar18-unsplash.jpg,0,NaN,NaN,NaN,unchosen,1400,0,5,4,50,50
21,46835,0,22,1,1,0,no_gain4,gain3,E,I,42,27,objects,body_parts,Stimuli/Experimental_stims/objects/jess-bailey-nOeVi8DsN8U-unsplash.jpg,Stimuli/Experimental_stims/body_parts/heike-mintel-i_Gns0ELnLw-unsplash.jpg,0,NaN,NaN,NaN,chosen,1100,0,5,4,50,50
22,46835,0,23,1,1,0,no_gain3,gain5,A,H,37,8,objects,outdoor_scenes,Stimuli/Experimental_stims/objects/alexander-andrews-VLGWE_SumrA-unsplash.jpg,Stimuli/Experimental_stims/outdoor_scenes/samsommer-vddccTqwal8-unsplash.jpg,0,NaN,NaN,NaN,unchosen,1500,0,5,4,50,50
23,46835,0,24,1,1,1,gain1,no_gain3,B,A,5,11,outdoor_scenes,outdoor_scenes,Stimuli/Experimental_stims/outdoor_scenes/jeff-king-bJHWJeiHfHc-unsplash.jpg,Stimuli/Experimental_stims/outdoor_scenes/stephen-leonardi-gyIRjKPXupE-unsplash.jpg,0,NaN,NaN,NaN,chosen,1600,0,5,4,50,50
24,46835,0,25,1,1,1,gain2,no_gain1,L,C,12,29,faces,body_parts,Stimuli/Experimental_stims/faces/aiony-haust-jmATI5Q_YgY-unsplash.jpg,Stimuli/Experimental_stims/body_parts/manuel-schinner-ZwjFuJ7ebpk-unsplash.jpg,0,NaN,NaN,NaN,unchosen,3000,1,5,4,50,50
25,46835,0,26,1,1,1,gain6,no_gain4,G,E,38,42,objects,objects,Stimuli/Experimental_stims/objects/art-lasovsky-8XddFc6NkBY-unsplash.jpg,Stimuli/Experimental_stims/objects/jess-bailey-nOeVi8DsN8U-unsplash.jpg,0,NaN,NaN,NaN,chosen,1600,0,5,4,50,50
26,46835,0,27,1,1,0,no_gain1,gain1,C,B,29,17,body_parts,faces,Stimuli/Experimental_stims/body_parts/manuel-schinner-ZwjFuJ7ebpk-unsplash.jpg,Stimuli/Experimental_stims/faces/good-faces-xmSWVeGEnJw-unsplash.jpg,0,NaN,NaN,NaN,unchosen,2900,0,5,4,50,50
27,46835,0,28,1,1,0,no_gain1,gain3,C,I,0,27,outdoor_scenes,body_parts,Stimuli/Experimental_stims/outdoor_scenes/aleksandra-boguslawska-MS7KD9Ti7FQ-unsplash.jpg,Stimuli/Experimental_stims/body_parts/heike-mintel-i_Gns0ELnLw-unsplash.jpg,0,NaN,NaN,NaN,chosen,2700,0,5,4,50,50
28,46835,0,29,1,1,1,gain5,no_gain3,H,A,18,11,faces,outdoor_scenes,Stimuli/Experimental_stims/faces/jessica-radanavong-mrYkTuAesKE-unsplash.jpg,Stimuli/Experimental_stims/outdoor_scenes/stephen-leonardi-gyIRjKPXupE-unsplash.jpg,0,NaN,NaN,NaN,chosen,1800,0,5,4,50,50
29,46835,0,30,1,1,1,gain5,no_gain5,H,F,8,35,outdoor_scenes,body_parts,Stimuli/Experimental_stims/outdoor_scenes/samsommer-vddccTqwal8-unsplash.jpg,Stimuli/Experimental_stims/body_parts/wc-so-KH4AAPjb-tI-unsplash.jpg,0,NaN,NaN,NaN,unchosen,2300,0,5,4,50,50
30,46835,0,31,1,1,0,no_gain1,gain4,C,D,0,46,outdoor_scenes,objects,Stimuli/Experimental_stims/outdoor_scenes/aleksandra-boguslawska-MS7KD9Ti7FQ-unsplash.jpg,Stimuli/Experimental_stims/objects/mockup-graphics-PNsj6RiHAF4-unsplash.jpg,0,NaN,NaN,NaN,chosen,2000,0,5,4,50,50
31,46835,0,32,1,1,1,gain6,no_gain2,G,J,38,15,objects,faces,Stimuli/Experimental_stims/objects/art-lasovsky-8XddFc6NkBY-unsplash.jpg,Stimuli/Experimental_stims/faces/erik-lucatero-d2MSDujJl2g-unsplash.jpg,0,NaN,NaN,NaN,chosen,2600,0,5,4,50,50
32,46835,0,33,1,1,1,gain4,no_gain3,D,A,14,37,faces,objects,Stimuli/Experimental_stims/faces/david-siglin-UuW4psOb388-unsplash.jpg,Stimuli/Experimental_stims/objects/alexander-andrews-VLGWE_SumrA-unsplash.jpg,0,NaN,NaN,NaN,unchosen,3500,1,5,4,50,50
33,46835,0,34,1,1,1,gain4,no_gain5,D,F,14,35,faces,body_parts,Stimuli/Experimental_stims/faces/david-siglin-UuW4psOb388-unsplash.jpg,Stimuli/Experimental_stims/body_parts/wc-so-KH4AAPjb-tI-unsplash.jpg,0,NaN,NaN,NaN,unchosen,1000,0,5,4,50,50
34,46835,0,35,1,1,0,no_gain5,gain6,F,G,23,38,faces,objects,Stimuli/Experimental_stims/faces/rikonavt-HQjfrvdTfak-unsplash.jpg,Stimuli/Experimental_stims/objects/art-lasovsky-8XddFc6NkBY-unsplash.jpg,0,NaN,NaN,NaN,chosen,1600,0,5,4,50,50
35,46835,0,36,1,1,1,gain1,no_gain5,B,F,5,23,outdoor_scenes,faces,Stimuli/Experimental_stims/outdoor_scenes/jeff-king-bJHWJeiHfHc-unsplash.jpg,Stimuli/Experimental_stims/faces/rikonavt-HQjfrvdTfak-unsplash.jpg,0,NaN,NaN,NaN,chosen,1200,0,5,4,50,50
36,46835,0,37,1,1,0,no_gain6,gain2,K,L,34,28,body_parts,body_parts,Stimuli/Experimental_stims/body_parts/wagner-santos-mBWMvIuVnso-unsplash.jpg,Stimuli/Experimental_stims/body_parts/ira-vishnevskaya-8DQAvdCby1I-unsplash.jpg,0,NaN,NaN,NaN,chosen,1500,0,5,4,50,50
37,46835,0,38,1,1,1,gain2,no_gain6,L,K,12,41,faces,objects,Stimuli/Experimental_stims/faces/aiony-haust-jmATI5Q_YgY-unsplash.jpg,Stimuli/Experimental_stims/objects/insung-yoon-w2JtIQQXoRU-unsplash.jpg,0,NaN,NaN,NaN,unchosen,4800,1,5,4,50,50
38,46835,0,39,1,1,1,gain2,no_gain2,L,J,28,15,body_parts,faces,Stimuli/Experimental_stims/body_parts/ira-vishnevskaya-8DQAvdCby1I-unsplash.jpg,Stimuli/Experimental_stims/faces/erik-lucatero-d2MSDujJl2g-unsplash.jpg,0,NaN,NaN,NaN,chosen,1500,0,5,4,50,50
39,46835,0,40,1,1,0,no_gain5,gain1,F,B,35,17,body_parts,faces,Stimuli/Experimental_stims/body_parts/wc-so-KH4AAPjb-tI-unsplash.jpg,Stimuli/Experimental_stims/faces/good-faces-xmSWVeGEnJw-unsplash.jpg,0,NaN,NaN,NaN,unchosen,1700,0,5,4,50,50
40,46835,0,41,1,1,0,no_gain4,gain1,E,B,30,17,body_parts,faces,Stimuli/Experimental_stims/body_parts/mika-korhonen-Xodzxosar18-unsplash.jpg,Stimuli/Experimental_stims/faces/good-faces-xmSWVeGEnJw-unsplash.jpg,0,NaN,NaN,NaN,unchosen,1200,0,5,4,50,50
41,46835,0,42,1,1,1,gain5,no_gain2,H,J,8,45,outdoor_scenes,objects,Stimuli/Experimental_stims/outdoor_scenes/samsommer-vddccTqwal8-unsplash.jpg,Stimuli/Experimental_stims/objects/leohoho-rngTKHXumy0-unsplash.jpg,0,NaN,NaN,NaN,unchosen,1400,0,5,4,50,50
42,46835,0,43,1,1,1,gain6,no_gain6,G,K,38,34,objects,body_parts,Stimuli/Experimental_stims/objects/art-lasovsky-8XddFc6NkBY-unsplash.jpg,Stimuli/Experimental_stims/body_parts/wagner-santos-mBWMvIuVnso-unsplash.jpg,0,NaN,NaN,NaN,chosen,1800,0,5,4,50,50
43,46835,0,44,1,1,1,gain1,no_gain3,B,A,17,37,faces,objects,Stimuli/Experimental_stims/faces/good-faces-xmSWVeGEnJw-unsplash.jpg,Stimuli/Experimental_stims/objects/alexander-andrews-VLGWE_SumrA-unsplash.jpg,0,NaN,NaN,NaN,unchosen,3600,1,5,4,50,50
44,46835,0,45,1,1,1,gain2,no_gain5,L,F,28,23,body_parts,faces,Stimuli/Experimental_stims/body_parts/ira-vishnevskaya-8DQAvdCby1I-unsplash.jpg,Stimuli/Experimental_stims/faces/rikonavt-HQjfrvdTfak-unsplash.jpg,0,NaN,NaN,NaN,chosen,1200,0,5,4,50,50
45,46835,0,46,1,1,0,no_gain2,gain5,J,H,15,18,faces,faces,Stimuli/Experimental_stims/faces/erik-lucatero-d2MSDujJl2g-unsplash.jpg,Stimuli/Experimental_stims/faces/jessica-radanavong-mrYkTuAesKE-unsplash.jpg,0,NaN,NaN,NaN,chosen,2700,0,5,4,50,50
46,46835,0,47,1,1,0,no_gain4,gain3,E,I,30,9,body_parts,outdoor_scenes,Stimuli/Experimental_stims/body_parts/mika-korhonen-Xodzxosar18-unsplash.jpg,Stimuli/Experimental_stims/outdoor_scenes/sergey-pesterev-y-b_FOmJXdg-unsplash.jpg,0,NaN,NaN,NaN,unchosen,2100,0,5,4,50,50
47,46835,0,48,1,1,1,gain6,no_gain4,G,E,10,30,outdoor_scenes,body_parts,Stimuli/Experimental_stims/outdoor_scenes/shannon-kunkle-dM8INmkyDas-unsplash.jpg,Stimuli/Experimental_stims/body_parts/mika-korhonen-Xodzxosar18-unsplash.jpg,0,NaN,NaN,NaN,unchosen,2500,0,5,4,50,50
48,46835,0,49,1,1,1,gain3,no_gain6,I,K,27,34,body_parts,body_parts,Stimuli/Experimental_stims/body_parts/heike-mintel-i_Gns0ELnLw-unsplash.jpg,Stimuli/Experimental_stims/body_parts/wagner-santos-mBWMvIuVnso-unsplash.jpg,0,NaN,NaN,NaN,chosen,1500,0,5,4,50,50
49,46835,0,50,1,1,1,gain2,no_gain1,L,C,28,0,body_parts,outdoor_scenes,Stimuli/Experimental_stims/body_parts/ira-vishnevskaya-8DQAvdCby1I-unsplash.jpg,Stimuli/Experimental_stims/outdoor_scenes/aleksandra-boguslawska-MS7KD9Ti7FQ-unsplash.jpg,0,NaN,NaN,NaN,chosen,1300,0,5,4,50,50
50,46835,0,51,1,1,1,gain6,no_gain3,G,A,38,11,objects,outdoor_scenes,Stimuli/Experimental_stims/objects/art-lasovsky-8XddFc6NkBY-unsplash.jpg,Stimuli/Experimental_stims/outdoor_scenes/stephen-leonardi-gyIRjKPXupE-unsplash.jpg,0,NaN,NaN,NaN,chosen,1000,0,5,4,50,50
51,46835,0,52,1,1,1,gain6,no_gain3,G,A,10,37,outdoor_scenes,objects,Stimuli/Experimental_stims/outdoor_scenes/shannon-kunkle-dM8INmkyDas-unsplash.jpg,Stimuli/Experimental_stims/objects/alexander-andrews-VLGWE_SumrA-unsplash.jpg,0,NaN,NaN,NaN,unchosen,1500,0,5,4,50,50
52,46835,0,53,1,1,0,no_gain6,gain3,K,I,41,9,objects,outdoor_scenes,Stimuli/Experimental_stims/objects/insung-yoon-w2JtIQQXoRU-unsplash.jpg,Stimuli/Experimental_stims/outdoor_scenes/sergey-pesterev-y-b_FOmJXdg-unsplash.jpg,0,NaN,NaN,NaN,unchosen,2200,0,5,4,50,50
53,46835,0,54,1,1,1,gain2,no_gain5,L,F,12,35,faces,body_parts,Stimuli/Experimental_stims/faces/aiony-haust-jmATI5Q_YgY-unsplash.jpg,Stimuli/Experimental_stims/body_parts/wc-so-KH4AAPjb-tI-unsplash.jpg,0,NaN,NaN,NaN,unchosen,1300,0,5,4,50,50
54,46835,0,55,1,1,1,gain4,no_gain6,D,K,46,34,objects,body_parts,Stimuli/Experimental_stims/objects/mockup-graphics-PNsj6RiHAF4-unsplash.jpg,Stimuli/Experimental_stims/body_parts/wagner-santos-mBWMvIuVnso-unsplash.jpg,0,NaN,NaN,NaN,chosen,3000,1,5,4,50,50
55,46835,0,56,1,1,1,gain4,no_gain2,D,J,14,45,faces,objects,Stimuli/Experimental_stims/faces/david-siglin-UuW4psOb388-unsplash.jpg,Stimuli/Experimental_stims/objects/leohoho-rngTKHXumy0-unsplash.jpg,0,NaN,NaN,NaN,unchosen,1400,0,5,4,50,50
56,46835,0,57,1,1,1,gain3,no_gain2,I,J,9,45,outdoor_scenes,objects,Stimuli/Experimental_stims/outdoor_scenes/sergey-pesterev-y-b_FOmJXdg-unsplash.jpg,Stimuli/Experimental_stims/objects/leohoho-rngTKHXumy0-unsplash.jpg,0,NaN,NaN,NaN,unchosen,1500,0,5,4,50,50
57,46835,0,58,1,1,0,no_gain4,gain1,E,B,42,5,objects,outdoor_scenes,Stimuli/Experimental_stims/objects/jess-bailey-nOeVi8DsN8U-unsplash.jpg,Stimuli/Experimental_stims/outdoor_scenes/jeff-king-bJHWJeiHfHc-unsplash.jpg,0,NaN,NaN,NaN,chosen,1200,0,5,4,50,50
58,46835,0,59,1,1,0,no_gain2,gain2,J,L,45,12,objects,faces,Stimuli/Experimental_stims/objects/leohoho-rngTKHXumy0-unsplash.jpg,Stimuli/Experimental_stims/faces/aiony-haust-jmATI5Q_YgY-unsplash.jpg,0,NaN,NaN,NaN,unchosen,1600,0,5,4,50,50
59,46835,0,60,1,1,0,no_gain6,gain1,K,B,34,5,body_parts,outdoor_scenes,Stimuli/Experimental_stims/body_parts/wagner-santos-mBWMvIuVnso-unsplash.jpg,Stimuli/Experimental_stims/outdoor_scenes/jeff-king-bJHWJeiHfHc-unsplash.jpg,0,NaN,NaN,NaN,chosen,2300,0,5,4,50,50
60,46835,0,61,1,1,1,gain2,no_gain3,L,A,12,37,faces,objects,Stimuli/Experimental_stims/faces/aiony-haust-jmATI5Q_YgY-unsplash.jpg,Stimuli/Experimental_stims/objects/alexander-andrews-VLGWE_SumrA-unsplash.jpg,0,NaN,NaN,NaN,unchosen,1400,0,5,4,50,50
61,46835,0,62,1,1,0,no_gain5,gain4,F,D,23,46,faces,objects,Stimuli/Experimental_stims/faces/rikonavt-HQjfrvdTfak-unsplash.jpg,Stimuli/Experimental_stims/objects/mockup-graphics-PNsj6RiHAF4-unsplash.jpg,0,NaN,NaN,NaN,chosen,4400,1,5,4,50,50
62,46835,0,63,1,1,1,gain3,no_gain5,I,F,27,23,body_parts,faces,Stimuli/Experimental_stims/body_parts/heike-mintel-i_Gns0ELnLw-unsplash.jpg,Stimuli/Experimental_stims/faces/rikonavt-HQjfrvdTfak-unsplash.jpg,0,NaN,NaN,NaN,chosen,1900,0,5,4,50,50
63,46835,0,64,1,1,0,no_gain6,gain5,K,H,41,8,objects,outdoor_scenes,Stimuli/Experimental_stims/objects/insung-yoon-w2JtIQQXoRU-unsplash.jpg,Stimuli/Experimental_stims/outdoor_scenes/samsommer-vddccTqwal8-unsplash.jpg,0,NaN,NaN,NaN,unchosen,2000,0,5,4,50,50
64,46835,0,65,1,1,0,no_gain5,gain6,F,G,35,10,body_parts,outdoor_scenes,Stimuli/Experimental_stims/body_parts/wc-so-KH4AAPjb-tI-unsplash.jpg,Stimuli/Experimental_stims/outdoor_scenes/shannon-kunkle-dM8INmkyDas-unsplash.jpg,0,NaN,NaN,NaN,unchosen,1500,0,5,4,50,50
65,46835,0,66,1,1,1,gain5,no_gain6,H,K,18,34,faces,body_parts,Stimuli/Experimental_stims/faces/jessica-radanavong-mrYkTuAesKE-unsplash.jpg,Stimuli/Experimental_stims/body_parts/wagner-santos-mBWMvIuVnso-unsplash.jpg,0,NaN,NaN,NaN,chosen,1600,0,5,4,50,50
66,46835,0,67,1,1,0,no_gain2,gain6,J,G,45,10,objects,outdoor_scenes,Stimuli/Experimental_stims/objects/leohoho-rngTKHXumy0-unsplash.jpg,Stimuli/Experimental_stims/outdoor_scenes/shannon-kunkle-dM8INmkyDas-unsplash.jpg,0,NaN,NaN,NaN,unchosen,3000,1,5,4,50,50
67,46835,0,68,1,1,0,no_gain1,gain1,C,B,0,5,outdoor_scenes,outdoor_scenes,Stimuli/Experimental_stims/outdoor_scenes/aleksandra-boguslawska-MS7KD9Ti7FQ-unsplash.jpg,Stimuli/Experimental_stims/outdoor_scenes/jeff-king-bJHWJeiHfHc-unsplash.jpg,0,NaN,NaN,NaN,chosen,1900,0,5,4,50,50
68,46835,0,69,1,1,0,no_gain4,gain2,E,L,30,12,body_parts,faces,Stimuli/Experimental_stims/body_parts/mika-korhonen-Xodzxosar18-unsplash.jpg,Stimuli/Experimental_stims/faces/aiony-haust-jmATI5Q_YgY-unsplash.jpg,0,NaN,NaN,NaN,unchosen,1100,0,5,4,50,50
69,46835,0,70,1,1,1,gain4,no_gain3,D,A,46,11,objects,outdoor_scenes,Stimuli/Experimental_stims/objects/mockup-graphics-PNsj6RiHAF4-unsplash.jpg,Stimuli/Experimental_stims/outdoor_scenes/stephen-leonardi-gyIRjKPXupE-unsplash.jpg,0,NaN,NaN,NaN,chosen,1300,0,5,4,50,50
70,46835,0,71,1,1,1,gain6,no_gain1,G,C,38,0,objects,outdoor_scenes,Stimuli/Experimental_stims/objects/art-lasovsky-8XddFc6NkBY-unsplash.jpg,Stimuli/Experimental_stims/outdoor_scenes/aleksandra-boguslawska-MS7KD9Ti7FQ-unsplash.jpg,0,NaN,NaN,NaN,chosen,2600,0,5,4,50,50
71,46835,0,72,1,1,0,no_gain5,gain5,F,H,23,18,faces,faces,Stimuli/Experimental_stims/faces/rikonavt-HQjfrvdTfak-unsplash.jpg,Stimuli/Experimental_stims/faces/jessica-radanavong-mrYkTuAesKE-unsplash.jpg,0,NaN,NaN,NaN,chosen,1100,0,5,4,50,50
72,46835,0,73,1,1,0,no_gain1,gain5,C,H,29,8,body_parts,outdoor_scenes,Stimuli/Experimental_stims/body_parts/manuel-schinner-ZwjFuJ7ebpk-unsplash.jpg,Stimuli/Experimental_stims/outdoor_scenes/samsommer-vddccTqwal8-unsplash.jpg,0,NaN,NaN,NaN,unchosen,2500,0,5,4,50,50
73,46835,0,74,1,1,1,gain4,no_gain4,D,E,46,42,objects,objects,Stimuli/Experimental_stims/objects/mockup-graphics-PNsj6RiHAF4-unsplash.jpg,Stimuli/Experimental_stims/objects/jess-bailey-nOeVi8DsN8U-unsplash.jpg,0,NaN,NaN,NaN,chosen,2600,0,5,4,50,50
74,46835,0,75,1,1,0,no_gain1,gain5,C,H,0,18,outdoor_scenes,faces,Stimuli/Experimental_stims/outdoor_scenes/aleksandra-boguslawska-MS7KD9Ti7FQ-unsplash.jpg,Stimuli/Experimental_stims/faces/jessica-radanavong-mrYkTuAesKE-unsplash.jpg,0,NaN,NaN,NaN,chosen,1100,0,5,4,50,50
75,46835,0,76,1,1,1,gain3,no_gain5,I,F,9,35,outdoor_scenes,body_parts,Stimuli/Experimental_stims/outdoor_scenes/sergey-pesterev-y-b_FOmJXdg-unsplash.jpg,Stimuli/Experimental_stims/body_parts/wc-so-KH4AAPjb-tI-unsplash.jpg,0,NaN,NaN,NaN,unchosen,4200,1,5,4,50,50
76,46835,0,77,2,2,1,gain4,no_gain6,D,K,14,41,faces,objects,Stimuli/Experimental_stims/faces/david-siglin-UuW4psOb388-unsplash.jpg,Stimuli/Experimental_stims/objects/insung-yoon-w2JtIQQXoRU-unsplash.jpg,0,NaN,NaN,NaN,unchosen,1200,0,8,4,50,50
77,46835,0,78,2,2,1,gain4,no_gain3,D,A,14,37,faces,objects,Stimuli/Experimental_stims/faces/david-siglin-UuW4psOb388-unsplash.jpg,Stimuli/Experimental_stims/objects/alexander-andrews-VLGWE_SumrA-unsplash.jpg,0,NaN,NaN,NaN,unchosen,1400,0,8,4,50,50
78,46835,0,79,2,2,1,gain5,no_gain2,H,J,8,45,outdoor_scenes,objects,Stimuli/Experimental_stims/outdoor_scenes/samsommer-vddccTqwal8-unsplash.jpg,Stimuli/Experimental_stims/objects/leohoho-rngTKHXumy0-unsplash.jpg,0,NaN,NaN,NaN,unchosen,2800,0,8,4,50,50
79,46835,0,80,2,2,0,no_gain3,gain1,A,B,11,5,outdoor_scenes,outdoor_scenes,Stimuli/Experimental_stims/outdoor_scenes/stephen-leonardi-gyIRjKPXupE-unsplash.jpg,Stimuli/Experimental_stims/outdoor_scenes/jeff-king-bJHWJeiHfHc-unsplash.jpg,0,NaN,NaN,NaN,chosen,1700,0,8,4,50,50
80,46835,0,81,2,2,0,no_gain5,gain6,F,G,35,10,body_parts,outdoor_scenes,Stimuli/Experimental_stims/body_parts/wc-so-KH4AAPjb-tI-unsplash.jpg,Stimuli/Experimental_stims/outdoor_scenes/shannon-kunkle-dM8INmkyDas-unsplash.jpg,0,NaN,NaN,NaN,unchosen,3700,1,8,4,50,50
81,46835,0,82,2,2,1,gain1,no_gain4,B,E,17,30,faces,body_parts,Stimuli/Experimental_stims/faces/good-faces-xmSWVeGEnJw-unsplash.jpg,Stimuli/Experimental_stims/body_parts/mika-korhonen-Xodzxosar18-unsplash.jpg,0,NaN,NaN,NaN,unchosen,2300,0,8,4,50,50
82,46835,0,83,2,2,0,no_gain1,gain1,C,B,0,5,outdoor_scenes,outdoor_scenes,Stimuli/Experimental_stims/outdoor_scenes/aleksandra-boguslawska-MS7KD9Ti7FQ-unsplash.jpg,Stimuli/Experimental_stims/outdoor_scenes/jeff-king-bJHWJeiHfHc-unsplash.jpg,0,NaN,NaN,NaN,chosen,2900,0,8,4,50,50
83,46835,0,84,2,2,0,no_gain3,gain5,A,H,37,8,objects,outdoor_scenes,Stimuli/Experimental_stims/objects/alexander-andrews-VLGWE_SumrA-unsplash.jpg,Stimuli/Experimental_stims/outdoor_scenes/samsommer-vddccTqwal8-unsplash.jpg,0,NaN,NaN,NaN,unchosen,2300,0,8,4,50,50
84,46835,0,85,2,2,0,no_gain2,gain1,J,B,15,5,faces,outdoor_scenes,Stimuli/Experimental_stims/faces/erik-lucatero-d2MSDujJl2g-unsplash.jpg,Stimuli/Experimental_stims/outdoor_scenes/jeff-king-bJHWJeiHfHc-unsplash.jpg,0,NaN,NaN,NaN,chosen,1200,0,8,4,50,50
85,46835,0,86,2,2,0,no_gain1,gain1,C,B,29,17,body_parts,faces,Stimuli/Experimental_stims/body_parts/manuel-schinner-ZwjFuJ7ebpk-unsplash.jpg,Stimuli/Experimental_stims/faces/good-faces-xmSWVeGEnJw-unsplash.jpg,0,NaN,NaN,NaN,unchosen,3100,1,8,4,50,50
86,46835,0,87,2,2,0,no_gain2,gain4,J,D,15,46,faces,objects,Stimuli/Experimental_stims/faces/erik-lucatero-d2MSDujJl2g-unsplash.jpg,Stimuli/Experimental_stims/objects/mockup-graphics-PNsj6RiHAF4-unsplash.jpg,0,NaN,NaN,NaN,chosen,1200,0,8,4,50,50
87,46835,0,88,2,2,0,no_gain5,gain2,F,L,35,12,body_parts,faces,Stimuli/Experimental_stims/body_parts/wc-so-KH4AAPjb-tI-unsplash.jpg,Stimuli/Experimental_stims/faces/aiony-haust-jmATI5Q_YgY-unsplash.jpg,0,NaN,NaN,NaN,unchosen,1900,0,8,4,50,50
88,46835,0,89,2,2,1,gain6,no_gain1,G,C,38,0,objects,outdoor_scenes,Stimuli/Experimental_stims/objects/art-lasovsky-8XddFc6NkBY-unsplash.jpg,Stimuli/Experimental_stims/outdoor_scenes/aleksandra-boguslawska-MS7KD9Ti7FQ-unsplash.jpg,0,NaN,NaN,NaN,chosen,2800,0,8,4,50,50
89,46835,0,90,2,2,1,gain5,no_gain3,H,A,18,11,faces,outdoor_scenes,Stimuli/Experimental_stims/faces/jessica-radanavong-mrYkTuAesKE-unsplash.jpg,Stimuli/Experimental_stims/outdoor_scenes/stephen-leonardi-gyIRjKPXupE-unsplash.jpg,0,NaN,NaN,NaN,chosen,1200,0,8,4,50,50
90,46835,0,91,2,2,1,gain4,no_gain4,D,E,14,30,faces,body_parts,Stimuli/Experimental_stims/faces/david-siglin-UuW4psOb388-unsplash.jpg,Stimuli/Experimental_stims/body_parts/mika-korhonen-Xodzxosar18-unsplash.jpg,0,NaN,NaN,NaN,unchosen,3800,1,8,4,50,50
91,46835,0,92,2,2,0,no_gain1,gain2,C,L,29,12,body_parts,faces,Stimuli/Experimental_stims/body_parts/manuel-schinner-ZwjFuJ7ebpk-unsplash.jpg,Stimuli/Experimental_stims/faces/aiony-haust-jmATI5Q_YgY-unsplash.jpg,0,NaN,NaN,NaN,unchosen,1800,0,8,4,50,50
92,46835,0,93,2,2,0,no_gain3,gain4,A,D,11,46,outdoor_scenes,objects,Stimuli/Experimental_stims/outdoor_scenes/stephen-leonardi-gyIRjKPXupE-unsplash.jpg,Stimuli/Experimental_stims/objects/mockup-graphics-PNsj6RiHAF4-unsplash.jpg,0,NaN,NaN,NaN,chosen,2300,0,8,4,50,50
93,46835,0,94,2,2,1,gain5,no_gain1,H,C,18,0,faces,outdoor_scenes,Stimuli/Experimental_stims/faces/jessica-radanavong-mrYkTuAesKE-unsplash.jpg,Stimuli/Experimental_stims/outdoor_scenes/aleksandra-boguslawska-MS7KD9Ti7FQ-unsplash.jpg,0,NaN,NaN,NaN,chosen,1400,0,8,4,50,50
94,46835,0,95,2,2,0,no_gain5,gain4,F,D,35,14,body_parts,faces,Stimuli/Experimental_stims/body_parts/wc-so-KH4AAPjb-tI-unsplash.jpg,Stimuli/Experimental_stims/faces/david-siglin-UuW4psOb388-unsplash.jpg,0,NaN,NaN,NaN,unchosen,1300,0,8,4,50,50
95,46835,0,96,2,2,1,gain4,no_gain5,D,F,46,23,objects,faces,Stimuli/Experimental_stims/objects/mockup-graphics-PNsj6RiHAF4-unsplash.jpg,Stimuli/Experimental_stims/faces/rikonavt-HQjfrvdTfak-unsplash.jpg,0,NaN,NaN,NaN,chosen,1700,0,8,4,50,50
96,46835,0,97,2,2,1,gain5,no_gain1,H,C,8,29,outdoor_scenes,body_parts,Stimuli/Experimental_stims/outdoor_scenes/samsommer-vddccTqwal8-unsplash.jpg,Stimuli/Experimental_stims/body_parts/manuel-schinner-ZwjFuJ7ebpk-unsplash.jpg,0,NaN,NaN,NaN,unchosen,3100,1,8,4,50,50
97,46835,0,98,2,2,1,gain1,no_gain6,B,K,5,34,outdoor_scenes,body_parts,Stimuli/Experimental_stims/outdoor_scenes/jeff-king-bJHWJeiHfHc-unsplash.jpg,Stimuli/Experimental_stims/body_parts/wagner-santos-mBWMvIuVnso-unsplash.jpg,0,NaN,NaN,NaN,chosen,1300,0,8,4,50,50
98,46835,0,99,2,2,0,no_gain2,gain1,J,B,45,17,objects,faces,Stimuli/Experimental_stims/objects/leohoho-rngTKHXumy0-unsplash.jpg,Stimuli/Experimental_stims/faces/good-faces-xmSWVeGEnJw-unsplash.jpg,0,NaN,NaN,NaN,unchosen,2100,0,8,4,50,50
99,46835,0,100,2,2,1,gain2,no_gain3,L,A,28,11,body_parts,outdoor_scenes,Stimuli/Experimental_stims/body_parts/ira-vishnevskaya-8DQAvdCby1I-unsplash.jpg,Stimuli/Experimental_stims/outdoor_scenes/stephen-leonardi-gyIRjKPXupE-unsplash.jpg,0,NaN,NaN,NaN,chosen,1000,0,8,4,50,50
100,46835,0,101,2,2,1,gain2,no_gain2,L,J,28,15,body_parts,faces,Stimuli/Experimental_stims/body_parts/ira-vishnevskaya-8DQAvdCby1I-unsplash.jpg,Stimuli/Experimental_stims/faces/erik-lucatero-d2MSDujJl2g-unsplash.jpg,0,NaN,NaN,NaN,chosen,1200,0,8,4,50,50
101,46835,0,102,2,2,1,gain3,no_gain1,I,C,27,0,body_parts,outdoor_scenes,Stimuli/Experimental_stims/body_parts/heike-mintel-i_Gns0ELnLw-unsplash.jpg,Stimuli/Experimental_stims/outdoor_scenes/aleksandra-boguslawska-MS7KD9Ti7FQ-unsplash.jpg,0,NaN,NaN,NaN,chosen,1700,0,8,4,50,50
102,46835,0,103,2,2,0,no_gain5,gain5,F,H,35,8,body_parts,outdoor_scenes,Stimuli/Experimental_stims/body_parts/wc-so-KH4AAPjb-tI-unsplash.jpg,Stimuli/Experimental_stims/outdoor_scenes/samsommer-vddccTqwal8-unsplash.jpg,0,NaN,NaN,NaN,unchosen,1100,0,8,4,50,50
103,46835,0,104,2,2,0,no_gain6,gain5,K,H,34,18,body_parts,faces,Stimuli/Experimental_stims/body_parts/wagner-santos-mBWMvIuVnso-unsplash.jpg,Stimuli/Experimental_stims/faces/jessica-radanavong-mrYkTuAesKE-unsplash.jpg,0,NaN,NaN,NaN,chosen,1900,0,8,4,50,50
104,46835,0,105,2,2,0,no_gain2,gain3,J,I,15,27,faces,body_parts,Stimuli/Experimental_stims/faces/erik-lucatero-d2MSDujJl2g-unsplash.jpg,Stimuli/Experimental_stims/body_parts/heike-mintel-i_Gns0ELnLw-unsplash.jpg,0,NaN,NaN,NaN,chosen,4100,1,8,4,50,50
105,46835,0,106,2,2,0,no_gain1,gain4,C,D,29,14,body_parts,faces,Stimuli/Experimental_stims/body_parts/manuel-schinner-ZwjFuJ7ebpk-unsplash.jpg,Stimuli/Experimental_stims/faces/david-siglin-UuW4psOb388-unsplash.jpg,0,NaN,NaN,NaN,unchosen,1400,0,8,4,50,50
106,46835,0,107,2,2,0,no_gain4,gain2,E,L,30,12,body_parts,faces,Stimuli/Experimental_stims/body_parts/mika-korhonen-Xodzxosar18-unsplash.jpg,Stimuli/Experimental_stims/faces/aiony-haust-jmATI5Q_YgY-unsplash.jpg,0,NaN,NaN,NaN,unchosen,2400,0,8,4,50,50
107,46835,0,108,2,2,0,no_gain5,gain1,F,B,23,5,faces,outdoor_scenes,Stimuli/Experimental_stims/faces/rikonavt-HQjfrvdTfak-unsplash.jpg,Stimuli/Experimental_stims/outdoor_scenes/jeff-king-bJHWJeiHfHc-unsplash.jpg,0,NaN,NaN,NaN,chosen,1200,0,8,4,50,50
108,46835,0,109,2,2,1,gain6,no_gain1,G,C,10,29,outdoor_scenes,body_parts,Stimuli/Experimental_stims/outdoor_scenes/shannon-kunkle-dM8INmkyDas-unsplash.jpg,Stimuli/Experimental_stims/body_parts/manuel-schinner-ZwjFuJ7ebpk-unsplash.jpg,0,NaN,NaN,NaN,unchosen,1500,0,8,4,50,50
109,46835,0,110,2,2,1,gain1,no_gain6,B,K,17,41,faces,objects,Stimuli/Experimental_stims/faces/good-faces-xmSWVeGEnJw-unsplash.jpg,Stimuli/Experimental_stims/objects/insung-yoon-w2JtIQQXoRU-unsplash.jpg,0,NaN,NaN,NaN,unchosen,3200,1,8,4,50,50
110,46835,0,111,2,2,0,no_gain5,gain2,F,L,23,28,faces,body_parts,Stimuli/Experimental_stims/faces/rikonavt-HQjfrvdTfak-unsplash.jpg,Stimuli/Experimental_stims/body_parts/ira-vishnevskaya-8DQAvdCby1I-unsplash.jpg,0,NaN,NaN,NaN,chosen,1800,0,8,4,50,50
111,46835,0,112,2,2,0,no_gain5,gain1,F,B,35,17,body_parts,faces,Stimuli/Experimental_stims/body_parts/wc-so-KH4AAPjb-tI-unsplash.jpg,Stimuli/Experimental_stims/faces/good-faces-xmSWVeGEnJw-unsplash.jpg,0,NaN,NaN,NaN,unchosen,1100,0,8,4,50,50
112,46835,0,113,2,2,1,gain2,no_gain6,L,K,12,41,faces,objects,Stimuli/Experimental_stims/faces/aiony-haust-jmATI5Q_YgY-unsplash.jpg,Stimuli/Experimental_stims/objects/insung-yoon-w2JtIQQXoRU-unsplash.jpg,0,NaN,NaN,NaN,unchosen,1700,0,8,4,50,50
113,46835,0,114,2,2,1,gain6,no_gain4,G,E,38,42,objects,objects,Stimuli/Experimental_stims/objects/art-lasovsky-8XddFc6NkBY-unsplash.jpg,Stimuli/Experimental_stims/objects/jess-bailey-nOeVi8DsN8U-unsplash.jpg,0,NaN,NaN,NaN,chosen,2700,0,8,4,50,50
114,46835,0,115,2,2,1,gain6,no_gain3,G,A,10,37,outdoor_scenes,objects,Stimuli/Experimental_stims/outdoor_scenes/shannon-kunkle-dM8INmkyDas-unsplash.jpg,Stimuli/Experimental_stims/objects/alexander-andrews-VLGWE_SumrA-unsplash.jpg,0,NaN,NaN,NaN,unchosen,1100,0,8,4,50,50
115,46835,0,116,2,2,0,no_gain6,gain4,K,D,34,46,body_parts,objects,Stimuli/Experimental_stims/body_parts/wagner-santos-mBWMvIuVnso-unsplash.jpg,Stimuli/Experimental_stims/objects/mockup-graphics-PNsj6RiHAF4-unsplash.jpg,0,NaN,NaN,NaN,chosen,1100,0,8,4,50,50
116,46835,0,117,2,2,0,no_gain1,gain3,C,I,29,9,body_parts,outdoor_scenes,Stimuli/Experimental_stims/body_parts/manuel-schinner-ZwjFuJ7ebpk-unsplash.jpg,Stimuli/Experimental_stims/outdoor_scenes/sergey-pesterev-y-b_FOmJXdg-unsplash.jpg,0,NaN,NaN,NaN,unchosen,2400,0,8,4,50,50
117,46835,0,118,2,2,1,gain3,no_gain6,I,K,27,34,body_parts,body_parts,Stimuli/Experimental_stims/body_parts/heike-mintel-i_Gns0ELnLw-unsplash.jpg,Stimuli/Experimental_stims/body_parts/wagner-santos-mBWMvIuVnso-unsplash.jpg,0,NaN,NaN,NaN,chosen,3400,1,8,4,50,50
118,46835,0,119,2,2,1,gain3,no_gain3,I,A,27,11,body_parts,outdoor_scenes,Stimuli/Experimental_stims/body_parts/heike-mintel-i_Gns0ELnLw-unsplash.jpg,Stimuli/Experimental_stims/outdoor_scenes/stephen-leonardi-gyIRjKPXupE-unsplash.jpg,0,NaN,NaN,NaN,chosen,2000,0,8,4,50,50
119,46835,0,120,2,2,0,no_gain6,gain3,K,I,41,9,objects,outdoor_scenes,Stimuli/Experimental_stims/objects/insung-yoon-w2JtIQQXoRU-unsplash.jpg,Stimuli/Experimental_stims/outdoor_scenes/sergey-pesterev-y-b_FOmJXdg-unsplash.jpg,0,NaN,NaN,NaN,unchosen,2100,0,8,4,50,50
120,46835,0,121,2,2,0,no_gain2,gain6,J,G,45,10,objects,outdoor_scenes,Stimuli/Experimental_stims/objects/leohoho-rngTKHXumy0-unsplash.jpg,Stimuli/Experimental_stims/outdoor_scenes/shannon-kunkle-dM8INmkyDas-unsplash.jpg,0,NaN,NaN,NaN,unchosen,2500,0,8,4,50,50
121,46835,0,122,2,2,1,gain5,no_gain4,H,E,8,30,outdoor_scenes,body_parts,Stimuli/Experimental_stims/outdoor_scenes/samsommer-vddccTqwal8-unsplash.jpg,Stimuli/Experimental_stims/body_parts/mika-korhonen-Xodzxosar18-unsplash.jpg,0,NaN,NaN,NaN,unchosen,1600,0,8,4,50,50
122,46835,0,123,2,2,1,gain2,no_gain4,L,E,28,42,body_parts,objects,Stimuli/Experimental_stims/body_parts/ira-vishnevskaya-8DQAvdCby1I-unsplash.jpg,Stimuli/Experimental_stims/objects/jess-bailey-nOeVi8DsN8U-unsplash.jpg,0,NaN,NaN,NaN,chosen,2400,0,8,4,50,50
123,46835,0,124,2,2,1,gain4,no_gain1,D,C,46,0,objects,outdoor_scenes,Stimuli/Experimental_stims/objects/mockup-graphics-PNsj6RiHAF4-unsplash.jpg,Stimuli/Experimental_stims/outdoor_scenes/aleksandra-boguslawska-MS7KD9Ti7FQ-unsplash.jpg,0,NaN,NaN,NaN,chosen,1300,0,8,4,50,50
124,46835,0,125,2,2,1,gain3,no_gain4,I,E,9,30,outdoor_scenes,body_parts,Stimuli/Experimental_stims/outdoor_scenes/sergey-pesterev-y-b_FOmJXdg-unsplash.jpg,Stimuli/Experimental_stims/body_parts/mika-korhonen-Xodzxosar18-unsplash.jpg,0,NaN,NaN,NaN,unchosen,1900,0,8,4,50,50
125,46835,0,126,2,2,1,gain2,no_gain1,L,C,28,0,body_parts,outdoor_scenes,Stimuli/Experimental_stims/body_parts/ira-vishnevskaya-8DQAvdCby1I-unsplash.jpg,Stimuli/Experimental_stims/outdoor_scenes/aleksandra-boguslawska-MS7KD9Ti7FQ-unsplash.jpg,0,NaN,NaN,NaN,chosen,1600,0,8,4,50,50
126,46835,0,127,2,2,0,no_gain2,gain5,J,H,15,18,faces,faces,Stimuli/Experimental_stims/faces/erik-lucatero-d2MSDujJl2g-unsplash.jpg,Stimuli/Experimental_stims/faces/jessica-radanavong-mrYkTuAesKE-unsplash.jpg,0,NaN,NaN,NaN,chosen,1100,0,8,4,50,50
127,46835,0,128,2,2,1,gain3,no_gain2,I,J,9,45,outdoor_scenes,objects,Stimuli/Experimental_stims/outdoor_scenes/sergey-pesterev-y-b_FOmJXdg-unsplash.jpg,Stimuli/Experimental_stims/objects/leohoho-rngTKHXumy0-unsplash.jpg,0,NaN,NaN,NaN,unchosen,1200,0,8,4,50,50
128,46835,0,129,2,2,1,gain3,no_gain3,I,A,9,37,outdoor_scenes,objects,Stimuli/Experimental_stims/outdoor_scenes/sergey-pesterev-y-b_FOmJXdg-unsplash.jpg,Stimuli/Experimental_stims/objects/alexander-andrews-VLGWE_SumrA-unsplash.jpg,0,NaN,NaN,NaN,unchosen,1300,0,8,4,50,50
129,46835,0,130,2,2,1,gain4,no_gain4,D,E,46,42,objects,objects,Stimuli/Experimental_stims/objects/mockup-graphics-PNsj6RiHAF4-unsplash.jpg,Stimuli/Experimental_stims/objects/jess-bailey-nOeVi8DsN8U-unsplash.jpg,0,NaN,NaN,NaN,chosen,1000,0,8,4,50,50
130,46835,0,131,2,2,0,no_gain4,gain1,E,B,42,5,objects,outdoor_scenes,Stimuli/Experimental_stims/objects/jess-bailey-nOeVi8DsN8U-unsplash.jpg,Stimuli/Experimental_stims/outdoor_scenes/jeff-king-bJHWJeiHfHc-unsplash.jpg,0,NaN,NaN,NaN,chosen,2900,0,8,4,50,50
131,46835,0,132,2,2,0,no_gain2,gain6,J,G,15,38,faces,objects,Stimuli/Experimental_stims/faces/erik-lucatero-d2MSDujJl2g-unsplash.jpg,Stimuli/Experimental_stims/objects/art-lasovsky-8XddFc6NkBY-unsplash.jpg,0,NaN,NaN,NaN,chosen,2200,0,8,4,50,50
132,46835,0,133,2,2,0,no_gain3,gain2,A,L,37,12,objects,faces,Stimuli/Experimental_stims/objects/alexander-andrews-VLGWE_SumrA-unsplash.jpg,Stimuli/Experimental_stims/faces/aiony-haust-jmATI5Q_YgY-unsplash.jpg,0,NaN,NaN,NaN,unchosen,3200,1,8,4,50,50
133,46835,0,134,2,2,1,gain1,no_gain3,B,A,17,37,faces,objects,Stimuli/Experimental_stims/faces/good-faces-xmSWVeGEnJw-unsplash.jpg,Stimuli/Experimental_stims/objects/alexander-andrews-VLGWE_SumrA-unsplash.jpg,0,NaN,NaN,NaN,unchosen,2600,0,8,4,50,50
134,46835,0,135,2,2,0,no_gain6,gain6,K,G,41,10,objects,outdoor_scenes,Stimuli/Experimental_stims/objects/insung-yoon-w2JtIQQXoRU-unsplash.jpg,Stimuli/Experimental_stims/outdoor_scenes/shannon-kunkle-dM8INmkyDas-unsplash.jpg,0,NaN,NaN,NaN,unchosen,1200,0,8,4,50,50
135,46835,0,136,2,2,0,no_gain4,gain3,E,I,42,27,objects,body_parts,Stimuli/Experimental_stims/objects/jess-bailey-nOeVi8DsN8U-unsplash.jpg,Stimuli/Experimental_stims/body_parts/heike-mintel-i_Gns0ELnLw-unsplash.jpg,0,NaN,NaN,NaN,chosen,1100,0,8,4,50,50
136,46835,0,137,2,2,1,gain5,no_gain6,H,K,8,41,outdoor_scenes,objects,Stimuli/Experimental_stims/outdoor_scenes/samsommer-vddccTqwal8-unsplash.jpg,Stimuli/Experimental_stims/objects/insung-yoon-w2JtIQQXoRU-unsplash.jpg,0,NaN,NaN,NaN,unchosen,2000,0,8,4,50,50
137,46835,0,138,2,2,0,no_gain6,gain2,K,L,34,28,body_parts,body_parts,Stimuli/Experimental_stims/body_parts/wagner-santos-mBWMvIuVnso-unsplash.jpg,Stimuli/Experimental_stims/body_parts/ira-vishnevskaya-8DQAvdCby1I-unsplash.jpg,0,NaN,NaN,NaN,chosen,4100,1,8,4,50,50
138,46835,0,139,2,2,0,no_gain2,gain4,J,D,45,14,objects,faces,Stimuli/Experimental_stims/objects/leohoho-rngTKHXumy0-unsplash.jpg,Stimuli/Experimental_stims/faces/david-siglin-UuW4psOb388-unsplash.jpg,0,NaN,NaN,NaN,unchosen,1700,0,8,4,50,50
139,46835,0,140,2,2,0,no_gain2,gain2,J,L,45,12,objects,faces,Stimuli/Experimental_stims/objects/leohoho-rngTKHXumy0-unsplash.jpg,Stimuli/Experimental_stims/faces/aiony-haust-jmATI5Q_YgY-unsplash.jpg,0,NaN,NaN,NaN,unchosen,1200,0,8,4,50,50
140,46835,0,141,2,2,1,gain6,no_gain3,G,A,38,11,objects,outdoor_scenes,Stimuli/Experimental_stims/objects/art-lasovsky-8XddFc6NkBY-unsplash.jpg,Stimuli/Experimental_stims/outdoor_scenes/stephen-leonardi-gyIRjKPXupE-unsplash.jpg,0,NaN,NaN,NaN,chosen,1000,0,8,4,50,50
141,46835,0,142,2,2,0,no_gain5,gain5,F,H,23,18,faces,faces,Stimuli/Experimental_stims/faces/rikonavt-HQjfrvdTfak-unsplash.jpg,Stimuli/Experimental_stims/faces/jessica-radanavong-mrYkTuAesKE-unsplash.jpg,0,NaN,NaN,NaN,chosen,1800,0,8,4,50,50
142,46835,0,143,2,2,0,no_gain5,gain6,F,G,23,38,faces,objects,Stimuli/Experimental_stims/faces/rikonavt-HQjfrvdTfak-unsplash.jpg,Stimuli/Experimental_stims/objects/art-lasovsky-8XddFc6NkBY-unsplash.jpg,0,NaN,NaN,NaN,chosen,3500,1,8,4,50,50
143,46835,0,144,2,2,1,gain6,no_gain4,G,E,10,30,outdoor_scenes,body_parts,Stimuli/Experimental_stims/outdoor_scenes/shannon-kunkle-dM8INmkyDas-unsplash.jpg,Stimuli/Experimental_stims/body_parts/mika-korhonen-Xodzxosar18-unsplash.jpg,0,NaN,NaN,NaN,unchosen,2700,0,8,4,50,50
144,46835,0,145,2,2,1,gain6,no_gain6,G,K,38,34,objects,body_parts,Stimuli/Experimental_stims/objects/art-lasovsky-8XddFc6NkBY-unsplash.jpg,Stimuli/Experimental_stims/body_parts/wagner-santos-mBWMvIuVnso-unsplash.jpg,0,NaN,NaN,NaN,chosen,2400,0,8,4,50,50
145,46835,0,146,2,2,1,gain3,no_gain5,I,F,9,35,outdoor_scenes,body_parts,Stimuli/Experimental_stims/outdoor_scenes/sergey-pesterev-y-b_FOmJXdg-unsplash.jpg,Stimuli/Experimental_stims/body_parts/wc-so-KH4AAPjb-tI-unsplash.jpg,0,NaN,NaN,NaN,unchosen,1400,0,8,4,50,50
146,46835,0,147,2,2,1,gain5,no_gain4,H,E,18,42,faces,objects,Stimuli/Experimental_stims/faces/jessica-radanavong-mrYkTuAesKE-unsplash.jpg,Stimuli/Experimental_stims/objects/jess-bailey-nOeVi8DsN8U-unsplash.jpg,0,NaN,NaN,NaN,chosen,1200,0,8,4,50,50
147,46835,0,148,2,2,0,no_gain5,gain3,F,I,23,27,faces,body_parts,Stimuli/Experimental_stims/faces/rikonavt-HQjfrvdTfak-unsplash.jpg,Stimuli/Experimental_stims/body_parts/heike-mintel-i_Gns0ELnLw-unsplash.jpg,0,NaN,NaN,NaN,chosen,3300,1,8,4,50,50
148,46835,0,149,3,3,1,gain5,no_gain3,H,A,18,11,faces,outdoor_scenes,Stimuli/Experimental_stims/faces/jessica-radanavong-mrYkTuAesKE-unsplash.jpg,Stimuli/Experimental_stims/outdoor_scenes/stephen-leonardi-gyIRjKPXupE-unsplash.jpg,0,NaN,NaN,NaN,chosen,3900,1,7,4,50,50
149,46835,0,150,3,3,0,no_gain3,gain4,A,D,11,46,outdoor_scenes,objects,Stimuli/Experimental_stims/outdoor_scenes/stephen-leonardi-gyIRjKPXupE-unsplash.jpg,Stimuli/Experimental_stims/objects/mockup-graphics-PNsj6RiHAF4-unsplash.jpg,0,NaN,NaN,NaN,chosen,1200,0,7,4,50,50
150,46835,0,151,3,3,1,gain6,no_gain3,G,A,38,11,objects,outdoor_scenes,Stimuli/Experimental_stims/objects/art-lasovsky-8XddFc6NkBY-unsplash.jpg,Stimuli/Experimental_stims/outdoor_scenes/stephen-leonardi-gyIRjKPXupE-unsplash.jpg,0,NaN,NaN,NaN,chosen,1500,0,7,4,50,50
151,46835,0,152,3,3,1,gain4,no_gain4,D,E,14,30,faces,body_parts,Stimuli/Experimental_stims/faces/david-siglin-UuW4psOb388-unsplash.jpg,Stimuli/Experimental_stims/body_parts/mika-korhonen-Xodzxosar18-unsplash.jpg,0,NaN,NaN,NaN,unchosen,2700,0,7,4,50,50
152,46835,0,153,3,3,1,gain5,no_gain5,H,F,8,35,outdoor_scenes,body_parts,Stimuli/Experimental_stims/outdoor_scenes/samsommer-vddccTqwal8-unsplash.jpg,Stimuli/Experimental_stims/body_parts/wc-so-KH4AAPjb-tI-unsplash.jpg,0,NaN,NaN,NaN,unchosen,1300,0,7,4,50,50
153,46835,0,154,3,3,0,no_gain6,gain1,K,B,34,5,body_parts,outdoor_scenes,Stimuli/Experimental_stims/body_parts/wagner-santos-mBWMvIuVnso-unsplash.jpg,Stimuli/Experimental_stims/outdoor_scenes/jeff-king-bJHWJeiHfHc-unsplash.jpg,0,NaN,NaN,NaN,chosen,1000,0,7,4,50,50
154,46835,0,155,3,3,1,gain1,no_gain3,B,A,5,11,outdoor_scenes,outdoor_scenes,Stimuli/Experimental_stims/outdoor_scenes/jeff-king-bJHWJeiHfHc-unsplash.jpg,Stimuli/Experimental_stims/outdoor_scenes/stephen-leonardi-gyIRjKPXupE-unsplash.jpg,0,NaN,NaN,NaN,chosen,3000,1,7,4,50,50
155,46835,0,156,3,3,0,no_gain2,gain3,J,I,45,9,objects,outdoor_scenes,Stimuli/Experimental_stims/objects/leohoho-rngTKHXumy0-unsplash.jpg,Stimuli/Experimental_stims/outdoor_scenes/sergey-pesterev-y-b_FOmJXdg-unsplash.jpg,0,NaN,NaN,NaN,unchosen,2800,0,7,4,50,50
156,46835,0,157,3,3,1,gain3,no_gain5,I,F,27,23,body_parts,faces,Stimuli/Experimental_stims/body_parts/heike-mintel-i_Gns0ELnLw-unsplash.jpg,Stimuli/Experimental_stims/faces/rikonavt-HQjfrvdTfak-unsplash.jpg,0,NaN,NaN,NaN,chosen,1400,0,7,4,50,50
157,46835,0,158,3,3,1,gain1,no_gain1,B,C,5,0,outdoor_scenes,outdoor_scenes,Stimuli/Experimental_stims/outdoor_scenes/jeff-king-bJHWJeiHfHc-unsplash.jpg,Stimuli/Experimental_stims/outdoor_scenes/aleksandra-boguslawska-MS7KD9Ti7FQ-unsplash.jpg,0,NaN,NaN,NaN,chosen,2500,0,7,4,50,50
158,46835,0,159,3,3,0,no_gain3,gain2,A,L,37,12,objects,faces,Stimuli/Experimental_stims/objects/alexander-andrews-VLGWE_SumrA-unsplash.jpg,Stimuli/Experimental_stims/faces/aiony-haust-jmATI5Q_YgY-unsplash.jpg,0,NaN,NaN,NaN,unchosen,1600,0,7,4,50,50
159,46835,0,160,3,3,1,gain2,no_gain4,L,E,12,30,faces,body_parts,Stimuli/Experimental_stims/faces/aiony-haust-jmATI5Q_YgY-unsplash.jpg,Stimuli/Experimental_stims/body_parts/mika-korhonen-Xodzxosar18-unsplash.jpg,0,NaN,NaN,NaN,unchosen,3600,1,7,4,50,50
160,46835,0,161,3,3,0,no_gain4,gain5,E,H,30,8,body_parts,outdoor_scenes,Stimuli/Experimental_stims/body_parts/mika-korhonen-Xodzxosar18-unsplash.jpg,Stimuli/Experimental_stims/outdoor_scenes/samsommer-vddccTqwal8-unsplash.jpg,0,NaN,NaN,NaN,unchosen,1200,0,7,4,50,50
161,46835,0,162,3,3,0,no_gain5,gain4,F,D,23,46,faces,objects,Stimuli/Experimental_stims/faces/rikonavt-HQjfrvdTfak-unsplash.jpg,Stimuli/Experimental_stims/objects/mockup-graphics-PNsj6RiHAF4-unsplash.jpg,0,NaN,NaN,NaN,chosen,1800,0,7,4,50,50
162,46835,0,163,3,3,1,gain2,no_gain5,L,F,28,23,body_parts,faces,Stimuli/Experimental_stims/body_parts/ira-vishnevskaya-8DQAvdCby1I-unsplash.jpg,Stimuli/Experimental_stims/faces/rikonavt-HQjfrvdTfak-unsplash.jpg,0,NaN,NaN,NaN,chosen,2800,0,7,4,50,50
163,46835,0,164,3,3,1,gain5,no_gain6,H,K,8,41,outdoor_scenes,objects,Stimuli/Experimental_stims/outdoor_scenes/samsommer-vddccTqwal8-unsplash.jpg,Stimuli/Experimental_stims/objects/insung-yoon-w2JtIQQXoRU-unsplash.jpg,0,NaN,NaN,NaN,unchosen,2100,0,7,4,50,50
164,46835,0,165,3,3,0,no_gain4,gain3,E,I,42,27,objects,body_parts,Stimuli/Experimental_stims/objects/jess-bailey-nOeVi8DsN8U-unsplash.jpg,Stimuli/Experimental_stims/body_parts/heike-mintel-i_Gns0ELnLw-unsplash.jpg,0,NaN,NaN,NaN,chosen,1500,0,7,4,50,50
165,46835,0,166,3,3,0,no_gain1,gain5,C,H,0,18,outdoor_scenes,faces,Stimuli/Experimental_stims/outdoor_scenes/aleksandra-boguslawska-MS7KD9Ti7FQ-unsplash.jpg,Stimuli/Experimental_stims/faces/jessica-radanavong-mrYkTuAesKE-unsplash.jpg,0,NaN,NaN,NaN,chosen,2100,0,7,4,50,50
166,46835,0,167,3,3,0,no_gain3,gain2,A,L,11,28,outdoor_scenes,body_parts,Stimuli/Experimental_stims/outdoor_scenes/stephen-leonardi-gyIRjKPXupE-unsplash.jpg,Stimuli/Experimental_stims/body_parts/ira-vishnevskaya-8DQAvdCby1I-unsplash.jpg,0,NaN,NaN,NaN,chosen,3600,1,7,4,50,50
167,46835,0,168,3,3,1,gain6,no_gain4,G,E,10,30,outdoor_scenes,body_parts,Stimuli/Experimental_stims/outdoor_scenes/shannon-kunkle-dM8INmkyDas-unsplash.jpg,Stimuli/Experimental_stims/body_parts/mika-korhonen-Xodzxosar18-unsplash.jpg,0,NaN,NaN,NaN,unchosen,1300,0,7,4,50,50
168,46835,0,169,3,3,0,no_gain4,gain2,E,L,42,28,objects,body_parts,Stimuli/Experimental_stims/objects/jess-bailey-nOeVi8DsN8U-unsplash.jpg,Stimuli/Experimental_stims/body_parts/ira-vishnevskaya-8DQAvdCby1I-unsplash.jpg,0,NaN,NaN,NaN,chosen,2700,0,7,4,50,50
169,46835,0,170,3,3,1,gain1,no_gain4,B,E,17,30,faces,body_parts,Stimuli/Experimental_stims/faces/good-faces-xmSWVeGEnJw-unsplash.jpg,Stimuli/Experimental_stims/body_parts/mika-korhonen-Xodzxosar18-unsplash.jpg,0,NaN,NaN,NaN,unchosen,1400,0,7,4,50,50
170,46835,0,171,3,3,0,no_gain2,gain4,J,D,45,14,objects,faces,Stimuli/Experimental_stims/objects/leohoho-rngTKHXumy0-unsplash.jpg,Stimuli/Experimental_stims/faces/david-siglin-UuW4psOb388-unsplash.jpg,0,NaN,NaN,NaN,unchosen,2300,0,7,4,50,50
171,46835,0,172,3,3,0,no_gain1,gain1,C,B,29,17,body_parts,faces,Stimuli/Experimental_stims/body_parts/manuel-schinner-ZwjFuJ7ebpk-unsplash.jpg,Stimuli/Experimental_stims/faces/good-faces-xmSWVeGEnJw-unsplash.jpg,0,NaN,NaN,NaN,unchosen,3400,1,7,4,50,50
172,46835,0,173,3,3,1,gain4,no_gain2,D,J,46,15,objects,faces,Stimuli/Experimental_stims/objects/mockup-graphics-PNsj6RiHAF4-unsplash.jpg,Stimuli/Experimental_stims/faces/erik-lucatero-d2MSDujJl2g-unsplash.jpg,0,NaN,NaN,NaN,chosen,1200,0,7,4,50,50
173,46835,0,174,3,3,0,no_gain6,gain6,K,G,41,10,objects,outdoor_scenes,Stimuli/Experimental_stims/objects/insung-yoon-w2JtIQQXoRU-unsplash.jpg,Stimuli/Experimental_stims/outdoor_scenes/shannon-kunkle-dM8INmkyDas-unsplash.jpg,0,NaN,NaN,NaN,unchosen,2500,0,7,4,50,50
174,46835,0,175,3,3,1,gain3,no_gain3,I,A,27,11,body_parts,outdoor_scenes,Stimuli/Experimental_stims/body_parts/heike-mintel-i_Gns0ELnLw-unsplash.jpg,Stimuli/Experimental_stims/outdoor_scenes/stephen-leonardi-gyIRjKPXupE-unsplash.jpg,0,NaN,NaN,NaN,chosen,2600,0,7,4,50,50
175,46835,0,176,3,3,0,no_gain2,gain6,J,G,45,10,objects,outdoor_scenes,Stimuli/Experimental_stims/objects/leohoho-rngTKHXumy0-unsplash.jpg,Stimuli/Experimental_stims/outdoor_scenes/shannon-kunkle-dM8INmkyDas-unsplash.jpg,0,NaN,NaN,NaN,unchosen,2100,0,7,4,50,50
176,46835,0,177,3,3,1,gain1,no_gain5,B,F,5,23,outdoor_scenes,faces,Stimuli/Experimental_stims/outdoor_scenes/jeff-king-bJHWJeiHfHc-unsplash.jpg,Stimuli/Experimental_stims/faces/rikonavt-HQjfrvdTfak-unsplash.jpg,0,NaN,NaN,NaN,chosen,3300,1,7,4,50,50
177,46835,0,178,3,3,0,no_gain1,gain5,C,H,29,8,body_parts,outdoor_scenes,Stimuli/Experimental_stims/body_parts/manuel-schinner-ZwjFuJ7ebpk-unsplash.jpg,Stimuli/Experimental_stims/outdoor_scenes/samsommer-vddccTqwal8-unsplash.jpg,0,NaN,NaN,NaN,unchosen,1200,0,7,4,50,50
178,46835,0,179,3,3,1,gain2,no_gain6,L,K,28,34,body_parts,body_parts,Stimuli/Experimental_stims/body_parts/ira-vishnevskaya-8DQAvdCby1I-unsplash.jpg,Stimuli/Experimental_stims/body_parts/wagner-santos-mBWMvIuVnso-unsplash.jpg,0,NaN,NaN,NaN,chosen,1500,0,7,4,50,50
179,46835,0,180,3,3,1,gain3,no_gain6,I,K,9,41,outdoor_scenes,objects,Stimuli/Experimental_stims/outdoor_scenes/sergey-pesterev-y-b_FOmJXdg-unsplash.jpg,Stimuli/Experimental_stims/objects/insung-yoon-w2JtIQQXoRU-unsplash.jpg,0,NaN,NaN,NaN,unchosen,1700,0,7,4,50,50
180,46835,0,181,3,3,0,no_gain5,gain1,F,B,35,17,body_parts,faces,Stimuli/Experimental_stims/body_parts/wc-so-KH4AAPjb-tI-unsplash.jpg,Stimuli/Experimental_stims/faces/good-faces-xmSWVeGEnJw-unsplash.jpg,0,NaN,NaN,NaN,unchosen,1500,0,7,4,50,50
181,46835,0,182,3,3,1,gain2,no_gain6,L,K,12,41,faces,objects,Stimuli/Experimental_stims/faces/aiony-haust-jmATI5Q_YgY-unsplash.jpg,Stimuli/Experimental_stims/objects/insung-yoon-w2JtIQQXoRU-unsplash.jpg,0,NaN,NaN,NaN,unchosen,1300,0,7,4,50,50
182,46835,0,183,3,3,1,gain1,no_gain4,B,E,5,42,outdoor_scenes,objects,Stimuli/Experimental_stims/outdoor_scenes/jeff-king-bJHWJeiHfHc-unsplash.jpg,Stimuli/Experimental_stims/objects/jess-bailey-nOeVi8DsN8U-unsplash.jpg,0,NaN,NaN,NaN,chosen,2000,0,7,4,50,50
183,46835,0,184,3,3,0,no_gain1,gain6,C,G,29,10,body_parts,outdoor_scenes,Stimuli/Experimental_stims/body_parts/manuel-schinner-ZwjFuJ7ebpk-unsplash.jpg,Stimuli/Experimental_stims/outdoor_scenes/shannon-kunkle-dM8INmkyDas-unsplash.jpg,0,NaN,NaN,NaN,unchosen,1500,0,7,4,50,50
184,46835,0,185,3,3,1,gain5,no_gain5,H,F,18,23,faces,faces,Stimuli/Experimental_stims/faces/jessica-radanavong-mrYkTuAesKE-unsplash.jpg,Stimuli/Experimental_stims/faces/rikonavt-HQjfrvdTfak-unsplash.jpg,0,NaN,NaN,NaN,chosen,2200,0,7,4,50,50
185,46835,0,186,3,3,1,gain6,no_gain1,G,C,38,0,objects,outdoor_scenes,Stimuli/Experimental_stims/objects/art-lasovsky-8XddFc6NkBY-unsplash.jpg,Stimuli/Experimental_stims/outdoor_scenes/aleksandra-boguslawska-MS7KD9Ti7FQ-unsplash.jpg,0,NaN,NaN,NaN,chosen,1300,0,7,4,50,50
186,46835,0,187,3,3,0,no_gain6,gain4,K,D,34,46,body_parts,objects,Stimuli/Experimental_stims/body_parts/wagner-santos-mBWMvIuVnso-unsplash.jpg,Stimuli/Experimental_stims/objects/mockup-graphics-PNsj6RiHAF4-unsplash.jpg,0,NaN,NaN,NaN,chosen,1000,0,7,4,50,50
187,46835,0,188,3,3,1,gain1,no_gain2,B,J,17,45,faces,objects,Stimuli/Experimental_stims/faces/good-faces-xmSWVeGEnJw-unsplash.jpg,Stimuli/Experimental_stims/objects/leohoho-rngTKHXumy0-unsplash.jpg,0,NaN,NaN,NaN,unchosen,3000,1,7,4,50,50
188,46835,0,189,3,3,0,no_gain2,gain5,J,H,45,8,objects,outdoor_scenes,Stimuli/Experimental_stims/objects/leohoho-rngTKHXumy0-unsplash.jpg,Stimuli/Experimental_stims/outdoor_scenes/samsommer-vddccTqwal8-unsplash.jpg,0,NaN,NaN,NaN,unchosen,1300,0,7,4,50,50
189,46835,0,190,3,3,1,gain1,no_gain3,B,A,17,37,faces,objects,Stimuli/Experimental_stims/faces/good-faces-xmSWVeGEnJw-unsplash.jpg,Stimuli/Experimental_stims/objects/alexander-andrews-VLGWE_SumrA-unsplash.jpg,0,NaN,NaN,NaN,unchosen,2200,0,7,4,50,50
190,46835,0,191,3,3,0,no_gain1,gain2,C,L,0,28,outdoor_scenes,body_parts,Stimuli/Experimental_stims/outdoor_scenes/aleksandra-boguslawska-MS7KD9Ti7FQ-unsplash.jpg,Stimuli/Experimental_stims/body_parts/ira-vishnevskaya-8DQAvdCby1I-unsplash.jpg,0,NaN,NaN,NaN,chosen,1100,0,7,4,50,50
191,46835,0,192,3,3,0,no_gain3,gain5,A,H,37,8,objects,outdoor_scenes,Stimuli/Experimental_stims/objects/alexander-andrews-VLGWE_SumrA-unsplash.jpg,Stimuli/Experimental_stims/outdoor_scenes/samsommer-vddccTqwal8-unsplash.jpg,0,NaN,NaN,NaN,unchosen,2100,0,7,4,50,50
192,46835,0,193,3,3,0,no_gain2,gain6,J,G,15,38,faces,objects,Stimuli/Experimental_stims/faces/erik-lucatero-d2MSDujJl2g-unsplash.jpg,Stimuli/Experimental_stims/objects/art-lasovsky-8XddFc6NkBY-unsplash.jpg,0,NaN,NaN,NaN,chosen,2300,0,7,4,50,50
193,46835,0,194,3,3,0,no_gain4,gain5,E,H,42,18,objects,faces,Stimuli/Experimental_stims/objects/jess-bailey-nOeVi8DsN8U-unsplash.jpg,Stimuli/Experimental_stims/faces/jessica-radanavong-mrYkTuAesKE-unsplash.jpg,0,NaN,NaN,NaN,chosen,3900,1,7,4,50,50
194,46835,0,195,3,3,0,no_gain4,gain6,E,G,42,38,objects,objects,Stimuli/Experimental_stims/objects/jess-bailey-nOeVi8DsN8U-unsplash.jpg,Stimuli/Experimental_stims/objects/art-lasovsky-8XddFc6NkBY-unsplash.jpg,0,NaN,NaN,NaN,chosen,1700,0,7,4,50,50
195,46835,0,196,3,3,1,gain4,no_gain3,D,A,14,37,faces,objects,Stimuli/Experimental_stims/faces/david-siglin-UuW4psOb388-unsplash.jpg,Stimuli/Experimental_stims/objects/alexander-andrews-VLGWE_SumrA-unsplash.jpg,0,NaN,NaN,NaN,unchosen,1200,0,7,4,50,50
196,46835,0,197,3,3,0,no_gain1,gain4,C,D,29,14,body_parts,faces,Stimuli/Experimental_stims/body_parts/manuel-schinner-ZwjFuJ7ebpk-unsplash.jpg,Stimuli/Experimental_stims/faces/david-siglin-UuW4psOb388-unsplash.jpg,0,NaN,NaN,NaN,unchosen,1200,0,7,4,50,50
197,46835,0,198,3,3,1,gain2,no_gain2,L,J,12,45,faces,objects,Stimuli/Experimental_stims/faces/aiony-haust-jmATI5Q_YgY-unsplash.jpg,Stimuli/Experimental_stims/objects/leohoho-rngTKHXumy0-unsplash.jpg,0,NaN,NaN,NaN,unchosen,1900,0,7,4,50,50
198,46835,0,199,3,3,0,no_gain6,gain3,K,I,34,27,body_parts,body_parts,Stimuli/Experimental_stims/body_parts/wagner-santos-mBWMvIuVnso-unsplash.jpg,Stimuli/Experimental_stims/body_parts/heike-mintel-i_Gns0ELnLw-unsplash.jpg,0,NaN,NaN,NaN,chosen,1000,0,7,4,50,50
199,46835,0,200,3,3,0,no_gain4,gain4,E,D,42,46,objects,objects,Stimuli/Experimental_stims/objects/jess-bailey-nOeVi8DsN8U-unsplash.jpg,Stimuli/Experimental_stims/objects/mockup-graphics-PNsj6RiHAF4-unsplash.jpg,0,NaN,NaN,NaN,chosen,3900,1,7,4,50,50
200,46835,0,201,3,3,0,no_gain6,gain5,K,H,34,18,body_parts,faces,Stimuli/Experimental_stims/body_parts/wagner-santos-mBWMvIuVnso-unsplash.jpg,Stimuli/Experimental_stims/faces/jessica-radanavong-mrYkTuAesKE-unsplash.jpg,0,NaN,NaN,NaN,chosen,2100,0,7,4,50,50
201,46835,0,202,3,3,1,gain6,no_gain5,G,F,10,35,outdoor_scenes,body_parts,Stimuli/Experimental_stims/outdoor_scenes/shannon-kunkle-dM8INmkyDas-unsplash.jpg,Stimuli/Experimental_stims/body_parts/wc-so-KH4AAPjb-tI-unsplash.jpg,0,NaN,NaN,NaN,unchosen,1300,0,7,4,50,50
202,46835,0,203,3,3,0,no_gain2,gain5,J,H,15,18,faces,faces,Stimuli/Experimental_stims/faces/erik-lucatero-d2MSDujJl2g-unsplash.jpg,Stimuli/Experimental_stims/faces/jessica-radanavong-mrYkTuAesKE-unsplash.jpg,0,NaN,NaN,NaN,chosen,1800,0,7,4,50,50
203,46835,0,204,3,3,1,gain4,no_gain1,D,C,46,0,objects,outdoor_scenes,Stimuli/Experimental_stims/objects/mockup-graphics-PNsj6RiHAF4-unsplash.jpg,Stimuli/Experimental_stims/outdoor_scenes/aleksandra-boguslawska-MS7KD9Ti7FQ-unsplash.jpg,0,NaN,NaN,NaN,chosen,1900,0,7,4,50,50
204,46835,0,205,3,3,1,gain6,no_gain3,G,A,10,37,outdoor_scenes,objects,Stimuli/Experimental_stims/outdoor_scenes/shannon-kunkle-dM8INmkyDas-unsplash.jpg,Stimuli/Experimental_stims/objects/alexander-andrews-VLGWE_SumrA-unsplash.jpg,0,NaN,NaN,NaN,unchosen,2600,0,7,4,50,50
205,46835,0,206,3,3,1,gain4,no_gain6,D,K,14,41,faces,objects,Stimuli/Experimental_stims/faces/david-siglin-UuW4psOb388-unsplash.jpg,Stimuli/Experimental_stims/objects/insung-yoon-w2JtIQQXoRU-unsplash.jpg,0,NaN,NaN,NaN,unchosen,2400,0,7,4,50,50
206,46835,0,207,3,3,0,no_gain5,gain4,F,D,35,14,body_parts,faces,Stimuli/Experimental_stims/body_parts/wc-so-KH4AAPjb-tI-unsplash.jpg,Stimuli/Experimental_stims/faces/david-siglin-UuW4psOb388-unsplash.jpg,0,NaN,NaN,NaN,unchosen,2500,0,7,4,50,50
207,46835,0,208,3,3,0,no_gain5,gain6,F,G,23,38,faces,objects,Stimuli/Experimental_stims/faces/rikonavt-HQjfrvdTfak-unsplash.jpg,Stimuli/Experimental_stims/objects/art-lasovsky-8XddFc6NkBY-unsplash.jpg,0,NaN,NaN,NaN,chosen,2900,1,7,4,50,50
208,46835,0,209,3,3,0,no_gain4,gain3,E,I,30,9,body_parts,outdoor_scenes,Stimuli/Experimental_stims/body_parts/mika-korhonen-Xodzxosar18-unsplash.jpg,Stimuli/Experimental_stims/outdoor_scenes/sergey-pesterev-y-b_FOmJXdg-unsplash.jpg,0,NaN,NaN,NaN,unchosen,1000,0,7,4,50,50
209,46835,0,210,3,3,0,no_gain1,gain3,C,I,0,27,outdoor_scenes,body_parts,Stimuli/Experimental_stims/outdoor_scenes/aleksandra-boguslawska-MS7KD9Ti7FQ-unsplash.jpg,Stimuli/Experimental_stims/body_parts/heike-mintel-i_Gns0ELnLw-unsplash.jpg,0,NaN,NaN,NaN,chosen,1500,0,7,4,50,50
210,46835,0,211,3,3,1,gain3,no_gain3,I,A,9,37,outdoor_scenes,objects,Stimuli/Experimental_stims/outdoor_scenes/sergey-pesterev-y-b_FOmJXdg-unsplash.jpg,Stimuli/Experimental_stims/objects/alexander-andrews-VLGWE_SumrA-unsplash.jpg,0,NaN,NaN,NaN,unchosen,2000,0,7,4,50,50
211,46835,0,212,3,3,1,gain1,no_gain6,B,K,17,41,faces,objects,Stimuli/Experimental_stims/faces/good-faces-xmSWVeGEnJw-unsplash.jpg,Stimuli/Experimental_stims/objects/insung-yoon-w2JtIQQXoRU-unsplash.jpg,0,NaN,NaN,NaN,unchosen,1400,0,7,4,50,50
212,46835,0,213,3,3,0,no_gain5,gain2,F,L,35,12,body_parts,faces,Stimuli/Experimental_stims/body_parts/wc-so-KH4AAPjb-tI-unsplash.jpg,Stimuli/Experimental_stims/faces/aiony-haust-jmATI5Q_YgY-unsplash.jpg,0,NaN,NaN,NaN,unchosen,1800,0,7,4,50,50
213,46835,0,214,3,3,1,gain6,no_gain6,G,K,38,34,objects,body_parts,Stimuli/Experimental_stims/objects/art-lasovsky-8XddFc6NkBY-unsplash.jpg,Stimuli/Experimental_stims/body_parts/wagner-santos-mBWMvIuVnso-unsplash.jpg,0,NaN,NaN,NaN,chosen,2500,0,7,4,50,50
214,46835,0,215,3,3,1,gain1,no_gain2,B,J,5,15,outdoor_scenes,faces,Stimuli/Experimental_stims/outdoor_scenes/jeff-king-bJHWJeiHfHc-unsplash.jpg,Stimuli/Experimental_stims/faces/erik-lucatero-d2MSDujJl2g-unsplash.jpg,0,NaN,NaN,NaN,chosen,1600,0,7,4,50,50
215,46835,0,216,3,3,0,no_gain1,gain2,C,L,29,12,body_parts,faces,Stimuli/Experimental_stims/body_parts/manuel-schinner-ZwjFuJ7ebpk-unsplash.jpg,Stimuli/Experimental_stims/faces/aiony-haust-jmATI5Q_YgY-unsplash.jpg,0,NaN,NaN,NaN,unchosen,3700,1,7,4,50,50
216,46835,0,217,3,3,0,no_gain5,gain3,F,I,35,9,body_parts,outdoor_scenes,Stimuli/Experimental_stims/body_parts/wc-so-KH4AAPjb-tI-unsplash.jpg,Stimuli/Experimental_stims/outdoor_scenes/sergey-pesterev-y-b_FOmJXdg-unsplash.jpg,0,NaN,NaN,NaN,unchosen,1200,0,7,4,50,50
217,46835,0,218,3,3,1,gain3,no_gain2,I,J,27,15,body_parts,faces,Stimuli/Experimental_stims/body_parts/heike-mintel-i_Gns0ELnLw-unsplash.jpg,Stimuli/Experimental_stims/faces/erik-lucatero-d2MSDujJl2g-unsplash.jpg,0,NaN,NaN,NaN,chosen,1200,0,7,4,50,50
218,46835,0,219,3,3,1,gain3,no_gain1,I,C,9,29,outdoor_scenes,body_parts,Stimuli/Experimental_stims/outdoor_scenes/sergey-pesterev-y-b_FOmJXdg-unsplash.jpg,Stimuli/Experimental_stims/body_parts/manuel-schinner-ZwjFuJ7ebpk-unsplash.jpg,0,NaN,NaN,NaN,unchosen,1100,0,7,4,50,50
219,46835,0,220,3,3,1,gain2,no_gain2,L,J,28,15,body_parts,faces,Stimuli/Experimental_stims/body_parts/ira-vishnevskaya-8DQAvdCby1I-unsplash.jpg,Stimuli/Experimental_stims/faces/erik-lucatero-d2MSDujJl2g-unsplash.jpg,0,NaN,NaN,NaN,chosen,1100,0,7,4,50,50
220,46835,0,221,4,4,1,gain4,no_gain1,D,C,14,29,faces,body_parts,Stimuli/Experimental_stims/faces/david-siglin-UuW4psOb388-unsplash.jpg,Stimuli/Experimental_stims/body_parts/manuel-schinner-ZwjFuJ7ebpk-unsplash.jpg,0,NaN,NaN,NaN,unchosen,4000,1,8,4,50,50
221,46835,0,222,4,4,0,no_gain1,gain5,C,H,0,18,outdoor_scenes,faces,Stimuli/Experimental_stims/outdoor_scenes/aleksandra-boguslawska-MS7KD9Ti7FQ-unsplash.jpg,Stimuli/Experimental_stims/faces/jessica-radanavong-mrYkTuAesKE-unsplash.jpg,0,NaN,NaN,NaN,chosen,1900,0,8,4,50,50
222,46835,0,223,4,4,1,gain2,no_gain1,L,C,28,0,body_parts,outdoor_scenes,Stimuli/Experimental_stims/body_parts/ira-vishnevskaya-8DQAvdCby1I-unsplash.jpg,Stimuli/Experimental_stims/outdoor_scenes/aleksandra-boguslawska-MS7KD9Ti7FQ-unsplash.jpg,0,NaN,NaN,NaN,chosen,1200,0,8,4,50,50
223,46835,0,224,4,4,1,gain4,no_gain6,D,K,14,41,faces,objects,Stimuli/Experimental_stims/faces/david-siglin-UuW4psOb388-unsplash.jpg,Stimuli/Experimental_stims/objects/insung-yoon-w2JtIQQXoRU-unsplash.jpg,0,NaN,NaN,NaN,unchosen,1200,0,8,4,50,50
224,46835,0,225,4,4,1,gain4,no_gain3,D,A,14,37,faces,objects,Stimuli/Experimental_stims/faces/david-siglin-UuW4psOb388-unsplash.jpg,Stimuli/Experimental_stims/objects/alexander-andrews-VLGWE_SumrA-unsplash.jpg,0,NaN,NaN,NaN,unchosen,2900,0,8,4,50,50
225,46835,0,226,4,4,1,gain2,no_gain3,L,A,12,37,faces,objects,Stimuli/Experimental_stims/faces/aiony-haust-jmATI5Q_YgY-unsplash.jpg,Stimuli/Experimental_stims/objects/alexander-andrews-VLGWE_SumrA-unsplash.jpg,0,NaN,NaN,NaN,unchosen,1800,0,8,4,50,50
226,46835,0,227,4,4,1,gain1,no_gain3,B,A,5,11,outdoor_scenes,outdoor_scenes,Stimuli/Experimental_stims/outdoor_scenes/jeff-king-bJHWJeiHfHc-unsplash.jpg,Stimuli/Experimental_stims/outdoor_scenes/stephen-leonardi-gyIRjKPXupE-unsplash.jpg,0,NaN,NaN,NaN,chosen,4700,1,8,4,50,50
227,46835,0,228,4,4,0,no_gain2,gain5,J,H,15,18,faces,faces,Stimuli/Experimental_stims/faces/erik-lucatero-d2MSDujJl2g-unsplash.jpg,Stimuli/Experimental_stims/faces/jessica-radanavong-mrYkTuAesKE-unsplash.jpg,0,NaN,NaN,NaN,chosen,2800,0,8,4,50,50
228,46835,0,229,4,4,1,gain5,no_gain1,H,C,8,29,outdoor_scenes,body_parts,Stimuli/Experimental_stims/outdoor_scenes/samsommer-vddccTqwal8-unsplash.jpg,Stimuli/Experimental_stims/body_parts/manuel-schinner-ZwjFuJ7ebpk-unsplash.jpg,0,NaN,NaN,NaN,unchosen,1100,0,8,4,50,50
229,46835,0,230,4,4,0,no_gain4,gain5,E,H,42,18,objects,faces,Stimuli/Experimental_stims/objects/jess-bailey-nOeVi8DsN8U-unsplash.jpg,Stimuli/Experimental_stims/faces/jessica-radanavong-mrYkTuAesKE-unsplash.jpg,0,NaN,NaN,NaN,chosen,2200,0,8,4,50,50
230,46835,0,231,4,4,0,no_gain1,gain6,C,G,29,10,body_parts,outdoor_scenes,Stimuli/Experimental_stims/body_parts/manuel-schinner-ZwjFuJ7ebpk-unsplash.jpg,Stimuli/Experimental_stims/outdoor_scenes/shannon-kunkle-dM8INmkyDas-unsplash.jpg,0,NaN,NaN,NaN,unchosen,2000,0,8,4,50,50
231,46835,0,232,4,4,1,gain3,no_gain5,I,F,9,35,outdoor_scenes,body_parts,Stimuli/Experimental_stims/outdoor_scenes/sergey-pesterev-y-b_FOmJXdg-unsplash.jpg,Stimuli/Experimental_stims/body_parts/wc-so-KH4AAPjb-tI-unsplash.jpg,0,NaN,NaN,NaN,unchosen,1100,0,8,4,50,50
232,46835,0,233,4,4,0,no_gain6,gain1,K,B,41,17,objects,faces,Stimuli/Experimental_stims/objects/insung-yoon-w2JtIQQXoRU-unsplash.jpg,Stimuli/Experimental_stims/faces/good-faces-xmSWVeGEnJw-unsplash.jpg,0,NaN,NaN,NaN,unchosen,3000,1,8,4,50,50
233,46835,0,234,4,4,1,gain3,no_gain5,I,F,27,23,body_parts,faces,Stimuli/Experimental_stims/body_parts/heike-mintel-i_Gns0ELnLw-unsplash.jpg,Stimuli/Experimental_stims/faces/rikonavt-HQjfrvdTfak-unsplash.jpg,0,NaN,NaN,NaN,chosen,1800,0,8,4,50,50
234,46835,0,235,4,4,0,no_gain3,gain1,A,B,37,17,objects,faces,Stimuli/Experimental_stims/objects/alexander-andrews-VLGWE_SumrA-unsplash.jpg,Stimuli/Experimental_stims/faces/good-faces-xmSWVeGEnJw-unsplash.jpg,0,NaN,NaN,NaN,unchosen,1700,0,8,4,50,50
235,46835,0,236,4,4,0,no_gain2,gain5,J,H,45,8,objects,outdoor_scenes,Stimuli/Experimental_stims/objects/leohoho-rngTKHXumy0-unsplash.jpg,Stimuli/Experimental_stims/outdoor_scenes/samsommer-vddccTqwal8-unsplash.jpg,0,NaN,NaN,NaN,unchosen,1500,0,8,4,50,50
236,46835,0,237,4,4,0,no_gain2,gain1,J,B,45,17,objects,faces,Stimuli/Experimental_stims/objects/leohoho-rngTKHXumy0-unsplash.jpg,Stimuli/Experimental_stims/faces/good-faces-xmSWVeGEnJw-unsplash.jpg,0,NaN,NaN,NaN,unchosen,1400,0,8,4,50,50
237,46835,0,238,4,4,1,gain6,no_gain2,G,J,38,15,objects,faces,Stimuli/Experimental_stims/objects/art-lasovsky-8XddFc6NkBY-unsplash.jpg,Stimuli/Experimental_stims/faces/erik-lucatero-d2MSDujJl2g-unsplash.jpg,0,NaN,NaN,NaN,chosen,3000,1,8,4,50,50
238,46835,0,239,4,4,1,gain4,no_gain2,D,J,14,45,faces,objects,Stimuli/Experimental_stims/faces/david-siglin-UuW4psOb388-unsplash.jpg,Stimuli/Experimental_stims/objects/leohoho-rngTKHXumy0-unsplash.jpg,0,NaN,NaN,NaN,unchosen,1000,0,8,4,50,50
239,46835,0,240,4,4,0,no_gain1,gain2,C,L,29,12,body_parts,faces,Stimuli/Experimental_stims/body_parts/manuel-schinner-ZwjFuJ7ebpk-unsplash.jpg,Stimuli/Experimental_stims/faces/aiony-haust-jmATI5Q_YgY-unsplash.jpg,0,NaN,NaN,NaN,unchosen,1100,0,8,4,50,50
240,46835,0,241,4,4,0,no_gain4,gain3,E,I,30,9,body_parts,outdoor_scenes,Stimuli/Experimental_stims/body_parts/mika-korhonen-Xodzxosar18-unsplash.jpg,Stimuli/Experimental_stims/outdoor_scenes/sergey-pesterev-y-b_FOmJXdg-unsplash.jpg,0,NaN,NaN,NaN,unchosen,1600,0,8,4,50,50
241,46835,0,242,4,4,0,no_gain5,gain4,F,D,23,46,faces,objects,Stimuli/Experimental_stims/faces/rikonavt-HQjfrvdTfak-unsplash.jpg,Stimuli/Experimental_stims/objects/mockup-graphics-PNsj6RiHAF4-unsplash.jpg,0,NaN,NaN,NaN,chosen,1100,0,8,4,50,50
242,46835,0,243,4,4,1,gain6,no_gain6,G,K,10,41,outdoor_scenes,objects,Stimuli/Experimental_stims/outdoor_scenes/shannon-kunkle-dM8INmkyDas-unsplash.jpg,Stimuli/Experimental_stims/objects/insung-yoon-w2JtIQQXoRU-unsplash.jpg,0,NaN,NaN,NaN,unchosen,1100,0,8,4,50,50
243,46835,0,244,4,4,1,gain3,no_gain2,I,J,27,15,body_parts,faces,Stimuli/Experimental_stims/body_parts/heike-mintel-i_Gns0ELnLw-unsplash.jpg,Stimuli/Experimental_stims/faces/erik-lucatero-d2MSDujJl2g-unsplash.jpg,0,NaN,NaN,NaN,chosen,1800,0,8,4,50,50
244,46835,0,245,4,4,0,no_gain1,gain1,C,B,0,5,outdoor_scenes,outdoor_scenes,Stimuli/Experimental_stims/outdoor_scenes/aleksandra-boguslawska-MS7KD9Ti7FQ-unsplash.jpg,Stimuli/Experimental_stims/outdoor_scenes/jeff-king-bJHWJeiHfHc-unsplash.jpg,0,NaN,NaN,NaN,chosen,1400,0,8,4,50,50
245,46835,0,246,4,4,0,no_gain4,gain5,E,H,30,8,body_parts,outdoor_scenes,Stimuli/Experimental_stims/body_parts/mika-korhonen-Xodzxosar18-unsplash.jpg,Stimuli/Experimental_stims/outdoor_scenes/samsommer-vddccTqwal8-unsplash.jpg,0,NaN,NaN,NaN,unchosen,1600,0,8,4,50,50
246,46835,0,247,4,4,1,gain2,no_gain2,L,J,28,15,body_parts,faces,Stimuli/Experimental_stims/body_parts/ira-vishnevskaya-8DQAvdCby1I-unsplash.jpg,Stimuli/Experimental_stims/faces/erik-lucatero-d2MSDujJl2g-unsplash.jpg,0,NaN,NaN,NaN,chosen,2000,0,8,4,50,50
247,46835,0,248,4,4,0,no_gain1,gain3,C,I,29,9,body_parts,outdoor_scenes,Stimuli/Experimental_stims/body_parts/manuel-schinner-ZwjFuJ7ebpk-unsplash.jpg,Stimuli/Experimental_stims/outdoor_scenes/sergey-pesterev-y-b_FOmJXdg-unsplash.jpg,0,NaN,NaN,NaN,unchosen,2200,0,8,4,50,50
248,46835,0,249,4,4,0,no_gain4,gain2,E,L,42,28,objects,body_parts,Stimuli/Experimental_stims/objects/jess-bailey-nOeVi8DsN8U-unsplash.jpg,Stimuli/Experimental_stims/body_parts/ira-vishnevskaya-8DQAvdCby1I-unsplash.jpg,0,NaN,NaN,NaN,chosen,2100,0,8,4,50,50
249,46835,0,250,4,4,0,no_gain3,gain2,A,L,11,28,outdoor_scenes,body_parts,Stimuli/Experimental_stims/outdoor_scenes/stephen-leonardi-gyIRjKPXupE-unsplash.jpg,Stimuli/Experimental_stims/body_parts/ira-vishnevskaya-8DQAvdCby1I-unsplash.jpg,0,NaN,NaN,NaN,chosen,2900,0,8,4,50,50
250,46835,0,251,4,4,0,no_gain6,gain5,K,H,41,8,objects,outdoor_scenes,Stimuli/Experimental_stims/objects/insung-yoon-w2JtIQQXoRU-unsplash.jpg,Stimuli/Experimental_stims/outdoor_scenes/samsommer-vddccTqwal8-unsplash.jpg,0,NaN,NaN,NaN,unchosen,1600,0,8,4,50,50
251,46835,0,252,4,4,1,gain3,no_gain4,I,E,27,42,body_parts,objects,Stimuli/Experimental_stims/body_parts/heike-mintel-i_Gns0ELnLw-unsplash.jpg,Stimuli/Experimental_stims/objects/jess-bailey-nOeVi8DsN8U-unsplash.jpg,0,NaN,NaN,NaN,chosen,1600,0,8,4,50,50
252,46835,0,253,4,4,0,no_gain1,gain1,C,B,29,17,body_parts,faces,Stimuli/Experimental_stims/body_parts/manuel-schinner-ZwjFuJ7ebpk-unsplash.jpg,Stimuli/Experimental_stims/faces/good-faces-xmSWVeGEnJw-unsplash.jpg,0,NaN,NaN,NaN,unchosen,4900,1,8,4,50,50
253,46835,0,254,4,4,0,no_gain5,gain1,F,B,35,17,body_parts,faces,Stimuli/Experimental_stims/body_parts/wc-so-KH4AAPjb-tI-unsplash.jpg,Stimuli/Experimental_stims/faces/good-faces-xmSWVeGEnJw-unsplash.jpg,0,NaN,NaN,NaN,unchosen,2600,0,8,4,50,50
254,46835,0,255,4,4,1,gain5,no_gain5,H,F,18,23,faces,faces,Stimuli/Experimental_stims/faces/jessica-radanavong-mrYkTuAesKE-unsplash.jpg,Stimuli/Experimental_stims/faces/rikonavt-HQjfrvdTfak-unsplash.jpg,0,NaN,NaN,NaN,chosen,1800,0,8,4,50,50
255,46835,0,256,4,4,0,no_gain1,gain3,C,I,0,27,outdoor_scenes,body_parts,Stimuli/Experimental_stims/outdoor_scenes/aleksandra-boguslawska-MS7KD9Ti7FQ-unsplash.jpg,Stimuli/Experimental_stims/body_parts/heike-mintel-i_Gns0ELnLw-unsplash.jpg,0,NaN,NaN,NaN,chosen,1500,0,8,4,50,50
256,46835,0,257,4,4,1,gain5,no_gain3,H,A,18,11,faces,outdoor_scenes,Stimuli/Experimental_stims/faces/jessica-radanavong-mrYkTuAesKE-unsplash.jpg,Stimuli/Experimental_stims/outdoor_scenes/stephen-leonardi-gyIRjKPXupE-unsplash.jpg,0,NaN,NaN,NaN,chosen,1700,0,8,4,50,50
257,46835,0,258,4,4,1,gain2,no_gain4,L,E,12,30,faces,body_parts,Stimuli/Experimental_stims/faces/aiony-haust-jmATI5Q_YgY-unsplash.jpg,Stimuli/Experimental_stims/body_parts/mika-korhonen-Xodzxosar18-unsplash.jpg,0,NaN,NaN,NaN,unchosen,3200,1,8,4,50,50
258,46835,0,259,4,4,1,gain3,no_gain3,I,A,27,11,body_parts,outdoor_scenes,Stimuli/Experimental_stims/body_parts/heike-mintel-i_Gns0ELnLw-unsplash.jpg,Stimuli/Experimental_stims/outdoor_scenes/stephen-leonardi-gyIRjKPXupE-unsplash.jpg,0,NaN,NaN,NaN,chosen,2100,0,8,4,50,50
259,46835,0,260,4,4,0,no_gain6,gain1,K,B,34,5,body_parts,outdoor_scenes,Stimuli/Experimental_stims/body_parts/wagner-santos-mBWMvIuVnso-unsplash.jpg,Stimuli/Experimental_stims/outdoor_scenes/jeff-king-bJHWJeiHfHc-unsplash.jpg,0,NaN,NaN,NaN,chosen,1600,0,8,4,50,50
260,46835,0,261,4,4,0,no_gain2,gain3,J,I,45,9,objects,outdoor_scenes,Stimuli/Experimental_stims/objects/leohoho-rngTKHXumy0-unsplash.jpg,Stimuli/Experimental_stims/outdoor_scenes/sergey-pesterev-y-b_FOmJXdg-unsplash.jpg,0,NaN,NaN,NaN,unchosen,1700,0,8,4,50,50
261,46835,0,262,4,4,0,no_gain4,gain4,E,D,42,46,objects,objects,Stimuli/Experimental_stims/objects/jess-bailey-nOeVi8DsN8U-unsplash.jpg,Stimuli/Experimental_stims/objects/mockup-graphics-PNsj6RiHAF4-unsplash.jpg,0,NaN,NaN,NaN,chosen,1300,0,8,4,50,50
262,46835,0,263,4,4,1,gain6,no_gain1,G,C,38,0,objects,outdoor_scenes,Stimuli/Experimental_stims/objects/art-lasovsky-8XddFc6NkBY-unsplash.jpg,Stimuli/Experimental_stims/outdoor_scenes/aleksandra-boguslawska-MS7KD9Ti7FQ-unsplash.jpg,0,NaN,NaN,NaN,chosen,3700,1,8,4,50,50
263,46835,0,264,4,4,1,gain1,no_gain4,B,E,17,30,faces,body_parts,Stimuli/Experimental_stims/faces/good-faces-xmSWVeGEnJw-unsplash.jpg,Stimuli/Experimental_stims/body_parts/mika-korhonen-Xodzxosar18-unsplash.jpg,0,NaN,NaN,NaN,unchosen,1500,0,8,4,50,50
264,46835,0,265,4,4,1,gain4,no_gain1,D,C,46,0,objects,outdoor_scenes,Stimuli/Experimental_stims/objects/mockup-graphics-PNsj6RiHAF4-unsplash.jpg,Stimuli/Experimental_stims/outdoor_scenes/aleksandra-boguslawska-MS7KD9Ti7FQ-unsplash.jpg,0,NaN,NaN,NaN,chosen,1500,0,8,4,50,50
265,46835,0,266,4,4,1,gain2,no_gain5,L,F,12,35,faces,body_parts,Stimuli/Experimental_stims/faces/aiony-haust-jmATI5Q_YgY-unsplash.jpg,Stimuli/Experimental_stims/body_parts/wc-so-KH4AAPjb-tI-unsplash.jpg,0,NaN,NaN,NaN,unchosen,1400,0,8,4,50,50
266,46835,0,267,4,4,0,no_gain2,gain4,J,D,15,46,faces,objects,Stimuli/Experimental_stims/faces/erik-lucatero-d2MSDujJl2g-unsplash.jpg,Stimuli/Experimental_stims/objects/mockup-graphics-PNsj6RiHAF4-unsplash.jpg,0,NaN,NaN,NaN,chosen,1700,0,8,4,50,50
267,46835,0,268,4,4,0,no_gain4,gain6,E,G,42,38,objects,objects,Stimuli/Experimental_stims/objects/jess-bailey-nOeVi8DsN8U-unsplash.jpg,Stimuli/Experimental_stims/objects/art-lasovsky-8XddFc6NkBY-unsplash.jpg,0,NaN,NaN,NaN,chosen,2500,0,8,4,50,50
268,46835,0,269,4,4,0,no_gain6,gain6,K,G,34,38,body_parts,objects,Stimuli/Experimental_stims/body_parts/wagner-santos-mBWMvIuVnso-unsplash.jpg,Stimuli/Experimental_stims/objects/art-lasovsky-8XddFc6NkBY-unsplash.jpg,0,NaN,NaN,NaN,chosen,1800,0,8,4,50,50
269,46835,0,270,4,4,0,no_gain2,gain6,J,G,45,10,objects,outdoor_scenes,Stimuli/Experimental_stims/objects/leohoho-rngTKHXumy0-unsplash.jpg,Stimuli/Experimental_stims/outdoor_scenes/shannon-kunkle-dM8INmkyDas-unsplash.jpg,0,NaN,NaN,NaN,unchosen,2200,0,8,4,50,50
270,46835,0,271,4,4,0,no_gain5,gain6,F,G,35,10,body_parts,outdoor_scenes,Stimuli/Experimental_stims/body_parts/wc-so-KH4AAPjb-tI-unsplash.jpg,Stimuli/Experimental_stims/outdoor_scenes/shannon-kunkle-dM8INmkyDas-unsplash.jpg,0,NaN,NaN,NaN,unchosen,1400,0,8,4,50,50
271,46835,0,272,4,4,1,gain3,no_gain6,I,K,27,34,body_parts,body_parts,Stimuli/Experimental_stims/body_parts/heike-mintel-i_Gns0ELnLw-unsplash.jpg,Stimuli/Experimental_stims/body_parts/wagner-santos-mBWMvIuVnso-unsplash.jpg,0,NaN,NaN,NaN,chosen,4200,1,8,4,50,50
272,46835,0,273,4,4,1,gain5,no_gain5,H,F,8,35,outdoor_scenes,body_parts,Stimuli/Experimental_stims/outdoor_scenes/samsommer-vddccTqwal8-unsplash.jpg,Stimuli/Experimental_stims/body_parts/wc-so-KH4AAPjb-tI-unsplash.jpg,0,NaN,NaN,NaN,unchosen,2400,0,8,4,50,50
273,46835,0,274,4,4,0,no_gain4,gain6,E,G,30,10,body_parts,outdoor_scenes,Stimuli/Experimental_stims/body_parts/mika-korhonen-Xodzxosar18-unsplash.jpg,Stimuli/Experimental_stims/outdoor_scenes/shannon-kunkle-dM8INmkyDas-unsplash.jpg,0,NaN,NaN,NaN,unchosen,1100,0,8,4,50,50
274,46835,0,275,4,4,0,no_gain2,gain1,J,B,15,5,faces,outdoor_scenes,Stimuli/Experimental_stims/faces/erik-lucatero-d2MSDujJl2g-unsplash.jpg,Stimuli/Experimental_stims/outdoor_scenes/jeff-king-bJHWJeiHfHc-unsplash.jpg,0,NaN,NaN,NaN,chosen,1400,0,8,4,50,50
275,46835,0,276,4,4,0,no_gain3,gain3,A,I,37,9,objects,outdoor_scenes,Stimuli/Experimental_stims/objects/alexander-andrews-VLGWE_SumrA-unsplash.jpg,Stimuli/Experimental_stims/outdoor_scenes/sergey-pesterev-y-b_FOmJXdg-unsplash.jpg,0,NaN,NaN,NaN,unchosen,1400,0,8,4,50,50
276,46835,0,277,4,4,1,gain5,no_gain6,H,K,18,34,faces,body_parts,Stimuli/Experimental_stims/faces/jessica-radanavong-mrYkTuAesKE-unsplash.jpg,Stimuli/Experimental_stims/body_parts/wagner-santos-mBWMvIuVnso-unsplash.jpg,0,NaN,NaN,NaN,chosen,1000,0,8,4,50,50
277,46835,0,278,4,4,1,gain1,no_gain5,B,F,5,23,outdoor_scenes,faces,Stimuli/Experimental_stims/outdoor_scenes/jeff-king-bJHWJeiHfHc-unsplash.jpg,Stimuli/Experimental_stims/faces/rikonavt-HQjfrvdTfak-unsplash.jpg,0,NaN,NaN,NaN,chosen,1900,0,8,4,50,50
278,46835,0,279,4,4,1,gain2,no_gain6,L,K,12,41,faces,objects,Stimuli/Experimental_stims/faces/aiony-haust-jmATI5Q_YgY-unsplash.jpg,Stimuli/Experimental_stims/objects/insung-yoon-w2JtIQQXoRU-unsplash.jpg,0,NaN,NaN,NaN,unchosen,2100,0,8,4,50,50
279,46835,0,280,4,4,1,gain2,no_gain2,L,J,12,45,faces,objects,Stimuli/Experimental_stims/faces/aiony-haust-jmATI5Q_YgY-unsplash.jpg,Stimuli/Experimental_stims/objects/leohoho-rngTKHXumy0-unsplash.jpg,0,NaN,NaN,NaN,unchosen,1100,0,8,4,50,50
280,46835,0,281,4,4,1,gain3,no_gain6,I,K,9,41,outdoor_scenes,objects,Stimuli/Experimental_stims/outdoor_scenes/sergey-pesterev-y-b_FOmJXdg-unsplash.jpg,Stimuli/Experimental_stims/objects/insung-yoon-w2JtIQQXoRU-unsplash.jpg,0,NaN,NaN,NaN,unchosen,3800,1,8,4,50,50
281,46835,0,282,4,4,0,no_gain6,gain2,K,L,34,28,body_parts,body_parts,Stimuli/Experimental_stims/body_parts/wagner-santos-mBWMvIuVnso-unsplash.jpg,Stimuli/Experimental_stims/body_parts/ira-vishnevskaya-8DQAvdCby1I-unsplash.jpg,0,NaN,NaN,NaN,chosen,1200,0,8,4,50,50
282,46835,0,283,4,4,0,no_gain3,gain4,A,D,11,46,outdoor_scenes,objects,Stimuli/Experimental_stims/outdoor_scenes/stephen-leonardi-gyIRjKPXupE-unsplash.jpg,Stimuli/Experimental_stims/objects/mockup-graphics-PNsj6RiHAF4-unsplash.jpg,0,NaN,NaN,NaN,chosen,2500,0,8,4,50,50
283,46835,0,284,4,4,0,no_gain6,gain4,K,D,34,46,body_parts,objects,Stimuli/Experimental_stims/body_parts/wagner-santos-mBWMvIuVnso-unsplash.jpg,Stimuli/Experimental_stims/objects/mockup-graphics-PNsj6RiHAF4-unsplash.jpg,0,NaN,NaN,NaN,chosen,1200,0,8,4,50,50
284,46835,0,285,4,4,1,gain4,no_gain5,D,F,14,35,faces,body_parts,Stimuli/Experimental_stims/faces/david-siglin-UuW4psOb388-unsplash.jpg,Stimuli/Experimental_stims/body_parts/wc-so-KH4AAPjb-tI-unsplash.jpg,0,NaN,NaN,NaN,unchosen,1600,0,8,4,50,50
285,46835,0,286,4,4,1,gain6,no_gain5,G,F,38,23,objects,faces,Stimuli/Experimental_stims/objects/art-lasovsky-8XddFc6NkBY-unsplash.jpg,Stimuli/Experimental_stims/faces/rikonavt-HQjfrvdTfak-unsplash.jpg,0,NaN,NaN,NaN,chosen,1900,0,8,4,50,50
286,46835,0,287,4,4,1,gain2,no_gain5,L,F,28,23,body_parts,faces,Stimuli/Experimental_stims/body_parts/ira-vishnevskaya-8DQAvdCby1I-unsplash.jpg,Stimuli/Experimental_stims/faces/rikonavt-HQjfrvdTfak-unsplash.jpg,0,NaN,NaN,NaN,chosen,1000,0,8,4,50,50
287,46835,0,288,4,4,1,gain6,no_gain3,G,A,10,37,outdoor_scenes,objects,Stimuli/Experimental_stims/outdoor_scenes/shannon-kunkle-dM8INmkyDas-unsplash.jpg,Stimuli/Experimental_stims/objects/alexander-andrews-VLGWE_SumrA-unsplash.jpg,0,NaN,NaN,NaN,unchosen,5000,1,8,4,50,50
288,46835,0,289,4,4,0,no_gain4,gain1,E,B,42,5,objects,outdoor_scenes,Stimuli/Experimental_stims/objects/jess-bailey-nOeVi8DsN8U-unsplash.jpg,Stimuli/Experimental_stims/outdoor_scenes/jeff-king-bJHWJeiHfHc-unsplash.jpg,0,NaN,NaN,NaN,chosen,2400,0,8,4,50,50
289,46835,0,290,4,4,0,no_gain3,gain5,A,H,37,8,objects,outdoor_scenes,Stimuli/Experimental_stims/objects/alexander-andrews-VLGWE_SumrA-unsplash.jpg,Stimuli/Experimental_stims/outdoor_scenes/samsommer-vddccTqwal8-unsplash.jpg,0,NaN,NaN,NaN,unchosen,1500,0,8,4,50,50
290,46835,0,291,4,4,1,gain6,no_gain3,G,A,38,11,objects,outdoor_scenes,Stimuli/Experimental_stims/objects/art-lasovsky-8XddFc6NkBY-unsplash.jpg,Stimuli/Experimental_stims/outdoor_scenes/stephen-leonardi-gyIRjKPXupE-unsplash.jpg,0,NaN,NaN,NaN,chosen,1500,0,8,4,50,50
291,46835,0,292,4,4,1,gain4,no_gain4,D,E,14,30,faces,body_parts,Stimuli/Experimental_stims/faces/david-siglin-UuW4psOb388-unsplash.jpg,Stimuli/Experimental_stims/body_parts/mika-korhonen-Xodzxosar18-unsplash.jpg,0,NaN,NaN,NaN,unchosen,1300,0,8,4,50,50