,PID,practice,trial,block,run,gain_left,left_item_id,right_item_id,left_pair_id,right_pair_id,left_stimulus,right_stimulus,left_category,right_category,left_rating,right_rating,left_path,right_path,no_response,left_chosen,rt,higher_outcome_chosen,choice_type,chosen_stimulus,unchosen_stimulus,chosen_category,unchosen_category,iti,long_iti,simulation,version
0,68112,1,1,0,0,0,,,,,,,,,,,Stimuli/Practice_stims/Final_decisions/debby-hudson-FmCSSSGge-0-unsplash.jpg,Stimuli/Practice_stims/Final_decisions/yassine-khalfalli-adsQ9d_Cx0c-unsplash.jpg,0,0,496,1,,,,,,3000,0,6,1
1,68112,1,2,0,0,0,,,,,,,,,,,Stimuli/Practice_stims/Final_decisions/florian-wehde-iVW7mZPwd4g-unsplash.jpg,Stimuli/Practice_stims/Final_decisions/patrick-perkins-3wylDrjxH-E-unsplash.jpg,0,0,1475,1,,,,,,1500,0,6,1
2,68112,1,3,0,0,0,,,,,,,,,,,Stimuli/Practice_stims/Final_decisions/debby-hudson-FmCSSSGge-0-unsplash.jpg,Stimuli/Practice_stims/Final_decisions/florian-wehde-iVW7mZPwd4g-unsplash.jpg,0,0,1088,1,,,,,,2000,0,6,1
3,68112,1,4,0,0,0,,,,,,,,,,,Stimuli/Practice_stims/Final_decisions/yassine-khalfalli-adsQ9d_Cx0c-unsplash.jpg,Stimuli/Practice_stims/Final_decisions/debby-hudson-FmCSSSGge-0-unsplash.jpg,0,1,953,0,,,,,,1000,0,6,1
4,68112,0,5,1,1,0,no_gain4,gain5,E,C,40,2,objects,outdoor_scenes,35,85,Stimuli/Experimental_stims/objects/fabian-blank-pElSkGRA2NU-unsplash.jpg,Stimuli/Experimental_stims/outdoor_scenes/bruno-van-der-kraan-qez8mNJ3ilU-unsplash.jpg,0,0,977,1,chosen,2,40,outdoor_scenes,objects,1800,0,6,1
5,68112,0,6,1,1,1,gain3,no_gain6,D,B,20,7,faces,outdoor_scenes,53,53,Stimuli/Experimental_stims/faces/justin-chen-J7Cf1Gch49E-unsplash.jpg,Stimuli/Experimental_stims/outdoor_scenes/petr-vysohlid-9fqwGqGLUxc-unsplash.jpg,0,1,1016,1,chosen,20,7,faces,outdoor_scenes,1700,0,6,1
6,68112,0,7,1,1,1,gain6,no_gain3,H,K,17,25,faces,body_parts,4,13,Stimuli/Experimental_stims/faces/good-faces-xmSWVeGEnJw-unsplash.jpg,Stimuli/Experimental_stims/body_parts/engin-akyurt-Q2rfH3GW39c-unsplash.jpg,1,NaN,,NaN,unchosen,NaN,NaN,NaN,NaN,2300,0,6,1
7,68112,0,8,1,1,0,no_gain2,gain3,G,D,9,20,outdoor_scenes,faces,81,53,Stimuli/Experimental_stims/outdoor_scenes/sergey-pesterev-y-b_FOmJXdg-unsplash.jpg,Stimuli/Experimental_stims/faces/justin-chen-J7Cf1Gch49E-unsplash.jpg,0,0,843,1,chosen,20,9,faces,outdoor_scenes,1700,0,6,1
8,68112,0,9,1,1,1,gain4,no_gain5,J,F,21,35,faces,body_parts,0,5,Stimuli/Experimental_stims/faces/leilani-angel-K84vnnzxmTQ-unsplash.jpg,Stimuli/Experimental_stims/body_parts/wc-so-KH4AAPjb-tI-unsplash.jpg,0,1,829,1,unchosen,21,35,faces,body_parts,3900,1,6,1
9,68112,0,10,1,1,1,gain2,no_gain5,A,F,42,35,objects,body_parts,18,5,Stimuli/Experimental_stims/objects/jess-bailey-nOeVi8DsN8U-unsplash.jpg,Stimuli/Experimental_stims/body_parts/wc-so-KH4AAPjb-tI-unsplash.jpg,0,0,1346,0,unchosen,35,42,body_parts,objects,1200,0,6,1
10,68112,0,11,1,1,1,gain2,no_gain5,A,F,0,15,outdoor_scenes,faces,63,19,Stimuli/Experimental_stims/outdoor_scenes/aleksandra-boguslawska-MS7KD9Ti7FQ-unsplash.jpg,Stimuli/Experimental_stims/faces/erik-lucatero-d2MSDujJl2g-unsplash.jpg,0,1,886,1,chosen,0,15,outdoor_scenes,faces,1200,0,6,1
11,68112,0,12,1,1,0,no_gain5,gain5,F,C,15,2,faces,outdoor_scenes,19,85,Stimuli/Experimental_stims/faces/erik-lucatero-d2MSDujJl2g-unsplash.jpg,Stimuli/Experimental_stims/outdoor_scenes/bruno-van-der-kraan-qez8mNJ3ilU-unsplash.jpg,0,0,725,1,chosen,2,15,outdoor_scenes,faces,2600,0,6,1
12,68112,0,13,1,1,0,no_gain1,gain4,I,J,28,21,body_parts,faces,41,0,Stimuli/Experimental_stims/body_parts/ira-vishnevskaya-8DQAvdCby1I-unsplash.jpg,Stimuli/Experimental_stims/faces/leilani-angel-K84vnnzxmTQ-unsplash.jpg,0,0,1120,1,unchosen,21,28,faces,body_parts,2200,0,6,1
13,68112,0,14,1,1,1,gain4,no_gain6,J,B,45,7,objects,outdoor_scenes,58,53,Stimuli/Experimental_stims/objects/leohoho-rngTKHXumy0-unsplash.jpg,Stimuli/Experimental_stims/outdoor_scenes/petr-vysohlid-9fqwGqGLUxc-unsplash.jpg,0,1,691,1,chosen,45,7,objects,outdoor_scenes,1700,0,6,1
14,68112,0,15,1,1,1,gain4,no_gain4,J,E,45,40,objects,objects,58,35,Stimuli/Experimental_stims/objects/leohoho-rngTKHXumy0-unsplash.jpg,Stimuli/Experimental_stims/objects/fabian-blank-pElSkGRA2NU-unsplash.jpg,0,1,1233,1,chosen,45,40,objects,objects,3100,1,6,1
15,68112,0,16,1,1,1,gain2,no_gain1,A,I,42,28,objects,body_parts,18,41,Stimuli/Experimental_stims/objects/jess-bailey-nOeVi8DsN8U-unsplash.jpg,Stimuli/Experimental_stims/body_parts/ira-vishnevskaya-8DQAvdCby1I-unsplash.jpg,0,1,1127,1,unchosen,42,28,objects,body_parts,2100,0,6,1
16,68112,0,17,1,1,0,no_gain2,gain5,G,C,9,2,outdoor_scenes,outdoor_scenes,81,85,Stimuli/Experimental_stims/outdoor_scenes/sergey-pesterev-y-b_FOmJXdg-unsplash.jpg,Stimuli/Experimental_stims/outdoor_scenes/bruno-van-der-kraan-qez8mNJ3ilU-unsplash.jpg,0,0,787,1,chosen,2,9,outdoor_scenes,outdoor_scenes,1900,0,6,1
17,68112,0,18,1,1,0,no_gain1,gain5,I,C,11,2,outdoor_scenes,outdoor_scenes,76,85,Stimuli/Experimental_stims/outdoor_scenes/stephen-leonardi-gyIRjKPXupE-unsplash.jpg,Stimuli/Experimental_stims/outdoor_scenes/bruno-van-der-kraan-qez8mNJ3ilU-unsplash.jpg,0,0,1142,1,chosen,2,11,outdoor_scenes,outdoor_scenes,1400,0,6,1
18,68112,0,19,1,1,1,gain3,no_gain5,D,F,20,15,faces,faces,53,19,Stimuli/Experimental_stims/faces/justin-chen-J7Cf1Gch49E-unsplash.jpg,Stimuli/Experimental_stims/faces/erik-lucatero-d2MSDujJl2g-unsplash.jpg,0,1,837,1,chosen,20,15,faces,faces,1500,0,6,1
19,68112,0,20,1,1,0,no_gain4,gain2,E,A,29,42,body_parts,objects,0,18,Stimuli/Experimental_stims/body_parts/manuel-schinner-ZwjFuJ7ebpk-unsplash.jpg,Stimuli/Experimental_stims/objects/jess-bailey-nOeVi8DsN8U-unsplash.jpg,0,1,1298,0,unchosen,29,42,body_parts,objects,1600,0,6,1
20,68112,0,21,1,1,0,no_gain1,gain3,I,D,11,20,outdoor_scenes,faces,76,53,Stimuli/Experimental_stims/outdoor_scenes/stephen-leonardi-gyIRjKPXupE-unsplash.jpg,Stimuli/Experimental_stims/faces/justin-chen-J7Cf1Gch49E-unsplash.jpg,0,0,867,1,chosen,20,11,faces,outdoor_scenes,3200,1,6,1
21,68112,0,22,1,1,1,gain5,no_gain5,C,F,34,35,body_parts,body_parts,45,5,Stimuli/Experimental_stims/body_parts/wagner-santos-mBWMvIuVnso-unsplash.jpg,Stimuli/Experimental_stims/body_parts/wc-so-KH4AAPjb-tI-unsplash.jpg,0,1,993,1,unchosen,34,35,body_parts,body_parts,1900,0,6,1
22,68112,0,23,1,1,0,no_gain6,gain6,B,H,23,17,faces,faces,24,4,Stimuli/Experimental_stims/faces/rikonavt-HQjfrvdTfak-unsplash.jpg,Stimuli/Experimental_stims/faces/good-faces-xmSWVeGEnJw-unsplash.jpg,0,0,1052,1,unchosen,17,23,faces,faces,1600,0,6,1
23,68112,0,24,1,1,0,no_gain6,gain2,B,A,7,0,outdoor_scenes,outdoor_scenes,53,63,Stimuli/Experimental_stims/outdoor_scenes/petr-vysohlid-9fqwGqGLUxc-unsplash.jpg,Stimuli/Experimental_stims/outdoor_scenes/aleksandra-boguslawska-MS7KD9Ti7FQ-unsplash.jpg,0,0,725,1,chosen,0,7,outdoor_scenes,outdoor_scenes,1100,0,6,1
24,68112,0,25,1,1,1,gain4,no_gain2,J,G,21,39,faces,objects,0,77,Stimuli/Experimental_stims/faces/leilani-angel-K84vnnzxmTQ-unsplash.jpg,Stimuli/Experimental_stims/objects/charlesdeluvio-1-nx1QR5dTE-unsplash.jpg,0,1,1195,1,unchosen,21,39,faces,objects,2200,0,6,1
25,68112,0,26,1,1,1,gain2,no_gain3,A,K,42,25,objects,body_parts,18,13,Stimuli/Experimental_stims/objects/jess-bailey-nOeVi8DsN8U-unsplash.jpg,Stimuli/Experimental_stims/body_parts/engin-akyurt-Q2rfH3GW39c-unsplash.jpg,0,1,1364,1,unchosen,42,25,objects,body_parts,3300,1,6,1
26,68112,0,27,1,1,0,no_gain2,gain4,G,J,9,45,outdoor_scenes,objects,81,58,Stimuli/Experimental_stims/outdoor_scenes/sergey-pesterev-y-b_FOmJXdg-unsplash.jpg,Stimuli/Experimental_stims/objects/leohoho-rngTKHXumy0-unsplash.jpg,0,0,597,1,chosen,45,9,objects,outdoor_scenes,2100,0,6,1
27,68112,0,28,1,1,0,no_gain2,gain2,G,A,39,42,objects,objects,77,18,Stimuli/Experimental_stims/objects/charlesdeluvio-1-nx1QR5dTE-unsplash.jpg,Stimuli/Experimental_stims/objects/jess-bailey-nOeVi8DsN8U-unsplash.jpg,1,NaN,,NaN,unchosen,NaN,NaN,NaN,NaN,1000,0,6,1
28,68112,0,29,1,1,0,no_gain4,gain3,E,D,29,43,body_parts,objects,0,10,Stimuli/Experimental_stims/body_parts/manuel-schinner-ZwjFuJ7ebpk-unsplash.jpg,Stimuli/Experimental_stims/objects/jonathan-greenaway-Y4hGgeiFn3s-unsplash.jpg,0,1,983,0,unchosen,29,43,body_parts,objects,2600,0,6,1
29,68112,0,30,1,1,0,no_gain3,gain2,K,A,47,0,objects,outdoor_scenes,22,63,Stimuli/Experimental_stims/objects/ronaldo-arthur-vidal-Cdz_lvnl37k-unsplash.jpg,Stimuli/Experimental_stims/outdoor_scenes/aleksandra-boguslawska-MS7KD9Ti7FQ-unsplash.jpg,0,0,648,1,chosen,0,47,outdoor_scenes,objects,1500,0,6,1
30,68112,0,31,1,1,1,gain5,no_gain4,C,E,34,29,body_parts,body_parts,45,0,Stimuli/Experimental_stims/body_parts/wagner-santos-mBWMvIuVnso-unsplash.jpg,Stimuli/Experimental_stims/body_parts/manuel-schinner-ZwjFuJ7ebpk-unsplash.jpg,0,1,641,1,unchosen,34,29,body_parts,body_parts,1200,0,6,1
31,68112,0,32,1,1,0,no_gain3,gain5,K,C,25,34,body_parts,body_parts,13,45,Stimuli/Experimental_stims/body_parts/engin-akyurt-Q2rfH3GW39c-unsplash.jpg,Stimuli/Experimental_stims/body_parts/wagner-santos-mBWMvIuVnso-unsplash.jpg,0,0,696,1,unchosen,34,25,body_parts,body_parts,2100,0,6,1
32,68112,0,33,1,1,0,no_gain5,gain4,F,J,15,45,faces,objects,19,58,Stimuli/Experimental_stims/faces/erik-lucatero-d2MSDujJl2g-unsplash.jpg,Stimuli/Experimental_stims/objects/leohoho-rngTKHXumy0-unsplash.jpg,0,0,553,1,chosen,45,15,objects,faces,4300,1,6,1
33,68112,0,34,1,1,0,no_gain1,gain5,I,C,28,34,body_parts,body_parts,41,45,Stimuli/Experimental_stims/body_parts/ira-vishnevskaya-8DQAvdCby1I-unsplash.jpg,Stimuli/Experimental_stims/body_parts/wagner-santos-mBWMvIuVnso-unsplash.jpg,0,0,619,1,unchosen,34,28,body_parts,body_parts,1000,0,6,1
34,68112,0,35,1,1,1,gain1,no_gain3,L,K,13,47,faces,objects,46,22,Stimuli/Experimental_stims/faces/daniel-rigdon-dXmXKPP2L4E-unsplash.jpg,Stimuli/Experimental_stims/objects/ronaldo-arthur-vidal-Cdz_lvnl37k-unsplash.jpg,0,1,1063,1,chosen,13,47,faces,objects,2300,0,6,1
35,68112,0,36,1,1,0,no_gain6,gain5,B,C,23,34,faces,body_parts,24,45,Stimuli/Experimental_stims/faces/rikonavt-HQjfrvdTfak-unsplash.jpg,Stimuli/Experimental_stims/body_parts/wagner-santos-mBWMvIuVnso-unsplash.jpg,0,1,910,0,unchosen,23,34,faces,body_parts,1200,0,6,1
36,68112,0,37,1,1,1,gain6,no_gain1,H,I,10,11,outdoor_scenes,outdoor_scenes,84,76,Stimuli/Experimental_stims/outdoor_scenes/shannon-kunkle-dM8INmkyDas-unsplash.jpg,Stimuli/Experimental_stims/outdoor_scenes/stephen-leonardi-gyIRjKPXupE-unsplash.jpg,0,1,1082,1,chosen,10,11,outdoor_scenes,outdoor_scenes,1300,0,6,1
37,68112,0,38,1,1,1,gain4,no_gain3,J,K,45,47,objects,objects,58,22,Stimuli/Experimental_stims/objects/leohoho-rngTKHXumy0-unsplash.jpg,Stimuli/Experimental_stims/objects/ronaldo-arthur-vidal-Cdz_lvnl37k-unsplash.jpg,0,1,650,1,chosen,45,47,objects,objects,1700,0,6,1
38,68112,0,39,1,1,1,gain1,no_gain5,L,F,13,15,faces,faces,46,19,Stimuli/Experimental_stims/faces/daniel-rigdon-dXmXKPP2L4E-unsplash.jpg,Stimuli/Experimental_stims/faces/erik-lucatero-d2MSDujJl2g-unsplash.jpg,0,1,643,1,chosen,13,15,faces,faces,1300,0,6,1
39,68112,0,40,1,1,0,no_gain6,gain3,B,D,23,43,faces,objects,24,10,Stimuli/Experimental_stims/faces/rikonavt-HQjfrvdTfak-unsplash.jpg,Stimuli/Experimental_stims/objects/jonathan-greenaway-Y4hGgeiFn3s-unsplash.jpg,0,1,844,0,unchosen,23,43,faces,objects,1200,0,6,1
40,68112,0,41,1,1,0,no_gain2,gain1,G,L,9,13,outdoor_scenes,faces,81,46,Stimuli/Experimental_stims/outdoor_scenes/sergey-pesterev-y-b_FOmJXdg-unsplash.jpg,Stimuli/Experimental_stims/faces/daniel-rigdon-dXmXKPP2L4E-unsplash.jpg,0,0,772,1,chosen,13,9,faces,outdoor_scenes,1900,0,6,1
41,68112,0,42,1,1,1,gain4,no_gain3,J,K,21,25,faces,body_parts,0,13,Stimuli/Experimental_stims/faces/leilani-angel-K84vnnzxmTQ-unsplash.jpg,Stimuli/Experimental_stims/body_parts/engin-akyurt-Q2rfH3GW39c-unsplash.jpg,0,1,808,1,unchosen,21,25,faces,body_parts,1200,0,6,1
42,68112,0,43,1,1,1,gain6,no_gain6,H,B,10,7,outdoor_scenes,outdoor_scenes,84,53,Stimuli/Experimental_stims/outdoor_scenes/shannon-kunkle-dM8INmkyDas-unsplash.jpg,Stimuli/Experimental_stims/outdoor_scenes/petr-vysohlid-9fqwGqGLUxc-unsplash.jpg,0,1,708,1,chosen,10,7,outdoor_scenes,outdoor_scenes,4000,1,6,1
43,68112,0,44,1,1,0,no_gain3,gain3,K,D,47,20,objects,faces,22,53,Stimuli/Experimental_stims/objects/ronaldo-arthur-vidal-Cdz_lvnl37k-unsplash.jpg,Stimuli/Experimental_stims/faces/justin-chen-J7Cf1Gch49E-unsplash.jpg,0,0,851,1,chosen,20,47,faces,objects,2300,0,6,1
44,68112,0,45,1,1,1,gain2,no_gain6,A,B,42,23,objects,faces,18,24,Stimuli/Experimental_stims/objects/jess-bailey-nOeVi8DsN8U-unsplash.jpg,Stimuli/Experimental_stims/faces/rikonavt-HQjfrvdTfak-unsplash.jpg,0,0,711,0,unchosen,23,42,faces,objects,1500,0,6,1
45,68112,0,46,1,1,0,no_gain1,gain1,I,L,11,13,outdoor_scenes,faces,76,46,Stimuli/Experimental_stims/outdoor_scenes/stephen-leonardi-gyIRjKPXupE-unsplash.jpg,Stimuli/Experimental_stims/faces/daniel-rigdon-dXmXKPP2L4E-unsplash.jpg,0,0,902,1,chosen,13,11,faces,outdoor_scenes,1100,0,6,1
46,68112,0,47,1,1,0,no_gain5,gain6,F,H,35,17,body_parts,faces,5,4,Stimuli/Experimental_stims/body_parts/wc-so-KH4AAPjb-tI-unsplash.jpg,Stimuli/Experimental_stims/faces/good-faces-xmSWVeGEnJw-unsplash.jpg,0,0,1090,1,unchosen,17,35,faces,body_parts,1100,0,6,1
47,68112,0,48,1,1,0,no_gain5,gain6,F,H,15,10,faces,outdoor_scenes,19,84,Stimuli/Experimental_stims/faces/erik-lucatero-d2MSDujJl2g-unsplash.jpg,Stimuli/Experimental_stims/outdoor_scenes/shannon-kunkle-dM8INmkyDas-unsplash.jpg,0,0,773,1,chosen,10,15,outdoor_scenes,faces,3200,1,6,1
48,68112,0,49,1,1,0,no_gain2,gain6,G,H,39,17,objects,faces,77,4,Stimuli/Experimental_stims/objects/charlesdeluvio-1-nx1QR5dTE-unsplash.jpg,Stimuli/Experimental_stims/faces/good-faces-xmSWVeGEnJw-unsplash.jpg,0,0,723,1,unchosen,17,39,faces,objects,1900,0,6,1
49,68112,0,50,1,1,1,gain4,no_gain4,J,E,21,29,faces,body_parts,0,0,Stimuli/Experimental_stims/faces/leilani-angel-K84vnnzxmTQ-unsplash.jpg,Stimuli/Experimental_stims/body_parts/manuel-schinner-ZwjFuJ7ebpk-unsplash.jpg,0,1,1015,1,unchosen,21,29,faces,body_parts,2300,0,6,1
50,68112,0,51,1,1,1,gain6,no_gain4,H,E,17,29,faces,body_parts,4,0,Stimuli/Experimental_stims/faces/good-faces-xmSWVeGEnJw-unsplash.jpg,Stimuli/Experimental_stims/body_parts/manuel-schinner-ZwjFuJ7ebpk-unsplash.jpg,0,1,830,1,unchosen,17,29,faces,body_parts,1200,0,6,1
51,68112,0,52,1,1,0,no_gain6,gain1,B,L,7,13,outdoor_scenes,faces,53,46,Stimuli/Experimental_stims/outdoor_scenes/petr-vysohlid-9fqwGqGLUxc-unsplash.jpg,Stimuli/Experimental_stims/faces/daniel-rigdon-dXmXKPP2L4E-unsplash.jpg,0,0,1236,1,chosen,13,7,faces,outdoor_scenes,2400,0,6,1
52,68112,0,53,1,1,1,gain2,no_gain1,A,I,0,11,outdoor_scenes,outdoor_scenes,63,76,Stimuli/Experimental_stims/outdoor_scenes/aleksandra-boguslawska-MS7KD9Ti7FQ-unsplash.jpg,Stimuli/Experimental_stims/outdoor_scenes/stephen-leonardi-gyIRjKPXupE-unsplash.jpg,0,1,688,1,chosen,0,11,outdoor_scenes,outdoor_scenes,1600,0,6,1
53,68112,0,54,1,1,1,gain5,no_gain6,C,B,2,7,outdoor_scenes,outdoor_scenes,85,53,Stimuli/Experimental_stims/outdoor_scenes/bruno-van-der-kraan-qez8mNJ3ilU-unsplash.jpg,Stimuli/Experimental_stims/outdoor_scenes/petr-vysohlid-9fqwGqGLUxc-unsplash.jpg,0,1,1185,1,chosen,2,7,outdoor_scenes,outdoor_scenes,3100,1,6,1
54,68112,0,55,1,1,0,no_gain5,gain1,F,L,35,31,body_parts,body_parts,5,13,Stimuli/Experimental_stims/body_parts/wc-so-KH4AAPjb-tI-unsplash.jpg,Stimuli/Experimental_stims/body_parts/sincerely-media-VN6DbKajo5s-unsplash.jpg,0,0,941,1,unchosen,31,35,body_parts,body_parts,2300,0,6,1
55,68112,0,56,1,1,1,gain2,no_gain2,A,G,0,9,outdoor_scenes,outdoor_scenes,63,81,Stimuli/Experimental_stims/outdoor_scenes/aleksandra-boguslawska-MS7KD9Ti7FQ-unsplash.jpg,Stimuli/Experimental_stims/outdoor_scenes/sergey-pesterev-y-b_FOmJXdg-unsplash.jpg,0,1,607,1,chosen,0,9,outdoor_scenes,outdoor_scenes,2600,0,6,1
56,68112,0,57,1,1,1,gain3,no_gain2,D,G,43,39,objects,objects,10,77,Stimuli/Experimental_stims/objects/jonathan-greenaway-Y4hGgeiFn3s-unsplash.jpg,Stimuli/Experimental_stims/objects/charlesdeluvio-1-nx1QR5dTE-unsplash.jpg,0,0,654,0,unchosen,39,43,objects,objects,1700,0,6,1
57,68112,0,58,1,1,0,no_gain1,gain3,I,D,28,43,body_parts,objects,41,10,Stimuli/Experimental_stims/body_parts/ira-vishnevskaya-8DQAvdCby1I-unsplash.jpg,Stimuli/Experimental_stims/objects/jonathan-greenaway-Y4hGgeiFn3s-unsplash.jpg,0,1,772,0,unchosen,28,43,body_parts,objects,1100,0,6,1
58,68112,0,59,1,1,1,gain6,no_gain4,H,E,10,40,outdoor_scenes,objects,84,35,Stimuli/Experimental_stims/outdoor_scenes/shannon-kunkle-dM8INmkyDas-unsplash.jpg,Stimuli/Experimental_stims/objects/fabian-blank-pElSkGRA2NU-unsplash.jpg,0,1,674,1,chosen,10,40,outdoor_scenes,objects,2600,0,6,1
59,68112,0,60,1,1,1,gain6,no_gain1,H,I,17,28,faces,body_parts,4,41,Stimuli/Experimental_stims/faces/good-faces-xmSWVeGEnJw-unsplash.jpg,Stimuli/Experimental_stims/body_parts/ira-vishnevskaya-8DQAvdCby1I-unsplash.jpg,0,1,541,1,unchosen,17,28,faces,body_parts,1000,0,6,1
60,68112,0,61,1,1,1,gain1,no_gain3,L,K,31,25,body_parts,body_parts,13,13,Stimuli/Experimental_stims/body_parts/sincerely-media-VN6DbKajo5s-unsplash.jpg,Stimuli/Experimental_stims/body_parts/engin-akyurt-Q2rfH3GW39c-unsplash.jpg,0,1,1257,1,unchosen,31,25,body_parts,body_parts,2400,0,6,1
61,68112,0,62,1,1,0,no_gain6,gain4,B,J,23,21,faces,faces,24,0,Stimuli/Experimental_stims/faces/rikonavt-HQjfrvdTfak-unsplash.jpg,Stimuli/Experimental_stims/faces/leilani-angel-K84vnnzxmTQ-unsplash.jpg,0,1,762,0,unchosen,23,21,faces,faces,3500,1,6,1
62,68112,0,63,1,1,1,gain6,no_gain3,H,K,10,47,outdoor_scenes,objects,84,22,Stimuli/Experimental_stims/outdoor_scenes/shannon-kunkle-dM8INmkyDas-unsplash.jpg,Stimuli/Experimental_stims/objects/ronaldo-arthur-vidal-Cdz_lvnl37k-unsplash.jpg,0,1,686,1,chosen,10,47,outdoor_scenes,objects,1700,0,6,1
63,68112,0,64,1,1,1,gain2,no_gain4,A,E,0,40,outdoor_scenes,objects,63,35,Stimuli/Experimental_stims/outdoor_scenes/aleksandra-boguslawska-MS7KD9Ti7FQ-unsplash.jpg,Stimuli/Experimental_stims/objects/fabian-blank-pElSkGRA2NU-unsplash.jpg,0,1,655,1,chosen,0,40,outdoor_scenes,objects,1200,0,6,1
64,68112,0,65,1,1,0,no_gain6,gain1,B,L,23,31,faces,body_parts,24,13,Stimuli/Experimental_stims/faces/rikonavt-HQjfrvdTfak-unsplash.jpg,Stimuli/Experimental_stims/body_parts/sincerely-media-VN6DbKajo5s-unsplash.jpg,0,1,896,0,unchosen,23,31,faces,body_parts,1600,0,6,1
65,68112,0,66,1,1,0,no_gain4,gain1,E,L,29,31,body_parts,body_parts,0,13,Stimuli/Experimental_stims/body_parts/manuel-schinner-ZwjFuJ7ebpk-unsplash.jpg,Stimuli/Experimental_stims/body_parts/sincerely-media-VN6DbKajo5s-unsplash.jpg,0,1,1397,0,unchosen,29,31,body_parts,body_parts,1200,0,6,1
66,68112,0,67,1,1,1,gain5,no_gain2,C,G,34,39,body_parts,objects,45,77,Stimuli/Experimental_stims/body_parts/wagner-santos-mBWMvIuVnso-unsplash.jpg,Stimuli/Experimental_stims/objects/charlesdeluvio-1-nx1QR5dTE-unsplash.jpg,0,1,896,1,unchosen,34,39,body_parts,objects,3400,1,6,1
67,68112,0,68,1,1,0,no_gain1,gain4,I,J,11,45,outdoor_scenes,objects,76,58,Stimuli/Experimental_stims/outdoor_scenes/stephen-leonardi-gyIRjKPXupE-unsplash.jpg,Stimuli/Experimental_stims/objects/leohoho-rngTKHXumy0-unsplash.jpg,0,0,590,1,chosen,45,11,objects,outdoor_scenes,1900,0,6,1
68,68112,0,69,1,1,1,gain6,no_gain2,H,G,10,9,outdoor_scenes,outdoor_scenes,84,81,Stimuli/Experimental_stims/outdoor_scenes/shannon-kunkle-dM8INmkyDas-unsplash.jpg,Stimuli/Experimental_stims/outdoor_scenes/sergey-pesterev-y-b_FOmJXdg-unsplash.jpg,0,1,571,1,chosen,10,9,outdoor_scenes,outdoor_scenes,2200,0,6,1
69,68112,0,70,1,1,1,gain5,no_gain3,C,K,2,47,outdoor_scenes,objects,85,22,Stimuli/Experimental_stims/outdoor_scenes/bruno-van-der-kraan-qez8mNJ3ilU-unsplash.jpg,Stimuli/Experimental_stims/objects/ronaldo-arthur-vidal-Cdz_lvnl37k-unsplash.jpg,0,1,1228,1,chosen,2,47,outdoor_scenes,objects,1100,0,6,1
70,68112,0,71,1,1,0,no_gain1,gain1,I,L,28,31,body_parts,body_parts,41,13,Stimuli/Experimental_stims/body_parts/ira-vishnevskaya-8DQAvdCby1I-unsplash.jpg,Stimuli/Experimental_stims/body_parts/sincerely-media-VN6DbKajo5s-unsplash.jpg,0,0,930,1,unchosen,31,28,body_parts,body_parts,2600,0,6,1
71,68112,0,72,1,1,1,gain1,no_gain2,L,G,31,39,body_parts,objects,13,77,Stimuli/Experimental_stims/body_parts/sincerely-media-VN6DbKajo5s-unsplash.jpg,Stimuli/Experimental_stims/objects/charlesdeluvio-1-nx1QR5dTE-unsplash.jpg,1,NaN,,NaN,unchosen,NaN,NaN,NaN,NaN,2100,0,6,1
72,68112,0,73,1,1,0,no_gain3,gain3,K,D,25,43,body_parts,objects,13,10,Stimuli/Experimental_stims/body_parts/engin-akyurt-Q2rfH3GW39c-unsplash.jpg,Stimuli/Experimental_stims/objects/jonathan-greenaway-Y4hGgeiFn3s-unsplash.jpg,0,1,806,0,unchosen,25,43,body_parts,objects,1600,0,6,1
73,68112,0,74,1,1,0,no_gain4,gain1,E,L,40,13,objects,faces,35,46,Stimuli/Experimental_stims/objects/fabian-blank-pElSkGRA2NU-unsplash.jpg,Stimuli/Experimental_stims/faces/daniel-rigdon-dXmXKPP2L4E-unsplash.jpg,0,0,678,1,chosen,13,40,faces,objects,1200,0,6,1
74,68112,0,75,1,1,1,gain3,no_gain5,D,F,43,35,objects,body_parts,10,5,Stimuli/Experimental_stims/objects/jonathan-greenaway-Y4hGgeiFn3s-unsplash.jpg,Stimuli/Experimental_stims/body_parts/wc-so-KH4AAPjb-tI-unsplash.jpg,0,1,928,1,unchosen,43,35,objects,body_parts,2600,0,6,1
75,68112,0,76,1,1,0,no_gain4,gain3,E,D,40,20,objects,faces,35,53,Stimuli/Experimental_stims/objects/fabian-blank-pElSkGRA2NU-unsplash.jpg,Stimuli/Experimental_stims/faces/justin-chen-J7Cf1Gch49E-unsplash.jpg,0,0,705,1,chosen,20,40,faces,objects,3600,1,6,1
76,68112,0,77,2,2,1,gain4,no_gain6,J,B,21,23,faces,faces,0,24,Stimuli/Experimental_stims/faces/leilani-angel-K84vnnzxmTQ-unsplash.jpg,Stimuli/Experimental_stims/faces/rikonavt-HQjfrvdTfak-unsplash.jpg,0,0,1335,0,unchosen,23,21,faces,faces,3100,1,4,1
77,68112,0,78,2,2,1,gain3,no_gain1,D,I,20,11,faces,outdoor_scenes,53,76,Stimuli/Experimental_stims/faces/justin-chen-J7Cf1Gch49E-unsplash.jpg,Stimuli/Experimental_stims/outdoor_scenes/stephen-leonardi-gyIRjKPXupE-unsplash.jpg,0,1,573,1,chosen,20,11,faces,outdoor_scenes,2600,0,4,1
78,68112,0,79,2,2,0,no_gain5,gain5,F,C,15,2,faces,outdoor_scenes,19,85,Stimuli/Experimental_stims/faces/erik-lucatero-d2MSDujJl2g-unsplash.jpg,Stimuli/Experimental_stims/outdoor_scenes/bruno-van-der-kraan-qez8mNJ3ilU-unsplash.jpg,0,0,1195,1,chosen,2,15,outdoor_scenes,faces,1800,0,4,1
79,68112,0,80,2,2,0,no_gain5,gain2,F,A,35,42,body_parts,objects,5,18,Stimuli/Experimental_stims/body_parts/wc-so-KH4AAPjb-tI-unsplash.jpg,Stimuli/Experimental_stims/objects/jess-bailey-nOeVi8DsN8U-unsplash.jpg,0,0,1077,1,unchosen,42,35,objects,body_parts,1000,0,4,1
80,68112,0,81,2,2,0,no_gain5,gain6,F,H,15,10,faces,outdoor_scenes,19,84,Stimuli/Experimental_stims/faces/erik-lucatero-d2MSDujJl2g-unsplash.jpg,Stimuli/Experimental_stims/outdoor_scenes/shannon-kunkle-dM8INmkyDas-unsplash.jpg,0,0,653,1,chosen,10,15,outdoor_scenes,faces,2300,0,4,1
81,68112,0,82,2,2,1,gain2,no_gain1,A,I,0,11,outdoor_scenes,outdoor_scenes,63,76,Stimuli/Experimental_stims/outdoor_scenes/aleksandra-boguslawska-MS7KD9Ti7FQ-unsplash.jpg,Stimuli/Experimental_stims/outdoor_scenes/stephen-leonardi-gyIRjKPXupE-unsplash.jpg,0,1,701,1,chosen,0,11,outdoor_scenes,outdoor_scenes,1100,0,4,1
82,68112,0,83,2,2,1,gain6,no_gain4,H,E,10,40,outdoor_scenes,objects,84,35,Stimuli/Experimental_stims/outdoor_scenes/shannon-kunkle-dM8INmkyDas-unsplash.jpg,Stimuli/Experimental_stims/objects/fabian-blank-pElSkGRA2NU-unsplash.jpg,0,1,642,1,chosen,10,40,outdoor_scenes,objects,1500,0,4,1
83,68112,0,84,2,2,1,gain1,no_gain4,L,E,31,29,body_parts,body_parts,13,0,Stimuli/Experimental_stims/body_parts/sincerely-media-VN6DbKajo5s-unsplash.jpg,Stimuli/Experimental_stims/body_parts/manuel-schinner-ZwjFuJ7ebpk-unsplash.jpg,0,0,1053,0,unchosen,29,31,body_parts,body_parts,2400,0,4,1
84,68112,0,85,2,2,0,no_gain2,gain2,G,A,39,42,objects,objects,77,18,Stimuli/Experimental_stims/objects/charlesdeluvio-1-nx1QR5dTE-unsplash.jpg,Stimuli/Experimental_stims/objects/jess-bailey-nOeVi8DsN8U-unsplash.jpg,0,1,633,0,unchosen,39,42,objects,objects,2300,0,4,1
85,68112,0,86,2,2,1,gain6,no_gain3,H,K,10,47,outdoor_scenes,objects,84,22,Stimuli/Experimental_stims/outdoor_scenes/shannon-kunkle-dM8INmkyDas-unsplash.jpg,Stimuli/Experimental_stims/objects/ronaldo-arthur-vidal-Cdz_lvnl37k-unsplash.jpg,0,1,559,1,chosen,10,47,outdoor_scenes,objects,1200,0,4,1
86,68112,0,87,2,2,0,no_gain5,gain4,F,J,35,21,body_parts,faces,5,0,Stimuli/Experimental_stims/body_parts/wc-so-KH4AAPjb-tI-unsplash.jpg,Stimuli/Experimental_stims/faces/leilani-angel-K84vnnzxmTQ-unsplash.jpg,0,0,857,1,unchosen,21,35,faces,body_parts,1300,0,4,1
87,68112,0,88,2,2,1,gain2,no_gain2,A,G,0,9,outdoor_scenes,outdoor_scenes,63,81,Stimuli/Experimental_stims/outdoor_scenes/aleksandra-boguslawska-MS7KD9Ti7FQ-unsplash.jpg,Stimuli/Experimental_stims/outdoor_scenes/sergey-pesterev-y-b_FOmJXdg-unsplash.jpg,0,0,747,0,chosen,9,0,outdoor_scenes,outdoor_scenes,3700,1,4,1
88,68112,0,89,2,2,1,gain5,no_gain3,C,K,2,47,outdoor_scenes,objects,85,22,Stimuli/Experimental_stims/outdoor_scenes/bruno-van-der-kraan-qez8mNJ3ilU-unsplash.jpg,Stimuli/Experimental_stims/objects/ronaldo-arthur-vidal-Cdz_lvnl37k-unsplash.jpg,0,1,586,1,chosen,2,47,outdoor_scenes,objects,1600,0,4,1
89,68112,0,90,2,2,0,no_gain3,gain1,K,L,47,13,objects,faces,22,46,Stimuli/Experimental_stims/objects/ronaldo-arthur-vidal-Cdz_lvnl37k-unsplash.jpg,Stimuli/Experimental_stims/faces/daniel-rigdon-dXmXKPP2L4E-unsplash.jpg,0,0,712,1,chosen,13,47,faces,objects,1700,0,4,1
90,68112,0,91,2,2,0,no_gain2,gain1,G,L,39,31,objects,body_parts,77,13,Stimuli/Experimental_stims/objects/charlesdeluvio-1-nx1QR5dTE-unsplash.jpg,Stimuli/Experimental_stims/body_parts/sincerely-media-VN6DbKajo5s-unsplash.jpg,0,0,885,1,unchosen,31,39,body_parts,objects,1200,0,4,1
91,68112,0,92,2,2,0,no_gain6,gain5,B,C,7,2,outdoor_scenes,outdoor_scenes,53,85,Stimuli/Experimental_stims/outdoor_scenes/petr-vysohlid-9fqwGqGLUxc-unsplash.jpg,Stimuli/Experimental_stims/outdoor_scenes/bruno-van-der-kraan-qez8mNJ3ilU-unsplash.jpg,0,0,965,1,chosen,2,7,outdoor_scenes,outdoor_scenes,1100,0,4,1
92,68112,0,93,2,2,0,no_gain4,gain3,E,D,40,20,objects,faces,35,53,Stimuli/Experimental_stims/objects/fabian-blank-pElSkGRA2NU-unsplash.jpg,Stimuli/Experimental_stims/faces/justin-chen-J7Cf1Gch49E-unsplash.jpg,0,0,877,1,chosen,20,40,faces,objects,1300,0,4,1
93,68112,0,94,2,2,1,gain4,no_gain5,J,F,45,15,objects,faces,58,19,Stimuli/Experimental_stims/objects/leohoho-rngTKHXumy0-unsplash.jpg,Stimuli/Experimental_stims/faces/erik-lucatero-d2MSDujJl2g-unsplash.jpg,0,1,755,1,chosen,45,15,objects,faces,4500,1,4,1
94,68112,0,95,2,2,0,no_gain5,gain1,F,L,35,31,body_parts,body_parts,5,13,Stimuli/Experimental_stims/body_parts/wc-so-KH4AAPjb-tI-unsplash.jpg,Stimuli/Experimental_stims/body_parts/sincerely-media-VN6DbKajo5s-unsplash.jpg,0,0,819,1,unchosen,31,35,body_parts,body_parts,1900,0,4,1
95,68112,0,96,2,2,1,gain1,no_gain3,L,K,31,25,body_parts,body_parts,13,13,Stimuli/Experimental_stims/body_parts/sincerely-media-VN6DbKajo5s-unsplash.jpg,Stimuli/Experimental_stims/body_parts/engin-akyurt-Q2rfH3GW39c-unsplash.jpg,0,0,706,0,unchosen,25,31,body_parts,body_parts,1100,0,4,1
96,68112,0,97,2,2,1,gain3,no_gain3,D,K,43,25,objects,body_parts,10,13,Stimuli/Experimental_stims/objects/jonathan-greenaway-Y4hGgeiFn3s-unsplash.jpg,Stimuli/Experimental_stims/body_parts/engin-akyurt-Q2rfH3GW39c-unsplash.jpg,0,0,825,0,unchosen,25,43,body_parts,objects,2300,0,4,1
97,68112,0,98,2,2,0,no_gain5,gain1,F,L,15,13,faces,faces,19,46,Stimuli/Experimental_stims/faces/erik-lucatero-d2MSDujJl2g-unsplash.jpg,Stimuli/Experimental_stims/faces/daniel-rigdon-dXmXKPP2L4E-unsplash.jpg,0,0,684,1,chosen,13,15,faces,faces,2800,0,4,1
98,68112,0,99,2,2,0,no_gain5,gain5,F,C,35,34,body_parts,body_parts,5,45,Stimuli/Experimental_stims/body_parts/wc-so-KH4AAPjb-tI-unsplash.jpg,Stimuli/Experimental_stims/body_parts/wagner-santos-mBWMvIuVnso-unsplash.jpg,0,0,671,1,unchosen,34,35,body_parts,body_parts,3200,1,4,1
99,68112,0,100,2,2,1,gain5,no_gain1,C,I,2,11,outdoor_scenes,outdoor_scenes,85,76,Stimuli/Experimental_stims/outdoor_scenes/bruno-van-der-kraan-qez8mNJ3ilU-unsplash.jpg,Stimuli/Experimental_stims/outdoor_scenes/stephen-leonardi-gyIRjKPXupE-unsplash.jpg,0,1,1077,1,chosen,2,11,outdoor_scenes,outdoor_scenes,2000,0,4,1
100,68112,0,101,2,2,0,no_gain2,gain6,G,H,9,10,outdoor_scenes,outdoor_scenes,81,84,Stimuli/Experimental_stims/outdoor_scenes/sergey-pesterev-y-b_FOmJXdg-unsplash.jpg,Stimuli/Experimental_stims/outdoor_scenes/shannon-kunkle-dM8INmkyDas-unsplash.jpg,0,0,885,1,chosen,10,9,outdoor_scenes,outdoor_scenes,2500,0,4,1
101,68112,0,102,2,2,1,gain3,no_gain5,D,F,43,35,objects,body_parts,10,5,Stimuli/Experimental_stims/objects/jonathan-greenaway-Y4hGgeiFn3s-unsplash.jpg,Stimuli/Experimental_stims/body_parts/wc-so-KH4AAPjb-tI-unsplash.jpg,0,0,1066,0,unchosen,35,43,body_parts,objects,1300,0,4,1
102,68112,0,103,2,2,1,gain6,no_gain3,H,K,17,25,faces,body_parts,4,13,Stimuli/Experimental_stims/faces/good-faces-xmSWVeGEnJw-unsplash.jpg,Stimuli/Experimental_stims/body_parts/engin-akyurt-Q2rfH3GW39c-unsplash.jpg,0,1,844,1,unchosen,17,25,faces,body_parts,1300,0,4,1
103,68112,0,104,2,2,1,gain4,no_gain4,J,E,21,29,faces,body_parts,0,0,Stimuli/Experimental_stims/faces/leilani-angel-K84vnnzxmTQ-unsplash.jpg,Stimuli/Experimental_stims/body_parts/manuel-schinner-ZwjFuJ7ebpk-unsplash.jpg,0,1,671,1,unchosen,21,29,faces,body_parts,4500,1,4,1
104,68112,0,105,2,2,1,gain6,no_gain1,H,I,10,11,outdoor_scenes,outdoor_scenes,84,76,Stimuli/Experimental_stims/outdoor_scenes/shannon-kunkle-dM8INmkyDas-unsplash.jpg,Stimuli/Experimental_stims/outdoor_scenes/stephen-leonardi-gyIRjKPXupE-unsplash.jpg,0,1,745,1,chosen,10,11,outdoor_scenes,outdoor_scenes,1400,0,4,1
105,68112,0,106,2,2,1,gain2,no_gain6,A,B,42,23,objects,faces,18,24,Stimuli/Experimental_stims/objects/jess-bailey-nOeVi8DsN8U-unsplash.jpg,Stimuli/Experimental_stims/faces/rikonavt-HQjfrvdTfak-unsplash.jpg,0,1,863,1,unchosen,42,23,objects,faces,2600,0,4,1
106,68112,0,107,2,2,1,gain4,no_gain4,J,E,45,40,objects,objects,58,35,Stimuli/Experimental_stims/objects/leohoho-rngTKHXumy0-unsplash.jpg,Stimuli/Experimental_stims/objects/fabian-blank-pElSkGRA2NU-unsplash.jpg,0,1,587,1,chosen,45,40,objects,objects,2100,0,4,1
107,68112,0,108,2,2,0,no_gain6,gain6,B,H,23,17,faces,faces,24,4,Stimuli/Experimental_stims/faces/rikonavt-HQjfrvdTfak-unsplash.jpg,Stimuli/Experimental_stims/faces/good-faces-xmSWVeGEnJw-unsplash.jpg,0,1,852,0,unchosen,23,17,faces,faces,2100,0,4,1
108,68112,0,109,2,2,1,gain4,no_gain3,J,K,21,25,faces,body_parts,0,13,Stimuli/Experimental_stims/faces/leilani-angel-K84vnnzxmTQ-unsplash.jpg,Stimuli/Experimental_stims/body_parts/engin-akyurt-Q2rfH3GW39c-unsplash.jpg,0,1,750,1,unchosen,21,25,faces,body_parts,2600,0,4,1
109,68112,0,110,2,2,0,no_gain1,gain1,I,L,11,13,outdoor_scenes,faces,76,46,Stimuli/Experimental_stims/outdoor_scenes/stephen-leonardi-gyIRjKPXupE-unsplash.jpg,Stimuli/Experimental_stims/faces/daniel-rigdon-dXmXKPP2L4E-unsplash.jpg,0,0,880,1,chosen,13,11,faces,outdoor_scenes,3000,1,4,1
110,68112,0,111,2,2,1,gain2,no_gain4,A,E,0,40,outdoor_scenes,objects,63,35,Stimuli/Experimental_stims/outdoor_scenes/aleksandra-boguslawska-MS7KD9Ti7FQ-unsplash.jpg,Stimuli/Experimental_stims/objects/fabian-blank-pElSkGRA2NU-unsplash.jpg,0,1,752,1,chosen,0,40,outdoor_scenes,objects,1100,0,4,1
111,68112,0,112,2,2,0,no_gain1,gain3,I,D,28,43,body_parts,objects,41,10,Stimuli/Experimental_stims/body_parts/ira-vishnevskaya-8DQAvdCby1I-unsplash.jpg,Stimuli/Experimental_stims/objects/jonathan-greenaway-Y4hGgeiFn3s-unsplash.jpg,0,1,770,0,unchosen,28,43,body_parts,objects,1000,0,4,1
112,68112,0,113,2,2,1,gain5,no_gain1,C,I,34,28,body_parts,body_parts,45,41,Stimuli/Experimental_stims/body_parts/wagner-santos-mBWMvIuVnso-unsplash.jpg,Stimuli/Experimental_stims/body_parts/ira-vishnevskaya-8DQAvdCby1I-unsplash.jpg,0,1,719,1,unchosen,34,28,body_parts,body_parts,1300,0,4,1
113,68112,0,114,2,2,1,gain3,no_gain6,D,B,20,7,faces,outdoor_scenes,53,53,Stimuli/Experimental_stims/faces/justin-chen-J7Cf1Gch49E-unsplash.jpg,Stimuli/Experimental_stims/outdoor_scenes/petr-vysohlid-9fqwGqGLUxc-unsplash.jpg,0,1,588,1,chosen,20,7,faces,outdoor_scenes,1000,0,4,1
114,68112,0,115,2,2,0,no_gain1,gain1,I,L,28,31,body_parts,body_parts,41,13,Stimuli/Experimental_stims/body_parts/ira-vishnevskaya-8DQAvdCby1I-unsplash.jpg,Stimuli/Experimental_stims/body_parts/sincerely-media-VN6DbKajo5s-unsplash.jpg,0,1,731,0,unchosen,28,31,body_parts,body_parts,1200,0,4,1
115,68112,0,116,2,2,0,no_gain5,gain3,F,D,15,20,faces,faces,19,53,Stimuli/Experimental_stims/faces/erik-lucatero-d2MSDujJl2g-unsplash.jpg,Stimuli/Experimental_stims/faces/justin-chen-J7Cf1Gch49E-unsplash.jpg,0,0,1190,1,chosen,20,15,faces,faces,1800,0,4,1
116,68112,0,117,2,2,1,gain5,no_gain2,C,G,34,39,body_parts,objects,45,77,Stimuli/Experimental_stims/body_parts/wagner-santos-mBWMvIuVnso-unsplash.jpg,Stimuli/Experimental_stims/objects/charlesdeluvio-1-nx1QR5dTE-unsplash.jpg,0,1,544,1,unchosen,34,39,body_parts,objects,2300,0,4,1
117,68112,0,118,2,2,1,gain4,no_gain1,J,I,45,11,objects,outdoor_scenes,58,76,Stimuli/Experimental_stims/objects/leohoho-rngTKHXumy0-unsplash.jpg,Stimuli/Experimental_stims/outdoor_scenes/stephen-leonardi-gyIRjKPXupE-unsplash.jpg,0,1,536,1,chosen,45,11,objects,outdoor_scenes,3500,1,4,1
118,68112,0,119,2,2,0,no_gain2,gain6,G,H,39,17,objects,faces,77,4,Stimuli/Experimental_stims/objects/charlesdeluvio-1-nx1QR5dTE-unsplash.jpg,Stimuli/Experimental_stims/faces/good-faces-xmSWVeGEnJw-unsplash.jpg,0,0,782,1,unchosen,17,39,faces,objects,1300,0,4,1
119,68112,0,120,2,2,0,no_gain2,gain5,G,C,9,2,outdoor_scenes,outdoor_scenes,81,85,Stimuli/Experimental_stims/outdoor_scenes/sergey-pesterev-y-b_FOmJXdg-unsplash.jpg,Stimuli/Experimental_stims/outdoor_scenes/bruno-van-der-kraan-qez8mNJ3ilU-unsplash.jpg,0,0,1002,1,chosen,2,9,outdoor_scenes,outdoor_scenes,1400,0,4,1
120,68112,0,121,2,2,1,gain3,no_gain3,D,K,20,47,faces,objects,53,22,Stimuli/Experimental_stims/faces/justin-chen-J7Cf1Gch49E-unsplash.jpg,Stimuli/Experimental_stims/objects/ronaldo-arthur-vidal-Cdz_lvnl37k-unsplash.jpg,1,NaN,,NaN,chosen,NaN,NaN,NaN,NaN,1300,0,4,1
121,68112,0,122,2,2,1,gain6,no_gain1,H,I,17,28,faces,body_parts,4,41,Stimuli/Experimental_stims/faces/good-faces-xmSWVeGEnJw-unsplash.jpg,Stimuli/Experimental_stims/body_parts/ira-vishnevskaya-8DQAvdCby1I-unsplash.jpg,0,1,601,1,unchosen,17,28,faces,body_parts,2800,0,4,1
122,68112,0,123,2,2,1,gain5,no_gain6,C,B,34,23,body_parts,faces,45,24,Stimuli/Experimental_stims/body_parts/wagner-santos-mBWMvIuVnso-unsplash.jpg,Stimuli/Experimental_stims/faces/rikonavt-HQjfrvdTfak-unsplash.jpg,0,1,551,1,unchosen,34,23,body_parts,faces,1800,0,4,1
123,68112,0,124,2,2,0,no_gain2,gain4,G,J,39,21,objects,faces,77,0,Stimuli/Experimental_stims/objects/charlesdeluvio-1-nx1QR5dTE-unsplash.jpg,Stimuli/Experimental_stims/faces/leilani-angel-K84vnnzxmTQ-unsplash.jpg,0,0,598,1,unchosen,21,39,faces,objects,1200,0,4,1
124,68112,0,125,2,2,0,no_gain3,gain4,K,J,47,45,objects,objects,22,58,Stimuli/Experimental_stims/objects/ronaldo-arthur-vidal-Cdz_lvnl37k-unsplash.jpg,Stimuli/Experimental_stims/objects/leohoho-rngTKHXumy0-unsplash.jpg,0,0,662,1,chosen,45,47,objects,objects,1000,0,4,1
125,68112,0,126,2,2,1,gain3,no_gain4,D,E,43,29,objects,body_parts,10,0,Stimuli/Experimental_stims/objects/jonathan-greenaway-Y4hGgeiFn3s-unsplash.jpg,Stimuli/Experimental_stims/body_parts/manuel-schinner-ZwjFuJ7ebpk-unsplash.jpg,0,0,1014,0,unchosen,29,43,body_parts,objects,1600,0,4,1
126,68112,0,127,2,2,0,no_gain2,gain4,G,J,9,45,outdoor_scenes,objects,81,58,Stimuli/Experimental_stims/outdoor_scenes/sergey-pesterev-y-b_FOmJXdg-unsplash.jpg,Stimuli/Experimental_stims/objects/leohoho-rngTKHXumy0-unsplash.jpg,0,0,504,1,chosen,45,9,objects,outdoor_scenes,1500,0,4,1
127,68112,0,128,2,2,0,no_gain5,gain2,F,A,15,0,faces,outdoor_scenes,19,63,Stimuli/Experimental_stims/faces/erik-lucatero-d2MSDujJl2g-unsplash.jpg,Stimuli/Experimental_stims/outdoor_scenes/aleksandra-boguslawska-MS7KD9Ti7FQ-unsplash.jpg,0,0,547,1,chosen,0,15,outdoor_scenes,faces,3300,1,4,1
128,68112,0,129,2,2,0,no_gain4,gain1,E,L,40,13,objects,faces,35,46,Stimuli/Experimental_stims/objects/fabian-blank-pElSkGRA2NU-unsplash.jpg,Stimuli/Experimental_stims/faces/daniel-rigdon-dXmXKPP2L4E-unsplash.jpg,0,0,660,1,chosen,13,40,faces,objects,2200,0,4,1
129,68112,0,130,2,2,0,no_gain5,gain6,F,H,35,17,body_parts,faces,5,4,Stimuli/Experimental_stims/body_parts/wc-so-KH4AAPjb-tI-unsplash.jpg,Stimuli/Experimental_stims/faces/good-faces-xmSWVeGEnJw-unsplash.jpg,0,0,683,1,unchosen,17,35,faces,body_parts,2400,0,4,1
130,68112,0,131,2,2,1,gain2,no_gain3,A,K,0,47,outdoor_scenes,objects,63,22,Stimuli/Experimental_stims/outdoor_scenes/aleksandra-boguslawska-MS7KD9Ti7FQ-unsplash.jpg,Stimuli/Experimental_stims/objects/ronaldo-arthur-vidal-Cdz_lvnl37k-unsplash.jpg,0,1,699,1,chosen,0,47,outdoor_scenes,objects,1300,0,4,1
131,68112,0,132,2,2,1,gain6,no_gain4,H,E,17,29,faces,body_parts,4,0,Stimuli/Experimental_stims/faces/good-faces-xmSWVeGEnJw-unsplash.jpg,Stimuli/Experimental_stims/body_parts/manuel-schinner-ZwjFuJ7ebpk-unsplash.jpg,0,1,786,1,unchosen,17,29,faces,body_parts,2400,0,4,1
132,68112,0,133,2,2,0,no_gain1,gain4,I,J,28,21,body_parts,faces,41,0,Stimuli/Experimental_stims/body_parts/ira-vishnevskaya-8DQAvdCby1I-unsplash.jpg,Stimuli/Experimental_stims/faces/leilani-angel-K84vnnzxmTQ-unsplash.jpg,0,0,698,1,unchosen,21,28,faces,body_parts,2200,0,4,1
133,68112,0,134,2,2,0,no_gain6,gain4,B,J,7,45,outdoor_scenes,objects,53,58,Stimuli/Experimental_stims/outdoor_scenes/petr-vysohlid-9fqwGqGLUxc-unsplash.jpg,Stimuli/Experimental_stims/objects/leohoho-rngTKHXumy0-unsplash.jpg,0,0,644,1,chosen,45,7,objects,outdoor_scenes,2900,1,4,1
134,68112,0,135,2,2,1,gain1,no_gain6,L,B,13,7,faces,outdoor_scenes,46,53,Stimuli/Experimental_stims/faces/daniel-rigdon-dXmXKPP2L4E-unsplash.jpg,Stimuli/Experimental_stims/outdoor_scenes/petr-vysohlid-9fqwGqGLUxc-unsplash.jpg,0,1,940,1,chosen,13,7,faces,outdoor_scenes,1900,0,4,1
135,68112,0,136,2,2,0,no_gain1,gain2,I,A,28,42,body_parts,objects,41,18,Stimuli/Experimental_stims/body_parts/ira-vishnevskaya-8DQAvdCby1I-unsplash.jpg,Stimuli/Experimental_stims/objects/jess-bailey-nOeVi8DsN8U-unsplash.jpg,0,0,1088,1,unchosen,42,28,objects,body_parts,1700,0,4,1
136,68112,0,137,2,2,0,no_gain4,gain2,E,A,29,42,body_parts,objects,0,18,Stimuli/Experimental_stims/body_parts/manuel-schinner-ZwjFuJ7ebpk-unsplash.jpg,Stimuli/Experimental_stims/objects/jess-bailey-nOeVi8DsN8U-unsplash.jpg,0,1,860,0,unchosen,29,42,body_parts,objects,1900,0,4,1
137,68112,0,138,2,2,1,gain6,no_gain6,H,B,10,7,outdoor_scenes,outdoor_scenes,84,53,Stimuli/Experimental_stims/outdoor_scenes/shannon-kunkle-dM8INmkyDas-unsplash.jpg,Stimuli/Experimental_stims/outdoor_scenes/petr-vysohlid-9fqwGqGLUxc-unsplash.jpg,0,1,1003,1,chosen,10,7,outdoor_scenes,outdoor_scenes,1700,0,4,1
138,68112,0,139,2,2,0,no_gain3,gain2,K,A,25,42,body_parts,objects,13,18,Stimuli/Experimental_stims/body_parts/engin-akyurt-Q2rfH3GW39c-unsplash.jpg,Stimuli/Experimental_stims/objects/jess-bailey-nOeVi8DsN8U-unsplash.jpg,0,0,751,1,unchosen,42,25,objects,body_parts,1300,0,4,1
139,68112,0,140,2,2,1,gain5,no_gain4,C,E,34,29,body_parts,body_parts,45,0,Stimuli/Experimental_stims/body_parts/wagner-santos-mBWMvIuVnso-unsplash.jpg,Stimuli/Experimental_stims/body_parts/manuel-schinner-ZwjFuJ7ebpk-unsplash.jpg,0,1,701,1,unchosen,34,29,body_parts,body_parts,3600,1,4,1
140,68112,0,141,2,2,1,gain5,no_gain4,C,E,2,40,outdoor_scenes,objects,85,35,Stimuli/Experimental_stims/outdoor_scenes/bruno-van-der-kraan-qez8mNJ3ilU-unsplash.jpg,Stimuli/Experimental_stims/objects/fabian-blank-pElSkGRA2NU-unsplash.jpg,0,1,910,1,chosen,2,40,outdoor_scenes,objects,1700,0,4,1
141,68112,0,142,2,2,0,no_gain6,gain2,B,A,7,0,outdoor_scenes,outdoor_scenes,53,63,Stimuli/Experimental_stims/outdoor_scenes/petr-vysohlid-9fqwGqGLUxc-unsplash.jpg,Stimuli/Experimental_stims/outdoor_scenes/aleksandra-boguslawska-MS7KD9Ti7FQ-unsplash.jpg,0,0,945,1,chosen,0,7,outdoor_scenes,outdoor_scenes,1900,0,4,1
142,68112,0,143,2,2,0,no_gain2,gain1,G,L,9,13,outdoor_scenes,faces,81,46,Stimuli/Experimental_stims/outdoor_scenes/sergey-pesterev-y-b_FOmJXdg-unsplash.jpg,Stimuli/Experimental_stims/faces/daniel-rigdon-dXmXKPP2L4E-unsplash.jpg,0,1,742,0,chosen,9,13,outdoor_scenes,faces,2200,0,4,1
143,68112,0,144,2,2,0,no_gain3,gain5,K,C,25,34,body_parts,body_parts,13,45,Stimuli/Experimental_stims/body_parts/engin-akyurt-Q2rfH3GW39c-unsplash.jpg,Stimuli/Experimental_stims/body_parts/wagner-santos-mBWMvIuVnso-unsplash.jpg,0,0,501,1,unchosen,34,25,body_parts,body_parts,1800,0,4,1
144,68112,0,145,2,2,0,no_gain6,gain3,B,D,23,43,faces,objects,24,10,Stimuli/Experimental_stims/faces/rikonavt-HQjfrvdTfak-unsplash.jpg,Stimuli/Experimental_stims/objects/jonathan-greenaway-Y4hGgeiFn3s-unsplash.jpg,0,1,684,0,unchosen,23,43,faces,objects,1400,0,4,1
145,68112,0,146,2,2,0,no_gain2,gain3,G,D,9,20,outdoor_scenes,faces,81,53,Stimuli/Experimental_stims/outdoor_scenes/sergey-pesterev-y-b_FOmJXdg-unsplash.jpg,Stimuli/Experimental_stims/faces/justin-chen-J7Cf1Gch49E-unsplash.jpg,0,0,645,1,chosen,20,9,faces,outdoor_scenes,1800,0,4,1
146,68112,0,147,2,2,1,gain3,no_gain2,D,G,43,39,objects,objects,10,77,Stimuli/Experimental_stims/objects/jonathan-greenaway-Y4hGgeiFn3s-unsplash.jpg,Stimuli/Experimental_stims/objects/charlesdeluvio-1-nx1QR5dTE-unsplash.jpg,0,0,649,0,unchosen,39,43,objects,objects,1300,0,4,1
147,68112,0,148,2,2,1,gain1,no_gain6,L,B,31,23,body_parts,faces,13,24,Stimuli/Experimental_stims/body_parts/sincerely-media-VN6DbKajo5s-unsplash.jpg,Stimuli/Experimental_stims/faces/rikonavt-HQjfrvdTfak-unsplash.jpg,0,0,536,0,unchosen,23,31,faces,body_parts,3600,1,4,1
148,68112,0,149,3,3,1,gain3,no_gain6,D,B,43,23,objects,faces,10,24,Stimuli/Experimental_stims/objects/jonathan-greenaway-Y4hGgeiFn3s-unsplash.jpg,Stimuli/Experimental_stims/faces/rikonavt-HQjfrvdTfak-unsplash.jpg,0,0,642,0,unchosen,23,43,faces,objects,1200,0,5,1
149,68112,0,150,3,3,1,gain3,no_gain3,D,K,20,47,faces,objects,53,22,Stimuli/Experimental_stims/faces/justin-chen-J7Cf1Gch49E-unsplash.jpg,Stimuli/Experimental_stims/objects/ronaldo-arthur-vidal-Cdz_lvnl37k-unsplash.jpg,0,1,1116,1,chosen,20,47,faces,objects,1100,0,5,1
150,68112,0,151,3,3,1,gain1,no_gain4,L,E,13,40,faces,objects,46,35,Stimuli/Experimental_stims/faces/daniel-rigdon-dXmXKPP2L4E-unsplash.jpg,Stimuli/Experimental_stims/objects/fabian-blank-pElSkGRA2NU-unsplash.jpg,0,1,738,1,chosen,13,40,faces,objects,1100,0,5,1
151,68112,0,152,3,3,1,gain5,no_gain6,C,B,34,23,body_parts,faces,45,24,Stimuli/Experimental_stims/body_parts/wagner-santos-mBWMvIuVnso-unsplash.jpg,Stimuli/Experimental_stims/faces/rikonavt-HQjfrvdTfak-unsplash.jpg,0,1,593,1,unchosen,34,23,body_parts,faces,1300,0,5,1
152,68112,0,153,3,3,1,gain2,no_gain6,A,B,0,7,outdoor_scenes,outdoor_scenes,63,53,Stimuli/Experimental_stims/outdoor_scenes/aleksandra-boguslawska-MS7KD9Ti7FQ-unsplash.jpg,Stimuli/Experimental_stims/outdoor_scenes/petr-vysohlid-9fqwGqGLUxc-unsplash.jpg,0,1,631,1,chosen,0,7,outdoor_scenes,outdoor_scenes,3300,1,5,1
153,68112,0,154,3,3,1,gain6,no_gain6,H,B,10,7,outdoor_scenes,outdoor_scenes,84,53,Stimuli/Experimental_stims/outdoor_scenes/shannon-kunkle-dM8INmkyDas-unsplash.jpg,Stimuli/Experimental_stims/outdoor_scenes/petr-vysohlid-9fqwGqGLUxc-unsplash.jpg,0,1,670,1,chosen,10,7,outdoor_scenes,outdoor_scenes,1000,0,5,1
154,68112,0,155,3,3,1,gain1,no_gain2,L,G,31,39,body_parts,objects,13,77,Stimuli/Experimental_stims/body_parts/sincerely-media-VN6DbKajo5s-unsplash.jpg,Stimuli/Experimental_stims/objects/charlesdeluvio-1-nx1QR5dTE-unsplash.jpg,0,0,993,0,unchosen,39,31,objects,body_parts,1300,0,5,1
155,68112,0,156,3,3,0,no_gain4,gain3,E,D,40,20,objects,faces,35,53,Stimuli/Experimental_stims/objects/fabian-blank-pElSkGRA2NU-unsplash.jpg,Stimuli/Experimental_stims/faces/justin-chen-J7Cf1Gch49E-unsplash.jpg,0,0,578,1,chosen,20,40,faces,objects,1300,0,5,1
156,68112,0,157,3,3,0,no_gain4,gain4,E,J,40,45,objects,objects,35,58,Stimuli/Experimental_stims/objects/fabian-blank-pElSkGRA2NU-unsplash.jpg,Stimuli/Experimental_stims/objects/leohoho-rngTKHXumy0-unsplash.jpg,0,0,577,1,chosen,45,40,objects,objects,1600,0,5,1
157,68112,0,158,3,3,1,gain6,no_gain3,H,K,10,47,outdoor_scenes,objects,84,22,Stimuli/Experimental_stims/outdoor_scenes/shannon-kunkle-dM8INmkyDas-unsplash.jpg,Stimuli/Experimental_stims/objects/ronaldo-arthur-vidal-Cdz_lvnl37k-unsplash.jpg,0,1,560,1,chosen,10,47,outdoor_scenes,objects,1400,0,5,1
158,68112,0,159,3,3,0,no_gain1,gain2,I,A,28,42,body_parts,objects,41,18,Stimuli/Experimental_stims/body_parts/ira-vishnevskaya-8DQAvdCby1I-unsplash.jpg,Stimuli/Experimental_stims/objects/jess-bailey-nOeVi8DsN8U-unsplash.jpg,0,0,576,1,unchosen,42,28,objects,body_parts,2100,0,5,1
159,68112,0,160,3,3,0,no_gain4,gain3,E,D,29,43,body_parts,objects,0,10,Stimuli/Experimental_stims/body_parts/manuel-schinner-ZwjFuJ7ebpk-unsplash.jpg,Stimuli/Experimental_stims/objects/jonathan-greenaway-Y4hGgeiFn3s-unsplash.jpg,0,1,930,0,unchosen,29,43,body_parts,objects,1200,0,5,1
160,68112,0,161,3,3,0,no_gain1,gain3,I,D,11,20,outdoor_scenes,faces,76,53,Stimuli/Experimental_stims/outdoor_scenes/stephen-leonardi-gyIRjKPXupE-unsplash.jpg,Stimuli/Experimental_stims/faces/justin-chen-J7Cf1Gch49E-unsplash.jpg,0,0,760,1,chosen,20,11,faces,outdoor_scenes,4100,1,5,1
161,68112,0,162,3,3,0,no_gain1,gain4,I,J,28,21,body_parts,faces,41,0,Stimuli/Experimental_stims/body_parts/ira-vishnevskaya-8DQAvdCby1I-unsplash.jpg,Stimuli/Experimental_stims/faces/leilani-angel-K84vnnzxmTQ-unsplash.jpg,0,0,602,1,unchosen,21,28,faces,body_parts,1900,0,5,1
162,68112,0,163,3,3,1,gain5,no_gain5,C,F,2,15,outdoor_scenes,faces,85,19,Stimuli/Experimental_stims/outdoor_scenes/bruno-van-der-kraan-qez8mNJ3ilU-unsplash.jpg,Stimuli/Experimental_stims/faces/erik-lucatero-d2MSDujJl2g-unsplash.jpg,0,1,1167,1,chosen,2,15,outdoor_scenes,faces,2000,0,5,1
163,68112,0,164,3,3,0,no_gain2,gain5,G,C,39,34,objects,body_parts,77,45,Stimuli/Experimental_stims/objects/charlesdeluvio-1-nx1QR5dTE-unsplash.jpg,Stimuli/Experimental_stims/body_parts/wagner-santos-mBWMvIuVnso-unsplash.jpg,0,0,672,1,unchosen,34,39,body_parts,objects,2600,0,5,1
164,68112,0,165,3,3,1,gain1,no_gain4,L,E,31,29,body_parts,body_parts,13,0,Stimuli/Experimental_stims/body_parts/sincerely-media-VN6DbKajo5s-unsplash.jpg,Stimuli/Experimental_stims/body_parts/manuel-schinner-ZwjFuJ7ebpk-unsplash.jpg,0,0,579,0,unchosen,29,31,body_parts,body_parts,1100,0,5,1
165,68112,0,166,3,3,0,no_gain4,gain5,E,C,40,2,objects,outdoor_scenes,35,85,Stimuli/Experimental_stims/objects/fabian-blank-pElSkGRA2NU-unsplash.jpg,Stimuli/Experimental_stims/outdoor_scenes/bruno-van-der-kraan-qez8mNJ3ilU-unsplash.jpg,0,0,612,1,chosen,2,40,outdoor_scenes,objects,4400,1,5,1
166,68112,0,167,3,3,0,no_gain5,gain4,F,J,35,21,body_parts,faces,5,0,Stimuli/Experimental_stims/body_parts/wc-so-KH4AAPjb-tI-unsplash.jpg,Stimuli/Experimental_stims/faces/leilani-angel-K84vnnzxmTQ-unsplash.jpg,0,0,558,1,unchosen,21,35,faces,body_parts,1200,0,5,1
167,68112,0,168,3,3,0,no_gain5,gain6,F,H,15,10,faces,outdoor_scenes,19,84,Stimuli/Experimental_stims/faces/erik-lucatero-d2MSDujJl2g-unsplash.jpg,Stimuli/Experimental_stims/outdoor_scenes/shannon-kunkle-dM8INmkyDas-unsplash.jpg,0,0,999,1,chosen,10,15,outdoor_scenes,faces,1100,0,5,1
168,68112,0,169,3,3,1,gain1,no_gain6,L,B,31,23,body_parts,faces,13,24,Stimuli/Experimental_stims/body_parts/sincerely-media-VN6DbKajo5s-unsplash.jpg,Stimuli/Experimental_stims/faces/rikonavt-HQjfrvdTfak-unsplash.jpg,1,NaN,,NaN,unchosen,NaN,NaN,NaN,NaN,1700,0,5,1
169,68112,0,170,3,3,1,gain2,no_gain2,A,G,0,9,outdoor_scenes,outdoor_scenes,63,81,Stimuli/Experimental_stims/outdoor_scenes/aleksandra-boguslawska-MS7KD9Ti7FQ-unsplash.jpg,Stimuli/Experimental_stims/outdoor_scenes/sergey-pesterev-y-b_FOmJXdg-unsplash.jpg,0,1,721,1,chosen,0,9,outdoor_scenes,outdoor_scenes,1100,0,5,1
170,68112,0,171,3,3,0,no_gain2,gain4,G,J,39,21,objects,faces,77,0,Stimuli/Experimental_stims/objects/charlesdeluvio-1-nx1QR5dTE-unsplash.jpg,Stimuli/Experimental_stims/faces/leilani-angel-K84vnnzxmTQ-unsplash.jpg,0,0,618,1,unchosen,21,39,faces,objects,3300,1,5,1
171,68112,0,172,3,3,0,no_gain3,gain2,K,A,47,0,objects,outdoor_scenes,22,63,Stimuli/Experimental_stims/objects/ronaldo-arthur-vidal-Cdz_lvnl37k-unsplash.jpg,Stimuli/Experimental_stims/outdoor_scenes/aleksandra-boguslawska-MS7KD9Ti7FQ-unsplash.jpg,0,0,649,1,chosen,0,47,outdoor_scenes,objects,2800,0,5,1
172,68112,0,173,3,3,0,no_gain4,gain2,E,A,40,0,objects,outdoor_scenes,35,63,Stimuli/Experimental_stims/objects/fabian-blank-pElSkGRA2NU-unsplash.jpg,Stimuli/Experimental_stims/outdoor_scenes/aleksandra-boguslawska-MS7KD9Ti7FQ-unsplash.jpg,0,0,575,1,chosen,0,40,outdoor_scenes,objects,1000,0,5,1
173,68112,0,174,3,3,0,no_gain1,gain6,I,H,28,17,body_parts,faces,41,4,Stimuli/Experimental_stims/body_parts/ira-vishnevskaya-8DQAvdCby1I-unsplash.jpg,Stimuli/Experimental_stims/faces/good-faces-xmSWVeGEnJw-unsplash.jpg,0,0,670,1,unchosen,17,28,faces,body_parts,3100,0,5,1
174,68112,0,175,3,3,1,gain4,no_gain1,J,I,45,11,objects,outdoor_scenes,58,76,Stimuli/Experimental_stims/objects/leohoho-rngTKHXumy0-unsplash.jpg,Stimuli/Experimental_stims/outdoor_scenes/stephen-leonardi-gyIRjKPXupE-unsplash.jpg,0,1,695,1,chosen,45,11,objects,outdoor_scenes,2000,0,5,1
175,68112,0,176,3,3,0,no_gain6,gain6,B,H,23,17,faces,faces,24,4,Stimuli/Experimental_stims/faces/rikonavt-HQjfrvdTfak-unsplash.jpg,Stimuli/Experimental_stims/faces/good-faces-xmSWVeGEnJw-unsplash.jpg,0,1,720,0,unchosen,23,17,faces,faces,2300,0,5,1
176,68112,0,177,3,3,0,no_gain2,gain5,G,C,9,2,outdoor_scenes,outdoor_scenes,81,85,Stimuli/Experimental_stims/outdoor_scenes/sergey-pesterev-y-b_FOmJXdg-unsplash.jpg,Stimuli/Experimental_stims/outdoor_scenes/bruno-van-der-kraan-qez8mNJ3ilU-unsplash.jpg,0,0,602,1,chosen,2,9,outdoor_scenes,outdoor_scenes,1500,0,5,1
177,68112,0,178,3,3,0,no_gain5,gain2,F,A,35,42,body_parts,objects,5,18,Stimuli/Experimental_stims/body_parts/wc-so-KH4AAPjb-tI-unsplash.jpg,Stimuli/Experimental_stims/objects/jess-bailey-nOeVi8DsN8U-unsplash.jpg,0,0,846,1,unchosen,42,35,objects,body_parts,1600,0,5,1
178,68112,0,179,3,3,1,gain6,no_gain1,H,I,10,11,outdoor_scenes,outdoor_scenes,84,76,Stimuli/Experimental_stims/outdoor_scenes/shannon-kunkle-dM8INmkyDas-unsplash.jpg,Stimuli/Experimental_stims/outdoor_scenes/stephen-leonardi-gyIRjKPXupE-unsplash.jpg,0,1,778,1,chosen,10,11,outdoor_scenes,outdoor_scenes,4200,1,5,1
179,68112,0,180,3,3,0,no_gain5,gain4,F,J,15,45,faces,objects,19,58,Stimuli/Experimental_stims/faces/erik-lucatero-d2MSDujJl2g-unsplash.jpg,Stimuli/Experimental_stims/objects/leohoho-rngTKHXumy0-unsplash.jpg,0,0,509,1,chosen,45,15,objects,faces,1000,0,5,1
180,68112,0,181,3,3,0,no_gain6,gain3,B,D,7,20,outdoor_scenes,faces,53,53,Stimuli/Experimental_stims/outdoor_scenes/petr-vysohlid-9fqwGqGLUxc-unsplash.jpg,Stimuli/Experimental_stims/faces/justin-chen-J7Cf1Gch49E-unsplash.jpg,0,0,856,1,chosen,20,7,faces,outdoor_scenes,2000,0,5,1
181,68112,0,182,3,3,1,gain4,no_gain3,J,K,21,25,faces,body_parts,0,13,Stimuli/Experimental_stims/faces/leilani-angel-K84vnnzxmTQ-unsplash.jpg,Stimuli/Experimental_stims/body_parts/engin-akyurt-Q2rfH3GW39c-unsplash.jpg,0,1,874,1,unchosen,21,25,faces,body_parts,1700,0,5,1
182,68112,0,183,3,3,1,gain2,no_gain6,A,B,42,23,objects,faces,18,24,Stimuli/Experimental_stims/objects/jess-bailey-nOeVi8DsN8U-unsplash.jpg,Stimuli/Experimental_stims/faces/rikonavt-HQjfrvdTfak-unsplash.jpg,0,0,654,0,unchosen,23,42,faces,objects,2300,0,5,1
183,68112,0,184,3,3,1,gain4,no_gain4,J,E,21,29,faces,body_parts,0,0,Stimuli/Experimental_stims/faces/leilani-angel-K84vnnzxmTQ-unsplash.jpg,Stimuli/Experimental_stims/body_parts/manuel-schinner-ZwjFuJ7ebpk-unsplash.jpg,0,0,764,0,unchosen,29,21,body_parts,faces,3300,1,5,1
184,68112,0,185,3,3,0,no_gain1,gain2,I,A,11,0,outdoor_scenes,outdoor_scenes,76,63,Stimuli/Experimental_stims/outdoor_scenes/stephen-leonardi-gyIRjKPXupE-unsplash.jpg,Stimuli/Experimental_stims/outdoor_scenes/aleksandra-boguslawska-MS7KD9Ti7FQ-unsplash.jpg,0,0,751,1,chosen,0,11,outdoor_scenes,outdoor_scenes,1100,0,5,1
185,68112,0,186,3,3,0,no_gain4,gain6,E,H,40,10,objects,outdoor_scenes,35,84,Stimuli/Experimental_stims/objects/fabian-blank-pElSkGRA2NU-unsplash.jpg,Stimuli/Experimental_stims/outdoor_scenes/shannon-kunkle-dM8INmkyDas-unsplash.jpg,0,0,876,1,chosen,10,40,outdoor_scenes,objects,1900,0,5,1
186,68112,0,187,3,3,1,gain3,no_gain5,D,F,20,15,faces,faces,53,19,Stimuli/Experimental_stims/faces/justin-chen-J7Cf1Gch49E-unsplash.jpg,Stimuli/Experimental_stims/faces/erik-lucatero-d2MSDujJl2g-unsplash.jpg,0,1,665,1,chosen,20,15,faces,faces,2400,0,5,1
187,68112,0,188,3,3,0,no_gain2,gain6,G,H,39,17,objects,faces,77,4,Stimuli/Experimental_stims/objects/charlesdeluvio-1-nx1QR5dTE-unsplash.jpg,Stimuli/Experimental_stims/faces/good-faces-xmSWVeGEnJw-unsplash.jpg,0,0,763,1,unchosen,17,39,faces,objects,1900,0,5,1
188,68112,0,189,3,3,0,no_gain1,gain1,I,L,28,31,body_parts,body_parts,41,13,Stimuli/Experimental_stims/body_parts/ira-vishnevskaya-8DQAvdCby1I-unsplash.jpg,Stimuli/Experimental_stims/body_parts/sincerely-media-VN6DbKajo5s-unsplash.jpg,0,1,1034,0,unchosen,28,31,body_parts,body_parts,3300,1,5,1
189,68112,0,190,3,3,0,no_gain3,gain5,K,C,25,34,body_parts,body_parts,13,45,Stimuli/Experimental_stims/body_parts/engin-akyurt-Q2rfH3GW39c-unsplash.jpg,Stimuli/Experimental_stims/body_parts/wagner-santos-mBWMvIuVnso-unsplash.jpg,0,0,632,1,unchosen,34,25,body_parts,body_parts,1200,0,5,1
190,68112,0,191,3,3,1,gain1,no_gain1,L,I,13,11,faces,outdoor_scenes,46,76,Stimuli/Experimental_stims/faces/daniel-rigdon-dXmXKPP2L4E-unsplash.jpg,Stimuli/Experimental_stims/outdoor_scenes/stephen-leonardi-gyIRjKPXupE-unsplash.jpg,0,1,915,1,chosen,13,11,faces,outdoor_scenes,1100,0,5,1
191,68112,0,192,3,3,0,no_gain4,gain5,E,C,29,34,body_parts,body_parts,0,45,Stimuli/Experimental_stims/body_parts/manuel-schinner-ZwjFuJ7ebpk-unsplash.jpg,Stimuli/Experimental_stims/body_parts/wagner-santos-mBWMvIuVnso-unsplash.jpg,0,0,663,1,unchosen,34,29,body_parts,body_parts,1400,0,5,1
192,68112,0,193,3,3,1,gain3,no_gain1,D,I,43,28,objects,body_parts,10,41,Stimuli/Experimental_stims/objects/jonathan-greenaway-Y4hGgeiFn3s-unsplash.jpg,Stimuli/Experimental_stims/body_parts/ira-vishnevskaya-8DQAvdCby1I-unsplash.jpg,0,0,697,0,unchosen,28,43,body_parts,objects,2600,0,5,1
193,68112,0,194,3,3,1,gain6,no_gain4,H,E,17,29,faces,body_parts,4,0,Stimuli/Experimental_stims/faces/good-faces-xmSWVeGEnJw-unsplash.jpg,Stimuli/Experimental_stims/body_parts/manuel-schinner-ZwjFuJ7ebpk-unsplash.jpg,0,1,638,1,unchosen,17,29,faces,body_parts,1100,0,5,1
194,68112,0,195,3,3,1,gain1,no_gain3,L,K,13,47,faces,objects,46,22,Stimuli/Experimental_stims/faces/daniel-rigdon-dXmXKPP2L4E-unsplash.jpg,Stimuli/Experimental_stims/objects/ronaldo-arthur-vidal-Cdz_lvnl37k-unsplash.jpg,0,1,850,1,chosen,13,47,faces,objects,4100,1,5,1
195,68112,0,196,3,3,1,gain6,no_gain3,H,K,17,25,faces,body_parts,4,13,Stimuli/Experimental_stims/faces/good-faces-xmSWVeGEnJw-unsplash.jpg,Stimuli/Experimental_stims/body_parts/engin-akyurt-Q2rfH3GW39c-unsplash.jpg,0,1,507,1,unchosen,17,25,faces,body_parts,1000,0,5,1
196,68112,0,197,3,3,0,no_gain3,gain4,K,J,47,45,objects,objects,22,58,Stimuli/Experimental_stims/objects/ronaldo-arthur-vidal-Cdz_lvnl37k-unsplash.jpg,Stimuli/Experimental_stims/objects/leohoho-rngTKHXumy0-unsplash.jpg,0,0,750,1,chosen,45,47,objects,objects,1800,0,5,1
197,68112,0,198,3,3,1,gain1,no_gain3,L,K,31,25,body_parts,body_parts,13,13,Stimuli/Experimental_stims/body_parts/sincerely-media-VN6DbKajo5s-unsplash.jpg,Stimuli/Experimental_stims/body_parts/engin-akyurt-Q2rfH3GW39c-unsplash.jpg,0,1,1041,1,unchosen,31,25,body_parts,body_parts,1600,0,5,1
198,68112,0,199,3,3,1,gain4,no_gain6,J,B,21,23,faces,faces,0,24,Stimuli/Experimental_stims/faces/leilani-angel-K84vnnzxmTQ-unsplash.jpg,Stimuli/Experimental_stims/faces/rikonavt-HQjfrvdTfak-unsplash.jpg,0,0,930,0,unchosen,23,21,faces,faces,2100,0,5,1
199,68112,0,200,3,3,1,gain2,no_gain4,A,E,42,29,objects,body_parts,18,0,Stimuli/Experimental_stims/objects/jess-bailey-nOeVi8DsN8U-unsplash.jpg,Stimuli/Experimental_stims/body_parts/manuel-schinner-ZwjFuJ7ebpk-unsplash.jpg,0,1,712,1,unchosen,42,29,objects,body_parts,1700,0,5,1
200,68112,0,201,3,3,1,gain5,no_gain3,C,K,2,47,outdoor_scenes,objects,85,22,Stimuli/Experimental_stims/outdoor_scenes/bruno-van-der-kraan-qez8mNJ3ilU-unsplash.jpg,Stimuli/Experimental_stims/objects/ronaldo-arthur-vidal-Cdz_lvnl37k-unsplash.jpg,0,1,827,1,chosen,2,47,outdoor_scenes,objects,3200,1,5,1
201,68112,0,202,3,3,0,no_gain6,gain4,B,J,7,45,outdoor_scenes,objects,53,58,Stimuli/Experimental_stims/outdoor_scenes/petr-vysohlid-9fqwGqGLUxc-unsplash.jpg,Stimuli/Experimental_stims/objects/leohoho-rngTKHXumy0-unsplash.jpg,0,0,543,1,chosen,45,7,objects,outdoor_scenes,1100,0,5,1
202,68112,0,203,3,3,1,gain2,no_gain2,A,G,42,39,objects,objects,18,77,Stimuli/Experimental_stims/objects/jess-bailey-nOeVi8DsN8U-unsplash.jpg,Stimuli/Experimental_stims/objects/charlesdeluvio-1-nx1QR5dTE-unsplash.jpg,0,0,1089,0,unchosen,39,42,objects,objects,2800,0,5,1
203,68112,0,204,3,3,1,gain2,no_gain5,A,F,0,15,outdoor_scenes,faces,63,19,Stimuli/Experimental_stims/outdoor_scenes/aleksandra-boguslawska-MS7KD9Ti7FQ-unsplash.jpg,Stimuli/Experimental_stims/faces/erik-lucatero-d2MSDujJl2g-unsplash.jpg,0,1,534,1,chosen,0,15,outdoor_scenes,faces,1400,0,5,1
204,68112,0,205,3,3,1,gain1,no_gain2,L,G,13,9,faces,outdoor_scenes,46,81,Stimuli/Experimental_stims/faces/daniel-rigdon-dXmXKPP2L4E-unsplash.jpg,Stimuli/Experimental_stims/outdoor_scenes/sergey-pesterev-y-b_FOmJXdg-unsplash.jpg,0,1,723,1,chosen,13,9,faces,outdoor_scenes,2200,0,5,1
205,68112,0,206,3,3,1,gain3,no_gain3,D,K,43,25,objects,body_parts,10,13,Stimuli/Experimental_stims/objects/jonathan-greenaway-Y4hGgeiFn3s-unsplash.jpg,Stimuli/Experimental_stims/body_parts/engin-akyurt-Q2rfH3GW39c-unsplash.jpg,0,0,902,0,unchosen,25,43,body_parts,objects,1200,0,5,1
206,68112,0,207,3,3,0,no_gain6,gain5,B,C,7,2,outdoor_scenes,outdoor_scenes,53,85,Stimuli/Experimental_stims/outdoor_scenes/petr-vysohlid-9fqwGqGLUxc-unsplash.jpg,Stimuli/Experimental_stims/outdoor_scenes/bruno-van-der-kraan-qez8mNJ3ilU-unsplash.jpg,0,0,792,1,chosen,2,7,outdoor_scenes,outdoor_scenes,2100,0,5,1
207,68112,0,208,3,3,1,gain1,no_gain5,L,F,13,15,faces,faces,46,19,Stimuli/Experimental_stims/faces/daniel-rigdon-dXmXKPP2L4E-unsplash.jpg,Stimuli/Experimental_stims/faces/erik-lucatero-d2MSDujJl2g-unsplash.jpg,0,1,773,1,chosen,13,15,faces,faces,2600,0,5,1
208,68112,0,209,3,3,0,no_gain2,gain3,G,D,39,43,objects,objects,77,10,Stimuli/Experimental_stims/objects/charlesdeluvio-1-nx1QR5dTE-unsplash.jpg,Stimuli/Experimental_stims/objects/jonathan-greenaway-Y4hGgeiFn3s-unsplash.jpg,0,1,650,0,unchosen,39,43,objects,objects,3800,1,5,1
209,68112,0,210,3,3,0,no_gain6,gain1,B,L,7,13,outdoor_scenes,faces,53,46,Stimuli/Experimental_stims/outdoor_scenes/petr-vysohlid-9fqwGqGLUxc-unsplash.jpg,Stimuli/Experimental_stims/faces/daniel-rigdon-dXmXKPP2L4E-unsplash.jpg,0,0,750,1,chosen,13,7,faces,outdoor_scenes,2300,0,5,1
210,68112,0,211,3,3,1,gain3,no_gain2,D,G,20,9,faces,outdoor_scenes,53,81,Stimuli/Experimental_stims/faces/justin-chen-J7Cf1Gch49E-unsplash.jpg,Stimuli/Experimental_stims/outdoor_scenes/sergey-pesterev-y-b_FOmJXdg-unsplash.jpg,0,1,1109,1,chosen,20,9,faces,outdoor_scenes,1500,0,5,1
211,68112,0,212,3,3,0,no_gain3,gain2,K,A,25,42,body_parts,objects,13,18,Stimuli/Experimental_stims/body_parts/engin-akyurt-Q2rfH3GW39c-unsplash.jpg,Stimuli/Experimental_stims/objects/jess-bailey-nOeVi8DsN8U-unsplash.jpg,0,0,741,1,unchosen,42,25,objects,body_parts,1700,0,5,1
212,68112,0,213,3,3,1,gain5,no_gain5,C,F,34,35,body_parts,body_parts,45,5,Stimuli/Experimental_stims/body_parts/wagner-santos-mBWMvIuVnso-unsplash.jpg,Stimuli/Experimental_stims/body_parts/wc-so-KH4AAPjb-tI-unsplash.jpg,0,1,598,1,unchosen,34,35,body_parts,body_parts,1000,0,5,1
213,68112,0,214,3,3,1,gain6,no_gain5,H,F,17,35,faces,body_parts,4,5,Stimuli/Experimental_stims/faces/good-faces-xmSWVeGEnJw-unsplash.jpg,Stimuli/Experimental_stims/body_parts/wc-so-KH4AAPjb-tI-unsplash.jpg,0,1,606,1,unchosen,17,35,faces,body_parts,2800,0,5,1
214,68112,0,215,3,3,0,no_gain1,gain5,I,C,11,2,outdoor_scenes,outdoor_scenes,76,85,Stimuli/Experimental_stims/outdoor_scenes/stephen-leonardi-gyIRjKPXupE-unsplash.jpg,Stimuli/Experimental_stims/outdoor_scenes/bruno-van-der-kraan-qez8mNJ3ilU-unsplash.jpg,0,0,699,1,chosen,2,11,outdoor_scenes,outdoor_scenes,2400,0,5,1
215,68112,0,216,3,3,0,no_gain1,gain5,I,C,28,34,body_parts,body_parts,41,45,Stimuli/Experimental_stims/body_parts/ira-vishnevskaya-8DQAvdCby1I-unsplash.jpg,Stimuli/Experimental_stims/body_parts/wagner-santos-mBWMvIuVnso-unsplash.jpg,0,0,601,1,unchosen,34,28,body_parts,body_parts,3800,1,5,1
216,68112,0,217,3,3,0,no_gain5,gain3,F,D,35,43,body_parts,objects,5,10,Stimuli/Experimental_stims/body_parts/wc-so-KH4AAPjb-tI-unsplash.jpg,Stimuli/Experimental_stims/objects/jonathan-greenaway-Y4hGgeiFn3s-unsplash.jpg,0,1,857,0,unchosen,35,43,body_parts,objects,1500,0,5,1
217,68112,0,218,3,3,0,no_gain5,gain1,F,L,35,31,body_parts,body_parts,5,13,Stimuli/Experimental_stims/body_parts/wc-so-KH4AAPjb-tI-unsplash.jpg,Stimuli/Experimental_stims/body_parts/sincerely-media-VN6DbKajo5s-unsplash.jpg,0,0,783,1,unchosen,31,35,body_parts,body_parts,1100,0,5,1
218,68112,0,219,3,3,1,gain4,no_gain2,J,G,45,9,objects,outdoor_scenes,58,81,Stimuli/Experimental_stims/objects/leohoho-rngTKHXumy0-unsplash.jpg,Stimuli/Experimental_stims/outdoor_scenes/sergey-pesterev-y-b_FOmJXdg-unsplash.jpg,0,1,818,1,chosen,45,9,objects,outdoor_scenes,1500,0,5,1
219,68112,0,220,3,3,0,no_gain2,gain6,G,H,9,10,outdoor_scenes,outdoor_scenes,81,84,Stimuli/Experimental_stims/outdoor_scenes/sergey-pesterev-y-b_FOmJXdg-unsplash.jpg,Stimuli/Experimental_stims/outdoor_scenes/shannon-kunkle-dM8INmkyDas-unsplash.jpg,0,0,1043,1,chosen,10,9,outdoor_scenes,outdoor_scenes,2500,0,5,1
220,68112,0,221,4,4,0,no_gain5,gain1,F,L,35,31,body_parts,body_parts,5,13,Stimuli/Experimental_stims/body_parts/wc-so-KH4AAPjb-tI-unsplash.jpg,Stimuli/Experimental_stims/body_parts/sincerely-media-VN6DbKajo5s-unsplash.jpg,0,0,815,1,unchosen,31,35,body_parts,body_parts,3400,1,3,1
221,68112,0,222,4,4,0,no_gain5,gain4,F,J,15,45,faces,objects,19,58,Stimuli/Experimental_stims/faces/erik-lucatero-d2MSDujJl2g-unsplash.jpg,Stimuli/Experimental_stims/objects/leohoho-rngTKHXumy0-unsplash.jpg,0,0,512,1,chosen,45,15,objects,faces,1500,0,3,1
222,68112,0,223,4,4,0,no_gain2,gain3,G,D,39,43,objects,objects,77,10,Stimuli/Experimental_stims/objects/charlesdeluvio-1-nx1QR5dTE-unsplash.jpg,Stimuli/Experimental_stims/objects/jonathan-greenaway-Y4hGgeiFn3s-unsplash.jpg,0,1,648,0,unchosen,39,43,objects,objects,2000,0,3,1
223,68112,0,224,4,4,0,no_gain4,gain3,E,D,29,43,body_parts,objects,0,10,Stimuli/Experimental_stims/body_parts/manuel-schinner-ZwjFuJ7ebpk-unsplash.jpg,Stimuli/Experimental_stims/objects/jonathan-greenaway-Y4hGgeiFn3s-unsplash.jpg,0,1,941,0,unchosen,29,43,body_parts,objects,1100,0,3,1
224,68112,0,225,4,4,0,no_gain1,gain6,I,H,28,17,body_parts,faces,41,4,Stimuli/Experimental_stims/body_parts/ira-vishnevskaya-8DQAvdCby1I-unsplash.jpg,Stimuli/Experimental_stims/faces/good-faces-xmSWVeGEnJw-unsplash.jpg,0,0,604,1,unchosen,17,28,faces,body_parts,2700,0,3,1
225,68112,0,226,4,4,0,no_gain4,gain2,E,A,40,0,objects,outdoor_scenes,35,63,Stimuli/Experimental_stims/objects/fabian-blank-pElSkGRA2NU-unsplash.jpg,Stimuli/Experimental_stims/outdoor_scenes/aleksandra-boguslawska-MS7KD9Ti7FQ-unsplash.jpg,0,0,597,1,chosen,0,40,outdoor_scenes,objects,1700,0,3,1
226,68112,0,227,4,4,0,no_gain1,gain1,I,L,11,13,outdoor_scenes,faces,76,46,Stimuli/Experimental_stims/outdoor_scenes/stephen-leonardi-gyIRjKPXupE-unsplash.jpg,Stimuli/Experimental_stims/faces/daniel-rigdon-dXmXKPP2L4E-unsplash.jpg,0,0,830,1,chosen,13,11,faces,outdoor_scenes,3500,1,3,1
227,68112,0,228,4,4,0,no_gain3,gain3,K,D,25,43,body_parts,objects,13,10,Stimuli/Experimental_stims/body_parts/engin-akyurt-Q2rfH3GW39c-unsplash.jpg,Stimuli/Experimental_stims/objects/jonathan-greenaway-Y4hGgeiFn3s-unsplash.jpg,0,1,733,0,unchosen,25,43,body_parts,objects,2700,0,3,1
228,68112,0,229,4,4,1,gain4,no_gain5,J,F,21,35,faces,body_parts,0,5,Stimuli/Experimental_stims/faces/leilani-angel-K84vnnzxmTQ-unsplash.jpg,Stimuli/Experimental_stims/body_parts/wc-so-KH4AAPjb-tI-unsplash.jpg,0,1,604,1,unchosen,21,35,faces,body_parts,1500,0,3,1
229,68112,0,230,4,4,0,no_gain6,gain1,B,L,7,13,outdoor_scenes,faces,53,46,Stimuli/Experimental_stims/outdoor_scenes/petr-vysohlid-9fqwGqGLUxc-unsplash.jpg,Stimuli/Experimental_stims/faces/daniel-rigdon-dXmXKPP2L4E-unsplash.jpg,0,0,1495,1,chosen,13,7,faces,outdoor_scenes,1700,0,3,1
230,68112,0,231,4,4,0,no_gain1,gain2,I,A,28,42,body_parts,objects,41,18,Stimuli/Experimental_stims/body_parts/ira-vishnevskaya-8DQAvdCby1I-unsplash.jpg,Stimuli/Experimental_stims/objects/jess-bailey-nOeVi8DsN8U-unsplash.jpg,0,0,812,1,unchosen,42,28,objects,body_parts,2300,0,3,1
231,68112,0,232,4,4,0,no_gain4,gain6,E,H,40,10,objects,outdoor_scenes,35,84,Stimuli/Experimental_stims/objects/fabian-blank-pElSkGRA2NU-unsplash.jpg,Stimuli/Experimental_stims/outdoor_scenes/shannon-kunkle-dM8INmkyDas-unsplash.jpg,0,0,576,1,chosen,10,40,outdoor_scenes,objects,3100,1,3,1
232,68112,0,233,4,4,1,gain5,no_gain3,C,K,2,47,outdoor_scenes,objects,85,22,Stimuli/Experimental_stims/outdoor_scenes/bruno-van-der-kraan-qez8mNJ3ilU-unsplash.jpg,Stimuli/Experimental_stims/objects/ronaldo-arthur-vidal-Cdz_lvnl37k-unsplash.jpg,0,1,589,1,chosen,2,47,outdoor_scenes,objects,1300,0,3,1
233,68112,0,234,4,4,1,gain1,no_gain3,L,K,13,47,faces,objects,46,22,Stimuli/Experimental_stims/faces/daniel-rigdon-dXmXKPP2L4E-unsplash.jpg,Stimuli/Experimental_stims/objects/ronaldo-arthur-vidal-Cdz_lvnl37k-unsplash.jpg,0,1,862,1,chosen,13,47,faces,objects,1400,0,3,1
234,68112,0,235,4,4,1,gain2,no_gain4,A,E,42,29,objects,body_parts,18,0,Stimuli/Experimental_stims/objects/jess-bailey-nOeVi8DsN8U-unsplash.jpg,Stimuli/Experimental_stims/body_parts/manuel-schinner-ZwjFuJ7ebpk-unsplash.jpg,0,0,922,0,unchosen,29,42,body_parts,objects,2500,0,3,1
235,68112,0,236,4,4,1,gain2,no_gain5,A,F,42,35,objects,body_parts,18,5,Stimuli/Experimental_stims/objects/jess-bailey-nOeVi8DsN8U-unsplash.jpg,Stimuli/Experimental_stims/body_parts/wc-so-KH4AAPjb-tI-unsplash.jpg,0,1,743,1,unchosen,42,35,objects,body_parts,1500,0,3,1
236,68112,0,237,4,4,1,gain4,no_gain1,J,I,21,28,faces,body_parts,0,41,Stimuli/Experimental_stims/faces/leilani-angel-K84vnnzxmTQ-unsplash.jpg,Stimuli/Experimental_stims/body_parts/ira-vishnevskaya-8DQAvdCby1I-unsplash.jpg,0,1,736,1,unchosen,21,28,faces,body_parts,1900,0,3,1
237,68112,0,238,4,4,1,gain6,no_gain3,H,K,10,47,outdoor_scenes,objects,84,22,Stimuli/Experimental_stims/outdoor_scenes/shannon-kunkle-dM8INmkyDas-unsplash.jpg,Stimuli/Experimental_stims/objects/ronaldo-arthur-vidal-Cdz_lvnl37k-unsplash.jpg,0,1,1086,1,chosen,10,47,outdoor_scenes,objects,1200,0,3,1
238,68112,0,239,4,4,1,gain2,no_gain5,A,F,0,15,outdoor_scenes,faces,63,19,Stimuli/Experimental_stims/outdoor_scenes/aleksandra-boguslawska-MS7KD9Ti7FQ-unsplash.jpg,Stimuli/Experimental_stims/faces/erik-lucatero-d2MSDujJl2g-unsplash.jpg,0,1,917,1,chosen,0,15,outdoor_scenes,faces,3500,1,3,1
239,68112,0,240,4,4,0,no_gain2,gain6,G,H,39,17,objects,faces,77,4,Stimuli/Experimental_stims/objects/charlesdeluvio-1-nx1QR5dTE-unsplash.jpg,Stimuli/Experimental_stims/faces/good-faces-xmSWVeGEnJw-unsplash.jpg,0,0,729,1,unchosen,17,39,faces,objects,1500,0,3,1
240,68112,0,241,4,4,1,gain5,no_gain6,C,B,2,7,outdoor_scenes,outdoor_scenes,85,53,Stimuli/Experimental_stims/outdoor_scenes/bruno-van-der-kraan-qez8mNJ3ilU-unsplash.jpg,Stimuli/Experimental_stims/outdoor_scenes/petr-vysohlid-9fqwGqGLUxc-unsplash.jpg,0,1,640,1,chosen,2,7,outdoor_scenes,outdoor_scenes,2200,0,3,1
241,68112,0,242,4,4,1,gain6,no_gain2,H,G,10,9,outdoor_scenes,outdoor_scenes,84,81,Stimuli/Experimental_stims/outdoor_scenes/shannon-kunkle-dM8INmkyDas-unsplash.jpg,Stimuli/Experimental_stims/outdoor_scenes/sergey-pesterev-y-b_FOmJXdg-unsplash.jpg,0,1,719,1,chosen,10,9,outdoor_scenes,outdoor_scenes,1100,0,3,1
242,68112,0,243,4,4,0,no_gain3,gain2,K,A,47,0,objects,outdoor_scenes,22,63,Stimuli/Experimental_stims/objects/ronaldo-arthur-vidal-Cdz_lvnl37k-unsplash.jpg,Stimuli/Experimental_stims/outdoor_scenes/aleksandra-boguslawska-MS7KD9Ti7FQ-unsplash.jpg,0,0,1027,1,chosen,0,47,outdoor_scenes,objects,1300,0,3,1
243,68112,0,244,4,4,0,no_gain3,gain5,K,C,25,34,body_parts,body_parts,13,45,Stimuli/Experimental_stims/body_parts/engin-akyurt-Q2rfH3GW39c-unsplash.jpg,Stimuli/Experimental_stims/body_parts/wagner-santos-mBWMvIuVnso-unsplash.jpg,0,0,893,1,unchosen,34,25,body_parts,body_parts,1500,0,3,1
244,68112,0,245,4,4,0,no_gain6,gain6,B,H,7,10,outdoor_scenes,outdoor_scenes,53,84,Stimuli/Experimental_stims/outdoor_scenes/petr-vysohlid-9fqwGqGLUxc-unsplash.jpg,Stimuli/Experimental_stims/outdoor_scenes/shannon-kunkle-dM8INmkyDas-unsplash.jpg,0,0,661,1,chosen,10,7,outdoor_scenes,outdoor_scenes,1100,0,3,1
245,68112,0,246,4,4,1,gain3,no_gain6,D,B,20,7,faces,outdoor_scenes,53,53,Stimuli/Experimental_stims/faces/justin-chen-J7Cf1Gch49E-unsplash.jpg,Stimuli/Experimental_stims/outdoor_scenes/petr-vysohlid-9fqwGqGLUxc-unsplash.jpg,0,1,1088,1,chosen,20,7,faces,outdoor_scenes,2000,0,3,1
246,68112,0,247,4,4,0,no_gain2,gain5,G,C,39,34,objects,body_parts,77,45,Stimuli/Experimental_stims/objects/charlesdeluvio-1-nx1QR5dTE-unsplash.jpg,Stimuli/Experimental_stims/body_parts/wagner-santos-mBWMvIuVnso-unsplash.jpg,0,0,563,1,unchosen,34,39,body_parts,objects,4700,1,3,1
247,68112,0,248,4,4,0,no_gain1,gain3,I,D,11,20,outdoor_scenes,faces,76,53,Stimuli/Experimental_stims/outdoor_scenes/stephen-leonardi-gyIRjKPXupE-unsplash.jpg,Stimuli/Experimental_stims/faces/justin-chen-J7Cf1Gch49E-unsplash.jpg,0,1,596,0,chosen,11,20,outdoor_scenes,faces,2400,0,3,1
248,68112,0,249,4,4,1,gain4,no_gain2,J,G,21,39,faces,objects,0,77,Stimuli/Experimental_stims/faces/leilani-angel-K84vnnzxmTQ-unsplash.jpg,Stimuli/Experimental_stims/objects/charlesdeluvio-1-nx1QR5dTE-unsplash.jpg,0,1,614,1,unchosen,21,39,faces,objects,1100,0,3,1
249,68112,0,250,4,4,1,gain6,no_gain5,H,F,10,15,outdoor_scenes,faces,84,19,Stimuli/Experimental_stims/outdoor_scenes/shannon-kunkle-dM8INmkyDas-unsplash.jpg,Stimuli/Experimental_stims/faces/erik-lucatero-d2MSDujJl2g-unsplash.jpg,0,1,927,1,chosen,10,15,outdoor_scenes,faces,2400,0,3,1
250,68112,0,251,4,4,1,gain4,no_gain6,J,B,21,23,faces,faces,0,24,Stimuli/Experimental_stims/faces/leilani-angel-K84vnnzxmTQ-unsplash.jpg,Stimuli/Experimental_stims/faces/rikonavt-HQjfrvdTfak-unsplash.jpg,0,0,705,0,unchosen,23,21,faces,faces,1600,0,3,1
251,68112,0,252,4,4,0,no_gain1,gain1,I,L,28,31,body_parts,body_parts,41,13,Stimuli/Experimental_stims/body_parts/ira-vishnevskaya-8DQAvdCby1I-unsplash.jpg,Stimuli/Experimental_stims/body_parts/sincerely-media-VN6DbKajo5s-unsplash.jpg,0,1,755,0,unchosen,28,31,body_parts,body_parts,2300,0,3,1
252,68112,0,253,4,4,0,no_gain3,gain4,K,J,47,45,objects,objects,22,58,Stimuli/Experimental_stims/objects/ronaldo-arthur-vidal-Cdz_lvnl37k-unsplash.jpg,Stimuli/Experimental_stims/objects/leohoho-rngTKHXumy0-unsplash.jpg,0,0,547,1,chosen,45,47,objects,objects,2500,0,3,1
253,68112,0,254,4,4,1,gain3,no_gain5,D,F,20,15,faces,faces,53,19,Stimuli/Experimental_stims/faces/justin-chen-J7Cf1Gch49E-unsplash.jpg,Stimuli/Experimental_stims/faces/erik-lucatero-d2MSDujJl2g-unsplash.jpg,0,1,869,1,chosen,20,15,faces,faces,3700,1,3,1
254,68112,0,255,4,4,1,gain2,no_gain1,A,I,0,11,outdoor_scenes,outdoor_scenes,63,76,Stimuli/Experimental_stims/outdoor_scenes/aleksandra-boguslawska-MS7KD9Ti7FQ-unsplash.jpg,Stimuli/Experimental_stims/outdoor_scenes/stephen-leonardi-gyIRjKPXupE-unsplash.jpg,0,1,1057,1,chosen,0,11,outdoor_scenes,outdoor_scenes,2100,0,3,1
255,68112,0,256,4,4,1,gain6,no_gain3,H,K,17,25,faces,body_parts,4,13,Stimuli/Experimental_stims/faces/good-faces-xmSWVeGEnJw-unsplash.jpg,Stimuli/Experimental_stims/body_parts/engin-akyurt-Q2rfH3GW39c-unsplash.jpg,0,1,660,1,unchosen,17,25,faces,body_parts,2300,0,3,1
256,68112,0,257,4,4,0,no_gain6,gain1,B,L,23,31,faces,body_parts,24,13,Stimuli/Experimental_stims/faces/rikonavt-HQjfrvdTfak-unsplash.jpg,Stimuli/Experimental_stims/body_parts/sincerely-media-VN6DbKajo5s-unsplash.jpg,0,1,666,0,unchosen,23,31,faces,body_parts,1700,0,3,1
257,68112,0,258,4,4,0,no_gain4,gain6,E,H,29,17,body_parts,faces,0,4,Stimuli/Experimental_stims/body_parts/manuel-schinner-ZwjFuJ7ebpk-unsplash.jpg,Stimuli/Experimental_stims/faces/good-faces-xmSWVeGEnJw-unsplash.jpg,0,0,656,1,unchosen,17,29,faces,body_parts,2900,0,3,1
258,68112,0,259,4,4,0,no_gain4,gain1,E,L,40,13,objects,faces,35,46,Stimuli/Experimental_stims/objects/fabian-blank-pElSkGRA2NU-unsplash.jpg,Stimuli/Experimental_stims/faces/daniel-rigdon-dXmXKPP2L4E-unsplash.jpg,0,0,800,1,chosen,13,40,faces,objects,3000,1,3,1
259,68112,0,260,4,4,1,gain2,no_gain3,A,K,42,25,objects,body_parts,18,13,Stimuli/Experimental_stims/objects/jess-bailey-nOeVi8DsN8U-unsplash.jpg,Stimuli/Experimental_stims/body_parts/engin-akyurt-Q2rfH3GW39c-unsplash.jpg,0,0,898,0,unchosen,25,42,body_parts,objects,2600,0,3,1
260,68112,0,261,4,4,0,no_gain6,gain5,B,C,23,34,faces,body_parts,24,45,Stimuli/Experimental_stims/faces/rikonavt-HQjfrvdTfak-unsplash.jpg,Stimuli/Experimental_stims/body_parts/wagner-santos-mBWMvIuVnso-unsplash.jpg,0,0,546,1,unchosen,34,23,body_parts,faces,1700,0,3,1
261,68112,0,262,4,4,0,no_gain3,gain1,K,L,25,31,body_parts,body_parts,13,13,Stimuli/Experimental_stims/body_parts/engin-akyurt-Q2rfH3GW39c-unsplash.jpg,Stimuli/Experimental_stims/body_parts/sincerely-media-VN6DbKajo5s-unsplash.jpg,0,0,1061,1,unchosen,31,25,body_parts,body_parts,1800,0,3,1
262,68112,0,263,4,4,1,gain5,no_gain5,C,F,2,15,outdoor_scenes,faces,85,19,Stimuli/Experimental_stims/outdoor_scenes/bruno-van-der-kraan-qez8mNJ3ilU-unsplash.jpg,Stimuli/Experimental_stims/faces/erik-lucatero-d2MSDujJl2g-unsplash.jpg,0,1,557,1,chosen,2,15,outdoor_scenes,faces,1400,0,3,1
263,68112,0,264,4,4,0,no_gain2,gain1,G,L,9,13,outdoor_scenes,faces,81,46,Stimuli/Experimental_stims/outdoor_scenes/sergey-pesterev-y-b_FOmJXdg-unsplash.jpg,Stimuli/Experimental_stims/faces/daniel-rigdon-dXmXKPP2L4E-unsplash.jpg,0,0,776,1,chosen,13,9,faces,outdoor_scenes,2200,0,3,1
264,68112,0,265,4,4,0,no_gain2,gain1,G,L,39,31,objects,body_parts,77,13,Stimuli/Experimental_stims/objects/charlesdeluvio-1-nx1QR5dTE-unsplash.jpg,Stimuli/Experimental_stims/body_parts/sincerely-media-VN6DbKajo5s-unsplash.jpg,0,0,771,1,unchosen,31,39,body_parts,objects,3500,1,3,1
265,68112,0,266,4,4,1,gain3,no_gain3,D,K,20,47,faces,objects,53,22,Stimuli/Experimental_stims/faces/justin-chen-J7Cf1Gch49E-unsplash.jpg,Stimuli/Experimental_stims/objects/ronaldo-arthur-vidal-Cdz_lvnl37k-unsplash.jpg,0,1,699,1,chosen,20,47,faces,objects,1400,0,3,1
266,68112,0,267,4,4,0,no_gain2,gain4,G,J,9,45,outdoor_scenes,objects,81,58,Stimuli/Experimental_stims/outdoor_scenes/sergey-pesterev-y-b_FOmJXdg-unsplash.jpg,Stimuli/Experimental_stims/objects/leohoho-rngTKHXumy0-unsplash.jpg,0,0,608,1,chosen,45,9,objects,outdoor_scenes,1100,0,3,1
267,68112,0,268,4,4,1,gain6,no_gain1,H,I,10,11,outdoor_scenes,outdoor_scenes,84,76,Stimuli/Experimental_stims/outdoor_scenes/shannon-kunkle-dM8INmkyDas-unsplash.jpg,Stimuli/Experimental_stims/outdoor_scenes/stephen-leonardi-gyIRjKPXupE-unsplash.jpg,0,1,698,1,chosen,10,11,outdoor_scenes,outdoor_scenes,1300,0,3,1
268,68112,0,269,4,4,0,no_gain1,gain3,I,D,28,43,body_parts,objects,41,10,Stimuli/Experimental_stims/body_parts/ira-vishnevskaya-8DQAvdCby1I-unsplash.jpg,Stimuli/Experimental_stims/objects/jonathan-greenaway-Y4hGgeiFn3s-unsplash.jpg,0,0,1020,1,unchosen,43,28,objects,body_parts,2600,0,3,1
269,68112,0,270,4,4,0,no_gain4,gain4,E,J,40,45,objects,objects,35,58,Stimuli/Experimental_stims/objects/fabian-blank-pElSkGRA2NU-unsplash.jpg,Stimuli/Experimental_stims/objects/leohoho-rngTKHXumy0-unsplash.jpg,0,0,479,1,chosen,45,40,objects,objects,1100,0,3,1
270,68112,0,271,4,4,1,gain1,no_gain4,L,E,31,29,body_parts,body_parts,13,0,Stimuli/Experimental_stims/body_parts/sincerely-media-VN6DbKajo5s-unsplash.jpg,Stimuli/Experimental_stims/body_parts/manuel-schinner-ZwjFuJ7ebpk-unsplash.jpg,0,1,770,1,unchosen,31,29,body_parts,body_parts,1400,0,3,1
271,68112,0,272,4,4,1,gain4,no_gain3,J,K,21,25,faces,body_parts,0,13,Stimuli/Experimental_stims/faces/leilani-angel-K84vnnzxmTQ-unsplash.jpg,Stimuli/Experimental_stims/body_parts/engin-akyurt-Q2rfH3GW39c-unsplash.jpg,0,1,709,1,unchosen,21,25,faces,body_parts,3200,1,3,1
272,68112,0,273,4,4,0,no_gain6,gain2,B,A,7,0,outdoor_scenes,outdoor_scenes,53,63,Stimuli/Experimental_stims/outdoor_scenes/petr-vysohlid-9fqwGqGLUxc-unsplash.jpg,Stimuli/Experimental_stims/outdoor_scenes/aleksandra-boguslawska-MS7KD9Ti7FQ-unsplash.jpg,0,0,675,1,chosen,0,7,outdoor_scenes,outdoor_scenes,1600,0,3,1
273,68112,0,274,4,4,0,no_gain2,gain5,G,C,9,2,outdoor_scenes,outdoor_scenes,81,85,Stimuli/Experimental_stims/outdoor_scenes/sergey-pesterev-y-b_FOmJXdg-unsplash.jpg,Stimuli/Experimental_stims/outdoor_scenes/bruno-van-der-kraan-qez8mNJ3ilU-unsplash.jpg,0,0,639,1,chosen,2,9,outdoor_scenes,outdoor_scenes,1000,0,3,1
274,68112,0,275,4,4,1,gain1,no_gain5,L,F,13,15,faces,faces,46,19,Stimuli/Experimental_stims/faces/daniel-rigdon-dXmXKPP2L4E-unsplash.jpg,Stimuli/Experimental_stims/faces/erik-lucatero-d2MSDujJl2g-unsplash.jpg,0,1,1131,1,chosen,13,15,faces,faces,1700,0,3,1
275,68112,0,276,4,4,1,gain4,no_gain4,J,E,21,29,faces,body_parts,0,0,Stimuli/Experimental_stims/faces/leilani-angel-K84vnnzxmTQ-unsplash.jpg,Stimuli/Experimental_stims/body_parts/manuel-schinner-ZwjFuJ7ebpk-unsplash.jpg,0,1,746,1,unchosen,21,29,faces,body_parts,1200,0,3,1
276,68112,0,277,4,4,1,gain3,no_gain5,D,F,43,35,objects,body_parts,10,5,Stimuli/Experimental_stims/objects/jonathan-greenaway-Y4hGgeiFn3s-unsplash.jpg,Stimuli/Experimental_stims/body_parts/wc-so-KH4AAPjb-tI-unsplash.jpg,0,0,955,0,unchosen,35,43,body_parts,objects,2200,0,3,1
277,68112,0,278,4,4,0,no_gain5,gain6,F,H,35,17,body_parts,faces,5,4,Stimuli/Experimental_stims/body_parts/wc-so-KH4AAPjb-tI-unsplash.jpg,Stimuli/Experimental_stims/faces/good-faces-xmSWVeGEnJw-unsplash.jpg,0,0,741,1,unchosen,17,35,faces,body_parts,2000,0,3,1
278,68112,0,279,4,4,1,gain3,no_gain4,D,E,20,40,faces,objects,53,35,Stimuli/Experimental_stims/faces/justin-chen-J7Cf1Gch49E-unsplash.jpg,Stimuli/Experimental_stims/objects/fabian-blank-pElSkGRA2NU-unsplash.jpg,0,1,687,1,chosen,20,40,faces,objects,3100,1,3,1
279,68112,0,280,4,4,1,gain5,no_gain5,C,F,34,35,body_parts,body_parts,45,5,Stimuli/Experimental_stims/body_parts/wagner-santos-mBWMvIuVnso-unsplash.jpg,Stimuli/Experimental_stims/body_parts/wc-so-KH4AAPjb-tI-unsplash.jpg,0,1,718,1,unchosen,34,35,body_parts,body_parts,2400,0,3,1
280,68112,0,281,4,4,1,gain4,no_gain1,J,I,45,11,objects,outdoor_scenes,58,76,Stimuli/Experimental_stims/objects/leohoho-rngTKHXumy0-unsplash.jpg,Stimuli/Experimental_stims/outdoor_scenes/stephen-leonardi-gyIRjKPXupE-unsplash.jpg,0,1,559,1,chosen,45,11,objects,outdoor_scenes,1000,0,3,1
281,68112,0,282,4,4,0,no_gain1,gain5,I,C,11,2,outdoor_scenes,outdoor_scenes,76,85,Stimuli/Experimental_stims/outdoor_scenes/stephen-leonardi-gyIRjKPXupE-unsplash.jpg,Stimuli/Experimental_stims/outdoor_scenes/bruno-van-der-kraan-qez8mNJ3ilU-unsplash.jpg,0,0,1285,1,chosen,2,11,outdoor_scenes,outdoor_scenes,1900,0,3,1
282,68112,0,283,4,4,0,no_gain4,gain5,E,C,29,34,body_parts,body_parts,0,45,Stimuli/Experimental_stims/body_parts/manuel-schinner-ZwjFuJ7ebpk-unsplash.jpg,Stimuli/Experimental_stims/body_parts/wagner-santos-mBWMvIuVnso-unsplash.jpg,0,0,678,1,unchosen,34,29,body_parts,body_parts,2400,0,3,1
283,68112,0,284,4,4,1,gain2,no_gain2,A,G,0,9,outdoor_scenes,outdoor_scenes,63,81,Stimuli/Experimental_stims/outdoor_scenes/aleksandra-boguslawska-MS7KD9Ti7FQ-unsplash.jpg,Stimuli/Experimental_stims/outdoor_scenes/sergey-pesterev-y-b_FOmJXdg-unsplash.jpg,0,1,991,1,chosen,0,9,outdoor_scenes,outdoor_scenes,1300,0,3,1
284,68112,0,285,4,4,0,no_gain4,gain5,E,C,40,2,objects,outdoor_scenes,35,85,Stimuli/Experimental_stims/objects/fabian-blank-pElSkGRA2NU-unsplash.jpg,Stimuli/Experimental_stims/outdoor_scenes/bruno-van-der-kraan-qez8mNJ3ilU-unsplash.jpg,1,NaN,,NaN,chosen,NaN,NaN,NaN,NaN,1600,0,3,1
285,68112,0,286,4,4,1,gain6,no_gain6,H,B,17,23,faces,faces,4,24,Stimuli/Experimental_stims/faces/good-faces-xmSWVeGEnJw-unsplash.jpg,Stimuli/Experimental_stims/faces/rikonavt-HQjfrvdTfak-unsplash.jpg,0,1,982,1,unchosen,17,23,faces,faces,1000,0,3,1
286,68112,0,287,4,4,0,no_gain6,gain4,B,J,7,45,outdoor_scenes,objects,53,58,Stimuli/Experimental_stims/outdoor_scenes/petr-vysohlid-9fqwGqGLUxc-unsplash.jpg,Stimuli/Experimental_stims/objects/leohoho-rngTKHXumy0-unsplash.jpg,0,0,576,1,chosen,45,7,objects,outdoor_scenes,1500,0,3,1
287,68112,0,288,4,4,1,gain5,no_gain1,C,I,34,28,body_parts,body_parts,45,41,Stimuli/Experimental_stims/body_parts/wagner-santos-mBWMvIuVnso-unsplash.jpg,Stimuli/Experimental_stims/body_parts/ira-vishnevskaya-8DQAvdCby1I-unsplash.jpg,0,1,669,1,unchosen,34,28,body_parts,body_parts,1900,0,3,1
288,68112,0,289,4,4,1,gain3,no_gain2,D,G,20,9,faces,outdoor_scenes,53,81,Stimuli/Experimental_stims/faces/justin-chen-J7Cf1Gch49E-unsplash.jpg,Stimuli/Experimental_stims/outdoor_scenes/sergey-pesterev-y-b_FOmJXdg-unsplash.jpg,0,1,977,1,chosen,20,9,faces,outdoor_scenes,1600,0,3,1
289,68112,0,290,4,4,1,gain3,no_gain6,D,B,43,23,objects,faces,10,24,Stimuli/Experimental_stims/objects/jonathan-greenaway-Y4hGgeiFn3s-unsplash.jpg,Stimuli/Experimental_stims/faces/rikonavt-HQjfrvdTfak-unsplash.jpg,0,0,824,0,unchosen,23,43,faces,objects,1200,0,3,1
290,68112,0,291,4,4,1,gain2,no_gain2,A,G,42,39,objects,objects,18,77,Stimuli/Experimental_stims/objects/jess-bailey-nOeVi8DsN8U-unsplash.jpg,Stimuli/Experimental_stims/objects/charlesdeluvio-1-nx1QR5dTE-unsplash.jpg,0,0,1258,0,unchosen,39,42,objects,objects,1000,0,3,1
291,68112,0,292,4,4,1,gain2,no_gain6,A,B,42,23,objects,faces,18,24,Stimuli/Experimental_stims/objects/jess-bailey-nOeVi8DsN8U-unsplash.jpg,Stimuli/Experimental_stims/faces/rikonavt-HQjfrvdTfak-unsplash.jpg,0,0,780,0,unchosen,23,42,faces,objects,3200,1,3,1