,PID,practice,trial,block,run,gain_left,left_item_id,right_item_id,left_pair_id,right_pair_id,left_stimulus,right_stimulus,left_category,right_category,left_rating,right_rating,left_path,right_path,no_response,left_chosen,rt,higher_outcome_chosen,choice_type,chosen_stimulus,unchosen_stimulus,chosen_category,unchosen_category,iti,long_iti,simulation,version
0,22695,1,1,0,0,0,,,,,,,,,,,Stimuli/Practice_stims/Final_decisions/debby-hudson-FmCSSSGge-0-unsplash.jpg,Stimuli/Practice_stims/Final_decisions/yassine-khalfalli-adsQ9d_Cx0c-unsplash.jpg,0,NaN,NaN,NaN,,NaN,NaN,NaN,NaN,3000,0,5,4
1,22695,1,2,0,0,0,,,,,,,,,,,Stimuli/Practice_stims/Final_decisions/florian-wehde-iVW7mZPwd4g-unsplash.jpg,Stimuli/Practice_stims/Final_decisions/patrick-perkins-3wylDrjxH-E-unsplash.jpg,0,NaN,NaN,NaN,,NaN,NaN,NaN,NaN,1500,0,5,4
2,22695,1,3,0,0,0,,,,,,,,,,,Stimuli/Practice_stims/Final_decisions/debby-hudson-FmCSSSGge-0-unsplash.jpg,Stimuli/Practice_stims/Final_decisions/florian-wehde-iVW7mZPwd4g-unsplash.jpg,0,NaN,NaN,NaN,,NaN,NaN,NaN,NaN,2000,0,5,4
3,22695,1,4,0,0,0,,,,,,,,,,,Stimuli/Practice_stims/Final_decisions/yassine-khalfalli-adsQ9d_Cx0c-unsplash.jpg,Stimuli/Practice_stims/Final_decisions/debby-hudson-FmCSSSGge-0-unsplash.jpg,0,NaN,NaN,NaN,,NaN,NaN,NaN,NaN,1000,0,5,4
4,22695,0,5,1,1,0,no_gain2,gain4,A,L,0,32,outdoor_scenes,body_parts,71,31,Stimuli/Experimental_stims/outdoor_scenes/aleksandra-boguslawska-MS7KD9Ti7FQ-unsplash.jpg,Stimuli/Experimental_stims/body_parts/towfiqu-barbhuiya-3AsiVDsZnHg-unsplash.jpg,0,NaN,NaN,NaN,chosen,NaN,NaN,NaN,NaN,5000,1,5,4
5,22695,0,6,1,1,0,no_gain1,gain4,I,L,34,16,body_parts,faces,23,63,Stimuli/Experimental_stims/body_parts/wagner-santos-mBWMvIuVnso-unsplash.jpg,Stimuli/Experimental_stims/faces/freddy-kearney-o-ioeoATbIM-unsplash.jpg,0,NaN,NaN,NaN,unchosen,NaN,NaN,NaN,NaN,1700,0,5,4
6,22695,0,7,1,1,1,gain2,no_gain4,H,E,,42,NaN,objects,,23,,Stimuli/Experimental_stims/objects/jess-bailey-nOeVi8DsN8U-unsplash.jpg,0,NaN,NaN,NaN,chosen,NaN,NaN,NaN,NaN,1600,0,5,4
7,22695,0,8,1,1,1,gain1,no_gain2,F,A,26,43,body_parts,objects,30,78,Stimuli/Experimental_stims/body_parts/engin-akyurt-x_3gyC42btc-unsplash.jpg,Stimuli/Experimental_stims/objects/jonathan-greenaway-Y4hGgeiFn3s-unsplash.jpg,0,NaN,NaN,NaN,unchosen,NaN,NaN,NaN,NaN,1800,0,5,4
8,22695,0,9,1,1,0,no_gain6,gain6,B,D,7,,outdoor_scenes,NaN,81,,Stimuli/Experimental_stims/outdoor_scenes/petr-vysohlid-9fqwGqGLUxc-unsplash.jpg,,0,NaN,NaN,NaN,unchosen,NaN,NaN,NaN,NaN,1300,0,5,4
9,22695,0,10,1,1,1,gain6,no_gain1,D,I,,34,NaN,body_parts,,23,,Stimuli/Experimental_stims/body_parts/wagner-santos-mBWMvIuVnso-unsplash.jpg,0,NaN,NaN,NaN,unchosen,NaN,NaN,NaN,NaN,1200,0,5,4
10,22695,0,11,1,1,0,no_gain4,gain5,E,C,42,5,objects,outdoor_scenes,23,66,Stimuli/Experimental_stims/objects/jess-bailey-nOeVi8DsN8U-unsplash.jpg,Stimuli/Experimental_stims/outdoor_scenes/jeff-king-bJHWJeiHfHc-unsplash.jpg,0,NaN,NaN,NaN,chosen,NaN,NaN,NaN,NaN,3800,1,5,4
11,22695,0,12,1,1,0,no_gain3,gain2,K,H,,,NaN,NaN,,,,,0,NaN,NaN,NaN,chosen,NaN,NaN,NaN,NaN,1100,0,5,4
12,22695,0,13,1,1,1,gain5,no_gain4,C,E,25,27,body_parts,body_parts,14,92,Stimuli/Experimental_stims/body_parts/engin-akyurt-Q2rfH3GW39c-unsplash.jpg,Stimuli/Experimental_stims/body_parts/heike-mintel-i_Gns0ELnLw-unsplash.jpg,0,NaN,NaN,NaN,unchosen,NaN,NaN,NaN,NaN,2500,0,5,4
13,22695,0,14,1,1,0,no_gain3,gain3,K,J,,41,NaN,objects,,70,,Stimuli/Experimental_stims/objects/insung-yoon-w2JtIQQXoRU-unsplash.jpg,0,NaN,NaN,NaN,chosen,NaN,NaN,NaN,NaN,1500,0,5,4
14,22695,0,15,1,1,0,no_gain6,gain1,B,F,7,26,outdoor_scenes,body_parts,81,30,Stimuli/Experimental_stims/outdoor_scenes/petr-vysohlid-9fqwGqGLUxc-unsplash.jpg,Stimuli/Experimental_stims/body_parts/engin-akyurt-x_3gyC42btc-unsplash.jpg,0,NaN,NaN,NaN,unchosen,NaN,NaN,NaN,NaN,1400,0,5,4
15,22695,0,16,1,1,0,no_gain2,gain3,A,J,0,41,outdoor_scenes,objects,71,70,Stimuli/Experimental_stims/outdoor_scenes/aleksandra-boguslawska-MS7KD9Ti7FQ-unsplash.jpg,Stimuli/Experimental_stims/objects/insung-yoon-w2JtIQQXoRU-unsplash.jpg,0,NaN,NaN,NaN,chosen,NaN,NaN,NaN,NaN,3300,1,5,4
16,22695,0,17,1,1,0,no_gain3,gain3,K,J,,20,NaN,faces,,59,,Stimuli/Experimental_stims/faces/justin-chen-J7Cf1Gch49E-unsplash.jpg,0,NaN,NaN,NaN,unchosen,NaN,NaN,NaN,NaN,1800,0,5,4
17,22695,0,18,1,1,0,no_gain1,gain3,I,J,34,20,body_parts,faces,23,59,Stimuli/Experimental_stims/body_parts/wagner-santos-mBWMvIuVnso-unsplash.jpg,Stimuli/Experimental_stims/faces/justin-chen-J7Cf1Gch49E-unsplash.jpg,0,NaN,NaN,NaN,unchosen,NaN,NaN,NaN,NaN,1900,0,5,4
18,22695,0,19,1,1,0,no_gain6,gain4,B,L,7,16,outdoor_scenes,faces,81,63,Stimuli/Experimental_stims/outdoor_scenes/petr-vysohlid-9fqwGqGLUxc-unsplash.jpg,Stimuli/Experimental_stims/faces/freddy-kearney-o-ioeoATbIM-unsplash.jpg,0,NaN,NaN,NaN,unchosen,NaN,NaN,NaN,NaN,1100,0,5,4
19,22695,0,20,1,1,0,no_gain2,gain1,A,F,0,18,outdoor_scenes,faces,71,49,Stimuli/Experimental_stims/outdoor_scenes/aleksandra-boguslawska-MS7KD9Ti7FQ-unsplash.jpg,Stimuli/Experimental_stims/faces/jessica-radanavong-mrYkTuAesKE-unsplash.jpg,0,NaN,NaN,NaN,chosen,NaN,NaN,NaN,NaN,1200,0,5,4
20,22695,0,21,1,1,1,gain4,no_gain4,L,E,16,27,faces,body_parts,63,92,Stimuli/Experimental_stims/faces/freddy-kearney-o-ioeoATbIM-unsplash.jpg,Stimuli/Experimental_stims/body_parts/heike-mintel-i_Gns0ELnLw-unsplash.jpg,0,NaN,NaN,NaN,unchosen,NaN,NaN,NaN,NaN,1400,0,5,4
21,22695,0,22,1,1,0,no_gain4,gain3,E,J,42,41,objects,objects,23,70,Stimuli/Experimental_stims/objects/jess-bailey-nOeVi8DsN8U-unsplash.jpg,Stimuli/Experimental_stims/objects/insung-yoon-w2JtIQQXoRU-unsplash.jpg,0,NaN,NaN,NaN,chosen,NaN,NaN,NaN,NaN,1100,0,5,4
22,22695,0,23,1,1,0,no_gain3,gain5,K,C,,25,NaN,body_parts,,14,,Stimuli/Experimental_stims/body_parts/engin-akyurt-Q2rfH3GW39c-unsplash.jpg,0,NaN,NaN,NaN,unchosen,NaN,NaN,NaN,NaN,1500,0,5,4
23,22695,0,24,1,1,1,gain1,no_gain3,F,K,18,,faces,NaN,49,,Stimuli/Experimental_stims/faces/jessica-radanavong-mrYkTuAesKE-unsplash.jpg,,0,NaN,NaN,NaN,chosen,NaN,NaN,NaN,NaN,1600,0,5,4
24,22695,0,25,1,1,1,gain2,no_gain1,H,I,,34,NaN,body_parts,,23,,Stimuli/Experimental_stims/body_parts/wagner-santos-mBWMvIuVnso-unsplash.jpg,0,NaN,NaN,NaN,unchosen,NaN,NaN,NaN,NaN,3000,1,5,4
25,22695,0,26,1,1,1,gain6,no_gain4,D,E,,42,NaN,objects,,23,,Stimuli/Experimental_stims/objects/jess-bailey-nOeVi8DsN8U-unsplash.jpg,0,NaN,NaN,NaN,chosen,NaN,NaN,NaN,NaN,1600,0,5,4
26,22695,0,27,1,1,0,no_gain1,gain1,I,F,34,26,body_parts,body_parts,23,30,Stimuli/Experimental_stims/body_parts/wagner-santos-mBWMvIuVnso-unsplash.jpg,Stimuli/Experimental_stims/body_parts/engin-akyurt-x_3gyC42btc-unsplash.jpg,0,NaN,NaN,NaN,unchosen,NaN,NaN,NaN,NaN,2900,0,5,4
27,22695,0,28,1,1,0,no_gain1,gain3,I,J,6,41,outdoor_scenes,objects,82,70,Stimuli/Experimental_stims/outdoor_scenes/meng-ji-8BH_M-53CyA-unsplash.jpg,Stimuli/Experimental_stims/objects/insung-yoon-w2JtIQQXoRU-unsplash.jpg,0,NaN,NaN,NaN,chosen,NaN,NaN,NaN,NaN,2700,0,5,4
28,22695,0,29,1,1,1,gain5,no_gain3,C,K,5,,outdoor_scenes,NaN,66,,Stimuli/Experimental_stims/outdoor_scenes/jeff-king-bJHWJeiHfHc-unsplash.jpg,,0,NaN,NaN,NaN,chosen,NaN,NaN,NaN,NaN,1800,0,5,4
29,22695,0,30,1,1,1,gain5,no_gain5,C,G,25,,body_parts,NaN,14,,Stimuli/Experimental_stims/body_parts/engin-akyurt-Q2rfH3GW39c-unsplash.jpg,,0,NaN,NaN,NaN,unchosen,NaN,NaN,NaN,NaN,2300,0,5,4
30,22695,0,31,1,1,0,no_gain1,gain4,I,L,6,32,outdoor_scenes,body_parts,82,31,Stimuli/Experimental_stims/outdoor_scenes/meng-ji-8BH_M-53CyA-unsplash.jpg,Stimuli/Experimental_stims/body_parts/towfiqu-barbhuiya-3AsiVDsZnHg-unsplash.jpg,0,NaN,NaN,NaN,chosen,NaN,NaN,NaN,NaN,2000,0,5,4
31,22695,0,32,1,1,1,gain6,no_gain2,D,A,,0,NaN,outdoor_scenes,,71,,Stimuli/Experimental_stims/outdoor_scenes/aleksandra-boguslawska-MS7KD9Ti7FQ-unsplash.jpg,0,NaN,NaN,NaN,chosen,NaN,NaN,NaN,NaN,2600,0,5,4
32,22695,0,33,1,1,1,gain4,no_gain3,L,K,16,,faces,NaN,63,,Stimuli/Experimental_stims/faces/freddy-kearney-o-ioeoATbIM-unsplash.jpg,,0,NaN,NaN,NaN,unchosen,NaN,NaN,NaN,NaN,3500,1,5,4
33,22695,0,34,1,1,1,gain4,no_gain5,L,G,16,,faces,NaN,63,,Stimuli/Experimental_stims/faces/freddy-kearney-o-ioeoATbIM-unsplash.jpg,,0,NaN,NaN,NaN,unchosen,NaN,NaN,NaN,NaN,1000,0,5,4
34,22695,0,35,1,1,0,no_gain5,gain6,G,D,,,NaN,NaN,,,,,0,NaN,NaN,NaN,chosen,NaN,NaN,NaN,NaN,1600,0,5,4
35,22695,0,36,1,1,1,gain1,no_gain5,F,G,18,,faces,NaN,49,,Stimuli/Experimental_stims/faces/jessica-radanavong-mrYkTuAesKE-unsplash.jpg,,0,NaN,NaN,NaN,chosen,NaN,NaN,NaN,NaN,1200,0,5,4
36,22695,0,37,1,1,0,no_gain6,gain2,B,H,14,,faces,NaN,49,,Stimuli/Experimental_stims/faces/david-siglin-UuW4psOb388-unsplash.jpg,,0,NaN,NaN,NaN,chosen,NaN,NaN,NaN,NaN,1500,0,5,4
37,22695,0,38,1,1,1,gain2,no_gain6,H,B,,7,NaN,outdoor_scenes,,81,,Stimuli/Experimental_stims/outdoor_scenes/petr-vysohlid-9fqwGqGLUxc-unsplash.jpg,0,NaN,NaN,NaN,unchosen,NaN,NaN,NaN,NaN,4800,1,5,4
38,22695,0,39,1,1,1,gain2,no_gain2,H,A,,0,NaN,outdoor_scenes,,71,,Stimuli/Experimental_stims/outdoor_scenes/aleksandra-boguslawska-MS7KD9Ti7FQ-unsplash.jpg,0,NaN,NaN,NaN,chosen,NaN,NaN,NaN,NaN,1500,0,5,4
39,22695,0,40,1,1,0,no_gain5,gain1,G,F,,26,NaN,body_parts,,30,,Stimuli/Experimental_stims/body_parts/engin-akyurt-x_3gyC42btc-unsplash.jpg,0,NaN,NaN,NaN,unchosen,NaN,NaN,NaN,NaN,1700,0,5,4
40,22695,0,41,1,1,0,no_gain4,gain1,E,F,27,26,body_parts,body_parts,92,30,Stimuli/Experimental_stims/body_parts/heike-mintel-i_Gns0ELnLw-unsplash.jpg,Stimuli/Experimental_stims/body_parts/engin-akyurt-x_3gyC42btc-unsplash.jpg,0,NaN,NaN,NaN,unchosen,NaN,NaN,NaN,NaN,1200,0,5,4
41,22695,0,42,1,1,1,gain5,no_gain2,C,A,25,43,body_parts,objects,14,78,Stimuli/Experimental_stims/body_parts/engin-akyurt-Q2rfH3GW39c-unsplash.jpg,Stimuli/Experimental_stims/objects/jonathan-greenaway-Y4hGgeiFn3s-unsplash.jpg,0,NaN,NaN,NaN,unchosen,NaN,NaN,NaN,NaN,1400,0,5,4
42,22695,0,43,1,1,1,gain6,no_gain6,D,B,,14,NaN,faces,,49,,Stimuli/Experimental_stims/faces/david-siglin-UuW4psOb388-unsplash.jpg,0,NaN,NaN,NaN,chosen,NaN,NaN,NaN,NaN,1800,0,5,4
43,22695,0,44,1,1,1,gain1,no_gain3,F,K,26,,body_parts,NaN,30,,Stimuli/Experimental_stims/body_parts/engin-akyurt-x_3gyC42btc-unsplash.jpg,,0,NaN,NaN,NaN,unchosen,NaN,NaN,NaN,NaN,3600,1,5,4
44,22695,0,45,1,1,1,gain2,no_gain5,H,G,,,NaN,NaN,,,,,0,NaN,NaN,NaN,chosen,NaN,NaN,NaN,NaN,1200,0,5,4
45,22695,0,46,1,1,0,no_gain2,gain5,A,C,0,5,outdoor_scenes,outdoor_scenes,71,66,Stimuli/Experimental_stims/outdoor_scenes/aleksandra-boguslawska-MS7KD9Ti7FQ-unsplash.jpg,Stimuli/Experimental_stims/outdoor_scenes/jeff-king-bJHWJeiHfHc-unsplash.jpg,0,NaN,NaN,NaN,chosen,NaN,NaN,NaN,NaN,2700,0,5,4
46,22695,0,47,1,1,0,no_gain4,gain3,E,J,27,20,body_parts,faces,92,59,Stimuli/Experimental_stims/body_parts/heike-mintel-i_Gns0ELnLw-unsplash.jpg,Stimuli/Experimental_stims/faces/justin-chen-J7Cf1Gch49E-unsplash.jpg,0,NaN,NaN,NaN,unchosen,NaN,NaN,NaN,NaN,2100,0,5,4
47,22695,0,48,1,1,1,gain6,no_gain4,D,E,,27,NaN,body_parts,,92,,Stimuli/Experimental_stims/body_parts/heike-mintel-i_Gns0ELnLw-unsplash.jpg,0,NaN,NaN,NaN,unchosen,NaN,NaN,NaN,NaN,2500,0,5,4
48,22695,0,49,1,1,1,gain3,no_gain6,J,B,41,14,objects,faces,70,49,Stimuli/Experimental_stims/objects/insung-yoon-w2JtIQQXoRU-unsplash.jpg,Stimuli/Experimental_stims/faces/david-siglin-UuW4psOb388-unsplash.jpg,0,NaN,NaN,NaN,chosen,NaN,NaN,NaN,NaN,1500,0,5,4
49,22695,0,50,1,1,1,gain2,no_gain1,H,I,,6,NaN,outdoor_scenes,,82,,Stimuli/Experimental_stims/outdoor_scenes/meng-ji-8BH_M-53CyA-unsplash.jpg,0,NaN,NaN,NaN,chosen,NaN,NaN,NaN,NaN,1300,0,5,4
50,22695,0,51,1,1,1,gain6,no_gain3,D,K,,,NaN,NaN,,,,,0,NaN,NaN,NaN,chosen,NaN,NaN,NaN,NaN,1000,0,5,4
51,22695,0,52,1,1,1,gain6,no_gain3,D,K,,,NaN,NaN,,,,,0,NaN,NaN,NaN,unchosen,NaN,NaN,NaN,NaN,1500,0,5,4
52,22695,0,53,1,1,0,no_gain6,gain3,B,J,7,20,outdoor_scenes,faces,81,59,Stimuli/Experimental_stims/outdoor_scenes/petr-vysohlid-9fqwGqGLUxc-unsplash.jpg,Stimuli/Experimental_stims/faces/justin-chen-J7Cf1Gch49E-unsplash.jpg,0,NaN,NaN,NaN,unchosen,NaN,NaN,NaN,NaN,2200,0,5,4
53,22695,0,54,1,1,1,gain2,no_gain5,H,G,,,NaN,NaN,,,,,0,NaN,NaN,NaN,unchosen,NaN,NaN,NaN,NaN,1300,0,5,4
54,22695,0,55,1,1,1,gain4,no_gain6,L,B,32,14,body_parts,faces,31,49,Stimuli/Experimental_stims/body_parts/towfiqu-barbhuiya-3AsiVDsZnHg-unsplash.jpg,Stimuli/Experimental_stims/faces/david-siglin-UuW4psOb388-unsplash.jpg,0,NaN,NaN,NaN,chosen,NaN,NaN,NaN,NaN,3000,1,5,4
55,22695,0,56,1,1,1,gain4,no_gain2,L,A,16,43,faces,objects,63,78,Stimuli/Experimental_stims/faces/freddy-kearney-o-ioeoATbIM-unsplash.jpg,Stimuli/Experimental_stims/objects/jonathan-greenaway-Y4hGgeiFn3s-unsplash.jpg,0,NaN,NaN,NaN,unchosen,NaN,NaN,NaN,NaN,1400,0,5,4
56,22695,0,57,1,1,1,gain3,no_gain2,J,A,20,43,faces,objects,59,78,Stimuli/Experimental_stims/faces/justin-chen-J7Cf1Gch49E-unsplash.jpg,Stimuli/Experimental_stims/objects/jonathan-greenaway-Y4hGgeiFn3s-unsplash.jpg,0,NaN,NaN,NaN,unchosen,NaN,NaN,NaN,NaN,1500,0,5,4
57,22695,0,58,1,1,0,no_gain4,gain1,E,F,42,18,objects,faces,23,49,Stimuli/Experimental_stims/objects/jess-bailey-nOeVi8DsN8U-unsplash.jpg,Stimuli/Experimental_stims/faces/jessica-radanavong-mrYkTuAesKE-unsplash.jpg,0,NaN,NaN,NaN,chosen,NaN,NaN,NaN,NaN,1200,0,5,4
58,22695,0,59,1,1,0,no_gain2,gain2,A,H,43,,objects,NaN,78,,Stimuli/Experimental_stims/objects/jonathan-greenaway-Y4hGgeiFn3s-unsplash.jpg,,0,NaN,NaN,NaN,unchosen,NaN,NaN,NaN,NaN,1600,0,5,4
59,22695,0,60,1,1,0,no_gain6,gain1,B,F,14,18,faces,faces,49,49,Stimuli/Experimental_stims/faces/david-siglin-UuW4psOb388-unsplash.jpg,Stimuli/Experimental_stims/faces/jessica-radanavong-mrYkTuAesKE-unsplash.jpg,0,NaN,NaN,NaN,chosen,NaN,NaN,NaN,NaN,2300,0,5,4
60,22695,0,61,1,1,1,gain2,no_gain3,H,K,,,NaN,NaN,,,,,0,NaN,NaN,NaN,unchosen,NaN,NaN,NaN,NaN,1400,0,5,4
61,22695,0,62,1,1,0,no_gain5,gain4,G,L,,32,NaN,body_parts,,31,,Stimuli/Experimental_stims/body_parts/towfiqu-barbhuiya-3AsiVDsZnHg-unsplash.jpg,0,NaN,NaN,NaN,chosen,NaN,NaN,NaN,NaN,4400,1,5,4
62,22695,0,63,1,1,1,gain3,no_gain5,J,G,41,,objects,NaN,70,,Stimuli/Experimental_stims/objects/insung-yoon-w2JtIQQXoRU-unsplash.jpg,,0,NaN,NaN,NaN,chosen,NaN,NaN,NaN,NaN,1900,0,5,4
63,22695,0,64,1,1,0,no_gain6,gain5,B,C,7,25,outdoor_scenes,body_parts,81,14,Stimuli/Experimental_stims/outdoor_scenes/petr-vysohlid-9fqwGqGLUxc-unsplash.jpg,Stimuli/Experimental_stims/body_parts/engin-akyurt-Q2rfH3GW39c-unsplash.jpg,0,NaN,NaN,NaN,unchosen,NaN,NaN,NaN,NaN,2000,0,5,4
64,22695,0,65,1,1,0,no_gain5,gain6,G,D,,,NaN,NaN,,,,,0,NaN,NaN,NaN,unchosen,NaN,NaN,NaN,NaN,1500,0,5,4
65,22695,0,66,1,1,1,gain5,no_gain6,C,B,5,14,outdoor_scenes,faces,66,49,Stimuli/Experimental_stims/outdoor_scenes/jeff-king-bJHWJeiHfHc-unsplash.jpg,Stimuli/Experimental_stims/faces/david-siglin-UuW4psOb388-unsplash.jpg,0,NaN,NaN,NaN,chosen,NaN,NaN,NaN,NaN,1600,0,5,4
66,22695,0,67,1,1,0,no_gain2,gain6,A,D,43,,objects,NaN,78,,Stimuli/Experimental_stims/objects/jonathan-greenaway-Y4hGgeiFn3s-unsplash.jpg,,0,NaN,NaN,NaN,unchosen,NaN,NaN,NaN,NaN,3000,1,5,4
67,22695,0,68,1,1,0,no_gain1,gain1,I,F,6,18,outdoor_scenes,faces,82,49,Stimuli/Experimental_stims/outdoor_scenes/meng-ji-8BH_M-53CyA-unsplash.jpg,Stimuli/Experimental_stims/faces/jessica-radanavong-mrYkTuAesKE-unsplash.jpg,0,NaN,NaN,NaN,chosen,NaN,NaN,NaN,NaN,1900,0,5,4
68,22695,0,69,1,1,0,no_gain4,gain2,E,H,27,,body_parts,NaN,92,,Stimuli/Experimental_stims/body_parts/heike-mintel-i_Gns0ELnLw-unsplash.jpg,,0,NaN,NaN,NaN,unchosen,NaN,NaN,NaN,NaN,1100,0,5,4
69,22695,0,70,1,1,1,gain4,no_gain3,L,K,32,,body_parts,NaN,31,,Stimuli/Experimental_stims/body_parts/towfiqu-barbhuiya-3AsiVDsZnHg-unsplash.jpg,,0,NaN,NaN,NaN,chosen,NaN,NaN,NaN,NaN,1300,0,5,4
70,22695,0,71,1,1,1,gain6,no_gain1,D,I,,6,NaN,outdoor_scenes,,82,,Stimuli/Experimental_stims/outdoor_scenes/meng-ji-8BH_M-53CyA-unsplash.jpg,0,NaN,NaN,NaN,chosen,NaN,NaN,NaN,NaN,2600,0,5,4
71,22695,0,72,1,1,0,no_gain5,gain5,G,C,,5,NaN,outdoor_scenes,,66,,Stimuli/Experimental_stims/outdoor_scenes/jeff-king-bJHWJeiHfHc-unsplash.jpg,0,NaN,NaN,NaN,chosen,NaN,NaN,NaN,NaN,1100,0,5,4
72,22695,0,73,1,1,0,no_gain1,gain5,I,C,34,25,body_parts,body_parts,23,14,Stimuli/Experimental_stims/body_parts/wagner-santos-mBWMvIuVnso-unsplash.jpg,Stimuli/Experimental_stims/body_parts/engin-akyurt-Q2rfH3GW39c-unsplash.jpg,0,NaN,NaN,NaN,unchosen,NaN,NaN,NaN,NaN,2500,0,5,4
73,22695,0,74,1,1,1,gain4,no_gain4,L,E,32,42,body_parts,objects,31,23,Stimuli/Experimental_stims/body_parts/towfiqu-barbhuiya-3AsiVDsZnHg-unsplash.jpg,Stimuli/Experimental_stims/objects/jess-bailey-nOeVi8DsN8U-unsplash.jpg,0,NaN,NaN,NaN,chosen,NaN,NaN,NaN,NaN,2600,0,5,4
74,22695,0,75,1,1,0,no_gain1,gain5,I,C,6,5,outdoor_scenes,outdoor_scenes,82,66,Stimuli/Experimental_stims/outdoor_scenes/meng-ji-8BH_M-53CyA-unsplash.jpg,Stimuli/Experimental_stims/outdoor_scenes/jeff-king-bJHWJeiHfHc-unsplash.jpg,0,NaN,NaN,NaN,chosen,NaN,NaN,NaN,NaN,1100,0,5,4
75,22695,0,76,1,1,1,gain3,no_gain5,J,G,20,,faces,NaN,59,,Stimuli/Experimental_stims/faces/justin-chen-J7Cf1Gch49E-unsplash.jpg,,0,NaN,NaN,NaN,unchosen,NaN,NaN,NaN,NaN,4200,1,5,4
76,22695,0,77,2,2,1,gain4,no_gain6,L,B,16,7,faces,outdoor_scenes,63,81,Stimuli/Experimental_stims/faces/freddy-kearney-o-ioeoATbIM-unsplash.jpg,Stimuli/Experimental_stims/outdoor_scenes/petr-vysohlid-9fqwGqGLUxc-unsplash.jpg,0,NaN,NaN,NaN,unchosen,NaN,NaN,NaN,NaN,1200,0,8,4
77,22695,0,78,2,2,1,gain4,no_gain3,L,K,16,,faces,NaN,63,,Stimuli/Experimental_stims/faces/freddy-kearney-o-ioeoATbIM-unsplash.jpg,,0,NaN,NaN,NaN,unchosen,NaN,NaN,NaN,NaN,1400,0,8,4
78,22695,0,79,2,2,1,gain5,no_gain2,C,A,25,43,body_parts,objects,14,78,Stimuli/Experimental_stims/body_parts/engin-akyurt-Q2rfH3GW39c-unsplash.jpg,Stimuli/Experimental_stims/objects/jonathan-greenaway-Y4hGgeiFn3s-unsplash.jpg,0,NaN,NaN,NaN,unchosen,NaN,NaN,NaN,NaN,2800,0,8,4
79,22695,0,80,2,2,0,no_gain3,gain1,K,F,,18,NaN,faces,,49,,Stimuli/Experimental_stims/faces/jessica-radanavong-mrYkTuAesKE-unsplash.jpg,0,NaN,NaN,NaN,chosen,NaN,NaN,NaN,NaN,1700,0,8,4
80,22695,0,81,2,2,0,no_gain5,gain6,G,D,,,NaN,NaN,,,,,0,NaN,NaN,NaN,unchosen,NaN,NaN,NaN,NaN,3700,1,8,4
81,22695,0,82,2,2,1,gain1,no_gain4,F,E,26,27,body_parts,body_parts,30,92,Stimuli/Experimental_stims/body_parts/engin-akyurt-x_3gyC42btc-unsplash.jpg,Stimuli/Experimental_stims/body_parts/heike-mintel-i_Gns0ELnLw-unsplash.jpg,0,NaN,NaN,NaN,unchosen,NaN,NaN,NaN,NaN,2300,0,8,4
82,22695,0,83,2,2,0,no_gain1,gain1,I,F,6,18,outdoor_scenes,faces,82,49,Stimuli/Experimental_stims/outdoor_scenes/meng-ji-8BH_M-53CyA-unsplash.jpg,Stimuli/Experimental_stims/faces/jessica-radanavong-mrYkTuAesKE-unsplash.jpg,0,NaN,NaN,NaN,chosen,NaN,NaN,NaN,NaN,2900,0,8,4
83,22695,0,84,2,2,0,no_gain3,gain5,K,C,,25,NaN,body_parts,,14,,Stimuli/Experimental_stims/body_parts/engin-akyurt-Q2rfH3GW39c-unsplash.jpg,0,NaN,NaN,NaN,unchosen,NaN,NaN,NaN,NaN,2300,0,8,4
84,22695,0,85,2,2,0,no_gain2,gain1,A,F,0,18,outdoor_scenes,faces,71,49,Stimuli/Experimental_stims/outdoor_scenes/aleksandra-boguslawska-MS7KD9Ti7FQ-unsplash.jpg,Stimuli/Experimental_stims/faces/jessica-radanavong-mrYkTuAesKE-unsplash.jpg,0,NaN,NaN,NaN,chosen,NaN,NaN,NaN,NaN,1200,0,8,4
85,22695,0,86,2,2,0,no_gain1,gain1,I,F,34,26,body_parts,body_parts,23,30,Stimuli/Experimental_stims/body_parts/wagner-santos-mBWMvIuVnso-unsplash.jpg,Stimuli/Experimental_stims/body_parts/engin-akyurt-x_3gyC42btc-unsplash.jpg,0,NaN,NaN,NaN,unchosen,NaN,NaN,NaN,NaN,3100,1,8,4
86,22695,0,87,2,2,0,no_gain2,gain4,A,L,0,32,outdoor_scenes,body_parts,71,31,Stimuli/Experimental_stims/outdoor_scenes/aleksandra-boguslawska-MS7KD9Ti7FQ-unsplash.jpg,Stimuli/Experimental_stims/body_parts/towfiqu-barbhuiya-3AsiVDsZnHg-unsplash.jpg,0,NaN,NaN,NaN,chosen,NaN,NaN,NaN,NaN,1200,0,8,4
87,22695,0,88,2,2,0,no_gain5,gain2,G,H,,,NaN,NaN,,,,,0,NaN,NaN,NaN,unchosen,NaN,NaN,NaN,NaN,1900,0,8,4
88,22695,0,89,2,2,1,gain6,no_gain1,D,I,,6,NaN,outdoor_scenes,,82,,Stimuli/Experimental_stims/outdoor_scenes/meng-ji-8BH_M-53CyA-unsplash.jpg,0,NaN,NaN,NaN,chosen,NaN,NaN,NaN,NaN,2800,0,8,4
89,22695,0,90,2,2,1,gain5,no_gain3,C,K,5,,outdoor_scenes,NaN,66,,Stimuli/Experimental_stims/outdoor_scenes/jeff-king-bJHWJeiHfHc-unsplash.jpg,,0,NaN,NaN,NaN,chosen,NaN,NaN,NaN,NaN,1200,0,8,4
90,22695,0,91,2,2,1,gain4,no_gain4,L,E,16,27,faces,body_parts,63,92,Stimuli/Experimental_stims/faces/freddy-kearney-o-ioeoATbIM-unsplash.jpg,Stimuli/Experimental_stims/body_parts/heike-mintel-i_Gns0ELnLw-unsplash.jpg,0,NaN,NaN,NaN,unchosen,NaN,NaN,NaN,NaN,3800,1,8,4
91,22695,0,92,2,2,0,no_gain1,gain2,I,H,34,,body_parts,NaN,23,,Stimuli/Experimental_stims/body_parts/wagner-santos-mBWMvIuVnso-unsplash.jpg,,0,NaN,NaN,NaN,unchosen,NaN,NaN,NaN,NaN,1800,0,8,4
92,22695,0,93,2,2,0,no_gain3,gain4,K,L,,32,NaN,body_parts,,31,,Stimuli/Experimental_stims/body_parts/towfiqu-barbhuiya-3AsiVDsZnHg-unsplash.jpg,0,NaN,NaN,NaN,chosen,NaN,NaN,NaN,NaN,2300,0,8,4
93,22695,0,94,2,2,1,gain5,no_gain1,C,I,5,6,outdoor_scenes,outdoor_scenes,66,82,Stimuli/Experimental_stims/outdoor_scenes/jeff-king-bJHWJeiHfHc-unsplash.jpg,Stimuli/Experimental_stims/outdoor_scenes/meng-ji-8BH_M-53CyA-unsplash.jpg,0,NaN,NaN,NaN,chosen,NaN,NaN,NaN,NaN,1400,0,8,4
94,22695,0,95,2,2,0,no_gain5,gain4,G,L,,16,NaN,faces,,63,,Stimuli/Experimental_stims/faces/freddy-kearney-o-ioeoATbIM-unsplash.jpg,0,NaN,NaN,NaN,unchosen,NaN,NaN,NaN,NaN,1300,0,8,4
95,22695,0,96,2,2,1,gain4,no_gain5,L,G,32,,body_parts,NaN,31,,Stimuli/Experimental_stims/body_parts/towfiqu-barbhuiya-3AsiVDsZnHg-unsplash.jpg,,0,NaN,NaN,NaN,chosen,NaN,NaN,NaN,NaN,1700,0,8,4
96,22695,0,97,2,2,1,gain5,no_gain1,C,I,25,34,body_parts,body_parts,14,23,Stimuli/Experimental_stims/body_parts/engin-akyurt-Q2rfH3GW39c-unsplash.jpg,Stimuli/Experimental_stims/body_parts/wagner-santos-mBWMvIuVnso-unsplash.jpg,0,NaN,NaN,NaN,unchosen,NaN,NaN,NaN,NaN,3100,1,8,4
97,22695,0,98,2,2,1,gain1,no_gain6,F,B,18,14,faces,faces,49,49,Stimuli/Experimental_stims/faces/jessica-radanavong-mrYkTuAesKE-unsplash.jpg,Stimuli/Experimental_stims/faces/david-siglin-UuW4psOb388-unsplash.jpg,0,NaN,NaN,NaN,chosen,NaN,NaN,NaN,NaN,1300,0,8,4
98,22695,0,99,2,2,0,no_gain2,gain1,A,F,43,26,objects,body_parts,78,30,Stimuli/Experimental_stims/objects/jonathan-greenaway-Y4hGgeiFn3s-unsplash.jpg,Stimuli/Experimental_stims/body_parts/engin-akyurt-x_3gyC42btc-unsplash.jpg,0,NaN,NaN,NaN,unchosen,NaN,NaN,NaN,NaN,2100,0,8,4
99,22695,0,100,2,2,1,gain2,no_gain3,H,K,,,NaN,NaN,,,,,0,NaN,NaN,NaN,chosen,NaN,NaN,NaN,NaN,1000,0,8,4
100,22695,0,101,2,2,1,gain2,no_gain2,H,A,,0,NaN,outdoor_scenes,,71,,Stimuli/Experimental_stims/outdoor_scenes/aleksandra-boguslawska-MS7KD9Ti7FQ-unsplash.jpg,0,NaN,NaN,NaN,chosen,NaN,NaN,NaN,NaN,1200,0,8,4
101,22695,0,102,2,2,1,gain3,no_gain1,J,I,41,6,objects,outdoor_scenes,70,82,Stimuli/Experimental_stims/objects/insung-yoon-w2JtIQQXoRU-unsplash.jpg,Stimuli/Experimental_stims/outdoor_scenes/meng-ji-8BH_M-53CyA-unsplash.jpg,0,NaN,NaN,NaN,chosen,NaN,NaN,NaN,NaN,1700,0,8,4
102,22695,0,103,2,2,0,no_gain5,gain5,G,C,,25,NaN,body_parts,,14,,Stimuli/Experimental_stims/body_parts/engin-akyurt-Q2rfH3GW39c-unsplash.jpg,0,NaN,NaN,NaN,unchosen,NaN,NaN,NaN,NaN,1100,0,8,4
103,22695,0,104,2,2,0,no_gain6,gain5,B,C,14,5,faces,outdoor_scenes,49,66,Stimuli/Experimental_stims/faces/david-siglin-UuW4psOb388-unsplash.jpg,Stimuli/Experimental_stims/outdoor_scenes/jeff-king-bJHWJeiHfHc-unsplash.jpg,0,NaN,NaN,NaN,chosen,NaN,NaN,NaN,NaN,1900,0,8,4
104,22695,0,105,2,2,0,no_gain2,gain3,A,J,0,41,outdoor_scenes,objects,71,70,Stimuli/Experimental_stims/outdoor_scenes/aleksandra-boguslawska-MS7KD9Ti7FQ-unsplash.jpg,Stimuli/Experimental_stims/objects/insung-yoon-w2JtIQQXoRU-unsplash.jpg,0,NaN,NaN,NaN,chosen,NaN,NaN,NaN,NaN,4100,1,8,4
105,22695,0,106,2,2,0,no_gain1,gain4,I,L,34,16,body_parts,faces,23,63,Stimuli/Experimental_stims/body_parts/wagner-santos-mBWMvIuVnso-unsplash.jpg,Stimuli/Experimental_stims/faces/freddy-kearney-o-ioeoATbIM-unsplash.jpg,0,NaN,NaN,NaN,unchosen,NaN,NaN,NaN,NaN,1400,0,8,4
106,22695,0,107,2,2,0,no_gain4,gain2,E,H,27,,body_parts,NaN,92,,Stimuli/Experimental_stims/body_parts/heike-mintel-i_Gns0ELnLw-unsplash.jpg,,0,NaN,NaN,NaN,unchosen,NaN,NaN,NaN,NaN,2400,0,8,4
107,22695,0,108,2,2,0,no_gain5,gain1,G,F,,18,NaN,faces,,49,,Stimuli/Experimental_stims/faces/jessica-radanavong-mrYkTuAesKE-unsplash.jpg,0,NaN,NaN,NaN,chosen,NaN,NaN,NaN,NaN,1200,0,8,4
108,22695,0,109,2,2,1,gain6,no_gain1,D,I,,34,NaN,body_parts,,23,,Stimuli/Experimental_stims/body_parts/wagner-santos-mBWMvIuVnso-unsplash.jpg,0,NaN,NaN,NaN,unchosen,NaN,NaN,NaN,NaN,1500,0,8,4
109,22695,0,110,2,2,1,gain1,no_gain6,F,B,26,7,body_parts,outdoor_scenes,30,81,Stimuli/Experimental_stims/body_parts/engin-akyurt-x_3gyC42btc-unsplash.jpg,Stimuli/Experimental_stims/outdoor_scenes/petr-vysohlid-9fqwGqGLUxc-unsplash.jpg,0,NaN,NaN,NaN,unchosen,NaN,NaN,NaN,NaN,3200,1,8,4
110,22695,0,111,2,2,0,no_gain5,gain2,G,H,,,NaN,NaN,,,,,0,NaN,NaN,NaN,chosen,NaN,NaN,NaN,NaN,1800,0,8,4
111,22695,0,112,2,2,0,no_gain5,gain1,G,F,,26,NaN,body_parts,,30,,Stimuli/Experimental_stims/body_parts/engin-akyurt-x_3gyC42btc-unsplash.jpg,0,NaN,NaN,NaN,unchosen,NaN,NaN,NaN,NaN,1100,0,8,4
112,22695,0,113,2,2,1,gain2,no_gain6,H,B,,7,NaN,outdoor_scenes,,81,,Stimuli/Experimental_stims/outdoor_scenes/petr-vysohlid-9fqwGqGLUxc-unsplash.jpg,0,NaN,NaN,NaN,unchosen,NaN,NaN,NaN,NaN,1700,0,8,4
113,22695,0,114,2,2,1,gain6,no_gain4,D,E,,42,NaN,objects,,23,,Stimuli/Experimental_stims/objects/jess-bailey-nOeVi8DsN8U-unsplash.jpg,0,NaN,NaN,NaN,chosen,NaN,NaN,NaN,NaN,2700,0,8,4
114,22695,0,115,2,2,1,gain6,no_gain3,D,K,,,NaN,NaN,,,,,0,NaN,NaN,NaN,unchosen,NaN,NaN,NaN,NaN,1100,0,8,4
115,22695,0,116,2,2,0,no_gain6,gain4,B,L,14,32,faces,body_parts,49,31,Stimuli/Experimental_stims/faces/david-siglin-UuW4psOb388-unsplash.jpg,Stimuli/Experimental_stims/body_parts/towfiqu-barbhuiya-3AsiVDsZnHg-unsplash.jpg,0,NaN,NaN,NaN,chosen,NaN,NaN,NaN,NaN,1100,0,8,4
116,22695,0,117,2,2,0,no_gain1,gain3,I,J,34,20,body_parts,faces,23,59,Stimuli/Experimental_stims/body_parts/wagner-santos-mBWMvIuVnso-unsplash.jpg,Stimuli/Experimental_stims/faces/justin-chen-J7Cf1Gch49E-unsplash.jpg,0,NaN,NaN,NaN,unchosen,NaN,NaN,NaN,NaN,2400,0,8,4
117,22695,0,118,2,2,1,gain3,no_gain6,J,B,41,14,objects,faces,70,49,Stimuli/Experimental_stims/objects/insung-yoon-w2JtIQQXoRU-unsplash.jpg,Stimuli/Experimental_stims/faces/david-siglin-UuW4psOb388-unsplash.jpg,0,NaN,NaN,NaN,chosen,NaN,NaN,NaN,NaN,3400,1,8,4
118,22695,0,119,2,2,1,gain3,no_gain3,J,K,41,,objects,NaN,70,,Stimuli/Experimental_stims/objects/insung-yoon-w2JtIQQXoRU-unsplash.jpg,,0,NaN,NaN,NaN,chosen,NaN,NaN,NaN,NaN,2000,0,8,4
119,22695,0,120,2,2,0,no_gain6,gain3,B,J,7,20,outdoor_scenes,faces,81,59,Stimuli/Experimental_stims/outdoor_scenes/petr-vysohlid-9fqwGqGLUxc-unsplash.jpg,Stimuli/Experimental_stims/faces/justin-chen-J7Cf1Gch49E-unsplash.jpg,0,NaN,NaN,NaN,unchosen,NaN,NaN,NaN,NaN,2100,0,8,4
120,22695,0,121,2,2,0,no_gain2,gain6,A,D,43,,objects,NaN,78,,Stimuli/Experimental_stims/objects/jonathan-greenaway-Y4hGgeiFn3s-unsplash.jpg,,0,NaN,NaN,NaN,unchosen,NaN,NaN,NaN,NaN,2500,0,8,4
121,22695,0,122,2,2,1,gain5,no_gain4,C,E,25,27,body_parts,body_parts,14,92,Stimuli/Experimental_stims/body_parts/engin-akyurt-Q2rfH3GW39c-unsplash.jpg,Stimuli/Experimental_stims/body_parts/heike-mintel-i_Gns0ELnLw-unsplash.jpg,0,NaN,NaN,NaN,unchosen,NaN,NaN,NaN,NaN,1600,0,8,4
122,22695,0,123,2,2,1,gain2,no_gain4,H,E,,42,NaN,objects,,23,,Stimuli/Experimental_stims/objects/jess-bailey-nOeVi8DsN8U-unsplash.jpg,0,NaN,NaN,NaN,chosen,NaN,NaN,NaN,NaN,2400,0,8,4
123,22695,0,124,2,2,1,gain4,no_gain1,L,I,32,6,body_parts,outdoor_scenes,31,82,Stimuli/Experimental_stims/body_parts/towfiqu-barbhuiya-3AsiVDsZnHg-unsplash.jpg,Stimuli/Experimental_stims/outdoor_scenes/meng-ji-8BH_M-53CyA-unsplash.jpg,0,NaN,NaN,NaN,chosen,NaN,NaN,NaN,NaN,1300,0,8,4
124,22695,0,125,2,2,1,gain3,no_gain4,J,E,20,27,faces,body_parts,59,92,Stimuli/Experimental_stims/faces/justin-chen-J7Cf1Gch49E-unsplash.jpg,Stimuli/Experimental_stims/body_parts/heike-mintel-i_Gns0ELnLw-unsplash.jpg,0,NaN,NaN,NaN,unchosen,NaN,NaN,NaN,NaN,1900,0,8,4
125,22695,0,126,2,2,1,gain2,no_gain1,H,I,,6,NaN,outdoor_scenes,,82,,Stimuli/Experimental_stims/outdoor_scenes/meng-ji-8BH_M-53CyA-unsplash.jpg,0,NaN,NaN,NaN,chosen,NaN,NaN,NaN,NaN,1600,0,8,4
126,22695,0,127,2,2,0,no_gain2,gain5,A,C,0,5,outdoor_scenes,outdoor_scenes,71,66,Stimuli/Experimental_stims/outdoor_scenes/aleksandra-boguslawska-MS7KD9Ti7FQ-unsplash.jpg,Stimuli/Experimental_stims/outdoor_scenes/jeff-king-bJHWJeiHfHc-unsplash.jpg,0,NaN,NaN,NaN,chosen,NaN,NaN,NaN,NaN,1100,0,8,4
127,22695,0,128,2,2,1,gain3,no_gain2,J,A,20,43,faces,objects,59,78,Stimuli/Experimental_stims/faces/justin-chen-J7Cf1Gch49E-unsplash.jpg,Stimuli/Experimental_stims/objects/jonathan-greenaway-Y4hGgeiFn3s-unsplash.jpg,0,NaN,NaN,NaN,unchosen,NaN,NaN,NaN,NaN,1200,0,8,4
128,22695,0,129,2,2,1,gain3,no_gain3,J,K,20,,faces,NaN,59,,Stimuli/Experimental_stims/faces/justin-chen-J7Cf1Gch49E-unsplash.jpg,,0,NaN,NaN,NaN,unchosen,NaN,NaN,NaN,NaN,1300,0,8,4
129,22695,0,130,2,2,1,gain4,no_gain4,L,E,32,42,body_parts,objects,31,23,Stimuli/Experimental_stims/body_parts/towfiqu-barbhuiya-3AsiVDsZnHg-unsplash.jpg,Stimuli/Experimental_stims/objects/jess-bailey-nOeVi8DsN8U-unsplash.jpg,0,NaN,NaN,NaN,chosen,NaN,NaN,NaN,NaN,1000,0,8,4
130,22695,0,131,2,2,0,no_gain4,gain1,E,F,42,18,objects,faces,23,49,Stimuli/Experimental_stims/objects/jess-bailey-nOeVi8DsN8U-unsplash.jpg,Stimuli/Experimental_stims/faces/jessica-radanavong-mrYkTuAesKE-unsplash.jpg,0,NaN,NaN,NaN,chosen,NaN,NaN,NaN,NaN,2900,0,8,4
131,22695,0,132,2,2,0,no_gain2,gain6,A,D,0,,outdoor_scenes,NaN,71,,Stimuli/Experimental_stims/outdoor_scenes/aleksandra-boguslawska-MS7KD9Ti7FQ-unsplash.jpg,,0,NaN,NaN,NaN,chosen,NaN,NaN,NaN,NaN,2200,0,8,4
132,22695,0,133,2,2,0,no_gain3,gain2,K,H,,,NaN,NaN,,,,,0,NaN,NaN,NaN,unchosen,NaN,NaN,NaN,NaN,3200,1,8,4
133,22695,0,134,2,2,1,gain1,no_gain3,F,K,26,,body_parts,NaN,30,,Stimuli/Experimental_stims/body_parts/engin-akyurt-x_3gyC42btc-unsplash.jpg,,0,NaN,NaN,NaN,unchosen,NaN,NaN,NaN,NaN,2600,0,8,4
134,22695,0,135,2,2,0,no_gain6,gain6,B,D,7,,outdoor_scenes,NaN,81,,Stimuli/Experimental_stims/outdoor_scenes/petr-vysohlid-9fqwGqGLUxc-unsplash.jpg,,0,NaN,NaN,NaN,unchosen,NaN,NaN,NaN,NaN,1200,0,8,4
135,22695,0,136,2,2,0,no_gain4,gain3,E,J,42,41,objects,objects,23,70,Stimuli/Experimental_stims/objects/jess-bailey-nOeVi8DsN8U-unsplash.jpg,Stimuli/Experimental_stims/objects/insung-yoon-w2JtIQQXoRU-unsplash.jpg,0,NaN,NaN,NaN,chosen,NaN,NaN,NaN,NaN,1100,0,8,4
136,22695,0,137,2,2,1,gain5,no_gain6,C,B,25,7,body_parts,outdoor_scenes,14,81,Stimuli/Experimental_stims/body_parts/engin-akyurt-Q2rfH3GW39c-unsplash.jpg,Stimuli/Experimental_stims/outdoor_scenes/petr-vysohlid-9fqwGqGLUxc-unsplash.jpg,0,NaN,NaN,NaN,unchosen,NaN,NaN,NaN,NaN,2000,0,8,4
137,22695,0,138,2,2,0,no_gain6,gain2,B,H,14,,faces,NaN,49,,Stimuli/Experimental_stims/faces/david-siglin-UuW4psOb388-unsplash.jpg,,0,NaN,NaN,NaN,chosen,NaN,NaN,NaN,NaN,4100,1,8,4
138,22695,0,139,2,2,0,no_gain2,gain4,A,L,43,16,objects,faces,78,63,Stimuli/Experimental_stims/objects/jonathan-greenaway-Y4hGgeiFn3s-unsplash.jpg,Stimuli/Experimental_stims/faces/freddy-kearney-o-ioeoATbIM-unsplash.jpg,0,NaN,NaN,NaN,unchosen,NaN,NaN,NaN,NaN,1700,0,8,4
139,22695,0,140,2,2,0,no_gain2,gain2,A,H,43,,objects,NaN,78,,Stimuli/Experimental_stims/objects/jonathan-greenaway-Y4hGgeiFn3s-unsplash.jpg,,0,NaN,NaN,NaN,unchosen,NaN,NaN,NaN,NaN,1200,0,8,4
140,22695,0,141,2,2,1,gain6,no_gain3,D,K,,,NaN,NaN,,,,,0,NaN,NaN,NaN,chosen,NaN,NaN,NaN,NaN,1000,0,8,4
141,22695,0,142,2,2,0,no_gain5,gain5,G,C,,5,NaN,outdoor_scenes,,66,,Stimuli/Experimental_stims/outdoor_scenes/jeff-king-bJHWJeiHfHc-unsplash.jpg,0,NaN,NaN,NaN,chosen,NaN,NaN,NaN,NaN,1800,0,8,4
142,22695,0,143,2,2,0,no_gain5,gain6,G,D,,,NaN,NaN,,,,,0,NaN,NaN,NaN,chosen,NaN,NaN,NaN,NaN,3500,1,8,4
143,22695,0,144,2,2,1,gain6,no_gain4,D,E,,27,NaN,body_parts,,92,,Stimuli/Experimental_stims/body_parts/heike-mintel-i_Gns0ELnLw-unsplash.jpg,0,NaN,NaN,NaN,unchosen,NaN,NaN,NaN,NaN,2700,0,8,4
144,22695,0,145,2,2,1,gain6,no_gain6,D,B,,14,NaN,faces,,49,,Stimuli/Experimental_stims/faces/david-siglin-UuW4psOb388-unsplash.jpg,0,NaN,NaN,NaN,chosen,NaN,NaN,NaN,NaN,2400,0,8,4
145,22695,0,146,2,2,1,gain3,no_gain5,J,G,20,,faces,NaN,59,,Stimuli/Experimental_stims/faces/justin-chen-J7Cf1Gch49E-unsplash.jpg,,0,NaN,NaN,NaN,unchosen,NaN,NaN,NaN,NaN,1400,0,8,4
146,22695,0,147,2,2,1,gain5,no_gain4,C,E,5,42,outdoor_scenes,objects,66,23,Stimuli/Experimental_stims/outdoor_scenes/jeff-king-bJHWJeiHfHc-unsplash.jpg,Stimuli/Experimental_stims/objects/jess-bailey-nOeVi8DsN8U-unsplash.jpg,0,NaN,NaN,NaN,chosen,NaN,NaN,NaN,NaN,1200,0,8,4
147,22695,0,148,2,2,0,no_gain5,gain3,G,J,,41,NaN,objects,,70,,Stimuli/Experimental_stims/objects/insung-yoon-w2JtIQQXoRU-unsplash.jpg,0,NaN,NaN,NaN,chosen,NaN,NaN,NaN,NaN,3300,1,8,4
148,22695,0,149,3,3,1,gain5,no_gain3,C,K,5,,outdoor_scenes,NaN,66,,Stimuli/Experimental_stims/outdoor_scenes/jeff-king-bJHWJeiHfHc-unsplash.jpg,,0,NaN,NaN,NaN,chosen,NaN,NaN,NaN,NaN,3900,1,7,4
149,22695,0,150,3,3,0,no_gain3,gain4,K,L,,32,NaN,body_parts,,31,,Stimuli/Experimental_stims/body_parts/towfiqu-barbhuiya-3AsiVDsZnHg-unsplash.jpg,0,NaN,NaN,NaN,chosen,NaN,NaN,NaN,NaN,1200,0,7,4
150,22695,0,151,3,3,1,gain6,no_gain3,D,K,,,NaN,NaN,,,,,0,NaN,NaN,NaN,chosen,NaN,NaN,NaN,NaN,1500,0,7,4
151,22695,0,152,3,3,1,gain4,no_gain4,L,E,16,27,faces,body_parts,63,92,Stimuli/Experimental_stims/faces/freddy-kearney-o-ioeoATbIM-unsplash.jpg,Stimuli/Experimental_stims/body_parts/heike-mintel-i_Gns0ELnLw-unsplash.jpg,0,NaN,NaN,NaN,unchosen,NaN,NaN,NaN,NaN,2700,0,7,4
152,22695,0,153,3,3,1,gain5,no_gain5,C,G,25,,body_parts,NaN,14,,Stimuli/Experimental_stims/body_parts/engin-akyurt-Q2rfH3GW39c-unsplash.jpg,,0,NaN,NaN,NaN,unchosen,NaN,NaN,NaN,NaN,1300,0,7,4
153,22695,0,154,3,3,0,no_gain6,gain1,B,F,14,18,faces,faces,49,49,Stimuli/Experimental_stims/faces/david-siglin-UuW4psOb388-unsplash.jpg,Stimuli/Experimental_stims/faces/jessica-radanavong-mrYkTuAesKE-unsplash.jpg,0,NaN,NaN,NaN,chosen,NaN,NaN,NaN,NaN,1000,0,7,4
154,22695,0,155,3,3,1,gain1,no_gain3,F,K,18,,faces,NaN,49,,Stimuli/Experimental_stims/faces/jessica-radanavong-mrYkTuAesKE-unsplash.jpg,,0,NaN,NaN,NaN,chosen,NaN,NaN,NaN,NaN,3000,1,7,4
155,22695,0,156,3,3,0,no_gain2,gain3,A,J,43,20,objects,faces,78,59,Stimuli/Experimental_stims/objects/jonathan-greenaway-Y4hGgeiFn3s-unsplash.jpg,Stimuli/Experimental_stims/faces/justin-chen-J7Cf1Gch49E-unsplash.jpg,0,NaN,NaN,NaN,unchosen,NaN,NaN,NaN,NaN,2800,0,7,4
156,22695,0,157,3,3,1,gain3,no_gain5,J,G,41,,objects,NaN,70,,Stimuli/Experimental_stims/objects/insung-yoon-w2JtIQQXoRU-unsplash.jpg,,0,NaN,NaN,NaN,chosen,NaN,NaN,NaN,NaN,1400,0,7,4
157,22695,0,158,3,3,1,gain1,no_gain1,F,I,18,6,faces,outdoor_scenes,49,82,Stimuli/Experimental_stims/faces/jessica-radanavong-mrYkTuAesKE-unsplash.jpg,Stimuli/Experimental_stims/outdoor_scenes/meng-ji-8BH_M-53CyA-unsplash.jpg,0,NaN,NaN,NaN,chosen,NaN,NaN,NaN,NaN,2500,0,7,4
158,22695,0,159,3,3,0,no_gain3,gain2,K,H,,,NaN,NaN,,,,,0,NaN,NaN,NaN,unchosen,NaN,NaN,NaN,NaN,1600,0,7,4
159,22695,0,160,3,3,1,gain2,no_gain4,H,E,,27,NaN,body_parts,,92,,Stimuli/Experimental_stims/body_parts/heike-mintel-i_Gns0ELnLw-unsplash.jpg,0,NaN,NaN,NaN,unchosen,NaN,NaN,NaN,NaN,3600,1,7,4
160,22695,0,161,3,3,0,no_gain4,gain5,E,C,27,25,body_parts,body_parts,92,14,Stimuli/Experimental_stims/body_parts/heike-mintel-i_Gns0ELnLw-unsplash.jpg,Stimuli/Experimental_stims/body_parts/engin-akyurt-Q2rfH3GW39c-unsplash.jpg,0,NaN,NaN,NaN,unchosen,NaN,NaN,NaN,NaN,1200,0,7,4
161,22695,0,162,3,3,0,no_gain5,gain4,G,L,,32,NaN,body_parts,,31,,Stimuli/Experimental_stims/body_parts/towfiqu-barbhuiya-3AsiVDsZnHg-unsplash.jpg,0,NaN,NaN,NaN,chosen,NaN,NaN,NaN,NaN,1800,0,7,4
162,22695,0,163,3,3,1,gain2,no_gain5,H,G,,,NaN,NaN,,,,,0,NaN,NaN,NaN,chosen,NaN,NaN,NaN,NaN,2800,0,7,4
163,22695,0,164,3,3,1,gain5,no_gain6,C,B,25,7,body_parts,outdoor_scenes,14,81,Stimuli/Experimental_stims/body_parts/engin-akyurt-Q2rfH3GW39c-unsplash.jpg,Stimuli/Experimental_stims/outdoor_scenes/petr-vysohlid-9fqwGqGLUxc-unsplash.jpg,0,NaN,NaN,NaN,unchosen,NaN,NaN,NaN,NaN,2100,0,7,4
164,22695,0,165,3,3,0,no_gain4,gain3,E,J,42,41,objects,objects,23,70,Stimuli/Experimental_stims/objects/jess-bailey-nOeVi8DsN8U-unsplash.jpg,Stimuli/Experimental_stims/objects/insung-yoon-w2JtIQQXoRU-unsplash.jpg,0,NaN,NaN,NaN,chosen,NaN,NaN,NaN,NaN,1500,0,7,4
165,22695,0,166,3,3,0,no_gain1,gain5,I,C,6,5,outdoor_scenes,outdoor_scenes,82,66,Stimuli/Experimental_stims/outdoor_scenes/meng-ji-8BH_M-53CyA-unsplash.jpg,Stimuli/Experimental_stims/outdoor_scenes/jeff-king-bJHWJeiHfHc-unsplash.jpg,0,NaN,NaN,NaN,chosen,NaN,NaN,NaN,NaN,2100,0,7,4
166,22695,0,167,3,3,0,no_gain3,gain2,K,H,,,NaN,NaN,,,,,0,NaN,NaN,NaN,chosen,NaN,NaN,NaN,NaN,3600,1,7,4
167,22695,0,168,3,3,1,gain6,no_gain4,D,E,,27,NaN,body_parts,,92,,Stimuli/Experimental_stims/body_parts/heike-mintel-i_Gns0ELnLw-unsplash.jpg,0,NaN,NaN,NaN,unchosen,NaN,NaN,NaN,NaN,1300,0,7,4
168,22695,0,169,3,3,0,no_gain4,gain2,E,H,42,,objects,NaN,23,,Stimuli/Experimental_stims/objects/jess-bailey-nOeVi8DsN8U-unsplash.jpg,,0,NaN,NaN,NaN,chosen,NaN,NaN,NaN,NaN,2700,0,7,4
169,22695,0,170,3,3,1,gain1,no_gain4,F,E,26,27,body_parts,body_parts,30,92,Stimuli/Experimental_stims/body_parts/engin-akyurt-x_3gyC42btc-unsplash.jpg,Stimuli/Experimental_stims/body_parts/heike-mintel-i_Gns0ELnLw-unsplash.jpg,0,NaN,NaN,NaN,unchosen,NaN,NaN,NaN,NaN,1400,0,7,4
170,22695,0,171,3,3,0,no_gain2,gain4,A,L,43,16,objects,faces,78,63,Stimuli/Experimental_stims/objects/jonathan-greenaway-Y4hGgeiFn3s-unsplash.jpg,Stimuli/Experimental_stims/faces/freddy-kearney-o-ioeoATbIM-unsplash.jpg,0,NaN,NaN,NaN,unchosen,NaN,NaN,NaN,NaN,2300,0,7,4
171,22695,0,172,3,3,0,no_gain1,gain1,I,F,34,26,body_parts,body_parts,23,30,Stimuli/Experimental_stims/body_parts/wagner-santos-mBWMvIuVnso-unsplash.jpg,Stimuli/Experimental_stims/body_parts/engin-akyurt-x_3gyC42btc-unsplash.jpg,0,NaN,NaN,NaN,unchosen,NaN,NaN,NaN,NaN,3400,1,7,4
172,22695,0,173,3,3,1,gain4,no_gain2,L,A,32,0,body_parts,outdoor_scenes,31,71,Stimuli/Experimental_stims/body_parts/towfiqu-barbhuiya-3AsiVDsZnHg-unsplash.jpg,Stimuli/Experimental_stims/outdoor_scenes/aleksandra-boguslawska-MS7KD9Ti7FQ-unsplash.jpg,0,NaN,NaN,NaN,chosen,NaN,NaN,NaN,NaN,1200,0,7,4
173,22695,0,174,3,3,0,no_gain6,gain6,B,D,7,,outdoor_scenes,NaN,81,,Stimuli/Experimental_stims/outdoor_scenes/petr-vysohlid-9fqwGqGLUxc-unsplash.jpg,,0,NaN,NaN,NaN,unchosen,NaN,NaN,NaN,NaN,2500,0,7,4
174,22695,0,175,3,3,1,gain3,no_gain3,J,K,41,,objects,NaN,70,,Stimuli/Experimental_stims/objects/insung-yoon-w2JtIQQXoRU-unsplash.jpg,,0,NaN,NaN,NaN,chosen,NaN,NaN,NaN,NaN,2600,0,7,4
175,22695,0,176,3,3,0,no_gain2,gain6,A,D,43,,objects,NaN,78,,Stimuli/Experimental_stims/objects/jonathan-greenaway-Y4hGgeiFn3s-unsplash.jpg,,0,NaN,NaN,NaN,unchosen,NaN,NaN,NaN,NaN,2100,0,7,4
176,22695,0,177,3,3,1,gain1,no_gain5,F,G,18,,faces,NaN,49,,Stimuli/Experimental_stims/faces/jessica-radanavong-mrYkTuAesKE-unsplash.jpg,,0,NaN,NaN,NaN,chosen,NaN,NaN,NaN,NaN,3300,1,7,4
177,22695,0,178,3,3,0,no_gain1,gain5,I,C,34,25,body_parts,body_parts,23,14,Stimuli/Experimental_stims/body_parts/wagner-santos-mBWMvIuVnso-unsplash.jpg,Stimuli/Experimental_stims/body_parts/engin-akyurt-Q2rfH3GW39c-unsplash.jpg,0,NaN,NaN,NaN,unchosen,NaN,NaN,NaN,NaN,1200,0,7,4
178,22695,0,179,3,3,1,gain2,no_gain6,H,B,,14,NaN,faces,,49,,Stimuli/Experimental_stims/faces/david-siglin-UuW4psOb388-unsplash.jpg,0,NaN,NaN,NaN,chosen,NaN,NaN,NaN,NaN,1500,0,7,4
179,22695,0,180,3,3,1,gain3,no_gain6,J,B,20,7,faces,outdoor_scenes,59,81,Stimuli/Experimental_stims/faces/justin-chen-J7Cf1Gch49E-unsplash.jpg,Stimuli/Experimental_stims/outdoor_scenes/petr-vysohlid-9fqwGqGLUxc-unsplash.jpg,0,NaN,NaN,NaN,unchosen,NaN,NaN,NaN,NaN,1700,0,7,4
180,22695,0,181,3,3,0,no_gain5,gain1,G,F,,26,NaN,body_parts,,30,,Stimuli/Experimental_stims/body_parts/engin-akyurt-x_3gyC42btc-unsplash.jpg,0,NaN,NaN,NaN,unchosen,NaN,NaN,NaN,NaN,1500,0,7,4
181,22695,0,182,3,3,1,gain2,no_gain6,H,B,,7,NaN,outdoor_scenes,,81,,Stimuli/Experimental_stims/outdoor_scenes/petr-vysohlid-9fqwGqGLUxc-unsplash.jpg,0,NaN,NaN,NaN,unchosen,NaN,NaN,NaN,NaN,1300,0,7,4
182,22695,0,183,3,3,1,gain1,no_gain4,F,E,18,42,faces,objects,49,23,Stimuli/Experimental_stims/faces/jessica-radanavong-mrYkTuAesKE-unsplash.jpg,Stimuli/Experimental_stims/objects/jess-bailey-nOeVi8DsN8U-unsplash.jpg,0,NaN,NaN,NaN,chosen,NaN,NaN,NaN,NaN,2000,0,7,4
183,22695,0,184,3,3,0,no_gain1,gain6,I,D,34,,body_parts,NaN,23,,Stimuli/Experimental_stims/body_parts/wagner-santos-mBWMvIuVnso-unsplash.jpg,,0,NaN,NaN,NaN,unchosen,NaN,NaN,NaN,NaN,1500,0,7,4
184,22695,0,185,3,3,1,gain5,no_gain5,C,G,5,,outdoor_scenes,NaN,66,,Stimuli/Experimental_stims/outdoor_scenes/jeff-king-bJHWJeiHfHc-unsplash.jpg,,0,NaN,NaN,NaN,chosen,NaN,NaN,NaN,NaN,2200,0,7,4
185,22695,0,186,3,3,1,gain6,no_gain1,D,I,,6,NaN,outdoor_scenes,,82,,Stimuli/Experimental_stims/outdoor_scenes/meng-ji-8BH_M-53CyA-unsplash.jpg,0,NaN,NaN,NaN,chosen,NaN,NaN,NaN,NaN,1300,0,7,4
186,22695,0,187,3,3,0,no_gain6,gain4,B,L,14,32,faces,body_parts,49,31,Stimuli/Experimental_stims/faces/david-siglin-UuW4psOb388-unsplash.jpg,Stimuli/Experimental_stims/body_parts/towfiqu-barbhuiya-3AsiVDsZnHg-unsplash.jpg,0,NaN,NaN,NaN,chosen,NaN,NaN,NaN,NaN,1000,0,7,4
187,22695,0,188,3,3,1,gain1,no_gain2,F,A,26,43,body_parts,objects,30,78,Stimuli/Experimental_stims/body_parts/engin-akyurt-x_3gyC42btc-unsplash.jpg,Stimuli/Experimental_stims/objects/jonathan-greenaway-Y4hGgeiFn3s-unsplash.jpg,0,NaN,NaN,NaN,unchosen,NaN,NaN,NaN,NaN,3000,1,7,4
188,22695,0,189,3,3,0,no_gain2,gain5,A,C,43,25,objects,body_parts,78,14,Stimuli/Experimental_stims/objects/jonathan-greenaway-Y4hGgeiFn3s-unsplash.jpg,Stimuli/Experimental_stims/body_parts/engin-akyurt-Q2rfH3GW39c-unsplash.jpg,0,NaN,NaN,NaN,unchosen,NaN,NaN,NaN,NaN,1300,0,7,4
189,22695,0,190,3,3,1,gain1,no_gain3,F,K,26,,body_parts,NaN,30,,Stimuli/Experimental_stims/body_parts/engin-akyurt-x_3gyC42btc-unsplash.jpg,,0,NaN,NaN,NaN,unchosen,NaN,NaN,NaN,NaN,2200,0,7,4
190,22695,0,191,3,3,0,no_gain1,gain2,I,H,6,,outdoor_scenes,NaN,82,,Stimuli/Experimental_stims/outdoor_scenes/meng-ji-8BH_M-53CyA-unsplash.jpg,,0,NaN,NaN,NaN,chosen,NaN,NaN,NaN,NaN,1100,0,7,4
191,22695,0,192,3,3,0,no_gain3,gain5,K,C,,25,NaN,body_parts,,14,,Stimuli/Experimental_stims/body_parts/engin-akyurt-Q2rfH3GW39c-unsplash.jpg,0,NaN,NaN,NaN,unchosen,NaN,NaN,NaN,NaN,2100,0,7,4
192,22695,0,193,3,3,0,no_gain2,gain6,A,D,0,,outdoor_scenes,NaN,71,,Stimuli/Experimental_stims/outdoor_scenes/aleksandra-boguslawska-MS7KD9Ti7FQ-unsplash.jpg,,0,NaN,NaN,NaN,chosen,NaN,NaN,NaN,NaN,2300,0,7,4
193,22695,0,194,3,3,0,no_gain4,gain5,E,C,42,5,objects,outdoor_scenes,23,66,Stimuli/Experimental_stims/objects/jess-bailey-nOeVi8DsN8U-unsplash.jpg,Stimuli/Experimental_stims/outdoor_scenes/jeff-king-bJHWJeiHfHc-unsplash.jpg,0,NaN,NaN,NaN,chosen,NaN,NaN,NaN,NaN,3900,1,7,4
194,22695,0,195,3,3,0,no_gain4,gain6,E,D,42,,objects,NaN,23,,Stimuli/Experimental_stims/objects/jess-bailey-nOeVi8DsN8U-unsplash.jpg,,0,NaN,NaN,NaN,chosen,NaN,NaN,NaN,NaN,1700,0,7,4
195,22695,0,196,3,3,1,gain4,no_gain3,L,K,16,,faces,NaN,63,,Stimuli/Experimental_stims/faces/freddy-kearney-o-ioeoATbIM-unsplash.jpg,,0,NaN,NaN,NaN,unchosen,NaN,NaN,NaN,NaN,1200,0,7,4
196,22695,0,197,3,3,0,no_gain1,gain4,I,L,34,16,body_parts,faces,23,63,Stimuli/Experimental_stims/body_parts/wagner-santos-mBWMvIuVnso-unsplash.jpg,Stimuli/Experimental_stims/faces/freddy-kearney-o-ioeoATbIM-unsplash.jpg,0,NaN,NaN,NaN,unchosen,NaN,NaN,NaN,NaN,1200,0,7,4
197,22695,0,198,3,3,1,gain2,no_gain2,H,A,,43,NaN,objects,,78,,Stimuli/Experimental_stims/objects/jonathan-greenaway-Y4hGgeiFn3s-unsplash.jpg,0,NaN,NaN,NaN,unchosen,NaN,NaN,NaN,NaN,1900,0,7,4
198,22695,0,199,3,3,0,no_gain6,gain3,B,J,14,41,faces,objects,49,70,Stimuli/Experimental_stims/faces/david-siglin-UuW4psOb388-unsplash.jpg,Stimuli/Experimental_stims/objects/insung-yoon-w2JtIQQXoRU-unsplash.jpg,0,NaN,NaN,NaN,chosen,NaN,NaN,NaN,NaN,1000,0,7,4
199,22695,0,200,3,3,0,no_gain4,gain4,E,L,42,32,objects,body_parts,23,31,Stimuli/Experimental_stims/objects/jess-bailey-nOeVi8DsN8U-unsplash.jpg,Stimuli/Experimental_stims/body_parts/towfiqu-barbhuiya-3AsiVDsZnHg-unsplash.jpg,0,NaN,NaN,NaN,chosen,NaN,NaN,NaN,NaN,3900,1,7,4
200,22695,0,201,3,3,0,no_gain6,gain5,B,C,14,5,faces,outdoor_scenes,49,66,Stimuli/Experimental_stims/faces/david-siglin-UuW4psOb388-unsplash.jpg,Stimuli/Experimental_stims/outdoor_scenes/jeff-king-bJHWJeiHfHc-unsplash.jpg,0,NaN,NaN,NaN,chosen,NaN,NaN,NaN,NaN,2100,0,7,4
201,22695,0,202,3,3,1,gain6,no_gain5,D,G,,,NaN,NaN,,,,,0,NaN,NaN,NaN,unchosen,NaN,NaN,NaN,NaN,1300,0,7,4
202,22695,0,203,3,3,0,no_gain2,gain5,A,C,0,5,outdoor_scenes,outdoor_scenes,71,66,Stimuli/Experimental_stims/outdoor_scenes/aleksandra-boguslawska-MS7KD9Ti7FQ-unsplash.jpg,Stimuli/Experimental_stims/outdoor_scenes/jeff-king-bJHWJeiHfHc-unsplash.jpg,0,NaN,NaN,NaN,chosen,NaN,NaN,NaN,NaN,1800,0,7,4
203,22695,0,204,3,3,1,gain4,no_gain1,L,I,32,6,body_parts,outdoor_scenes,31,82,Stimuli/Experimental_stims/body_parts/towfiqu-barbhuiya-3AsiVDsZnHg-unsplash.jpg,Stimuli/Experimental_stims/outdoor_scenes/meng-ji-8BH_M-53CyA-unsplash.jpg,0,NaN,NaN,NaN,chosen,NaN,NaN,NaN,NaN,1900,0,7,4
204,22695,0,205,3,3,1,gain6,no_gain3,D,K,,,NaN,NaN,,,,,0,NaN,NaN,NaN,unchosen,NaN,NaN,NaN,NaN,2600,0,7,4
205,22695,0,206,3,3,1,gain4,no_gain6,L,B,16,7,faces,outdoor_scenes,63,81,Stimuli/Experimental_stims/faces/freddy-kearney-o-ioeoATbIM-unsplash.jpg,Stimuli/Experimental_stims/outdoor_scenes/petr-vysohlid-9fqwGqGLUxc-unsplash.jpg,0,NaN,NaN,NaN,unchosen,NaN,NaN,NaN,NaN,2400,0,7,4
206,22695,0,207,3,3,0,no_gain5,gain4,G,L,,16,NaN,faces,,63,,Stimuli/Experimental_stims/faces/freddy-kearney-o-ioeoATbIM-unsplash.jpg,0,NaN,NaN,NaN,unchosen,NaN,NaN,NaN,NaN,2500,0,7,4
207,22695,0,208,3,3,0,no_gain5,gain6,G,D,,,NaN,NaN,,,,,0,NaN,NaN,NaN,chosen,NaN,NaN,NaN,NaN,2900,1,7,4
208,22695,0,209,3,3,0,no_gain4,gain3,E,J,27,20,body_parts,faces,92,59,Stimuli/Experimental_stims/body_parts/heike-mintel-i_Gns0ELnLw-unsplash.jpg,Stimuli/Experimental_stims/faces/justin-chen-J7Cf1Gch49E-unsplash.jpg,0,NaN,NaN,NaN,unchosen,NaN,NaN,NaN,NaN,1000,0,7,4
209,22695,0,210,3,3,0,no_gain1,gain3,I,J,6,41,outdoor_scenes,objects,82,70,Stimuli/Experimental_stims/outdoor_scenes/meng-ji-8BH_M-53CyA-unsplash.jpg,Stimuli/Experimental_stims/objects/insung-yoon-w2JtIQQXoRU-unsplash.jpg,0,NaN,NaN,NaN,chosen,NaN,NaN,NaN,NaN,1500,0,7,4
210,22695,0,211,3,3,1,gain3,no_gain3,J,K,20,,faces,NaN,59,,Stimuli/Experimental_stims/faces/justin-chen-J7Cf1Gch49E-unsplash.jpg,,0,NaN,NaN,NaN,unchosen,NaN,NaN,NaN,NaN,2000,0,7,4
211,22695,0,212,3,3,1,gain1,no_gain6,F,B,26,7,body_parts,outdoor_scenes,30,81,Stimuli/Experimental_stims/body_parts/engin-akyurt-x_3gyC42btc-unsplash.jpg,Stimuli/Experimental_stims/outdoor_scenes/petr-vysohlid-9fqwGqGLUxc-unsplash.jpg,0,NaN,NaN,NaN,unchosen,NaN,NaN,NaN,NaN,1400,0,7,4
212,22695,0,213,3,3,0,no_gain5,gain2,G,H,,,NaN,NaN,,,,,0,NaN,NaN,NaN,unchosen,NaN,NaN,NaN,NaN,1800,0,7,4
213,22695,0,214,3,3,1,gain6,no_gain6,D,B,,14,NaN,faces,,49,,Stimuli/Experimental_stims/faces/david-siglin-UuW4psOb388-unsplash.jpg,0,NaN,NaN,NaN,chosen,NaN,NaN,NaN,NaN,2500,0,7,4
214,22695,0,215,3,3,1,gain1,no_gain2,F,A,18,0,faces,outdoor_scenes,49,71,Stimuli/Experimental_stims/faces/jessica-radanavong-mrYkTuAesKE-unsplash.jpg,Stimuli/Experimental_stims/outdoor_scenes/aleksandra-boguslawska-MS7KD9Ti7FQ-unsplash.jpg,0,NaN,NaN,NaN,chosen,NaN,NaN,NaN,NaN,1600,0,7,4
215,22695,0,216,3,3,0,no_gain1,gain2,I,H,34,,body_parts,NaN,23,,Stimuli/Experimental_stims/body_parts/wagner-santos-mBWMvIuVnso-unsplash.jpg,,0,NaN,NaN,NaN,unchosen,NaN,NaN,NaN,NaN,3700,1,7,4
216,22695,0,217,3,3,0,no_gain5,gain3,G,J,,20,NaN,faces,,59,,Stimuli/Experimental_stims/faces/justin-chen-J7Cf1Gch49E-unsplash.jpg,0,NaN,NaN,NaN,unchosen,NaN,NaN,NaN,NaN,1200,0,7,4
217,22695,0,218,3,3,1,gain3,no_gain2,J,A,41,0,objects,outdoor_scenes,70,71,Stimuli/Experimental_stims/objects/insung-yoon-w2JtIQQXoRU-unsplash.jpg,Stimuli/Experimental_stims/outdoor_scenes/aleksandra-boguslawska-MS7KD9Ti7FQ-unsplash.jpg,0,NaN,NaN,NaN,chosen,NaN,NaN,NaN,NaN,1200,0,7,4
218,22695,0,219,3,3,1,gain3,no_gain1,J,I,20,34,faces,body_parts,59,23,Stimuli/Experimental_stims/faces/justin-chen-J7Cf1Gch49E-unsplash.jpg,Stimuli/Experimental_stims/body_parts/wagner-santos-mBWMvIuVnso-unsplash.jpg,0,NaN,NaN,NaN,unchosen,NaN,NaN,NaN,NaN,1100,0,7,4
219,22695,0,220,3,3,1,gain2,no_gain2,H,A,,0,NaN,outdoor_scenes,,71,,Stimuli/Experimental_stims/outdoor_scenes/aleksandra-boguslawska-MS7KD9Ti7FQ-unsplash.jpg,0,NaN,NaN,NaN,chosen,NaN,NaN,NaN,NaN,1100,0,7,4
220,22695,0,221,4,4,1,gain4,no_gain1,L,I,16,34,faces,body_parts,63,23,Stimuli/Experimental_stims/faces/freddy-kearney-o-ioeoATbIM-unsplash.jpg,Stimuli/Experimental_stims/body_parts/wagner-santos-mBWMvIuVnso-unsplash.jpg,0,NaN,NaN,NaN,unchosen,NaN,NaN,NaN,NaN,4000,1,8,4
221,22695,0,222,4,4,0,no_gain1,gain5,I,C,6,5,outdoor_scenes,outdoor_scenes,82,66,Stimuli/Experimental_stims/outdoor_scenes/meng-ji-8BH_M-53CyA-unsplash.jpg,Stimuli/Experimental_stims/outdoor_scenes/jeff-king-bJHWJeiHfHc-unsplash.jpg,0,NaN,NaN,NaN,chosen,NaN,NaN,NaN,NaN,1900,0,8,4
222,22695,0,223,4,4,1,gain2,no_gain1,H,I,,6,NaN,outdoor_scenes,,82,,Stimuli/Experimental_stims/outdoor_scenes/meng-ji-8BH_M-53CyA-unsplash.jpg,0,NaN,NaN,NaN,chosen,NaN,NaN,NaN,NaN,1200,0,8,4
223,22695,0,224,4,4,1,gain4,no_gain6,L,B,16,7,faces,outdoor_scenes,63,81,Stimuli/Experimental_stims/faces/freddy-kearney-o-ioeoATbIM-unsplash.jpg,Stimuli/Experimental_stims/outdoor_scenes/petr-vysohlid-9fqwGqGLUxc-unsplash.jpg,0,NaN,NaN,NaN,unchosen,NaN,NaN,NaN,NaN,1200,0,8,4
224,22695,0,225,4,4,1,gain4,no_gain3,L,K,16,,faces,NaN,63,,Stimuli/Experimental_stims/faces/freddy-kearney-o-ioeoATbIM-unsplash.jpg,,0,NaN,NaN,NaN,unchosen,NaN,NaN,NaN,NaN,2900,0,8,4
225,22695,0,226,4,4,1,gain2,no_gain3,H,K,,,NaN,NaN,,,,,0,NaN,NaN,NaN,unchosen,NaN,NaN,NaN,NaN,1800,0,8,4
226,22695,0,227,4,4,1,gain1,no_gain3,F,K,18,,faces,NaN,49,,Stimuli/Experimental_stims/faces/jessica-radanavong-mrYkTuAesKE-unsplash.jpg,,0,NaN,NaN,NaN,chosen,NaN,NaN,NaN,NaN,4700,1,8,4
227,22695,0,228,4,4,0,no_gain2,gain5,A,C,0,5,outdoor_scenes,outdoor_scenes,71,66,Stimuli/Experimental_stims/outdoor_scenes/aleksandra-boguslawska-MS7KD9Ti7FQ-unsplash.jpg,Stimuli/Experimental_stims/outdoor_scenes/jeff-king-bJHWJeiHfHc-unsplash.jpg,0,NaN,NaN,NaN,chosen,NaN,NaN,NaN,NaN,2800,0,8,4
228,22695,0,229,4,4,1,gain5,no_gain1,C,I,25,34,body_parts,body_parts,14,23,Stimuli/Experimental_stims/body_parts/engin-akyurt-Q2rfH3GW39c-unsplash.jpg,Stimuli/Experimental_stims/body_parts/wagner-santos-mBWMvIuVnso-unsplash.jpg,0,NaN,NaN,NaN,unchosen,NaN,NaN,NaN,NaN,1100,0,8,4
229,22695,0,230,4,4,0,no_gain4,gain5,E,C,42,5,objects,outdoor_scenes,23,66,Stimuli/Experimental_stims/objects/jess-bailey-nOeVi8DsN8U-unsplash.jpg,Stimuli/Experimental_stims/outdoor_scenes/jeff-king-bJHWJeiHfHc-unsplash.jpg,0,NaN,NaN,NaN,chosen,NaN,NaN,NaN,NaN,2200,0,8,4
230,22695,0,231,4,4,0,no_gain1,gain6,I,D,34,,body_parts,NaN,23,,Stimuli/Experimental_stims/body_parts/wagner-santos-mBWMvIuVnso-unsplash.jpg,,0,NaN,NaN,NaN,unchosen,NaN,NaN,NaN,NaN,2000,0,8,4
231,22695,0,232,4,4,1,gain3,no_gain5,J,G,20,,faces,NaN,59,,Stimuli/Experimental_stims/faces/justin-chen-J7Cf1Gch49E-unsplash.jpg,,0,NaN,NaN,NaN,unchosen,NaN,NaN,NaN,NaN,1100,0,8,4
232,22695,0,233,4,4,0,no_gain6,gain1,B,F,7,26,outdoor_scenes,body_parts,81,30,Stimuli/Experimental_stims/outdoor_scenes/petr-vysohlid-9fqwGqGLUxc-unsplash.jpg,Stimuli/Experimental_stims/body_parts/engin-akyurt-x_3gyC42btc-unsplash.jpg,0,NaN,NaN,NaN,unchosen,NaN,NaN,NaN,NaN,3000,1,8,4
233,22695,0,234,4,4,1,gain3,no_gain5,J,G,41,,objects,NaN,70,,Stimuli/Experimental_stims/objects/insung-yoon-w2JtIQQXoRU-unsplash.jpg,,0,NaN,NaN,NaN,chosen,NaN,NaN,NaN,NaN,1800,0,8,4
234,22695,0,235,4,4,0,no_gain3,gain1,K,F,,26,NaN,body_parts,,30,,Stimuli/Experimental_stims/body_parts/engin-akyurt-x_3gyC42btc-unsplash.jpg,0,NaN,NaN,NaN,unchosen,NaN,NaN,NaN,NaN,1700,0,8,4
235,22695,0,236,4,4,0,no_gain2,gain5,A,C,43,25,objects,body_parts,78,14,Stimuli/Experimental_stims/objects/jonathan-greenaway-Y4hGgeiFn3s-unsplash.jpg,Stimuli/Experimental_stims/body_parts/engin-akyurt-Q2rfH3GW39c-unsplash.jpg,0,NaN,NaN,NaN,unchosen,NaN,NaN,NaN,NaN,1500,0,8,4
236,22695,0,237,4,4,0,no_gain2,gain1,A,F,43,26,objects,body_parts,78,30,Stimuli/Experimental_stims/objects/jonathan-greenaway-Y4hGgeiFn3s-unsplash.jpg,Stimuli/Experimental_stims/body_parts/engin-akyurt-x_3gyC42btc-unsplash.jpg,0,NaN,NaN,NaN,unchosen,NaN,NaN,NaN,NaN,1400,0,8,4
237,22695,0,238,4,4,1,gain6,no_gain2,D,A,,0,NaN,outdoor_scenes,,71,,Stimuli/Experimental_stims/outdoor_scenes/aleksandra-boguslawska-MS7KD9Ti7FQ-unsplash.jpg,0,NaN,NaN,NaN,chosen,NaN,NaN,NaN,NaN,3000,1,8,4
238,22695,0,239,4,4,1,gain4,no_gain2,L,A,16,43,faces,objects,63,78,Stimuli/Experimental_stims/faces/freddy-kearney-o-ioeoATbIM-unsplash.jpg,Stimuli/Experimental_stims/objects/jonathan-greenaway-Y4hGgeiFn3s-unsplash.jpg,0,NaN,NaN,NaN,unchosen,NaN,NaN,NaN,NaN,1000,0,8,4
239,22695,0,240,4,4,0,no_gain1,gain2,I,H,34,,body_parts,NaN,23,,Stimuli/Experimental_stims/body_parts/wagner-santos-mBWMvIuVnso-unsplash.jpg,,0,NaN,NaN,NaN,unchosen,NaN,NaN,NaN,NaN,1100,0,8,4
240,22695,0,241,4,4,0,no_gain4,gain3,E,J,27,20,body_parts,faces,92,59,Stimuli/Experimental_stims/body_parts/heike-mintel-i_Gns0ELnLw-unsplash.jpg,Stimuli/Experimental_stims/faces/justin-chen-J7Cf1Gch49E-unsplash.jpg,0,NaN,NaN,NaN,unchosen,NaN,NaN,NaN,NaN,1600,0,8,4
241,22695,0,242,4,4,0,no_gain5,gain4,G,L,,32,NaN,body_parts,,31,,Stimuli/Experimental_stims/body_parts/towfiqu-barbhuiya-3AsiVDsZnHg-unsplash.jpg,0,NaN,NaN,NaN,chosen,NaN,NaN,NaN,NaN,1100,0,8,4
242,22695,0,243,4,4,1,gain6,no_gain6,D,B,,7,NaN,outdoor_scenes,,81,,Stimuli/Experimental_stims/outdoor_scenes/petr-vysohlid-9fqwGqGLUxc-unsplash.jpg,0,NaN,NaN,NaN,unchosen,NaN,NaN,NaN,NaN,1100,0,8,4
243,22695,0,244,4,4,1,gain3,no_gain2,J,A,41,0,objects,outdoor_scenes,70,71,Stimuli/Experimental_stims/objects/insung-yoon-w2JtIQQXoRU-unsplash.jpg,Stimuli/Experimental_stims/outdoor_scenes/aleksandra-boguslawska-MS7KD9Ti7FQ-unsplash.jpg,0,NaN,NaN,NaN,chosen,NaN,NaN,NaN,NaN,1800,0,8,4
244,22695,0,245,4,4,0,no_gain1,gain1,I,F,6,18,outdoor_scenes,faces,82,49,Stimuli/Experimental_stims/outdoor_scenes/meng-ji-8BH_M-53CyA-unsplash.jpg,Stimuli/Experimental_stims/faces/jessica-radanavong-mrYkTuAesKE-unsplash.jpg,0,NaN,NaN,NaN,chosen,NaN,NaN,NaN,NaN,1400,0,8,4
245,22695,0,246,4,4,0,no_gain4,gain5,E,C,27,25,body_parts,body_parts,92,14,Stimuli/Experimental_stims/body_parts/heike-mintel-i_Gns0ELnLw-unsplash.jpg,Stimuli/Experimental_stims/body_parts/engin-akyurt-Q2rfH3GW39c-unsplash.jpg,0,NaN,NaN,NaN,unchosen,NaN,NaN,NaN,NaN,1600,0,8,4
246,22695,0,247,4,4,1,gain2,no_gain2,H,A,,0,NaN,outdoor_scenes,,71,,Stimuli/Experimental_stims/outdoor_scenes/aleksandra-boguslawska-MS7KD9Ti7FQ-unsplash.jpg,0,NaN,NaN,NaN,chosen,NaN,NaN,NaN,NaN,2000,0,8,4
247,22695,0,248,4,4,0,no_gain1,gain3,I,J,34,20,body_parts,faces,23,59,Stimuli/Experimental_stims/body_parts/wagner-santos-mBWMvIuVnso-unsplash.jpg,Stimuli/Experimental_stims/faces/justin-chen-J7Cf1Gch49E-unsplash.jpg,0,NaN,NaN,NaN,unchosen,NaN,NaN,NaN,NaN,2200,0,8,4
248,22695,0,249,4,4,0,no_gain4,gain2,E,H,42,,objects,NaN,23,,Stimuli/Experimental_stims/objects/jess-bailey-nOeVi8DsN8U-unsplash.jpg,,0,NaN,NaN,NaN,chosen,NaN,NaN,NaN,NaN,2100,0,8,4
249,22695,0,250,4,4,0,no_gain3,gain2,K,H,,,NaN,NaN,,,,,0,NaN,NaN,NaN,chosen,NaN,NaN,NaN,NaN,2900,0,8,4
250,22695,0,251,4,4,0,no_gain6,gain5,B,C,7,25,outdoor_scenes,body_parts,81,14,Stimuli/Experimental_stims/outdoor_scenes/petr-vysohlid-9fqwGqGLUxc-unsplash.jpg,Stimuli/Experimental_stims/body_parts/engin-akyurt-Q2rfH3GW39c-unsplash.jpg,0,NaN,NaN,NaN,unchosen,NaN,NaN,NaN,NaN,1600,0,8,4
251,22695,0,252,4,4,1,gain3,no_gain4,J,E,41,42,objects,objects,70,23,Stimuli/Experimental_stims/objects/insung-yoon-w2JtIQQXoRU-unsplash.jpg,Stimuli/Experimental_stims/objects/jess-bailey-nOeVi8DsN8U-unsplash.jpg,0,NaN,NaN,NaN,chosen,NaN,NaN,NaN,NaN,1600,0,8,4
252,22695,0,253,4,4,0,no_gain1,gain1,I,F,34,26,body_parts,body_parts,23,30,Stimuli/Experimental_stims/body_parts/wagner-santos-mBWMvIuVnso-unsplash.jpg,Stimuli/Experimental_stims/body_parts/engin-akyurt-x_3gyC42btc-unsplash.jpg,0,NaN,NaN,NaN,unchosen,NaN,NaN,NaN,NaN,4900,1,8,4
253,22695,0,254,4,4,0,no_gain5,gain1,G,F,,26,NaN,body_parts,,30,,Stimuli/Experimental_stims/body_parts/engin-akyurt-x_3gyC42btc-unsplash.jpg,0,NaN,NaN,NaN,unchosen,NaN,NaN,NaN,NaN,2600,0,8,4
254,22695,0,255,4,4,1,gain5,no_gain5,C,G,5,,outdoor_scenes,NaN,66,,Stimuli/Experimental_stims/outdoor_scenes/jeff-king-bJHWJeiHfHc-unsplash.jpg,,0,NaN,NaN,NaN,chosen,NaN,NaN,NaN,NaN,1800,0,8,4
255,22695,0,256,4,4,0,no_gain1,gain3,I,J,6,41,outdoor_scenes,objects,82,70,Stimuli/Experimental_stims/outdoor_scenes/meng-ji-8BH_M-53CyA-unsplash.jpg,Stimuli/Experimental_stims/objects/insung-yoon-w2JtIQQXoRU-unsplash.jpg,0,NaN,NaN,NaN,chosen,NaN,NaN,NaN,NaN,1500,0,8,4
256,22695,0,257,4,4,1,gain5,no_gain3,C,K,5,,outdoor_scenes,NaN,66,,Stimuli/Experimental_stims/outdoor_scenes/jeff-king-bJHWJeiHfHc-unsplash.jpg,,0,NaN,NaN,NaN,chosen,NaN,NaN,NaN,NaN,1700,0,8,4
257,22695,0,258,4,4,1,gain2,no_gain4,H,E,,27,NaN,body_parts,,92,,Stimuli/Experimental_stims/body_parts/heike-mintel-i_Gns0ELnLw-unsplash.jpg,0,NaN,NaN,NaN,unchosen,NaN,NaN,NaN,NaN,3200,1,8,4
258,22695,0,259,4,4,1,gain3,no_gain3,J,K,41,,objects,NaN,70,,Stimuli/Experimental_stims/objects/insung-yoon-w2JtIQQXoRU-unsplash.jpg,,0,NaN,NaN,NaN,chosen,NaN,NaN,NaN,NaN,2100,0,8,4
259,22695,0,260,4,4,0,no_gain6,gain1,B,F,14,18,faces,faces,49,49,Stimuli/Experimental_stims/faces/david-siglin-UuW4psOb388-unsplash.jpg,Stimuli/Experimental_stims/faces/jessica-radanavong-mrYkTuAesKE-unsplash.jpg,0,NaN,NaN,NaN,chosen,NaN,NaN,NaN,NaN,1600,0,8,4
260,22695,0,261,4,4,0,no_gain2,gain3,A,J,43,20,objects,faces,78,59,Stimuli/Experimental_stims/objects/jonathan-greenaway-Y4hGgeiFn3s-unsplash.jpg,Stimuli/Experimental_stims/faces/justin-chen-J7Cf1Gch49E-unsplash.jpg,0,NaN,NaN,NaN,unchosen,NaN,NaN,NaN,NaN,1700,0,8,4
261,22695,0,262,4,4,0,no_gain4,gain4,E,L,42,32,objects,body_parts,23,31,Stimuli/Experimental_stims/objects/jess-bailey-nOeVi8DsN8U-unsplash.jpg,Stimuli/Experimental_stims/body_parts/towfiqu-barbhuiya-3AsiVDsZnHg-unsplash.jpg,0,NaN,NaN,NaN,chosen,NaN,NaN,NaN,NaN,1300,0,8,4
262,22695,0,263,4,4,1,gain6,no_gain1,D,I,,6,NaN,outdoor_scenes,,82,,Stimuli/Experimental_stims/outdoor_scenes/meng-ji-8BH_M-53CyA-unsplash.jpg,0,NaN,NaN,NaN,chosen,NaN,NaN,NaN,NaN,3700,1,8,4
263,22695,0,264,4,4,1,gain1,no_gain4,F,E,26,27,body_parts,body_parts,30,92,Stimuli/Experimental_stims/body_parts/engin-akyurt-x_3gyC42btc-unsplash.jpg,Stimuli/Experimental_stims/body_parts/heike-mintel-i_Gns0ELnLw-unsplash.jpg,0,NaN,NaN,NaN,unchosen,NaN,NaN,NaN,NaN,1500,0,8,4
264,22695,0,265,4,4,1,gain4,no_gain1,L,I,32,6,body_parts,outdoor_scenes,31,82,Stimuli/Experimental_stims/body_parts/towfiqu-barbhuiya-3AsiVDsZnHg-unsplash.jpg,Stimuli/Experimental_stims/outdoor_scenes/meng-ji-8BH_M-53CyA-unsplash.jpg,0,NaN,NaN,NaN,chosen,NaN,NaN,NaN,NaN,1500,0,8,4
265,22695,0,266,4,4,1,gain2,no_gain5,H,G,,,NaN,NaN,,,,,0,NaN,NaN,NaN,unchosen,NaN,NaN,NaN,NaN,1400,0,8,4
266,22695,0,267,4,4,0,no_gain2,gain4,A,L,0,32,outdoor_scenes,body_parts,71,31,Stimuli/Experimental_stims/outdoor_scenes/aleksandra-boguslawska-MS7KD9Ti7FQ-unsplash.jpg,Stimuli/Experimental_stims/body_parts/towfiqu-barbhuiya-3AsiVDsZnHg-unsplash.jpg,0,NaN,NaN,NaN,chosen,NaN,NaN,NaN,NaN,1700,0,8,4
267,22695,0,268,4,4,0,no_gain4,gain6,E,D,42,,objects,NaN,23,,Stimuli/Experimental_stims/objects/jess-bailey-nOeVi8DsN8U-unsplash.jpg,,0,NaN,NaN,NaN,chosen,NaN,NaN,NaN,NaN,2500,0,8,4
268,22695,0,269,4,4,0,no_gain6,gain6,B,D,14,,faces,NaN,49,,Stimuli/Experimental_stims/faces/david-siglin-UuW4psOb388-unsplash.jpg,,0,NaN,NaN,NaN,chosen,NaN,NaN,NaN,NaN,1800,0,8,4
269,22695,0,270,4,4,0,no_gain2,gain6,A,D,43,,objects,NaN,78,,Stimuli/Experimental_stims/objects/jonathan-greenaway-Y4hGgeiFn3s-unsplash.jpg,,0,NaN,NaN,NaN,unchosen,NaN,NaN,NaN,NaN,2200,0,8,4
270,22695,0,271,4,4,0,no_gain5,gain6,G,D,,,NaN,NaN,,,,,0,NaN,NaN,NaN,unchosen,NaN,NaN,NaN,NaN,1400,0,8,4
271,22695,0,272,4,4,1,gain3,no_gain6,J,B,41,14,objects,faces,70,49,Stimuli/Experimental_stims/objects/insung-yoon-w2JtIQQXoRU-unsplash.jpg,Stimuli/Experimental_stims/faces/david-siglin-UuW4psOb388-unsplash.jpg,0,NaN,NaN,NaN,chosen,NaN,NaN,NaN,NaN,4200,1,8,4
272,22695,0,273,4,4,1,gain5,no_gain5,C,G,25,,body_parts,NaN,14,,Stimuli/Experimental_stims/body_parts/engin-akyurt-Q2rfH3GW39c-unsplash.jpg,,0,NaN,NaN,NaN,unchosen,NaN,NaN,NaN,NaN,2400,0,8,4
273,22695,0,274,4,4,0,no_gain4,gain6,E,D,27,,body_parts,NaN,92,,Stimuli/Experimental_stims/body_parts/heike-mintel-i_Gns0ELnLw-unsplash.jpg,,0,NaN,NaN,NaN,unchosen,NaN,NaN,NaN,NaN,1100,0,8,4
274,22695,0,275,4,4,0,no_gain2,gain1,A,F,0,18,outdoor_scenes,faces,71,49,Stimuli/Experimental_stims/outdoor_scenes/aleksandra-boguslawska-MS7KD9Ti7FQ-unsplash.jpg,Stimuli/Experimental_stims/faces/jessica-radanavong-mrYkTuAesKE-unsplash.jpg,0,NaN,NaN,NaN,chosen,NaN,NaN,NaN,NaN,1400,0,8,4
275,22695,0,276,4,4,0,no_gain3,gain3,K,J,,20,NaN,faces,,59,,Stimuli/Experimental_stims/faces/justin-chen-J7Cf1Gch49E-unsplash.jpg,0,NaN,NaN,NaN,unchosen,NaN,NaN,NaN,NaN,1400,0,8,4
276,22695,0,277,4,4,1,gain5,no_gain6,C,B,5,14,outdoor_scenes,faces,66,49,Stimuli/Experimental_stims/outdoor_scenes/jeff-king-bJHWJeiHfHc-unsplash.jpg,Stimuli/Experimental_stims/faces/david-siglin-UuW4psOb388-unsplash.jpg,0,NaN,NaN,NaN,chosen,NaN,NaN,NaN,NaN,1000,0,8,4
277,22695,0,278,4,4,1,gain1,no_gain5,F,G,18,,faces,NaN,49,,Stimuli/Experimental_stims/faces/jessica-radanavong-mrYkTuAesKE-unsplash.jpg,,0,NaN,NaN,NaN,chosen,NaN,NaN,NaN,NaN,1900,0,8,4
278,22695,0,279,4,4,1,gain2,no_gain6,H,B,,7,NaN,outdoor_scenes,,81,,Stimuli/Experimental_stims/outdoor_scenes/petr-vysohlid-9fqwGqGLUxc-unsplash.jpg,0,NaN,NaN,NaN,unchosen,NaN,NaN,NaN,NaN,2100,0,8,4
279,22695,0,280,4,4,1,gain2,no_gain2,H,A,,43,NaN,objects,,78,,Stimuli/Experimental_stims/objects/jonathan-greenaway-Y4hGgeiFn3s-unsplash.jpg,0,NaN,NaN,NaN,unchosen,NaN,NaN,NaN,NaN,1100,0,8,4
280,22695,0,281,4,4,1,gain3,no_gain6,J,B,20,7,faces,outdoor_scenes,59,81,Stimuli/Experimental_stims/faces/justin-chen-J7Cf1Gch49E-unsplash.jpg,Stimuli/Experimental_stims/outdoor_scenes/petr-vysohlid-9fqwGqGLUxc-unsplash.jpg,0,NaN,NaN,NaN,unchosen,NaN,NaN,NaN,NaN,3800,1,8,4
281,22695,0,282,4,4,0,no_gain6,gain2,B,H,14,,faces,NaN,49,,Stimuli/Experimental_stims/faces/david-siglin-UuW4psOb388-unsplash.jpg,,0,NaN,NaN,NaN,chosen,NaN,NaN,NaN,NaN,1200,0,8,4
282,22695,0,283,4,4,0,no_gain3,gain4,K,L,,32,NaN,body_parts,,31,,Stimuli/Experimental_stims/body_parts/towfiqu-barbhuiya-3AsiVDsZnHg-unsplash.jpg,0,NaN,NaN,NaN,chosen,NaN,NaN,NaN,NaN,2500,0,8,4
283,22695,0,284,4,4,0,no_gain6,gain4,B,L,14,32,faces,body_parts,49,31,Stimuli/Experimental_stims/faces/david-siglin-UuW4psOb388-unsplash.jpg,Stimuli/Experimental_stims/body_parts/towfiqu-barbhuiya-3AsiVDsZnHg-unsplash.jpg,0,NaN,NaN,NaN,chosen,NaN,NaN,NaN,NaN,1200,0,8,4
284,22695,0,285,4,4,1,gain4,no_gain5,L,G,16,,faces,NaN,63,,Stimuli/Experimental_stims/faces/freddy-kearney-o-ioeoATbIM-unsplash.jpg,,0,NaN,NaN,NaN,unchosen,NaN,NaN,NaN,NaN,1600,0,8,4
285,22695,0,286,4,4,1,gain6,no_gain5,D,G,,,NaN,NaN,,,,,0,NaN,NaN,NaN,chosen,NaN,NaN,NaN,NaN,1900,0,8,4
286,22695,0,287,4,4,1,gain2,no_gain5,H,G,,,NaN,NaN,,,,,0,NaN,NaN,NaN,chosen,NaN,NaN,NaN,NaN,1000,0,8,4
287,22695,0,288,4,4,1,gain6,no_gain3,D,K,,,NaN,NaN,,,,,0,NaN,NaN,NaN,unchosen,NaN,NaN,NaN,NaN,5000,1,8,4
288,22695,0,289,4,4,0,no_gain4,gain1,E,F,42,18,objects,faces,23,49,Stimuli/Experimental_stims/objects/jess-bailey-nOeVi8DsN8U-unsplash.jpg,Stimuli/Experimental_stims/faces/jessica-radanavong-mrYkTuAesKE-unsplash.jpg,0,NaN,NaN,NaN,chosen,NaN,NaN,NaN,NaN,2400,0,8,4
289,22695,0,290,4,4,0,no_gain3,gain5,K,C,,25,NaN,body_parts,,14,,Stimuli/Experimental_stims/body_parts/engin-akyurt-Q2rfH3GW39c-unsplash.jpg,0,NaN,NaN,NaN,unchosen,NaN,NaN,NaN,NaN,1500,0,8,4
290,22695,0,291,4,4,1,gain6,no_gain3,D,K,,,NaN,NaN,,,,,0,NaN,NaN,NaN,chosen,NaN,NaN,NaN,NaN,1500,0,8,4
291,22695,0,292,4,4,1,gain4,no_gain4,L,E,16,27,faces,body_parts,63,92,Stimuli/Experimental_stims/faces/freddy-kearney-o-ioeoATbIM-unsplash.jpg,Stimuli/Experimental_stims/body_parts/heike-mintel-i_Gns0ELnLw-unsplash.jpg,0,NaN,NaN,NaN,unchosen,NaN,NaN,NaN,NaN,1300,0,8,4