,PID,practice,trial,block,run,gain_left,left_item_id,right_item_id,left_pair_id,right_pair_id,left_stimulus,right_stimulus,left_category,right_category,left_rating,right_rating,left_path,right_path,no_response,left_chosen,rt,higher_outcome_chosen,choice_type,chosen_stimulus,unchosen_stimulus,chosen_category,unchosen_category,iti,long_iti,simulation,version
0,31027,1,1,0,0,0,,,,,,,,,,,Stimuli/Practice_stims/Final_decisions/debby-hudson-FmCSSSGge-0-unsplash.jpg,Stimuli/Practice_stims/Final_decisions/yassine-khalfalli-adsQ9d_Cx0c-unsplash.jpg,0,NaN,NaN,NaN,,NaN,NaN,NaN,NaN,3000,0,5,4
1,31027,1,2,0,0,0,,,,,,,,,,,Stimuli/Practice_stims/Final_decisions/florian-wehde-iVW7mZPwd4g-unsplash.jpg,Stimuli/Practice_stims/Final_decisions/patrick-perkins-3wylDrjxH-E-unsplash.jpg,0,NaN,NaN,NaN,,NaN,NaN,NaN,NaN,1500,0,5,4
2,31027,1,3,0,0,0,,,,,,,,,,,Stimuli/Practice_stims/Final_decisions/debby-hudson-FmCSSSGge-0-unsplash.jpg,Stimuli/Practice_stims/Final_decisions/florian-wehde-iVW7mZPwd4g-unsplash.jpg,0,NaN,NaN,NaN,,NaN,NaN,NaN,NaN,2000,0,5,4
3,31027,1,4,0,0,0,,,,,,,,,,,Stimuli/Practice_stims/Final_decisions/yassine-khalfalli-adsQ9d_Cx0c-unsplash.jpg,Stimuli/Practice_stims/Final_decisions/debby-hudson-FmCSSSGge-0-unsplash.jpg,0,NaN,NaN,NaN,,NaN,NaN,NaN,NaN,1000,0,5,4
4,31027,0,5,1,1,0,no_gain2,gain4,A,F,41,13,objects,faces,71,77,Stimuli/Experimental_stims/objects/insung-yoon-w2JtIQQXoRU-unsplash.jpg,Stimuli/Experimental_stims/faces/daniel-rigdon-dXmXKPP2L4E-unsplash.jpg,0,NaN,NaN,NaN,chosen,NaN,NaN,NaN,NaN,5000,1,5,4
5,31027,0,6,1,1,0,no_gain1,gain4,K,F,47,24,objects,body_parts,61,73,Stimuli/Experimental_stims/objects/ronaldo-arthur-vidal-Cdz_lvnl37k-unsplash.jpg,Stimuli/Experimental_stims/body_parts/clay-banks-LjqARJaJotc-unsplash.jpg,0,NaN,NaN,NaN,unchosen,NaN,NaN,NaN,NaN,1700,0,5,4
6,31027,0,7,1,1,1,gain2,no_gain4,I,G,35,40,body_parts,objects,66,81,Stimuli/Experimental_stims/body_parts/wc-so-KH4AAPjb-tI-unsplash.jpg,Stimuli/Experimental_stims/objects/fabian-blank-pElSkGRA2NU-unsplash.jpg,0,NaN,NaN,NaN,chosen,NaN,NaN,NaN,NaN,1600,0,5,4
7,31027,0,8,1,1,1,gain1,no_gain2,D,A,18,8,faces,outdoor_scenes,73,98,Stimuli/Experimental_stims/faces/jessica-radanavong-mrYkTuAesKE-unsplash.jpg,Stimuli/Experimental_stims/outdoor_scenes/samsommer-vddccTqwal8-unsplash.jpg,0,NaN,NaN,NaN,unchosen,NaN,NaN,NaN,NaN,1800,0,5,4
8,31027,0,9,1,1,0,no_gain6,gain6,B,C,7,3,outdoor_scenes,outdoor_scenes,100,100,Stimuli/Experimental_stims/outdoor_scenes/petr-vysohlid-9fqwGqGLUxc-unsplash.jpg,Stimuli/Experimental_stims/outdoor_scenes/henry-be-NLF6hTe4PAg-unsplash.jpg,0,NaN,NaN,NaN,unchosen,NaN,NaN,NaN,NaN,1300,0,5,4
9,31027,0,10,1,1,1,gain6,no_gain1,C,K,3,47,outdoor_scenes,objects,100,61,Stimuli/Experimental_stims/outdoor_scenes/henry-be-NLF6hTe4PAg-unsplash.jpg,Stimuli/Experimental_stims/objects/ronaldo-arthur-vidal-Cdz_lvnl37k-unsplash.jpg,0,NaN,NaN,NaN,unchosen,NaN,NaN,NaN,NaN,1200,0,5,4
10,31027,0,11,1,1,0,no_gain4,gain5,G,J,40,45,objects,objects,81,67,Stimuli/Experimental_stims/objects/fabian-blank-pElSkGRA2NU-unsplash.jpg,Stimuli/Experimental_stims/objects/leohoho-rngTKHXumy0-unsplash.jpg,0,NaN,NaN,NaN,chosen,NaN,NaN,NaN,NaN,3800,1,5,4
11,31027,0,12,1,1,0,no_gain3,gain2,E,I,33,35,body_parts,body_parts,87,66,Stimuli/Experimental_stims/body_parts/tucker-good-36skLT5jZcc-unsplash.jpg,Stimuli/Experimental_stims/body_parts/wc-so-KH4AAPjb-tI-unsplash.jpg,0,NaN,NaN,NaN,chosen,NaN,NaN,NaN,NaN,1100,0,5,4
12,31027,0,13,1,1,1,gain5,no_gain4,J,G,14,1,faces,outdoor_scenes,69,100,Stimuli/Experimental_stims/faces/david-siglin-UuW4psOb388-unsplash.jpg,Stimuli/Experimental_stims/outdoor_scenes/ashim-d-silva-S2Q5mdOrrVc-unsplash.jpg,0,NaN,NaN,NaN,unchosen,NaN,NaN,NaN,NaN,2500,0,5,4
13,31027,0,14,1,1,0,no_gain3,gain3,E,L,33,31,body_parts,body_parts,87,59,Stimuli/Experimental_stims/body_parts/tucker-good-36skLT5jZcc-unsplash.jpg,Stimuli/Experimental_stims/body_parts/sincerely-media-VN6DbKajo5s-unsplash.jpg,0,NaN,NaN,NaN,chosen,NaN,NaN,NaN,NaN,1500,0,5,4
14,31027,0,15,1,1,0,no_gain6,gain1,B,D,7,18,outdoor_scenes,faces,100,73,Stimuli/Experimental_stims/outdoor_scenes/petr-vysohlid-9fqwGqGLUxc-unsplash.jpg,Stimuli/Experimental_stims/faces/jessica-radanavong-mrYkTuAesKE-unsplash.jpg,0,NaN,NaN,NaN,unchosen,NaN,NaN,NaN,NaN,1400,0,5,4
15,31027,0,16,1,1,0,no_gain2,gain3,A,L,41,31,objects,body_parts,71,59,Stimuli/Experimental_stims/objects/insung-yoon-w2JtIQQXoRU-unsplash.jpg,Stimuli/Experimental_stims/body_parts/sincerely-media-VN6DbKajo5s-unsplash.jpg,0,NaN,NaN,NaN,chosen,NaN,NaN,NaN,NaN,3300,1,5,4
16,31027,0,17,1,1,0,no_gain3,gain3,E,L,42,22,objects,faces,60,73,Stimuli/Experimental_stims/objects/jess-bailey-nOeVi8DsN8U-unsplash.jpg,Stimuli/Experimental_stims/faces/ravi-patel-VMGAbeeJTKo-unsplash.jpg,0,NaN,NaN,NaN,unchosen,NaN,NaN,NaN,NaN,1800,0,5,4
17,31027,0,18,1,1,0,no_gain1,gain3,K,L,47,22,objects,faces,61,73,Stimuli/Experimental_stims/objects/ronaldo-arthur-vidal-Cdz_lvnl37k-unsplash.jpg,Stimuli/Experimental_stims/faces/ravi-patel-VMGAbeeJTKo-unsplash.jpg,0,NaN,NaN,NaN,unchosen,NaN,NaN,NaN,NaN,1900,0,5,4
18,31027,0,19,1,1,0,no_gain6,gain4,B,F,7,24,outdoor_scenes,body_parts,100,73,Stimuli/Experimental_stims/outdoor_scenes/petr-vysohlid-9fqwGqGLUxc-unsplash.jpg,Stimuli/Experimental_stims/body_parts/clay-banks-LjqARJaJotc-unsplash.jpg,0,NaN,NaN,NaN,unchosen,NaN,NaN,NaN,NaN,1100,0,5,4
19,31027,0,20,1,1,0,no_gain2,gain1,A,D,41,38,objects,objects,71,64,Stimuli/Experimental_stims/objects/insung-yoon-w2JtIQQXoRU-unsplash.jpg,Stimuli/Experimental_stims/objects/art-lasovsky-8XddFc6NkBY-unsplash.jpg,0,NaN,NaN,NaN,chosen,NaN,NaN,NaN,NaN,1200,0,5,4
20,31027,0,21,1,1,1,gain4,no_gain4,F,G,24,1,body_parts,outdoor_scenes,73,100,Stimuli/Experimental_stims/body_parts/clay-banks-LjqARJaJotc-unsplash.jpg,Stimuli/Experimental_stims/outdoor_scenes/ashim-d-silva-S2Q5mdOrrVc-unsplash.jpg,0,NaN,NaN,NaN,unchosen,NaN,NaN,NaN,NaN,1400,0,5,4
21,31027,0,22,1,1,0,no_gain4,gain3,G,L,40,31,objects,body_parts,81,59,Stimuli/Experimental_stims/objects/fabian-blank-pElSkGRA2NU-unsplash.jpg,Stimuli/Experimental_stims/body_parts/sincerely-media-VN6DbKajo5s-unsplash.jpg,0,NaN,NaN,NaN,chosen,NaN,NaN,NaN,NaN,1100,0,5,4
22,31027,0,23,1,1,0,no_gain3,gain5,E,J,42,14,objects,faces,60,69,Stimuli/Experimental_stims/objects/jess-bailey-nOeVi8DsN8U-unsplash.jpg,Stimuli/Experimental_stims/faces/david-siglin-UuW4psOb388-unsplash.jpg,0,NaN,NaN,NaN,unchosen,NaN,NaN,NaN,NaN,1500,0,5,4
23,31027,0,24,1,1,1,gain1,no_gain3,D,E,38,33,objects,body_parts,64,87,Stimuli/Experimental_stims/objects/art-lasovsky-8XddFc6NkBY-unsplash.jpg,Stimuli/Experimental_stims/body_parts/tucker-good-36skLT5jZcc-unsplash.jpg,0,NaN,NaN,NaN,chosen,NaN,NaN,NaN,NaN,1600,0,5,4
24,31027,0,25,1,1,1,gain2,no_gain1,I,K,4,47,outdoor_scenes,objects,100,61,Stimuli/Experimental_stims/outdoor_scenes/jarrett-kow-1ZOyYPOBn7I-unsplash.jpg,Stimuli/Experimental_stims/objects/ronaldo-arthur-vidal-Cdz_lvnl37k-unsplash.jpg,0,NaN,NaN,NaN,unchosen,NaN,NaN,NaN,NaN,3000,1,5,4
25,31027,0,26,1,1,1,gain6,no_gain4,C,G,34,40,body_parts,objects,62,81,Stimuli/Experimental_stims/body_parts/wagner-santos-mBWMvIuVnso-unsplash.jpg,Stimuli/Experimental_stims/objects/fabian-blank-pElSkGRA2NU-unsplash.jpg,0,NaN,NaN,NaN,chosen,NaN,NaN,NaN,NaN,1600,0,5,4
26,31027,0,27,1,1,0,no_gain1,gain1,K,D,47,18,objects,faces,61,73,Stimuli/Experimental_stims/objects/ronaldo-arthur-vidal-Cdz_lvnl37k-unsplash.jpg,Stimuli/Experimental_stims/faces/jessica-radanavong-mrYkTuAesKE-unsplash.jpg,0,NaN,NaN,NaN,unchosen,NaN,NaN,NaN,NaN,2900,0,5,4
27,31027,0,28,1,1,0,no_gain1,gain3,K,L,25,31,body_parts,body_parts,58,59,Stimuli/Experimental_stims/body_parts/engin-akyurt-Q2rfH3GW39c-unsplash.jpg,Stimuli/Experimental_stims/body_parts/sincerely-media-VN6DbKajo5s-unsplash.jpg,0,NaN,NaN,NaN,chosen,NaN,NaN,NaN,NaN,2700,0,5,4
28,31027,0,29,1,1,1,gain5,no_gain3,J,E,45,33,objects,body_parts,67,87,Stimuli/Experimental_stims/objects/leohoho-rngTKHXumy0-unsplash.jpg,Stimuli/Experimental_stims/body_parts/tucker-good-36skLT5jZcc-unsplash.jpg,0,NaN,NaN,NaN,chosen,NaN,NaN,NaN,NaN,1800,0,5,4
29,31027,0,30,1,1,1,gain5,no_gain5,J,H,14,16,faces,faces,69,69,Stimuli/Experimental_stims/faces/david-siglin-UuW4psOb388-unsplash.jpg,Stimuli/Experimental_stims/faces/freddy-kearney-o-ioeoATbIM-unsplash.jpg,0,NaN,NaN,NaN,unchosen,NaN,NaN,NaN,NaN,2300,0,5,4
30,31027,0,31,1,1,0,no_gain1,gain4,K,F,25,13,body_parts,faces,58,77,Stimuli/Experimental_stims/body_parts/engin-akyurt-Q2rfH3GW39c-unsplash.jpg,Stimuli/Experimental_stims/faces/daniel-rigdon-dXmXKPP2L4E-unsplash.jpg,0,NaN,NaN,NaN,chosen,NaN,NaN,NaN,NaN,2000,0,5,4
31,31027,0,32,1,1,1,gain6,no_gain2,C,A,34,41,body_parts,objects,62,71,Stimuli/Experimental_stims/body_parts/wagner-santos-mBWMvIuVnso-unsplash.jpg,Stimuli/Experimental_stims/objects/insung-yoon-w2JtIQQXoRU-unsplash.jpg,0,NaN,NaN,NaN,chosen,NaN,NaN,NaN,NaN,2600,0,5,4
32,31027,0,33,1,1,1,gain4,no_gain3,F,E,24,42,body_parts,objects,73,60,Stimuli/Experimental_stims/body_parts/clay-banks-LjqARJaJotc-unsplash.jpg,Stimuli/Experimental_stims/objects/jess-bailey-nOeVi8DsN8U-unsplash.jpg,0,NaN,NaN,NaN,unchosen,NaN,NaN,NaN,NaN,3500,1,5,4
33,31027,0,34,1,1,1,gain4,no_gain5,F,H,24,16,body_parts,faces,73,69,Stimuli/Experimental_stims/body_parts/clay-banks-LjqARJaJotc-unsplash.jpg,Stimuli/Experimental_stims/faces/freddy-kearney-o-ioeoATbIM-unsplash.jpg,0,NaN,NaN,NaN,unchosen,NaN,NaN,NaN,NaN,1000,0,5,4
34,31027,0,35,1,1,0,no_gain5,gain6,H,C,11,34,outdoor_scenes,body_parts,100,62,Stimuli/Experimental_stims/outdoor_scenes/stephen-leonardi-gyIRjKPXupE-unsplash.jpg,Stimuli/Experimental_stims/body_parts/wagner-santos-mBWMvIuVnso-unsplash.jpg,0,NaN,NaN,NaN,chosen,NaN,NaN,NaN,NaN,1600,0,5,4
35,31027,0,36,1,1,1,gain1,no_gain5,D,H,38,11,objects,outdoor_scenes,64,100,Stimuli/Experimental_stims/objects/art-lasovsky-8XddFc6NkBY-unsplash.jpg,Stimuli/Experimental_stims/outdoor_scenes/stephen-leonardi-gyIRjKPXupE-unsplash.jpg,0,NaN,NaN,NaN,chosen,NaN,NaN,NaN,NaN,1200,0,5,4
36,31027,0,37,1,1,0,no_gain6,gain2,B,I,23,35,faces,body_parts,74,66,Stimuli/Experimental_stims/faces/rikonavt-HQjfrvdTfak-unsplash.jpg,Stimuli/Experimental_stims/body_parts/wc-so-KH4AAPjb-tI-unsplash.jpg,0,NaN,NaN,NaN,chosen,NaN,NaN,NaN,NaN,1500,0,5,4
37,31027,0,38,1,1,1,gain2,no_gain6,I,B,4,7,outdoor_scenes,outdoor_scenes,100,100,Stimuli/Experimental_stims/outdoor_scenes/jarrett-kow-1ZOyYPOBn7I-unsplash.jpg,Stimuli/Experimental_stims/outdoor_scenes/petr-vysohlid-9fqwGqGLUxc-unsplash.jpg,0,NaN,NaN,NaN,unchosen,NaN,NaN,NaN,NaN,4800,1,5,4
38,31027,0,39,1,1,1,gain2,no_gain2,I,A,35,41,body_parts,objects,66,71,Stimuli/Experimental_stims/body_parts/wc-so-KH4AAPjb-tI-unsplash.jpg,Stimuli/Experimental_stims/objects/insung-yoon-w2JtIQQXoRU-unsplash.jpg,0,NaN,NaN,NaN,chosen,NaN,NaN,NaN,NaN,1500,0,5,4
39,31027,0,40,1,1,0,no_gain5,gain1,H,D,16,18,faces,faces,69,73,Stimuli/Experimental_stims/faces/freddy-kearney-o-ioeoATbIM-unsplash.jpg,Stimuli/Experimental_stims/faces/jessica-radanavong-mrYkTuAesKE-unsplash.jpg,0,NaN,NaN,NaN,unchosen,NaN,NaN,NaN,NaN,1700,0,5,4
40,31027,0,41,1,1,0,no_gain4,gain1,G,D,1,18,outdoor_scenes,faces,100,73,Stimuli/Experimental_stims/outdoor_scenes/ashim-d-silva-S2Q5mdOrrVc-unsplash.jpg,Stimuli/Experimental_stims/faces/jessica-radanavong-mrYkTuAesKE-unsplash.jpg,0,NaN,NaN,NaN,unchosen,NaN,NaN,NaN,NaN,1200,0,5,4
41,31027,0,42,1,1,1,gain5,no_gain2,J,A,14,8,faces,outdoor_scenes,69,98,Stimuli/Experimental_stims/faces/david-siglin-UuW4psOb388-unsplash.jpg,Stimuli/Experimental_stims/outdoor_scenes/samsommer-vddccTqwal8-unsplash.jpg,0,NaN,NaN,NaN,unchosen,NaN,NaN,NaN,NaN,1400,0,5,4
42,31027,0,43,1,1,1,gain6,no_gain6,C,B,34,23,body_parts,faces,62,74,Stimuli/Experimental_stims/body_parts/wagner-santos-mBWMvIuVnso-unsplash.jpg,Stimuli/Experimental_stims/faces/rikonavt-HQjfrvdTfak-unsplash.jpg,0,NaN,NaN,NaN,chosen,NaN,NaN,NaN,NaN,1800,0,5,4
43,31027,0,44,1,1,1,gain1,no_gain3,D,E,18,42,faces,objects,73,60,Stimuli/Experimental_stims/faces/jessica-radanavong-mrYkTuAesKE-unsplash.jpg,Stimuli/Experimental_stims/objects/jess-bailey-nOeVi8DsN8U-unsplash.jpg,0,NaN,NaN,NaN,unchosen,NaN,NaN,NaN,NaN,3600,1,5,4
44,31027,0,45,1,1,1,gain2,no_gain5,I,H,35,11,body_parts,outdoor_scenes,66,100,Stimuli/Experimental_stims/body_parts/wc-so-KH4AAPjb-tI-unsplash.jpg,Stimuli/Experimental_stims/outdoor_scenes/stephen-leonardi-gyIRjKPXupE-unsplash.jpg,0,NaN,NaN,NaN,chosen,NaN,NaN,NaN,NaN,1200,0,5,4
45,31027,0,46,1,1,0,no_gain2,gain5,A,J,41,45,objects,objects,71,67,Stimuli/Experimental_stims/objects/insung-yoon-w2JtIQQXoRU-unsplash.jpg,Stimuli/Experimental_stims/objects/leohoho-rngTKHXumy0-unsplash.jpg,0,NaN,NaN,NaN,chosen,NaN,NaN,NaN,NaN,2700,0,5,4
46,31027,0,47,1,1,0,no_gain4,gain3,G,L,1,22,outdoor_scenes,faces,100,73,Stimuli/Experimental_stims/outdoor_scenes/ashim-d-silva-S2Q5mdOrrVc-unsplash.jpg,Stimuli/Experimental_stims/faces/ravi-patel-VMGAbeeJTKo-unsplash.jpg,0,NaN,NaN,NaN,unchosen,NaN,NaN,NaN,NaN,2100,0,5,4
47,31027,0,48,1,1,1,gain6,no_gain4,C,G,3,1,outdoor_scenes,outdoor_scenes,100,100,Stimuli/Experimental_stims/outdoor_scenes/henry-be-NLF6hTe4PAg-unsplash.jpg,Stimuli/Experimental_stims/outdoor_scenes/ashim-d-silva-S2Q5mdOrrVc-unsplash.jpg,0,NaN,NaN,NaN,unchosen,NaN,NaN,NaN,NaN,2500,0,5,4
48,31027,0,49,1,1,1,gain3,no_gain6,L,B,31,23,body_parts,faces,59,74,Stimuli/Experimental_stims/body_parts/sincerely-media-VN6DbKajo5s-unsplash.jpg,Stimuli/Experimental_stims/faces/rikonavt-HQjfrvdTfak-unsplash.jpg,0,NaN,NaN,NaN,chosen,NaN,NaN,NaN,NaN,1500,0,5,4
49,31027,0,50,1,1,1,gain2,no_gain1,I,K,35,25,body_parts,body_parts,66,58,Stimuli/Experimental_stims/body_parts/wc-so-KH4AAPjb-tI-unsplash.jpg,Stimuli/Experimental_stims/body_parts/engin-akyurt-Q2rfH3GW39c-unsplash.jpg,0,NaN,NaN,NaN,chosen,NaN,NaN,NaN,NaN,1300,0,5,4
50,31027,0,51,1,1,1,gain6,no_gain3,C,E,34,33,body_parts,body_parts,62,87,Stimuli/Experimental_stims/body_parts/wagner-santos-mBWMvIuVnso-unsplash.jpg,Stimuli/Experimental_stims/body_parts/tucker-good-36skLT5jZcc-unsplash.jpg,0,NaN,NaN,NaN,chosen,NaN,NaN,NaN,NaN,1000,0,5,4
51,31027,0,52,1,1,1,gain6,no_gain3,C,E,3,42,outdoor_scenes,objects,100,60,Stimuli/Experimental_stims/outdoor_scenes/henry-be-NLF6hTe4PAg-unsplash.jpg,Stimuli/Experimental_stims/objects/jess-bailey-nOeVi8DsN8U-unsplash.jpg,0,NaN,NaN,NaN,unchosen,NaN,NaN,NaN,NaN,1500,0,5,4
52,31027,0,53,1,1,0,no_gain6,gain3,B,L,7,22,outdoor_scenes,faces,100,73,Stimuli/Experimental_stims/outdoor_scenes/petr-vysohlid-9fqwGqGLUxc-unsplash.jpg,Stimuli/Experimental_stims/faces/ravi-patel-VMGAbeeJTKo-unsplash.jpg,0,NaN,NaN,NaN,unchosen,NaN,NaN,NaN,NaN,2200,0,5,4
53,31027,0,54,1,1,1,gain2,no_gain5,I,H,4,16,outdoor_scenes,faces,100,69,Stimuli/Experimental_stims/outdoor_scenes/jarrett-kow-1ZOyYPOBn7I-unsplash.jpg,Stimuli/Experimental_stims/faces/freddy-kearney-o-ioeoATbIM-unsplash.jpg,0,NaN,NaN,NaN,unchosen,NaN,NaN,NaN,NaN,1300,0,5,4
54,31027,0,55,1,1,1,gain4,no_gain6,F,B,13,23,faces,faces,77,74,Stimuli/Experimental_stims/faces/daniel-rigdon-dXmXKPP2L4E-unsplash.jpg,Stimuli/Experimental_stims/faces/rikonavt-HQjfrvdTfak-unsplash.jpg,0,NaN,NaN,NaN,chosen,NaN,NaN,NaN,NaN,3000,1,5,4
55,31027,0,56,1,1,1,gain4,no_gain2,F,A,24,8,body_parts,outdoor_scenes,73,98,Stimuli/Experimental_stims/body_parts/clay-banks-LjqARJaJotc-unsplash.jpg,Stimuli/Experimental_stims/outdoor_scenes/samsommer-vddccTqwal8-unsplash.jpg,0,NaN,NaN,NaN,unchosen,NaN,NaN,NaN,NaN,1400,0,5,4
56,31027,0,57,1,1,1,gain3,no_gain2,L,A,22,8,faces,outdoor_scenes,73,98,Stimuli/Experimental_stims/faces/ravi-patel-VMGAbeeJTKo-unsplash.jpg,Stimuli/Experimental_stims/outdoor_scenes/samsommer-vddccTqwal8-unsplash.jpg,0,NaN,NaN,NaN,unchosen,NaN,NaN,NaN,NaN,1500,0,5,4
57,31027,0,58,1,1,0,no_gain4,gain1,G,D,40,38,objects,objects,81,64,Stimuli/Experimental_stims/objects/fabian-blank-pElSkGRA2NU-unsplash.jpg,Stimuli/Experimental_stims/objects/art-lasovsky-8XddFc6NkBY-unsplash.jpg,0,NaN,NaN,NaN,chosen,NaN,NaN,NaN,NaN,1200,0,5,4
58,31027,0,59,1,1,0,no_gain2,gain2,A,I,8,4,outdoor_scenes,outdoor_scenes,98,100,Stimuli/Experimental_stims/outdoor_scenes/samsommer-vddccTqwal8-unsplash.jpg,Stimuli/Experimental_stims/outdoor_scenes/jarrett-kow-1ZOyYPOBn7I-unsplash.jpg,0,NaN,NaN,NaN,unchosen,NaN,NaN,NaN,NaN,1600,0,5,4
59,31027,0,60,1,1,0,no_gain6,gain1,B,D,23,38,faces,objects,74,64,Stimuli/Experimental_stims/faces/rikonavt-HQjfrvdTfak-unsplash.jpg,Stimuli/Experimental_stims/objects/art-lasovsky-8XddFc6NkBY-unsplash.jpg,0,NaN,NaN,NaN,chosen,NaN,NaN,NaN,NaN,2300,0,5,4
60,31027,0,61,1,1,1,gain2,no_gain3,I,E,4,42,outdoor_scenes,objects,100,60,Stimuli/Experimental_stims/outdoor_scenes/jarrett-kow-1ZOyYPOBn7I-unsplash.jpg,Stimuli/Experimental_stims/objects/jess-bailey-nOeVi8DsN8U-unsplash.jpg,0,NaN,NaN,NaN,unchosen,NaN,NaN,NaN,NaN,1400,0,5,4
61,31027,0,62,1,1,0,no_gain5,gain4,H,F,11,13,outdoor_scenes,faces,100,77,Stimuli/Experimental_stims/outdoor_scenes/stephen-leonardi-gyIRjKPXupE-unsplash.jpg,Stimuli/Experimental_stims/faces/daniel-rigdon-dXmXKPP2L4E-unsplash.jpg,0,NaN,NaN,NaN,chosen,NaN,NaN,NaN,NaN,4400,1,5,4
62,31027,0,63,1,1,1,gain3,no_gain5,L,H,31,11,body_parts,outdoor_scenes,59,100,Stimuli/Experimental_stims/body_parts/sincerely-media-VN6DbKajo5s-unsplash.jpg,Stimuli/Experimental_stims/outdoor_scenes/stephen-leonardi-gyIRjKPXupE-unsplash.jpg,0,NaN,NaN,NaN,chosen,NaN,NaN,NaN,NaN,1900,0,5,4
63,31027,0,64,1,1,0,no_gain6,gain5,B,J,7,14,outdoor_scenes,faces,100,69,Stimuli/Experimental_stims/outdoor_scenes/petr-vysohlid-9fqwGqGLUxc-unsplash.jpg,Stimuli/Experimental_stims/faces/david-siglin-UuW4psOb388-unsplash.jpg,0,NaN,NaN,NaN,unchosen,NaN,NaN,NaN,NaN,2000,0,5,4
64,31027,0,65,1,1,0,no_gain5,gain6,H,C,16,3,faces,outdoor_scenes,69,100,Stimuli/Experimental_stims/faces/freddy-kearney-o-ioeoATbIM-unsplash.jpg,Stimuli/Experimental_stims/outdoor_scenes/henry-be-NLF6hTe4PAg-unsplash.jpg,0,NaN,NaN,NaN,unchosen,NaN,NaN,NaN,NaN,1500,0,5,4
65,31027,0,66,1,1,1,gain5,no_gain6,J,B,45,23,objects,faces,67,74,Stimuli/Experimental_stims/objects/leohoho-rngTKHXumy0-unsplash.jpg,Stimuli/Experimental_stims/faces/rikonavt-HQjfrvdTfak-unsplash.jpg,0,NaN,NaN,NaN,chosen,NaN,NaN,NaN,NaN,1600,0,5,4
66,31027,0,67,1,1,0,no_gain2,gain6,A,C,8,3,outdoor_scenes,outdoor_scenes,98,100,Stimuli/Experimental_stims/outdoor_scenes/samsommer-vddccTqwal8-unsplash.jpg,Stimuli/Experimental_stims/outdoor_scenes/henry-be-NLF6hTe4PAg-unsplash.jpg,0,NaN,NaN,NaN,unchosen,NaN,NaN,NaN,NaN,3000,1,5,4
67,31027,0,68,1,1,0,no_gain1,gain1,K,D,25,38,body_parts,objects,58,64,Stimuli/Experimental_stims/body_parts/engin-akyurt-Q2rfH3GW39c-unsplash.jpg,Stimuli/Experimental_stims/objects/art-lasovsky-8XddFc6NkBY-unsplash.jpg,0,NaN,NaN,NaN,chosen,NaN,NaN,NaN,NaN,1900,0,5,4
68,31027,0,69,1,1,0,no_gain4,gain2,G,I,1,4,outdoor_scenes,outdoor_scenes,100,100,Stimuli/Experimental_stims/outdoor_scenes/ashim-d-silva-S2Q5mdOrrVc-unsplash.jpg,Stimuli/Experimental_stims/outdoor_scenes/jarrett-kow-1ZOyYPOBn7I-unsplash.jpg,0,NaN,NaN,NaN,unchosen,NaN,NaN,NaN,NaN,1100,0,5,4
69,31027,0,70,1,1,1,gain4,no_gain3,F,E,13,33,faces,body_parts,77,87,Stimuli/Experimental_stims/faces/daniel-rigdon-dXmXKPP2L4E-unsplash.jpg,Stimuli/Experimental_stims/body_parts/tucker-good-36skLT5jZcc-unsplash.jpg,0,NaN,NaN,NaN,chosen,NaN,NaN,NaN,NaN,1300,0,5,4
70,31027,0,71,1,1,1,gain6,no_gain1,C,K,34,25,body_parts,body_parts,62,58,Stimuli/Experimental_stims/body_parts/wagner-santos-mBWMvIuVnso-unsplash.jpg,Stimuli/Experimental_stims/body_parts/engin-akyurt-Q2rfH3GW39c-unsplash.jpg,0,NaN,NaN,NaN,chosen,NaN,NaN,NaN,NaN,2600,0,5,4
71,31027,0,72,1,1,0,no_gain5,gain5,H,J,11,45,outdoor_scenes,objects,100,67,Stimuli/Experimental_stims/outdoor_scenes/stephen-leonardi-gyIRjKPXupE-unsplash.jpg,Stimuli/Experimental_stims/objects/leohoho-rngTKHXumy0-unsplash.jpg,0,NaN,NaN,NaN,chosen,NaN,NaN,NaN,NaN,1100,0,5,4
72,31027,0,73,1,1,0,no_gain1,gain5,K,J,47,14,objects,faces,61,69,Stimuli/Experimental_stims/objects/ronaldo-arthur-vidal-Cdz_lvnl37k-unsplash.jpg,Stimuli/Experimental_stims/faces/david-siglin-UuW4psOb388-unsplash.jpg,0,NaN,NaN,NaN,unchosen,NaN,NaN,NaN,NaN,2500,0,5,4
73,31027,0,74,1,1,1,gain4,no_gain4,F,G,13,40,faces,objects,77,81,Stimuli/Experimental_stims/faces/daniel-rigdon-dXmXKPP2L4E-unsplash.jpg,Stimuli/Experimental_stims/objects/fabian-blank-pElSkGRA2NU-unsplash.jpg,0,NaN,NaN,NaN,chosen,NaN,NaN,NaN,NaN,2600,0,5,4
74,31027,0,75,1,1,0,no_gain1,gain5,K,J,25,45,body_parts,objects,58,67,Stimuli/Experimental_stims/body_parts/engin-akyurt-Q2rfH3GW39c-unsplash.jpg,Stimuli/Experimental_stims/objects/leohoho-rngTKHXumy0-unsplash.jpg,0,NaN,NaN,NaN,chosen,NaN,NaN,NaN,NaN,1100,0,5,4
75,31027,0,76,1,1,1,gain3,no_gain5,L,H,22,16,faces,faces,73,69,Stimuli/Experimental_stims/faces/ravi-patel-VMGAbeeJTKo-unsplash.jpg,Stimuli/Experimental_stims/faces/freddy-kearney-o-ioeoATbIM-unsplash.jpg,0,NaN,NaN,NaN,unchosen,NaN,NaN,NaN,NaN,4200,1,5,4
76,31027,0,77,2,2,1,gain4,no_gain6,F,B,24,7,body_parts,outdoor_scenes,73,100,Stimuli/Experimental_stims/body_parts/clay-banks-LjqARJaJotc-unsplash.jpg,Stimuli/Experimental_stims/outdoor_scenes/petr-vysohlid-9fqwGqGLUxc-unsplash.jpg,0,NaN,NaN,NaN,unchosen,NaN,NaN,NaN,NaN,1200,0,8,4
77,31027,0,78,2,2,1,gain4,no_gain3,F,E,24,42,body_parts,objects,73,60,Stimuli/Experimental_stims/body_parts/clay-banks-LjqARJaJotc-unsplash.jpg,Stimuli/Experimental_stims/objects/jess-bailey-nOeVi8DsN8U-unsplash.jpg,0,NaN,NaN,NaN,unchosen,NaN,NaN,NaN,NaN,1400,0,8,4
78,31027,0,79,2,2,1,gain5,no_gain2,J,A,14,8,faces,outdoor_scenes,69,98,Stimuli/Experimental_stims/faces/david-siglin-UuW4psOb388-unsplash.jpg,Stimuli/Experimental_stims/outdoor_scenes/samsommer-vddccTqwal8-unsplash.jpg,0,NaN,NaN,NaN,unchosen,NaN,NaN,NaN,NaN,2800,0,8,4
79,31027,0,80,2,2,0,no_gain3,gain1,E,D,33,38,body_parts,objects,87,64,Stimuli/Experimental_stims/body_parts/tucker-good-36skLT5jZcc-unsplash.jpg,Stimuli/Experimental_stims/objects/art-lasovsky-8XddFc6NkBY-unsplash.jpg,0,NaN,NaN,NaN,chosen,NaN,NaN,NaN,NaN,1700,0,8,4
80,31027,0,81,2,2,0,no_gain5,gain6,H,C,16,3,faces,outdoor_scenes,69,100,Stimuli/Experimental_stims/faces/freddy-kearney-o-ioeoATbIM-unsplash.jpg,Stimuli/Experimental_stims/outdoor_scenes/henry-be-NLF6hTe4PAg-unsplash.jpg,0,NaN,NaN,NaN,unchosen,NaN,NaN,NaN,NaN,3700,1,8,4
81,31027,0,82,2,2,1,gain1,no_gain4,D,G,18,1,faces,outdoor_scenes,73,100,Stimuli/Experimental_stims/faces/jessica-radanavong-mrYkTuAesKE-unsplash.jpg,Stimuli/Experimental_stims/outdoor_scenes/ashim-d-silva-S2Q5mdOrrVc-unsplash.jpg,0,NaN,NaN,NaN,unchosen,NaN,NaN,NaN,NaN,2300,0,8,4
82,31027,0,83,2,2,0,no_gain1,gain1,K,D,25,38,body_parts,objects,58,64,Stimuli/Experimental_stims/body_parts/engin-akyurt-Q2rfH3GW39c-unsplash.jpg,Stimuli/Experimental_stims/objects/art-lasovsky-8XddFc6NkBY-unsplash.jpg,0,NaN,NaN,NaN,chosen,NaN,NaN,NaN,NaN,2900,0,8,4
83,31027,0,84,2,2,0,no_gain3,gain5,E,J,42,14,objects,faces,60,69,Stimuli/Experimental_stims/objects/jess-bailey-nOeVi8DsN8U-unsplash.jpg,Stimuli/Experimental_stims/faces/david-siglin-UuW4psOb388-unsplash.jpg,0,NaN,NaN,NaN,unchosen,NaN,NaN,NaN,NaN,2300,0,8,4
84,31027,0,85,2,2,0,no_gain2,gain1,A,D,41,38,objects,objects,71,64,Stimuli/Experimental_stims/objects/insung-yoon-w2JtIQQXoRU-unsplash.jpg,Stimuli/Experimental_stims/objects/art-lasovsky-8XddFc6NkBY-unsplash.jpg,0,NaN,NaN,NaN,chosen,NaN,NaN,NaN,NaN,1200,0,8,4
85,31027,0,86,2,2,0,no_gain1,gain1,K,D,47,18,objects,faces,61,73,Stimuli/Experimental_stims/objects/ronaldo-arthur-vidal-Cdz_lvnl37k-unsplash.jpg,Stimuli/Experimental_stims/faces/jessica-radanavong-mrYkTuAesKE-unsplash.jpg,0,NaN,NaN,NaN,unchosen,NaN,NaN,NaN,NaN,3100,1,8,4
86,31027,0,87,2,2,0,no_gain2,gain4,A,F,41,13,objects,faces,71,77,Stimuli/Experimental_stims/objects/insung-yoon-w2JtIQQXoRU-unsplash.jpg,Stimuli/Experimental_stims/faces/daniel-rigdon-dXmXKPP2L4E-unsplash.jpg,0,NaN,NaN,NaN,chosen,NaN,NaN,NaN,NaN,1200,0,8,4
87,31027,0,88,2,2,0,no_gain5,gain2,H,I,16,4,faces,outdoor_scenes,69,100,Stimuli/Experimental_stims/faces/freddy-kearney-o-ioeoATbIM-unsplash.jpg,Stimuli/Experimental_stims/outdoor_scenes/jarrett-kow-1ZOyYPOBn7I-unsplash.jpg,0,NaN,NaN,NaN,unchosen,NaN,NaN,NaN,NaN,1900,0,8,4
88,31027,0,89,2,2,1,gain6,no_gain1,C,K,34,25,body_parts,body_parts,62,58,Stimuli/Experimental_stims/body_parts/wagner-santos-mBWMvIuVnso-unsplash.jpg,Stimuli/Experimental_stims/body_parts/engin-akyurt-Q2rfH3GW39c-unsplash.jpg,0,NaN,NaN,NaN,chosen,NaN,NaN,NaN,NaN,2800,0,8,4
89,31027,0,90,2,2,1,gain5,no_gain3,J,E,45,33,objects,body_parts,67,87,Stimuli/Experimental_stims/objects/leohoho-rngTKHXumy0-unsplash.jpg,Stimuli/Experimental_stims/body_parts/tucker-good-36skLT5jZcc-unsplash.jpg,0,NaN,NaN,NaN,chosen,NaN,NaN,NaN,NaN,1200,0,8,4
90,31027,0,91,2,2,1,gain4,no_gain4,F,G,24,1,body_parts,outdoor_scenes,73,100,Stimuli/Experimental_stims/body_parts/clay-banks-LjqARJaJotc-unsplash.jpg,Stimuli/Experimental_stims/outdoor_scenes/ashim-d-silva-S2Q5mdOrrVc-unsplash.jpg,0,NaN,NaN,NaN,unchosen,NaN,NaN,NaN,NaN,3800,1,8,4
91,31027,0,92,2,2,0,no_gain1,gain2,K,I,47,4,objects,outdoor_scenes,61,100,Stimuli/Experimental_stims/objects/ronaldo-arthur-vidal-Cdz_lvnl37k-unsplash.jpg,Stimuli/Experimental_stims/outdoor_scenes/jarrett-kow-1ZOyYPOBn7I-unsplash.jpg,0,NaN,NaN,NaN,unchosen,NaN,NaN,NaN,NaN,1800,0,8,4
92,31027,0,93,2,2,0,no_gain3,gain4,E,F,33,13,body_parts,faces,87,77,Stimuli/Experimental_stims/body_parts/tucker-good-36skLT5jZcc-unsplash.jpg,Stimuli/Experimental_stims/faces/daniel-rigdon-dXmXKPP2L4E-unsplash.jpg,0,NaN,NaN,NaN,chosen,NaN,NaN,NaN,NaN,2300,0,8,4
93,31027,0,94,2,2,1,gain5,no_gain1,J,K,45,25,objects,body_parts,67,58,Stimuli/Experimental_stims/objects/leohoho-rngTKHXumy0-unsplash.jpg,Stimuli/Experimental_stims/body_parts/engin-akyurt-Q2rfH3GW39c-unsplash.jpg,0,NaN,NaN,NaN,chosen,NaN,NaN,NaN,NaN,1400,0,8,4
94,31027,0,95,2,2,0,no_gain5,gain4,H,F,16,24,faces,body_parts,69,73,Stimuli/Experimental_stims/faces/freddy-kearney-o-ioeoATbIM-unsplash.jpg,Stimuli/Experimental_stims/body_parts/clay-banks-LjqARJaJotc-unsplash.jpg,0,NaN,NaN,NaN,unchosen,NaN,NaN,NaN,NaN,1300,0,8,4
95,31027,0,96,2,2,1,gain4,no_gain5,F,H,13,11,faces,outdoor_scenes,77,100,Stimuli/Experimental_stims/faces/daniel-rigdon-dXmXKPP2L4E-unsplash.jpg,Stimuli/Experimental_stims/outdoor_scenes/stephen-leonardi-gyIRjKPXupE-unsplash.jpg,0,NaN,NaN,NaN,chosen,NaN,NaN,NaN,NaN,1700,0,8,4
96,31027,0,97,2,2,1,gain5,no_gain1,J,K,14,47,faces,objects,69,61,Stimuli/Experimental_stims/faces/david-siglin-UuW4psOb388-unsplash.jpg,Stimuli/Experimental_stims/objects/ronaldo-arthur-vidal-Cdz_lvnl37k-unsplash.jpg,0,NaN,NaN,NaN,unchosen,NaN,NaN,NaN,NaN,3100,1,8,4
97,31027,0,98,2,2,1,gain1,no_gain6,D,B,38,23,objects,faces,64,74,Stimuli/Experimental_stims/objects/art-lasovsky-8XddFc6NkBY-unsplash.jpg,Stimuli/Experimental_stims/faces/rikonavt-HQjfrvdTfak-unsplash.jpg,0,NaN,NaN,NaN,chosen,NaN,NaN,NaN,NaN,1300,0,8,4
98,31027,0,99,2,2,0,no_gain2,gain1,A,D,8,18,outdoor_scenes,faces,98,73,Stimuli/Experimental_stims/outdoor_scenes/samsommer-vddccTqwal8-unsplash.jpg,Stimuli/Experimental_stims/faces/jessica-radanavong-mrYkTuAesKE-unsplash.jpg,0,NaN,NaN,NaN,unchosen,NaN,NaN,NaN,NaN,2100,0,8,4
99,31027,0,100,2,2,1,gain2,no_gain3,I,E,35,33,body_parts,body_parts,66,87,Stimuli/Experimental_stims/body_parts/wc-so-KH4AAPjb-tI-unsplash.jpg,Stimuli/Experimental_stims/body_parts/tucker-good-36skLT5jZcc-unsplash.jpg,0,NaN,NaN,NaN,chosen,NaN,NaN,NaN,NaN,1000,0,8,4
100,31027,0,101,2,2,1,gain2,no_gain2,I,A,35,41,body_parts,objects,66,71,Stimuli/Experimental_stims/body_parts/wc-so-KH4AAPjb-tI-unsplash.jpg,Stimuli/Experimental_stims/objects/insung-yoon-w2JtIQQXoRU-unsplash.jpg,0,NaN,NaN,NaN,chosen,NaN,NaN,NaN,NaN,1200,0,8,4
101,31027,0,102,2,2,1,gain3,no_gain1,L,K,31,25,body_parts,body_parts,59,58,Stimuli/Experimental_stims/body_parts/sincerely-media-VN6DbKajo5s-unsplash.jpg,Stimuli/Experimental_stims/body_parts/engin-akyurt-Q2rfH3GW39c-unsplash.jpg,0,NaN,NaN,NaN,chosen,NaN,NaN,NaN,NaN,1700,0,8,4
102,31027,0,103,2,2,0,no_gain5,gain5,H,J,16,14,faces,faces,69,69,Stimuli/Experimental_stims/faces/freddy-kearney-o-ioeoATbIM-unsplash.jpg,Stimuli/Experimental_stims/faces/david-siglin-UuW4psOb388-unsplash.jpg,0,NaN,NaN,NaN,unchosen,NaN,NaN,NaN,NaN,1100,0,8,4
103,31027,0,104,2,2,0,no_gain6,gain5,B,J,23,45,faces,objects,74,67,Stimuli/Experimental_stims/faces/rikonavt-HQjfrvdTfak-unsplash.jpg,Stimuli/Experimental_stims/objects/leohoho-rngTKHXumy0-unsplash.jpg,0,NaN,NaN,NaN,chosen,NaN,NaN,NaN,NaN,1900,0,8,4
104,31027,0,105,2,2,0,no_gain2,gain3,A,L,41,31,objects,body_parts,71,59,Stimuli/Experimental_stims/objects/insung-yoon-w2JtIQQXoRU-unsplash.jpg,Stimuli/Experimental_stims/body_parts/sincerely-media-VN6DbKajo5s-unsplash.jpg,0,NaN,NaN,NaN,chosen,NaN,NaN,NaN,NaN,4100,1,8,4
105,31027,0,106,2,2,0,no_gain1,gain4,K,F,47,24,objects,body_parts,61,73,Stimuli/Experimental_stims/objects/ronaldo-arthur-vidal-Cdz_lvnl37k-unsplash.jpg,Stimuli/Experimental_stims/body_parts/clay-banks-LjqARJaJotc-unsplash.jpg,0,NaN,NaN,NaN,unchosen,NaN,NaN,NaN,NaN,1400,0,8,4
106,31027,0,107,2,2,0,no_gain4,gain2,G,I,1,4,outdoor_scenes,outdoor_scenes,100,100,Stimuli/Experimental_stims/outdoor_scenes/ashim-d-silva-S2Q5mdOrrVc-unsplash.jpg,Stimuli/Experimental_stims/outdoor_scenes/jarrett-kow-1ZOyYPOBn7I-unsplash.jpg,0,NaN,NaN,NaN,unchosen,NaN,NaN,NaN,NaN,2400,0,8,4
107,31027,0,108,2,2,0,no_gain5,gain1,H,D,11,38,outdoor_scenes,objects,100,64,Stimuli/Experimental_stims/outdoor_scenes/stephen-leonardi-gyIRjKPXupE-unsplash.jpg,Stimuli/Experimental_stims/objects/art-lasovsky-8XddFc6NkBY-unsplash.jpg,0,NaN,NaN,NaN,chosen,NaN,NaN,NaN,NaN,1200,0,8,4
108,31027,0,109,2,2,1,gain6,no_gain1,C,K,3,47,outdoor_scenes,objects,100,61,Stimuli/Experimental_stims/outdoor_scenes/henry-be-NLF6hTe4PAg-unsplash.jpg,Stimuli/Experimental_stims/objects/ronaldo-arthur-vidal-Cdz_lvnl37k-unsplash.jpg,0,NaN,NaN,NaN,unchosen,NaN,NaN,NaN,NaN,1500,0,8,4
109,31027,0,110,2,2,1,gain1,no_gain6,D,B,18,7,faces,outdoor_scenes,73,100,Stimuli/Experimental_stims/faces/jessica-radanavong-mrYkTuAesKE-unsplash.jpg,Stimuli/Experimental_stims/outdoor_scenes/petr-vysohlid-9fqwGqGLUxc-unsplash.jpg,0,NaN,NaN,NaN,unchosen,NaN,NaN,NaN,NaN,3200,1,8,4
110,31027,0,111,2,2,0,no_gain5,gain2,H,I,11,35,outdoor_scenes,body_parts,100,66,Stimuli/Experimental_stims/outdoor_scenes/stephen-leonardi-gyIRjKPXupE-unsplash.jpg,Stimuli/Experimental_stims/body_parts/wc-so-KH4AAPjb-tI-unsplash.jpg,0,NaN,NaN,NaN,chosen,NaN,NaN,NaN,NaN,1800,0,8,4
111,31027,0,112,2,2,0,no_gain5,gain1,H,D,16,18,faces,faces,69,73,Stimuli/Experimental_stims/faces/freddy-kearney-o-ioeoATbIM-unsplash.jpg,Stimuli/Experimental_stims/faces/jessica-radanavong-mrYkTuAesKE-unsplash.jpg,0,NaN,NaN,NaN,unchosen,NaN,NaN,NaN,NaN,1100,0,8,4
112,31027,0,113,2,2,1,gain2,no_gain6,I,B,4,7,outdoor_scenes,outdoor_scenes,100,100,Stimuli/Experimental_stims/outdoor_scenes/jarrett-kow-1ZOyYPOBn7I-unsplash.jpg,Stimuli/Experimental_stims/outdoor_scenes/petr-vysohlid-9fqwGqGLUxc-unsplash.jpg,0,NaN,NaN,NaN,unchosen,NaN,NaN,NaN,NaN,1700,0,8,4
113,31027,0,114,2,2,1,gain6,no_gain4,C,G,34,40,body_parts,objects,62,81,Stimuli/Experimental_stims/body_parts/wagner-santos-mBWMvIuVnso-unsplash.jpg,Stimuli/Experimental_stims/objects/fabian-blank-pElSkGRA2NU-unsplash.jpg,0,NaN,NaN,NaN,chosen,NaN,NaN,NaN,NaN,2700,0,8,4
114,31027,0,115,2,2,1,gain6,no_gain3,C,E,3,42,outdoor_scenes,objects,100,60,Stimuli/Experimental_stims/outdoor_scenes/henry-be-NLF6hTe4PAg-unsplash.jpg,Stimuli/Experimental_stims/objects/jess-bailey-nOeVi8DsN8U-unsplash.jpg,0,NaN,NaN,NaN,unchosen,NaN,NaN,NaN,NaN,1100,0,8,4
115,31027,0,116,2,2,0,no_gain6,gain4,B,F,23,13,faces,faces,74,77,Stimuli/Experimental_stims/faces/rikonavt-HQjfrvdTfak-unsplash.jpg,Stimuli/Experimental_stims/faces/daniel-rigdon-dXmXKPP2L4E-unsplash.jpg,0,NaN,NaN,NaN,chosen,NaN,NaN,NaN,NaN,1100,0,8,4
116,31027,0,117,2,2,0,no_gain1,gain3,K,L,47,22,objects,faces,61,73,Stimuli/Experimental_stims/objects/ronaldo-arthur-vidal-Cdz_lvnl37k-unsplash.jpg,Stimuli/Experimental_stims/faces/ravi-patel-VMGAbeeJTKo-unsplash.jpg,0,NaN,NaN,NaN,unchosen,NaN,NaN,NaN,NaN,2400,0,8,4
117,31027,0,118,2,2,1,gain3,no_gain6,L,B,31,23,body_parts,faces,59,74,Stimuli/Experimental_stims/body_parts/sincerely-media-VN6DbKajo5s-unsplash.jpg,Stimuli/Experimental_stims/faces/rikonavt-HQjfrvdTfak-unsplash.jpg,0,NaN,NaN,NaN,chosen,NaN,NaN,NaN,NaN,3400,1,8,4
118,31027,0,119,2,2,1,gain3,no_gain3,L,E,31,33,body_parts,body_parts,59,87,Stimuli/Experimental_stims/body_parts/sincerely-media-VN6DbKajo5s-unsplash.jpg,Stimuli/Experimental_stims/body_parts/tucker-good-36skLT5jZcc-unsplash.jpg,0,NaN,NaN,NaN,chosen,NaN,NaN,NaN,NaN,2000,0,8,4
119,31027,0,120,2,2,0,no_gain6,gain3,B,L,7,22,outdoor_scenes,faces,100,73,Stimuli/Experimental_stims/outdoor_scenes/petr-vysohlid-9fqwGqGLUxc-unsplash.jpg,Stimuli/Experimental_stims/faces/ravi-patel-VMGAbeeJTKo-unsplash.jpg,0,NaN,NaN,NaN,unchosen,NaN,NaN,NaN,NaN,2100,0,8,4
120,31027,0,121,2,2,0,no_gain2,gain6,A,C,8,3,outdoor_scenes,outdoor_scenes,98,100,Stimuli/Experimental_stims/outdoor_scenes/samsommer-vddccTqwal8-unsplash.jpg,Stimuli/Experimental_stims/outdoor_scenes/henry-be-NLF6hTe4PAg-unsplash.jpg,0,NaN,NaN,NaN,unchosen,NaN,NaN,NaN,NaN,2500,0,8,4
121,31027,0,122,2,2,1,gain5,no_gain4,J,G,14,1,faces,outdoor_scenes,69,100,Stimuli/Experimental_stims/faces/david-siglin-UuW4psOb388-unsplash.jpg,Stimuli/Experimental_stims/outdoor_scenes/ashim-d-silva-S2Q5mdOrrVc-unsplash.jpg,0,NaN,NaN,NaN,unchosen,NaN,NaN,NaN,NaN,1600,0,8,4
122,31027,0,123,2,2,1,gain2,no_gain4,I,G,35,40,body_parts,objects,66,81,Stimuli/Experimental_stims/body_parts/wc-so-KH4AAPjb-tI-unsplash.jpg,Stimuli/Experimental_stims/objects/fabian-blank-pElSkGRA2NU-unsplash.jpg,0,NaN,NaN,NaN,chosen,NaN,NaN,NaN,NaN,2400,0,8,4
123,31027,0,124,2,2,1,gain4,no_gain1,F,K,13,25,faces,body_parts,77,58,Stimuli/Experimental_stims/faces/daniel-rigdon-dXmXKPP2L4E-unsplash.jpg,Stimuli/Experimental_stims/body_parts/engin-akyurt-Q2rfH3GW39c-unsplash.jpg,0,NaN,NaN,NaN,chosen,NaN,NaN,NaN,NaN,1300,0,8,4
124,31027,0,125,2,2,1,gain3,no_gain4,L,G,22,1,faces,outdoor_scenes,73,100,Stimuli/Experimental_stims/faces/ravi-patel-VMGAbeeJTKo-unsplash.jpg,Stimuli/Experimental_stims/outdoor_scenes/ashim-d-silva-S2Q5mdOrrVc-unsplash.jpg,0,NaN,NaN,NaN,unchosen,NaN,NaN,NaN,NaN,1900,0,8,4
125,31027,0,126,2,2,1,gain2,no_gain1,I,K,35,25,body_parts,body_parts,66,58,Stimuli/Experimental_stims/body_parts/wc-so-KH4AAPjb-tI-unsplash.jpg,Stimuli/Experimental_stims/body_parts/engin-akyurt-Q2rfH3GW39c-unsplash.jpg,0,NaN,NaN,NaN,chosen,NaN,NaN,NaN,NaN,1600,0,8,4
126,31027,0,127,2,2,0,no_gain2,gain5,A,J,41,45,objects,objects,71,67,Stimuli/Experimental_stims/objects/insung-yoon-w2JtIQQXoRU-unsplash.jpg,Stimuli/Experimental_stims/objects/leohoho-rngTKHXumy0-unsplash.jpg,0,NaN,NaN,NaN,chosen,NaN,NaN,NaN,NaN,1100,0,8,4
127,31027,0,128,2,2,1,gain3,no_gain2,L,A,22,8,faces,outdoor_scenes,73,98,Stimuli/Experimental_stims/faces/ravi-patel-VMGAbeeJTKo-unsplash.jpg,Stimuli/Experimental_stims/outdoor_scenes/samsommer-vddccTqwal8-unsplash.jpg,0,NaN,NaN,NaN,unchosen,NaN,NaN,NaN,NaN,1200,0,8,4
128,31027,0,129,2,2,1,gain3,no_gain3,L,E,22,42,faces,objects,73,60,Stimuli/Experimental_stims/faces/ravi-patel-VMGAbeeJTKo-unsplash.jpg,Stimuli/Experimental_stims/objects/jess-bailey-nOeVi8DsN8U-unsplash.jpg,0,NaN,NaN,NaN,unchosen,NaN,NaN,NaN,NaN,1300,0,8,4
129,31027,0,130,2,2,1,gain4,no_gain4,F,G,13,40,faces,objects,77,81,Stimuli/Experimental_stims/faces/daniel-rigdon-dXmXKPP2L4E-unsplash.jpg,Stimuli/Experimental_stims/objects/fabian-blank-pElSkGRA2NU-unsplash.jpg,0,NaN,NaN,NaN,chosen,NaN,NaN,NaN,NaN,1000,0,8,4
130,31027,0,131,2,2,0,no_gain4,gain1,G,D,40,38,objects,objects,81,64,Stimuli/Experimental_stims/objects/fabian-blank-pElSkGRA2NU-unsplash.jpg,Stimuli/Experimental_stims/objects/art-lasovsky-8XddFc6NkBY-unsplash.jpg,0,NaN,NaN,NaN,chosen,NaN,NaN,NaN,NaN,2900,0,8,4
131,31027,0,132,2,2,0,no_gain2,gain6,A,C,41,34,objects,body_parts,71,62,Stimuli/Experimental_stims/objects/insung-yoon-w2JtIQQXoRU-unsplash.jpg,Stimuli/Experimental_stims/body_parts/wagner-santos-mBWMvIuVnso-unsplash.jpg,0,NaN,NaN,NaN,chosen,NaN,NaN,NaN,NaN,2200,0,8,4
132,31027,0,133,2,2,0,no_gain3,gain2,E,I,42,4,objects,outdoor_scenes,60,100,Stimuli/Experimental_stims/objects/jess-bailey-nOeVi8DsN8U-unsplash.jpg,Stimuli/Experimental_stims/outdoor_scenes/jarrett-kow-1ZOyYPOBn7I-unsplash.jpg,0,NaN,NaN,NaN,unchosen,NaN,NaN,NaN,NaN,3200,1,8,4
133,31027,0,134,2,2,1,gain1,no_gain3,D,E,18,42,faces,objects,73,60,Stimuli/Experimental_stims/faces/jessica-radanavong-mrYkTuAesKE-unsplash.jpg,Stimuli/Experimental_stims/objects/jess-bailey-nOeVi8DsN8U-unsplash.jpg,0,NaN,NaN,NaN,unchosen,NaN,NaN,NaN,NaN,2600,0,8,4
134,31027,0,135,2,2,0,no_gain6,gain6,B,C,7,3,outdoor_scenes,outdoor_scenes,100,100,Stimuli/Experimental_stims/outdoor_scenes/petr-vysohlid-9fqwGqGLUxc-unsplash.jpg,Stimuli/Experimental_stims/outdoor_scenes/henry-be-NLF6hTe4PAg-unsplash.jpg,0,NaN,NaN,NaN,unchosen,NaN,NaN,NaN,NaN,1200,0,8,4
135,31027,0,136,2,2,0,no_gain4,gain3,G,L,40,31,objects,body_parts,81,59,Stimuli/Experimental_stims/objects/fabian-blank-pElSkGRA2NU-unsplash.jpg,Stimuli/Experimental_stims/body_parts/sincerely-media-VN6DbKajo5s-unsplash.jpg,0,NaN,NaN,NaN,chosen,NaN,NaN,NaN,NaN,1100,0,8,4
136,31027,0,137,2,2,1,gain5,no_gain6,J,B,14,7,faces,outdoor_scenes,69,100,Stimuli/Experimental_stims/faces/david-siglin-UuW4psOb388-unsplash.jpg,Stimuli/Experimental_stims/outdoor_scenes/petr-vysohlid-9fqwGqGLUxc-unsplash.jpg,0,NaN,NaN,NaN,unchosen,NaN,NaN,NaN,NaN,2000,0,8,4
137,31027,0,138,2,2,0,no_gain6,gain2,B,I,23,35,faces,body_parts,74,66,Stimuli/Experimental_stims/faces/rikonavt-HQjfrvdTfak-unsplash.jpg,Stimuli/Experimental_stims/body_parts/wc-so-KH4AAPjb-tI-unsplash.jpg,0,NaN,NaN,NaN,chosen,NaN,NaN,NaN,NaN,4100,1,8,4
138,31027,0,139,2,2,0,no_gain2,gain4,A,F,8,24,outdoor_scenes,body_parts,98,73,Stimuli/Experimental_stims/outdoor_scenes/samsommer-vddccTqwal8-unsplash.jpg,Stimuli/Experimental_stims/body_parts/clay-banks-LjqARJaJotc-unsplash.jpg,0,NaN,NaN,NaN,unchosen,NaN,NaN,NaN,NaN,1700,0,8,4
139,31027,0,140,2,2,0,no_gain2,gain2,A,I,8,4,outdoor_scenes,outdoor_scenes,98,100,Stimuli/Experimental_stims/outdoor_scenes/samsommer-vddccTqwal8-unsplash.jpg,Stimuli/Experimental_stims/outdoor_scenes/jarrett-kow-1ZOyYPOBn7I-unsplash.jpg,0,NaN,NaN,NaN,unchosen,NaN,NaN,NaN,NaN,1200,0,8,4
140,31027,0,141,2,2,1,gain6,no_gain3,C,E,34,33,body_parts,body_parts,62,87,Stimuli/Experimental_stims/body_parts/wagner-santos-mBWMvIuVnso-unsplash.jpg,Stimuli/Experimental_stims/body_parts/tucker-good-36skLT5jZcc-unsplash.jpg,0,NaN,NaN,NaN,chosen,NaN,NaN,NaN,NaN,1000,0,8,4
141,31027,0,142,2,2,0,no_gain5,gain5,H,J,11,45,outdoor_scenes,objects,100,67,Stimuli/Experimental_stims/outdoor_scenes/stephen-leonardi-gyIRjKPXupE-unsplash.jpg,Stimuli/Experimental_stims/objects/leohoho-rngTKHXumy0-unsplash.jpg,0,NaN,NaN,NaN,chosen,NaN,NaN,NaN,NaN,1800,0,8,4
142,31027,0,143,2,2,0,no_gain5,gain6,H,C,11,34,outdoor_scenes,body_parts,100,62,Stimuli/Experimental_stims/outdoor_scenes/stephen-leonardi-gyIRjKPXupE-unsplash.jpg,Stimuli/Experimental_stims/body_parts/wagner-santos-mBWMvIuVnso-unsplash.jpg,0,NaN,NaN,NaN,chosen,NaN,NaN,NaN,NaN,3500,1,8,4
143,31027,0,144,2,2,1,gain6,no_gain4,C,G,3,1,outdoor_scenes,outdoor_scenes,100,100,Stimuli/Experimental_stims/outdoor_scenes/henry-be-NLF6hTe4PAg-unsplash.jpg,Stimuli/Experimental_stims/outdoor_scenes/ashim-d-silva-S2Q5mdOrrVc-unsplash.jpg,0,NaN,NaN,NaN,unchosen,NaN,NaN,NaN,NaN,2700,0,8,4
144,31027,0,145,2,2,1,gain6,no_gain6,C,B,34,23,body_parts,faces,62,74,Stimuli/Experimental_stims/body_parts/wagner-santos-mBWMvIuVnso-unsplash.jpg,Stimuli/Experimental_stims/faces/rikonavt-HQjfrvdTfak-unsplash.jpg,0,NaN,NaN,NaN,chosen,NaN,NaN,NaN,NaN,2400,0,8,4
145,31027,0,146,2,2,1,gain3,no_gain5,L,H,22,16,faces,faces,73,69,Stimuli/Experimental_stims/faces/ravi-patel-VMGAbeeJTKo-unsplash.jpg,Stimuli/Experimental_stims/faces/freddy-kearney-o-ioeoATbIM-unsplash.jpg,0,NaN,NaN,NaN,unchosen,NaN,NaN,NaN,NaN,1400,0,8,4
146,31027,0,147,2,2,1,gain5,no_gain4,J,G,45,40,objects,objects,67,81,Stimuli/Experimental_stims/objects/leohoho-rngTKHXumy0-unsplash.jpg,Stimuli/Experimental_stims/objects/fabian-blank-pElSkGRA2NU-unsplash.jpg,0,NaN,NaN,NaN,chosen,NaN,NaN,NaN,NaN,1200,0,8,4
147,31027,0,148,2,2,0,no_gain5,gain3,H,L,11,31,outdoor_scenes,body_parts,100,59,Stimuli/Experimental_stims/outdoor_scenes/stephen-leonardi-gyIRjKPXupE-unsplash.jpg,Stimuli/Experimental_stims/body_parts/sincerely-media-VN6DbKajo5s-unsplash.jpg,0,NaN,NaN,NaN,chosen,NaN,NaN,NaN,NaN,3300,1,8,4
148,31027,0,149,3,3,1,gain5,no_gain3,J,E,45,33,objects,body_parts,67,87,Stimuli/Experimental_stims/objects/leohoho-rngTKHXumy0-unsplash.jpg,Stimuli/Experimental_stims/body_parts/tucker-good-36skLT5jZcc-unsplash.jpg,0,NaN,NaN,NaN,chosen,NaN,NaN,NaN,NaN,3900,1,7,4
149,31027,0,150,3,3,0,no_gain3,gain4,E,F,33,13,body_parts,faces,87,77,Stimuli/Experimental_stims/body_parts/tucker-good-36skLT5jZcc-unsplash.jpg,Stimuli/Experimental_stims/faces/daniel-rigdon-dXmXKPP2L4E-unsplash.jpg,0,NaN,NaN,NaN,chosen,NaN,NaN,NaN,NaN,1200,0,7,4
150,31027,0,151,3,3,1,gain6,no_gain3,C,E,34,33,body_parts,body_parts,62,87,Stimuli/Experimental_stims/body_parts/wagner-santos-mBWMvIuVnso-unsplash.jpg,Stimuli/Experimental_stims/body_parts/tucker-good-36skLT5jZcc-unsplash.jpg,0,NaN,NaN,NaN,chosen,NaN,NaN,NaN,NaN,1500,0,7,4
151,31027,0,152,3,3,1,gain4,no_gain4,F,G,24,1,body_parts,outdoor_scenes,73,100,Stimuli/Experimental_stims/body_parts/clay-banks-LjqARJaJotc-unsplash.jpg,Stimuli/Experimental_stims/outdoor_scenes/ashim-d-silva-S2Q5mdOrrVc-unsplash.jpg,0,NaN,NaN,NaN,unchosen,NaN,NaN,NaN,NaN,2700,0,7,4
152,31027,0,153,3,3,1,gain5,no_gain5,J,H,14,16,faces,faces,69,69,Stimuli/Experimental_stims/faces/david-siglin-UuW4psOb388-unsplash.jpg,Stimuli/Experimental_stims/faces/freddy-kearney-o-ioeoATbIM-unsplash.jpg,0,NaN,NaN,NaN,unchosen,NaN,NaN,NaN,NaN,1300,0,7,4
153,31027,0,154,3,3,0,no_gain6,gain1,B,D,23,38,faces,objects,74,64,Stimuli/Experimental_stims/faces/rikonavt-HQjfrvdTfak-unsplash.jpg,Stimuli/Experimental_stims/objects/art-lasovsky-8XddFc6NkBY-unsplash.jpg,0,NaN,NaN,NaN,chosen,NaN,NaN,NaN,NaN,1000,0,7,4
154,31027,0,155,3,3,1,gain1,no_gain3,D,E,38,33,objects,body_parts,64,87,Stimuli/Experimental_stims/objects/art-lasovsky-8XddFc6NkBY-unsplash.jpg,Stimuli/Experimental_stims/body_parts/tucker-good-36skLT5jZcc-unsplash.jpg,0,NaN,NaN,NaN,chosen,NaN,NaN,NaN,NaN,3000,1,7,4
155,31027,0,156,3,3,0,no_gain2,gain3,A,L,8,22,outdoor_scenes,faces,98,73,Stimuli/Experimental_stims/outdoor_scenes/samsommer-vddccTqwal8-unsplash.jpg,Stimuli/Experimental_stims/faces/ravi-patel-VMGAbeeJTKo-unsplash.jpg,0,NaN,NaN,NaN,unchosen,NaN,NaN,NaN,NaN,2800,0,7,4
156,31027,0,157,3,3,1,gain3,no_gain5,L,H,31,11,body_parts,outdoor_scenes,59,100,Stimuli/Experimental_stims/body_parts/sincerely-media-VN6DbKajo5s-unsplash.jpg,Stimuli/Experimental_stims/outdoor_scenes/stephen-leonardi-gyIRjKPXupE-unsplash.jpg,0,NaN,NaN,NaN,chosen,NaN,NaN,NaN,NaN,1400,0,7,4
157,31027,0,158,3,3,1,gain1,no_gain1,D,K,38,25,objects,body_parts,64,58,Stimuli/Experimental_stims/objects/art-lasovsky-8XddFc6NkBY-unsplash.jpg,Stimuli/Experimental_stims/body_parts/engin-akyurt-Q2rfH3GW39c-unsplash.jpg,0,NaN,NaN,NaN,chosen,NaN,NaN,NaN,NaN,2500,0,7,4
158,31027,0,159,3,3,0,no_gain3,gain2,E,I,42,4,objects,outdoor_scenes,60,100,Stimuli/Experimental_stims/objects/jess-bailey-nOeVi8DsN8U-unsplash.jpg,Stimuli/Experimental_stims/outdoor_scenes/jarrett-kow-1ZOyYPOBn7I-unsplash.jpg,0,NaN,NaN,NaN,unchosen,NaN,NaN,NaN,NaN,1600,0,7,4
159,31027,0,160,3,3,1,gain2,no_gain4,I,G,4,1,outdoor_scenes,outdoor_scenes,100,100,Stimuli/Experimental_stims/outdoor_scenes/jarrett-kow-1ZOyYPOBn7I-unsplash.jpg,Stimuli/Experimental_stims/outdoor_scenes/ashim-d-silva-S2Q5mdOrrVc-unsplash.jpg,0,NaN,NaN,NaN,unchosen,NaN,NaN,NaN,NaN,3600,1,7,4
160,31027,0,161,3,3,0,no_gain4,gain5,G,J,1,14,outdoor_scenes,faces,100,69,Stimuli/Experimental_stims/outdoor_scenes/ashim-d-silva-S2Q5mdOrrVc-unsplash.jpg,Stimuli/Experimental_stims/faces/david-siglin-UuW4psOb388-unsplash.jpg,0,NaN,NaN,NaN,unchosen,NaN,NaN,NaN,NaN,1200,0,7,4
161,31027,0,162,3,3,0,no_gain5,gain4,H,F,11,13,outdoor_scenes,faces,100,77,Stimuli/Experimental_stims/outdoor_scenes/stephen-leonardi-gyIRjKPXupE-unsplash.jpg,Stimuli/Experimental_stims/faces/daniel-rigdon-dXmXKPP2L4E-unsplash.jpg,0,NaN,NaN,NaN,chosen,NaN,NaN,NaN,NaN,1800,0,7,4
162,31027,0,163,3,3,1,gain2,no_gain5,I,H,35,11,body_parts,outdoor_scenes,66,100,Stimuli/Experimental_stims/body_parts/wc-so-KH4AAPjb-tI-unsplash.jpg,Stimuli/Experimental_stims/outdoor_scenes/stephen-leonardi-gyIRjKPXupE-unsplash.jpg,0,NaN,NaN,NaN,chosen,NaN,NaN,NaN,NaN,2800,0,7,4
163,31027,0,164,3,3,1,gain5,no_gain6,J,B,14,7,faces,outdoor_scenes,69,100,Stimuli/Experimental_stims/faces/david-siglin-UuW4psOb388-unsplash.jpg,Stimuli/Experimental_stims/outdoor_scenes/petr-vysohlid-9fqwGqGLUxc-unsplash.jpg,0,NaN,NaN,NaN,unchosen,NaN,NaN,NaN,NaN,2100,0,7,4
164,31027,0,165,3,3,0,no_gain4,gain3,G,L,40,31,objects,body_parts,81,59,Stimuli/Experimental_stims/objects/fabian-blank-pElSkGRA2NU-unsplash.jpg,Stimuli/Experimental_stims/body_parts/sincerely-media-VN6DbKajo5s-unsplash.jpg,0,NaN,NaN,NaN,chosen,NaN,NaN,NaN,NaN,1500,0,7,4
165,31027,0,166,3,3,0,no_gain1,gain5,K,J,25,45,body_parts,objects,58,67,Stimuli/Experimental_stims/body_parts/engin-akyurt-Q2rfH3GW39c-unsplash.jpg,Stimuli/Experimental_stims/objects/leohoho-rngTKHXumy0-unsplash.jpg,0,NaN,NaN,NaN,chosen,NaN,NaN,NaN,NaN,2100,0,7,4
166,31027,0,167,3,3,0,no_gain3,gain2,E,I,33,35,body_parts,body_parts,87,66,Stimuli/Experimental_stims/body_parts/tucker-good-36skLT5jZcc-unsplash.jpg,Stimuli/Experimental_stims/body_parts/wc-so-KH4AAPjb-tI-unsplash.jpg,0,NaN,NaN,NaN,chosen,NaN,NaN,NaN,NaN,3600,1,7,4
167,31027,0,168,3,3,1,gain6,no_gain4,C,G,3,1,outdoor_scenes,outdoor_scenes,100,100,Stimuli/Experimental_stims/outdoor_scenes/henry-be-NLF6hTe4PAg-unsplash.jpg,Stimuli/Experimental_stims/outdoor_scenes/ashim-d-silva-S2Q5mdOrrVc-unsplash.jpg,0,NaN,NaN,NaN,unchosen,NaN,NaN,NaN,NaN,1300,0,7,4
168,31027,0,169,3,3,0,no_gain4,gain2,G,I,40,35,objects,body_parts,81,66,Stimuli/Experimental_stims/objects/fabian-blank-pElSkGRA2NU-unsplash.jpg,Stimuli/Experimental_stims/body_parts/wc-so-KH4AAPjb-tI-unsplash.jpg,0,NaN,NaN,NaN,chosen,NaN,NaN,NaN,NaN,2700,0,7,4
169,31027,0,170,3,3,1,gain1,no_gain4,D,G,18,1,faces,outdoor_scenes,73,100,Stimuli/Experimental_stims/faces/jessica-radanavong-mrYkTuAesKE-unsplash.jpg,Stimuli/Experimental_stims/outdoor_scenes/ashim-d-silva-S2Q5mdOrrVc-unsplash.jpg,0,NaN,NaN,NaN,unchosen,NaN,NaN,NaN,NaN,1400,0,7,4
170,31027,0,171,3,3,0,no_gain2,gain4,A,F,8,24,outdoor_scenes,body_parts,98,73,Stimuli/Experimental_stims/outdoor_scenes/samsommer-vddccTqwal8-unsplash.jpg,Stimuli/Experimental_stims/body_parts/clay-banks-LjqARJaJotc-unsplash.jpg,0,NaN,NaN,NaN,unchosen,NaN,NaN,NaN,NaN,2300,0,7,4
171,31027,0,172,3,3,0,no_gain1,gain1,K,D,47,18,objects,faces,61,73,Stimuli/Experimental_stims/objects/ronaldo-arthur-vidal-Cdz_lvnl37k-unsplash.jpg,Stimuli/Experimental_stims/faces/jessica-radanavong-mrYkTuAesKE-unsplash.jpg,0,NaN,NaN,NaN,unchosen,NaN,NaN,NaN,NaN,3400,1,7,4
172,31027,0,173,3,3,1,gain4,no_gain2,F,A,13,41,faces,objects,77,71,Stimuli/Experimental_stims/faces/daniel-rigdon-dXmXKPP2L4E-unsplash.jpg,Stimuli/Experimental_stims/objects/insung-yoon-w2JtIQQXoRU-unsplash.jpg,0,NaN,NaN,NaN,chosen,NaN,NaN,NaN,NaN,1200,0,7,4
173,31027,0,174,3,3,0,no_gain6,gain6,B,C,7,3,outdoor_scenes,outdoor_scenes,100,100,Stimuli/Experimental_stims/outdoor_scenes/petr-vysohlid-9fqwGqGLUxc-unsplash.jpg,Stimuli/Experimental_stims/outdoor_scenes/henry-be-NLF6hTe4PAg-unsplash.jpg,0,NaN,NaN,NaN,unchosen,NaN,NaN,NaN,NaN,2500,0,7,4
174,31027,0,175,3,3,1,gain3,no_gain3,L,E,31,33,body_parts,body_parts,59,87,Stimuli/Experimental_stims/body_parts/sincerely-media-VN6DbKajo5s-unsplash.jpg,Stimuli/Experimental_stims/body_parts/tucker-good-36skLT5jZcc-unsplash.jpg,0,NaN,NaN,NaN,chosen,NaN,NaN,NaN,NaN,2600,0,7,4
175,31027,0,176,3,3,0,no_gain2,gain6,A,C,8,3,outdoor_scenes,outdoor_scenes,98,100,Stimuli/Experimental_stims/outdoor_scenes/samsommer-vddccTqwal8-unsplash.jpg,Stimuli/Experimental_stims/outdoor_scenes/henry-be-NLF6hTe4PAg-unsplash.jpg,0,NaN,NaN,NaN,unchosen,NaN,NaN,NaN,NaN,2100,0,7,4
176,31027,0,177,3,3,1,gain1,no_gain5,D,H,38,11,objects,outdoor_scenes,64,100,Stimuli/Experimental_stims/objects/art-lasovsky-8XddFc6NkBY-unsplash.jpg,Stimuli/Experimental_stims/outdoor_scenes/stephen-leonardi-gyIRjKPXupE-unsplash.jpg,0,NaN,NaN,NaN,chosen,NaN,NaN,NaN,NaN,3300,1,7,4
177,31027,0,178,3,3,0,no_gain1,gain5,K,J,47,14,objects,faces,61,69,Stimuli/Experimental_stims/objects/ronaldo-arthur-vidal-Cdz_lvnl37k-unsplash.jpg,Stimuli/Experimental_stims/faces/david-siglin-UuW4psOb388-unsplash.jpg,0,NaN,NaN,NaN,unchosen,NaN,NaN,NaN,NaN,1200,0,7,4
178,31027,0,179,3,3,1,gain2,no_gain6,I,B,35,23,body_parts,faces,66,74,Stimuli/Experimental_stims/body_parts/wc-so-KH4AAPjb-tI-unsplash.jpg,Stimuli/Experimental_stims/faces/rikonavt-HQjfrvdTfak-unsplash.jpg,0,NaN,NaN,NaN,chosen,NaN,NaN,NaN,NaN,1500,0,7,4
179,31027,0,180,3,3,1,gain3,no_gain6,L,B,22,7,faces,outdoor_scenes,73,100,Stimuli/Experimental_stims/faces/ravi-patel-VMGAbeeJTKo-unsplash.jpg,Stimuli/Experimental_stims/outdoor_scenes/petr-vysohlid-9fqwGqGLUxc-unsplash.jpg,0,NaN,NaN,NaN,unchosen,NaN,NaN,NaN,NaN,1700,0,7,4
180,31027,0,181,3,3,0,no_gain5,gain1,H,D,16,18,faces,faces,69,73,Stimuli/Experimental_stims/faces/freddy-kearney-o-ioeoATbIM-unsplash.jpg,Stimuli/Experimental_stims/faces/jessica-radanavong-mrYkTuAesKE-unsplash.jpg,0,NaN,NaN,NaN,unchosen,NaN,NaN,NaN,NaN,1500,0,7,4
181,31027,0,182,3,3,1,gain2,no_gain6,I,B,4,7,outdoor_scenes,outdoor_scenes,100,100,Stimuli/Experimental_stims/outdoor_scenes/jarrett-kow-1ZOyYPOBn7I-unsplash.jpg,Stimuli/Experimental_stims/outdoor_scenes/petr-vysohlid-9fqwGqGLUxc-unsplash.jpg,0,NaN,NaN,NaN,unchosen,NaN,NaN,NaN,NaN,1300,0,7,4
182,31027,0,183,3,3,1,gain1,no_gain4,D,G,38,40,objects,objects,64,81,Stimuli/Experimental_stims/objects/art-lasovsky-8XddFc6NkBY-unsplash.jpg,Stimuli/Experimental_stims/objects/fabian-blank-pElSkGRA2NU-unsplash.jpg,0,NaN,NaN,NaN,chosen,NaN,NaN,NaN,NaN,2000,0,7,4
183,31027,0,184,3,3,0,no_gain1,gain6,K,C,47,3,objects,outdoor_scenes,61,100,Stimuli/Experimental_stims/objects/ronaldo-arthur-vidal-Cdz_lvnl37k-unsplash.jpg,Stimuli/Experimental_stims/outdoor_scenes/henry-be-NLF6hTe4PAg-unsplash.jpg,0,NaN,NaN,NaN,unchosen,NaN,NaN,NaN,NaN,1500,0,7,4
184,31027,0,185,3,3,1,gain5,no_gain5,J,H,45,11,objects,outdoor_scenes,67,100,Stimuli/Experimental_stims/objects/leohoho-rngTKHXumy0-unsplash.jpg,Stimuli/Experimental_stims/outdoor_scenes/stephen-leonardi-gyIRjKPXupE-unsplash.jpg,0,NaN,NaN,NaN,chosen,NaN,NaN,NaN,NaN,2200,0,7,4
185,31027,0,186,3,3,1,gain6,no_gain1,C,K,34,25,body_parts,body_parts,62,58,Stimuli/Experimental_stims/body_parts/wagner-santos-mBWMvIuVnso-unsplash.jpg,Stimuli/Experimental_stims/body_parts/engin-akyurt-Q2rfH3GW39c-unsplash.jpg,0,NaN,NaN,NaN,chosen,NaN,NaN,NaN,NaN,1300,0,7,4
186,31027,0,187,3,3,0,no_gain6,gain4,B,F,23,13,faces,faces,74,77,Stimuli/Experimental_stims/faces/rikonavt-HQjfrvdTfak-unsplash.jpg,Stimuli/Experimental_stims/faces/daniel-rigdon-dXmXKPP2L4E-unsplash.jpg,0,NaN,NaN,NaN,chosen,NaN,NaN,NaN,NaN,1000,0,7,4
187,31027,0,188,3,3,1,gain1,no_gain2,D,A,18,8,faces,outdoor_scenes,73,98,Stimuli/Experimental_stims/faces/jessica-radanavong-mrYkTuAesKE-unsplash.jpg,Stimuli/Experimental_stims/outdoor_scenes/samsommer-vddccTqwal8-unsplash.jpg,0,NaN,NaN,NaN,unchosen,NaN,NaN,NaN,NaN,3000,1,7,4
188,31027,0,189,3,3,0,no_gain2,gain5,A,J,8,14,outdoor_scenes,faces,98,69,Stimuli/Experimental_stims/outdoor_scenes/samsommer-vddccTqwal8-unsplash.jpg,Stimuli/Experimental_stims/faces/david-siglin-UuW4psOb388-unsplash.jpg,0,NaN,NaN,NaN,unchosen,NaN,NaN,NaN,NaN,1300,0,7,4
189,31027,0,190,3,3,1,gain1,no_gain3,D,E,18,42,faces,objects,73,60,Stimuli/Experimental_stims/faces/jessica-radanavong-mrYkTuAesKE-unsplash.jpg,Stimuli/Experimental_stims/objects/jess-bailey-nOeVi8DsN8U-unsplash.jpg,0,NaN,NaN,NaN,unchosen,NaN,NaN,NaN,NaN,2200,0,7,4
190,31027,0,191,3,3,0,no_gain1,gain2,K,I,25,35,body_parts,body_parts,58,66,Stimuli/Experimental_stims/body_parts/engin-akyurt-Q2rfH3GW39c-unsplash.jpg,Stimuli/Experimental_stims/body_parts/wc-so-KH4AAPjb-tI-unsplash.jpg,0,NaN,NaN,NaN,chosen,NaN,NaN,NaN,NaN,1100,0,7,4
191,31027,0,192,3,3,0,no_gain3,gain5,E,J,42,14,objects,faces,60,69,Stimuli/Experimental_stims/objects/jess-bailey-nOeVi8DsN8U-unsplash.jpg,Stimuli/Experimental_stims/faces/david-siglin-UuW4psOb388-unsplash.jpg,0,NaN,NaN,NaN,unchosen,NaN,NaN,NaN,NaN,2100,0,7,4
192,31027,0,193,3,3,0,no_gain2,gain6,A,C,41,34,objects,body_parts,71,62,Stimuli/Experimental_stims/objects/insung-yoon-w2JtIQQXoRU-unsplash.jpg,Stimuli/Experimental_stims/body_parts/wagner-santos-mBWMvIuVnso-unsplash.jpg,0,NaN,NaN,NaN,chosen,NaN,NaN,NaN,NaN,2300,0,7,4
193,31027,0,194,3,3,0,no_gain4,gain5,G,J,40,45,objects,objects,81,67,Stimuli/Experimental_stims/objects/fabian-blank-pElSkGRA2NU-unsplash.jpg,Stimuli/Experimental_stims/objects/leohoho-rngTKHXumy0-unsplash.jpg,0,NaN,NaN,NaN,chosen,NaN,NaN,NaN,NaN,3900,1,7,4
194,31027,0,195,3,3,0,no_gain4,gain6,G,C,40,34,objects,body_parts,81,62,Stimuli/Experimental_stims/objects/fabian-blank-pElSkGRA2NU-unsplash.jpg,Stimuli/Experimental_stims/body_parts/wagner-santos-mBWMvIuVnso-unsplash.jpg,0,NaN,NaN,NaN,chosen,NaN,NaN,NaN,NaN,1700,0,7,4
195,31027,0,196,3,3,1,gain4,no_gain3,F,E,24,42,body_parts,objects,73,60,Stimuli/Experimental_stims/body_parts/clay-banks-LjqARJaJotc-unsplash.jpg,Stimuli/Experimental_stims/objects/jess-bailey-nOeVi8DsN8U-unsplash.jpg,0,NaN,NaN,NaN,unchosen,NaN,NaN,NaN,NaN,1200,0,7,4
196,31027,0,197,3,3,0,no_gain1,gain4,K,F,47,24,objects,body_parts,61,73,Stimuli/Experimental_stims/objects/ronaldo-arthur-vidal-Cdz_lvnl37k-unsplash.jpg,Stimuli/Experimental_stims/body_parts/clay-banks-LjqARJaJotc-unsplash.jpg,0,NaN,NaN,NaN,unchosen,NaN,NaN,NaN,NaN,1200,0,7,4
197,31027,0,198,3,3,1,gain2,no_gain2,I,A,4,8,outdoor_scenes,outdoor_scenes,100,98,Stimuli/Experimental_stims/outdoor_scenes/jarrett-kow-1ZOyYPOBn7I-unsplash.jpg,Stimuli/Experimental_stims/outdoor_scenes/samsommer-vddccTqwal8-unsplash.jpg,0,NaN,NaN,NaN,unchosen,NaN,NaN,NaN,NaN,1900,0,7,4
198,31027,0,199,3,3,0,no_gain6,gain3,B,L,23,31,faces,body_parts,74,59,Stimuli/Experimental_stims/faces/rikonavt-HQjfrvdTfak-unsplash.jpg,Stimuli/Experimental_stims/body_parts/sincerely-media-VN6DbKajo5s-unsplash.jpg,0,NaN,NaN,NaN,chosen,NaN,NaN,NaN,NaN,1000,0,7,4
199,31027,0,200,3,3,0,no_gain4,gain4,G,F,40,13,objects,faces,81,77,Stimuli/Experimental_stims/objects/fabian-blank-pElSkGRA2NU-unsplash.jpg,Stimuli/Experimental_stims/faces/daniel-rigdon-dXmXKPP2L4E-unsplash.jpg,0,NaN,NaN,NaN,chosen,NaN,NaN,NaN,NaN,3900,1,7,4
200,31027,0,201,3,3,0,no_gain6,gain5,B,J,23,45,faces,objects,74,67,Stimuli/Experimental_stims/faces/rikonavt-HQjfrvdTfak-unsplash.jpg,Stimuli/Experimental_stims/objects/leohoho-rngTKHXumy0-unsplash.jpg,0,NaN,NaN,NaN,chosen,NaN,NaN,NaN,NaN,2100,0,7,4
201,31027,0,202,3,3,1,gain6,no_gain5,C,H,3,16,outdoor_scenes,faces,100,69,Stimuli/Experimental_stims/outdoor_scenes/henry-be-NLF6hTe4PAg-unsplash.jpg,Stimuli/Experimental_stims/faces/freddy-kearney-o-ioeoATbIM-unsplash.jpg,0,NaN,NaN,NaN,unchosen,NaN,NaN,NaN,NaN,1300,0,7,4
202,31027,0,203,3,3,0,no_gain2,gain5,A,J,41,45,objects,objects,71,67,Stimuli/Experimental_stims/objects/insung-yoon-w2JtIQQXoRU-unsplash.jpg,Stimuli/Experimental_stims/objects/leohoho-rngTKHXumy0-unsplash.jpg,0,NaN,NaN,NaN,chosen,NaN,NaN,NaN,NaN,1800,0,7,4
203,31027,0,204,3,3,1,gain4,no_gain1,F,K,13,25,faces,body_parts,77,58,Stimuli/Experimental_stims/faces/daniel-rigdon-dXmXKPP2L4E-unsplash.jpg,Stimuli/Experimental_stims/body_parts/engin-akyurt-Q2rfH3GW39c-unsplash.jpg,0,NaN,NaN,NaN,chosen,NaN,NaN,NaN,NaN,1900,0,7,4
204,31027,0,205,3,3,1,gain6,no_gain3,C,E,3,42,outdoor_scenes,objects,100,60,Stimuli/Experimental_stims/outdoor_scenes/henry-be-NLF6hTe4PAg-unsplash.jpg,Stimuli/Experimental_stims/objects/jess-bailey-nOeVi8DsN8U-unsplash.jpg,0,NaN,NaN,NaN,unchosen,NaN,NaN,NaN,NaN,2600,0,7,4
205,31027,0,206,3,3,1,gain4,no_gain6,F,B,24,7,body_parts,outdoor_scenes,73,100,Stimuli/Experimental_stims/body_parts/clay-banks-LjqARJaJotc-unsplash.jpg,Stimuli/Experimental_stims/outdoor_scenes/petr-vysohlid-9fqwGqGLUxc-unsplash.jpg,0,NaN,NaN,NaN,unchosen,NaN,NaN,NaN,NaN,2400,0,7,4
206,31027,0,207,3,3,0,no_gain5,gain4,H,F,16,24,faces,body_parts,69,73,Stimuli/Experimental_stims/faces/freddy-kearney-o-ioeoATbIM-unsplash.jpg,Stimuli/Experimental_stims/body_parts/clay-banks-LjqARJaJotc-unsplash.jpg,0,NaN,NaN,NaN,unchosen,NaN,NaN,NaN,NaN,2500,0,7,4
207,31027,0,208,3,3,0,no_gain5,gain6,H,C,11,34,outdoor_scenes,body_parts,100,62,Stimuli/Experimental_stims/outdoor_scenes/stephen-leonardi-gyIRjKPXupE-unsplash.jpg,Stimuli/Experimental_stims/body_parts/wagner-santos-mBWMvIuVnso-unsplash.jpg,0,NaN,NaN,NaN,chosen,NaN,NaN,NaN,NaN,2900,1,7,4
208,31027,0,209,3,3,0,no_gain4,gain3,G,L,1,22,outdoor_scenes,faces,100,73,Stimuli/Experimental_stims/outdoor_scenes/ashim-d-silva-S2Q5mdOrrVc-unsplash.jpg,Stimuli/Experimental_stims/faces/ravi-patel-VMGAbeeJTKo-unsplash.jpg,0,NaN,NaN,NaN,unchosen,NaN,NaN,NaN,NaN,1000,0,7,4
209,31027,0,210,3,3,0,no_gain1,gain3,K,L,25,31,body_parts,body_parts,58,59,Stimuli/Experimental_stims/body_parts/engin-akyurt-Q2rfH3GW39c-unsplash.jpg,Stimuli/Experimental_stims/body_parts/sincerely-media-VN6DbKajo5s-unsplash.jpg,0,NaN,NaN,NaN,chosen,NaN,NaN,NaN,NaN,1500,0,7,4
210,31027,0,211,3,3,1,gain3,no_gain3,L,E,22,42,faces,objects,73,60,Stimuli/Experimental_stims/faces/ravi-patel-VMGAbeeJTKo-unsplash.jpg,Stimuli/Experimental_stims/objects/jess-bailey-nOeVi8DsN8U-unsplash.jpg,0,NaN,NaN,NaN,unchosen,NaN,NaN,NaN,NaN,2000,0,7,4
211,31027,0,212,3,3,1,gain1,no_gain6,D,B,18,7,faces,outdoor_scenes,73,100,Stimuli/Experimental_stims/faces/jessica-radanavong-mrYkTuAesKE-unsplash.jpg,Stimuli/Experimental_stims/outdoor_scenes/petr-vysohlid-9fqwGqGLUxc-unsplash.jpg,0,NaN,NaN,NaN,unchosen,NaN,NaN,NaN,NaN,1400,0,7,4
212,31027,0,213,3,3,0,no_gain5,gain2,H,I,16,4,faces,outdoor_scenes,69,100,Stimuli/Experimental_stims/faces/freddy-kearney-o-ioeoATbIM-unsplash.jpg,Stimuli/Experimental_stims/outdoor_scenes/jarrett-kow-1ZOyYPOBn7I-unsplash.jpg,0,NaN,NaN,NaN,unchosen,NaN,NaN,NaN,NaN,1800,0,7,4
213,31027,0,214,3,3,1,gain6,no_gain6,C,B,34,23,body_parts,faces,62,74,Stimuli/Experimental_stims/body_parts/wagner-santos-mBWMvIuVnso-unsplash.jpg,Stimuli/Experimental_stims/faces/rikonavt-HQjfrvdTfak-unsplash.jpg,0,NaN,NaN,NaN,chosen,NaN,NaN,NaN,NaN,2500,0,7,4
214,31027,0,215,3,3,1,gain1,no_gain2,D,A,38,41,objects,objects,64,71,Stimuli/Experimental_stims/objects/art-lasovsky-8XddFc6NkBY-unsplash.jpg,Stimuli/Experimental_stims/objects/insung-yoon-w2JtIQQXoRU-unsplash.jpg,0,NaN,NaN,NaN,chosen,NaN,NaN,NaN,NaN,1600,0,7,4
215,31027,0,216,3,3,0,no_gain1,gain2,K,I,47,4,objects,outdoor_scenes,61,100,Stimuli/Experimental_stims/objects/ronaldo-arthur-vidal-Cdz_lvnl37k-unsplash.jpg,Stimuli/Experimental_stims/outdoor_scenes/jarrett-kow-1ZOyYPOBn7I-unsplash.jpg,0,NaN,NaN,NaN,unchosen,NaN,NaN,NaN,NaN,3700,1,7,4
216,31027,0,217,3,3,0,no_gain5,gain3,H,L,16,22,faces,faces,69,73,Stimuli/Experimental_stims/faces/freddy-kearney-o-ioeoATbIM-unsplash.jpg,Stimuli/Experimental_stims/faces/ravi-patel-VMGAbeeJTKo-unsplash.jpg,0,NaN,NaN,NaN,unchosen,NaN,NaN,NaN,NaN,1200,0,7,4
217,31027,0,218,3,3,1,gain3,no_gain2,L,A,31,41,body_parts,objects,59,71,Stimuli/Experimental_stims/body_parts/sincerely-media-VN6DbKajo5s-unsplash.jpg,Stimuli/Experimental_stims/objects/insung-yoon-w2JtIQQXoRU-unsplash.jpg,0,NaN,NaN,NaN,chosen,NaN,NaN,NaN,NaN,1200,0,7,4
218,31027,0,219,3,3,1,gain3,no_gain1,L,K,22,47,faces,objects,73,61,Stimuli/Experimental_stims/faces/ravi-patel-VMGAbeeJTKo-unsplash.jpg,Stimuli/Experimental_stims/objects/ronaldo-arthur-vidal-Cdz_lvnl37k-unsplash.jpg,0,NaN,NaN,NaN,unchosen,NaN,NaN,NaN,NaN,1100,0,7,4
219,31027,0,220,3,3,1,gain2,no_gain2,I,A,35,41,body_parts,objects,66,71,Stimuli/Experimental_stims/body_parts/wc-so-KH4AAPjb-tI-unsplash.jpg,Stimuli/Experimental_stims/objects/insung-yoon-w2JtIQQXoRU-unsplash.jpg,0,NaN,NaN,NaN,chosen,NaN,NaN,NaN,NaN,1100,0,7,4
220,31027,0,221,4,4,1,gain4,no_gain1,F,K,24,47,body_parts,objects,73,61,Stimuli/Experimental_stims/body_parts/clay-banks-LjqARJaJotc-unsplash.jpg,Stimuli/Experimental_stims/objects/ronaldo-arthur-vidal-Cdz_lvnl37k-unsplash.jpg,0,NaN,NaN,NaN,unchosen,NaN,NaN,NaN,NaN,4000,1,8,4
221,31027,0,222,4,4,0,no_gain1,gain5,K,J,25,45,body_parts,objects,58,67,Stimuli/Experimental_stims/body_parts/engin-akyurt-Q2rfH3GW39c-unsplash.jpg,Stimuli/Experimental_stims/objects/leohoho-rngTKHXumy0-unsplash.jpg,0,NaN,NaN,NaN,chosen,NaN,NaN,NaN,NaN,1900,0,8,4
222,31027,0,223,4,4,1,gain2,no_gain1,I,K,35,25,body_parts,body_parts,66,58,Stimuli/Experimental_stims/body_parts/wc-so-KH4AAPjb-tI-unsplash.jpg,Stimuli/Experimental_stims/body_parts/engin-akyurt-Q2rfH3GW39c-unsplash.jpg,0,NaN,NaN,NaN,chosen,NaN,NaN,NaN,NaN,1200,0,8,4
223,31027,0,224,4,4,1,gain4,no_gain6,F,B,24,7,body_parts,outdoor_scenes,73,100,Stimuli/Experimental_stims/body_parts/clay-banks-LjqARJaJotc-unsplash.jpg,Stimuli/Experimental_stims/outdoor_scenes/petr-vysohlid-9fqwGqGLUxc-unsplash.jpg,0,NaN,NaN,NaN,unchosen,NaN,NaN,NaN,NaN,1200,0,8,4
224,31027,0,225,4,4,1,gain4,no_gain3,F,E,24,42,body_parts,objects,73,60,Stimuli/Experimental_stims/body_parts/clay-banks-LjqARJaJotc-unsplash.jpg,Stimuli/Experimental_stims/objects/jess-bailey-nOeVi8DsN8U-unsplash.jpg,0,NaN,NaN,NaN,unchosen,NaN,NaN,NaN,NaN,2900,0,8,4
225,31027,0,226,4,4,1,gain2,no_gain3,I,E,4,42,outdoor_scenes,objects,100,60,Stimuli/Experimental_stims/outdoor_scenes/jarrett-kow-1ZOyYPOBn7I-unsplash.jpg,Stimuli/Experimental_stims/objects/jess-bailey-nOeVi8DsN8U-unsplash.jpg,0,NaN,NaN,NaN,unchosen,NaN,NaN,NaN,NaN,1800,0,8,4
226,31027,0,227,4,4,1,gain1,no_gain3,D,E,38,33,objects,body_parts,64,87,Stimuli/Experimental_stims/objects/art-lasovsky-8XddFc6NkBY-unsplash.jpg,Stimuli/Experimental_stims/body_parts/tucker-good-36skLT5jZcc-unsplash.jpg,0,NaN,NaN,NaN,chosen,NaN,NaN,NaN,NaN,4700,1,8,4
227,31027,0,228,4,4,0,no_gain2,gain5,A,J,41,45,objects,objects,71,67,Stimuli/Experimental_stims/objects/insung-yoon-w2JtIQQXoRU-unsplash.jpg,Stimuli/Experimental_stims/objects/leohoho-rngTKHXumy0-unsplash.jpg,0,NaN,NaN,NaN,chosen,NaN,NaN,NaN,NaN,2800,0,8,4
228,31027,0,229,4,4,1,gain5,no_gain1,J,K,14,47,faces,objects,69,61,Stimuli/Experimental_stims/faces/david-siglin-UuW4psOb388-unsplash.jpg,Stimuli/Experimental_stims/objects/ronaldo-arthur-vidal-Cdz_lvnl37k-unsplash.jpg,0,NaN,NaN,NaN,unchosen,NaN,NaN,NaN,NaN,1100,0,8,4
229,31027,0,230,4,4,0,no_gain4,gain5,G,J,40,45,objects,objects,81,67,Stimuli/Experimental_stims/objects/fabian-blank-pElSkGRA2NU-unsplash.jpg,Stimuli/Experimental_stims/objects/leohoho-rngTKHXumy0-unsplash.jpg,0,NaN,NaN,NaN,chosen,NaN,NaN,NaN,NaN,2200,0,8,4
230,31027,0,231,4,4,0,no_gain1,gain6,K,C,47,3,objects,outdoor_scenes,61,100,Stimuli/Experimental_stims/objects/ronaldo-arthur-vidal-Cdz_lvnl37k-unsplash.jpg,Stimuli/Experimental_stims/outdoor_scenes/henry-be-NLF6hTe4PAg-unsplash.jpg,0,NaN,NaN,NaN,unchosen,NaN,NaN,NaN,NaN,2000,0,8,4
231,31027,0,232,4,4,1,gain3,no_gain5,L,H,22,16,faces,faces,73,69,Stimuli/Experimental_stims/faces/ravi-patel-VMGAbeeJTKo-unsplash.jpg,Stimuli/Experimental_stims/faces/freddy-kearney-o-ioeoATbIM-unsplash.jpg,0,NaN,NaN,NaN,unchosen,NaN,NaN,NaN,NaN,1100,0,8,4
232,31027,0,233,4,4,0,no_gain6,gain1,B,D,7,18,outdoor_scenes,faces,100,73,Stimuli/Experimental_stims/outdoor_scenes/petr-vysohlid-9fqwGqGLUxc-unsplash.jpg,Stimuli/Experimental_stims/faces/jessica-radanavong-mrYkTuAesKE-unsplash.jpg,0,NaN,NaN,NaN,unchosen,NaN,NaN,NaN,NaN,3000,1,8,4
233,31027,0,234,4,4,1,gain3,no_gain5,L,H,31,11,body_parts,outdoor_scenes,59,100,Stimuli/Experimental_stims/body_parts/sincerely-media-VN6DbKajo5s-unsplash.jpg,Stimuli/Experimental_stims/outdoor_scenes/stephen-leonardi-gyIRjKPXupE-unsplash.jpg,0,NaN,NaN,NaN,chosen,NaN,NaN,NaN,NaN,1800,0,8,4
234,31027,0,235,4,4,0,no_gain3,gain1,E,D,42,18,objects,faces,60,73,Stimuli/Experimental_stims/objects/jess-bailey-nOeVi8DsN8U-unsplash.jpg,Stimuli/Experimental_stims/faces/jessica-radanavong-mrYkTuAesKE-unsplash.jpg,0,NaN,NaN,NaN,unchosen,NaN,NaN,NaN,NaN,1700,0,8,4
235,31027,0,236,4,4,0,no_gain2,gain5,A,J,8,14,outdoor_scenes,faces,98,69,Stimuli/Experimental_stims/outdoor_scenes/samsommer-vddccTqwal8-unsplash.jpg,Stimuli/Experimental_stims/faces/david-siglin-UuW4psOb388-unsplash.jpg,0,NaN,NaN,NaN,unchosen,NaN,NaN,NaN,NaN,1500,0,8,4
236,31027,0,237,4,4,0,no_gain2,gain1,A,D,8,18,outdoor_scenes,faces,98,73,Stimuli/Experimental_stims/outdoor_scenes/samsommer-vddccTqwal8-unsplash.jpg,Stimuli/Experimental_stims/faces/jessica-radanavong-mrYkTuAesKE-unsplash.jpg,0,NaN,NaN,NaN,unchosen,NaN,NaN,NaN,NaN,1400,0,8,4
237,31027,0,238,4,4,1,gain6,no_gain2,C,A,34,41,body_parts,objects,62,71,Stimuli/Experimental_stims/body_parts/wagner-santos-mBWMvIuVnso-unsplash.jpg,Stimuli/Experimental_stims/objects/insung-yoon-w2JtIQQXoRU-unsplash.jpg,0,NaN,NaN,NaN,chosen,NaN,NaN,NaN,NaN,3000,1,8,4
238,31027,0,239,4,4,1,gain4,no_gain2,F,A,24,8,body_parts,outdoor_scenes,73,98,Stimuli/Experimental_stims/body_parts/clay-banks-LjqARJaJotc-unsplash.jpg,Stimuli/Experimental_stims/outdoor_scenes/samsommer-vddccTqwal8-unsplash.jpg,0,NaN,NaN,NaN,unchosen,NaN,NaN,NaN,NaN,1000,0,8,4
239,31027,0,240,4,4,0,no_gain1,gain2,K,I,47,4,objects,outdoor_scenes,61,100,Stimuli/Experimental_stims/objects/ronaldo-arthur-vidal-Cdz_lvnl37k-unsplash.jpg,Stimuli/Experimental_stims/outdoor_scenes/jarrett-kow-1ZOyYPOBn7I-unsplash.jpg,0,NaN,NaN,NaN,unchosen,NaN,NaN,NaN,NaN,1100,0,8,4
240,31027,0,241,4,4,0,no_gain4,gain3,G,L,1,22,outdoor_scenes,faces,100,73,Stimuli/Experimental_stims/outdoor_scenes/ashim-d-silva-S2Q5mdOrrVc-unsplash.jpg,Stimuli/Experimental_stims/faces/ravi-patel-VMGAbeeJTKo-unsplash.jpg,0,NaN,NaN,NaN,unchosen,NaN,NaN,NaN,NaN,1600,0,8,4
241,31027,0,242,4,4,0,no_gain5,gain4,H,F,11,13,outdoor_scenes,faces,100,77,Stimuli/Experimental_stims/outdoor_scenes/stephen-leonardi-gyIRjKPXupE-unsplash.jpg,Stimuli/Experimental_stims/faces/daniel-rigdon-dXmXKPP2L4E-unsplash.jpg,0,NaN,NaN,NaN,chosen,NaN,NaN,NaN,NaN,1100,0,8,4
242,31027,0,243,4,4,1,gain6,no_gain6,C,B,3,7,outdoor_scenes,outdoor_scenes,100,100,Stimuli/Experimental_stims/outdoor_scenes/henry-be-NLF6hTe4PAg-unsplash.jpg,Stimuli/Experimental_stims/outdoor_scenes/petr-vysohlid-9fqwGqGLUxc-unsplash.jpg,0,NaN,NaN,NaN,unchosen,NaN,NaN,NaN,NaN,1100,0,8,4
243,31027,0,244,4,4,1,gain3,no_gain2,L,A,31,41,body_parts,objects,59,71,Stimuli/Experimental_stims/body_parts/sincerely-media-VN6DbKajo5s-unsplash.jpg,Stimuli/Experimental_stims/objects/insung-yoon-w2JtIQQXoRU-unsplash.jpg,0,NaN,NaN,NaN,chosen,NaN,NaN,NaN,NaN,1800,0,8,4
244,31027,0,245,4,4,0,no_gain1,gain1,K,D,25,38,body_parts,objects,58,64,Stimuli/Experimental_stims/body_parts/engin-akyurt-Q2rfH3GW39c-unsplash.jpg,Stimuli/Experimental_stims/objects/art-lasovsky-8XddFc6NkBY-unsplash.jpg,0,NaN,NaN,NaN,chosen,NaN,NaN,NaN,NaN,1400,0,8,4
245,31027,0,246,4,4,0,no_gain4,gain5,G,J,1,14,outdoor_scenes,faces,100,69,Stimuli/Experimental_stims/outdoor_scenes/ashim-d-silva-S2Q5mdOrrVc-unsplash.jpg,Stimuli/Experimental_stims/faces/david-siglin-UuW4psOb388-unsplash.jpg,0,NaN,NaN,NaN,unchosen,NaN,NaN,NaN,NaN,1600,0,8,4
246,31027,0,247,4,4,1,gain2,no_gain2,I,A,35,41,body_parts,objects,66,71,Stimuli/Experimental_stims/body_parts/wc-so-KH4AAPjb-tI-unsplash.jpg,Stimuli/Experimental_stims/objects/insung-yoon-w2JtIQQXoRU-unsplash.jpg,0,NaN,NaN,NaN,chosen,NaN,NaN,NaN,NaN,2000,0,8,4
247,31027,0,248,4,4,0,no_gain1,gain3,K,L,47,22,objects,faces,61,73,Stimuli/Experimental_stims/objects/ronaldo-arthur-vidal-Cdz_lvnl37k-unsplash.jpg,Stimuli/Experimental_stims/faces/ravi-patel-VMGAbeeJTKo-unsplash.jpg,0,NaN,NaN,NaN,unchosen,NaN,NaN,NaN,NaN,2200,0,8,4
248,31027,0,249,4,4,0,no_gain4,gain2,G,I,40,35,objects,body_parts,81,66,Stimuli/Experimental_stims/objects/fabian-blank-pElSkGRA2NU-unsplash.jpg,Stimuli/Experimental_stims/body_parts/wc-so-KH4AAPjb-tI-unsplash.jpg,0,NaN,NaN,NaN,chosen,NaN,NaN,NaN,NaN,2100,0,8,4
249,31027,0,250,4,4,0,no_gain3,gain2,E,I,33,35,body_parts,body_parts,87,66,Stimuli/Experimental_stims/body_parts/tucker-good-36skLT5jZcc-unsplash.jpg,Stimuli/Experimental_stims/body_parts/wc-so-KH4AAPjb-tI-unsplash.jpg,0,NaN,NaN,NaN,chosen,NaN,NaN,NaN,NaN,2900,0,8,4
250,31027,0,251,4,4,0,no_gain6,gain5,B,J,7,14,outdoor_scenes,faces,100,69,Stimuli/Experimental_stims/outdoor_scenes/petr-vysohlid-9fqwGqGLUxc-unsplash.jpg,Stimuli/Experimental_stims/faces/david-siglin-UuW4psOb388-unsplash.jpg,0,NaN,NaN,NaN,unchosen,NaN,NaN,NaN,NaN,1600,0,8,4
251,31027,0,252,4,4,1,gain3,no_gain4,L,G,31,40,body_parts,objects,59,81,Stimuli/Experimental_stims/body_parts/sincerely-media-VN6DbKajo5s-unsplash.jpg,Stimuli/Experimental_stims/objects/fabian-blank-pElSkGRA2NU-unsplash.jpg,0,NaN,NaN,NaN,chosen,NaN,NaN,NaN,NaN,1600,0,8,4
252,31027,0,253,4,4,0,no_gain1,gain1,K,D,47,18,objects,faces,61,73,Stimuli/Experimental_stims/objects/ronaldo-arthur-vidal-Cdz_lvnl37k-unsplash.jpg,Stimuli/Experimental_stims/faces/jessica-radanavong-mrYkTuAesKE-unsplash.jpg,0,NaN,NaN,NaN,unchosen,NaN,NaN,NaN,NaN,4900,1,8,4
253,31027,0,254,4,4,0,no_gain5,gain1,H,D,16,18,faces,faces,69,73,Stimuli/Experimental_stims/faces/freddy-kearney-o-ioeoATbIM-unsplash.jpg,Stimuli/Experimental_stims/faces/jessica-radanavong-mrYkTuAesKE-unsplash.jpg,0,NaN,NaN,NaN,unchosen,NaN,NaN,NaN,NaN,2600,0,8,4
254,31027,0,255,4,4,1,gain5,no_gain5,J,H,45,11,objects,outdoor_scenes,67,100,Stimuli/Experimental_stims/objects/leohoho-rngTKHXumy0-unsplash.jpg,Stimuli/Experimental_stims/outdoor_scenes/stephen-leonardi-gyIRjKPXupE-unsplash.jpg,0,NaN,NaN,NaN,chosen,NaN,NaN,NaN,NaN,1800,0,8,4
255,31027,0,256,4,4,0,no_gain1,gain3,K,L,25,31,body_parts,body_parts,58,59,Stimuli/Experimental_stims/body_parts/engin-akyurt-Q2rfH3GW39c-unsplash.jpg,Stimuli/Experimental_stims/body_parts/sincerely-media-VN6DbKajo5s-unsplash.jpg,0,NaN,NaN,NaN,chosen,NaN,NaN,NaN,NaN,1500,0,8,4
256,31027,0,257,4,4,1,gain5,no_gain3,J,E,45,33,objects,body_parts,67,87,Stimuli/Experimental_stims/objects/leohoho-rngTKHXumy0-unsplash.jpg,Stimuli/Experimental_stims/body_parts/tucker-good-36skLT5jZcc-unsplash.jpg,0,NaN,NaN,NaN,chosen,NaN,NaN,NaN,NaN,1700,0,8,4
257,31027,0,258,4,4,1,gain2,no_gain4,I,G,4,1,outdoor_scenes,outdoor_scenes,100,100,Stimuli/Experimental_stims/outdoor_scenes/jarrett-kow-1ZOyYPOBn7I-unsplash.jpg,Stimuli/Experimental_stims/outdoor_scenes/ashim-d-silva-S2Q5mdOrrVc-unsplash.jpg,0,NaN,NaN,NaN,unchosen,NaN,NaN,NaN,NaN,3200,1,8,4
258,31027,0,259,4,4,1,gain3,no_gain3,L,E,31,33,body_parts,body_parts,59,87,Stimuli/Experimental_stims/body_parts/sincerely-media-VN6DbKajo5s-unsplash.jpg,Stimuli/Experimental_stims/body_parts/tucker-good-36skLT5jZcc-unsplash.jpg,0,NaN,NaN,NaN,chosen,NaN,NaN,NaN,NaN,2100,0,8,4
259,31027,0,260,4,4,0,no_gain6,gain1,B,D,23,38,faces,objects,74,64,Stimuli/Experimental_stims/faces/rikonavt-HQjfrvdTfak-unsplash.jpg,Stimuli/Experimental_stims/objects/art-lasovsky-8XddFc6NkBY-unsplash.jpg,0,NaN,NaN,NaN,chosen,NaN,NaN,NaN,NaN,1600,0,8,4
260,31027,0,261,4,4,0,no_gain2,gain3,A,L,8,22,outdoor_scenes,faces,98,73,Stimuli/Experimental_stims/outdoor_scenes/samsommer-vddccTqwal8-unsplash.jpg,Stimuli/Experimental_stims/faces/ravi-patel-VMGAbeeJTKo-unsplash.jpg,0,NaN,NaN,NaN,unchosen,NaN,NaN,NaN,NaN,1700,0,8,4
261,31027,0,262,4,4,0,no_gain4,gain4,G,F,40,13,objects,faces,81,77,Stimuli/Experimental_stims/objects/fabian-blank-pElSkGRA2NU-unsplash.jpg,Stimuli/Experimental_stims/faces/daniel-rigdon-dXmXKPP2L4E-unsplash.jpg,0,NaN,NaN,NaN,chosen,NaN,NaN,NaN,NaN,1300,0,8,4
262,31027,0,263,4,4,1,gain6,no_gain1,C,K,34,25,body_parts,body_parts,62,58,Stimuli/Experimental_stims/body_parts/wagner-santos-mBWMvIuVnso-unsplash.jpg,Stimuli/Experimental_stims/body_parts/engin-akyurt-Q2rfH3GW39c-unsplash.jpg,0,NaN,NaN,NaN,chosen,NaN,NaN,NaN,NaN,3700,1,8,4
263,31027,0,264,4,4,1,gain1,no_gain4,D,G,18,1,faces,outdoor_scenes,73,100,Stimuli/Experimental_stims/faces/jessica-radanavong-mrYkTuAesKE-unsplash.jpg,Stimuli/Experimental_stims/outdoor_scenes/ashim-d-silva-S2Q5mdOrrVc-unsplash.jpg,0,NaN,NaN,NaN,unchosen,NaN,NaN,NaN,NaN,1500,0,8,4
264,31027,0,265,4,4,1,gain4,no_gain1,F,K,13,25,faces,body_parts,77,58,Stimuli/Experimental_stims/faces/daniel-rigdon-dXmXKPP2L4E-unsplash.jpg,Stimuli/Experimental_stims/body_parts/engin-akyurt-Q2rfH3GW39c-unsplash.jpg,0,NaN,NaN,NaN,chosen,NaN,NaN,NaN,NaN,1500,0,8,4
265,31027,0,266,4,4,1,gain2,no_gain5,I,H,4,16,outdoor_scenes,faces,100,69,Stimuli/Experimental_stims/outdoor_scenes/jarrett-kow-1ZOyYPOBn7I-unsplash.jpg,Stimuli/Experimental_stims/faces/freddy-kearney-o-ioeoATbIM-unsplash.jpg,0,NaN,NaN,NaN,unchosen,NaN,NaN,NaN,NaN,1400,0,8,4
266,31027,0,267,4,4,0,no_gain2,gain4,A,F,41,13,objects,faces,71,77,Stimuli/Experimental_stims/objects/insung-yoon-w2JtIQQXoRU-unsplash.jpg,Stimuli/Experimental_stims/faces/daniel-rigdon-dXmXKPP2L4E-unsplash.jpg,0,NaN,NaN,NaN,chosen,NaN,NaN,NaN,NaN,1700,0,8,4
267,31027,0,268,4,4,0,no_gain4,gain6,G,C,40,34,objects,body_parts,81,62,Stimuli/Experimental_stims/objects/fabian-blank-pElSkGRA2NU-unsplash.jpg,Stimuli/Experimental_stims/body_parts/wagner-santos-mBWMvIuVnso-unsplash.jpg,0,NaN,NaN,NaN,chosen,NaN,NaN,NaN,NaN,2500,0,8,4
268,31027,0,269,4,4,0,no_gain6,gain6,B,C,23,34,faces,body_parts,74,62,Stimuli/Experimental_stims/faces/rikonavt-HQjfrvdTfak-unsplash.jpg,Stimuli/Experimental_stims/body_parts/wagner-santos-mBWMvIuVnso-unsplash.jpg,0,NaN,NaN,NaN,chosen,NaN,NaN,NaN,NaN,1800,0,8,4
269,31027,0,270,4,4,0,no_gain2,gain6,A,C,8,3,outdoor_scenes,outdoor_scenes,98,100,Stimuli/Experimental_stims/outdoor_scenes/samsommer-vddccTqwal8-unsplash.jpg,Stimuli/Experimental_stims/outdoor_scenes/henry-be-NLF6hTe4PAg-unsplash.jpg,0,NaN,NaN,NaN,unchosen,NaN,NaN,NaN,NaN,2200,0,8,4
270,31027,0,271,4,4,0,no_gain5,gain6,H,C,16,3,faces,outdoor_scenes,69,100,Stimuli/Experimental_stims/faces/freddy-kearney-o-ioeoATbIM-unsplash.jpg,Stimuli/Experimental_stims/outdoor_scenes/henry-be-NLF6hTe4PAg-unsplash.jpg,0,NaN,NaN,NaN,unchosen,NaN,NaN,NaN,NaN,1400,0,8,4
271,31027,0,272,4,4,1,gain3,no_gain6,L,B,31,23,body_parts,faces,59,74,Stimuli/Experimental_stims/body_parts/sincerely-media-VN6DbKajo5s-unsplash.jpg,Stimuli/Experimental_stims/faces/rikonavt-HQjfrvdTfak-unsplash.jpg,0,NaN,NaN,NaN,chosen,NaN,NaN,NaN,NaN,4200,1,8,4
272,31027,0,273,4,4,1,gain5,no_gain5,J,H,14,16,faces,faces,69,69,Stimuli/Experimental_stims/faces/david-siglin-UuW4psOb388-unsplash.jpg,Stimuli/Experimental_stims/faces/freddy-kearney-o-ioeoATbIM-unsplash.jpg,0,NaN,NaN,NaN,unchosen,NaN,NaN,NaN,NaN,2400,0,8,4
273,31027,0,274,4,4,0,no_gain4,gain6,G,C,1,3,outdoor_scenes,outdoor_scenes,100,100,Stimuli/Experimental_stims/outdoor_scenes/ashim-d-silva-S2Q5mdOrrVc-unsplash.jpg,Stimuli/Experimental_stims/outdoor_scenes/henry-be-NLF6hTe4PAg-unsplash.jpg,0,NaN,NaN,NaN,unchosen,NaN,NaN,NaN,NaN,1100,0,8,4
274,31027,0,275,4,4,0,no_gain2,gain1,A,D,41,38,objects,objects,71,64,Stimuli/Experimental_stims/objects/insung-yoon-w2JtIQQXoRU-unsplash.jpg,Stimuli/Experimental_stims/objects/art-lasovsky-8XddFc6NkBY-unsplash.jpg,0,NaN,NaN,NaN,chosen,NaN,NaN,NaN,NaN,1400,0,8,4
275,31027,0,276,4,4,0,no_gain3,gain3,E,L,42,22,objects,faces,60,73,Stimuli/Experimental_stims/objects/jess-bailey-nOeVi8DsN8U-unsplash.jpg,Stimuli/Experimental_stims/faces/ravi-patel-VMGAbeeJTKo-unsplash.jpg,0,NaN,NaN,NaN,unchosen,NaN,NaN,NaN,NaN,1400,0,8,4
276,31027,0,277,4,4,1,gain5,no_gain6,J,B,45,23,objects,faces,67,74,Stimuli/Experimental_stims/objects/leohoho-rngTKHXumy0-unsplash.jpg,Stimuli/Experimental_stims/faces/rikonavt-HQjfrvdTfak-unsplash.jpg,0,NaN,NaN,NaN,chosen,NaN,NaN,NaN,NaN,1000,0,8,4
277,31027,0,278,4,4,1,gain1,no_gain5,D,H,38,11,objects,outdoor_scenes,64,100,Stimuli/Experimental_stims/objects/art-lasovsky-8XddFc6NkBY-unsplash.jpg,Stimuli/Experimental_stims/outdoor_scenes/stephen-leonardi-gyIRjKPXupE-unsplash.jpg,0,NaN,NaN,NaN,chosen,NaN,NaN,NaN,NaN,1900,0,8,4
278,31027,0,279,4,4,1,gain2,no_gain6,I,B,4,7,outdoor_scenes,outdoor_scenes,100,100,Stimuli/Experimental_stims/outdoor_scenes/jarrett-kow-1ZOyYPOBn7I-unsplash.jpg,Stimuli/Experimental_stims/outdoor_scenes/petr-vysohlid-9fqwGqGLUxc-unsplash.jpg,0,NaN,NaN,NaN,unchosen,NaN,NaN,NaN,NaN,2100,0,8,4
279,31027,0,280,4,4,1,gain2,no_gain2,I,A,4,8,outdoor_scenes,outdoor_scenes,100,98,Stimuli/Experimental_stims/outdoor_scenes/jarrett-kow-1ZOyYPOBn7I-unsplash.jpg,Stimuli/Experimental_stims/outdoor_scenes/samsommer-vddccTqwal8-unsplash.jpg,0,NaN,NaN,NaN,unchosen,NaN,NaN,NaN,NaN,1100,0,8,4
280,31027,0,281,4,4,1,gain3,no_gain6,L,B,22,7,faces,outdoor_scenes,73,100,Stimuli/Experimental_stims/faces/ravi-patel-VMGAbeeJTKo-unsplash.jpg,Stimuli/Experimental_stims/outdoor_scenes/petr-vysohlid-9fqwGqGLUxc-unsplash.jpg,0,NaN,NaN,NaN,unchosen,NaN,NaN,NaN,NaN,3800,1,8,4
281,31027,0,282,4,4,0,no_gain6,gain2,B,I,23,35,faces,body_parts,74,66,Stimuli/Experimental_stims/faces/rikonavt-HQjfrvdTfak-unsplash.jpg,Stimuli/Experimental_stims/body_parts/wc-so-KH4AAPjb-tI-unsplash.jpg,0,NaN,NaN,NaN,chosen,NaN,NaN,NaN,NaN,1200,0,8,4
282,31027,0,283,4,4,0,no_gain3,gain4,E,F,33,13,body_parts,faces,87,77,Stimuli/Experimental_stims/body_parts/tucker-good-36skLT5jZcc-unsplash.jpg,Stimuli/Experimental_stims/faces/daniel-rigdon-dXmXKPP2L4E-unsplash.jpg,0,NaN,NaN,NaN,chosen,NaN,NaN,NaN,NaN,2500,0,8,4
283,31027,0,284,4,4,0,no_gain6,gain4,B,F,23,13,faces,faces,74,77,Stimuli/Experimental_stims/faces/rikonavt-HQjfrvdTfak-unsplash.jpg,Stimuli/Experimental_stims/faces/daniel-rigdon-dXmXKPP2L4E-unsplash.jpg,0,NaN,NaN,NaN,chosen,NaN,NaN,NaN,NaN,1200,0,8,4
284,31027,0,285,4,4,1,gain4,no_gain5,F,H,24,16,body_parts,faces,73,69,Stimuli/Experimental_stims/body_parts/clay-banks-LjqARJaJotc-unsplash.jpg,Stimuli/Experimental_stims/faces/freddy-kearney-o-ioeoATbIM-unsplash.jpg,0,NaN,NaN,NaN,unchosen,NaN,NaN,NaN,NaN,1600,0,8,4
285,31027,0,286,4,4,1,gain6,no_gain5,C,H,34,11,body_parts,outdoor_scenes,62,100,Stimuli/Experimental_stims/body_parts/wagner-santos-mBWMvIuVnso-unsplash.jpg,Stimuli/Experimental_stims/outdoor_scenes/stephen-leonardi-gyIRjKPXupE-unsplash.jpg,0,NaN,NaN,NaN,chosen,NaN,NaN,NaN,NaN,1900,0,8,4
286,31027,0,287,4,4,1,gain2,no_gain5,I,H,35,11,body_parts,outdoor_scenes,66,100,Stimuli/Experimental_stims/body_parts/wc-so-KH4AAPjb-tI-unsplash.jpg,Stimuli/Experimental_stims/outdoor_scenes/stephen-leonardi-gyIRjKPXupE-unsplash.jpg,0,NaN,NaN,NaN,chosen,NaN,NaN,NaN,NaN,1000,0,8,4
287,31027,0,288,4,4,1,gain6,no_gain3,C,E,3,42,outdoor_scenes,objects,100,60,Stimuli/Experimental_stims/outdoor_scenes/henry-be-NLF6hTe4PAg-unsplash.jpg,Stimuli/Experimental_stims/objects/jess-bailey-nOeVi8DsN8U-unsplash.jpg,0,NaN,NaN,NaN,unchosen,NaN,NaN,NaN,NaN,5000,1,8,4
288,31027,0,289,4,4,0,no_gain4,gain1,G,D,40,38,objects,objects,81,64,Stimuli/Experimental_stims/objects/fabian-blank-pElSkGRA2NU-unsplash.jpg,Stimuli/Experimental_stims/objects/art-lasovsky-8XddFc6NkBY-unsplash.jpg,0,NaN,NaN,NaN,chosen,NaN,NaN,NaN,NaN,2400,0,8,4
289,31027,0,290,4,4,0,no_gain3,gain5,E,J,42,14,objects,faces,60,69,Stimuli/Experimental_stims/objects/jess-bailey-nOeVi8DsN8U-unsplash.jpg,Stimuli/Experimental_stims/faces/david-siglin-UuW4psOb388-unsplash.jpg,0,NaN,NaN,NaN,unchosen,NaN,NaN,NaN,NaN,1500,0,8,4
290,31027,0,291,4,4,1,gain6,no_gain3,C,E,34,33,body_parts,body_parts,62,87,Stimuli/Experimental_stims/body_parts/wagner-santos-mBWMvIuVnso-unsplash.jpg,Stimuli/Experimental_stims/body_parts/tucker-good-36skLT5jZcc-unsplash.jpg,0,NaN,NaN,NaN,chosen,NaN,NaN,NaN,NaN,1500,0,8,4
291,31027,0,292,4,4,1,gain4,no_gain4,F,G,24,1,body_parts,outdoor_scenes,73,100,Stimuli/Experimental_stims/body_parts/clay-banks-LjqARJaJotc-unsplash.jpg,Stimuli/Experimental_stims/outdoor_scenes/ashim-d-silva-S2Q5mdOrrVc-unsplash.jpg,0,NaN,NaN,NaN,unchosen,NaN,NaN,NaN,NaN,1300,0,8,4