,PID,practice,trial,block,run,gain_left,left_item_id,right_item_id,left_pair_id,right_pair_id,left_stimulus,right_stimulus,left_category,right_category,left_rating,right_rating,left_path,right_path,no_response,left_chosen,rt,higher_outcome_chosen,choice_type,chosen_stimulus,unchosen_stimulus,chosen_category,unchosen_category,iti,long_iti,simulation,version
0,87740,1,1,0,0,0,,,,,,,,,,,Stimuli/Practice_stims/Final_decisions/debby-hudson-FmCSSSGge-0-unsplash.jpg,Stimuli/Practice_stims/Final_decisions/yassine-khalfalli-adsQ9d_Cx0c-unsplash.jpg,0,1,967,0,,,,,,3000,0,6,1
1,87740,1,2,0,0,0,,,,,,,,,,,Stimuli/Practice_stims/Final_decisions/florian-wehde-iVW7mZPwd4g-unsplash.jpg,Stimuli/Practice_stims/Final_decisions/patrick-perkins-3wylDrjxH-E-unsplash.jpg,0,1,215,0,,,,,,1500,0,6,1
2,87740,1,3,0,0,0,,,,,,,,,,,Stimuli/Practice_stims/Final_decisions/debby-hudson-FmCSSSGge-0-unsplash.jpg,Stimuli/Practice_stims/Final_decisions/florian-wehde-iVW7mZPwd4g-unsplash.jpg,0,1,205,0,,,,,,2000,0,6,1
3,87740,1,4,0,0,0,,,,,,,,,,,Stimuli/Practice_stims/Final_decisions/yassine-khalfalli-adsQ9d_Cx0c-unsplash.jpg,Stimuli/Practice_stims/Final_decisions/debby-hudson-FmCSSSGge-0-unsplash.jpg,0,0,94,1,,,,,,1000,0,6,1
4,87740,0,5,1,1,0,no_gain4,gain5,F,H,26,14,body_parts,faces,78,59,Stimuli/Experimental_stims/body_parts/engin-akyurt-x_3gyC42btc-unsplash.jpg,Stimuli/Experimental_stims/faces/david-siglin-UuW4psOb388-unsplash.jpg,1,NaN,,NaN,chosen,NaN,NaN,NaN,NaN,1800,0,6,1
5,87740,0,6,1,1,1,gain3,no_gain6,E,J,25,19,body_parts,faces,77,83,Stimuli/Experimental_stims/body_parts/engin-akyurt-Q2rfH3GW39c-unsplash.jpg,Stimuli/Experimental_stims/faces/joel-mott-LaK153ghdig-unsplash.jpg,0,1,46,1,chosen,25,19,body_parts,faces,1700,0,6,1
6,87740,0,7,1,1,1,gain6,no_gain3,B,C,13,29,faces,body_parts,63,82,Stimuli/Experimental_stims/faces/daniel-rigdon-dXmXKPP2L4E-unsplash.jpg,Stimuli/Experimental_stims/body_parts/manuel-schinner-ZwjFuJ7ebpk-unsplash.jpg,0,1,178,1,unchosen,13,29,faces,body_parts,2300,0,6,1
7,87740,0,8,1,1,0,no_gain2,gain3,A,E,9,25,outdoor_scenes,body_parts,84,77,Stimuli/Experimental_stims/outdoor_scenes/sergey-pesterev-y-b_FOmJXdg-unsplash.jpg,Stimuli/Experimental_stims/body_parts/engin-akyurt-Q2rfH3GW39c-unsplash.jpg,0,1,411,0,chosen,9,25,outdoor_scenes,body_parts,1700,0,6,1
8,87740,0,9,1,1,1,gain4,no_gain5,K,D,35,18,body_parts,faces,90,66,Stimuli/Experimental_stims/body_parts/wc-so-KH4AAPjb-tI-unsplash.jpg,Stimuli/Experimental_stims/faces/jessica-radanavong-mrYkTuAesKE-unsplash.jpg,0,1,214,1,unchosen,35,18,body_parts,faces,3900,1,6,1
9,87740,0,10,1,1,1,gain2,no_gain5,L,D,30,18,body_parts,faces,76,66,Stimuli/Experimental_stims/body_parts/mika-korhonen-Xodzxosar18-unsplash.jpg,Stimuli/Experimental_stims/faces/jessica-radanavong-mrYkTuAesKE-unsplash.jpg,0,0,625,0,unchosen,18,30,faces,body_parts,1200,0,6,1
10,87740,0,11,1,1,1,gain2,no_gain5,L,D,22,37,faces,objects,79,81,Stimuli/Experimental_stims/faces/ravi-patel-VMGAbeeJTKo-unsplash.jpg,Stimuli/Experimental_stims/objects/alexander-andrews-VLGWE_SumrA-unsplash.jpg,0,1,1475,1,chosen,22,37,faces,objects,1200,0,6,1
11,87740,0,12,1,1,0,no_gain5,gain5,D,H,37,14,objects,faces,81,59,Stimuli/Experimental_stims/objects/alexander-andrews-VLGWE_SumrA-unsplash.jpg,Stimuli/Experimental_stims/faces/david-siglin-UuW4psOb388-unsplash.jpg,0,0,833,1,chosen,14,37,faces,objects,2600,0,6,1
12,87740,0,13,1,1,0,no_gain1,gain4,I,K,31,35,body_parts,body_parts,72,90,Stimuli/Experimental_stims/body_parts/sincerely-media-VN6DbKajo5s-unsplash.jpg,Stimuli/Experimental_stims/body_parts/wc-so-KH4AAPjb-tI-unsplash.jpg,1,NaN,,NaN,unchosen,NaN,NaN,NaN,NaN,2200,0,6,1
13,87740,0,14,1,1,1,gain4,no_gain6,K,J,42,19,objects,faces,58,83,Stimuli/Experimental_stims/objects/jess-bailey-nOeVi8DsN8U-unsplash.jpg,Stimuli/Experimental_stims/faces/joel-mott-LaK153ghdig-unsplash.jpg,0,0,211,0,chosen,19,42,faces,objects,1700,0,6,1
14,87740,0,15,1,1,1,gain4,no_gain4,K,F,42,26,objects,body_parts,58,78,Stimuli/Experimental_stims/objects/jess-bailey-nOeVi8DsN8U-unsplash.jpg,Stimuli/Experimental_stims/body_parts/engin-akyurt-x_3gyC42btc-unsplash.jpg,0,1,403,1,chosen,42,26,objects,body_parts,3100,1,6,1
15,87740,0,16,1,1,1,gain2,no_gain1,L,I,30,31,body_parts,body_parts,76,72,Stimuli/Experimental_stims/body_parts/mika-korhonen-Xodzxosar18-unsplash.jpg,Stimuli/Experimental_stims/body_parts/sincerely-media-VN6DbKajo5s-unsplash.jpg,0,1,196,1,unchosen,30,31,body_parts,body_parts,2100,0,6,1
16,87740,0,17,1,1,0,no_gain2,gain5,A,H,9,14,outdoor_scenes,faces,84,59,Stimuli/Experimental_stims/outdoor_scenes/sergey-pesterev-y-b_FOmJXdg-unsplash.jpg,Stimuli/Experimental_stims/faces/david-siglin-UuW4psOb388-unsplash.jpg,0,1,434,0,chosen,9,14,outdoor_scenes,faces,1900,0,6,1
17,87740,0,18,1,1,0,no_gain1,gain5,I,H,2,14,outdoor_scenes,faces,99,59,Stimuli/Experimental_stims/outdoor_scenes/bruno-van-der-kraan-qez8mNJ3ilU-unsplash.jpg,Stimuli/Experimental_stims/faces/david-siglin-UuW4psOb388-unsplash.jpg,0,1,242,0,chosen,2,14,outdoor_scenes,faces,1400,0,6,1
18,87740,0,19,1,1,1,gain3,no_gain5,E,D,25,37,body_parts,objects,77,81,Stimuli/Experimental_stims/body_parts/engin-akyurt-Q2rfH3GW39c-unsplash.jpg,Stimuli/Experimental_stims/objects/alexander-andrews-VLGWE_SumrA-unsplash.jpg,0,1,547,1,chosen,25,37,body_parts,objects,1500,0,6,1
19,87740,0,20,1,1,0,no_gain4,gain2,F,L,16,30,faces,body_parts,66,76,Stimuli/Experimental_stims/faces/freddy-kearney-o-ioeoATbIM-unsplash.jpg,Stimuli/Experimental_stims/body_parts/mika-korhonen-Xodzxosar18-unsplash.jpg,0,0,25,1,unchosen,30,16,body_parts,faces,1600,0,6,1
20,87740,0,21,1,1,0,no_gain1,gain3,I,E,2,25,outdoor_scenes,body_parts,99,77,Stimuli/Experimental_stims/outdoor_scenes/bruno-van-der-kraan-qez8mNJ3ilU-unsplash.jpg,Stimuli/Experimental_stims/body_parts/engin-akyurt-Q2rfH3GW39c-unsplash.jpg,0,0,713,1,chosen,25,2,body_parts,outdoor_scenes,3200,1,6,1
21,87740,0,22,1,1,1,gain5,no_gain5,H,D,1,18,outdoor_scenes,faces,76,66,Stimuli/Experimental_stims/outdoor_scenes/ashim-d-silva-S2Q5mdOrrVc-unsplash.jpg,Stimuli/Experimental_stims/faces/jessica-radanavong-mrYkTuAesKE-unsplash.jpg,0,0,223,0,unchosen,18,1,faces,outdoor_scenes,1900,0,6,1
22,87740,0,23,1,1,0,no_gain6,gain6,J,B,41,13,objects,faces,44,63,Stimuli/Experimental_stims/objects/insung-yoon-w2JtIQQXoRU-unsplash.jpg,Stimuli/Experimental_stims/faces/daniel-rigdon-dXmXKPP2L4E-unsplash.jpg,0,0,282,1,unchosen,13,41,faces,objects,1600,0,6,1
23,87740,0,24,1,1,0,no_gain6,gain2,J,L,19,22,faces,faces,83,79,Stimuli/Experimental_stims/faces/joel-mott-LaK153ghdig-unsplash.jpg,Stimuli/Experimental_stims/faces/ravi-patel-VMGAbeeJTKo-unsplash.jpg,0,1,177,0,chosen,19,22,faces,faces,1100,0,6,1
24,87740,0,25,1,1,1,gain4,no_gain2,K,A,35,36,body_parts,objects,90,71,Stimuli/Experimental_stims/body_parts/wc-so-KH4AAPjb-tI-unsplash.jpg,Stimuli/Experimental_stims/objects/alexander-andrews-JYGnB9gTCls-unsplash.jpg,0,1,366,1,unchosen,35,36,body_parts,objects,2200,0,6,1
25,87740,0,26,1,1,1,gain2,no_gain3,L,C,30,29,body_parts,body_parts,76,82,Stimuli/Experimental_stims/body_parts/mika-korhonen-Xodzxosar18-unsplash.jpg,Stimuli/Experimental_stims/body_parts/manuel-schinner-ZwjFuJ7ebpk-unsplash.jpg,0,1,574,1,unchosen,30,29,body_parts,body_parts,3300,1,6,1
26,87740,0,27,1,1,0,no_gain2,gain4,A,K,9,42,outdoor_scenes,objects,84,58,Stimuli/Experimental_stims/outdoor_scenes/sergey-pesterev-y-b_FOmJXdg-unsplash.jpg,Stimuli/Experimental_stims/objects/jess-bailey-nOeVi8DsN8U-unsplash.jpg,0,1,31,0,chosen,9,42,outdoor_scenes,objects,2100,0,6,1
27,87740,0,28,1,1,0,no_gain2,gain2,A,L,36,30,objects,body_parts,71,76,Stimuli/Experimental_stims/objects/alexander-andrews-JYGnB9gTCls-unsplash.jpg,Stimuli/Experimental_stims/body_parts/mika-korhonen-Xodzxosar18-unsplash.jpg,0,1,349,0,unchosen,36,30,objects,body_parts,1000,0,6,1
28,87740,0,29,1,1,0,no_gain4,gain3,F,E,16,44,faces,objects,66,74,Stimuli/Experimental_stims/faces/freddy-kearney-o-ioeoATbIM-unsplash.jpg,Stimuli/Experimental_stims/objects/kuiye-chen-NuOGFo4PudE-unsplash.jpg,0,0,37,1,unchosen,44,16,objects,faces,2600,0,6,1
29,87740,0,30,1,1,0,no_gain3,gain2,C,L,5,22,outdoor_scenes,faces,99,79,Stimuli/Experimental_stims/outdoor_scenes/jeff-king-bJHWJeiHfHc-unsplash.jpg,Stimuli/Experimental_stims/faces/ravi-patel-VMGAbeeJTKo-unsplash.jpg,0,0,244,1,chosen,22,5,faces,outdoor_scenes,1500,0,6,1
30,87740,0,31,1,1,1,gain5,no_gain4,H,F,1,16,outdoor_scenes,faces,76,66,Stimuli/Experimental_stims/outdoor_scenes/ashim-d-silva-S2Q5mdOrrVc-unsplash.jpg,Stimuli/Experimental_stims/faces/freddy-kearney-o-ioeoATbIM-unsplash.jpg,0,1,273,1,unchosen,1,16,outdoor_scenes,faces,1200,0,6,1
31,87740,0,32,1,1,0,no_gain3,gain5,C,H,29,1,body_parts,outdoor_scenes,82,76,Stimuli/Experimental_stims/body_parts/manuel-schinner-ZwjFuJ7ebpk-unsplash.jpg,Stimuli/Experimental_stims/outdoor_scenes/ashim-d-silva-S2Q5mdOrrVc-unsplash.jpg,0,0,59,1,unchosen,1,29,outdoor_scenes,body_parts,2100,0,6,1
32,87740,0,33,1,1,0,no_gain5,gain4,D,K,37,42,objects,objects,81,58,Stimuli/Experimental_stims/objects/alexander-andrews-VLGWE_SumrA-unsplash.jpg,Stimuli/Experimental_stims/objects/jess-bailey-nOeVi8DsN8U-unsplash.jpg,0,0,158,1,chosen,42,37,objects,objects,4300,1,6,1
33,87740,0,34,1,1,0,no_gain1,gain5,I,H,31,1,body_parts,outdoor_scenes,72,76,Stimuli/Experimental_stims/body_parts/sincerely-media-VN6DbKajo5s-unsplash.jpg,Stimuli/Experimental_stims/outdoor_scenes/ashim-d-silva-S2Q5mdOrrVc-unsplash.jpg,0,1,606,0,unchosen,31,1,body_parts,outdoor_scenes,1000,0,6,1
34,87740,0,35,1,1,1,gain1,no_gain3,G,C,7,5,outdoor_scenes,outdoor_scenes,100,99,Stimuli/Experimental_stims/outdoor_scenes/petr-vysohlid-9fqwGqGLUxc-unsplash.jpg,Stimuli/Experimental_stims/outdoor_scenes/jeff-king-bJHWJeiHfHc-unsplash.jpg,0,0,452,0,chosen,5,7,outdoor_scenes,outdoor_scenes,2300,0,6,1
35,87740,0,36,1,1,0,no_gain6,gain5,J,H,41,1,objects,outdoor_scenes,44,76,Stimuli/Experimental_stims/objects/insung-yoon-w2JtIQQXoRU-unsplash.jpg,Stimuli/Experimental_stims/outdoor_scenes/ashim-d-silva-S2Q5mdOrrVc-unsplash.jpg,0,0,5,1,unchosen,1,41,outdoor_scenes,objects,1200,0,6,1
36,87740,0,37,1,1,1,gain6,no_gain1,B,I,0,2,outdoor_scenes,outdoor_scenes,98,99,Stimuli/Experimental_stims/outdoor_scenes/aleksandra-boguslawska-MS7KD9Ti7FQ-unsplash.jpg,Stimuli/Experimental_stims/outdoor_scenes/bruno-van-der-kraan-qez8mNJ3ilU-unsplash.jpg,0,0,313,0,chosen,2,0,outdoor_scenes,outdoor_scenes,1300,0,6,1
37,87740,0,38,1,1,1,gain4,no_gain3,K,C,42,5,objects,outdoor_scenes,58,99,Stimuli/Experimental_stims/objects/jess-bailey-nOeVi8DsN8U-unsplash.jpg,Stimuli/Experimental_stims/outdoor_scenes/jeff-king-bJHWJeiHfHc-unsplash.jpg,0,0,234,0,chosen,5,42,outdoor_scenes,objects,1700,0,6,1
38,87740,0,39,1,1,1,gain1,no_gain5,G,D,7,37,outdoor_scenes,objects,100,81,Stimuli/Experimental_stims/outdoor_scenes/petr-vysohlid-9fqwGqGLUxc-unsplash.jpg,Stimuli/Experimental_stims/objects/alexander-andrews-VLGWE_SumrA-unsplash.jpg,0,0,12,0,chosen,37,7,objects,outdoor_scenes,1300,0,6,1
39,87740,0,40,1,1,0,no_gain6,gain3,J,E,41,44,objects,objects,44,74,Stimuli/Experimental_stims/objects/insung-yoon-w2JtIQQXoRU-unsplash.jpg,Stimuli/Experimental_stims/objects/kuiye-chen-NuOGFo4PudE-unsplash.jpg,0,0,249,1,unchosen,44,41,objects,objects,1200,0,6,1
40,87740,0,41,1,1,0,no_gain2,gain1,A,G,9,7,outdoor_scenes,outdoor_scenes,84,100,Stimuli/Experimental_stims/outdoor_scenes/sergey-pesterev-y-b_FOmJXdg-unsplash.jpg,Stimuli/Experimental_stims/outdoor_scenes/petr-vysohlid-9fqwGqGLUxc-unsplash.jpg,0,0,721,1,chosen,7,9,outdoor_scenes,outdoor_scenes,1900,0,6,1
41,87740,0,42,1,1,1,gain4,no_gain3,K,C,35,29,body_parts,body_parts,90,82,Stimuli/Experimental_stims/body_parts/wc-so-KH4AAPjb-tI-unsplash.jpg,Stimuli/Experimental_stims/body_parts/manuel-schinner-ZwjFuJ7ebpk-unsplash.jpg,0,0,283,0,unchosen,29,35,body_parts,body_parts,1200,0,6,1
42,87740,0,43,1,1,1,gain6,no_gain6,B,J,0,19,outdoor_scenes,faces,98,83,Stimuli/Experimental_stims/outdoor_scenes/aleksandra-boguslawska-MS7KD9Ti7FQ-unsplash.jpg,Stimuli/Experimental_stims/faces/joel-mott-LaK153ghdig-unsplash.jpg,0,1,451,1,chosen,0,19,outdoor_scenes,faces,4000,1,6,1
43,87740,0,44,1,1,0,no_gain3,gain3,C,E,5,25,outdoor_scenes,body_parts,99,77,Stimuli/Experimental_stims/outdoor_scenes/jeff-king-bJHWJeiHfHc-unsplash.jpg,Stimuli/Experimental_stims/body_parts/engin-akyurt-Q2rfH3GW39c-unsplash.jpg,0,0,463,1,chosen,25,5,body_parts,outdoor_scenes,2300,0,6,1
44,87740,0,45,1,1,1,gain2,no_gain6,L,J,30,41,body_parts,objects,76,44,Stimuli/Experimental_stims/body_parts/mika-korhonen-Xodzxosar18-unsplash.jpg,Stimuli/Experimental_stims/objects/insung-yoon-w2JtIQQXoRU-unsplash.jpg,0,1,126,1,unchosen,30,41,body_parts,objects,1500,0,6,1
45,87740,0,46,1,1,0,no_gain1,gain1,I,G,2,7,outdoor_scenes,outdoor_scenes,99,100,Stimuli/Experimental_stims/outdoor_scenes/bruno-van-der-kraan-qez8mNJ3ilU-unsplash.jpg,Stimuli/Experimental_stims/outdoor_scenes/petr-vysohlid-9fqwGqGLUxc-unsplash.jpg,0,1,48,0,chosen,2,7,outdoor_scenes,outdoor_scenes,1100,0,6,1
46,87740,0,47,1,1,0,no_gain5,gain6,D,B,18,13,faces,faces,66,63,Stimuli/Experimental_stims/faces/jessica-radanavong-mrYkTuAesKE-unsplash.jpg,Stimuli/Experimental_stims/faces/daniel-rigdon-dXmXKPP2L4E-unsplash.jpg,0,1,381,0,unchosen,18,13,faces,faces,1100,0,6,1
47,87740,0,48,1,1,0,no_gain5,gain6,D,B,37,0,objects,outdoor_scenes,81,98,Stimuli/Experimental_stims/objects/alexander-andrews-VLGWE_SumrA-unsplash.jpg,Stimuli/Experimental_stims/outdoor_scenes/aleksandra-boguslawska-MS7KD9Ti7FQ-unsplash.jpg,0,0,290,1,chosen,0,37,outdoor_scenes,objects,3200,1,6,1
48,87740,0,49,1,1,0,no_gain2,gain6,A,B,36,13,objects,faces,71,63,Stimuli/Experimental_stims/objects/alexander-andrews-JYGnB9gTCls-unsplash.jpg,Stimuli/Experimental_stims/faces/daniel-rigdon-dXmXKPP2L4E-unsplash.jpg,0,1,35,0,unchosen,36,13,objects,faces,1900,0,6,1
49,87740,0,50,1,1,1,gain4,no_gain4,K,F,35,16,body_parts,faces,90,66,Stimuli/Experimental_stims/body_parts/wc-so-KH4AAPjb-tI-unsplash.jpg,Stimuli/Experimental_stims/faces/freddy-kearney-o-ioeoATbIM-unsplash.jpg,0,1,118,1,unchosen,35,16,body_parts,faces,2300,0,6,1
50,87740,0,51,1,1,1,gain6,no_gain4,B,F,13,16,faces,faces,63,66,Stimuli/Experimental_stims/faces/daniel-rigdon-dXmXKPP2L4E-unsplash.jpg,Stimuli/Experimental_stims/faces/freddy-kearney-o-ioeoATbIM-unsplash.jpg,0,0,130,0,unchosen,16,13,faces,faces,1200,0,6,1
51,87740,0,52,1,1,0,no_gain6,gain1,J,G,19,7,faces,outdoor_scenes,83,100,Stimuli/Experimental_stims/faces/joel-mott-LaK153ghdig-unsplash.jpg,Stimuli/Experimental_stims/outdoor_scenes/petr-vysohlid-9fqwGqGLUxc-unsplash.jpg,0,1,70,0,chosen,19,7,faces,outdoor_scenes,2400,0,6,1
52,87740,0,53,1,1,1,gain2,no_gain1,L,I,22,2,faces,outdoor_scenes,79,99,Stimuli/Experimental_stims/faces/ravi-patel-VMGAbeeJTKo-unsplash.jpg,Stimuli/Experimental_stims/outdoor_scenes/bruno-van-der-kraan-qez8mNJ3ilU-unsplash.jpg,0,0,415,0,chosen,2,22,outdoor_scenes,faces,1600,0,6,1
53,87740,0,54,1,1,1,gain5,no_gain6,H,J,14,19,faces,faces,59,83,Stimuli/Experimental_stims/faces/david-siglin-UuW4psOb388-unsplash.jpg,Stimuli/Experimental_stims/faces/joel-mott-LaK153ghdig-unsplash.jpg,0,0,18,0,chosen,19,14,faces,faces,3100,1,6,1
54,87740,0,55,1,1,0,no_gain5,gain1,D,G,18,45,faces,objects,66,89,Stimuli/Experimental_stims/faces/jessica-radanavong-mrYkTuAesKE-unsplash.jpg,Stimuli/Experimental_stims/objects/leohoho-rngTKHXumy0-unsplash.jpg,0,1,58,0,unchosen,18,45,faces,objects,2300,0,6,1
55,87740,0,56,1,1,1,gain2,no_gain2,L,A,22,9,faces,outdoor_scenes,79,84,Stimuli/Experimental_stims/faces/ravi-patel-VMGAbeeJTKo-unsplash.jpg,Stimuli/Experimental_stims/outdoor_scenes/sergey-pesterev-y-b_FOmJXdg-unsplash.jpg,0,1,4,1,chosen,22,9,faces,outdoor_scenes,2600,0,6,1
56,87740,0,57,1,1,1,gain3,no_gain2,E,A,44,36,objects,objects,74,71,Stimuli/Experimental_stims/objects/kuiye-chen-NuOGFo4PudE-unsplash.jpg,Stimuli/Experimental_stims/objects/alexander-andrews-JYGnB9gTCls-unsplash.jpg,0,0,763,0,unchosen,36,44,objects,objects,1700,0,6,1
57,87740,0,58,1,1,0,no_gain1,gain3,I,E,31,44,body_parts,objects,72,74,Stimuli/Experimental_stims/body_parts/sincerely-media-VN6DbKajo5s-unsplash.jpg,Stimuli/Experimental_stims/objects/kuiye-chen-NuOGFo4PudE-unsplash.jpg,0,0,36,1,unchosen,44,31,objects,body_parts,1100,0,6,1
58,87740,0,59,1,1,1,gain6,no_gain4,B,F,0,26,outdoor_scenes,body_parts,98,78,Stimuli/Experimental_stims/outdoor_scenes/aleksandra-boguslawska-MS7KD9Ti7FQ-unsplash.jpg,Stimuli/Experimental_stims/body_parts/engin-akyurt-x_3gyC42btc-unsplash.jpg,0,0,806,0,chosen,26,0,body_parts,outdoor_scenes,2600,0,6,1
59,87740,0,60,1,1,1,gain6,no_gain1,B,I,13,31,faces,body_parts,63,72,Stimuli/Experimental_stims/faces/daniel-rigdon-dXmXKPP2L4E-unsplash.jpg,Stimuli/Experimental_stims/body_parts/sincerely-media-VN6DbKajo5s-unsplash.jpg,0,0,946,0,unchosen,31,13,body_parts,faces,1000,0,6,1
60,87740,0,61,1,1,1,gain1,no_gain3,G,C,45,29,objects,body_parts,89,82,Stimuli/Experimental_stims/objects/leohoho-rngTKHXumy0-unsplash.jpg,Stimuli/Experimental_stims/body_parts/manuel-schinner-ZwjFuJ7ebpk-unsplash.jpg,1,NaN,,NaN,unchosen,NaN,NaN,NaN,NaN,2400,0,6,1
61,87740,0,62,1,1,0,no_gain6,gain4,J,K,41,35,objects,body_parts,44,90,Stimuli/Experimental_stims/objects/insung-yoon-w2JtIQQXoRU-unsplash.jpg,Stimuli/Experimental_stims/body_parts/wc-so-KH4AAPjb-tI-unsplash.jpg,0,1,215,0,unchosen,41,35,objects,body_parts,3500,1,6,1
62,87740,0,63,1,1,1,gain6,no_gain3,B,C,0,5,outdoor_scenes,outdoor_scenes,98,99,Stimuli/Experimental_stims/outdoor_scenes/aleksandra-boguslawska-MS7KD9Ti7FQ-unsplash.jpg,Stimuli/Experimental_stims/outdoor_scenes/jeff-king-bJHWJeiHfHc-unsplash.jpg,0,0,217,0,chosen,5,0,outdoor_scenes,outdoor_scenes,1700,0,6,1
63,87740,0,64,1,1,1,gain2,no_gain4,L,F,22,26,faces,body_parts,79,78,Stimuli/Experimental_stims/faces/ravi-patel-VMGAbeeJTKo-unsplash.jpg,Stimuli/Experimental_stims/body_parts/engin-akyurt-x_3gyC42btc-unsplash.jpg,0,0,18,0,chosen,26,22,body_parts,faces,1200,0,6,1
64,87740,0,65,1,1,0,no_gain6,gain1,J,G,41,45,objects,objects,44,89,Stimuli/Experimental_stims/objects/insung-yoon-w2JtIQQXoRU-unsplash.jpg,Stimuli/Experimental_stims/objects/leohoho-rngTKHXumy0-unsplash.jpg,0,0,54,1,unchosen,45,41,objects,objects,1600,0,6,1
65,87740,0,66,1,1,0,no_gain4,gain1,F,G,16,45,faces,objects,66,89,Stimuli/Experimental_stims/faces/freddy-kearney-o-ioeoATbIM-unsplash.jpg,Stimuli/Experimental_stims/objects/leohoho-rngTKHXumy0-unsplash.jpg,0,1,568,0,unchosen,16,45,faces,objects,1200,0,6,1
66,87740,0,67,1,1,1,gain5,no_gain2,H,A,1,36,outdoor_scenes,objects,76,71,Stimuli/Experimental_stims/outdoor_scenes/ashim-d-silva-S2Q5mdOrrVc-unsplash.jpg,Stimuli/Experimental_stims/objects/alexander-andrews-JYGnB9gTCls-unsplash.jpg,0,1,369,1,unchosen,1,36,outdoor_scenes,objects,3400,1,6,1
67,87740,0,68,1,1,0,no_gain1,gain4,I,K,2,42,outdoor_scenes,objects,99,58,Stimuli/Experimental_stims/outdoor_scenes/bruno-van-der-kraan-qez8mNJ3ilU-unsplash.jpg,Stimuli/Experimental_stims/objects/jess-bailey-nOeVi8DsN8U-unsplash.jpg,0,0,426,1,chosen,42,2,objects,outdoor_scenes,1900,0,6,1
68,87740,0,69,1,1,1,gain6,no_gain2,B,A,0,9,outdoor_scenes,outdoor_scenes,98,84,Stimuli/Experimental_stims/outdoor_scenes/aleksandra-boguslawska-MS7KD9Ti7FQ-unsplash.jpg,Stimuli/Experimental_stims/outdoor_scenes/sergey-pesterev-y-b_FOmJXdg-unsplash.jpg,0,0,201,0,chosen,9,0,outdoor_scenes,outdoor_scenes,2200,0,6,1
69,87740,0,70,1,1,1,gain5,no_gain3,H,C,14,5,faces,outdoor_scenes,59,99,Stimuli/Experimental_stims/faces/david-siglin-UuW4psOb388-unsplash.jpg,Stimuli/Experimental_stims/outdoor_scenes/jeff-king-bJHWJeiHfHc-unsplash.jpg,0,1,63,1,chosen,14,5,faces,outdoor_scenes,1100,0,6,1
70,87740,0,71,1,1,0,no_gain1,gain1,I,G,31,45,body_parts,objects,72,89,Stimuli/Experimental_stims/body_parts/sincerely-media-VN6DbKajo5s-unsplash.jpg,Stimuli/Experimental_stims/objects/leohoho-rngTKHXumy0-unsplash.jpg,0,0,577,1,unchosen,45,31,objects,body_parts,2600,0,6,1
71,87740,0,72,1,1,1,gain1,no_gain2,G,A,45,36,objects,objects,89,71,Stimuli/Experimental_stims/objects/leohoho-rngTKHXumy0-unsplash.jpg,Stimuli/Experimental_stims/objects/alexander-andrews-JYGnB9gTCls-unsplash.jpg,0,1,520,1,unchosen,45,36,objects,objects,2100,0,6,1
72,87740,0,73,1,1,0,no_gain3,gain3,C,E,29,44,body_parts,objects,82,74,Stimuli/Experimental_stims/body_parts/manuel-schinner-ZwjFuJ7ebpk-unsplash.jpg,Stimuli/Experimental_stims/objects/kuiye-chen-NuOGFo4PudE-unsplash.jpg,0,0,339,1,unchosen,44,29,objects,body_parts,1600,0,6,1
73,87740,0,74,1,1,0,no_gain4,gain1,F,G,26,7,body_parts,outdoor_scenes,78,100,Stimuli/Experimental_stims/body_parts/engin-akyurt-x_3gyC42btc-unsplash.jpg,Stimuli/Experimental_stims/outdoor_scenes/petr-vysohlid-9fqwGqGLUxc-unsplash.jpg,0,1,852,0,chosen,26,7,body_parts,outdoor_scenes,1200,0,6,1
74,87740,0,75,1,1,1,gain3,no_gain5,E,D,44,18,objects,faces,74,66,Stimuli/Experimental_stims/objects/kuiye-chen-NuOGFo4PudE-unsplash.jpg,Stimuli/Experimental_stims/faces/jessica-radanavong-mrYkTuAesKE-unsplash.jpg,0,0,186,0,unchosen,18,44,faces,objects,2600,0,6,1
75,87740,0,76,1,1,0,no_gain4,gain3,F,E,26,25,body_parts,body_parts,78,77,Stimuli/Experimental_stims/body_parts/engin-akyurt-x_3gyC42btc-unsplash.jpg,Stimuli/Experimental_stims/body_parts/engin-akyurt-Q2rfH3GW39c-unsplash.jpg,0,1,277,0,chosen,26,25,body_parts,body_parts,3600,1,6,1
76,87740,0,77,2,2,1,gain4,no_gain6,K,J,35,41,body_parts,objects,90,44,Stimuli/Experimental_stims/body_parts/wc-so-KH4AAPjb-tI-unsplash.jpg,Stimuli/Experimental_stims/objects/insung-yoon-w2JtIQQXoRU-unsplash.jpg,0,1,1333,1,unchosen,35,41,body_parts,objects,3100,1,4,1
77,87740,0,78,2,2,1,gain3,no_gain1,E,I,25,2,body_parts,outdoor_scenes,77,99,Stimuli/Experimental_stims/body_parts/engin-akyurt-Q2rfH3GW39c-unsplash.jpg,Stimuli/Experimental_stims/outdoor_scenes/bruno-van-der-kraan-qez8mNJ3ilU-unsplash.jpg,0,0,840,0,chosen,2,25,outdoor_scenes,body_parts,2600,0,4,1
78,87740,0,79,2,2,0,no_gain5,gain5,D,H,37,14,objects,faces,81,59,Stimuli/Experimental_stims/objects/alexander-andrews-VLGWE_SumrA-unsplash.jpg,Stimuli/Experimental_stims/faces/david-siglin-UuW4psOb388-unsplash.jpg,0,1,17,0,chosen,37,14,objects,faces,1800,0,4,1
79,87740,0,80,2,2,0,no_gain5,gain2,D,L,18,30,faces,body_parts,66,76,Stimuli/Experimental_stims/faces/jessica-radanavong-mrYkTuAesKE-unsplash.jpg,Stimuli/Experimental_stims/body_parts/mika-korhonen-Xodzxosar18-unsplash.jpg,0,1,0,0,unchosen,18,30,faces,body_parts,1000,0,4,1
80,87740,0,81,2,2,0,no_gain5,gain6,D,B,37,0,objects,outdoor_scenes,81,98,Stimuli/Experimental_stims/objects/alexander-andrews-VLGWE_SumrA-unsplash.jpg,Stimuli/Experimental_stims/outdoor_scenes/aleksandra-boguslawska-MS7KD9Ti7FQ-unsplash.jpg,0,1,453,0,chosen,37,0,objects,outdoor_scenes,2300,0,4,1
81,87740,0,82,2,2,1,gain2,no_gain1,L,I,22,2,faces,outdoor_scenes,79,99,Stimuli/Experimental_stims/faces/ravi-patel-VMGAbeeJTKo-unsplash.jpg,Stimuli/Experimental_stims/outdoor_scenes/bruno-van-der-kraan-qez8mNJ3ilU-unsplash.jpg,0,1,53,1,chosen,22,2,faces,outdoor_scenes,1100,0,4,1
82,87740,0,83,2,2,1,gain6,no_gain4,B,F,0,26,outdoor_scenes,body_parts,98,78,Stimuli/Experimental_stims/outdoor_scenes/aleksandra-boguslawska-MS7KD9Ti7FQ-unsplash.jpg,Stimuli/Experimental_stims/body_parts/engin-akyurt-x_3gyC42btc-unsplash.jpg,0,0,101,0,chosen,26,0,body_parts,outdoor_scenes,1500,0,4,1
83,87740,0,84,2,2,1,gain1,no_gain4,G,F,45,16,objects,faces,89,66,Stimuli/Experimental_stims/objects/leohoho-rngTKHXumy0-unsplash.jpg,Stimuli/Experimental_stims/faces/freddy-kearney-o-ioeoATbIM-unsplash.jpg,0,0,740,0,unchosen,16,45,faces,objects,2400,0,4,1
84,87740,0,85,2,2,0,no_gain2,gain2,A,L,36,30,objects,body_parts,71,76,Stimuli/Experimental_stims/objects/alexander-andrews-JYGnB9gTCls-unsplash.jpg,Stimuli/Experimental_stims/body_parts/mika-korhonen-Xodzxosar18-unsplash.jpg,0,1,402,0,unchosen,36,30,objects,body_parts,2300,0,4,1
85,87740,0,86,2,2,1,gain6,no_gain3,B,C,0,5,outdoor_scenes,outdoor_scenes,98,99,Stimuli/Experimental_stims/outdoor_scenes/aleksandra-boguslawska-MS7KD9Ti7FQ-unsplash.jpg,Stimuli/Experimental_stims/outdoor_scenes/jeff-king-bJHWJeiHfHc-unsplash.jpg,0,0,147,0,chosen,5,0,outdoor_scenes,outdoor_scenes,1200,0,4,1
86,87740,0,87,2,2,0,no_gain5,gain4,D,K,18,35,faces,body_parts,66,90,Stimuli/Experimental_stims/faces/jessica-radanavong-mrYkTuAesKE-unsplash.jpg,Stimuli/Experimental_stims/body_parts/wc-so-KH4AAPjb-tI-unsplash.jpg,0,1,150,0,unchosen,18,35,faces,body_parts,1300,0,4,1
87,87740,0,88,2,2,1,gain2,no_gain2,L,A,22,9,faces,outdoor_scenes,79,84,Stimuli/Experimental_stims/faces/ravi-patel-VMGAbeeJTKo-unsplash.jpg,Stimuli/Experimental_stims/outdoor_scenes/sergey-pesterev-y-b_FOmJXdg-unsplash.jpg,0,0,473,0,chosen,9,22,outdoor_scenes,faces,3700,1,4,1
88,87740,0,89,2,2,1,gain5,no_gain3,H,C,14,5,faces,outdoor_scenes,59,99,Stimuli/Experimental_stims/faces/david-siglin-UuW4psOb388-unsplash.jpg,Stimuli/Experimental_stims/outdoor_scenes/jeff-king-bJHWJeiHfHc-unsplash.jpg,0,0,953,0,chosen,5,14,outdoor_scenes,faces,1600,0,4,1
89,87740,0,90,2,2,0,no_gain3,gain1,C,G,5,7,outdoor_scenes,outdoor_scenes,99,100,Stimuli/Experimental_stims/outdoor_scenes/jeff-king-bJHWJeiHfHc-unsplash.jpg,Stimuli/Experimental_stims/outdoor_scenes/petr-vysohlid-9fqwGqGLUxc-unsplash.jpg,0,1,572,0,chosen,5,7,outdoor_scenes,outdoor_scenes,1700,0,4,1
90,87740,0,91,2,2,0,no_gain2,gain1,A,G,36,45,objects,objects,71,89,Stimuli/Experimental_stims/objects/alexander-andrews-JYGnB9gTCls-unsplash.jpg,Stimuli/Experimental_stims/objects/leohoho-rngTKHXumy0-unsplash.jpg,0,0,449,1,unchosen,45,36,objects,objects,1200,0,4,1
91,87740,0,92,2,2,0,no_gain6,gain5,J,H,19,14,faces,faces,83,59,Stimuli/Experimental_stims/faces/joel-mott-LaK153ghdig-unsplash.jpg,Stimuli/Experimental_stims/faces/david-siglin-UuW4psOb388-unsplash.jpg,0,0,272,1,chosen,14,19,faces,faces,1100,0,4,1
92,87740,0,93,2,2,0,no_gain4,gain3,F,E,26,25,body_parts,body_parts,78,77,Stimuli/Experimental_stims/body_parts/engin-akyurt-x_3gyC42btc-unsplash.jpg,Stimuli/Experimental_stims/body_parts/engin-akyurt-Q2rfH3GW39c-unsplash.jpg,0,0,605,1,chosen,25,26,body_parts,body_parts,1300,0,4,1
93,87740,0,94,2,2,1,gain4,no_gain5,K,D,42,37,objects,objects,58,81,Stimuli/Experimental_stims/objects/jess-bailey-nOeVi8DsN8U-unsplash.jpg,Stimuli/Experimental_stims/objects/alexander-andrews-VLGWE_SumrA-unsplash.jpg,0,1,170,1,chosen,42,37,objects,objects,4500,1,4,1
94,87740,0,95,2,2,0,no_gain5,gain1,D,G,18,45,faces,objects,66,89,Stimuli/Experimental_stims/faces/jessica-radanavong-mrYkTuAesKE-unsplash.jpg,Stimuli/Experimental_stims/objects/leohoho-rngTKHXumy0-unsplash.jpg,0,0,493,1,unchosen,45,18,objects,faces,1900,0,4,1
95,87740,0,96,2,2,1,gain1,no_gain3,G,C,45,29,objects,body_parts,89,82,Stimuli/Experimental_stims/objects/leohoho-rngTKHXumy0-unsplash.jpg,Stimuli/Experimental_stims/body_parts/manuel-schinner-ZwjFuJ7ebpk-unsplash.jpg,0,1,796,1,unchosen,45,29,objects,body_parts,1100,0,4,1
96,87740,0,97,2,2,1,gain3,no_gain3,E,C,44,29,objects,body_parts,74,82,Stimuli/Experimental_stims/objects/kuiye-chen-NuOGFo4PudE-unsplash.jpg,Stimuli/Experimental_stims/body_parts/manuel-schinner-ZwjFuJ7ebpk-unsplash.jpg,0,0,446,0,unchosen,29,44,body_parts,objects,2300,0,4,1
97,87740,0,98,2,2,0,no_gain5,gain1,D,G,37,7,objects,outdoor_scenes,81,100,Stimuli/Experimental_stims/objects/alexander-andrews-VLGWE_SumrA-unsplash.jpg,Stimuli/Experimental_stims/outdoor_scenes/petr-vysohlid-9fqwGqGLUxc-unsplash.jpg,0,1,95,0,chosen,37,7,objects,outdoor_scenes,2800,0,4,1
98,87740,0,99,2,2,0,no_gain5,gain5,D,H,18,1,faces,outdoor_scenes,66,76,Stimuli/Experimental_stims/faces/jessica-radanavong-mrYkTuAesKE-unsplash.jpg,Stimuli/Experimental_stims/outdoor_scenes/ashim-d-silva-S2Q5mdOrrVc-unsplash.jpg,0,1,768,0,unchosen,18,1,faces,outdoor_scenes,3200,1,4,1
99,87740,0,100,2,2,1,gain5,no_gain1,H,I,14,2,faces,outdoor_scenes,59,99,Stimuli/Experimental_stims/faces/david-siglin-UuW4psOb388-unsplash.jpg,Stimuli/Experimental_stims/outdoor_scenes/bruno-van-der-kraan-qez8mNJ3ilU-unsplash.jpg,0,1,348,1,chosen,14,2,faces,outdoor_scenes,2000,0,4,1
100,87740,0,101,2,2,0,no_gain2,gain6,A,B,9,0,outdoor_scenes,outdoor_scenes,84,98,Stimuli/Experimental_stims/outdoor_scenes/sergey-pesterev-y-b_FOmJXdg-unsplash.jpg,Stimuli/Experimental_stims/outdoor_scenes/aleksandra-boguslawska-MS7KD9Ti7FQ-unsplash.jpg,0,0,278,1,chosen,0,9,outdoor_scenes,outdoor_scenes,2500,0,4,1
101,87740,0,102,2,2,1,gain3,no_gain5,E,D,44,18,objects,faces,74,66,Stimuli/Experimental_stims/objects/kuiye-chen-NuOGFo4PudE-unsplash.jpg,Stimuli/Experimental_stims/faces/jessica-radanavong-mrYkTuAesKE-unsplash.jpg,0,1,52,1,unchosen,44,18,objects,faces,1300,0,4,1
102,87740,0,103,2,2,1,gain6,no_gain3,B,C,13,29,faces,body_parts,63,82,Stimuli/Experimental_stims/faces/daniel-rigdon-dXmXKPP2L4E-unsplash.jpg,Stimuli/Experimental_stims/body_parts/manuel-schinner-ZwjFuJ7ebpk-unsplash.jpg,0,0,62,0,unchosen,29,13,body_parts,faces,1300,0,4,1
103,87740,0,104,2,2,1,gain4,no_gain4,K,F,35,16,body_parts,faces,90,66,Stimuli/Experimental_stims/body_parts/wc-so-KH4AAPjb-tI-unsplash.jpg,Stimuli/Experimental_stims/faces/freddy-kearney-o-ioeoATbIM-unsplash.jpg,0,0,634,0,unchosen,16,35,faces,body_parts,4500,1,4,1
104,87740,0,105,2,2,1,gain6,no_gain1,B,I,0,2,outdoor_scenes,outdoor_scenes,98,99,Stimuli/Experimental_stims/outdoor_scenes/aleksandra-boguslawska-MS7KD9Ti7FQ-unsplash.jpg,Stimuli/Experimental_stims/outdoor_scenes/bruno-van-der-kraan-qez8mNJ3ilU-unsplash.jpg,0,0,931,0,chosen,2,0,outdoor_scenes,outdoor_scenes,1400,0,4,1
105,87740,0,106,2,2,1,gain2,no_gain6,L,J,30,41,body_parts,objects,76,44,Stimuli/Experimental_stims/body_parts/mika-korhonen-Xodzxosar18-unsplash.jpg,Stimuli/Experimental_stims/objects/insung-yoon-w2JtIQQXoRU-unsplash.jpg,0,0,840,0,unchosen,41,30,objects,body_parts,2600,0,4,1
106,87740,0,107,2,2,1,gain4,no_gain4,K,F,42,26,objects,body_parts,58,78,Stimuli/Experimental_stims/objects/jess-bailey-nOeVi8DsN8U-unsplash.jpg,Stimuli/Experimental_stims/body_parts/engin-akyurt-x_3gyC42btc-unsplash.jpg,0,0,1381,0,chosen,26,42,body_parts,objects,2100,0,4,1
107,87740,0,108,2,2,0,no_gain6,gain6,J,B,41,13,objects,faces,44,63,Stimuli/Experimental_stims/objects/insung-yoon-w2JtIQQXoRU-unsplash.jpg,Stimuli/Experimental_stims/faces/daniel-rigdon-dXmXKPP2L4E-unsplash.jpg,0,0,440,1,unchosen,13,41,faces,objects,2100,0,4,1
108,87740,0,109,2,2,1,gain4,no_gain3,K,C,35,29,body_parts,body_parts,90,82,Stimuli/Experimental_stims/body_parts/wc-so-KH4AAPjb-tI-unsplash.jpg,Stimuli/Experimental_stims/body_parts/manuel-schinner-ZwjFuJ7ebpk-unsplash.jpg,0,0,281,0,unchosen,29,35,body_parts,body_parts,2600,0,4,1
109,87740,0,110,2,2,0,no_gain1,gain1,I,G,2,7,outdoor_scenes,outdoor_scenes,99,100,Stimuli/Experimental_stims/outdoor_scenes/bruno-van-der-kraan-qez8mNJ3ilU-unsplash.jpg,Stimuli/Experimental_stims/outdoor_scenes/petr-vysohlid-9fqwGqGLUxc-unsplash.jpg,0,1,184,0,chosen,2,7,outdoor_scenes,outdoor_scenes,3000,1,4,1
110,87740,0,111,2,2,1,gain2,no_gain4,L,F,22,26,faces,body_parts,79,78,Stimuli/Experimental_stims/faces/ravi-patel-VMGAbeeJTKo-unsplash.jpg,Stimuli/Experimental_stims/body_parts/engin-akyurt-x_3gyC42btc-unsplash.jpg,0,1,196,1,chosen,22,26,faces,body_parts,1100,0,4,1
111,87740,0,112,2,2,0,no_gain1,gain3,I,E,31,44,body_parts,objects,72,74,Stimuli/Experimental_stims/body_parts/sincerely-media-VN6DbKajo5s-unsplash.jpg,Stimuli/Experimental_stims/objects/kuiye-chen-NuOGFo4PudE-unsplash.jpg,0,0,10,1,unchosen,44,31,objects,body_parts,1000,0,4,1
112,87740,0,113,2,2,1,gain5,no_gain1,H,I,1,31,outdoor_scenes,body_parts,76,72,Stimuli/Experimental_stims/outdoor_scenes/ashim-d-silva-S2Q5mdOrrVc-unsplash.jpg,Stimuli/Experimental_stims/body_parts/sincerely-media-VN6DbKajo5s-unsplash.jpg,0,1,210,1,unchosen,1,31,outdoor_scenes,body_parts,1300,0,4,1
113,87740,0,114,2,2,1,gain3,no_gain6,E,J,25,19,body_parts,faces,77,83,Stimuli/Experimental_stims/body_parts/engin-akyurt-Q2rfH3GW39c-unsplash.jpg,Stimuli/Experimental_stims/faces/joel-mott-LaK153ghdig-unsplash.jpg,0,0,35,0,chosen,19,25,faces,body_parts,1000,0,4,1
114,87740,0,115,2,2,0,no_gain1,gain1,I,G,31,45,body_parts,objects,72,89,Stimuli/Experimental_stims/body_parts/sincerely-media-VN6DbKajo5s-unsplash.jpg,Stimuli/Experimental_stims/objects/leohoho-rngTKHXumy0-unsplash.jpg,0,1,414,0,unchosen,31,45,body_parts,objects,1200,0,4,1
115,87740,0,116,2,2,0,no_gain5,gain3,D,E,37,25,objects,body_parts,81,77,Stimuli/Experimental_stims/objects/alexander-andrews-VLGWE_SumrA-unsplash.jpg,Stimuli/Experimental_stims/body_parts/engin-akyurt-Q2rfH3GW39c-unsplash.jpg,0,0,104,1,chosen,25,37,body_parts,objects,1800,0,4,1
116,87740,0,117,2,2,1,gain5,no_gain2,H,A,1,36,outdoor_scenes,objects,76,71,Stimuli/Experimental_stims/outdoor_scenes/ashim-d-silva-S2Q5mdOrrVc-unsplash.jpg,Stimuli/Experimental_stims/objects/alexander-andrews-JYGnB9gTCls-unsplash.jpg,0,1,444,1,unchosen,1,36,outdoor_scenes,objects,2300,0,4,1
117,87740,0,118,2,2,1,gain4,no_gain1,K,I,42,2,objects,outdoor_scenes,58,99,Stimuli/Experimental_stims/objects/jess-bailey-nOeVi8DsN8U-unsplash.jpg,Stimuli/Experimental_stims/outdoor_scenes/bruno-van-der-kraan-qez8mNJ3ilU-unsplash.jpg,0,1,527,1,chosen,42,2,objects,outdoor_scenes,3500,1,4,1
118,87740,0,119,2,2,0,no_gain2,gain6,A,B,36,13,objects,faces,71,63,Stimuli/Experimental_stims/objects/alexander-andrews-JYGnB9gTCls-unsplash.jpg,Stimuli/Experimental_stims/faces/daniel-rigdon-dXmXKPP2L4E-unsplash.jpg,0,0,105,1,unchosen,13,36,faces,objects,1300,0,4,1
119,87740,0,120,2,2,0,no_gain2,gain5,A,H,9,14,outdoor_scenes,faces,84,59,Stimuli/Experimental_stims/outdoor_scenes/sergey-pesterev-y-b_FOmJXdg-unsplash.jpg,Stimuli/Experimental_stims/faces/david-siglin-UuW4psOb388-unsplash.jpg,0,0,153,1,chosen,14,9,faces,outdoor_scenes,1400,0,4,1
120,87740,0,121,2,2,1,gain3,no_gain3,E,C,25,5,body_parts,outdoor_scenes,77,99,Stimuli/Experimental_stims/body_parts/engin-akyurt-Q2rfH3GW39c-unsplash.jpg,Stimuli/Experimental_stims/outdoor_scenes/jeff-king-bJHWJeiHfHc-unsplash.jpg,0,0,305,0,chosen,5,25,outdoor_scenes,body_parts,1300,0,4,1
121,87740,0,122,2,2,1,gain6,no_gain1,B,I,13,31,faces,body_parts,63,72,Stimuli/Experimental_stims/faces/daniel-rigdon-dXmXKPP2L4E-unsplash.jpg,Stimuli/Experimental_stims/body_parts/sincerely-media-VN6DbKajo5s-unsplash.jpg,0,0,707,0,unchosen,31,13,body_parts,faces,2800,0,4,1
122,87740,0,123,2,2,1,gain5,no_gain6,H,J,1,41,outdoor_scenes,objects,76,44,Stimuli/Experimental_stims/outdoor_scenes/ashim-d-silva-S2Q5mdOrrVc-unsplash.jpg,Stimuli/Experimental_stims/objects/insung-yoon-w2JtIQQXoRU-unsplash.jpg,0,0,202,0,unchosen,41,1,objects,outdoor_scenes,1800,0,4,1
123,87740,0,124,2,2,0,no_gain2,gain4,A,K,36,35,objects,body_parts,71,90,Stimuli/Experimental_stims/objects/alexander-andrews-JYGnB9gTCls-unsplash.jpg,Stimuli/Experimental_stims/body_parts/wc-so-KH4AAPjb-tI-unsplash.jpg,0,0,208,1,unchosen,35,36,body_parts,objects,1200,0,4,1
124,87740,0,125,2,2,0,no_gain3,gain4,C,K,5,42,outdoor_scenes,objects,99,58,Stimuli/Experimental_stims/outdoor_scenes/jeff-king-bJHWJeiHfHc-unsplash.jpg,Stimuli/Experimental_stims/objects/jess-bailey-nOeVi8DsN8U-unsplash.jpg,0,1,225,0,chosen,5,42,outdoor_scenes,objects,1000,0,4,1
125,87740,0,126,2,2,1,gain3,no_gain4,E,F,44,16,objects,faces,74,66,Stimuli/Experimental_stims/objects/kuiye-chen-NuOGFo4PudE-unsplash.jpg,Stimuli/Experimental_stims/faces/freddy-kearney-o-ioeoATbIM-unsplash.jpg,0,0,30,0,unchosen,16,44,faces,objects,1600,0,4,1
126,87740,0,127,2,2,0,no_gain2,gain4,A,K,9,42,outdoor_scenes,objects,84,58,Stimuli/Experimental_stims/outdoor_scenes/sergey-pesterev-y-b_FOmJXdg-unsplash.jpg,Stimuli/Experimental_stims/objects/jess-bailey-nOeVi8DsN8U-unsplash.jpg,0,0,320,1,chosen,42,9,objects,outdoor_scenes,1500,0,4,1
127,87740,0,128,2,2,0,no_gain5,gain2,D,L,37,22,objects,faces,81,79,Stimuli/Experimental_stims/objects/alexander-andrews-VLGWE_SumrA-unsplash.jpg,Stimuli/Experimental_stims/faces/ravi-patel-VMGAbeeJTKo-unsplash.jpg,0,0,128,1,chosen,22,37,faces,objects,3300,1,4,1
128,87740,0,129,2,2,0,no_gain4,gain1,F,G,26,7,body_parts,outdoor_scenes,78,100,Stimuli/Experimental_stims/body_parts/engin-akyurt-x_3gyC42btc-unsplash.jpg,Stimuli/Experimental_stims/outdoor_scenes/petr-vysohlid-9fqwGqGLUxc-unsplash.jpg,0,1,450,0,chosen,26,7,body_parts,outdoor_scenes,2200,0,4,1
129,87740,0,130,2,2,0,no_gain5,gain6,D,B,18,13,faces,faces,66,63,Stimuli/Experimental_stims/faces/jessica-radanavong-mrYkTuAesKE-unsplash.jpg,Stimuli/Experimental_stims/faces/daniel-rigdon-dXmXKPP2L4E-unsplash.jpg,0,0,430,1,unchosen,13,18,faces,faces,2400,0,4,1
130,87740,0,131,2,2,1,gain2,no_gain3,L,C,22,5,faces,outdoor_scenes,79,99,Stimuli/Experimental_stims/faces/ravi-patel-VMGAbeeJTKo-unsplash.jpg,Stimuli/Experimental_stims/outdoor_scenes/jeff-king-bJHWJeiHfHc-unsplash.jpg,0,1,515,1,chosen,22,5,faces,outdoor_scenes,1300,0,4,1
131,87740,0,132,2,2,1,gain6,no_gain4,B,F,13,16,faces,faces,63,66,Stimuli/Experimental_stims/faces/daniel-rigdon-dXmXKPP2L4E-unsplash.jpg,Stimuli/Experimental_stims/faces/freddy-kearney-o-ioeoATbIM-unsplash.jpg,0,1,225,1,unchosen,13,16,faces,faces,2400,0,4,1
132,87740,0,133,2,2,0,no_gain1,gain4,I,K,31,35,body_parts,body_parts,72,90,Stimuli/Experimental_stims/body_parts/sincerely-media-VN6DbKajo5s-unsplash.jpg,Stimuli/Experimental_stims/body_parts/wc-so-KH4AAPjb-tI-unsplash.jpg,0,0,524,1,unchosen,35,31,body_parts,body_parts,2200,0,4,1
133,87740,0,134,2,2,0,no_gain6,gain4,J,K,19,42,faces,objects,83,58,Stimuli/Experimental_stims/faces/joel-mott-LaK153ghdig-unsplash.jpg,Stimuli/Experimental_stims/objects/jess-bailey-nOeVi8DsN8U-unsplash.jpg,0,1,165,0,chosen,19,42,faces,objects,2900,1,4,1
134,87740,0,135,2,2,1,gain1,no_gain6,G,J,7,19,outdoor_scenes,faces,100,83,Stimuli/Experimental_stims/outdoor_scenes/petr-vysohlid-9fqwGqGLUxc-unsplash.jpg,Stimuli/Experimental_stims/faces/joel-mott-LaK153ghdig-unsplash.jpg,0,1,13,1,chosen,7,19,outdoor_scenes,faces,1900,0,4,1
135,87740,0,136,2,2,0,no_gain1,gain2,I,L,31,30,body_parts,body_parts,72,76,Stimuli/Experimental_stims/body_parts/sincerely-media-VN6DbKajo5s-unsplash.jpg,Stimuli/Experimental_stims/body_parts/mika-korhonen-Xodzxosar18-unsplash.jpg,0,0,152,1,unchosen,30,31,body_parts,body_parts,1700,0,4,1
136,87740,0,137,2,2,0,no_gain4,gain2,F,L,16,30,faces,body_parts,66,76,Stimuli/Experimental_stims/faces/freddy-kearney-o-ioeoATbIM-unsplash.jpg,Stimuli/Experimental_stims/body_parts/mika-korhonen-Xodzxosar18-unsplash.jpg,0,1,536,0,unchosen,16,30,faces,body_parts,1900,0,4,1
137,87740,0,138,2,2,1,gain6,no_gain6,B,J,0,19,outdoor_scenes,faces,98,83,Stimuli/Experimental_stims/outdoor_scenes/aleksandra-boguslawska-MS7KD9Ti7FQ-unsplash.jpg,Stimuli/Experimental_stims/faces/joel-mott-LaK153ghdig-unsplash.jpg,0,1,62,1,chosen,0,19,outdoor_scenes,faces,1700,0,4,1
138,87740,0,139,2,2,0,no_gain3,gain2,C,L,29,30,body_parts,body_parts,82,76,Stimuli/Experimental_stims/body_parts/manuel-schinner-ZwjFuJ7ebpk-unsplash.jpg,Stimuli/Experimental_stims/body_parts/mika-korhonen-Xodzxosar18-unsplash.jpg,0,1,175,0,unchosen,29,30,body_parts,body_parts,1300,0,4,1
139,87740,0,140,2,2,1,gain5,no_gain4,H,F,1,16,outdoor_scenes,faces,76,66,Stimuli/Experimental_stims/outdoor_scenes/ashim-d-silva-S2Q5mdOrrVc-unsplash.jpg,Stimuli/Experimental_stims/faces/freddy-kearney-o-ioeoATbIM-unsplash.jpg,0,1,637,1,unchosen,1,16,outdoor_scenes,faces,3600,1,4,1
140,87740,0,141,2,2,1,gain5,no_gain4,H,F,14,26,faces,body_parts,59,78,Stimuli/Experimental_stims/faces/david-siglin-UuW4psOb388-unsplash.jpg,Stimuli/Experimental_stims/body_parts/engin-akyurt-x_3gyC42btc-unsplash.jpg,0,1,374,1,chosen,14,26,faces,body_parts,1700,0,4,1
141,87740,0,142,2,2,0,no_gain6,gain2,J,L,19,22,faces,faces,83,79,Stimuli/Experimental_stims/faces/joel-mott-LaK153ghdig-unsplash.jpg,Stimuli/Experimental_stims/faces/ravi-patel-VMGAbeeJTKo-unsplash.jpg,0,1,251,0,chosen,19,22,faces,faces,1900,0,4,1
142,87740,0,143,2,2,0,no_gain2,gain1,A,G,9,7,outdoor_scenes,outdoor_scenes,84,100,Stimuli/Experimental_stims/outdoor_scenes/sergey-pesterev-y-b_FOmJXdg-unsplash.jpg,Stimuli/Experimental_stims/outdoor_scenes/petr-vysohlid-9fqwGqGLUxc-unsplash.jpg,0,0,242,1,chosen,7,9,outdoor_scenes,outdoor_scenes,2200,0,4,1
143,87740,0,144,2,2,0,no_gain3,gain5,C,H,29,1,body_parts,outdoor_scenes,82,76,Stimuli/Experimental_stims/body_parts/manuel-schinner-ZwjFuJ7ebpk-unsplash.jpg,Stimuli/Experimental_stims/outdoor_scenes/ashim-d-silva-S2Q5mdOrrVc-unsplash.jpg,0,0,158,1,unchosen,1,29,outdoor_scenes,body_parts,1800,0,4,1
144,87740,0,145,2,2,0,no_gain6,gain3,J,E,41,44,objects,objects,44,74,Stimuli/Experimental_stims/objects/insung-yoon-w2JtIQQXoRU-unsplash.jpg,Stimuli/Experimental_stims/objects/kuiye-chen-NuOGFo4PudE-unsplash.jpg,0,1,605,0,unchosen,41,44,objects,objects,1400,0,4,1
145,87740,0,146,2,2,0,no_gain2,gain3,A,E,9,25,outdoor_scenes,body_parts,84,77,Stimuli/Experimental_stims/outdoor_scenes/sergey-pesterev-y-b_FOmJXdg-unsplash.jpg,Stimuli/Experimental_stims/body_parts/engin-akyurt-Q2rfH3GW39c-unsplash.jpg,0,0,486,1,chosen,25,9,body_parts,outdoor_scenes,1800,0,4,1
146,87740,0,147,2,2,1,gain3,no_gain2,E,A,44,36,objects,objects,74,71,Stimuli/Experimental_stims/objects/kuiye-chen-NuOGFo4PudE-unsplash.jpg,Stimuli/Experimental_stims/objects/alexander-andrews-JYGnB9gTCls-unsplash.jpg,0,1,370,1,unchosen,44,36,objects,objects,1300,0,4,1
147,87740,0,148,2,2,1,gain1,no_gain6,G,J,45,41,objects,objects,89,44,Stimuli/Experimental_stims/objects/leohoho-rngTKHXumy0-unsplash.jpg,Stimuli/Experimental_stims/objects/insung-yoon-w2JtIQQXoRU-unsplash.jpg,0,0,153,0,unchosen,41,45,objects,objects,3600,1,4,1
148,87740,0,149,3,3,1,gain3,no_gain6,E,J,44,41,objects,objects,74,44,Stimuli/Experimental_stims/objects/kuiye-chen-NuOGFo4PudE-unsplash.jpg,Stimuli/Experimental_stims/objects/insung-yoon-w2JtIQQXoRU-unsplash.jpg,0,1,1113,1,unchosen,44,41,objects,objects,1200,0,5,1
149,87740,0,150,3,3,1,gain3,no_gain3,E,C,25,5,body_parts,outdoor_scenes,77,99,Stimuli/Experimental_stims/body_parts/engin-akyurt-Q2rfH3GW39c-unsplash.jpg,Stimuli/Experimental_stims/outdoor_scenes/jeff-king-bJHWJeiHfHc-unsplash.jpg,0,1,1067,1,chosen,25,5,body_parts,outdoor_scenes,1100,0,5,1
150,87740,0,151,3,3,1,gain1,no_gain4,G,F,7,26,outdoor_scenes,body_parts,100,78,Stimuli/Experimental_stims/outdoor_scenes/petr-vysohlid-9fqwGqGLUxc-unsplash.jpg,Stimuli/Experimental_stims/body_parts/engin-akyurt-x_3gyC42btc-unsplash.jpg,0,0,24,0,chosen,26,7,body_parts,outdoor_scenes,1100,0,5,1
151,87740,0,152,3,3,1,gain5,no_gain6,H,J,1,41,outdoor_scenes,objects,76,44,Stimuli/Experimental_stims/outdoor_scenes/ashim-d-silva-S2Q5mdOrrVc-unsplash.jpg,Stimuli/Experimental_stims/objects/insung-yoon-w2JtIQQXoRU-unsplash.jpg,0,1,1,1,unchosen,1,41,outdoor_scenes,objects,1300,0,5,1
152,87740,0,153,3,3,1,gain2,no_gain6,L,J,22,19,faces,faces,79,83,Stimuli/Experimental_stims/faces/ravi-patel-VMGAbeeJTKo-unsplash.jpg,Stimuli/Experimental_stims/faces/joel-mott-LaK153ghdig-unsplash.jpg,0,0,305,0,chosen,19,22,faces,faces,3300,1,5,1
153,87740,0,154,3,3,1,gain6,no_gain6,B,J,0,19,outdoor_scenes,faces,98,83,Stimuli/Experimental_stims/outdoor_scenes/aleksandra-boguslawska-MS7KD9Ti7FQ-unsplash.jpg,Stimuli/Experimental_stims/faces/joel-mott-LaK153ghdig-unsplash.jpg,0,1,407,1,chosen,0,19,outdoor_scenes,faces,1000,0,5,1
154,87740,0,155,3,3,1,gain1,no_gain2,G,A,45,36,objects,objects,89,71,Stimuli/Experimental_stims/objects/leohoho-rngTKHXumy0-unsplash.jpg,Stimuli/Experimental_stims/objects/alexander-andrews-JYGnB9gTCls-unsplash.jpg,0,0,156,0,unchosen,36,45,objects,objects,1300,0,5,1
155,87740,0,156,3,3,0,no_gain4,gain3,F,E,26,25,body_parts,body_parts,78,77,Stimuli/Experimental_stims/body_parts/engin-akyurt-x_3gyC42btc-unsplash.jpg,Stimuli/Experimental_stims/body_parts/engin-akyurt-Q2rfH3GW39c-unsplash.jpg,0,0,511,1,chosen,25,26,body_parts,body_parts,1300,0,5,1
156,87740,0,157,3,3,0,no_gain4,gain4,F,K,26,42,body_parts,objects,78,58,Stimuli/Experimental_stims/body_parts/engin-akyurt-x_3gyC42btc-unsplash.jpg,Stimuli/Experimental_stims/objects/jess-bailey-nOeVi8DsN8U-unsplash.jpg,0,0,14,1,chosen,42,26,objects,body_parts,1600,0,5,1
157,87740,0,158,3,3,1,gain6,no_gain3,B,C,0,5,outdoor_scenes,outdoor_scenes,98,99,Stimuli/Experimental_stims/outdoor_scenes/aleksandra-boguslawska-MS7KD9Ti7FQ-unsplash.jpg,Stimuli/Experimental_stims/outdoor_scenes/jeff-king-bJHWJeiHfHc-unsplash.jpg,0,1,242,1,chosen,0,5,outdoor_scenes,outdoor_scenes,1400,0,5,1
158,87740,0,159,3,3,0,no_gain1,gain2,I,L,31,30,body_parts,body_parts,72,76,Stimuli/Experimental_stims/body_parts/sincerely-media-VN6DbKajo5s-unsplash.jpg,Stimuli/Experimental_stims/body_parts/mika-korhonen-Xodzxosar18-unsplash.jpg,0,1,402,0,unchosen,31,30,body_parts,body_parts,2100,0,5,1
159,87740,0,160,3,3,0,no_gain4,gain3,F,E,16,44,faces,objects,66,74,Stimuli/Experimental_stims/faces/freddy-kearney-o-ioeoATbIM-unsplash.jpg,Stimuli/Experimental_stims/objects/kuiye-chen-NuOGFo4PudE-unsplash.jpg,0,0,378,1,unchosen,44,16,objects,faces,1200,0,5,1
160,87740,0,161,3,3,0,no_gain1,gain3,I,E,2,25,outdoor_scenes,body_parts,99,77,Stimuli/Experimental_stims/outdoor_scenes/bruno-van-der-kraan-qez8mNJ3ilU-unsplash.jpg,Stimuli/Experimental_stims/body_parts/engin-akyurt-Q2rfH3GW39c-unsplash.jpg,0,0,507,1,chosen,25,2,body_parts,outdoor_scenes,4100,1,5,1
161,87740,0,162,3,3,0,no_gain1,gain4,I,K,31,35,body_parts,body_parts,72,90,Stimuli/Experimental_stims/body_parts/sincerely-media-VN6DbKajo5s-unsplash.jpg,Stimuli/Experimental_stims/body_parts/wc-so-KH4AAPjb-tI-unsplash.jpg,0,0,98,1,unchosen,35,31,body_parts,body_parts,1900,0,5,1
162,87740,0,163,3,3,1,gain5,no_gain5,H,D,14,37,faces,objects,59,81,Stimuli/Experimental_stims/faces/david-siglin-UuW4psOb388-unsplash.jpg,Stimuli/Experimental_stims/objects/alexander-andrews-VLGWE_SumrA-unsplash.jpg,0,0,135,0,chosen,37,14,objects,faces,2000,0,5,1
163,87740,0,164,3,3,0,no_gain2,gain5,A,H,36,1,objects,outdoor_scenes,71,76,Stimuli/Experimental_stims/objects/alexander-andrews-JYGnB9gTCls-unsplash.jpg,Stimuli/Experimental_stims/outdoor_scenes/ashim-d-silva-S2Q5mdOrrVc-unsplash.jpg,0,0,350,1,unchosen,1,36,outdoor_scenes,objects,2600,0,5,1
164,87740,0,165,3,3,1,gain1,no_gain4,G,F,45,16,objects,faces,89,66,Stimuli/Experimental_stims/objects/leohoho-rngTKHXumy0-unsplash.jpg,Stimuli/Experimental_stims/faces/freddy-kearney-o-ioeoATbIM-unsplash.jpg,0,0,166,0,unchosen,16,45,faces,objects,1100,0,5,1
165,87740,0,166,3,3,0,no_gain4,gain5,F,H,26,14,body_parts,faces,78,59,Stimuli/Experimental_stims/body_parts/engin-akyurt-x_3gyC42btc-unsplash.jpg,Stimuli/Experimental_stims/faces/david-siglin-UuW4psOb388-unsplash.jpg,0,1,245,0,chosen,26,14,body_parts,faces,4400,1,5,1
166,87740,0,167,3,3,0,no_gain5,gain4,D,K,18,35,faces,body_parts,66,90,Stimuli/Experimental_stims/faces/jessica-radanavong-mrYkTuAesKE-unsplash.jpg,Stimuli/Experimental_stims/body_parts/wc-so-KH4AAPjb-tI-unsplash.jpg,0,0,270,1,unchosen,35,18,body_parts,faces,1200,0,5,1
167,87740,0,168,3,3,0,no_gain5,gain6,D,B,37,0,objects,outdoor_scenes,81,98,Stimuli/Experimental_stims/objects/alexander-andrews-VLGWE_SumrA-unsplash.jpg,Stimuli/Experimental_stims/outdoor_scenes/aleksandra-boguslawska-MS7KD9Ti7FQ-unsplash.jpg,0,0,211,1,chosen,0,37,outdoor_scenes,objects,1100,0,5,1
168,87740,0,169,3,3,1,gain1,no_gain6,G,J,45,41,objects,objects,89,44,Stimuli/Experimental_stims/objects/leohoho-rngTKHXumy0-unsplash.jpg,Stimuli/Experimental_stims/objects/insung-yoon-w2JtIQQXoRU-unsplash.jpg,0,0,289,0,unchosen,41,45,objects,objects,1700,0,5,1
169,87740,0,170,3,3,1,gain2,no_gain2,L,A,22,9,faces,outdoor_scenes,79,84,Stimuli/Experimental_stims/faces/ravi-patel-VMGAbeeJTKo-unsplash.jpg,Stimuli/Experimental_stims/outdoor_scenes/sergey-pesterev-y-b_FOmJXdg-unsplash.jpg,0,1,192,1,chosen,22,9,faces,outdoor_scenes,1100,0,5,1
170,87740,0,171,3,3,0,no_gain2,gain4,A,K,36,35,objects,body_parts,71,90,Stimuli/Experimental_stims/objects/alexander-andrews-JYGnB9gTCls-unsplash.jpg,Stimuli/Experimental_stims/body_parts/wc-so-KH4AAPjb-tI-unsplash.jpg,0,1,340,0,unchosen,36,35,objects,body_parts,3300,1,5,1
171,87740,0,172,3,3,0,no_gain3,gain2,C,L,5,22,outdoor_scenes,faces,99,79,Stimuli/Experimental_stims/outdoor_scenes/jeff-king-bJHWJeiHfHc-unsplash.jpg,Stimuli/Experimental_stims/faces/ravi-patel-VMGAbeeJTKo-unsplash.jpg,0,0,1095,1,chosen,22,5,faces,outdoor_scenes,2800,0,5,1
172,87740,0,173,3,3,0,no_gain4,gain2,F,L,26,22,body_parts,faces,78,79,Stimuli/Experimental_stims/body_parts/engin-akyurt-x_3gyC42btc-unsplash.jpg,Stimuli/Experimental_stims/faces/ravi-patel-VMGAbeeJTKo-unsplash.jpg,0,0,392,1,chosen,22,26,faces,body_parts,1000,0,5,1
173,87740,0,174,3,3,0,no_gain1,gain6,I,B,31,13,body_parts,faces,72,63,Stimuli/Experimental_stims/body_parts/sincerely-media-VN6DbKajo5s-unsplash.jpg,Stimuli/Experimental_stims/faces/daniel-rigdon-dXmXKPP2L4E-unsplash.jpg,0,1,210,0,unchosen,31,13,body_parts,faces,3100,0,5,1
174,87740,0,175,3,3,1,gain4,no_gain1,K,I,42,2,objects,outdoor_scenes,58,99,Stimuli/Experimental_stims/objects/jess-bailey-nOeVi8DsN8U-unsplash.jpg,Stimuli/Experimental_stims/outdoor_scenes/bruno-van-der-kraan-qez8mNJ3ilU-unsplash.jpg,0,0,303,0,chosen,2,42,outdoor_scenes,objects,2000,0,5,1
175,87740,0,176,3,3,0,no_gain6,gain6,J,B,41,13,objects,faces,44,63,Stimuli/Experimental_stims/objects/insung-yoon-w2JtIQQXoRU-unsplash.jpg,Stimuli/Experimental_stims/faces/daniel-rigdon-dXmXKPP2L4E-unsplash.jpg,0,1,170,0,unchosen,41,13,objects,faces,2300,0,5,1
176,87740,0,177,3,3,0,no_gain2,gain5,A,H,9,14,outdoor_scenes,faces,84,59,Stimuli/Experimental_stims/outdoor_scenes/sergey-pesterev-y-b_FOmJXdg-unsplash.jpg,Stimuli/Experimental_stims/faces/david-siglin-UuW4psOb388-unsplash.jpg,0,0,126,1,chosen,14,9,faces,outdoor_scenes,1500,0,5,1
177,87740,0,178,3,3,0,no_gain5,gain2,D,L,18,30,faces,body_parts,66,76,Stimuli/Experimental_stims/faces/jessica-radanavong-mrYkTuAesKE-unsplash.jpg,Stimuli/Experimental_stims/body_parts/mika-korhonen-Xodzxosar18-unsplash.jpg,0,1,413,0,unchosen,18,30,faces,body_parts,1600,0,5,1
178,87740,0,179,3,3,1,gain6,no_gain1,B,I,0,2,outdoor_scenes,outdoor_scenes,98,99,Stimuli/Experimental_stims/outdoor_scenes/aleksandra-boguslawska-MS7KD9Ti7FQ-unsplash.jpg,Stimuli/Experimental_stims/outdoor_scenes/bruno-van-der-kraan-qez8mNJ3ilU-unsplash.jpg,0,0,83,0,chosen,2,0,outdoor_scenes,outdoor_scenes,4200,1,5,1
179,87740,0,180,3,3,0,no_gain5,gain4,D,K,37,42,objects,objects,81,58,Stimuli/Experimental_stims/objects/alexander-andrews-VLGWE_SumrA-unsplash.jpg,Stimuli/Experimental_stims/objects/jess-bailey-nOeVi8DsN8U-unsplash.jpg,0,1,112,0,chosen,37,42,objects,objects,1000,0,5,1
180,87740,0,181,3,3,0,no_gain6,gain3,J,E,19,25,faces,body_parts,83,77,Stimuli/Experimental_stims/faces/joel-mott-LaK153ghdig-unsplash.jpg,Stimuli/Experimental_stims/body_parts/engin-akyurt-Q2rfH3GW39c-unsplash.jpg,0,0,838,1,chosen,25,19,body_parts,faces,2000,0,5,1
181,87740,0,182,3,3,1,gain4,no_gain3,K,C,35,29,body_parts,body_parts,90,82,Stimuli/Experimental_stims/body_parts/wc-so-KH4AAPjb-tI-unsplash.jpg,Stimuli/Experimental_stims/body_parts/manuel-schinner-ZwjFuJ7ebpk-unsplash.jpg,0,0,342,0,unchosen,29,35,body_parts,body_parts,1700,0,5,1
182,87740,0,183,3,3,1,gain2,no_gain6,L,J,30,41,body_parts,objects,76,44,Stimuli/Experimental_stims/body_parts/mika-korhonen-Xodzxosar18-unsplash.jpg,Stimuli/Experimental_stims/objects/insung-yoon-w2JtIQQXoRU-unsplash.jpg,0,1,26,1,unchosen,30,41,body_parts,objects,2300,0,5,1
183,87740,0,184,3,3,1,gain4,no_gain4,K,F,35,16,body_parts,faces,90,66,Stimuli/Experimental_stims/body_parts/wc-so-KH4AAPjb-tI-unsplash.jpg,Stimuli/Experimental_stims/faces/freddy-kearney-o-ioeoATbIM-unsplash.jpg,0,1,377,1,unchosen,35,16,body_parts,faces,3300,1,5,1
184,87740,0,185,3,3,0,no_gain1,gain2,I,L,2,22,outdoor_scenes,faces,99,79,Stimuli/Experimental_stims/outdoor_scenes/bruno-van-der-kraan-qez8mNJ3ilU-unsplash.jpg,Stimuli/Experimental_stims/faces/ravi-patel-VMGAbeeJTKo-unsplash.jpg,0,0,719,1,chosen,22,2,faces,outdoor_scenes,1100,0,5,1
185,87740,0,186,3,3,0,no_gain4,gain6,F,B,26,0,body_parts,outdoor_scenes,78,98,Stimuli/Experimental_stims/body_parts/engin-akyurt-x_3gyC42btc-unsplash.jpg,Stimuli/Experimental_stims/outdoor_scenes/aleksandra-boguslawska-MS7KD9Ti7FQ-unsplash.jpg,0,1,1363,0,chosen,26,0,body_parts,outdoor_scenes,1900,0,5,1
186,87740,0,187,3,3,1,gain3,no_gain5,E,D,25,37,body_parts,objects,77,81,Stimuli/Experimental_stims/body_parts/engin-akyurt-Q2rfH3GW39c-unsplash.jpg,Stimuli/Experimental_stims/objects/alexander-andrews-VLGWE_SumrA-unsplash.jpg,1,NaN,,NaN,chosen,NaN,NaN,NaN,NaN,2400,0,5,1
187,87740,0,188,3,3,0,no_gain2,gain6,A,B,36,13,objects,faces,71,63,Stimuli/Experimental_stims/objects/alexander-andrews-JYGnB9gTCls-unsplash.jpg,Stimuli/Experimental_stims/faces/daniel-rigdon-dXmXKPP2L4E-unsplash.jpg,1,NaN,,NaN,unchosen,NaN,NaN,NaN,NaN,1900,0,5,1
188,87740,0,189,3,3,0,no_gain1,gain1,I,G,31,45,body_parts,objects,72,89,Stimuli/Experimental_stims/body_parts/sincerely-media-VN6DbKajo5s-unsplash.jpg,Stimuli/Experimental_stims/objects/leohoho-rngTKHXumy0-unsplash.jpg,1,NaN,,NaN,unchosen,NaN,NaN,NaN,NaN,3300,1,5,1
189,87740,0,190,3,3,0,no_gain3,gain5,C,H,29,1,body_parts,outdoor_scenes,82,76,Stimuli/Experimental_stims/body_parts/manuel-schinner-ZwjFuJ7ebpk-unsplash.jpg,Stimuli/Experimental_stims/outdoor_scenes/ashim-d-silva-S2Q5mdOrrVc-unsplash.jpg,1,NaN,,NaN,unchosen,NaN,NaN,NaN,NaN,1200,0,5,1
190,87740,0,191,3,3,1,gain1,no_gain1,G,I,7,2,outdoor_scenes,outdoor_scenes,100,99,Stimuli/Experimental_stims/outdoor_scenes/petr-vysohlid-9fqwGqGLUxc-unsplash.jpg,Stimuli/Experimental_stims/outdoor_scenes/bruno-van-der-kraan-qez8mNJ3ilU-unsplash.jpg,0,0,57,0,chosen,2,7,outdoor_scenes,outdoor_scenes,1100,0,5,1
191,87740,0,192,3,3,0,no_gain4,gain5,F,H,16,1,faces,outdoor_scenes,66,76,Stimuli/Experimental_stims/faces/freddy-kearney-o-ioeoATbIM-unsplash.jpg,Stimuli/Experimental_stims/outdoor_scenes/ashim-d-silva-S2Q5mdOrrVc-unsplash.jpg,0,0,293,1,unchosen,1,16,outdoor_scenes,faces,1400,0,5,1
192,87740,0,193,3,3,1,gain3,no_gain1,E,I,44,31,objects,body_parts,74,72,Stimuli/Experimental_stims/objects/kuiye-chen-NuOGFo4PudE-unsplash.jpg,Stimuli/Experimental_stims/body_parts/sincerely-media-VN6DbKajo5s-unsplash.jpg,0,0,172,0,unchosen,31,44,body_parts,objects,2600,0,5,1
193,87740,0,194,3,3,1,gain6,no_gain4,B,F,13,16,faces,faces,63,66,Stimuli/Experimental_stims/faces/daniel-rigdon-dXmXKPP2L4E-unsplash.jpg,Stimuli/Experimental_stims/faces/freddy-kearney-o-ioeoATbIM-unsplash.jpg,0,0,879,0,unchosen,16,13,faces,faces,1100,0,5,1
194,87740,0,195,3,3,1,gain1,no_gain3,G,C,7,5,outdoor_scenes,outdoor_scenes,100,99,Stimuli/Experimental_stims/outdoor_scenes/petr-vysohlid-9fqwGqGLUxc-unsplash.jpg,Stimuli/Experimental_stims/outdoor_scenes/jeff-king-bJHWJeiHfHc-unsplash.jpg,0,1,793,1,chosen,7,5,outdoor_scenes,outdoor_scenes,4100,1,5,1
195,87740,0,196,3,3,1,gain6,no_gain3,B,C,13,29,faces,body_parts,63,82,Stimuli/Experimental_stims/faces/daniel-rigdon-dXmXKPP2L4E-unsplash.jpg,Stimuli/Experimental_stims/body_parts/manuel-schinner-ZwjFuJ7ebpk-unsplash.jpg,0,0,663,0,unchosen,29,13,body_parts,faces,1000,0,5,1
196,87740,0,197,3,3,0,no_gain3,gain4,C,K,5,42,outdoor_scenes,objects,99,58,Stimuli/Experimental_stims/outdoor_scenes/jeff-king-bJHWJeiHfHc-unsplash.jpg,Stimuli/Experimental_stims/objects/jess-bailey-nOeVi8DsN8U-unsplash.jpg,0,1,22,0,chosen,5,42,outdoor_scenes,objects,1800,0,5,1
197,87740,0,198,3,3,1,gain1,no_gain3,G,C,45,29,objects,body_parts,89,82,Stimuli/Experimental_stims/objects/leohoho-rngTKHXumy0-unsplash.jpg,Stimuli/Experimental_stims/body_parts/manuel-schinner-ZwjFuJ7ebpk-unsplash.jpg,0,0,887,0,unchosen,29,45,body_parts,objects,1600,0,5,1
198,87740,0,199,3,3,1,gain4,no_gain6,K,J,35,41,body_parts,objects,90,44,Stimuli/Experimental_stims/body_parts/wc-so-KH4AAPjb-tI-unsplash.jpg,Stimuli/Experimental_stims/objects/insung-yoon-w2JtIQQXoRU-unsplash.jpg,0,1,148,1,unchosen,35,41,body_parts,objects,2100,0,5,1
199,87740,0,200,3,3,1,gain2,no_gain4,L,F,30,16,body_parts,faces,76,66,Stimuli/Experimental_stims/body_parts/mika-korhonen-Xodzxosar18-unsplash.jpg,Stimuli/Experimental_stims/faces/freddy-kearney-o-ioeoATbIM-unsplash.jpg,0,0,529,0,unchosen,16,30,faces,body_parts,1700,0,5,1
200,87740,0,201,3,3,1,gain5,no_gain3,H,C,14,5,faces,outdoor_scenes,59,99,Stimuli/Experimental_stims/faces/david-siglin-UuW4psOb388-unsplash.jpg,Stimuli/Experimental_stims/outdoor_scenes/jeff-king-bJHWJeiHfHc-unsplash.jpg,0,0,139,0,chosen,5,14,outdoor_scenes,faces,3200,1,5,1
201,87740,0,202,3,3,0,no_gain6,gain4,J,K,19,42,faces,objects,83,58,Stimuli/Experimental_stims/faces/joel-mott-LaK153ghdig-unsplash.jpg,Stimuli/Experimental_stims/objects/jess-bailey-nOeVi8DsN8U-unsplash.jpg,0,1,473,0,chosen,19,42,faces,objects,1100,0,5,1
202,87740,0,203,3,3,1,gain2,no_gain2,L,A,30,36,body_parts,objects,76,71,Stimuli/Experimental_stims/body_parts/mika-korhonen-Xodzxosar18-unsplash.jpg,Stimuli/Experimental_stims/objects/alexander-andrews-JYGnB9gTCls-unsplash.jpg,0,0,494,0,unchosen,36,30,objects,body_parts,2800,0,5,1
203,87740,0,204,3,3,1,gain2,no_gain5,L,D,22,37,faces,objects,79,81,Stimuli/Experimental_stims/faces/ravi-patel-VMGAbeeJTKo-unsplash.jpg,Stimuli/Experimental_stims/objects/alexander-andrews-VLGWE_SumrA-unsplash.jpg,0,0,134,0,chosen,37,22,objects,faces,1400,0,5,1
204,87740,0,205,3,3,1,gain1,no_gain2,G,A,7,9,outdoor_scenes,outdoor_scenes,100,84,Stimuli/Experimental_stims/outdoor_scenes/petr-vysohlid-9fqwGqGLUxc-unsplash.jpg,Stimuli/Experimental_stims/outdoor_scenes/sergey-pesterev-y-b_FOmJXdg-unsplash.jpg,0,0,428,0,chosen,9,7,outdoor_scenes,outdoor_scenes,2200,0,5,1
205,87740,0,206,3,3,1,gain3,no_gain3,E,C,44,29,objects,body_parts,74,82,Stimuli/Experimental_stims/objects/kuiye-chen-NuOGFo4PudE-unsplash.jpg,Stimuli/Experimental_stims/body_parts/manuel-schinner-ZwjFuJ7ebpk-unsplash.jpg,0,1,413,1,unchosen,44,29,objects,body_parts,1200,0,5,1
206,87740,0,207,3,3,0,no_gain6,gain5,J,H,19,14,faces,faces,83,59,Stimuli/Experimental_stims/faces/joel-mott-LaK153ghdig-unsplash.jpg,Stimuli/Experimental_stims/faces/david-siglin-UuW4psOb388-unsplash.jpg,0,1,563,0,chosen,19,14,faces,faces,2100,0,5,1
207,87740,0,208,3,3,1,gain1,no_gain5,G,D,7,37,outdoor_scenes,objects,100,81,Stimuli/Experimental_stims/outdoor_scenes/petr-vysohlid-9fqwGqGLUxc-unsplash.jpg,Stimuli/Experimental_stims/objects/alexander-andrews-VLGWE_SumrA-unsplash.jpg,0,1,380,1,chosen,7,37,outdoor_scenes,objects,2600,0,5,1
208,87740,0,209,3,3,0,no_gain2,gain3,A,E,36,44,objects,objects,71,74,Stimuli/Experimental_stims/objects/alexander-andrews-JYGnB9gTCls-unsplash.jpg,Stimuli/Experimental_stims/objects/kuiye-chen-NuOGFo4PudE-unsplash.jpg,0,1,202,0,unchosen,36,44,objects,objects,3800,1,5,1
209,87740,0,210,3,3,0,no_gain6,gain1,J,G,19,7,faces,outdoor_scenes,83,100,Stimuli/Experimental_stims/faces/joel-mott-LaK153ghdig-unsplash.jpg,Stimuli/Experimental_stims/outdoor_scenes/petr-vysohlid-9fqwGqGLUxc-unsplash.jpg,0,0,62,1,chosen,7,19,outdoor_scenes,faces,2300,0,5,1
210,87740,0,211,3,3,1,gain3,no_gain2,E,A,25,9,body_parts,outdoor_scenes,77,84,Stimuli/Experimental_stims/body_parts/engin-akyurt-Q2rfH3GW39c-unsplash.jpg,Stimuli/Experimental_stims/outdoor_scenes/sergey-pesterev-y-b_FOmJXdg-unsplash.jpg,0,0,102,0,chosen,9,25,outdoor_scenes,body_parts,1500,0,5,1
211,87740,0,212,3,3,0,no_gain3,gain2,C,L,29,30,body_parts,body_parts,82,76,Stimuli/Experimental_stims/body_parts/manuel-schinner-ZwjFuJ7ebpk-unsplash.jpg,Stimuli/Experimental_stims/body_parts/mika-korhonen-Xodzxosar18-unsplash.jpg,0,1,323,0,unchosen,29,30,body_parts,body_parts,1700,0,5,1
212,87740,0,213,3,3,1,gain5,no_gain5,H,D,1,18,outdoor_scenes,faces,76,66,Stimuli/Experimental_stims/outdoor_scenes/ashim-d-silva-S2Q5mdOrrVc-unsplash.jpg,Stimuli/Experimental_stims/faces/jessica-radanavong-mrYkTuAesKE-unsplash.jpg,0,1,195,1,unchosen,1,18,outdoor_scenes,faces,1000,0,5,1
213,87740,0,214,3,3,1,gain6,no_gain5,B,D,13,18,faces,faces,63,66,Stimuli/Experimental_stims/faces/daniel-rigdon-dXmXKPP2L4E-unsplash.jpg,Stimuli/Experimental_stims/faces/jessica-radanavong-mrYkTuAesKE-unsplash.jpg,0,0,469,0,unchosen,18,13,faces,faces,2800,0,5,1
214,87740,0,215,3,3,0,no_gain1,gain5,I,H,2,14,outdoor_scenes,faces,99,59,Stimuli/Experimental_stims/outdoor_scenes/bruno-van-der-kraan-qez8mNJ3ilU-unsplash.jpg,Stimuli/Experimental_stims/faces/david-siglin-UuW4psOb388-unsplash.jpg,0,0,364,1,chosen,14,2,faces,outdoor_scenes,2400,0,5,1
215,87740,0,216,3,3,0,no_gain1,gain5,I,H,31,1,body_parts,outdoor_scenes,72,76,Stimuli/Experimental_stims/body_parts/sincerely-media-VN6DbKajo5s-unsplash.jpg,Stimuli/Experimental_stims/outdoor_scenes/ashim-d-silva-S2Q5mdOrrVc-unsplash.jpg,0,1,295,0,unchosen,31,1,body_parts,outdoor_scenes,3800,1,5,1
216,87740,0,217,3,3,0,no_gain5,gain3,D,E,18,44,faces,objects,66,74,Stimuli/Experimental_stims/faces/jessica-radanavong-mrYkTuAesKE-unsplash.jpg,Stimuli/Experimental_stims/objects/kuiye-chen-NuOGFo4PudE-unsplash.jpg,0,1,3,0,unchosen,18,44,faces,objects,1500,0,5,1
217,87740,0,218,3,3,0,no_gain5,gain1,D,G,18,45,faces,objects,66,89,Stimuli/Experimental_stims/faces/jessica-radanavong-mrYkTuAesKE-unsplash.jpg,Stimuli/Experimental_stims/objects/leohoho-rngTKHXumy0-unsplash.jpg,0,0,374,1,unchosen,45,18,objects,faces,1100,0,5,1
218,87740,0,219,3,3,1,gain4,no_gain2,K,A,42,9,objects,outdoor_scenes,58,84,Stimuli/Experimental_stims/objects/jess-bailey-nOeVi8DsN8U-unsplash.jpg,Stimuli/Experimental_stims/outdoor_scenes/sergey-pesterev-y-b_FOmJXdg-unsplash.jpg,0,1,177,1,chosen,42,9,objects,outdoor_scenes,1500,0,5,1
219,87740,0,220,3,3,0,no_gain2,gain6,A,B,9,0,outdoor_scenes,outdoor_scenes,84,98,Stimuli/Experimental_stims/outdoor_scenes/sergey-pesterev-y-b_FOmJXdg-unsplash.jpg,Stimuli/Experimental_stims/outdoor_scenes/aleksandra-boguslawska-MS7KD9Ti7FQ-unsplash.jpg,0,1,75,0,chosen,9,0,outdoor_scenes,outdoor_scenes,2500,0,5,1
220,87740,0,221,4,4,0,no_gain5,gain1,D,G,18,45,faces,objects,66,89,Stimuli/Experimental_stims/faces/jessica-radanavong-mrYkTuAesKE-unsplash.jpg,Stimuli/Experimental_stims/objects/leohoho-rngTKHXumy0-unsplash.jpg,0,1,1228,0,unchosen,18,45,faces,objects,3400,1,3,1
221,87740,0,222,4,4,0,no_gain5,gain4,D,K,37,42,objects,objects,81,58,Stimuli/Experimental_stims/objects/alexander-andrews-VLGWE_SumrA-unsplash.jpg,Stimuli/Experimental_stims/objects/jess-bailey-nOeVi8DsN8U-unsplash.jpg,0,0,315,1,chosen,42,37,objects,objects,1500,0,3,1
222,87740,0,223,4,4,0,no_gain2,gain3,A,E,36,44,objects,objects,71,74,Stimuli/Experimental_stims/objects/alexander-andrews-JYGnB9gTCls-unsplash.jpg,Stimuli/Experimental_stims/objects/kuiye-chen-NuOGFo4PudE-unsplash.jpg,0,1,162,0,unchosen,36,44,objects,objects,2000,0,3,1
223,87740,0,224,4,4,0,no_gain4,gain3,F,E,16,44,faces,objects,66,74,Stimuli/Experimental_stims/faces/freddy-kearney-o-ioeoATbIM-unsplash.jpg,Stimuli/Experimental_stims/objects/kuiye-chen-NuOGFo4PudE-unsplash.jpg,0,0,432,1,unchosen,44,16,objects,faces,1100,0,3,1
224,87740,0,225,4,4,0,no_gain1,gain6,I,B,31,13,body_parts,faces,72,63,Stimuli/Experimental_stims/body_parts/sincerely-media-VN6DbKajo5s-unsplash.jpg,Stimuli/Experimental_stims/faces/daniel-rigdon-dXmXKPP2L4E-unsplash.jpg,0,0,520,1,unchosen,13,31,faces,body_parts,2700,0,3,1
225,87740,0,226,4,4,0,no_gain4,gain2,F,L,26,22,body_parts,faces,78,79,Stimuli/Experimental_stims/body_parts/engin-akyurt-x_3gyC42btc-unsplash.jpg,Stimuli/Experimental_stims/faces/ravi-patel-VMGAbeeJTKo-unsplash.jpg,0,0,244,1,chosen,22,26,faces,body_parts,1700,0,3,1
226,87740,0,227,4,4,0,no_gain1,gain1,I,G,2,7,outdoor_scenes,outdoor_scenes,99,100,Stimuli/Experimental_stims/outdoor_scenes/bruno-van-der-kraan-qez8mNJ3ilU-unsplash.jpg,Stimuli/Experimental_stims/outdoor_scenes/petr-vysohlid-9fqwGqGLUxc-unsplash.jpg,0,0,78,1,chosen,7,2,outdoor_scenes,outdoor_scenes,3500,1,3,1
227,87740,0,228,4,4,0,no_gain3,gain3,C,E,29,44,body_parts,objects,82,74,Stimuli/Experimental_stims/body_parts/manuel-schinner-ZwjFuJ7ebpk-unsplash.jpg,Stimuli/Experimental_stims/objects/kuiye-chen-NuOGFo4PudE-unsplash.jpg,0,1,363,0,unchosen,29,44,body_parts,objects,2700,0,3,1
228,87740,0,229,4,4,1,gain4,no_gain5,K,D,35,18,body_parts,faces,90,66,Stimuli/Experimental_stims/body_parts/wc-so-KH4AAPjb-tI-unsplash.jpg,Stimuli/Experimental_stims/faces/jessica-radanavong-mrYkTuAesKE-unsplash.jpg,0,0,1023,0,unchosen,18,35,faces,body_parts,1500,0,3,1
229,87740,0,230,4,4,0,no_gain6,gain1,J,G,19,7,faces,outdoor_scenes,83,100,Stimuli/Experimental_stims/faces/joel-mott-LaK153ghdig-unsplash.jpg,Stimuli/Experimental_stims/outdoor_scenes/petr-vysohlid-9fqwGqGLUxc-unsplash.jpg,0,0,859,1,chosen,7,19,outdoor_scenes,faces,1700,0,3,1
230,87740,0,231,4,4,0,no_gain1,gain2,I,L,31,30,body_parts,body_parts,72,76,Stimuli/Experimental_stims/body_parts/sincerely-media-VN6DbKajo5s-unsplash.jpg,Stimuli/Experimental_stims/body_parts/mika-korhonen-Xodzxosar18-unsplash.jpg,0,1,936,0,unchosen,31,30,body_parts,body_parts,2300,0,3,1
231,87740,0,232,4,4,0,no_gain4,gain6,F,B,26,0,body_parts,outdoor_scenes,78,98,Stimuli/Experimental_stims/body_parts/engin-akyurt-x_3gyC42btc-unsplash.jpg,Stimuli/Experimental_stims/outdoor_scenes/aleksandra-boguslawska-MS7KD9Ti7FQ-unsplash.jpg,0,0,943,1,chosen,0,26,outdoor_scenes,body_parts,3100,1,3,1
232,87740,0,233,4,4,1,gain5,no_gain3,H,C,14,5,faces,outdoor_scenes,59,99,Stimuli/Experimental_stims/faces/david-siglin-UuW4psOb388-unsplash.jpg,Stimuli/Experimental_stims/outdoor_scenes/jeff-king-bJHWJeiHfHc-unsplash.jpg,0,0,862,0,chosen,5,14,outdoor_scenes,faces,1300,0,3,1
233,87740,0,234,4,4,1,gain1,no_gain3,G,C,7,5,outdoor_scenes,outdoor_scenes,100,99,Stimuli/Experimental_stims/outdoor_scenes/petr-vysohlid-9fqwGqGLUxc-unsplash.jpg,Stimuli/Experimental_stims/outdoor_scenes/jeff-king-bJHWJeiHfHc-unsplash.jpg,0,1,1114,1,chosen,7,5,outdoor_scenes,outdoor_scenes,1400,0,3,1
234,87740,0,235,4,4,1,gain2,no_gain4,L,F,30,16,body_parts,faces,76,66,Stimuli/Experimental_stims/body_parts/mika-korhonen-Xodzxosar18-unsplash.jpg,Stimuli/Experimental_stims/faces/freddy-kearney-o-ioeoATbIM-unsplash.jpg,0,0,717,0,unchosen,16,30,faces,body_parts,2500,0,3,1
235,87740,0,236,4,4,1,gain2,no_gain5,L,D,30,18,body_parts,faces,76,66,Stimuli/Experimental_stims/body_parts/mika-korhonen-Xodzxosar18-unsplash.jpg,Stimuli/Experimental_stims/faces/jessica-radanavong-mrYkTuAesKE-unsplash.jpg,0,1,595,1,unchosen,30,18,body_parts,faces,1500,0,3,1
236,87740,0,237,4,4,1,gain4,no_gain1,K,I,35,31,body_parts,body_parts,90,72,Stimuli/Experimental_stims/body_parts/wc-so-KH4AAPjb-tI-unsplash.jpg,Stimuli/Experimental_stims/body_parts/sincerely-media-VN6DbKajo5s-unsplash.jpg,0,0,958,0,unchosen,31,35,body_parts,body_parts,1900,0,3,1
237,87740,0,238,4,4,1,gain6,no_gain3,B,C,0,5,outdoor_scenes,outdoor_scenes,98,99,Stimuli/Experimental_stims/outdoor_scenes/aleksandra-boguslawska-MS7KD9Ti7FQ-unsplash.jpg,Stimuli/Experimental_stims/outdoor_scenes/jeff-king-bJHWJeiHfHc-unsplash.jpg,0,1,996,1,chosen,0,5,outdoor_scenes,outdoor_scenes,1200,0,3,1
238,87740,0,239,4,4,1,gain2,no_gain5,L,D,22,37,faces,objects,79,81,Stimuli/Experimental_stims/faces/ravi-patel-VMGAbeeJTKo-unsplash.jpg,Stimuli/Experimental_stims/objects/alexander-andrews-VLGWE_SumrA-unsplash.jpg,0,0,276,0,chosen,37,22,objects,faces,3500,1,3,1
239,87740,0,240,4,4,0,no_gain2,gain6,A,B,36,13,objects,faces,71,63,Stimuli/Experimental_stims/objects/alexander-andrews-JYGnB9gTCls-unsplash.jpg,Stimuli/Experimental_stims/faces/daniel-rigdon-dXmXKPP2L4E-unsplash.jpg,0,1,858,0,unchosen,36,13,objects,faces,1500,0,3,1
240,87740,0,241,4,4,1,gain5,no_gain6,H,J,14,19,faces,faces,59,83,Stimuli/Experimental_stims/faces/david-siglin-UuW4psOb388-unsplash.jpg,Stimuli/Experimental_stims/faces/joel-mott-LaK153ghdig-unsplash.jpg,0,1,256,1,chosen,14,19,faces,faces,2200,0,3,1
241,87740,0,242,4,4,1,gain6,no_gain2,B,A,0,9,outdoor_scenes,outdoor_scenes,98,84,Stimuli/Experimental_stims/outdoor_scenes/aleksandra-boguslawska-MS7KD9Ti7FQ-unsplash.jpg,Stimuli/Experimental_stims/outdoor_scenes/sergey-pesterev-y-b_FOmJXdg-unsplash.jpg,0,0,470,0,chosen,9,0,outdoor_scenes,outdoor_scenes,1100,0,3,1
242,87740,0,243,4,4,0,no_gain3,gain2,C,L,5,22,outdoor_scenes,faces,99,79,Stimuli/Experimental_stims/outdoor_scenes/jeff-king-bJHWJeiHfHc-unsplash.jpg,Stimuli/Experimental_stims/faces/ravi-patel-VMGAbeeJTKo-unsplash.jpg,0,0,954,1,chosen,22,5,faces,outdoor_scenes,1300,0,3,1
243,87740,0,244,4,4,0,no_gain3,gain5,C,H,29,1,body_parts,outdoor_scenes,82,76,Stimuli/Experimental_stims/body_parts/manuel-schinner-ZwjFuJ7ebpk-unsplash.jpg,Stimuli/Experimental_stims/outdoor_scenes/ashim-d-silva-S2Q5mdOrrVc-unsplash.jpg,0,0,443,1,unchosen,1,29,outdoor_scenes,body_parts,1500,0,3,1
244,87740,0,245,4,4,0,no_gain6,gain6,J,B,19,0,faces,outdoor_scenes,83,98,Stimuli/Experimental_stims/faces/joel-mott-LaK153ghdig-unsplash.jpg,Stimuli/Experimental_stims/outdoor_scenes/aleksandra-boguslawska-MS7KD9Ti7FQ-unsplash.jpg,0,1,173,0,chosen,19,0,faces,outdoor_scenes,1100,0,3,1
245,87740,0,246,4,4,1,gain3,no_gain6,E,J,25,19,body_parts,faces,77,83,Stimuli/Experimental_stims/body_parts/engin-akyurt-Q2rfH3GW39c-unsplash.jpg,Stimuli/Experimental_stims/faces/joel-mott-LaK153ghdig-unsplash.jpg,0,0,714,0,chosen,19,25,faces,body_parts,2000,0,3,1
246,87740,0,247,4,4,0,no_gain2,gain5,A,H,36,1,objects,outdoor_scenes,71,76,Stimuli/Experimental_stims/objects/alexander-andrews-JYGnB9gTCls-unsplash.jpg,Stimuli/Experimental_stims/outdoor_scenes/ashim-d-silva-S2Q5mdOrrVc-unsplash.jpg,0,1,0,0,unchosen,36,1,objects,outdoor_scenes,4700,1,3,1
247,87740,0,248,4,4,0,no_gain1,gain3,I,E,2,25,outdoor_scenes,body_parts,99,77,Stimuli/Experimental_stims/outdoor_scenes/bruno-van-der-kraan-qez8mNJ3ilU-unsplash.jpg,Stimuli/Experimental_stims/body_parts/engin-akyurt-Q2rfH3GW39c-unsplash.jpg,0,0,130,1,chosen,25,2,body_parts,outdoor_scenes,2400,0,3,1
248,87740,0,249,4,4,1,gain4,no_gain2,K,A,35,36,body_parts,objects,90,71,Stimuli/Experimental_stims/body_parts/wc-so-KH4AAPjb-tI-unsplash.jpg,Stimuli/Experimental_stims/objects/alexander-andrews-JYGnB9gTCls-unsplash.jpg,0,1,193,1,unchosen,35,36,body_parts,objects,1100,0,3,1
249,87740,0,250,4,4,1,gain6,no_gain5,B,D,0,37,outdoor_scenes,objects,98,81,Stimuli/Experimental_stims/outdoor_scenes/aleksandra-boguslawska-MS7KD9Ti7FQ-unsplash.jpg,Stimuli/Experimental_stims/objects/alexander-andrews-VLGWE_SumrA-unsplash.jpg,0,0,163,0,chosen,37,0,objects,outdoor_scenes,2400,0,3,1
250,87740,0,251,4,4,1,gain4,no_gain6,K,J,35,41,body_parts,objects,90,44,Stimuli/Experimental_stims/body_parts/wc-so-KH4AAPjb-tI-unsplash.jpg,Stimuli/Experimental_stims/objects/insung-yoon-w2JtIQQXoRU-unsplash.jpg,0,1,119,1,unchosen,35,41,body_parts,objects,1600,0,3,1
251,87740,0,252,4,4,0,no_gain1,gain1,I,G,31,45,body_parts,objects,72,89,Stimuli/Experimental_stims/body_parts/sincerely-media-VN6DbKajo5s-unsplash.jpg,Stimuli/Experimental_stims/objects/leohoho-rngTKHXumy0-unsplash.jpg,0,0,355,1,unchosen,45,31,objects,body_parts,2300,0,3,1
252,87740,0,253,4,4,0,no_gain3,gain4,C,K,5,42,outdoor_scenes,objects,99,58,Stimuli/Experimental_stims/outdoor_scenes/jeff-king-bJHWJeiHfHc-unsplash.jpg,Stimuli/Experimental_stims/objects/jess-bailey-nOeVi8DsN8U-unsplash.jpg,0,0,86,1,chosen,42,5,objects,outdoor_scenes,2500,0,3,1
253,87740,0,254,4,4,1,gain3,no_gain5,E,D,25,37,body_parts,objects,77,81,Stimuli/Experimental_stims/body_parts/engin-akyurt-Q2rfH3GW39c-unsplash.jpg,Stimuli/Experimental_stims/objects/alexander-andrews-VLGWE_SumrA-unsplash.jpg,0,1,229,1,chosen,25,37,body_parts,objects,3700,1,3,1
254,87740,0,255,4,4,1,gain2,no_gain1,L,I,22,2,faces,outdoor_scenes,79,99,Stimuli/Experimental_stims/faces/ravi-patel-VMGAbeeJTKo-unsplash.jpg,Stimuli/Experimental_stims/outdoor_scenes/bruno-van-der-kraan-qez8mNJ3ilU-unsplash.jpg,0,0,99,0,chosen,2,22,outdoor_scenes,faces,2100,0,3,1
255,87740,0,256,4,4,1,gain6,no_gain3,B,C,13,29,faces,body_parts,63,82,Stimuli/Experimental_stims/faces/daniel-rigdon-dXmXKPP2L4E-unsplash.jpg,Stimuli/Experimental_stims/body_parts/manuel-schinner-ZwjFuJ7ebpk-unsplash.jpg,0,0,255,0,unchosen,29,13,body_parts,faces,2300,0,3,1
256,87740,0,257,4,4,0,no_gain6,gain1,J,G,41,45,objects,objects,44,89,Stimuli/Experimental_stims/objects/insung-yoon-w2JtIQQXoRU-unsplash.jpg,Stimuli/Experimental_stims/objects/leohoho-rngTKHXumy0-unsplash.jpg,0,1,242,0,unchosen,41,45,objects,objects,1700,0,3,1
257,87740,0,258,4,4,0,no_gain4,gain6,F,B,16,13,faces,faces,66,63,Stimuli/Experimental_stims/faces/freddy-kearney-o-ioeoATbIM-unsplash.jpg,Stimuli/Experimental_stims/faces/daniel-rigdon-dXmXKPP2L4E-unsplash.jpg,0,1,1,0,unchosen,16,13,faces,faces,2900,0,3,1
258,87740,0,259,4,4,0,no_gain4,gain1,F,G,26,7,body_parts,outdoor_scenes,78,100,Stimuli/Experimental_stims/body_parts/engin-akyurt-x_3gyC42btc-unsplash.jpg,Stimuli/Experimental_stims/outdoor_scenes/petr-vysohlid-9fqwGqGLUxc-unsplash.jpg,0,0,590,1,chosen,7,26,outdoor_scenes,body_parts,3000,1,3,1
259,87740,0,260,4,4,1,gain2,no_gain3,L,C,30,29,body_parts,body_parts,76,82,Stimuli/Experimental_stims/body_parts/mika-korhonen-Xodzxosar18-unsplash.jpg,Stimuli/Experimental_stims/body_parts/manuel-schinner-ZwjFuJ7ebpk-unsplash.jpg,0,1,601,1,unchosen,30,29,body_parts,body_parts,2600,0,3,1
260,87740,0,261,4,4,0,no_gain6,gain5,J,H,41,1,objects,outdoor_scenes,44,76,Stimuli/Experimental_stims/objects/insung-yoon-w2JtIQQXoRU-unsplash.jpg,Stimuli/Experimental_stims/outdoor_scenes/ashim-d-silva-S2Q5mdOrrVc-unsplash.jpg,0,0,23,1,unchosen,1,41,outdoor_scenes,objects,1700,0,3,1
261,87740,0,262,4,4,0,no_gain3,gain1,C,G,29,45,body_parts,objects,82,89,Stimuli/Experimental_stims/body_parts/manuel-schinner-ZwjFuJ7ebpk-unsplash.jpg,Stimuli/Experimental_stims/objects/leohoho-rngTKHXumy0-unsplash.jpg,0,1,260,0,unchosen,29,45,body_parts,objects,1800,0,3,1
262,87740,0,263,4,4,1,gain5,no_gain5,H,D,14,37,faces,objects,59,81,Stimuli/Experimental_stims/faces/david-siglin-UuW4psOb388-unsplash.jpg,Stimuli/Experimental_stims/objects/alexander-andrews-VLGWE_SumrA-unsplash.jpg,0,0,27,0,chosen,37,14,objects,faces,1400,0,3,1
263,87740,0,264,4,4,0,no_gain2,gain1,A,G,9,7,outdoor_scenes,outdoor_scenes,84,100,Stimuli/Experimental_stims/outdoor_scenes/sergey-pesterev-y-b_FOmJXdg-unsplash.jpg,Stimuli/Experimental_stims/outdoor_scenes/petr-vysohlid-9fqwGqGLUxc-unsplash.jpg,0,0,191,1,chosen,7,9,outdoor_scenes,outdoor_scenes,2200,0,3,1
264,87740,0,265,4,4,0,no_gain2,gain1,A,G,36,45,objects,objects,71,89,Stimuli/Experimental_stims/objects/alexander-andrews-JYGnB9gTCls-unsplash.jpg,Stimuli/Experimental_stims/objects/leohoho-rngTKHXumy0-unsplash.jpg,0,1,76,0,unchosen,36,45,objects,objects,3500,1,3,1
265,87740,0,266,4,4,1,gain3,no_gain3,E,C,25,5,body_parts,outdoor_scenes,77,99,Stimuli/Experimental_stims/body_parts/engin-akyurt-Q2rfH3GW39c-unsplash.jpg,Stimuli/Experimental_stims/outdoor_scenes/jeff-king-bJHWJeiHfHc-unsplash.jpg,0,0,735,0,chosen,5,25,outdoor_scenes,body_parts,1400,0,3,1
266,87740,0,267,4,4,0,no_gain2,gain4,A,K,9,42,outdoor_scenes,objects,84,58,Stimuli/Experimental_stims/outdoor_scenes/sergey-pesterev-y-b_FOmJXdg-unsplash.jpg,Stimuli/Experimental_stims/objects/jess-bailey-nOeVi8DsN8U-unsplash.jpg,0,0,110,1,chosen,42,9,objects,outdoor_scenes,1100,0,3,1
267,87740,0,268,4,4,1,gain6,no_gain1,B,I,0,2,outdoor_scenes,outdoor_scenes,98,99,Stimuli/Experimental_stims/outdoor_scenes/aleksandra-boguslawska-MS7KD9Ti7FQ-unsplash.jpg,Stimuli/Experimental_stims/outdoor_scenes/bruno-van-der-kraan-qez8mNJ3ilU-unsplash.jpg,0,1,618,1,chosen,0,2,outdoor_scenes,outdoor_scenes,1300,0,3,1
268,87740,0,269,4,4,0,no_gain1,gain3,I,E,31,44,body_parts,objects,72,74,Stimuli/Experimental_stims/body_parts/sincerely-media-VN6DbKajo5s-unsplash.jpg,Stimuli/Experimental_stims/objects/kuiye-chen-NuOGFo4PudE-unsplash.jpg,0,0,227,1,unchosen,44,31,objects,body_parts,2600,0,3,1
269,87740,0,270,4,4,0,no_gain4,gain4,F,K,26,42,body_parts,objects,78,58,Stimuli/Experimental_stims/body_parts/engin-akyurt-x_3gyC42btc-unsplash.jpg,Stimuli/Experimental_stims/objects/jess-bailey-nOeVi8DsN8U-unsplash.jpg,0,1,93,0,chosen,26,42,body_parts,objects,1100,0,3,1
270,87740,0,271,4,4,1,gain1,no_gain4,G,F,45,16,objects,faces,89,66,Stimuli/Experimental_stims/objects/leohoho-rngTKHXumy0-unsplash.jpg,Stimuli/Experimental_stims/faces/freddy-kearney-o-ioeoATbIM-unsplash.jpg,0,0,472,0,unchosen,16,45,faces,objects,1400,0,3,1
271,87740,0,272,4,4,1,gain4,no_gain3,K,C,35,29,body_parts,body_parts,90,82,Stimuli/Experimental_stims/body_parts/wc-so-KH4AAPjb-tI-unsplash.jpg,Stimuli/Experimental_stims/body_parts/manuel-schinner-ZwjFuJ7ebpk-unsplash.jpg,0,1,164,1,unchosen,35,29,body_parts,body_parts,3200,1,3,1
272,87740,0,273,4,4,0,no_gain6,gain2,J,L,19,22,faces,faces,83,79,Stimuli/Experimental_stims/faces/joel-mott-LaK153ghdig-unsplash.jpg,Stimuli/Experimental_stims/faces/ravi-patel-VMGAbeeJTKo-unsplash.jpg,0,0,862,1,chosen,22,19,faces,faces,1600,0,3,1
273,87740,0,274,4,4,0,no_gain2,gain5,A,H,9,14,outdoor_scenes,faces,84,59,Stimuli/Experimental_stims/outdoor_scenes/sergey-pesterev-y-b_FOmJXdg-unsplash.jpg,Stimuli/Experimental_stims/faces/david-siglin-UuW4psOb388-unsplash.jpg,0,1,177,0,chosen,9,14,outdoor_scenes,faces,1000,0,3,1
274,87740,0,275,4,4,1,gain1,no_gain5,G,D,7,37,outdoor_scenes,objects,100,81,Stimuli/Experimental_stims/outdoor_scenes/petr-vysohlid-9fqwGqGLUxc-unsplash.jpg,Stimuli/Experimental_stims/objects/alexander-andrews-VLGWE_SumrA-unsplash.jpg,0,1,121,1,chosen,7,37,outdoor_scenes,objects,1700,0,3,1
275,87740,0,276,4,4,1,gain4,no_gain4,K,F,35,16,body_parts,faces,90,66,Stimuli/Experimental_stims/body_parts/wc-so-KH4AAPjb-tI-unsplash.jpg,Stimuli/Experimental_stims/faces/freddy-kearney-o-ioeoATbIM-unsplash.jpg,0,0,491,0,unchosen,16,35,faces,body_parts,1200,0,3,1
276,87740,0,277,4,4,1,gain3,no_gain5,E,D,44,18,objects,faces,74,66,Stimuli/Experimental_stims/objects/kuiye-chen-NuOGFo4PudE-unsplash.jpg,Stimuli/Experimental_stims/faces/jessica-radanavong-mrYkTuAesKE-unsplash.jpg,0,0,40,0,unchosen,18,44,faces,objects,2200,0,3,1
277,87740,0,278,4,4,0,no_gain5,gain6,D,B,18,13,faces,faces,66,63,Stimuli/Experimental_stims/faces/jessica-radanavong-mrYkTuAesKE-unsplash.jpg,Stimuli/Experimental_stims/faces/daniel-rigdon-dXmXKPP2L4E-unsplash.jpg,0,0,43,1,unchosen,13,18,faces,faces,2000,0,3,1
278,87740,0,279,4,4,1,gain3,no_gain4,E,F,25,26,body_parts,body_parts,77,78,Stimuli/Experimental_stims/body_parts/engin-akyurt-Q2rfH3GW39c-unsplash.jpg,Stimuli/Experimental_stims/body_parts/engin-akyurt-x_3gyC42btc-unsplash.jpg,0,0,409,0,chosen,26,25,body_parts,body_parts,3100,1,3,1
279,87740,0,280,4,4,1,gain5,no_gain5,H,D,1,18,outdoor_scenes,faces,76,66,Stimuli/Experimental_stims/outdoor_scenes/ashim-d-silva-S2Q5mdOrrVc-unsplash.jpg,Stimuli/Experimental_stims/faces/jessica-radanavong-mrYkTuAesKE-unsplash.jpg,0,0,1060,0,unchosen,18,1,faces,outdoor_scenes,2400,0,3,1
280,87740,0,281,4,4,1,gain4,no_gain1,K,I,42,2,objects,outdoor_scenes,58,99,Stimuli/Experimental_stims/objects/jess-bailey-nOeVi8DsN8U-unsplash.jpg,Stimuli/Experimental_stims/outdoor_scenes/bruno-van-der-kraan-qez8mNJ3ilU-unsplash.jpg,0,0,610,0,chosen,2,42,outdoor_scenes,objects,1000,0,3,1
281,87740,0,282,4,4,0,no_gain1,gain5,I,H,2,14,outdoor_scenes,faces,99,59,Stimuli/Experimental_stims/outdoor_scenes/bruno-van-der-kraan-qez8mNJ3ilU-unsplash.jpg,Stimuli/Experimental_stims/faces/david-siglin-UuW4psOb388-unsplash.jpg,0,1,767,0,chosen,2,14,outdoor_scenes,faces,1900,0,3,1
282,87740,0,283,4,4,0,no_gain4,gain5,F,H,16,1,faces,outdoor_scenes,66,76,Stimuli/Experimental_stims/faces/freddy-kearney-o-ioeoATbIM-unsplash.jpg,Stimuli/Experimental_stims/outdoor_scenes/ashim-d-silva-S2Q5mdOrrVc-unsplash.jpg,0,1,226,0,unchosen,16,1,faces,outdoor_scenes,2400,0,3,1
283,87740,0,284,4,4,1,gain2,no_gain2,L,A,22,9,faces,outdoor_scenes,79,84,Stimuli/Experimental_stims/faces/ravi-patel-VMGAbeeJTKo-unsplash.jpg,Stimuli/Experimental_stims/outdoor_scenes/sergey-pesterev-y-b_FOmJXdg-unsplash.jpg,0,1,1266,1,chosen,22,9,faces,outdoor_scenes,1300,0,3,1
284,87740,0,285,4,4,0,no_gain4,gain5,F,H,26,14,body_parts,faces,78,59,Stimuli/Experimental_stims/body_parts/engin-akyurt-x_3gyC42btc-unsplash.jpg,Stimuli/Experimental_stims/faces/david-siglin-UuW4psOb388-unsplash.jpg,0,1,137,0,chosen,26,14,body_parts,faces,1600,0,3,1
285,87740,0,286,4,4,1,gain6,no_gain6,B,J,13,41,faces,objects,63,44,Stimuli/Experimental_stims/faces/daniel-rigdon-dXmXKPP2L4E-unsplash.jpg,Stimuli/Experimental_stims/objects/insung-yoon-w2JtIQQXoRU-unsplash.jpg,0,0,371,0,unchosen,41,13,objects,faces,1000,0,3,1
286,87740,0,287,4,4,0,no_gain6,gain4,J,K,19,42,faces,objects,83,58,Stimuli/Experimental_stims/faces/joel-mott-LaK153ghdig-unsplash.jpg,Stimuli/Experimental_stims/objects/jess-bailey-nOeVi8DsN8U-unsplash.jpg,0,0,222,1,chosen,42,19,objects,faces,1500,0,3,1
287,87740,0,288,4,4,1,gain5,no_gain1,H,I,1,31,outdoor_scenes,body_parts,76,72,Stimuli/Experimental_stims/outdoor_scenes/ashim-d-silva-S2Q5mdOrrVc-unsplash.jpg,Stimuli/Experimental_stims/body_parts/sincerely-media-VN6DbKajo5s-unsplash.jpg,0,0,1125,0,unchosen,31,1,body_parts,outdoor_scenes,1900,0,3,1
288,87740,0,289,4,4,1,gain3,no_gain2,E,A,25,9,body_parts,outdoor_scenes,77,84,Stimuli/Experimental_stims/body_parts/engin-akyurt-Q2rfH3GW39c-unsplash.jpg,Stimuli/Experimental_stims/outdoor_scenes/sergey-pesterev-y-b_FOmJXdg-unsplash.jpg,0,1,1255,1,chosen,25,9,body_parts,outdoor_scenes,1600,0,3,1
289,87740,0,290,4,4,1,gain3,no_gain6,E,J,44,41,objects,objects,74,44,Stimuli/Experimental_stims/objects/kuiye-chen-NuOGFo4PudE-unsplash.jpg,Stimuli/Experimental_stims/objects/insung-yoon-w2JtIQQXoRU-unsplash.jpg,0,0,732,0,unchosen,41,44,objects,objects,1200,0,3,1
290,87740,0,291,4,4,1,gain2,no_gain2,L,A,30,36,body_parts,objects,76,71,Stimuli/Experimental_stims/body_parts/mika-korhonen-Xodzxosar18-unsplash.jpg,Stimuli/Experimental_stims/objects/alexander-andrews-JYGnB9gTCls-unsplash.jpg,0,0,768,0,unchosen,36,30,objects,body_parts,1000,0,3,1
291,87740,0,292,4,4,1,gain2,no_gain6,L,J,30,41,body_parts,objects,76,44,Stimuli/Experimental_stims/body_parts/mika-korhonen-Xodzxosar18-unsplash.jpg,Stimuli/Experimental_stims/objects/insung-yoon-w2JtIQQXoRU-unsplash.jpg,0,1,1308,1,unchosen,30,41,body_parts,objects,3200,1,3,1