,PID,practice,trial,block,run,gain_left,left_item_id,right_item_id,left_pair_id,right_pair_id,left_stimulus,right_stimulus,left_category,right_category,left_rating,right_rating,left_path,right_path,no_response,left_chosen,rt,higher_outcome_chosen,choice_type,chosen_stimulus,unchosen_stimulus,chosen_category,unchosen_category,iti,long_iti,simulation,version
0,37104,1,1,0,0,0,,,,,,,,,,,Stimuli/Practice_stims/Final_decisions/debby-hudson-FmCSSSGge-0-unsplash.jpg,Stimuli/Practice_stims/Final_decisions/yassine-khalfalli-adsQ9d_Cx0c-unsplash.jpg,0,0,576,1,,,,,,3000,0,6,1
1,37104,1,2,0,0,0,,,,,,,,,,,Stimuli/Practice_stims/Final_decisions/florian-wehde-iVW7mZPwd4g-unsplash.jpg,Stimuli/Practice_stims/Final_decisions/patrick-perkins-3wylDrjxH-E-unsplash.jpg,0,1,820,0,,,,,,1500,0,6,1
2,37104,1,3,0,0,0,,,,,,,,,,,Stimuli/Practice_stims/Final_decisions/debby-hudson-FmCSSSGge-0-unsplash.jpg,Stimuli/Practice_stims/Final_decisions/florian-wehde-iVW7mZPwd4g-unsplash.jpg,0,0,504,1,,,,,,2000,0,6,1
3,37104,1,4,0,0,0,,,,,,,,,,,Stimuli/Practice_stims/Final_decisions/yassine-khalfalli-adsQ9d_Cx0c-unsplash.jpg,Stimuli/Practice_stims/Final_decisions/debby-hudson-FmCSSSGge-0-unsplash.jpg,0,1,775,0,,,,,,1000,0,6,1
4,37104,0,5,1,1,0,no_gain4,gain5,G,A,3,8,outdoor_scenes,outdoor_scenes,86,95,Stimuli/Experimental_stims/outdoor_scenes/henry-be-NLF6hTe4PAg-unsplash.jpg,Stimuli/Experimental_stims/outdoor_scenes/samsommer-vddccTqwal8-unsplash.jpg,0,0,906,1,chosen,8,3,outdoor_scenes,outdoor_scenes,1800,0,6,1
5,37104,0,6,1,1,1,gain3,no_gain6,D,B,18,2,faces,outdoor_scenes,17,91,Stimuli/Experimental_stims/faces/jessica-radanavong-mrYkTuAesKE-unsplash.jpg,Stimuli/Experimental_stims/outdoor_scenes/bruno-van-der-kraan-qez8mNJ3ilU-unsplash.jpg,0,0,688,0,chosen,2,18,outdoor_scenes,faces,1700,0,6,1
6,37104,0,7,1,1,1,gain6,no_gain3,E,F,38,34,objects,body_parts,32,22,Stimuli/Experimental_stims/objects/art-lasovsky-8XddFc6NkBY-unsplash.jpg,Stimuli/Experimental_stims/body_parts/wagner-santos-mBWMvIuVnso-unsplash.jpg,0,0,777,0,unchosen,34,38,body_parts,objects,2300,0,6,1
7,37104,0,8,1,1,0,no_gain2,gain3,K,D,27,18,body_parts,faces,21,17,Stimuli/Experimental_stims/body_parts/heike-mintel-i_Gns0ELnLw-unsplash.jpg,Stimuli/Experimental_stims/faces/jessica-radanavong-mrYkTuAesKE-unsplash.jpg,0,1,683,0,chosen,27,18,body_parts,faces,1700,0,6,1
8,37104,0,9,1,1,1,gain4,no_gain5,C,I,33,30,body_parts,body_parts,20,26,Stimuli/Experimental_stims/body_parts/tucker-good-36skLT5jZcc-unsplash.jpg,Stimuli/Experimental_stims/body_parts/mika-korhonen-Xodzxosar18-unsplash.jpg,0,1,733,1,unchosen,33,30,body_parts,body_parts,3900,1,6,1
9,37104,0,10,1,1,1,gain2,no_gain5,H,I,14,30,faces,body_parts,11,26,Stimuli/Experimental_stims/faces/david-siglin-UuW4psOb388-unsplash.jpg,Stimuli/Experimental_stims/body_parts/mika-korhonen-Xodzxosar18-unsplash.jpg,0,0,487,0,unchosen,30,14,body_parts,faces,1200,0,6,1
10,37104,0,11,1,1,1,gain2,no_gain5,H,I,7,0,outdoor_scenes,outdoor_scenes,86,75,Stimuli/Experimental_stims/outdoor_scenes/petr-vysohlid-9fqwGqGLUxc-unsplash.jpg,Stimuli/Experimental_stims/outdoor_scenes/aleksandra-boguslawska-MS7KD9Ti7FQ-unsplash.jpg,0,0,504,0,chosen,0,7,outdoor_scenes,outdoor_scenes,1200,0,6,1
11,37104,0,12,1,1,0,no_gain5,gain5,I,A,0,8,outdoor_scenes,outdoor_scenes,75,95,Stimuli/Experimental_stims/outdoor_scenes/aleksandra-boguslawska-MS7KD9Ti7FQ-unsplash.jpg,Stimuli/Experimental_stims/outdoor_scenes/samsommer-vddccTqwal8-unsplash.jpg,0,0,607,1,chosen,8,0,outdoor_scenes,outdoor_scenes,2600,0,6,1
12,37104,0,13,1,1,0,no_gain1,gain4,L,C,35,33,body_parts,body_parts,22,20,Stimuli/Experimental_stims/body_parts/wc-so-KH4AAPjb-tI-unsplash.jpg,Stimuli/Experimental_stims/body_parts/tucker-good-36skLT5jZcc-unsplash.jpg,0,1,678,0,unchosen,35,33,body_parts,body_parts,2200,0,6,1
13,37104,0,14,1,1,1,gain4,no_gain6,C,B,10,2,outdoor_scenes,outdoor_scenes,77,91,Stimuli/Experimental_stims/outdoor_scenes/shannon-kunkle-dM8INmkyDas-unsplash.jpg,Stimuli/Experimental_stims/outdoor_scenes/bruno-van-der-kraan-qez8mNJ3ilU-unsplash.jpg,0,1,691,1,chosen,10,2,outdoor_scenes,outdoor_scenes,1700,0,6,1
14,37104,0,15,1,1,1,gain4,no_gain4,C,G,10,3,outdoor_scenes,outdoor_scenes,77,86,Stimuli/Experimental_stims/outdoor_scenes/shannon-kunkle-dM8INmkyDas-unsplash.jpg,Stimuli/Experimental_stims/outdoor_scenes/henry-be-NLF6hTe4PAg-unsplash.jpg,0,1,504,1,chosen,10,3,outdoor_scenes,outdoor_scenes,3100,1,6,1
15,37104,0,16,1,1,1,gain2,no_gain1,H,L,14,35,faces,body_parts,11,22,Stimuli/Experimental_stims/faces/david-siglin-UuW4psOb388-unsplash.jpg,Stimuli/Experimental_stims/body_parts/wc-so-KH4AAPjb-tI-unsplash.jpg,0,0,707,0,unchosen,35,14,body_parts,faces,2100,0,6,1
16,37104,0,17,1,1,0,no_gain2,gain5,K,A,27,8,body_parts,outdoor_scenes,21,95,Stimuli/Experimental_stims/body_parts/heike-mintel-i_Gns0ELnLw-unsplash.jpg,Stimuli/Experimental_stims/outdoor_scenes/samsommer-vddccTqwal8-unsplash.jpg,0,0,627,1,chosen,8,27,outdoor_scenes,body_parts,1900,0,6,1
17,37104,0,18,1,1,0,no_gain1,gain5,L,A,17,8,faces,outdoor_scenes,66,95,Stimuli/Experimental_stims/faces/good-faces-xmSWVeGEnJw-unsplash.jpg,Stimuli/Experimental_stims/outdoor_scenes/samsommer-vddccTqwal8-unsplash.jpg,0,0,617,1,chosen,8,17,outdoor_scenes,faces,1400,0,6,1
18,37104,0,19,1,1,1,gain3,no_gain5,D,I,18,0,faces,outdoor_scenes,17,75,Stimuli/Experimental_stims/faces/jessica-radanavong-mrYkTuAesKE-unsplash.jpg,Stimuli/Experimental_stims/outdoor_scenes/aleksandra-boguslawska-MS7KD9Ti7FQ-unsplash.jpg,0,0,559,0,chosen,0,18,outdoor_scenes,faces,1500,0,6,1
19,37104,0,20,1,1,0,no_gain4,gain2,G,H,41,14,objects,faces,18,11,Stimuli/Experimental_stims/objects/insung-yoon-w2JtIQQXoRU-unsplash.jpg,Stimuli/Experimental_stims/faces/david-siglin-UuW4psOb388-unsplash.jpg,0,0,627,1,unchosen,14,41,faces,objects,1600,0,6,1
20,37104,0,21,1,1,0,no_gain1,gain3,L,D,17,18,faces,faces,66,17,Stimuli/Experimental_stims/faces/good-faces-xmSWVeGEnJw-unsplash.jpg,Stimuli/Experimental_stims/faces/jessica-radanavong-mrYkTuAesKE-unsplash.jpg,0,0,829,1,chosen,18,17,faces,faces,3200,1,6,1
21,37104,0,22,1,1,1,gain5,no_gain5,A,I,37,30,objects,body_parts,21,26,Stimuli/Experimental_stims/objects/alexander-andrews-VLGWE_SumrA-unsplash.jpg,Stimuli/Experimental_stims/body_parts/mika-korhonen-Xodzxosar18-unsplash.jpg,0,1,779,1,unchosen,37,30,objects,body_parts,1900,0,6,1
22,37104,0,23,1,1,0,no_gain6,gain6,B,E,13,38,faces,objects,80,32,Stimuli/Experimental_stims/faces/daniel-rigdon-dXmXKPP2L4E-unsplash.jpg,Stimuli/Experimental_stims/objects/art-lasovsky-8XddFc6NkBY-unsplash.jpg,0,1,694,0,unchosen,13,38,faces,objects,1600,0,6,1
23,37104,0,24,1,1,0,no_gain6,gain2,B,H,2,7,outdoor_scenes,outdoor_scenes,91,86,Stimuli/Experimental_stims/outdoor_scenes/bruno-van-der-kraan-qez8mNJ3ilU-unsplash.jpg,Stimuli/Experimental_stims/outdoor_scenes/petr-vysohlid-9fqwGqGLUxc-unsplash.jpg,0,0,820,1,chosen,7,2,outdoor_scenes,outdoor_scenes,1100,0,6,1
24,37104,0,25,1,1,1,gain4,no_gain2,C,K,33,40,body_parts,objects,20,36,Stimuli/Experimental_stims/body_parts/tucker-good-36skLT5jZcc-unsplash.jpg,Stimuli/Experimental_stims/objects/fabian-blank-pElSkGRA2NU-unsplash.jpg,0,0,900,0,unchosen,40,33,objects,body_parts,2200,0,6,1
25,37104,0,26,1,1,1,gain2,no_gain3,H,F,14,34,faces,body_parts,11,22,Stimuli/Experimental_stims/faces/david-siglin-UuW4psOb388-unsplash.jpg,Stimuli/Experimental_stims/body_parts/wagner-santos-mBWMvIuVnso-unsplash.jpg,0,1,784,1,unchosen,14,34,faces,body_parts,3300,1,6,1
26,37104,0,27,1,1,0,no_gain2,gain4,K,C,27,10,body_parts,outdoor_scenes,21,77,Stimuli/Experimental_stims/body_parts/heike-mintel-i_Gns0ELnLw-unsplash.jpg,Stimuli/Experimental_stims/outdoor_scenes/shannon-kunkle-dM8INmkyDas-unsplash.jpg,0,0,625,1,chosen,10,27,outdoor_scenes,body_parts,2100,0,6,1
27,37104,0,28,1,1,0,no_gain2,gain2,K,H,40,14,objects,faces,36,11,Stimuli/Experimental_stims/objects/fabian-blank-pElSkGRA2NU-unsplash.jpg,Stimuli/Experimental_stims/faces/david-siglin-UuW4psOb388-unsplash.jpg,0,0,586,1,unchosen,14,40,faces,objects,1000,0,6,1
28,37104,0,29,1,1,0,no_gain4,gain3,G,D,41,45,objects,objects,18,14,Stimuli/Experimental_stims/objects/insung-yoon-w2JtIQQXoRU-unsplash.jpg,Stimuli/Experimental_stims/objects/leohoho-rngTKHXumy0-unsplash.jpg,0,1,863,0,unchosen,41,45,objects,objects,2600,0,6,1
29,37104,0,30,1,1,0,no_gain3,gain2,F,H,19,7,faces,outdoor_scenes,71,86,Stimuli/Experimental_stims/faces/joel-mott-LaK153ghdig-unsplash.jpg,Stimuli/Experimental_stims/outdoor_scenes/petr-vysohlid-9fqwGqGLUxc-unsplash.jpg,0,0,804,1,chosen,7,19,outdoor_scenes,faces,1500,0,6,1
30,37104,0,31,1,1,1,gain5,no_gain4,A,G,37,41,objects,objects,21,18,Stimuli/Experimental_stims/objects/alexander-andrews-VLGWE_SumrA-unsplash.jpg,Stimuli/Experimental_stims/objects/insung-yoon-w2JtIQQXoRU-unsplash.jpg,0,0,641,0,unchosen,41,37,objects,objects,1200,0,6,1
31,37104,0,32,1,1,0,no_gain3,gain5,F,A,34,37,body_parts,objects,22,21,Stimuli/Experimental_stims/body_parts/wagner-santos-mBWMvIuVnso-unsplash.jpg,Stimuli/Experimental_stims/objects/alexander-andrews-VLGWE_SumrA-unsplash.jpg,0,0,684,1,unchosen,37,34,objects,body_parts,2100,0,6,1
32,37104,0,33,1,1,0,no_gain5,gain4,I,C,0,10,outdoor_scenes,outdoor_scenes,75,77,Stimuli/Experimental_stims/outdoor_scenes/aleksandra-boguslawska-MS7KD9Ti7FQ-unsplash.jpg,Stimuli/Experimental_stims/outdoor_scenes/shannon-kunkle-dM8INmkyDas-unsplash.jpg,0,0,760,1,chosen,10,0,outdoor_scenes,outdoor_scenes,4300,1,6,1
33,37104,0,34,1,1,0,no_gain1,gain5,L,A,35,37,body_parts,objects,22,21,Stimuli/Experimental_stims/body_parts/wc-so-KH4AAPjb-tI-unsplash.jpg,Stimuli/Experimental_stims/objects/alexander-andrews-VLGWE_SumrA-unsplash.jpg,0,0,648,1,unchosen,37,35,objects,body_parts,1000,0,6,1
34,37104,0,35,1,1,1,gain1,no_gain3,J,F,23,19,faces,faces,84,71,Stimuli/Experimental_stims/faces/rikonavt-HQjfrvdTfak-unsplash.jpg,Stimuli/Experimental_stims/faces/joel-mott-LaK153ghdig-unsplash.jpg,0,1,1026,1,chosen,23,19,faces,faces,2300,0,6,1
35,37104,0,36,1,1,0,no_gain6,gain5,B,A,13,37,faces,objects,80,21,Stimuli/Experimental_stims/faces/daniel-rigdon-dXmXKPP2L4E-unsplash.jpg,Stimuli/Experimental_stims/objects/alexander-andrews-VLGWE_SumrA-unsplash.jpg,0,0,729,1,unchosen,37,13,objects,faces,1200,0,6,1
36,37104,0,37,1,1,1,gain6,no_gain1,E,L,28,17,body_parts,faces,68,66,Stimuli/Experimental_stims/body_parts/ira-vishnevskaya-8DQAvdCby1I-unsplash.jpg,Stimuli/Experimental_stims/faces/good-faces-xmSWVeGEnJw-unsplash.jpg,0,0,744,0,chosen,17,28,faces,body_parts,1300,0,6,1
37,37104,0,38,1,1,1,gain4,no_gain3,C,F,10,19,outdoor_scenes,faces,77,71,Stimuli/Experimental_stims/outdoor_scenes/shannon-kunkle-dM8INmkyDas-unsplash.jpg,Stimuli/Experimental_stims/faces/joel-mott-LaK153ghdig-unsplash.jpg,0,1,764,1,chosen,10,19,outdoor_scenes,faces,1700,0,6,1
38,37104,0,39,1,1,1,gain1,no_gain5,J,I,23,0,faces,outdoor_scenes,84,75,Stimuli/Experimental_stims/faces/rikonavt-HQjfrvdTfak-unsplash.jpg,Stimuli/Experimental_stims/outdoor_scenes/aleksandra-boguslawska-MS7KD9Ti7FQ-unsplash.jpg,0,1,658,1,chosen,23,0,faces,outdoor_scenes,1300,0,6,1
39,37104,0,40,1,1,0,no_gain6,gain3,B,D,13,45,faces,objects,80,14,Stimuli/Experimental_stims/faces/daniel-rigdon-dXmXKPP2L4E-unsplash.jpg,Stimuli/Experimental_stims/objects/leohoho-rngTKHXumy0-unsplash.jpg,0,0,745,1,unchosen,45,13,objects,faces,1200,0,6,1
40,37104,0,41,1,1,0,no_gain2,gain1,K,J,27,23,body_parts,faces,21,84,Stimuli/Experimental_stims/body_parts/heike-mintel-i_Gns0ELnLw-unsplash.jpg,Stimuli/Experimental_stims/faces/rikonavt-HQjfrvdTfak-unsplash.jpg,0,0,781,1,chosen,23,27,faces,body_parts,1900,0,6,1
41,37104,0,42,1,1,1,gain4,no_gain3,C,F,33,34,body_parts,body_parts,20,22,Stimuli/Experimental_stims/body_parts/tucker-good-36skLT5jZcc-unsplash.jpg,Stimuli/Experimental_stims/body_parts/wagner-santos-mBWMvIuVnso-unsplash.jpg,0,1,657,1,unchosen,33,34,body_parts,body_parts,1200,0,6,1
42,37104,0,43,1,1,1,gain6,no_gain6,E,B,28,2,body_parts,outdoor_scenes,68,91,Stimuli/Experimental_stims/body_parts/ira-vishnevskaya-8DQAvdCby1I-unsplash.jpg,Stimuli/Experimental_stims/outdoor_scenes/bruno-van-der-kraan-qez8mNJ3ilU-unsplash.jpg,0,0,566,0,chosen,2,28,outdoor_scenes,body_parts,4000,1,6,1
43,37104,0,44,1,1,0,no_gain3,gain3,F,D,19,18,faces,faces,71,17,Stimuli/Experimental_stims/faces/joel-mott-LaK153ghdig-unsplash.jpg,Stimuli/Experimental_stims/faces/jessica-radanavong-mrYkTuAesKE-unsplash.jpg,0,0,716,1,chosen,18,19,faces,faces,2300,0,6,1
44,37104,0,45,1,1,1,gain2,no_gain6,H,B,14,13,faces,faces,11,80,Stimuli/Experimental_stims/faces/david-siglin-UuW4psOb388-unsplash.jpg,Stimuli/Experimental_stims/faces/daniel-rigdon-dXmXKPP2L4E-unsplash.jpg,0,1,673,1,unchosen,14,13,faces,faces,1500,0,6,1
45,37104,0,46,1,1,0,no_gain1,gain1,L,J,17,23,faces,faces,66,84,Stimuli/Experimental_stims/faces/good-faces-xmSWVeGEnJw-unsplash.jpg,Stimuli/Experimental_stims/faces/rikonavt-HQjfrvdTfak-unsplash.jpg,0,1,665,0,chosen,17,23,faces,faces,1100,0,6,1
46,37104,0,47,1,1,0,no_gain5,gain6,I,E,30,38,body_parts,objects,26,32,Stimuli/Experimental_stims/body_parts/mika-korhonen-Xodzxosar18-unsplash.jpg,Stimuli/Experimental_stims/objects/art-lasovsky-8XddFc6NkBY-unsplash.jpg,0,1,1082,0,unchosen,30,38,body_parts,objects,1100,0,6,1
47,37104,0,48,1,1,0,no_gain5,gain6,I,E,0,28,outdoor_scenes,body_parts,75,68,Stimuli/Experimental_stims/outdoor_scenes/aleksandra-boguslawska-MS7KD9Ti7FQ-unsplash.jpg,Stimuli/Experimental_stims/body_parts/ira-vishnevskaya-8DQAvdCby1I-unsplash.jpg,0,1,710,0,chosen,0,28,outdoor_scenes,body_parts,3200,1,6,1
48,37104,0,49,1,1,0,no_gain2,gain6,K,E,40,38,objects,objects,36,32,Stimuli/Experimental_stims/objects/fabian-blank-pElSkGRA2NU-unsplash.jpg,Stimuli/Experimental_stims/objects/art-lasovsky-8XddFc6NkBY-unsplash.jpg,0,0,827,1,unchosen,38,40,objects,objects,1900,0,6,1
49,37104,0,50,1,1,1,gain4,no_gain4,C,G,33,41,body_parts,objects,20,18,Stimuli/Experimental_stims/body_parts/tucker-good-36skLT5jZcc-unsplash.jpg,Stimuli/Experimental_stims/objects/insung-yoon-w2JtIQQXoRU-unsplash.jpg,0,0,673,0,unchosen,41,33,objects,body_parts,2300,0,6,1
50,37104,0,51,1,1,1,gain6,no_gain4,E,G,38,41,objects,objects,32,18,Stimuli/Experimental_stims/objects/art-lasovsky-8XddFc6NkBY-unsplash.jpg,Stimuli/Experimental_stims/objects/insung-yoon-w2JtIQQXoRU-unsplash.jpg,0,0,651,0,unchosen,41,38,objects,objects,1200,0,6,1
51,37104,0,52,1,1,0,no_gain6,gain1,B,J,2,23,outdoor_scenes,faces,91,84,Stimuli/Experimental_stims/outdoor_scenes/bruno-van-der-kraan-qez8mNJ3ilU-unsplash.jpg,Stimuli/Experimental_stims/faces/rikonavt-HQjfrvdTfak-unsplash.jpg,0,0,719,1,chosen,23,2,faces,outdoor_scenes,2400,0,6,1
52,37104,0,53,1,1,1,gain2,no_gain1,H,L,7,17,outdoor_scenes,faces,86,66,Stimuli/Experimental_stims/outdoor_scenes/petr-vysohlid-9fqwGqGLUxc-unsplash.jpg,Stimuli/Experimental_stims/faces/good-faces-xmSWVeGEnJw-unsplash.jpg,0,0,813,0,chosen,17,7,faces,outdoor_scenes,1600,0,6,1
53,37104,0,54,1,1,1,gain5,no_gain6,A,B,8,2,outdoor_scenes,outdoor_scenes,95,91,Stimuli/Experimental_stims/outdoor_scenes/samsommer-vddccTqwal8-unsplash.jpg,Stimuli/Experimental_stims/outdoor_scenes/bruno-van-der-kraan-qez8mNJ3ilU-unsplash.jpg,0,1,742,1,chosen,8,2,outdoor_scenes,outdoor_scenes,3100,1,6,1
54,37104,0,55,1,1,0,no_gain5,gain1,I,J,30,47,body_parts,objects,26,0,Stimuli/Experimental_stims/body_parts/mika-korhonen-Xodzxosar18-unsplash.jpg,Stimuli/Experimental_stims/objects/ronaldo-arthur-vidal-Cdz_lvnl37k-unsplash.jpg,0,1,893,0,unchosen,30,47,body_parts,objects,2300,0,6,1
55,37104,0,56,1,1,1,gain2,no_gain2,H,K,7,27,outdoor_scenes,body_parts,86,21,Stimuli/Experimental_stims/outdoor_scenes/petr-vysohlid-9fqwGqGLUxc-unsplash.jpg,Stimuli/Experimental_stims/body_parts/heike-mintel-i_Gns0ELnLw-unsplash.jpg,0,0,842,0,chosen,27,7,body_parts,outdoor_scenes,2600,0,6,1
56,37104,0,57,1,1,1,gain3,no_gain2,D,K,45,40,objects,objects,14,36,Stimuli/Experimental_stims/objects/leohoho-rngTKHXumy0-unsplash.jpg,Stimuli/Experimental_stims/objects/fabian-blank-pElSkGRA2NU-unsplash.jpg,0,0,774,0,unchosen,40,45,objects,objects,1700,0,6,1
57,37104,0,58,1,1,0,no_gain1,gain3,L,D,35,45,body_parts,objects,22,14,Stimuli/Experimental_stims/body_parts/wc-so-KH4AAPjb-tI-unsplash.jpg,Stimuli/Experimental_stims/objects/leohoho-rngTKHXumy0-unsplash.jpg,0,1,824,0,unchosen,35,45,body_parts,objects,1100,0,6,1
58,37104,0,59,1,1,1,gain6,no_gain4,E,G,28,3,body_parts,outdoor_scenes,68,86,Stimuli/Experimental_stims/body_parts/ira-vishnevskaya-8DQAvdCby1I-unsplash.jpg,Stimuli/Experimental_stims/outdoor_scenes/henry-be-NLF6hTe4PAg-unsplash.jpg,0,0,993,0,chosen,3,28,outdoor_scenes,body_parts,2600,0,6,1
59,37104,0,60,1,1,1,gain6,no_gain1,E,L,38,35,objects,body_parts,32,22,Stimuli/Experimental_stims/objects/art-lasovsky-8XddFc6NkBY-unsplash.jpg,Stimuli/Experimental_stims/body_parts/wc-so-KH4AAPjb-tI-unsplash.jpg,0,1,717,1,unchosen,38,35,objects,body_parts,1000,0,6,1
60,37104,0,61,1,1,1,gain1,no_gain3,J,F,47,34,objects,body_parts,0,22,Stimuli/Experimental_stims/objects/ronaldo-arthur-vidal-Cdz_lvnl37k-unsplash.jpg,Stimuli/Experimental_stims/body_parts/wagner-santos-mBWMvIuVnso-unsplash.jpg,0,0,806,0,unchosen,34,47,body_parts,objects,2400,0,6,1
61,37104,0,62,1,1,0,no_gain6,gain4,B,C,13,33,faces,body_parts,80,20,Stimuli/Experimental_stims/faces/daniel-rigdon-dXmXKPP2L4E-unsplash.jpg,Stimuli/Experimental_stims/body_parts/tucker-good-36skLT5jZcc-unsplash.jpg,0,1,830,0,unchosen,13,33,faces,body_parts,3500,1,6,1
62,37104,0,63,1,1,1,gain6,no_gain3,E,F,28,19,body_parts,faces,68,71,Stimuli/Experimental_stims/body_parts/ira-vishnevskaya-8DQAvdCby1I-unsplash.jpg,Stimuli/Experimental_stims/faces/joel-mott-LaK153ghdig-unsplash.jpg,0,1,785,1,chosen,28,19,body_parts,faces,1700,0,6,1
63,37104,0,64,1,1,1,gain2,no_gain4,H,G,7,3,outdoor_scenes,outdoor_scenes,86,86,Stimuli/Experimental_stims/outdoor_scenes/petr-vysohlid-9fqwGqGLUxc-unsplash.jpg,Stimuli/Experimental_stims/outdoor_scenes/henry-be-NLF6hTe4PAg-unsplash.jpg,0,0,811,0,chosen,3,7,outdoor_scenes,outdoor_scenes,1200,0,6,1
64,37104,0,65,1,1,0,no_gain6,gain1,B,J,13,47,faces,objects,80,0,Stimuli/Experimental_stims/faces/daniel-rigdon-dXmXKPP2L4E-unsplash.jpg,Stimuli/Experimental_stims/objects/ronaldo-arthur-vidal-Cdz_lvnl37k-unsplash.jpg,0,1,693,0,unchosen,13,47,faces,objects,1600,0,6,1
65,37104,0,66,1,1,0,no_gain4,gain1,G,J,41,47,objects,objects,18,0,Stimuli/Experimental_stims/objects/insung-yoon-w2JtIQQXoRU-unsplash.jpg,Stimuli/Experimental_stims/objects/ronaldo-arthur-vidal-Cdz_lvnl37k-unsplash.jpg,0,1,599,0,unchosen,41,47,objects,objects,1200,0,6,1
66,37104,0,67,1,1,1,gain5,no_gain2,A,K,37,40,objects,objects,21,36,Stimuli/Experimental_stims/objects/alexander-andrews-VLGWE_SumrA-unsplash.jpg,Stimuli/Experimental_stims/objects/fabian-blank-pElSkGRA2NU-unsplash.jpg,0,1,855,1,unchosen,37,40,objects,objects,3400,1,6,1
67,37104,0,68,1,1,0,no_gain1,gain4,L,C,17,10,faces,outdoor_scenes,66,77,Stimuli/Experimental_stims/faces/good-faces-xmSWVeGEnJw-unsplash.jpg,Stimuli/Experimental_stims/outdoor_scenes/shannon-kunkle-dM8INmkyDas-unsplash.jpg,0,0,785,1,chosen,10,17,outdoor_scenes,faces,1900,0,6,1
68,37104,0,69,1,1,1,gain6,no_gain2,E,K,28,27,body_parts,body_parts,68,21,Stimuli/Experimental_stims/body_parts/ira-vishnevskaya-8DQAvdCby1I-unsplash.jpg,Stimuli/Experimental_stims/body_parts/heike-mintel-i_Gns0ELnLw-unsplash.jpg,0,1,680,1,chosen,28,27,body_parts,body_parts,2200,0,6,1
69,37104,0,70,1,1,1,gain5,no_gain3,A,F,8,19,outdoor_scenes,faces,95,71,Stimuli/Experimental_stims/outdoor_scenes/samsommer-vddccTqwal8-unsplash.jpg,Stimuli/Experimental_stims/faces/joel-mott-LaK153ghdig-unsplash.jpg,0,1,707,1,chosen,8,19,outdoor_scenes,faces,1100,0,6,1
70,37104,0,71,1,1,0,no_gain1,gain1,L,J,35,47,body_parts,objects,22,0,Stimuli/Experimental_stims/body_parts/wc-so-KH4AAPjb-tI-unsplash.jpg,Stimuli/Experimental_stims/objects/ronaldo-arthur-vidal-Cdz_lvnl37k-unsplash.jpg,0,0,797,1,unchosen,47,35,objects,body_parts,2600,0,6,1
71,37104,0,72,1,1,1,gain1,no_gain2,J,K,47,40,objects,objects,0,36,Stimuli/Experimental_stims/objects/ronaldo-arthur-vidal-Cdz_lvnl37k-unsplash.jpg,Stimuli/Experimental_stims/objects/fabian-blank-pElSkGRA2NU-unsplash.jpg,0,1,600,1,unchosen,47,40,objects,objects,2100,0,6,1
72,37104,0,73,1,1,0,no_gain3,gain3,F,D,34,45,body_parts,objects,22,14,Stimuli/Experimental_stims/body_parts/wagner-santos-mBWMvIuVnso-unsplash.jpg,Stimuli/Experimental_stims/objects/leohoho-rngTKHXumy0-unsplash.jpg,0,1,621,0,unchosen,34,45,body_parts,objects,1600,0,6,1
73,37104,0,74,1,1,0,no_gain4,gain1,G,J,3,23,outdoor_scenes,faces,86,84,Stimuli/Experimental_stims/outdoor_scenes/henry-be-NLF6hTe4PAg-unsplash.jpg,Stimuli/Experimental_stims/faces/rikonavt-HQjfrvdTfak-unsplash.jpg,0,1,592,0,chosen,3,23,outdoor_scenes,faces,1200,0,6,1
74,37104,0,75,1,1,1,gain3,no_gain5,D,I,45,30,objects,body_parts,14,26,Stimuli/Experimental_stims/objects/leohoho-rngTKHXumy0-unsplash.jpg,Stimuli/Experimental_stims/body_parts/mika-korhonen-Xodzxosar18-unsplash.jpg,0,1,764,1,unchosen,45,30,objects,body_parts,2600,0,6,1
75,37104,0,76,1,1,0,no_gain4,gain3,G,D,3,18,outdoor_scenes,faces,86,17,Stimuli/Experimental_stims/outdoor_scenes/henry-be-NLF6hTe4PAg-unsplash.jpg,Stimuli/Experimental_stims/faces/jessica-radanavong-mrYkTuAesKE-unsplash.jpg,0,0,797,1,chosen,18,3,faces,outdoor_scenes,3600,1,6,1
76,37104,0,77,2,2,1,gain4,no_gain6,C,B,33,13,body_parts,faces,20,80,Stimuli/Experimental_stims/body_parts/tucker-good-36skLT5jZcc-unsplash.jpg,Stimuli/Experimental_stims/faces/daniel-rigdon-dXmXKPP2L4E-unsplash.jpg,0,0,834,0,unchosen,13,33,faces,body_parts,3100,1,4,1
77,37104,0,78,2,2,1,gain3,no_gain1,D,L,18,17,faces,faces,17,66,Stimuli/Experimental_stims/faces/jessica-radanavong-mrYkTuAesKE-unsplash.jpg,Stimuli/Experimental_stims/faces/good-faces-xmSWVeGEnJw-unsplash.jpg,0,1,642,1,chosen,18,17,faces,faces,2600,0,4,1
78,37104,0,79,2,2,0,no_gain5,gain5,I,A,0,8,outdoor_scenes,outdoor_scenes,75,95,Stimuli/Experimental_stims/outdoor_scenes/aleksandra-boguslawska-MS7KD9Ti7FQ-unsplash.jpg,Stimuli/Experimental_stims/outdoor_scenes/samsommer-vddccTqwal8-unsplash.jpg,0,1,679,0,chosen,0,8,outdoor_scenes,outdoor_scenes,1800,0,4,1
79,37104,0,80,2,2,0,no_gain5,gain2,I,H,30,14,body_parts,faces,26,11,Stimuli/Experimental_stims/body_parts/mika-korhonen-Xodzxosar18-unsplash.jpg,Stimuli/Experimental_stims/faces/david-siglin-UuW4psOb388-unsplash.jpg,0,0,603,1,unchosen,14,30,faces,body_parts,1000,0,4,1
80,37104,0,81,2,2,0,no_gain5,gain6,I,E,0,28,outdoor_scenes,body_parts,75,68,Stimuli/Experimental_stims/outdoor_scenes/aleksandra-boguslawska-MS7KD9Ti7FQ-unsplash.jpg,Stimuli/Experimental_stims/body_parts/ira-vishnevskaya-8DQAvdCby1I-unsplash.jpg,0,0,841,1,chosen,28,0,body_parts,outdoor_scenes,2300,0,4,1
81,37104,0,82,2,2,1,gain2,no_gain1,H,L,7,17,outdoor_scenes,faces,86,66,Stimuli/Experimental_stims/outdoor_scenes/petr-vysohlid-9fqwGqGLUxc-unsplash.jpg,Stimuli/Experimental_stims/faces/good-faces-xmSWVeGEnJw-unsplash.jpg,0,0,602,0,chosen,17,7,faces,outdoor_scenes,1100,0,4,1
82,37104,0,83,2,2,1,gain6,no_gain4,E,G,28,3,body_parts,outdoor_scenes,68,86,Stimuli/Experimental_stims/body_parts/ira-vishnevskaya-8DQAvdCby1I-unsplash.jpg,Stimuli/Experimental_stims/outdoor_scenes/henry-be-NLF6hTe4PAg-unsplash.jpg,0,0,580,0,chosen,3,28,outdoor_scenes,body_parts,1500,0,4,1
83,37104,0,84,2,2,1,gain1,no_gain4,J,G,47,41,objects,objects,0,18,Stimuli/Experimental_stims/objects/ronaldo-arthur-vidal-Cdz_lvnl37k-unsplash.jpg,Stimuli/Experimental_stims/objects/insung-yoon-w2JtIQQXoRU-unsplash.jpg,0,0,598,0,unchosen,41,47,objects,objects,2400,0,4,1
84,37104,0,85,2,2,0,no_gain2,gain2,K,H,40,14,objects,faces,36,11,Stimuli/Experimental_stims/objects/fabian-blank-pElSkGRA2NU-unsplash.jpg,Stimuli/Experimental_stims/faces/david-siglin-UuW4psOb388-unsplash.jpg,0,0,565,1,unchosen,14,40,faces,objects,2300,0,4,1
85,37104,0,86,2,2,1,gain6,no_gain3,E,F,28,19,body_parts,faces,68,71,Stimuli/Experimental_stims/body_parts/ira-vishnevskaya-8DQAvdCby1I-unsplash.jpg,Stimuli/Experimental_stims/faces/joel-mott-LaK153ghdig-unsplash.jpg,0,1,647,1,chosen,28,19,body_parts,faces,1200,0,4,1
86,37104,0,87,2,2,0,no_gain5,gain4,I,C,30,33,body_parts,body_parts,26,20,Stimuli/Experimental_stims/body_parts/mika-korhonen-Xodzxosar18-unsplash.jpg,Stimuli/Experimental_stims/body_parts/tucker-good-36skLT5jZcc-unsplash.jpg,0,0,779,1,unchosen,33,30,body_parts,body_parts,1300,0,4,1
87,37104,0,88,2,2,1,gain2,no_gain2,H,K,7,27,outdoor_scenes,body_parts,86,21,Stimuli/Experimental_stims/outdoor_scenes/petr-vysohlid-9fqwGqGLUxc-unsplash.jpg,Stimuli/Experimental_stims/body_parts/heike-mintel-i_Gns0ELnLw-unsplash.jpg,0,1,793,1,chosen,7,27,outdoor_scenes,body_parts,3700,1,4,1
88,37104,0,89,2,2,1,gain5,no_gain3,A,F,8,19,outdoor_scenes,faces,95,71,Stimuli/Experimental_stims/outdoor_scenes/samsommer-vddccTqwal8-unsplash.jpg,Stimuli/Experimental_stims/faces/joel-mott-LaK153ghdig-unsplash.jpg,0,1,616,1,chosen,8,19,outdoor_scenes,faces,1600,0,4,1
89,37104,0,90,2,2,0,no_gain3,gain1,F,J,19,23,faces,faces,71,84,Stimuli/Experimental_stims/faces/joel-mott-LaK153ghdig-unsplash.jpg,Stimuli/Experimental_stims/faces/rikonavt-HQjfrvdTfak-unsplash.jpg,0,0,776,1,chosen,23,19,faces,faces,1700,0,4,1
90,37104,0,91,2,2,0,no_gain2,gain1,K,J,40,47,objects,objects,36,0,Stimuli/Experimental_stims/objects/fabian-blank-pElSkGRA2NU-unsplash.jpg,Stimuli/Experimental_stims/objects/ronaldo-arthur-vidal-Cdz_lvnl37k-unsplash.jpg,0,0,635,1,unchosen,47,40,objects,objects,1200,0,4,1
91,37104,0,92,2,2,0,no_gain6,gain5,B,A,2,8,outdoor_scenes,outdoor_scenes,91,95,Stimuli/Experimental_stims/outdoor_scenes/bruno-van-der-kraan-qez8mNJ3ilU-unsplash.jpg,Stimuli/Experimental_stims/outdoor_scenes/samsommer-vddccTqwal8-unsplash.jpg,0,0,809,1,chosen,8,2,outdoor_scenes,outdoor_scenes,1100,0,4,1
92,37104,0,93,2,2,0,no_gain4,gain3,G,D,3,18,outdoor_scenes,faces,86,17,Stimuli/Experimental_stims/outdoor_scenes/henry-be-NLF6hTe4PAg-unsplash.jpg,Stimuli/Experimental_stims/faces/jessica-radanavong-mrYkTuAesKE-unsplash.jpg,0,0,679,1,chosen,18,3,faces,outdoor_scenes,1300,0,4,1
93,37104,0,94,2,2,1,gain4,no_gain5,C,I,10,0,outdoor_scenes,outdoor_scenes,77,75,Stimuli/Experimental_stims/outdoor_scenes/shannon-kunkle-dM8INmkyDas-unsplash.jpg,Stimuli/Experimental_stims/outdoor_scenes/aleksandra-boguslawska-MS7KD9Ti7FQ-unsplash.jpg,0,1,758,1,chosen,10,0,outdoor_scenes,outdoor_scenes,4500,1,4,1
94,37104,0,95,2,2,0,no_gain5,gain1,I,J,30,47,body_parts,objects,26,0,Stimuli/Experimental_stims/body_parts/mika-korhonen-Xodzxosar18-unsplash.jpg,Stimuli/Experimental_stims/objects/ronaldo-arthur-vidal-Cdz_lvnl37k-unsplash.jpg,0,0,603,1,unchosen,47,30,objects,body_parts,1900,0,4,1
95,37104,0,96,2,2,1,gain1,no_gain3,J,F,47,34,objects,body_parts,0,22,Stimuli/Experimental_stims/objects/ronaldo-arthur-vidal-Cdz_lvnl37k-unsplash.jpg,Stimuli/Experimental_stims/body_parts/wagner-santos-mBWMvIuVnso-unsplash.jpg,0,0,617,0,unchosen,34,47,body_parts,objects,1100,0,4,1
96,37104,0,97,2,2,1,gain3,no_gain3,D,F,45,34,objects,body_parts,14,22,Stimuli/Experimental_stims/objects/leohoho-rngTKHXumy0-unsplash.jpg,Stimuli/Experimental_stims/body_parts/wagner-santos-mBWMvIuVnso-unsplash.jpg,1,NaN,,NaN,unchosen,NaN,NaN,NaN,NaN,2300,0,4,1
97,37104,0,98,2,2,0,no_gain5,gain1,I,J,0,23,outdoor_scenes,faces,75,84,Stimuli/Experimental_stims/outdoor_scenes/aleksandra-boguslawska-MS7KD9Ti7FQ-unsplash.jpg,Stimuli/Experimental_stims/faces/rikonavt-HQjfrvdTfak-unsplash.jpg,0,0,759,1,chosen,23,0,faces,outdoor_scenes,2800,0,4,1
98,37104,0,99,2,2,0,no_gain5,gain5,I,A,30,37,body_parts,objects,26,21,Stimuli/Experimental_stims/body_parts/mika-korhonen-Xodzxosar18-unsplash.jpg,Stimuli/Experimental_stims/objects/alexander-andrews-VLGWE_SumrA-unsplash.jpg,0,0,787,1,unchosen,37,30,objects,body_parts,3200,1,4,1
99,37104,0,100,2,2,1,gain5,no_gain1,A,L,8,17,outdoor_scenes,faces,95,66,Stimuli/Experimental_stims/outdoor_scenes/samsommer-vddccTqwal8-unsplash.jpg,Stimuli/Experimental_stims/faces/good-faces-xmSWVeGEnJw-unsplash.jpg,0,1,614,1,chosen,8,17,outdoor_scenes,faces,2000,0,4,1
100,37104,0,101,2,2,0,no_gain2,gain6,K,E,27,28,body_parts,body_parts,21,68,Stimuli/Experimental_stims/body_parts/heike-mintel-i_Gns0ELnLw-unsplash.jpg,Stimuli/Experimental_stims/body_parts/ira-vishnevskaya-8DQAvdCby1I-unsplash.jpg,0,0,693,1,chosen,28,27,body_parts,body_parts,2500,0,4,1
101,37104,0,102,2,2,1,gain3,no_gain5,D,I,45,30,objects,body_parts,14,26,Stimuli/Experimental_stims/objects/leohoho-rngTKHXumy0-unsplash.jpg,Stimuli/Experimental_stims/body_parts/mika-korhonen-Xodzxosar18-unsplash.jpg,0,0,705,0,unchosen,30,45,body_parts,objects,1300,0,4,1
102,37104,0,103,2,2,1,gain6,no_gain3,E,F,38,34,objects,body_parts,32,22,Stimuli/Experimental_stims/objects/art-lasovsky-8XddFc6NkBY-unsplash.jpg,Stimuli/Experimental_stims/body_parts/wagner-santos-mBWMvIuVnso-unsplash.jpg,0,0,571,0,unchosen,34,38,body_parts,objects,1300,0,4,1
103,37104,0,104,2,2,1,gain4,no_gain4,C,G,33,41,body_parts,objects,20,18,Stimuli/Experimental_stims/body_parts/tucker-good-36skLT5jZcc-unsplash.jpg,Stimuli/Experimental_stims/objects/insung-yoon-w2JtIQQXoRU-unsplash.jpg,0,0,818,0,unchosen,41,33,objects,body_parts,4500,1,4,1
104,37104,0,105,2,2,1,gain6,no_gain1,E,L,28,17,body_parts,faces,68,66,Stimuli/Experimental_stims/body_parts/ira-vishnevskaya-8DQAvdCby1I-unsplash.jpg,Stimuli/Experimental_stims/faces/good-faces-xmSWVeGEnJw-unsplash.jpg,0,0,537,0,chosen,17,28,faces,body_parts,1400,0,4,1
105,37104,0,106,2,2,1,gain2,no_gain6,H,B,14,13,faces,faces,11,80,Stimuli/Experimental_stims/faces/david-siglin-UuW4psOb388-unsplash.jpg,Stimuli/Experimental_stims/faces/daniel-rigdon-dXmXKPP2L4E-unsplash.jpg,0,1,670,1,unchosen,14,13,faces,faces,2600,0,4,1
106,37104,0,107,2,2,1,gain4,no_gain4,C,G,10,3,outdoor_scenes,outdoor_scenes,77,86,Stimuli/Experimental_stims/outdoor_scenes/shannon-kunkle-dM8INmkyDas-unsplash.jpg,Stimuli/Experimental_stims/outdoor_scenes/henry-be-NLF6hTe4PAg-unsplash.jpg,0,1,694,1,chosen,10,3,outdoor_scenes,outdoor_scenes,2100,0,4,1
107,37104,0,108,2,2,0,no_gain6,gain6,B,E,13,38,faces,objects,80,32,Stimuli/Experimental_stims/faces/daniel-rigdon-dXmXKPP2L4E-unsplash.jpg,Stimuli/Experimental_stims/objects/art-lasovsky-8XddFc6NkBY-unsplash.jpg,0,1,664,0,unchosen,13,38,faces,objects,2100,0,4,1
108,37104,0,109,2,2,1,gain4,no_gain3,C,F,33,34,body_parts,body_parts,20,22,Stimuli/Experimental_stims/body_parts/tucker-good-36skLT5jZcc-unsplash.jpg,Stimuli/Experimental_stims/body_parts/wagner-santos-mBWMvIuVnso-unsplash.jpg,0,0,572,0,unchosen,34,33,body_parts,body_parts,2600,0,4,1
109,37104,0,110,2,2,0,no_gain1,gain1,L,J,17,23,faces,faces,66,84,Stimuli/Experimental_stims/faces/good-faces-xmSWVeGEnJw-unsplash.jpg,Stimuli/Experimental_stims/faces/rikonavt-HQjfrvdTfak-unsplash.jpg,0,1,572,0,chosen,17,23,faces,faces,3000,1,4,1
110,37104,0,111,2,2,1,gain2,no_gain4,H,G,7,3,outdoor_scenes,outdoor_scenes,86,86,Stimuli/Experimental_stims/outdoor_scenes/petr-vysohlid-9fqwGqGLUxc-unsplash.jpg,Stimuli/Experimental_stims/outdoor_scenes/henry-be-NLF6hTe4PAg-unsplash.jpg,0,1,756,1,chosen,7,3,outdoor_scenes,outdoor_scenes,1100,0,4,1
111,37104,0,112,2,2,0,no_gain1,gain3,L,D,35,45,body_parts,objects,22,14,Stimuli/Experimental_stims/body_parts/wc-so-KH4AAPjb-tI-unsplash.jpg,Stimuli/Experimental_stims/objects/leohoho-rngTKHXumy0-unsplash.jpg,0,0,675,1,unchosen,45,35,objects,body_parts,1000,0,4,1
112,37104,0,113,2,2,1,gain5,no_gain1,A,L,37,35,objects,body_parts,21,22,Stimuli/Experimental_stims/objects/alexander-andrews-VLGWE_SumrA-unsplash.jpg,Stimuli/Experimental_stims/body_parts/wc-so-KH4AAPjb-tI-unsplash.jpg,0,1,654,1,unchosen,37,35,objects,body_parts,1300,0,4,1
113,37104,0,114,2,2,1,gain3,no_gain6,D,B,18,2,faces,outdoor_scenes,17,91,Stimuli/Experimental_stims/faces/jessica-radanavong-mrYkTuAesKE-unsplash.jpg,Stimuli/Experimental_stims/outdoor_scenes/bruno-van-der-kraan-qez8mNJ3ilU-unsplash.jpg,0,1,667,1,chosen,18,2,faces,outdoor_scenes,1000,0,4,1
114,37104,0,115,2,2,0,no_gain1,gain1,L,J,35,47,body_parts,objects,22,0,Stimuli/Experimental_stims/body_parts/wc-so-KH4AAPjb-tI-unsplash.jpg,Stimuli/Experimental_stims/objects/ronaldo-arthur-vidal-Cdz_lvnl37k-unsplash.jpg,0,0,637,1,unchosen,47,35,objects,body_parts,1200,0,4,1
115,37104,0,116,2,2,0,no_gain5,gain3,I,D,0,18,outdoor_scenes,faces,75,17,Stimuli/Experimental_stims/outdoor_scenes/aleksandra-boguslawska-MS7KD9Ti7FQ-unsplash.jpg,Stimuli/Experimental_stims/faces/jessica-radanavong-mrYkTuAesKE-unsplash.jpg,0,1,630,0,chosen,0,18,outdoor_scenes,faces,1800,0,4,1
116,37104,0,117,2,2,1,gain5,no_gain2,A,K,37,40,objects,objects,21,36,Stimuli/Experimental_stims/objects/alexander-andrews-VLGWE_SumrA-unsplash.jpg,Stimuli/Experimental_stims/objects/fabian-blank-pElSkGRA2NU-unsplash.jpg,0,1,613,1,unchosen,37,40,objects,objects,2300,0,4,1
117,37104,0,118,2,2,1,gain4,no_gain1,C,L,10,17,outdoor_scenes,faces,77,66,Stimuli/Experimental_stims/outdoor_scenes/shannon-kunkle-dM8INmkyDas-unsplash.jpg,Stimuli/Experimental_stims/faces/good-faces-xmSWVeGEnJw-unsplash.jpg,0,0,707,0,chosen,17,10,faces,outdoor_scenes,3500,1,4,1
118,37104,0,119,2,2,0,no_gain2,gain6,K,E,40,38,objects,objects,36,32,Stimuli/Experimental_stims/objects/fabian-blank-pElSkGRA2NU-unsplash.jpg,Stimuli/Experimental_stims/objects/art-lasovsky-8XddFc6NkBY-unsplash.jpg,0,1,648,0,unchosen,40,38,objects,objects,1300,0,4,1
119,37104,0,120,2,2,0,no_gain2,gain5,K,A,27,8,body_parts,outdoor_scenes,21,95,Stimuli/Experimental_stims/body_parts/heike-mintel-i_Gns0ELnLw-unsplash.jpg,Stimuli/Experimental_stims/outdoor_scenes/samsommer-vddccTqwal8-unsplash.jpg,0,0,553,1,chosen,8,27,outdoor_scenes,body_parts,1400,0,4,1
120,37104,0,121,2,2,1,gain3,no_gain3,D,F,18,19,faces,faces,17,71,Stimuli/Experimental_stims/faces/jessica-radanavong-mrYkTuAesKE-unsplash.jpg,Stimuli/Experimental_stims/faces/joel-mott-LaK153ghdig-unsplash.jpg,0,1,640,1,chosen,18,19,faces,faces,1300,0,4,1
121,37104,0,122,2,2,1,gain6,no_gain1,E,L,38,35,objects,body_parts,32,22,Stimuli/Experimental_stims/objects/art-lasovsky-8XddFc6NkBY-unsplash.jpg,Stimuli/Experimental_stims/body_parts/wc-so-KH4AAPjb-tI-unsplash.jpg,0,1,786,1,unchosen,38,35,objects,body_parts,2800,0,4,1
122,37104,0,123,2,2,1,gain5,no_gain6,A,B,37,13,objects,faces,21,80,Stimuli/Experimental_stims/objects/alexander-andrews-VLGWE_SumrA-unsplash.jpg,Stimuli/Experimental_stims/faces/daniel-rigdon-dXmXKPP2L4E-unsplash.jpg,0,0,836,0,unchosen,13,37,faces,objects,1800,0,4,1
123,37104,0,124,2,2,0,no_gain2,gain4,K,C,40,33,objects,body_parts,36,20,Stimuli/Experimental_stims/objects/fabian-blank-pElSkGRA2NU-unsplash.jpg,Stimuli/Experimental_stims/body_parts/tucker-good-36skLT5jZcc-unsplash.jpg,0,1,654,0,unchosen,40,33,objects,body_parts,1200,0,4,1
124,37104,0,125,2,2,0,no_gain3,gain4,F,C,19,10,faces,outdoor_scenes,71,77,Stimuli/Experimental_stims/faces/joel-mott-LaK153ghdig-unsplash.jpg,Stimuli/Experimental_stims/outdoor_scenes/shannon-kunkle-dM8INmkyDas-unsplash.jpg,0,0,795,1,chosen,10,19,outdoor_scenes,faces,1000,0,4,1
125,37104,0,126,2,2,1,gain3,no_gain4,D,G,45,41,objects,objects,14,18,Stimuli/Experimental_stims/objects/leohoho-rngTKHXumy0-unsplash.jpg,Stimuli/Experimental_stims/objects/insung-yoon-w2JtIQQXoRU-unsplash.jpg,0,1,693,1,unchosen,45,41,objects,objects,1600,0,4,1
126,37104,0,127,2,2,0,no_gain2,gain4,K,C,27,10,body_parts,outdoor_scenes,21,77,Stimuli/Experimental_stims/body_parts/heike-mintel-i_Gns0ELnLw-unsplash.jpg,Stimuli/Experimental_stims/outdoor_scenes/shannon-kunkle-dM8INmkyDas-unsplash.jpg,0,0,563,1,chosen,10,27,outdoor_scenes,body_parts,1500,0,4,1
127,37104,0,128,2,2,0,no_gain5,gain2,I,H,0,7,outdoor_scenes,outdoor_scenes,75,86,Stimuli/Experimental_stims/outdoor_scenes/aleksandra-boguslawska-MS7KD9Ti7FQ-unsplash.jpg,Stimuli/Experimental_stims/outdoor_scenes/petr-vysohlid-9fqwGqGLUxc-unsplash.jpg,0,0,654,1,chosen,7,0,outdoor_scenes,outdoor_scenes,3300,1,4,1
128,37104,0,129,2,2,0,no_gain4,gain1,G,J,3,23,outdoor_scenes,faces,86,84,Stimuli/Experimental_stims/outdoor_scenes/henry-be-NLF6hTe4PAg-unsplash.jpg,Stimuli/Experimental_stims/faces/rikonavt-HQjfrvdTfak-unsplash.jpg,0,0,735,1,chosen,23,3,faces,outdoor_scenes,2200,0,4,1
129,37104,0,130,2,2,0,no_gain5,gain6,I,E,30,38,body_parts,objects,26,32,Stimuli/Experimental_stims/body_parts/mika-korhonen-Xodzxosar18-unsplash.jpg,Stimuli/Experimental_stims/objects/art-lasovsky-8XddFc6NkBY-unsplash.jpg,0,0,638,1,unchosen,38,30,objects,body_parts,2400,0,4,1
130,37104,0,131,2,2,1,gain2,no_gain3,H,F,7,19,outdoor_scenes,faces,86,71,Stimuli/Experimental_stims/outdoor_scenes/petr-vysohlid-9fqwGqGLUxc-unsplash.jpg,Stimuli/Experimental_stims/faces/joel-mott-LaK153ghdig-unsplash.jpg,0,1,726,1,chosen,7,19,outdoor_scenes,faces,1300,0,4,1
131,37104,0,132,2,2,1,gain6,no_gain4,E,G,38,41,objects,objects,32,18,Stimuli/Experimental_stims/objects/art-lasovsky-8XddFc6NkBY-unsplash.jpg,Stimuli/Experimental_stims/objects/insung-yoon-w2JtIQQXoRU-unsplash.jpg,0,1,613,1,unchosen,38,41,objects,objects,2400,0,4,1
132,37104,0,133,2,2,0,no_gain1,gain4,L,C,35,33,body_parts,body_parts,22,20,Stimuli/Experimental_stims/body_parts/wc-so-KH4AAPjb-tI-unsplash.jpg,Stimuli/Experimental_stims/body_parts/tucker-good-36skLT5jZcc-unsplash.jpg,0,1,678,0,unchosen,35,33,body_parts,body_parts,2200,0,4,1
133,37104,0,134,2,2,0,no_gain6,gain4,B,C,2,10,outdoor_scenes,outdoor_scenes,91,77,Stimuli/Experimental_stims/outdoor_scenes/bruno-van-der-kraan-qez8mNJ3ilU-unsplash.jpg,Stimuli/Experimental_stims/outdoor_scenes/shannon-kunkle-dM8INmkyDas-unsplash.jpg,0,0,515,1,chosen,10,2,outdoor_scenes,outdoor_scenes,2900,1,4,1
134,37104,0,135,2,2,1,gain1,no_gain6,J,B,23,2,faces,outdoor_scenes,84,91,Stimuli/Experimental_stims/faces/rikonavt-HQjfrvdTfak-unsplash.jpg,Stimuli/Experimental_stims/outdoor_scenes/bruno-van-der-kraan-qez8mNJ3ilU-unsplash.jpg,0,0,593,0,chosen,2,23,outdoor_scenes,faces,1900,0,4,1
135,37104,0,136,2,2,0,no_gain1,gain2,L,H,35,14,body_parts,faces,22,11,Stimuli/Experimental_stims/body_parts/wc-so-KH4AAPjb-tI-unsplash.jpg,Stimuli/Experimental_stims/faces/david-siglin-UuW4psOb388-unsplash.jpg,0,0,619,1,unchosen,14,35,faces,body_parts,1700,0,4,1
136,37104,0,137,2,2,0,no_gain4,gain2,G,H,41,14,objects,faces,18,11,Stimuli/Experimental_stims/objects/insung-yoon-w2JtIQQXoRU-unsplash.jpg,Stimuli/Experimental_stims/faces/david-siglin-UuW4psOb388-unsplash.jpg,0,0,594,1,unchosen,14,41,faces,objects,1900,0,4,1
137,37104,0,138,2,2,1,gain6,no_gain6,E,B,28,2,body_parts,outdoor_scenes,68,91,Stimuli/Experimental_stims/body_parts/ira-vishnevskaya-8DQAvdCby1I-unsplash.jpg,Stimuli/Experimental_stims/outdoor_scenes/bruno-van-der-kraan-qez8mNJ3ilU-unsplash.jpg,0,1,814,1,chosen,28,2,body_parts,outdoor_scenes,1700,0,4,1
138,37104,0,139,2,2,0,no_gain3,gain2,F,H,34,14,body_parts,faces,22,11,Stimuli/Experimental_stims/body_parts/wagner-santos-mBWMvIuVnso-unsplash.jpg,Stimuli/Experimental_stims/faces/david-siglin-UuW4psOb388-unsplash.jpg,0,0,567,1,unchosen,14,34,faces,body_parts,1300,0,4,1
139,37104,0,140,2,2,1,gain5,no_gain4,A,G,37,41,objects,objects,21,18,Stimuli/Experimental_stims/objects/alexander-andrews-VLGWE_SumrA-unsplash.jpg,Stimuli/Experimental_stims/objects/insung-yoon-w2JtIQQXoRU-unsplash.jpg,0,0,623,0,unchosen,41,37,objects,objects,3600,1,4,1
140,37104,0,141,2,2,1,gain5,no_gain4,A,G,8,3,outdoor_scenes,outdoor_scenes,95,86,Stimuli/Experimental_stims/outdoor_scenes/samsommer-vddccTqwal8-unsplash.jpg,Stimuli/Experimental_stims/outdoor_scenes/henry-be-NLF6hTe4PAg-unsplash.jpg,0,1,709,1,chosen,8,3,outdoor_scenes,outdoor_scenes,1700,0,4,1
141,37104,0,142,2,2,0,no_gain6,gain2,B,H,2,7,outdoor_scenes,outdoor_scenes,91,86,Stimuli/Experimental_stims/outdoor_scenes/bruno-van-der-kraan-qez8mNJ3ilU-unsplash.jpg,Stimuli/Experimental_stims/outdoor_scenes/petr-vysohlid-9fqwGqGLUxc-unsplash.jpg,0,0,843,1,chosen,7,2,outdoor_scenes,outdoor_scenes,1900,0,4,1
142,37104,0,143,2,2,0,no_gain2,gain1,K,J,27,23,body_parts,faces,21,84,Stimuli/Experimental_stims/body_parts/heike-mintel-i_Gns0ELnLw-unsplash.jpg,Stimuli/Experimental_stims/faces/rikonavt-HQjfrvdTfak-unsplash.jpg,0,0,777,1,chosen,23,27,faces,body_parts,2200,0,4,1
143,37104,0,144,2,2,0,no_gain3,gain5,F,A,34,37,body_parts,objects,22,21,Stimuli/Experimental_stims/body_parts/wagner-santos-mBWMvIuVnso-unsplash.jpg,Stimuli/Experimental_stims/objects/alexander-andrews-VLGWE_SumrA-unsplash.jpg,0,1,692,0,unchosen,34,37,body_parts,objects,1800,0,4,1
144,37104,0,145,2,2,0,no_gain6,gain3,B,D,13,45,faces,objects,80,14,Stimuli/Experimental_stims/faces/daniel-rigdon-dXmXKPP2L4E-unsplash.jpg,Stimuli/Experimental_stims/objects/leohoho-rngTKHXumy0-unsplash.jpg,0,1,784,0,unchosen,13,45,faces,objects,1400,0,4,1
145,37104,0,146,2,2,0,no_gain2,gain3,K,D,27,18,body_parts,faces,21,17,Stimuli/Experimental_stims/body_parts/heike-mintel-i_Gns0ELnLw-unsplash.jpg,Stimuli/Experimental_stims/faces/jessica-radanavong-mrYkTuAesKE-unsplash.jpg,0,0,624,1,chosen,18,27,faces,body_parts,1800,0,4,1
146,37104,0,147,2,2,1,gain3,no_gain2,D,K,45,40,objects,objects,14,36,Stimuli/Experimental_stims/objects/leohoho-rngTKHXumy0-unsplash.jpg,Stimuli/Experimental_stims/objects/fabian-blank-pElSkGRA2NU-unsplash.jpg,0,1,630,1,unchosen,45,40,objects,objects,1300,0,4,1
147,37104,0,148,2,2,1,gain1,no_gain6,J,B,47,13,objects,faces,0,80,Stimuli/Experimental_stims/objects/ronaldo-arthur-vidal-Cdz_lvnl37k-unsplash.jpg,Stimuli/Experimental_stims/faces/daniel-rigdon-dXmXKPP2L4E-unsplash.jpg,0,0,695,0,unchosen,13,47,faces,objects,3600,1,4,1
148,37104,0,149,3,3,1,gain3,no_gain6,D,B,45,13,objects,faces,14,80,Stimuli/Experimental_stims/objects/leohoho-rngTKHXumy0-unsplash.jpg,Stimuli/Experimental_stims/faces/daniel-rigdon-dXmXKPP2L4E-unsplash.jpg,0,1,1041,1,unchosen,45,13,objects,faces,1200,0,5,1
149,37104,0,150,3,3,1,gain3,no_gain3,D,F,18,19,faces,faces,17,71,Stimuli/Experimental_stims/faces/jessica-radanavong-mrYkTuAesKE-unsplash.jpg,Stimuli/Experimental_stims/faces/joel-mott-LaK153ghdig-unsplash.jpg,0,1,700,1,chosen,18,19,faces,faces,1100,0,5,1
150,37104,0,151,3,3,1,gain1,no_gain4,J,G,23,3,faces,outdoor_scenes,84,86,Stimuli/Experimental_stims/faces/rikonavt-HQjfrvdTfak-unsplash.jpg,Stimuli/Experimental_stims/outdoor_scenes/henry-be-NLF6hTe4PAg-unsplash.jpg,0,1,593,1,chosen,23,3,faces,outdoor_scenes,1100,0,5,1
151,37104,0,152,3,3,1,gain5,no_gain6,A,B,37,13,objects,faces,21,80,Stimuli/Experimental_stims/objects/alexander-andrews-VLGWE_SumrA-unsplash.jpg,Stimuli/Experimental_stims/faces/daniel-rigdon-dXmXKPP2L4E-unsplash.jpg,0,1,730,1,unchosen,37,13,objects,faces,1300,0,5,1
152,37104,0,153,3,3,1,gain2,no_gain6,H,B,7,2,outdoor_scenes,outdoor_scenes,86,91,Stimuli/Experimental_stims/outdoor_scenes/petr-vysohlid-9fqwGqGLUxc-unsplash.jpg,Stimuli/Experimental_stims/outdoor_scenes/bruno-van-der-kraan-qez8mNJ3ilU-unsplash.jpg,0,1,856,1,chosen,7,2,outdoor_scenes,outdoor_scenes,3300,1,5,1
153,37104,0,154,3,3,1,gain6,no_gain6,E,B,28,2,body_parts,outdoor_scenes,68,91,Stimuli/Experimental_stims/body_parts/ira-vishnevskaya-8DQAvdCby1I-unsplash.jpg,Stimuli/Experimental_stims/outdoor_scenes/bruno-van-der-kraan-qez8mNJ3ilU-unsplash.jpg,0,1,718,1,chosen,28,2,body_parts,outdoor_scenes,1000,0,5,1
154,37104,0,155,3,3,1,gain1,no_gain2,J,K,47,40,objects,objects,0,36,Stimuli/Experimental_stims/objects/ronaldo-arthur-vidal-Cdz_lvnl37k-unsplash.jpg,Stimuli/Experimental_stims/objects/fabian-blank-pElSkGRA2NU-unsplash.jpg,0,1,823,1,unchosen,47,40,objects,objects,1300,0,5,1
155,37104,0,156,3,3,0,no_gain4,gain3,G,D,3,18,outdoor_scenes,faces,86,17,Stimuli/Experimental_stims/outdoor_scenes/henry-be-NLF6hTe4PAg-unsplash.jpg,Stimuli/Experimental_stims/faces/jessica-radanavong-mrYkTuAesKE-unsplash.jpg,0,1,562,0,chosen,3,18,outdoor_scenes,faces,1300,0,5,1
156,37104,0,157,3,3,0,no_gain4,gain4,G,C,3,10,outdoor_scenes,outdoor_scenes,86,77,Stimuli/Experimental_stims/outdoor_scenes/henry-be-NLF6hTe4PAg-unsplash.jpg,Stimuli/Experimental_stims/outdoor_scenes/shannon-kunkle-dM8INmkyDas-unsplash.jpg,0,1,727,0,chosen,3,10,outdoor_scenes,outdoor_scenes,1600,0,5,1
157,37104,0,158,3,3,1,gain6,no_gain3,E,F,28,19,body_parts,faces,68,71,Stimuli/Experimental_stims/body_parts/ira-vishnevskaya-8DQAvdCby1I-unsplash.jpg,Stimuli/Experimental_stims/faces/joel-mott-LaK153ghdig-unsplash.jpg,0,1,633,1,chosen,28,19,body_parts,faces,1400,0,5,1
158,37104,0,159,3,3,0,no_gain1,gain2,L,H,35,14,body_parts,faces,22,11,Stimuli/Experimental_stims/body_parts/wc-so-KH4AAPjb-tI-unsplash.jpg,Stimuli/Experimental_stims/faces/david-siglin-UuW4psOb388-unsplash.jpg,0,0,643,1,unchosen,14,35,faces,body_parts,2100,0,5,1
159,37104,0,160,3,3,0,no_gain4,gain3,G,D,41,45,objects,objects,18,14,Stimuli/Experimental_stims/objects/insung-yoon-w2JtIQQXoRU-unsplash.jpg,Stimuli/Experimental_stims/objects/leohoho-rngTKHXumy0-unsplash.jpg,0,0,610,1,unchosen,45,41,objects,objects,1200,0,5,1
160,37104,0,161,3,3,0,no_gain1,gain3,L,D,17,18,faces,faces,66,17,Stimuli/Experimental_stims/faces/good-faces-xmSWVeGEnJw-unsplash.jpg,Stimuli/Experimental_stims/faces/jessica-radanavong-mrYkTuAesKE-unsplash.jpg,0,0,708,1,chosen,18,17,faces,faces,4100,1,5,1
161,37104,0,162,3,3,0,no_gain1,gain4,L,C,35,33,body_parts,body_parts,22,20,Stimuli/Experimental_stims/body_parts/wc-so-KH4AAPjb-tI-unsplash.jpg,Stimuli/Experimental_stims/body_parts/tucker-good-36skLT5jZcc-unsplash.jpg,0,1,615,0,unchosen,35,33,body_parts,body_parts,1900,0,5,1
162,37104,0,163,3,3,1,gain5,no_gain5,A,I,8,0,outdoor_scenes,outdoor_scenes,95,75,Stimuli/Experimental_stims/outdoor_scenes/samsommer-vddccTqwal8-unsplash.jpg,Stimuli/Experimental_stims/outdoor_scenes/aleksandra-boguslawska-MS7KD9Ti7FQ-unsplash.jpg,0,0,571,0,chosen,0,8,outdoor_scenes,outdoor_scenes,2000,0,5,1
163,37104,0,164,3,3,0,no_gain2,gain5,K,A,40,37,objects,objects,36,21,Stimuli/Experimental_stims/objects/fabian-blank-pElSkGRA2NU-unsplash.jpg,Stimuli/Experimental_stims/objects/alexander-andrews-VLGWE_SumrA-unsplash.jpg,0,1,676,0,unchosen,40,37,objects,objects,2600,0,5,1
164,37104,0,165,3,3,1,gain1,no_gain4,J,G,47,41,objects,objects,0,18,Stimuli/Experimental_stims/objects/ronaldo-arthur-vidal-Cdz_lvnl37k-unsplash.jpg,Stimuli/Experimental_stims/objects/insung-yoon-w2JtIQQXoRU-unsplash.jpg,0,0,747,0,unchosen,41,47,objects,objects,1100,0,5,1
165,37104,0,166,3,3,0,no_gain4,gain5,G,A,3,8,outdoor_scenes,outdoor_scenes,86,95,Stimuli/Experimental_stims/outdoor_scenes/henry-be-NLF6hTe4PAg-unsplash.jpg,Stimuli/Experimental_stims/outdoor_scenes/samsommer-vddccTqwal8-unsplash.jpg,0,1,658,0,chosen,3,8,outdoor_scenes,outdoor_scenes,4400,1,5,1
166,37104,0,167,3,3,0,no_gain5,gain4,I,C,30,33,body_parts,body_parts,26,20,Stimuli/Experimental_stims/body_parts/mika-korhonen-Xodzxosar18-unsplash.jpg,Stimuli/Experimental_stims/body_parts/tucker-good-36skLT5jZcc-unsplash.jpg,0,1,700,0,unchosen,30,33,body_parts,body_parts,1200,0,5,1
167,37104,0,168,3,3,0,no_gain5,gain6,I,E,0,28,outdoor_scenes,body_parts,75,68,Stimuli/Experimental_stims/outdoor_scenes/aleksandra-boguslawska-MS7KD9Ti7FQ-unsplash.jpg,Stimuli/Experimental_stims/body_parts/ira-vishnevskaya-8DQAvdCby1I-unsplash.jpg,0,0,659,1,chosen,28,0,body_parts,outdoor_scenes,1100,0,5,1
168,37104,0,169,3,3,1,gain1,no_gain6,J,B,47,13,objects,faces,0,80,Stimuli/Experimental_stims/objects/ronaldo-arthur-vidal-Cdz_lvnl37k-unsplash.jpg,Stimuli/Experimental_stims/faces/daniel-rigdon-dXmXKPP2L4E-unsplash.jpg,0,1,739,1,unchosen,47,13,objects,faces,1700,0,5,1
169,37104,0,170,3,3,1,gain2,no_gain2,H,K,7,27,outdoor_scenes,body_parts,86,21,Stimuli/Experimental_stims/outdoor_scenes/petr-vysohlid-9fqwGqGLUxc-unsplash.jpg,Stimuli/Experimental_stims/body_parts/heike-mintel-i_Gns0ELnLw-unsplash.jpg,0,1,689,1,chosen,7,27,outdoor_scenes,body_parts,1100,0,5,1
170,37104,0,171,3,3,0,no_gain2,gain4,K,C,40,33,objects,body_parts,36,20,Stimuli/Experimental_stims/objects/fabian-blank-pElSkGRA2NU-unsplash.jpg,Stimuli/Experimental_stims/body_parts/tucker-good-36skLT5jZcc-unsplash.jpg,0,1,675,0,unchosen,40,33,objects,body_parts,3300,1,5,1
171,37104,0,172,3,3,0,no_gain3,gain2,F,H,19,7,faces,outdoor_scenes,71,86,Stimuli/Experimental_stims/faces/joel-mott-LaK153ghdig-unsplash.jpg,Stimuli/Experimental_stims/outdoor_scenes/petr-vysohlid-9fqwGqGLUxc-unsplash.jpg,0,0,738,1,chosen,7,19,outdoor_scenes,faces,2800,0,5,1
172,37104,0,173,3,3,0,no_gain4,gain2,G,H,3,7,outdoor_scenes,outdoor_scenes,86,86,Stimuli/Experimental_stims/outdoor_scenes/henry-be-NLF6hTe4PAg-unsplash.jpg,Stimuli/Experimental_stims/outdoor_scenes/petr-vysohlid-9fqwGqGLUxc-unsplash.jpg,0,0,749,1,chosen,7,3,outdoor_scenes,outdoor_scenes,1000,0,5,1
173,37104,0,174,3,3,0,no_gain1,gain6,L,E,35,38,body_parts,objects,22,32,Stimuli/Experimental_stims/body_parts/wc-so-KH4AAPjb-tI-unsplash.jpg,Stimuli/Experimental_stims/objects/art-lasovsky-8XddFc6NkBY-unsplash.jpg,0,1,710,0,unchosen,35,38,body_parts,objects,3100,0,5,1
174,37104,0,175,3,3,1,gain4,no_gain1,C,L,10,17,outdoor_scenes,faces,77,66,Stimuli/Experimental_stims/outdoor_scenes/shannon-kunkle-dM8INmkyDas-unsplash.jpg,Stimuli/Experimental_stims/faces/good-faces-xmSWVeGEnJw-unsplash.jpg,0,0,691,0,chosen,17,10,faces,outdoor_scenes,2000,0,5,1
175,37104,0,176,3,3,0,no_gain6,gain6,B,E,13,38,faces,objects,80,32,Stimuli/Experimental_stims/faces/daniel-rigdon-dXmXKPP2L4E-unsplash.jpg,Stimuli/Experimental_stims/objects/art-lasovsky-8XddFc6NkBY-unsplash.jpg,0,1,676,0,unchosen,13,38,faces,objects,2300,0,5,1
176,37104,0,177,3,3,0,no_gain2,gain5,K,A,27,8,body_parts,outdoor_scenes,21,95,Stimuli/Experimental_stims/body_parts/heike-mintel-i_Gns0ELnLw-unsplash.jpg,Stimuli/Experimental_stims/outdoor_scenes/samsommer-vddccTqwal8-unsplash.jpg,0,0,590,1,chosen,8,27,outdoor_scenes,body_parts,1500,0,5,1
177,37104,0,178,3,3,0,no_gain5,gain2,I,H,30,14,body_parts,faces,26,11,Stimuli/Experimental_stims/body_parts/mika-korhonen-Xodzxosar18-unsplash.jpg,Stimuli/Experimental_stims/faces/david-siglin-UuW4psOb388-unsplash.jpg,0,0,618,1,unchosen,14,30,faces,body_parts,1600,0,5,1
178,37104,0,179,3,3,1,gain6,no_gain1,E,L,28,17,body_parts,faces,68,66,Stimuli/Experimental_stims/body_parts/ira-vishnevskaya-8DQAvdCby1I-unsplash.jpg,Stimuli/Experimental_stims/faces/good-faces-xmSWVeGEnJw-unsplash.jpg,0,1,754,1,chosen,28,17,body_parts,faces,4200,1,5,1
179,37104,0,180,3,3,0,no_gain5,gain4,I,C,0,10,outdoor_scenes,outdoor_scenes,75,77,Stimuli/Experimental_stims/outdoor_scenes/aleksandra-boguslawska-MS7KD9Ti7FQ-unsplash.jpg,Stimuli/Experimental_stims/outdoor_scenes/shannon-kunkle-dM8INmkyDas-unsplash.jpg,0,0,917,1,chosen,10,0,outdoor_scenes,outdoor_scenes,1000,0,5,1
180,37104,0,181,3,3,0,no_gain6,gain3,B,D,2,18,outdoor_scenes,faces,91,17,Stimuli/Experimental_stims/outdoor_scenes/bruno-van-der-kraan-qez8mNJ3ilU-unsplash.jpg,Stimuli/Experimental_stims/faces/jessica-radanavong-mrYkTuAesKE-unsplash.jpg,0,0,683,1,chosen,18,2,faces,outdoor_scenes,2000,0,5,1
181,37104,0,182,3,3,1,gain4,no_gain3,C,F,33,34,body_parts,body_parts,20,22,Stimuli/Experimental_stims/body_parts/tucker-good-36skLT5jZcc-unsplash.jpg,Stimuli/Experimental_stims/body_parts/wagner-santos-mBWMvIuVnso-unsplash.jpg,0,0,824,0,unchosen,34,33,body_parts,body_parts,1700,0,5,1
182,37104,0,183,3,3,1,gain2,no_gain6,H,B,14,13,faces,faces,11,80,Stimuli/Experimental_stims/faces/david-siglin-UuW4psOb388-unsplash.jpg,Stimuli/Experimental_stims/faces/daniel-rigdon-dXmXKPP2L4E-unsplash.jpg,0,1,637,1,unchosen,14,13,faces,faces,2300,0,5,1
183,37104,0,184,3,3,1,gain4,no_gain4,C,G,33,41,body_parts,objects,20,18,Stimuli/Experimental_stims/body_parts/tucker-good-36skLT5jZcc-unsplash.jpg,Stimuli/Experimental_stims/objects/insung-yoon-w2JtIQQXoRU-unsplash.jpg,0,0,658,0,unchosen,41,33,objects,body_parts,3300,1,5,1
184,37104,0,185,3,3,0,no_gain1,gain2,L,H,17,7,faces,outdoor_scenes,66,86,Stimuli/Experimental_stims/faces/good-faces-xmSWVeGEnJw-unsplash.jpg,Stimuli/Experimental_stims/outdoor_scenes/petr-vysohlid-9fqwGqGLUxc-unsplash.jpg,0,1,690,0,chosen,17,7,faces,outdoor_scenes,1100,0,5,1
185,37104,0,186,3,3,0,no_gain4,gain6,G,E,3,28,outdoor_scenes,body_parts,86,68,Stimuli/Experimental_stims/outdoor_scenes/henry-be-NLF6hTe4PAg-unsplash.jpg,Stimuli/Experimental_stims/body_parts/ira-vishnevskaya-8DQAvdCby1I-unsplash.jpg,0,0,950,1,chosen,28,3,body_parts,outdoor_scenes,1900,0,5,1
186,37104,0,187,3,3,1,gain3,no_gain5,D,I,18,0,faces,outdoor_scenes,17,75,Stimuli/Experimental_stims/faces/jessica-radanavong-mrYkTuAesKE-unsplash.jpg,Stimuli/Experimental_stims/outdoor_scenes/aleksandra-boguslawska-MS7KD9Ti7FQ-unsplash.jpg,0,1,643,1,chosen,18,0,faces,outdoor_scenes,2400,0,5,1
187,37104,0,188,3,3,0,no_gain2,gain6,K,E,40,38,objects,objects,36,32,Stimuli/Experimental_stims/objects/fabian-blank-pElSkGRA2NU-unsplash.jpg,Stimuli/Experimental_stims/objects/art-lasovsky-8XddFc6NkBY-unsplash.jpg,0,0,683,1,unchosen,38,40,objects,objects,1900,0,5,1
188,37104,0,189,3,3,0,no_gain1,gain1,L,J,35,47,body_parts,objects,22,0,Stimuli/Experimental_stims/body_parts/wc-so-KH4AAPjb-tI-unsplash.jpg,Stimuli/Experimental_stims/objects/ronaldo-arthur-vidal-Cdz_lvnl37k-unsplash.jpg,0,0,618,1,unchosen,47,35,objects,body_parts,3300,1,5,1
189,37104,0,190,3,3,0,no_gain3,gain5,F,A,34,37,body_parts,objects,22,21,Stimuli/Experimental_stims/body_parts/wagner-santos-mBWMvIuVnso-unsplash.jpg,Stimuli/Experimental_stims/objects/alexander-andrews-VLGWE_SumrA-unsplash.jpg,0,1,628,0,unchosen,34,37,body_parts,objects,1200,0,5,1
190,37104,0,191,3,3,1,gain1,no_gain1,J,L,23,17,faces,faces,84,66,Stimuli/Experimental_stims/faces/rikonavt-HQjfrvdTfak-unsplash.jpg,Stimuli/Experimental_stims/faces/good-faces-xmSWVeGEnJw-unsplash.jpg,0,1,911,1,chosen,23,17,faces,faces,1100,0,5,1
191,37104,0,192,3,3,0,no_gain4,gain5,G,A,41,37,objects,objects,18,21,Stimuli/Experimental_stims/objects/insung-yoon-w2JtIQQXoRU-unsplash.jpg,Stimuli/Experimental_stims/objects/alexander-andrews-VLGWE_SumrA-unsplash.jpg,0,1,764,0,unchosen,41,37,objects,objects,1400,0,5,1
192,37104,0,193,3,3,1,gain3,no_gain1,D,L,45,35,objects,body_parts,14,22,Stimuli/Experimental_stims/objects/leohoho-rngTKHXumy0-unsplash.jpg,Stimuli/Experimental_stims/body_parts/wc-so-KH4AAPjb-tI-unsplash.jpg,0,1,734,1,unchosen,45,35,objects,body_parts,2600,0,5,1
193,37104,0,194,3,3,1,gain6,no_gain4,E,G,38,41,objects,objects,32,18,Stimuli/Experimental_stims/objects/art-lasovsky-8XddFc6NkBY-unsplash.jpg,Stimuli/Experimental_stims/objects/insung-yoon-w2JtIQQXoRU-unsplash.jpg,0,1,681,1,unchosen,38,41,objects,objects,1100,0,5,1
194,37104,0,195,3,3,1,gain1,no_gain3,J,F,23,19,faces,faces,84,71,Stimuli/Experimental_stims/faces/rikonavt-HQjfrvdTfak-unsplash.jpg,Stimuli/Experimental_stims/faces/joel-mott-LaK153ghdig-unsplash.jpg,0,0,786,0,chosen,19,23,faces,faces,4100,1,5,1
195,37104,0,196,3,3,1,gain6,no_gain3,E,F,38,34,objects,body_parts,32,22,Stimuli/Experimental_stims/objects/art-lasovsky-8XddFc6NkBY-unsplash.jpg,Stimuli/Experimental_stims/body_parts/wagner-santos-mBWMvIuVnso-unsplash.jpg,0,0,721,0,unchosen,34,38,body_parts,objects,1000,0,5,1
196,37104,0,197,3,3,0,no_gain3,gain4,F,C,19,10,faces,outdoor_scenes,71,77,Stimuli/Experimental_stims/faces/joel-mott-LaK153ghdig-unsplash.jpg,Stimuli/Experimental_stims/outdoor_scenes/shannon-kunkle-dM8INmkyDas-unsplash.jpg,0,0,909,1,chosen,10,19,outdoor_scenes,faces,1800,0,5,1
197,37104,0,198,3,3,1,gain1,no_gain3,J,F,47,34,objects,body_parts,0,22,Stimuli/Experimental_stims/objects/ronaldo-arthur-vidal-Cdz_lvnl37k-unsplash.jpg,Stimuli/Experimental_stims/body_parts/wagner-santos-mBWMvIuVnso-unsplash.jpg,0,0,627,0,unchosen,34,47,body_parts,objects,1600,0,5,1
198,37104,0,199,3,3,1,gain4,no_gain6,C,B,33,13,body_parts,faces,20,80,Stimuli/Experimental_stims/body_parts/tucker-good-36skLT5jZcc-unsplash.jpg,Stimuli/Experimental_stims/faces/daniel-rigdon-dXmXKPP2L4E-unsplash.jpg,0,1,685,1,unchosen,33,13,body_parts,faces,2100,0,5,1
199,37104,0,200,3,3,1,gain2,no_gain4,H,G,14,41,faces,objects,11,18,Stimuli/Experimental_stims/faces/david-siglin-UuW4psOb388-unsplash.jpg,Stimuli/Experimental_stims/objects/insung-yoon-w2JtIQQXoRU-unsplash.jpg,0,1,625,1,unchosen,14,41,faces,objects,1700,0,5,1
200,37104,0,201,3,3,1,gain5,no_gain3,A,F,8,19,outdoor_scenes,faces,95,71,Stimuli/Experimental_stims/outdoor_scenes/samsommer-vddccTqwal8-unsplash.jpg,Stimuli/Experimental_stims/faces/joel-mott-LaK153ghdig-unsplash.jpg,0,1,752,1,chosen,8,19,outdoor_scenes,faces,3200,1,5,1
201,37104,0,202,3,3,0,no_gain6,gain4,B,C,2,10,outdoor_scenes,outdoor_scenes,91,77,Stimuli/Experimental_stims/outdoor_scenes/bruno-van-der-kraan-qez8mNJ3ilU-unsplash.jpg,Stimuli/Experimental_stims/outdoor_scenes/shannon-kunkle-dM8INmkyDas-unsplash.jpg,0,0,694,1,chosen,10,2,outdoor_scenes,outdoor_scenes,1100,0,5,1
202,37104,0,203,3,3,1,gain2,no_gain2,H,K,14,40,faces,objects,11,36,Stimuli/Experimental_stims/faces/david-siglin-UuW4psOb388-unsplash.jpg,Stimuli/Experimental_stims/objects/fabian-blank-pElSkGRA2NU-unsplash.jpg,0,1,623,1,unchosen,14,40,faces,objects,2800,0,5,1
203,37104,0,204,3,3,1,gain2,no_gain5,H,I,7,0,outdoor_scenes,outdoor_scenes,86,75,Stimuli/Experimental_stims/outdoor_scenes/petr-vysohlid-9fqwGqGLUxc-unsplash.jpg,Stimuli/Experimental_stims/outdoor_scenes/aleksandra-boguslawska-MS7KD9Ti7FQ-unsplash.jpg,0,1,804,1,chosen,7,0,outdoor_scenes,outdoor_scenes,1400,0,5,1
204,37104,0,205,3,3,1,gain1,no_gain2,J,K,23,27,faces,body_parts,84,21,Stimuli/Experimental_stims/faces/rikonavt-HQjfrvdTfak-unsplash.jpg,Stimuli/Experimental_stims/body_parts/heike-mintel-i_Gns0ELnLw-unsplash.jpg,0,1,965,1,chosen,23,27,faces,body_parts,2200,0,5,1
205,37104,0,206,3,3,1,gain3,no_gain3,D,F,45,34,objects,body_parts,14,22,Stimuli/Experimental_stims/objects/leohoho-rngTKHXumy0-unsplash.jpg,Stimuli/Experimental_stims/body_parts/wagner-santos-mBWMvIuVnso-unsplash.jpg,0,1,588,1,unchosen,45,34,objects,body_parts,1200,0,5,1
206,37104,0,207,3,3,0,no_gain6,gain5,B,A,2,8,outdoor_scenes,outdoor_scenes,91,95,Stimuli/Experimental_stims/outdoor_scenes/bruno-van-der-kraan-qez8mNJ3ilU-unsplash.jpg,Stimuli/Experimental_stims/outdoor_scenes/samsommer-vddccTqwal8-unsplash.jpg,0,0,1148,1,chosen,8,2,outdoor_scenes,outdoor_scenes,2100,0,5,1
207,37104,0,208,3,3,1,gain1,no_gain5,J,I,23,0,faces,outdoor_scenes,84,75,Stimuli/Experimental_stims/faces/rikonavt-HQjfrvdTfak-unsplash.jpg,Stimuli/Experimental_stims/outdoor_scenes/aleksandra-boguslawska-MS7KD9Ti7FQ-unsplash.jpg,0,1,666,1,chosen,23,0,faces,outdoor_scenes,2600,0,5,1
208,37104,0,209,3,3,0,no_gain2,gain3,K,D,40,45,objects,objects,36,14,Stimuli/Experimental_stims/objects/fabian-blank-pElSkGRA2NU-unsplash.jpg,Stimuli/Experimental_stims/objects/leohoho-rngTKHXumy0-unsplash.jpg,0,1,650,0,unchosen,40,45,objects,objects,3800,1,5,1
209,37104,0,210,3,3,0,no_gain6,gain1,B,J,2,23,outdoor_scenes,faces,91,84,Stimuli/Experimental_stims/outdoor_scenes/bruno-van-der-kraan-qez8mNJ3ilU-unsplash.jpg,Stimuli/Experimental_stims/faces/rikonavt-HQjfrvdTfak-unsplash.jpg,0,0,684,1,chosen,23,2,faces,outdoor_scenes,2300,0,5,1
210,37104,0,211,3,3,1,gain3,no_gain2,D,K,18,27,faces,body_parts,17,21,Stimuli/Experimental_stims/faces/jessica-radanavong-mrYkTuAesKE-unsplash.jpg,Stimuli/Experimental_stims/body_parts/heike-mintel-i_Gns0ELnLw-unsplash.jpg,0,1,702,1,chosen,18,27,faces,body_parts,1500,0,5,1
211,37104,0,212,3,3,0,no_gain3,gain2,F,H,34,14,body_parts,faces,22,11,Stimuli/Experimental_stims/body_parts/wagner-santos-mBWMvIuVnso-unsplash.jpg,Stimuli/Experimental_stims/faces/david-siglin-UuW4psOb388-unsplash.jpg,0,0,546,1,unchosen,14,34,faces,body_parts,1700,0,5,1
212,37104,0,213,3,3,1,gain5,no_gain5,A,I,37,30,objects,body_parts,21,26,Stimuli/Experimental_stims/objects/alexander-andrews-VLGWE_SumrA-unsplash.jpg,Stimuli/Experimental_stims/body_parts/mika-korhonen-Xodzxosar18-unsplash.jpg,0,0,762,0,unchosen,30,37,body_parts,objects,1000,0,5,1
213,37104,0,214,3,3,1,gain6,no_gain5,E,I,38,30,objects,body_parts,32,26,Stimuli/Experimental_stims/objects/art-lasovsky-8XddFc6NkBY-unsplash.jpg,Stimuli/Experimental_stims/body_parts/mika-korhonen-Xodzxosar18-unsplash.jpg,0,1,1080,1,unchosen,38,30,objects,body_parts,2800,0,5,1
214,37104,0,215,3,3,0,no_gain1,gain5,L,A,17,8,faces,outdoor_scenes,66,95,Stimuli/Experimental_stims/faces/good-faces-xmSWVeGEnJw-unsplash.jpg,Stimuli/Experimental_stims/outdoor_scenes/samsommer-vddccTqwal8-unsplash.jpg,0,0,569,1,chosen,8,17,outdoor_scenes,faces,2400,0,5,1
215,37104,0,216,3,3,0,no_gain1,gain5,L,A,35,37,body_parts,objects,22,21,Stimuli/Experimental_stims/body_parts/wc-so-KH4AAPjb-tI-unsplash.jpg,Stimuli/Experimental_stims/objects/alexander-andrews-VLGWE_SumrA-unsplash.jpg,0,0,732,1,unchosen,37,35,objects,body_parts,3800,1,5,1
216,37104,0,217,3,3,0,no_gain5,gain3,I,D,30,45,body_parts,objects,26,14,Stimuli/Experimental_stims/body_parts/mika-korhonen-Xodzxosar18-unsplash.jpg,Stimuli/Experimental_stims/objects/leohoho-rngTKHXumy0-unsplash.jpg,0,0,617,1,unchosen,45,30,objects,body_parts,1500,0,5,1
217,37104,0,218,3,3,0,no_gain5,gain1,I,J,30,47,body_parts,objects,26,0,Stimuli/Experimental_stims/body_parts/mika-korhonen-Xodzxosar18-unsplash.jpg,Stimuli/Experimental_stims/objects/ronaldo-arthur-vidal-Cdz_lvnl37k-unsplash.jpg,0,0,685,1,unchosen,47,30,objects,body_parts,1100,0,5,1
218,37104,0,219,3,3,1,gain4,no_gain2,C,K,10,27,outdoor_scenes,body_parts,77,21,Stimuli/Experimental_stims/outdoor_scenes/shannon-kunkle-dM8INmkyDas-unsplash.jpg,Stimuli/Experimental_stims/body_parts/heike-mintel-i_Gns0ELnLw-unsplash.jpg,0,0,932,0,chosen,27,10,body_parts,outdoor_scenes,1500,0,5,1
219,37104,0,220,3,3,0,no_gain2,gain6,K,E,27,28,body_parts,body_parts,21,68,Stimuli/Experimental_stims/body_parts/heike-mintel-i_Gns0ELnLw-unsplash.jpg,Stimuli/Experimental_stims/body_parts/ira-vishnevskaya-8DQAvdCby1I-unsplash.jpg,0,0,1002,1,chosen,28,27,body_parts,body_parts,2500,0,5,1
220,37104,0,221,4,4,0,no_gain5,gain1,I,J,30,47,body_parts,objects,26,0,Stimuli/Experimental_stims/body_parts/mika-korhonen-Xodzxosar18-unsplash.jpg,Stimuli/Experimental_stims/objects/ronaldo-arthur-vidal-Cdz_lvnl37k-unsplash.jpg,0,1,882,0,unchosen,30,47,body_parts,objects,3400,1,3,1
221,37104,0,222,4,4,0,no_gain5,gain4,I,C,0,10,outdoor_scenes,outdoor_scenes,75,77,Stimuli/Experimental_stims/outdoor_scenes/aleksandra-boguslawska-MS7KD9Ti7FQ-unsplash.jpg,Stimuli/Experimental_stims/outdoor_scenes/shannon-kunkle-dM8INmkyDas-unsplash.jpg,0,0,605,1,chosen,10,0,outdoor_scenes,outdoor_scenes,1500,0,3,1
222,37104,0,223,4,4,0,no_gain2,gain3,K,D,40,45,objects,objects,36,14,Stimuli/Experimental_stims/objects/fabian-blank-pElSkGRA2NU-unsplash.jpg,Stimuli/Experimental_stims/objects/leohoho-rngTKHXumy0-unsplash.jpg,0,0,663,1,unchosen,45,40,objects,objects,2000,0,3,1
223,37104,0,224,4,4,0,no_gain4,gain3,G,D,41,45,objects,objects,18,14,Stimuli/Experimental_stims/objects/insung-yoon-w2JtIQQXoRU-unsplash.jpg,Stimuli/Experimental_stims/objects/leohoho-rngTKHXumy0-unsplash.jpg,0,0,553,1,unchosen,45,41,objects,objects,1100,0,3,1
224,37104,0,225,4,4,0,no_gain1,gain6,L,E,35,38,body_parts,objects,22,32,Stimuli/Experimental_stims/body_parts/wc-so-KH4AAPjb-tI-unsplash.jpg,Stimuli/Experimental_stims/objects/art-lasovsky-8XddFc6NkBY-unsplash.jpg,0,0,710,1,unchosen,38,35,objects,body_parts,2700,0,3,1
225,37104,0,226,4,4,0,no_gain4,gain2,G,H,3,7,outdoor_scenes,outdoor_scenes,86,86,Stimuli/Experimental_stims/outdoor_scenes/henry-be-NLF6hTe4PAg-unsplash.jpg,Stimuli/Experimental_stims/outdoor_scenes/petr-vysohlid-9fqwGqGLUxc-unsplash.jpg,0,1,720,0,chosen,3,7,outdoor_scenes,outdoor_scenes,1700,0,3,1
226,37104,0,227,4,4,0,no_gain1,gain1,L,J,17,23,faces,faces,66,84,Stimuli/Experimental_stims/faces/good-faces-xmSWVeGEnJw-unsplash.jpg,Stimuli/Experimental_stims/faces/rikonavt-HQjfrvdTfak-unsplash.jpg,0,0,770,1,chosen,23,17,faces,faces,3500,1,3,1
227,37104,0,228,4,4,0,no_gain3,gain3,F,D,34,45,body_parts,objects,22,14,Stimuli/Experimental_stims/body_parts/wagner-santos-mBWMvIuVnso-unsplash.jpg,Stimuli/Experimental_stims/objects/leohoho-rngTKHXumy0-unsplash.jpg,0,0,583,1,unchosen,45,34,objects,body_parts,2700,0,3,1
228,37104,0,229,4,4,1,gain4,no_gain5,C,I,33,30,body_parts,body_parts,20,26,Stimuli/Experimental_stims/body_parts/tucker-good-36skLT5jZcc-unsplash.jpg,Stimuli/Experimental_stims/body_parts/mika-korhonen-Xodzxosar18-unsplash.jpg,0,0,688,0,unchosen,30,33,body_parts,body_parts,1500,0,3,1
229,37104,0,230,4,4,0,no_gain6,gain1,B,J,2,23,outdoor_scenes,faces,91,84,Stimuli/Experimental_stims/outdoor_scenes/bruno-van-der-kraan-qez8mNJ3ilU-unsplash.jpg,Stimuli/Experimental_stims/faces/rikonavt-HQjfrvdTfak-unsplash.jpg,0,1,778,0,chosen,2,23,outdoor_scenes,faces,1700,0,3,1
230,37104,0,231,4,4,0,no_gain1,gain2,L,H,35,14,body_parts,faces,22,11,Stimuli/Experimental_stims/body_parts/wc-so-KH4AAPjb-tI-unsplash.jpg,Stimuli/Experimental_stims/faces/david-siglin-UuW4psOb388-unsplash.jpg,0,0,943,1,unchosen,14,35,faces,body_parts,2300,0,3,1
231,37104,0,232,4,4,0,no_gain4,gain6,G,E,3,28,outdoor_scenes,body_parts,86,68,Stimuli/Experimental_stims/outdoor_scenes/henry-be-NLF6hTe4PAg-unsplash.jpg,Stimuli/Experimental_stims/body_parts/ira-vishnevskaya-8DQAvdCby1I-unsplash.jpg,0,0,813,1,chosen,28,3,body_parts,outdoor_scenes,3100,1,3,1
232,37104,0,233,4,4,1,gain5,no_gain3,A,F,8,19,outdoor_scenes,faces,95,71,Stimuli/Experimental_stims/outdoor_scenes/samsommer-vddccTqwal8-unsplash.jpg,Stimuli/Experimental_stims/faces/joel-mott-LaK153ghdig-unsplash.jpg,0,1,672,1,chosen,8,19,outdoor_scenes,faces,1300,0,3,1
233,37104,0,234,4,4,1,gain1,no_gain3,J,F,23,19,faces,faces,84,71,Stimuli/Experimental_stims/faces/rikonavt-HQjfrvdTfak-unsplash.jpg,Stimuli/Experimental_stims/faces/joel-mott-LaK153ghdig-unsplash.jpg,0,1,655,1,chosen,23,19,faces,faces,1400,0,3,1
234,37104,0,235,4,4,1,gain2,no_gain4,H,G,14,41,faces,objects,11,18,Stimuli/Experimental_stims/faces/david-siglin-UuW4psOb388-unsplash.jpg,Stimuli/Experimental_stims/objects/insung-yoon-w2JtIQQXoRU-unsplash.jpg,0,1,602,1,unchosen,14,41,faces,objects,2500,0,3,1
235,37104,0,236,4,4,1,gain2,no_gain5,H,I,14,30,faces,body_parts,11,26,Stimuli/Experimental_stims/faces/david-siglin-UuW4psOb388-unsplash.jpg,Stimuli/Experimental_stims/body_parts/mika-korhonen-Xodzxosar18-unsplash.jpg,0,1,585,1,unchosen,14,30,faces,body_parts,1500,0,3,1
236,37104,0,237,4,4,1,gain4,no_gain1,C,L,33,35,body_parts,body_parts,20,22,Stimuli/Experimental_stims/body_parts/tucker-good-36skLT5jZcc-unsplash.jpg,Stimuli/Experimental_stims/body_parts/wc-so-KH4AAPjb-tI-unsplash.jpg,0,1,924,1,unchosen,33,35,body_parts,body_parts,1900,0,3,1
237,37104,0,238,4,4,1,gain6,no_gain3,E,F,28,19,body_parts,faces,68,71,Stimuli/Experimental_stims/body_parts/ira-vishnevskaya-8DQAvdCby1I-unsplash.jpg,Stimuli/Experimental_stims/faces/joel-mott-LaK153ghdig-unsplash.jpg,0,1,926,1,chosen,28,19,body_parts,faces,1200,0,3,1
238,37104,0,239,4,4,1,gain2,no_gain5,H,I,7,0,outdoor_scenes,outdoor_scenes,86,75,Stimuli/Experimental_stims/outdoor_scenes/petr-vysohlid-9fqwGqGLUxc-unsplash.jpg,Stimuli/Experimental_stims/outdoor_scenes/aleksandra-boguslawska-MS7KD9Ti7FQ-unsplash.jpg,0,1,752,1,chosen,7,0,outdoor_scenes,outdoor_scenes,3500,1,3,1
239,37104,0,240,4,4,0,no_gain2,gain6,K,E,40,38,objects,objects,36,32,Stimuli/Experimental_stims/objects/fabian-blank-pElSkGRA2NU-unsplash.jpg,Stimuli/Experimental_stims/objects/art-lasovsky-8XddFc6NkBY-unsplash.jpg,0,0,734,1,unchosen,38,40,objects,objects,1500,0,3,1
240,37104,0,241,4,4,1,gain5,no_gain6,A,B,8,2,outdoor_scenes,outdoor_scenes,95,91,Stimuli/Experimental_stims/outdoor_scenes/samsommer-vddccTqwal8-unsplash.jpg,Stimuli/Experimental_stims/outdoor_scenes/bruno-van-der-kraan-qez8mNJ3ilU-unsplash.jpg,0,0,602,0,chosen,2,8,outdoor_scenes,outdoor_scenes,2200,0,3,1
241,37104,0,242,4,4,1,gain6,no_gain2,E,K,28,27,body_parts,body_parts,68,21,Stimuli/Experimental_stims/body_parts/ira-vishnevskaya-8DQAvdCby1I-unsplash.jpg,Stimuli/Experimental_stims/body_parts/heike-mintel-i_Gns0ELnLw-unsplash.jpg,0,1,653,1,chosen,28,27,body_parts,body_parts,1100,0,3,1
242,37104,0,243,4,4,0,no_gain3,gain2,F,H,19,7,faces,outdoor_scenes,71,86,Stimuli/Experimental_stims/faces/joel-mott-LaK153ghdig-unsplash.jpg,Stimuli/Experimental_stims/outdoor_scenes/petr-vysohlid-9fqwGqGLUxc-unsplash.jpg,0,1,731,0,chosen,19,7,faces,outdoor_scenes,1300,0,3,1
243,37104,0,244,4,4,0,no_gain3,gain5,F,A,34,37,body_parts,objects,22,21,Stimuli/Experimental_stims/body_parts/wagner-santos-mBWMvIuVnso-unsplash.jpg,Stimuli/Experimental_stims/objects/alexander-andrews-VLGWE_SumrA-unsplash.jpg,0,0,858,1,unchosen,37,34,objects,body_parts,1500,0,3,1
244,37104,0,245,4,4,0,no_gain6,gain6,B,E,2,28,outdoor_scenes,body_parts,91,68,Stimuli/Experimental_stims/outdoor_scenes/bruno-van-der-kraan-qez8mNJ3ilU-unsplash.jpg,Stimuli/Experimental_stims/body_parts/ira-vishnevskaya-8DQAvdCby1I-unsplash.jpg,0,0,728,1,chosen,28,2,body_parts,outdoor_scenes,1100,0,3,1
245,37104,0,246,4,4,1,gain3,no_gain6,D,B,18,2,faces,outdoor_scenes,17,91,Stimuli/Experimental_stims/faces/jessica-radanavong-mrYkTuAesKE-unsplash.jpg,Stimuli/Experimental_stims/outdoor_scenes/bruno-van-der-kraan-qez8mNJ3ilU-unsplash.jpg,0,1,697,1,chosen,18,2,faces,outdoor_scenes,2000,0,3,1
246,37104,0,247,4,4,0,no_gain2,gain5,K,A,40,37,objects,objects,36,21,Stimuli/Experimental_stims/objects/fabian-blank-pElSkGRA2NU-unsplash.jpg,Stimuli/Experimental_stims/objects/alexander-andrews-VLGWE_SumrA-unsplash.jpg,0,0,633,1,unchosen,37,40,objects,objects,4700,1,3,1
247,37104,0,248,4,4,0,no_gain1,gain3,L,D,17,18,faces,faces,66,17,Stimuli/Experimental_stims/faces/good-faces-xmSWVeGEnJw-unsplash.jpg,Stimuli/Experimental_stims/faces/jessica-radanavong-mrYkTuAesKE-unsplash.jpg,0,0,842,1,chosen,18,17,faces,faces,2400,0,3,1
248,37104,0,249,4,4,1,gain4,no_gain2,C,K,33,40,body_parts,objects,20,36,Stimuli/Experimental_stims/body_parts/tucker-good-36skLT5jZcc-unsplash.jpg,Stimuli/Experimental_stims/objects/fabian-blank-pElSkGRA2NU-unsplash.jpg,0,0,605,0,unchosen,40,33,objects,body_parts,1100,0,3,1
249,37104,0,250,4,4,1,gain6,no_gain5,E,I,28,0,body_parts,outdoor_scenes,68,75,Stimuli/Experimental_stims/body_parts/ira-vishnevskaya-8DQAvdCby1I-unsplash.jpg,Stimuli/Experimental_stims/outdoor_scenes/aleksandra-boguslawska-MS7KD9Ti7FQ-unsplash.jpg,0,1,752,1,chosen,28,0,body_parts,outdoor_scenes,2400,0,3,1
250,37104,0,251,4,4,1,gain4,no_gain6,C,B,33,13,body_parts,faces,20,80,Stimuli/Experimental_stims/body_parts/tucker-good-36skLT5jZcc-unsplash.jpg,Stimuli/Experimental_stims/faces/daniel-rigdon-dXmXKPP2L4E-unsplash.jpg,0,1,693,1,unchosen,33,13,body_parts,faces,1600,0,3,1
251,37104,0,252,4,4,0,no_gain1,gain1,L,J,35,47,body_parts,objects,22,0,Stimuli/Experimental_stims/body_parts/wc-so-KH4AAPjb-tI-unsplash.jpg,Stimuli/Experimental_stims/objects/ronaldo-arthur-vidal-Cdz_lvnl37k-unsplash.jpg,0,0,685,1,unchosen,47,35,objects,body_parts,2300,0,3,1
252,37104,0,253,4,4,0,no_gain3,gain4,F,C,19,10,faces,outdoor_scenes,71,77,Stimuli/Experimental_stims/faces/joel-mott-LaK153ghdig-unsplash.jpg,Stimuli/Experimental_stims/outdoor_scenes/shannon-kunkle-dM8INmkyDas-unsplash.jpg,0,0,857,1,chosen,10,19,outdoor_scenes,faces,2500,0,3,1
253,37104,0,254,4,4,1,gain3,no_gain5,D,I,18,0,faces,outdoor_scenes,17,75,Stimuli/Experimental_stims/faces/jessica-radanavong-mrYkTuAesKE-unsplash.jpg,Stimuli/Experimental_stims/outdoor_scenes/aleksandra-boguslawska-MS7KD9Ti7FQ-unsplash.jpg,0,1,606,1,chosen,18,0,faces,outdoor_scenes,3700,1,3,1
254,37104,0,255,4,4,1,gain2,no_gain1,H,L,7,17,outdoor_scenes,faces,86,66,Stimuli/Experimental_stims/outdoor_scenes/petr-vysohlid-9fqwGqGLUxc-unsplash.jpg,Stimuli/Experimental_stims/faces/good-faces-xmSWVeGEnJw-unsplash.jpg,0,1,875,1,chosen,7,17,outdoor_scenes,faces,2100,0,3,1
255,37104,0,256,4,4,1,gain6,no_gain3,E,F,38,34,objects,body_parts,32,22,Stimuli/Experimental_stims/objects/art-lasovsky-8XddFc6NkBY-unsplash.jpg,Stimuli/Experimental_stims/body_parts/wagner-santos-mBWMvIuVnso-unsplash.jpg,0,1,782,1,unchosen,38,34,objects,body_parts,2300,0,3,1
256,37104,0,257,4,4,0,no_gain6,gain1,B,J,13,47,faces,objects,80,0,Stimuli/Experimental_stims/faces/daniel-rigdon-dXmXKPP2L4E-unsplash.jpg,Stimuli/Experimental_stims/objects/ronaldo-arthur-vidal-Cdz_lvnl37k-unsplash.jpg,0,0,727,1,unchosen,47,13,objects,faces,1700,0,3,1
257,37104,0,258,4,4,0,no_gain4,gain6,G,E,41,38,objects,objects,18,32,Stimuli/Experimental_stims/objects/insung-yoon-w2JtIQQXoRU-unsplash.jpg,Stimuli/Experimental_stims/objects/art-lasovsky-8XddFc6NkBY-unsplash.jpg,0,0,641,1,unchosen,38,41,objects,objects,2900,0,3,1
258,37104,0,259,4,4,0,no_gain4,gain1,G,J,3,23,outdoor_scenes,faces,86,84,Stimuli/Experimental_stims/outdoor_scenes/henry-be-NLF6hTe4PAg-unsplash.jpg,Stimuli/Experimental_stims/faces/rikonavt-HQjfrvdTfak-unsplash.jpg,0,0,623,1,chosen,23,3,faces,outdoor_scenes,3000,1,3,1
259,37104,0,260,4,4,1,gain2,no_gain3,H,F,14,34,faces,body_parts,11,22,Stimuli/Experimental_stims/faces/david-siglin-UuW4psOb388-unsplash.jpg,Stimuli/Experimental_stims/body_parts/wagner-santos-mBWMvIuVnso-unsplash.jpg,0,1,660,1,unchosen,14,34,faces,body_parts,2600,0,3,1
260,37104,0,261,4,4,0,no_gain6,gain5,B,A,13,37,faces,objects,80,21,Stimuli/Experimental_stims/faces/daniel-rigdon-dXmXKPP2L4E-unsplash.jpg,Stimuli/Experimental_stims/objects/alexander-andrews-VLGWE_SumrA-unsplash.jpg,0,0,724,1,unchosen,37,13,objects,faces,1700,0,3,1
261,37104,0,262,4,4,0,no_gain3,gain1,F,J,34,47,body_parts,objects,22,0,Stimuli/Experimental_stims/body_parts/wagner-santos-mBWMvIuVnso-unsplash.jpg,Stimuli/Experimental_stims/objects/ronaldo-arthur-vidal-Cdz_lvnl37k-unsplash.jpg,0,0,771,1,unchosen,47,34,objects,body_parts,1800,0,3,1
262,37104,0,263,4,4,1,gain5,no_gain5,A,I,8,0,outdoor_scenes,outdoor_scenes,95,75,Stimuli/Experimental_stims/outdoor_scenes/samsommer-vddccTqwal8-unsplash.jpg,Stimuli/Experimental_stims/outdoor_scenes/aleksandra-boguslawska-MS7KD9Ti7FQ-unsplash.jpg,0,1,742,1,chosen,8,0,outdoor_scenes,outdoor_scenes,1400,0,3,1
263,37104,0,264,4,4,0,no_gain2,gain1,K,J,27,23,body_parts,faces,21,84,Stimuli/Experimental_stims/body_parts/heike-mintel-i_Gns0ELnLw-unsplash.jpg,Stimuli/Experimental_stims/faces/rikonavt-HQjfrvdTfak-unsplash.jpg,0,0,682,1,chosen,23,27,faces,body_parts,2200,0,3,1
264,37104,0,265,4,4,0,no_gain2,gain1,K,J,40,47,objects,objects,36,0,Stimuli/Experimental_stims/objects/fabian-blank-pElSkGRA2NU-unsplash.jpg,Stimuli/Experimental_stims/objects/ronaldo-arthur-vidal-Cdz_lvnl37k-unsplash.jpg,0,0,631,1,unchosen,47,40,objects,objects,3500,1,3,1
265,37104,0,266,4,4,1,gain3,no_gain3,D,F,18,19,faces,faces,17,71,Stimuli/Experimental_stims/faces/jessica-radanavong-mrYkTuAesKE-unsplash.jpg,Stimuli/Experimental_stims/faces/joel-mott-LaK153ghdig-unsplash.jpg,0,1,714,1,chosen,18,19,faces,faces,1400,0,3,1
266,37104,0,267,4,4,0,no_gain2,gain4,K,C,27,10,body_parts,outdoor_scenes,21,77,Stimuli/Experimental_stims/body_parts/heike-mintel-i_Gns0ELnLw-unsplash.jpg,Stimuli/Experimental_stims/outdoor_scenes/shannon-kunkle-dM8INmkyDas-unsplash.jpg,0,0,485,1,chosen,10,27,outdoor_scenes,body_parts,1100,0,3,1
267,37104,0,268,4,4,1,gain6,no_gain1,E,L,28,17,body_parts,faces,68,66,Stimuli/Experimental_stims/body_parts/ira-vishnevskaya-8DQAvdCby1I-unsplash.jpg,Stimuli/Experimental_stims/faces/good-faces-xmSWVeGEnJw-unsplash.jpg,0,0,814,0,chosen,17,28,faces,body_parts,1300,0,3,1
268,37104,0,269,4,4,0,no_gain1,gain3,L,D,35,45,body_parts,objects,22,14,Stimuli/Experimental_stims/body_parts/wc-so-KH4AAPjb-tI-unsplash.jpg,Stimuli/Experimental_stims/objects/leohoho-rngTKHXumy0-unsplash.jpg,0,0,674,1,unchosen,45,35,objects,body_parts,2600,0,3,1
269,37104,0,270,4,4,0,no_gain4,gain4,G,C,3,10,outdoor_scenes,outdoor_scenes,86,77,Stimuli/Experimental_stims/outdoor_scenes/henry-be-NLF6hTe4PAg-unsplash.jpg,Stimuli/Experimental_stims/outdoor_scenes/shannon-kunkle-dM8INmkyDas-unsplash.jpg,0,0,787,1,chosen,10,3,outdoor_scenes,outdoor_scenes,1100,0,3,1
270,37104,0,271,4,4,1,gain1,no_gain4,J,G,47,41,objects,objects,0,18,Stimuli/Experimental_stims/objects/ronaldo-arthur-vidal-Cdz_lvnl37k-unsplash.jpg,Stimuli/Experimental_stims/objects/insung-yoon-w2JtIQQXoRU-unsplash.jpg,0,0,689,0,unchosen,41,47,objects,objects,1400,0,3,1
271,37104,0,272,4,4,1,gain4,no_gain3,C,F,33,34,body_parts,body_parts,20,22,Stimuli/Experimental_stims/body_parts/tucker-good-36skLT5jZcc-unsplash.jpg,Stimuli/Experimental_stims/body_parts/wagner-santos-mBWMvIuVnso-unsplash.jpg,0,0,837,0,unchosen,34,33,body_parts,body_parts,3200,1,3,1
272,37104,0,273,4,4,0,no_gain6,gain2,B,H,2,7,outdoor_scenes,outdoor_scenes,91,86,Stimuli/Experimental_stims/outdoor_scenes/bruno-van-der-kraan-qez8mNJ3ilU-unsplash.jpg,Stimuli/Experimental_stims/outdoor_scenes/petr-vysohlid-9fqwGqGLUxc-unsplash.jpg,0,0,787,1,chosen,7,2,outdoor_scenes,outdoor_scenes,1600,0,3,1
273,37104,0,274,4,4,0,no_gain2,gain5,K,A,27,8,body_parts,outdoor_scenes,21,95,Stimuli/Experimental_stims/body_parts/heike-mintel-i_Gns0ELnLw-unsplash.jpg,Stimuli/Experimental_stims/outdoor_scenes/samsommer-vddccTqwal8-unsplash.jpg,0,0,518,1,chosen,8,27,outdoor_scenes,body_parts,1000,0,3,1
274,37104,0,275,4,4,1,gain1,no_gain5,J,I,23,0,faces,outdoor_scenes,84,75,Stimuli/Experimental_stims/faces/rikonavt-HQjfrvdTfak-unsplash.jpg,Stimuli/Experimental_stims/outdoor_scenes/aleksandra-boguslawska-MS7KD9Ti7FQ-unsplash.jpg,0,0,841,0,chosen,0,23,outdoor_scenes,faces,1700,0,3,1
275,37104,0,276,4,4,1,gain4,no_gain4,C,G,33,41,body_parts,objects,20,18,Stimuli/Experimental_stims/body_parts/tucker-good-36skLT5jZcc-unsplash.jpg,Stimuli/Experimental_stims/objects/insung-yoon-w2JtIQQXoRU-unsplash.jpg,0,0,643,0,unchosen,41,33,objects,body_parts,1200,0,3,1
276,37104,0,277,4,4,1,gain3,no_gain5,D,I,45,30,objects,body_parts,14,26,Stimuli/Experimental_stims/objects/leohoho-rngTKHXumy0-unsplash.jpg,Stimuli/Experimental_stims/body_parts/mika-korhonen-Xodzxosar18-unsplash.jpg,0,0,825,0,unchosen,30,45,body_parts,objects,2200,0,3,1
277,37104,0,278,4,4,0,no_gain5,gain6,I,E,30,38,body_parts,objects,26,32,Stimuli/Experimental_stims/body_parts/mika-korhonen-Xodzxosar18-unsplash.jpg,Stimuli/Experimental_stims/objects/art-lasovsky-8XddFc6NkBY-unsplash.jpg,0,0,579,1,unchosen,38,30,objects,body_parts,2000,0,3,1
278,37104,0,279,4,4,1,gain3,no_gain4,D,G,18,3,faces,outdoor_scenes,17,86,Stimuli/Experimental_stims/faces/jessica-radanavong-mrYkTuAesKE-unsplash.jpg,Stimuli/Experimental_stims/outdoor_scenes/henry-be-NLF6hTe4PAg-unsplash.jpg,0,1,803,1,chosen,18,3,faces,outdoor_scenes,3100,1,3,1
279,37104,0,280,4,4,1,gain5,no_gain5,A,I,37,30,objects,body_parts,21,26,Stimuli/Experimental_stims/objects/alexander-andrews-VLGWE_SumrA-unsplash.jpg,Stimuli/Experimental_stims/body_parts/mika-korhonen-Xodzxosar18-unsplash.jpg,0,1,782,1,unchosen,37,30,objects,body_parts,2400,0,3,1
280,37104,0,281,4,4,1,gain4,no_gain1,C,L,10,17,outdoor_scenes,faces,77,66,Stimuli/Experimental_stims/outdoor_scenes/shannon-kunkle-dM8INmkyDas-unsplash.jpg,Stimuli/Experimental_stims/faces/good-faces-xmSWVeGEnJw-unsplash.jpg,0,1,829,1,chosen,10,17,outdoor_scenes,faces,1000,0,3,1
281,37104,0,282,4,4,0,no_gain1,gain5,L,A,17,8,faces,outdoor_scenes,66,95,Stimuli/Experimental_stims/faces/good-faces-xmSWVeGEnJw-unsplash.jpg,Stimuli/Experimental_stims/outdoor_scenes/samsommer-vddccTqwal8-unsplash.jpg,0,0,564,1,chosen,8,17,outdoor_scenes,faces,1900,0,3,1
282,37104,0,283,4,4,0,no_gain4,gain5,G,A,41,37,objects,objects,18,21,Stimuli/Experimental_stims/objects/insung-yoon-w2JtIQQXoRU-unsplash.jpg,Stimuli/Experimental_stims/objects/alexander-andrews-VLGWE_SumrA-unsplash.jpg,0,0,679,1,unchosen,37,41,objects,objects,2400,0,3,1
283,37104,0,284,4,4,1,gain2,no_gain2,H,K,7,27,outdoor_scenes,body_parts,86,21,Stimuli/Experimental_stims/outdoor_scenes/petr-vysohlid-9fqwGqGLUxc-unsplash.jpg,Stimuli/Experimental_stims/body_parts/heike-mintel-i_Gns0ELnLw-unsplash.jpg,0,1,573,1,chosen,7,27,outdoor_scenes,body_parts,1300,0,3,1
284,37104,0,285,4,4,0,no_gain4,gain5,G,A,3,8,outdoor_scenes,outdoor_scenes,86,95,Stimuli/Experimental_stims/outdoor_scenes/henry-be-NLF6hTe4PAg-unsplash.jpg,Stimuli/Experimental_stims/outdoor_scenes/samsommer-vddccTqwal8-unsplash.jpg,0,0,642,1,chosen,8,3,outdoor_scenes,outdoor_scenes,1600,0,3,1
285,37104,0,286,4,4,1,gain6,no_gain6,E,B,38,13,objects,faces,32,80,Stimuli/Experimental_stims/objects/art-lasovsky-8XddFc6NkBY-unsplash.jpg,Stimuli/Experimental_stims/faces/daniel-rigdon-dXmXKPP2L4E-unsplash.jpg,0,0,628,0,unchosen,13,38,faces,objects,1000,0,3,1
286,37104,0,287,4,4,0,no_gain6,gain4,B,C,2,10,outdoor_scenes,outdoor_scenes,91,77,Stimuli/Experimental_stims/outdoor_scenes/bruno-van-der-kraan-qez8mNJ3ilU-unsplash.jpg,Stimuli/Experimental_stims/outdoor_scenes/shannon-kunkle-dM8INmkyDas-unsplash.jpg,0,0,790,1,chosen,10,2,outdoor_scenes,outdoor_scenes,1500,0,3,1
287,37104,0,288,4,4,1,gain5,no_gain1,A,L,37,35,objects,body_parts,21,22,Stimuli/Experimental_stims/objects/alexander-andrews-VLGWE_SumrA-unsplash.jpg,Stimuli/Experimental_stims/body_parts/wc-so-KH4AAPjb-tI-unsplash.jpg,0,1,650,1,unchosen,37,35,objects,body_parts,1900,0,3,1
288,37104,0,289,4,4,1,gain3,no_gain2,D,K,18,27,faces,body_parts,17,21,Stimuli/Experimental_stims/faces/jessica-radanavong-mrYkTuAesKE-unsplash.jpg,Stimuli/Experimental_stims/body_parts/heike-mintel-i_Gns0ELnLw-unsplash.jpg,0,1,652,1,chosen,18,27,faces,body_parts,1600,0,3,1
289,37104,0,290,4,4,1,gain3,no_gain6,D,B,45,13,objects,faces,14,80,Stimuli/Experimental_stims/objects/leohoho-rngTKHXumy0-unsplash.jpg,Stimuli/Experimental_stims/faces/daniel-rigdon-dXmXKPP2L4E-unsplash.jpg,0,0,628,0,unchosen,13,45,faces,objects,1200,0,3,1
290,37104,0,291,4,4,1,gain2,no_gain2,H,K,14,40,faces,objects,11,36,Stimuli/Experimental_stims/faces/david-siglin-UuW4psOb388-unsplash.jpg,Stimuli/Experimental_stims/objects/fabian-blank-pElSkGRA2NU-unsplash.jpg,0,1,690,1,unchosen,14,40,faces,objects,1000,0,3,1
291,37104,0,292,4,4,1,gain2,no_gain6,H,B,14,13,faces,faces,11,80,Stimuli/Experimental_stims/faces/david-siglin-UuW4psOb388-unsplash.jpg,Stimuli/Experimental_stims/faces/daniel-rigdon-dXmXKPP2L4E-unsplash.jpg,0,1,420,1,unchosen,14,13,faces,faces,3200,1,3,1