,PID,practice,trial,block,run,gain_left,left_item_id,right_item_id,left_pair_id,right_pair_id,left_stimulus,right_stimulus,left_category,right_category,left_rating,right_rating,left_path,right_path,no_response,left_chosen,rt,higher_outcome_chosen,choice_type,chosen_stimulus,unchosen_stimulus,chosen_category,unchosen_category,iti,long_iti,simulation,version
0,85508,1,1,0,0,0,,,,,,,,,,,Stimuli/Practice_stims/Final_decisions/debby-hudson-FmCSSSGge-0-unsplash.jpg,Stimuli/Practice_stims/Final_decisions/yassine-khalfalli-adsQ9d_Cx0c-unsplash.jpg,0,0,873,1,,,,,,3000,0,6,1
1,85508,1,2,0,0,0,,,,,,,,,,,Stimuli/Practice_stims/Final_decisions/florian-wehde-iVW7mZPwd4g-unsplash.jpg,Stimuli/Practice_stims/Final_decisions/patrick-perkins-3wylDrjxH-E-unsplash.jpg,0,1,1139,0,,,,,,1500,0,6,1
2,85508,1,3,0,0,0,,,,,,,,,,,Stimuli/Practice_stims/Final_decisions/debby-hudson-FmCSSSGge-0-unsplash.jpg,Stimuli/Practice_stims/Final_decisions/florian-wehde-iVW7mZPwd4g-unsplash.jpg,0,0,1294,1,,,,,,2000,0,6,1
3,85508,1,4,0,0,0,,,,,,,,,,,Stimuli/Practice_stims/Final_decisions/yassine-khalfalli-adsQ9d_Cx0c-unsplash.jpg,Stimuli/Practice_stims/Final_decisions/debby-hudson-FmCSSSGge-0-unsplash.jpg,0,1,1543,0,,,,,,1000,0,6,1
4,85508,0,5,1,1,0,no_gain4,gain5,H,I,16,28,faces,body_parts,100,79,Stimuli/Experimental_stims/faces/freddy-kearney-o-ioeoATbIM-unsplash.jpg,Stimuli/Experimental_stims/body_parts/ira-vishnevskaya-8DQAvdCby1I-unsplash.jpg,0,1,1078,0,chosen,16,28,faces,body_parts,1800,0,6,1
5,85508,0,6,1,1,1,gain3,no_gain6,C,K,30,45,body_parts,objects,80,92,Stimuli/Experimental_stims/body_parts/mika-korhonen-Xodzxosar18-unsplash.jpg,Stimuli/Experimental_stims/objects/leohoho-rngTKHXumy0-unsplash.jpg,0,0,1271,0,chosen,45,30,objects,body_parts,1700,0,6,1
6,85508,0,7,1,1,1,gain6,no_gain3,B,D,1,18,outdoor_scenes,faces,94,92,Stimuli/Experimental_stims/outdoor_scenes/ashim-d-silva-S2Q5mdOrrVc-unsplash.jpg,Stimuli/Experimental_stims/faces/jessica-radanavong-mrYkTuAesKE-unsplash.jpg,0,1,1167,1,unchosen,1,18,outdoor_scenes,faces,2300,0,6,1
7,85508,0,8,1,1,0,no_gain2,gain3,F,C,26,30,body_parts,body_parts,88,80,Stimuli/Experimental_stims/body_parts/engin-akyurt-x_3gyC42btc-unsplash.jpg,Stimuli/Experimental_stims/body_parts/mika-korhonen-Xodzxosar18-unsplash.jpg,0,0,760,1,chosen,30,26,body_parts,body_parts,1700,0,6,1
8,85508,0,9,1,1,1,gain4,no_gain5,J,L,44,12,objects,faces,74,71,Stimuli/Experimental_stims/objects/kuiye-chen-NuOGFo4PudE-unsplash.jpg,Stimuli/Experimental_stims/faces/aiony-haust-jmATI5Q_YgY-unsplash.jpg,0,1,1207,1,unchosen,44,12,objects,faces,3900,1,6,1
9,85508,0,10,1,1,1,gain2,no_gain5,E,L,34,12,body_parts,faces,64,71,Stimuli/Experimental_stims/body_parts/wagner-santos-mBWMvIuVnso-unsplash.jpg,Stimuli/Experimental_stims/faces/aiony-haust-jmATI5Q_YgY-unsplash.jpg,0,0,914,0,unchosen,12,34,faces,body_parts,1200,0,6,1
10,85508,0,11,1,1,1,gain2,no_gain5,E,L,42,29,objects,body_parts,88,90,Stimuli/Experimental_stims/objects/jess-bailey-nOeVi8DsN8U-unsplash.jpg,Stimuli/Experimental_stims/body_parts/manuel-schinner-ZwjFuJ7ebpk-unsplash.jpg,0,1,703,1,chosen,42,29,objects,body_parts,1200,0,6,1
11,85508,0,12,1,1,0,no_gain5,gain5,L,I,29,28,body_parts,body_parts,90,79,Stimuli/Experimental_stims/body_parts/manuel-schinner-ZwjFuJ7ebpk-unsplash.jpg,Stimuli/Experimental_stims/body_parts/ira-vishnevskaya-8DQAvdCby1I-unsplash.jpg,0,0,1036,1,chosen,28,29,body_parts,body_parts,2600,0,6,1
12,85508,0,13,1,1,0,no_gain1,gain4,G,J,46,44,objects,objects,90,74,Stimuli/Experimental_stims/objects/mockup-graphics-PNsj6RiHAF4-unsplash.jpg,Stimuli/Experimental_stims/objects/kuiye-chen-NuOGFo4PudE-unsplash.jpg,0,1,837,0,unchosen,46,44,objects,objects,2200,0,6,1
13,85508,0,14,1,1,1,gain4,no_gain6,J,K,19,45,faces,objects,95,92,Stimuli/Experimental_stims/faces/joel-mott-LaK153ghdig-unsplash.jpg,Stimuli/Experimental_stims/objects/leohoho-rngTKHXumy0-unsplash.jpg,0,0,937,0,chosen,45,19,objects,faces,1700,0,6,1
14,85508,0,15,1,1,1,gain4,no_gain4,J,H,19,16,faces,faces,95,100,Stimuli/Experimental_stims/faces/joel-mott-LaK153ghdig-unsplash.jpg,Stimuli/Experimental_stims/faces/freddy-kearney-o-ioeoATbIM-unsplash.jpg,0,1,1263,1,chosen,19,16,faces,faces,3100,1,6,1
15,85508,0,16,1,1,1,gain2,no_gain1,E,G,34,46,body_parts,objects,64,90,Stimuli/Experimental_stims/body_parts/wagner-santos-mBWMvIuVnso-unsplash.jpg,Stimuli/Experimental_stims/objects/mockup-graphics-PNsj6RiHAF4-unsplash.jpg,0,0,1327,0,unchosen,46,34,objects,body_parts,2100,0,6,1
16,85508,0,17,1,1,0,no_gain2,gain5,F,I,26,28,body_parts,body_parts,88,79,Stimuli/Experimental_stims/body_parts/engin-akyurt-x_3gyC42btc-unsplash.jpg,Stimuli/Experimental_stims/body_parts/ira-vishnevskaya-8DQAvdCby1I-unsplash.jpg,0,1,837,0,chosen,26,28,body_parts,body_parts,1900,0,6,1
17,85508,0,18,1,1,0,no_gain1,gain5,G,I,2,28,outdoor_scenes,body_parts,92,79,Stimuli/Experimental_stims/outdoor_scenes/bruno-van-der-kraan-qez8mNJ3ilU-unsplash.jpg,Stimuli/Experimental_stims/body_parts/ira-vishnevskaya-8DQAvdCby1I-unsplash.jpg,1,NaN,,NaN,chosen,NaN,NaN,NaN,NaN,1400,0,6,1
18,85508,0,19,1,1,1,gain3,no_gain5,C,L,30,29,body_parts,body_parts,80,90,Stimuli/Experimental_stims/body_parts/mika-korhonen-Xodzxosar18-unsplash.jpg,Stimuli/Experimental_stims/body_parts/manuel-schinner-ZwjFuJ7ebpk-unsplash.jpg,0,1,763,1,chosen,30,29,body_parts,body_parts,1500,0,6,1
19,85508,0,20,1,1,0,no_gain4,gain2,H,E,7,34,outdoor_scenes,body_parts,93,64,Stimuli/Experimental_stims/outdoor_scenes/petr-vysohlid-9fqwGqGLUxc-unsplash.jpg,Stimuli/Experimental_stims/body_parts/wagner-santos-mBWMvIuVnso-unsplash.jpg,0,0,695,1,unchosen,34,7,body_parts,outdoor_scenes,1600,0,6,1
20,85508,0,21,1,1,0,no_gain1,gain3,G,C,2,30,outdoor_scenes,body_parts,92,80,Stimuli/Experimental_stims/outdoor_scenes/bruno-van-der-kraan-qez8mNJ3ilU-unsplash.jpg,Stimuli/Experimental_stims/body_parts/mika-korhonen-Xodzxosar18-unsplash.jpg,0,1,1185,0,chosen,2,30,outdoor_scenes,body_parts,3200,1,6,1
21,85508,0,22,1,1,1,gain5,no_gain5,I,L,11,12,outdoor_scenes,faces,97,71,Stimuli/Experimental_stims/outdoor_scenes/stephen-leonardi-gyIRjKPXupE-unsplash.jpg,Stimuli/Experimental_stims/faces/aiony-haust-jmATI5Q_YgY-unsplash.jpg,0,0,1168,0,unchosen,12,11,faces,outdoor_scenes,1900,0,6,1
22,85508,0,23,1,1,0,no_gain6,gain6,K,B,33,1,body_parts,outdoor_scenes,65,94,Stimuli/Experimental_stims/body_parts/tucker-good-36skLT5jZcc-unsplash.jpg,Stimuli/Experimental_stims/outdoor_scenes/ashim-d-silva-S2Q5mdOrrVc-unsplash.jpg,1,NaN,,NaN,unchosen,NaN,NaN,NaN,NaN,1600,0,6,1
23,85508,0,24,1,1,0,no_gain6,gain2,K,E,45,42,objects,objects,92,88,Stimuli/Experimental_stims/objects/leohoho-rngTKHXumy0-unsplash.jpg,Stimuli/Experimental_stims/objects/jess-bailey-nOeVi8DsN8U-unsplash.jpg,0,1,1161,0,chosen,45,42,objects,objects,1100,0,6,1
24,85508,0,25,1,1,1,gain4,no_gain2,J,F,44,22,objects,faces,74,62,Stimuli/Experimental_stims/objects/kuiye-chen-NuOGFo4PudE-unsplash.jpg,Stimuli/Experimental_stims/faces/ravi-patel-VMGAbeeJTKo-unsplash.jpg,1,NaN,,NaN,unchosen,NaN,NaN,NaN,NaN,2200,0,6,1
25,85508,0,26,1,1,1,gain2,no_gain3,E,D,34,18,body_parts,faces,64,92,Stimuli/Experimental_stims/body_parts/wagner-santos-mBWMvIuVnso-unsplash.jpg,Stimuli/Experimental_stims/faces/jessica-radanavong-mrYkTuAesKE-unsplash.jpg,0,1,861,1,unchosen,34,18,body_parts,faces,3300,1,6,1
26,85508,0,27,1,1,0,no_gain2,gain4,F,J,26,19,body_parts,faces,88,95,Stimuli/Experimental_stims/body_parts/engin-akyurt-x_3gyC42btc-unsplash.jpg,Stimuli/Experimental_stims/faces/joel-mott-LaK153ghdig-unsplash.jpg,0,0,895,1,chosen,19,26,faces,body_parts,2100,0,6,1
27,85508,0,28,1,1,0,no_gain2,gain2,F,E,22,34,faces,body_parts,62,64,Stimuli/Experimental_stims/faces/ravi-patel-VMGAbeeJTKo-unsplash.jpg,Stimuli/Experimental_stims/body_parts/wagner-santos-mBWMvIuVnso-unsplash.jpg,0,1,843,0,unchosen,22,34,faces,body_parts,1000,0,6,1
28,85508,0,29,1,1,0,no_gain4,gain3,H,C,7,4,outdoor_scenes,outdoor_scenes,93,86,Stimuli/Experimental_stims/outdoor_scenes/petr-vysohlid-9fqwGqGLUxc-unsplash.jpg,Stimuli/Experimental_stims/outdoor_scenes/jarrett-kow-1ZOyYPOBn7I-unsplash.jpg,0,0,967,1,unchosen,4,7,outdoor_scenes,outdoor_scenes,2600,0,6,1
29,85508,0,30,1,1,0,no_gain3,gain2,D,E,38,42,objects,objects,88,88,Stimuli/Experimental_stims/objects/art-lasovsky-8XddFc6NkBY-unsplash.jpg,Stimuli/Experimental_stims/objects/jess-bailey-nOeVi8DsN8U-unsplash.jpg,0,1,643,0,chosen,38,42,objects,objects,1500,0,6,1
30,85508,0,31,1,1,1,gain5,no_gain4,I,H,11,7,outdoor_scenes,outdoor_scenes,97,93,Stimuli/Experimental_stims/outdoor_scenes/stephen-leonardi-gyIRjKPXupE-unsplash.jpg,Stimuli/Experimental_stims/outdoor_scenes/petr-vysohlid-9fqwGqGLUxc-unsplash.jpg,0,0,718,0,unchosen,7,11,outdoor_scenes,outdoor_scenes,1200,0,6,1
31,85508,0,32,1,1,0,no_gain3,gain5,D,I,18,11,faces,outdoor_scenes,92,97,Stimuli/Experimental_stims/faces/jessica-radanavong-mrYkTuAesKE-unsplash.jpg,Stimuli/Experimental_stims/outdoor_scenes/stephen-leonardi-gyIRjKPXupE-unsplash.jpg,0,1,1301,0,unchosen,18,11,faces,outdoor_scenes,2100,0,6,1
32,85508,0,33,1,1,0,no_gain5,gain4,L,J,29,19,body_parts,faces,90,95,Stimuli/Experimental_stims/body_parts/manuel-schinner-ZwjFuJ7ebpk-unsplash.jpg,Stimuli/Experimental_stims/faces/joel-mott-LaK153ghdig-unsplash.jpg,0,0,745,1,chosen,19,29,faces,body_parts,4300,1,6,1
33,85508,0,34,1,1,0,no_gain1,gain5,G,I,46,11,objects,outdoor_scenes,90,97,Stimuli/Experimental_stims/objects/mockup-graphics-PNsj6RiHAF4-unsplash.jpg,Stimuli/Experimental_stims/outdoor_scenes/stephen-leonardi-gyIRjKPXupE-unsplash.jpg,0,0,877,1,unchosen,11,46,outdoor_scenes,objects,1000,0,6,1
34,85508,0,35,1,1,1,gain1,no_gain3,A,D,3,38,outdoor_scenes,objects,93,88,Stimuli/Experimental_stims/outdoor_scenes/henry-be-NLF6hTe4PAg-unsplash.jpg,Stimuli/Experimental_stims/objects/art-lasovsky-8XddFc6NkBY-unsplash.jpg,0,1,940,1,chosen,3,38,outdoor_scenes,objects,2300,0,6,1
35,85508,0,36,1,1,0,no_gain6,gain5,K,I,33,11,body_parts,outdoor_scenes,65,97,Stimuli/Experimental_stims/body_parts/tucker-good-36skLT5jZcc-unsplash.jpg,Stimuli/Experimental_stims/outdoor_scenes/stephen-leonardi-gyIRjKPXupE-unsplash.jpg,0,0,724,1,unchosen,11,33,outdoor_scenes,body_parts,1200,0,6,1
36,85508,0,37,1,1,1,gain6,no_gain1,B,G,14,2,faces,outdoor_scenes,80,92,Stimuli/Experimental_stims/faces/david-siglin-UuW4psOb388-unsplash.jpg,Stimuli/Experimental_stims/outdoor_scenes/bruno-van-der-kraan-qez8mNJ3ilU-unsplash.jpg,0,1,1227,1,chosen,14,2,faces,outdoor_scenes,1300,0,6,1
37,85508,0,38,1,1,1,gain4,no_gain3,J,D,19,38,faces,objects,95,88,Stimuli/Experimental_stims/faces/joel-mott-LaK153ghdig-unsplash.jpg,Stimuli/Experimental_stims/objects/art-lasovsky-8XddFc6NkBY-unsplash.jpg,0,0,768,0,chosen,38,19,objects,faces,1700,0,6,1
38,85508,0,39,1,1,1,gain1,no_gain5,A,L,3,29,outdoor_scenes,body_parts,93,90,Stimuli/Experimental_stims/outdoor_scenes/henry-be-NLF6hTe4PAg-unsplash.jpg,Stimuli/Experimental_stims/body_parts/manuel-schinner-ZwjFuJ7ebpk-unsplash.jpg,0,1,604,1,chosen,3,29,outdoor_scenes,body_parts,1300,0,6,1
39,85508,0,40,1,1,0,no_gain6,gain3,K,C,33,4,body_parts,outdoor_scenes,65,86,Stimuli/Experimental_stims/body_parts/tucker-good-36skLT5jZcc-unsplash.jpg,Stimuli/Experimental_stims/outdoor_scenes/jarrett-kow-1ZOyYPOBn7I-unsplash.jpg,0,0,749,1,unchosen,4,33,outdoor_scenes,body_parts,1200,0,6,1
40,85508,0,41,1,1,0,no_gain2,gain1,F,A,26,3,body_parts,outdoor_scenes,88,93,Stimuli/Experimental_stims/body_parts/engin-akyurt-x_3gyC42btc-unsplash.jpg,Stimuli/Experimental_stims/outdoor_scenes/henry-be-NLF6hTe4PAg-unsplash.jpg,1,NaN,,NaN,chosen,NaN,NaN,NaN,NaN,1900,0,6,1
41,85508,0,42,1,1,1,gain4,no_gain3,J,D,44,18,objects,faces,74,92,Stimuli/Experimental_stims/objects/kuiye-chen-NuOGFo4PudE-unsplash.jpg,Stimuli/Experimental_stims/faces/jessica-radanavong-mrYkTuAesKE-unsplash.jpg,0,0,915,0,unchosen,18,44,faces,objects,1200,0,6,1
42,85508,0,43,1,1,1,gain6,no_gain6,B,K,14,45,faces,objects,80,92,Stimuli/Experimental_stims/faces/david-siglin-UuW4psOb388-unsplash.jpg,Stimuli/Experimental_stims/objects/leohoho-rngTKHXumy0-unsplash.jpg,1,NaN,,NaN,chosen,NaN,NaN,NaN,NaN,4000,1,6,1
43,85508,0,44,1,1,0,no_gain3,gain3,D,C,38,30,objects,body_parts,88,80,Stimuli/Experimental_stims/objects/art-lasovsky-8XddFc6NkBY-unsplash.jpg,Stimuli/Experimental_stims/body_parts/mika-korhonen-Xodzxosar18-unsplash.jpg,0,1,934,0,chosen,38,30,objects,body_parts,2300,0,6,1
44,85508,0,45,1,1,1,gain2,no_gain6,E,K,34,33,body_parts,body_parts,64,65,Stimuli/Experimental_stims/body_parts/wagner-santos-mBWMvIuVnso-unsplash.jpg,Stimuli/Experimental_stims/body_parts/tucker-good-36skLT5jZcc-unsplash.jpg,0,0,928,0,unchosen,33,34,body_parts,body_parts,1500,0,6,1
45,85508,0,46,1,1,0,no_gain1,gain1,G,A,2,3,outdoor_scenes,outdoor_scenes,92,93,Stimuli/Experimental_stims/outdoor_scenes/bruno-van-der-kraan-qez8mNJ3ilU-unsplash.jpg,Stimuli/Experimental_stims/outdoor_scenes/henry-be-NLF6hTe4PAg-unsplash.jpg,0,1,910,0,chosen,2,3,outdoor_scenes,outdoor_scenes,1100,0,6,1
46,85508,0,47,1,1,0,no_gain5,gain6,L,B,12,1,faces,outdoor_scenes,71,94,Stimuli/Experimental_stims/faces/aiony-haust-jmATI5Q_YgY-unsplash.jpg,Stimuli/Experimental_stims/outdoor_scenes/ashim-d-silva-S2Q5mdOrrVc-unsplash.jpg,0,0,814,1,unchosen,1,12,outdoor_scenes,faces,1100,0,6,1
47,85508,0,48,1,1,0,no_gain5,gain6,L,B,29,14,body_parts,faces,90,80,Stimuli/Experimental_stims/body_parts/manuel-schinner-ZwjFuJ7ebpk-unsplash.jpg,Stimuli/Experimental_stims/faces/david-siglin-UuW4psOb388-unsplash.jpg,0,0,395,1,chosen,14,29,faces,body_parts,3200,1,6,1
48,85508,0,49,1,1,0,no_gain2,gain6,F,B,22,1,faces,outdoor_scenes,62,94,Stimuli/Experimental_stims/faces/ravi-patel-VMGAbeeJTKo-unsplash.jpg,Stimuli/Experimental_stims/outdoor_scenes/ashim-d-silva-S2Q5mdOrrVc-unsplash.jpg,0,1,772,0,unchosen,22,1,faces,outdoor_scenes,1900,0,6,1
49,85508,0,50,1,1,1,gain4,no_gain4,J,H,44,7,objects,outdoor_scenes,74,93,Stimuli/Experimental_stims/objects/kuiye-chen-NuOGFo4PudE-unsplash.jpg,Stimuli/Experimental_stims/outdoor_scenes/petr-vysohlid-9fqwGqGLUxc-unsplash.jpg,0,1,985,1,unchosen,44,7,objects,outdoor_scenes,2300,0,6,1
50,85508,0,51,1,1,1,gain6,no_gain4,B,H,1,7,outdoor_scenes,outdoor_scenes,94,93,Stimuli/Experimental_stims/outdoor_scenes/ashim-d-silva-S2Q5mdOrrVc-unsplash.jpg,Stimuli/Experimental_stims/outdoor_scenes/petr-vysohlid-9fqwGqGLUxc-unsplash.jpg,0,0,712,0,unchosen,7,1,outdoor_scenes,outdoor_scenes,1200,0,6,1
51,85508,0,52,1,1,0,no_gain6,gain1,K,A,45,3,objects,outdoor_scenes,92,93,Stimuli/Experimental_stims/objects/leohoho-rngTKHXumy0-unsplash.jpg,Stimuli/Experimental_stims/outdoor_scenes/henry-be-NLF6hTe4PAg-unsplash.jpg,0,1,625,0,chosen,45,3,objects,outdoor_scenes,2400,0,6,1
52,85508,0,53,1,1,1,gain2,no_gain1,E,G,42,2,objects,outdoor_scenes,88,92,Stimuli/Experimental_stims/objects/jess-bailey-nOeVi8DsN8U-unsplash.jpg,Stimuli/Experimental_stims/outdoor_scenes/bruno-van-der-kraan-qez8mNJ3ilU-unsplash.jpg,0,1,615,1,chosen,42,2,objects,outdoor_scenes,1600,0,6,1
53,85508,0,54,1,1,1,gain5,no_gain6,I,K,28,45,body_parts,objects,79,92,Stimuli/Experimental_stims/body_parts/ira-vishnevskaya-8DQAvdCby1I-unsplash.jpg,Stimuli/Experimental_stims/objects/leohoho-rngTKHXumy0-unsplash.jpg,1,NaN,,NaN,chosen,NaN,NaN,NaN,NaN,3100,1,6,1
54,85508,0,55,1,1,0,no_gain5,gain1,L,A,12,47,faces,objects,71,99,Stimuli/Experimental_stims/faces/aiony-haust-jmATI5Q_YgY-unsplash.jpg,Stimuli/Experimental_stims/objects/ronaldo-arthur-vidal-Cdz_lvnl37k-unsplash.jpg,0,1,644,0,unchosen,12,47,faces,objects,2300,0,6,1
55,85508,0,56,1,1,1,gain2,no_gain2,E,F,42,26,objects,body_parts,88,88,Stimuli/Experimental_stims/objects/jess-bailey-nOeVi8DsN8U-unsplash.jpg,Stimuli/Experimental_stims/body_parts/engin-akyurt-x_3gyC42btc-unsplash.jpg,0,1,1020,1,chosen,42,26,objects,body_parts,2600,0,6,1
56,85508,0,57,1,1,1,gain3,no_gain2,C,F,4,22,outdoor_scenes,faces,86,62,Stimuli/Experimental_stims/outdoor_scenes/jarrett-kow-1ZOyYPOBn7I-unsplash.jpg,Stimuli/Experimental_stims/faces/ravi-patel-VMGAbeeJTKo-unsplash.jpg,0,1,924,1,unchosen,4,22,outdoor_scenes,faces,1700,0,6,1
57,85508,0,58,1,1,0,no_gain1,gain3,G,C,46,4,objects,outdoor_scenes,90,86,Stimuli/Experimental_stims/objects/mockup-graphics-PNsj6RiHAF4-unsplash.jpg,Stimuli/Experimental_stims/outdoor_scenes/jarrett-kow-1ZOyYPOBn7I-unsplash.jpg,0,0,799,1,unchosen,4,46,outdoor_scenes,objects,1100,0,6,1
58,85508,0,59,1,1,1,gain6,no_gain4,B,H,14,16,faces,faces,80,100,Stimuli/Experimental_stims/faces/david-siglin-UuW4psOb388-unsplash.jpg,Stimuli/Experimental_stims/faces/freddy-kearney-o-ioeoATbIM-unsplash.jpg,0,1,759,1,chosen,14,16,faces,faces,2600,0,6,1
59,85508,0,60,1,1,1,gain6,no_gain1,B,G,1,46,outdoor_scenes,objects,94,90,Stimuli/Experimental_stims/outdoor_scenes/ashim-d-silva-S2Q5mdOrrVc-unsplash.jpg,Stimuli/Experimental_stims/objects/mockup-graphics-PNsj6RiHAF4-unsplash.jpg,0,0,1305,0,unchosen,46,1,objects,outdoor_scenes,1000,0,6,1
60,85508,0,61,1,1,1,gain1,no_gain3,A,D,47,18,objects,faces,99,92,Stimuli/Experimental_stims/objects/ronaldo-arthur-vidal-Cdz_lvnl37k-unsplash.jpg,Stimuli/Experimental_stims/faces/jessica-radanavong-mrYkTuAesKE-unsplash.jpg,1,NaN,,NaN,unchosen,NaN,NaN,NaN,NaN,2400,0,6,1
61,85508,0,62,1,1,0,no_gain6,gain4,K,J,33,44,body_parts,objects,65,74,Stimuli/Experimental_stims/body_parts/tucker-good-36skLT5jZcc-unsplash.jpg,Stimuli/Experimental_stims/objects/kuiye-chen-NuOGFo4PudE-unsplash.jpg,0,1,762,0,unchosen,33,44,body_parts,objects,3500,1,6,1
62,85508,0,63,1,1,1,gain6,no_gain3,B,D,14,38,faces,objects,80,88,Stimuli/Experimental_stims/faces/david-siglin-UuW4psOb388-unsplash.jpg,Stimuli/Experimental_stims/objects/art-lasovsky-8XddFc6NkBY-unsplash.jpg,0,1,686,1,chosen,14,38,faces,objects,1700,0,6,1
63,85508,0,64,1,1,1,gain2,no_gain4,E,H,42,16,objects,faces,88,100,Stimuli/Experimental_stims/objects/jess-bailey-nOeVi8DsN8U-unsplash.jpg,Stimuli/Experimental_stims/faces/freddy-kearney-o-ioeoATbIM-unsplash.jpg,0,0,883,0,chosen,16,42,faces,objects,1200,0,6,1
64,85508,0,65,1,1,0,no_gain6,gain1,K,A,33,47,body_parts,objects,65,99,Stimuli/Experimental_stims/body_parts/tucker-good-36skLT5jZcc-unsplash.jpg,Stimuli/Experimental_stims/objects/ronaldo-arthur-vidal-Cdz_lvnl37k-unsplash.jpg,0,1,1070,0,unchosen,33,47,body_parts,objects,1600,0,6,1
65,85508,0,66,1,1,0,no_gain4,gain1,H,A,7,47,outdoor_scenes,objects,93,99,Stimuli/Experimental_stims/outdoor_scenes/petr-vysohlid-9fqwGqGLUxc-unsplash.jpg,Stimuli/Experimental_stims/objects/ronaldo-arthur-vidal-Cdz_lvnl37k-unsplash.jpg,1,NaN,,NaN,unchosen,NaN,NaN,NaN,NaN,1200,0,6,1
66,85508,0,67,1,1,1,gain5,no_gain2,I,F,11,22,outdoor_scenes,faces,97,62,Stimuli/Experimental_stims/outdoor_scenes/stephen-leonardi-gyIRjKPXupE-unsplash.jpg,Stimuli/Experimental_stims/faces/ravi-patel-VMGAbeeJTKo-unsplash.jpg,0,0,886,0,unchosen,22,11,faces,outdoor_scenes,3400,1,6,1
67,85508,0,68,1,1,0,no_gain1,gain4,G,J,2,19,outdoor_scenes,faces,92,95,Stimuli/Experimental_stims/outdoor_scenes/bruno-van-der-kraan-qez8mNJ3ilU-unsplash.jpg,Stimuli/Experimental_stims/faces/joel-mott-LaK153ghdig-unsplash.jpg,0,1,689,0,chosen,2,19,outdoor_scenes,faces,1900,0,6,1
68,85508,0,69,1,1,1,gain6,no_gain2,B,F,14,26,faces,body_parts,80,88,Stimuli/Experimental_stims/faces/david-siglin-UuW4psOb388-unsplash.jpg,Stimuli/Experimental_stims/body_parts/engin-akyurt-x_3gyC42btc-unsplash.jpg,0,0,146,0,chosen,26,14,body_parts,faces,2200,0,6,1
69,85508,0,70,1,1,1,gain5,no_gain3,I,D,28,38,body_parts,objects,79,88,Stimuli/Experimental_stims/body_parts/ira-vishnevskaya-8DQAvdCby1I-unsplash.jpg,Stimuli/Experimental_stims/objects/art-lasovsky-8XddFc6NkBY-unsplash.jpg,0,1,132,1,chosen,28,38,body_parts,objects,1100,0,6,1
70,85508,0,71,1,1,0,no_gain1,gain1,G,A,46,47,objects,objects,90,99,Stimuli/Experimental_stims/objects/mockup-graphics-PNsj6RiHAF4-unsplash.jpg,Stimuli/Experimental_stims/objects/ronaldo-arthur-vidal-Cdz_lvnl37k-unsplash.jpg,0,0,536,1,unchosen,47,46,objects,objects,2600,0,6,1
71,85508,0,72,1,1,1,gain1,no_gain2,A,F,47,22,objects,faces,99,62,Stimuli/Experimental_stims/objects/ronaldo-arthur-vidal-Cdz_lvnl37k-unsplash.jpg,Stimuli/Experimental_stims/faces/ravi-patel-VMGAbeeJTKo-unsplash.jpg,0,1,618,1,unchosen,47,22,objects,faces,2100,0,6,1
72,85508,0,73,1,1,0,no_gain3,gain3,D,C,18,4,faces,outdoor_scenes,92,86,Stimuli/Experimental_stims/faces/jessica-radanavong-mrYkTuAesKE-unsplash.jpg,Stimuli/Experimental_stims/outdoor_scenes/jarrett-kow-1ZOyYPOBn7I-unsplash.jpg,0,1,972,0,unchosen,18,4,faces,outdoor_scenes,1600,0,6,1
73,85508,0,74,1,1,0,no_gain4,gain1,H,A,16,3,faces,outdoor_scenes,100,93,Stimuli/Experimental_stims/faces/freddy-kearney-o-ioeoATbIM-unsplash.jpg,Stimuli/Experimental_stims/outdoor_scenes/henry-be-NLF6hTe4PAg-unsplash.jpg,0,0,709,1,chosen,3,16,outdoor_scenes,faces,1200,0,6,1
74,85508,0,75,1,1,1,gain3,no_gain5,C,L,4,12,outdoor_scenes,faces,86,71,Stimuli/Experimental_stims/outdoor_scenes/jarrett-kow-1ZOyYPOBn7I-unsplash.jpg,Stimuli/Experimental_stims/faces/aiony-haust-jmATI5Q_YgY-unsplash.jpg,0,1,855,1,unchosen,4,12,outdoor_scenes,faces,2600,0,6,1
75,85508,0,76,1,1,0,no_gain4,gain3,H,C,16,30,faces,body_parts,100,80,Stimuli/Experimental_stims/faces/freddy-kearney-o-ioeoATbIM-unsplash.jpg,Stimuli/Experimental_stims/body_parts/mika-korhonen-Xodzxosar18-unsplash.jpg,0,1,659,0,chosen,16,30,faces,body_parts,3600,1,6,1
76,85508,0,77,2,2,1,gain4,no_gain6,J,K,44,33,objects,body_parts,74,65,Stimuli/Experimental_stims/objects/kuiye-chen-NuOGFo4PudE-unsplash.jpg,Stimuli/Experimental_stims/body_parts/tucker-good-36skLT5jZcc-unsplash.jpg,1,NaN,,NaN,unchosen,NaN,NaN,NaN,NaN,3100,1,4,1
77,85508,0,78,2,2,1,gain3,no_gain1,C,G,30,2,body_parts,outdoor_scenes,80,92,Stimuli/Experimental_stims/body_parts/mika-korhonen-Xodzxosar18-unsplash.jpg,Stimuli/Experimental_stims/outdoor_scenes/bruno-van-der-kraan-qez8mNJ3ilU-unsplash.jpg,1,NaN,,NaN,chosen,NaN,NaN,NaN,NaN,2600,0,4,1
78,85508,0,79,2,2,0,no_gain5,gain5,L,I,29,28,body_parts,body_parts,90,79,Stimuli/Experimental_stims/body_parts/manuel-schinner-ZwjFuJ7ebpk-unsplash.jpg,Stimuli/Experimental_stims/body_parts/ira-vishnevskaya-8DQAvdCby1I-unsplash.jpg,0,0,1014,1,chosen,28,29,body_parts,body_parts,1800,0,4,1
79,85508,0,80,2,2,0,no_gain5,gain2,L,E,12,34,faces,body_parts,71,64,Stimuli/Experimental_stims/faces/aiony-haust-jmATI5Q_YgY-unsplash.jpg,Stimuli/Experimental_stims/body_parts/wagner-santos-mBWMvIuVnso-unsplash.jpg,0,1,1408,0,unchosen,12,34,faces,body_parts,1000,0,4,1
80,85508,0,81,2,2,0,no_gain5,gain6,L,B,29,14,body_parts,faces,90,80,Stimuli/Experimental_stims/body_parts/manuel-schinner-ZwjFuJ7ebpk-unsplash.jpg,Stimuli/Experimental_stims/faces/david-siglin-UuW4psOb388-unsplash.jpg,1,NaN,,NaN,chosen,NaN,NaN,NaN,NaN,2300,0,4,1
81,85508,0,82,2,2,1,gain2,no_gain1,E,G,42,2,objects,outdoor_scenes,88,92,Stimuli/Experimental_stims/objects/jess-bailey-nOeVi8DsN8U-unsplash.jpg,Stimuli/Experimental_stims/outdoor_scenes/bruno-van-der-kraan-qez8mNJ3ilU-unsplash.jpg,1,NaN,,NaN,chosen,NaN,NaN,NaN,NaN,1100,0,4,1
82,85508,0,83,2,2,1,gain6,no_gain4,B,H,14,16,faces,faces,80,100,Stimuli/Experimental_stims/faces/david-siglin-UuW4psOb388-unsplash.jpg,Stimuli/Experimental_stims/faces/freddy-kearney-o-ioeoATbIM-unsplash.jpg,0,0,1245,0,chosen,16,14,faces,faces,1500,0,4,1
83,85508,0,84,2,2,1,gain1,no_gain4,A,H,47,7,objects,outdoor_scenes,99,93,Stimuli/Experimental_stims/objects/ronaldo-arthur-vidal-Cdz_lvnl37k-unsplash.jpg,Stimuli/Experimental_stims/outdoor_scenes/petr-vysohlid-9fqwGqGLUxc-unsplash.jpg,0,1,1004,1,unchosen,47,7,objects,outdoor_scenes,2400,0,4,1
84,85508,0,85,2,2,0,no_gain2,gain2,F,E,22,34,faces,body_parts,62,64,Stimuli/Experimental_stims/faces/ravi-patel-VMGAbeeJTKo-unsplash.jpg,Stimuli/Experimental_stims/body_parts/wagner-santos-mBWMvIuVnso-unsplash.jpg,0,0,540,1,unchosen,34,22,body_parts,faces,2300,0,4,1
85,85508,0,86,2,2,1,gain6,no_gain3,B,D,14,38,faces,objects,80,88,Stimuli/Experimental_stims/faces/david-siglin-UuW4psOb388-unsplash.jpg,Stimuli/Experimental_stims/objects/art-lasovsky-8XddFc6NkBY-unsplash.jpg,1,NaN,,NaN,chosen,NaN,NaN,NaN,NaN,1200,0,4,1
86,85508,0,87,2,2,0,no_gain5,gain4,L,J,12,44,faces,objects,71,74,Stimuli/Experimental_stims/faces/aiony-haust-jmATI5Q_YgY-unsplash.jpg,Stimuli/Experimental_stims/objects/kuiye-chen-NuOGFo4PudE-unsplash.jpg,1,NaN,,NaN,unchosen,NaN,NaN,NaN,NaN,1300,0,4,1
87,85508,0,88,2,2,1,gain2,no_gain2,E,F,42,26,objects,body_parts,88,88,Stimuli/Experimental_stims/objects/jess-bailey-nOeVi8DsN8U-unsplash.jpg,Stimuli/Experimental_stims/body_parts/engin-akyurt-x_3gyC42btc-unsplash.jpg,1,NaN,,NaN,chosen,NaN,NaN,NaN,NaN,3700,1,4,1
88,85508,0,89,2,2,1,gain5,no_gain3,I,D,28,38,body_parts,objects,79,88,Stimuli/Experimental_stims/body_parts/ira-vishnevskaya-8DQAvdCby1I-unsplash.jpg,Stimuli/Experimental_stims/objects/art-lasovsky-8XddFc6NkBY-unsplash.jpg,0,1,665,1,chosen,28,38,body_parts,objects,1600,0,4,1
89,85508,0,90,2,2,0,no_gain3,gain1,D,A,38,3,objects,outdoor_scenes,88,93,Stimuli/Experimental_stims/objects/art-lasovsky-8XddFc6NkBY-unsplash.jpg,Stimuli/Experimental_stims/outdoor_scenes/henry-be-NLF6hTe4PAg-unsplash.jpg,0,0,964,1,chosen,3,38,outdoor_scenes,objects,1700,0,4,1
90,85508,0,91,2,2,0,no_gain2,gain1,F,A,22,47,faces,objects,62,99,Stimuli/Experimental_stims/faces/ravi-patel-VMGAbeeJTKo-unsplash.jpg,Stimuli/Experimental_stims/objects/ronaldo-arthur-vidal-Cdz_lvnl37k-unsplash.jpg,0,1,651,0,unchosen,22,47,faces,objects,1200,0,4,1
91,85508,0,92,2,2,0,no_gain6,gain5,K,I,45,28,objects,body_parts,92,79,Stimuli/Experimental_stims/objects/leohoho-rngTKHXumy0-unsplash.jpg,Stimuli/Experimental_stims/body_parts/ira-vishnevskaya-8DQAvdCby1I-unsplash.jpg,0,0,1149,1,chosen,28,45,body_parts,objects,1100,0,4,1
92,85508,0,93,2,2,0,no_gain4,gain3,H,C,16,30,faces,body_parts,100,80,Stimuli/Experimental_stims/faces/freddy-kearney-o-ioeoATbIM-unsplash.jpg,Stimuli/Experimental_stims/body_parts/mika-korhonen-Xodzxosar18-unsplash.jpg,0,1,734,0,chosen,16,30,faces,body_parts,1300,0,4,1
93,85508,0,94,2,2,1,gain4,no_gain5,J,L,19,29,faces,body_parts,95,90,Stimuli/Experimental_stims/faces/joel-mott-LaK153ghdig-unsplash.jpg,Stimuli/Experimental_stims/body_parts/manuel-schinner-ZwjFuJ7ebpk-unsplash.jpg,0,0,994,0,chosen,29,19,body_parts,faces,4500,1,4,1
94,85508,0,95,2,2,0,no_gain5,gain1,L,A,12,47,faces,objects,71,99,Stimuli/Experimental_stims/faces/aiony-haust-jmATI5Q_YgY-unsplash.jpg,Stimuli/Experimental_stims/objects/ronaldo-arthur-vidal-Cdz_lvnl37k-unsplash.jpg,0,1,755,0,unchosen,12,47,faces,objects,1900,0,4,1
95,85508,0,96,2,2,1,gain1,no_gain3,A,D,47,18,objects,faces,99,92,Stimuli/Experimental_stims/objects/ronaldo-arthur-vidal-Cdz_lvnl37k-unsplash.jpg,Stimuli/Experimental_stims/faces/jessica-radanavong-mrYkTuAesKE-unsplash.jpg,0,0,678,0,unchosen,18,47,faces,objects,1100,0,4,1
96,85508,0,97,2,2,1,gain3,no_gain3,C,D,4,18,outdoor_scenes,faces,86,92,Stimuli/Experimental_stims/outdoor_scenes/jarrett-kow-1ZOyYPOBn7I-unsplash.jpg,Stimuli/Experimental_stims/faces/jessica-radanavong-mrYkTuAesKE-unsplash.jpg,0,1,1037,1,unchosen,4,18,outdoor_scenes,faces,2300,0,4,1
97,85508,0,98,2,2,0,no_gain5,gain1,L,A,29,3,body_parts,outdoor_scenes,90,93,Stimuli/Experimental_stims/body_parts/manuel-schinner-ZwjFuJ7ebpk-unsplash.jpg,Stimuli/Experimental_stims/outdoor_scenes/henry-be-NLF6hTe4PAg-unsplash.jpg,0,0,686,1,chosen,3,29,outdoor_scenes,body_parts,2800,0,4,1
98,85508,0,99,2,2,0,no_gain5,gain5,L,I,12,11,faces,outdoor_scenes,71,97,Stimuli/Experimental_stims/faces/aiony-haust-jmATI5Q_YgY-unsplash.jpg,Stimuli/Experimental_stims/outdoor_scenes/stephen-leonardi-gyIRjKPXupE-unsplash.jpg,0,1,697,0,unchosen,12,11,faces,outdoor_scenes,3200,1,4,1
99,85508,0,100,2,2,1,gain5,no_gain1,I,G,28,2,body_parts,outdoor_scenes,79,92,Stimuli/Experimental_stims/body_parts/ira-vishnevskaya-8DQAvdCby1I-unsplash.jpg,Stimuli/Experimental_stims/outdoor_scenes/bruno-van-der-kraan-qez8mNJ3ilU-unsplash.jpg,0,0,965,0,chosen,2,28,outdoor_scenes,body_parts,2000,0,4,1
100,85508,0,101,2,2,0,no_gain2,gain6,F,B,26,14,body_parts,faces,88,80,Stimuli/Experimental_stims/body_parts/engin-akyurt-x_3gyC42btc-unsplash.jpg,Stimuli/Experimental_stims/faces/david-siglin-UuW4psOb388-unsplash.jpg,0,1,810,0,chosen,26,14,body_parts,faces,2500,0,4,1
101,85508,0,102,2,2,1,gain3,no_gain5,C,L,4,12,outdoor_scenes,faces,86,71,Stimuli/Experimental_stims/outdoor_scenes/jarrett-kow-1ZOyYPOBn7I-unsplash.jpg,Stimuli/Experimental_stims/faces/aiony-haust-jmATI5Q_YgY-unsplash.jpg,0,0,769,0,unchosen,12,4,faces,outdoor_scenes,1300,0,4,1
102,85508,0,103,2,2,1,gain6,no_gain3,B,D,1,18,outdoor_scenes,faces,94,92,Stimuli/Experimental_stims/outdoor_scenes/ashim-d-silva-S2Q5mdOrrVc-unsplash.jpg,Stimuli/Experimental_stims/faces/jessica-radanavong-mrYkTuAesKE-unsplash.jpg,0,1,601,1,unchosen,1,18,outdoor_scenes,faces,1300,0,4,1
103,85508,0,104,2,2,1,gain4,no_gain4,J,H,44,7,objects,outdoor_scenes,74,93,Stimuli/Experimental_stims/objects/kuiye-chen-NuOGFo4PudE-unsplash.jpg,Stimuli/Experimental_stims/outdoor_scenes/petr-vysohlid-9fqwGqGLUxc-unsplash.jpg,0,1,852,1,unchosen,44,7,objects,outdoor_scenes,4500,1,4,1
104,85508,0,105,2,2,1,gain6,no_gain1,B,G,14,2,faces,outdoor_scenes,80,92,Stimuli/Experimental_stims/faces/david-siglin-UuW4psOb388-unsplash.jpg,Stimuli/Experimental_stims/outdoor_scenes/bruno-van-der-kraan-qez8mNJ3ilU-unsplash.jpg,0,0,538,0,chosen,2,14,outdoor_scenes,faces,1400,0,4,1
105,85508,0,106,2,2,1,gain2,no_gain6,E,K,34,33,body_parts,body_parts,64,65,Stimuli/Experimental_stims/body_parts/wagner-santos-mBWMvIuVnso-unsplash.jpg,Stimuli/Experimental_stims/body_parts/tucker-good-36skLT5jZcc-unsplash.jpg,0,1,933,1,unchosen,34,33,body_parts,body_parts,2600,0,4,1
106,85508,0,107,2,2,1,gain4,no_gain4,J,H,19,16,faces,faces,95,100,Stimuli/Experimental_stims/faces/joel-mott-LaK153ghdig-unsplash.jpg,Stimuli/Experimental_stims/faces/freddy-kearney-o-ioeoATbIM-unsplash.jpg,0,0,718,0,chosen,16,19,faces,faces,2100,0,4,1
107,85508,0,108,2,2,0,no_gain6,gain6,K,B,33,1,body_parts,outdoor_scenes,65,94,Stimuli/Experimental_stims/body_parts/tucker-good-36skLT5jZcc-unsplash.jpg,Stimuli/Experimental_stims/outdoor_scenes/ashim-d-silva-S2Q5mdOrrVc-unsplash.jpg,0,1,670,0,unchosen,33,1,body_parts,outdoor_scenes,2100,0,4,1
108,85508,0,109,2,2,1,gain4,no_gain3,J,D,44,18,objects,faces,74,92,Stimuli/Experimental_stims/objects/kuiye-chen-NuOGFo4PudE-unsplash.jpg,Stimuli/Experimental_stims/faces/jessica-radanavong-mrYkTuAesKE-unsplash.jpg,0,0,23,0,unchosen,18,44,faces,objects,2600,0,4,1
109,85508,0,110,2,2,0,no_gain1,gain1,G,A,2,3,outdoor_scenes,outdoor_scenes,92,93,Stimuli/Experimental_stims/outdoor_scenes/bruno-van-der-kraan-qez8mNJ3ilU-unsplash.jpg,Stimuli/Experimental_stims/outdoor_scenes/henry-be-NLF6hTe4PAg-unsplash.jpg,0,1,743,0,chosen,2,3,outdoor_scenes,outdoor_scenes,3000,1,4,1
110,85508,0,111,2,2,1,gain2,no_gain4,E,H,42,16,objects,faces,88,100,Stimuli/Experimental_stims/objects/jess-bailey-nOeVi8DsN8U-unsplash.jpg,Stimuli/Experimental_stims/faces/freddy-kearney-o-ioeoATbIM-unsplash.jpg,0,0,412,0,chosen,16,42,faces,objects,1100,0,4,1
111,85508,0,112,2,2,0,no_gain1,gain3,G,C,46,4,objects,outdoor_scenes,90,86,Stimuli/Experimental_stims/objects/mockup-graphics-PNsj6RiHAF4-unsplash.jpg,Stimuli/Experimental_stims/outdoor_scenes/jarrett-kow-1ZOyYPOBn7I-unsplash.jpg,0,1,641,0,unchosen,46,4,objects,outdoor_scenes,1000,0,4,1
112,85508,0,113,2,2,1,gain5,no_gain1,I,G,11,46,outdoor_scenes,objects,97,90,Stimuli/Experimental_stims/outdoor_scenes/stephen-leonardi-gyIRjKPXupE-unsplash.jpg,Stimuli/Experimental_stims/objects/mockup-graphics-PNsj6RiHAF4-unsplash.jpg,0,0,1385,0,unchosen,46,11,objects,outdoor_scenes,1300,0,4,1
113,85508,0,114,2,2,1,gain3,no_gain6,C,K,30,45,body_parts,objects,80,92,Stimuli/Experimental_stims/body_parts/mika-korhonen-Xodzxosar18-unsplash.jpg,Stimuli/Experimental_stims/objects/leohoho-rngTKHXumy0-unsplash.jpg,1,NaN,,NaN,chosen,NaN,NaN,NaN,NaN,1000,0,4,1
114,85508,0,115,2,2,0,no_gain1,gain1,G,A,46,47,objects,objects,90,99,Stimuli/Experimental_stims/objects/mockup-graphics-PNsj6RiHAF4-unsplash.jpg,Stimuli/Experimental_stims/objects/ronaldo-arthur-vidal-Cdz_lvnl37k-unsplash.jpg,0,1,663,0,unchosen,46,47,objects,objects,1200,0,4,1
115,85508,0,116,2,2,0,no_gain5,gain3,L,C,29,30,body_parts,body_parts,90,80,Stimuli/Experimental_stims/body_parts/manuel-schinner-ZwjFuJ7ebpk-unsplash.jpg,Stimuli/Experimental_stims/body_parts/mika-korhonen-Xodzxosar18-unsplash.jpg,0,0,769,1,chosen,30,29,body_parts,body_parts,1800,0,4,1
116,85508,0,117,2,2,1,gain5,no_gain2,I,F,11,22,outdoor_scenes,faces,97,62,Stimuli/Experimental_stims/outdoor_scenes/stephen-leonardi-gyIRjKPXupE-unsplash.jpg,Stimuli/Experimental_stims/faces/ravi-patel-VMGAbeeJTKo-unsplash.jpg,0,1,661,1,unchosen,11,22,outdoor_scenes,faces,2300,0,4,1
117,85508,0,118,2,2,1,gain4,no_gain1,J,G,19,2,faces,outdoor_scenes,95,92,Stimuli/Experimental_stims/faces/joel-mott-LaK153ghdig-unsplash.jpg,Stimuli/Experimental_stims/outdoor_scenes/bruno-van-der-kraan-qez8mNJ3ilU-unsplash.jpg,0,0,96,0,chosen,2,19,outdoor_scenes,faces,3500,1,4,1
118,85508,0,119,2,2,0,no_gain2,gain6,F,B,22,1,faces,outdoor_scenes,62,94,Stimuli/Experimental_stims/faces/ravi-patel-VMGAbeeJTKo-unsplash.jpg,Stimuli/Experimental_stims/outdoor_scenes/ashim-d-silva-S2Q5mdOrrVc-unsplash.jpg,0,1,226,0,unchosen,22,1,faces,outdoor_scenes,1300,0,4,1
119,85508,0,120,2,2,0,no_gain2,gain5,F,I,26,28,body_parts,body_parts,88,79,Stimuli/Experimental_stims/body_parts/engin-akyurt-x_3gyC42btc-unsplash.jpg,Stimuli/Experimental_stims/body_parts/ira-vishnevskaya-8DQAvdCby1I-unsplash.jpg,0,0,1469,1,chosen,28,26,body_parts,body_parts,1400,0,4,1
120,85508,0,121,2,2,1,gain3,no_gain3,C,D,30,38,body_parts,objects,80,88,Stimuli/Experimental_stims/body_parts/mika-korhonen-Xodzxosar18-unsplash.jpg,Stimuli/Experimental_stims/objects/art-lasovsky-8XddFc6NkBY-unsplash.jpg,0,1,936,1,chosen,30,38,body_parts,objects,1300,0,4,1
121,85508,0,122,2,2,1,gain6,no_gain1,B,G,1,46,outdoor_scenes,objects,94,90,Stimuli/Experimental_stims/outdoor_scenes/ashim-d-silva-S2Q5mdOrrVc-unsplash.jpg,Stimuli/Experimental_stims/objects/mockup-graphics-PNsj6RiHAF4-unsplash.jpg,0,0,719,0,unchosen,46,1,objects,outdoor_scenes,2800,0,4,1
122,85508,0,123,2,2,1,gain5,no_gain6,I,K,11,33,outdoor_scenes,body_parts,97,65,Stimuli/Experimental_stims/outdoor_scenes/stephen-leonardi-gyIRjKPXupE-unsplash.jpg,Stimuli/Experimental_stims/body_parts/tucker-good-36skLT5jZcc-unsplash.jpg,0,1,696,1,unchosen,11,33,outdoor_scenes,body_parts,1800,0,4,1
123,85508,0,124,2,2,0,no_gain2,gain4,F,J,22,44,faces,objects,62,74,Stimuli/Experimental_stims/faces/ravi-patel-VMGAbeeJTKo-unsplash.jpg,Stimuli/Experimental_stims/objects/kuiye-chen-NuOGFo4PudE-unsplash.jpg,0,0,711,1,unchosen,44,22,objects,faces,1200,0,4,1
124,85508,0,125,2,2,0,no_gain3,gain4,D,J,38,19,objects,faces,88,95,Stimuli/Experimental_stims/objects/art-lasovsky-8XddFc6NkBY-unsplash.jpg,Stimuli/Experimental_stims/faces/joel-mott-LaK153ghdig-unsplash.jpg,0,1,761,0,chosen,38,19,objects,faces,1000,0,4,1
125,85508,0,126,2,2,1,gain3,no_gain4,C,H,4,7,outdoor_scenes,outdoor_scenes,86,93,Stimuli/Experimental_stims/outdoor_scenes/jarrett-kow-1ZOyYPOBn7I-unsplash.jpg,Stimuli/Experimental_stims/outdoor_scenes/petr-vysohlid-9fqwGqGLUxc-unsplash.jpg,0,0,817,0,unchosen,7,4,outdoor_scenes,outdoor_scenes,1600,0,4,1
126,85508,0,127,2,2,0,no_gain2,gain4,F,J,26,19,body_parts,faces,88,95,Stimuli/Experimental_stims/body_parts/engin-akyurt-x_3gyC42btc-unsplash.jpg,Stimuli/Experimental_stims/faces/joel-mott-LaK153ghdig-unsplash.jpg,0,1,685,0,chosen,26,19,body_parts,faces,1500,0,4,1
127,85508,0,128,2,2,0,no_gain5,gain2,L,E,29,42,body_parts,objects,90,88,Stimuli/Experimental_stims/body_parts/manuel-schinner-ZwjFuJ7ebpk-unsplash.jpg,Stimuli/Experimental_stims/objects/jess-bailey-nOeVi8DsN8U-unsplash.jpg,0,0,958,1,chosen,42,29,objects,body_parts,3300,1,4,1
128,85508,0,129,2,2,0,no_gain4,gain1,H,A,16,3,faces,outdoor_scenes,100,93,Stimuli/Experimental_stims/faces/freddy-kearney-o-ioeoATbIM-unsplash.jpg,Stimuli/Experimental_stims/outdoor_scenes/henry-be-NLF6hTe4PAg-unsplash.jpg,0,1,217,0,chosen,16,3,faces,outdoor_scenes,2200,0,4,1
129,85508,0,130,2,2,0,no_gain5,gain6,L,B,12,1,faces,outdoor_scenes,71,94,Stimuli/Experimental_stims/faces/aiony-haust-jmATI5Q_YgY-unsplash.jpg,Stimuli/Experimental_stims/outdoor_scenes/ashim-d-silva-S2Q5mdOrrVc-unsplash.jpg,0,0,664,1,unchosen,1,12,outdoor_scenes,faces,2400,0,4,1
130,85508,0,131,2,2,1,gain2,no_gain3,E,D,42,38,objects,objects,88,88,Stimuli/Experimental_stims/objects/jess-bailey-nOeVi8DsN8U-unsplash.jpg,Stimuli/Experimental_stims/objects/art-lasovsky-8XddFc6NkBY-unsplash.jpg,0,1,254,1,chosen,42,38,objects,objects,1300,0,4,1
131,85508,0,132,2,2,1,gain6,no_gain4,B,H,1,7,outdoor_scenes,outdoor_scenes,94,93,Stimuli/Experimental_stims/outdoor_scenes/ashim-d-silva-S2Q5mdOrrVc-unsplash.jpg,Stimuli/Experimental_stims/outdoor_scenes/petr-vysohlid-9fqwGqGLUxc-unsplash.jpg,0,0,953,0,unchosen,7,1,outdoor_scenes,outdoor_scenes,2400,0,4,1
132,85508,0,133,2,2,0,no_gain1,gain4,G,J,46,44,objects,objects,90,74,Stimuli/Experimental_stims/objects/mockup-graphics-PNsj6RiHAF4-unsplash.jpg,Stimuli/Experimental_stims/objects/kuiye-chen-NuOGFo4PudE-unsplash.jpg,0,1,217,0,unchosen,46,44,objects,objects,2200,0,4,1
133,85508,0,134,2,2,0,no_gain6,gain4,K,J,45,19,objects,faces,92,95,Stimuli/Experimental_stims/objects/leohoho-rngTKHXumy0-unsplash.jpg,Stimuli/Experimental_stims/faces/joel-mott-LaK153ghdig-unsplash.jpg,0,0,644,1,chosen,19,45,faces,objects,2900,1,4,1
134,85508,0,135,2,2,1,gain1,no_gain6,A,K,3,45,outdoor_scenes,objects,93,92,Stimuli/Experimental_stims/outdoor_scenes/henry-be-NLF6hTe4PAg-unsplash.jpg,Stimuli/Experimental_stims/objects/leohoho-rngTKHXumy0-unsplash.jpg,0,1,667,1,chosen,3,45,outdoor_scenes,objects,1900,0,4,1
135,85508,0,136,2,2,0,no_gain1,gain2,G,E,46,34,objects,body_parts,90,64,Stimuli/Experimental_stims/objects/mockup-graphics-PNsj6RiHAF4-unsplash.jpg,Stimuli/Experimental_stims/body_parts/wagner-santos-mBWMvIuVnso-unsplash.jpg,0,0,907,1,unchosen,34,46,body_parts,objects,1700,0,4,1
136,85508,0,137,2,2,0,no_gain4,gain2,H,E,7,34,outdoor_scenes,body_parts,93,64,Stimuli/Experimental_stims/outdoor_scenes/petr-vysohlid-9fqwGqGLUxc-unsplash.jpg,Stimuli/Experimental_stims/body_parts/wagner-santos-mBWMvIuVnso-unsplash.jpg,0,1,969,0,unchosen,7,34,outdoor_scenes,body_parts,1900,0,4,1
137,85508,0,138,2,2,1,gain6,no_gain6,B,K,14,45,faces,objects,80,92,Stimuli/Experimental_stims/faces/david-siglin-UuW4psOb388-unsplash.jpg,Stimuli/Experimental_stims/objects/leohoho-rngTKHXumy0-unsplash.jpg,0,0,886,0,chosen,45,14,objects,faces,1700,0,4,1
138,85508,0,139,2,2,0,no_gain3,gain2,D,E,18,34,faces,body_parts,92,64,Stimuli/Experimental_stims/faces/jessica-radanavong-mrYkTuAesKE-unsplash.jpg,Stimuli/Experimental_stims/body_parts/wagner-santos-mBWMvIuVnso-unsplash.jpg,0,1,862,0,unchosen,18,34,faces,body_parts,1300,0,4,1
139,85508,0,140,2,2,1,gain5,no_gain4,I,H,11,7,outdoor_scenes,outdoor_scenes,97,93,Stimuli/Experimental_stims/outdoor_scenes/stephen-leonardi-gyIRjKPXupE-unsplash.jpg,Stimuli/Experimental_stims/outdoor_scenes/petr-vysohlid-9fqwGqGLUxc-unsplash.jpg,0,0,895,0,unchosen,7,11,outdoor_scenes,outdoor_scenes,3600,1,4,1
140,85508,0,141,2,2,1,gain5,no_gain4,I,H,28,16,body_parts,faces,79,100,Stimuli/Experimental_stims/body_parts/ira-vishnevskaya-8DQAvdCby1I-unsplash.jpg,Stimuli/Experimental_stims/faces/freddy-kearney-o-ioeoATbIM-unsplash.jpg,0,1,772,1,chosen,28,16,body_parts,faces,1700,0,4,1
141,85508,0,142,2,2,0,no_gain6,gain2,K,E,45,42,objects,objects,92,88,Stimuli/Experimental_stims/objects/leohoho-rngTKHXumy0-unsplash.jpg,Stimuli/Experimental_stims/objects/jess-bailey-nOeVi8DsN8U-unsplash.jpg,0,0,637,1,chosen,42,45,objects,objects,1900,0,4,1
142,85508,0,143,2,2,0,no_gain2,gain1,F,A,26,3,body_parts,outdoor_scenes,88,93,Stimuli/Experimental_stims/body_parts/engin-akyurt-x_3gyC42btc-unsplash.jpg,Stimuli/Experimental_stims/outdoor_scenes/henry-be-NLF6hTe4PAg-unsplash.jpg,0,1,808,0,chosen,26,3,body_parts,outdoor_scenes,2200,0,4,1
143,85508,0,144,2,2,0,no_gain3,gain5,D,I,18,11,faces,outdoor_scenes,92,97,Stimuli/Experimental_stims/faces/jessica-radanavong-mrYkTuAesKE-unsplash.jpg,Stimuli/Experimental_stims/outdoor_scenes/stephen-leonardi-gyIRjKPXupE-unsplash.jpg,0,0,648,1,unchosen,11,18,outdoor_scenes,faces,1800,0,4,1
144,85508,0,145,2,2,0,no_gain6,gain3,K,C,33,4,body_parts,outdoor_scenes,65,86,Stimuli/Experimental_stims/body_parts/tucker-good-36skLT5jZcc-unsplash.jpg,Stimuli/Experimental_stims/outdoor_scenes/jarrett-kow-1ZOyYPOBn7I-unsplash.jpg,0,1,647,0,unchosen,33,4,body_parts,outdoor_scenes,1400,0,4,1
145,85508,0,146,2,2,0,no_gain2,gain3,F,C,26,30,body_parts,body_parts,88,80,Stimuli/Experimental_stims/body_parts/engin-akyurt-x_3gyC42btc-unsplash.jpg,Stimuli/Experimental_stims/body_parts/mika-korhonen-Xodzxosar18-unsplash.jpg,0,0,559,1,chosen,30,26,body_parts,body_parts,1800,0,4,1
146,85508,0,147,2,2,1,gain3,no_gain2,C,F,4,22,outdoor_scenes,faces,86,62,Stimuli/Experimental_stims/outdoor_scenes/jarrett-kow-1ZOyYPOBn7I-unsplash.jpg,Stimuli/Experimental_stims/faces/ravi-patel-VMGAbeeJTKo-unsplash.jpg,0,0,915,0,unchosen,22,4,faces,outdoor_scenes,1300,0,4,1
147,85508,0,148,2,2,1,gain1,no_gain6,A,K,47,33,objects,body_parts,99,65,Stimuli/Experimental_stims/objects/ronaldo-arthur-vidal-Cdz_lvnl37k-unsplash.jpg,Stimuli/Experimental_stims/body_parts/tucker-good-36skLT5jZcc-unsplash.jpg,0,0,744,0,unchosen,33,47,body_parts,objects,3600,1,4,1
148,85508,0,149,3,3,1,gain3,no_gain6,C,K,4,33,outdoor_scenes,body_parts,86,65,Stimuli/Experimental_stims/outdoor_scenes/jarrett-kow-1ZOyYPOBn7I-unsplash.jpg,Stimuli/Experimental_stims/body_parts/tucker-good-36skLT5jZcc-unsplash.jpg,1,NaN,,NaN,unchosen,NaN,NaN,NaN,NaN,1200,0,5,1
149,85508,0,150,3,3,1,gain3,no_gain3,C,D,30,38,body_parts,objects,80,88,Stimuli/Experimental_stims/body_parts/mika-korhonen-Xodzxosar18-unsplash.jpg,Stimuli/Experimental_stims/objects/art-lasovsky-8XddFc6NkBY-unsplash.jpg,0,1,701,1,chosen,30,38,body_parts,objects,1100,0,5,1
150,85508,0,151,3,3,1,gain1,no_gain4,A,H,3,16,outdoor_scenes,faces,93,100,Stimuli/Experimental_stims/outdoor_scenes/henry-be-NLF6hTe4PAg-unsplash.jpg,Stimuli/Experimental_stims/faces/freddy-kearney-o-ioeoATbIM-unsplash.jpg,0,0,722,0,chosen,16,3,faces,outdoor_scenes,1100,0,5,1
151,85508,0,152,3,3,1,gain5,no_gain6,I,K,11,33,outdoor_scenes,body_parts,97,65,Stimuli/Experimental_stims/outdoor_scenes/stephen-leonardi-gyIRjKPXupE-unsplash.jpg,Stimuli/Experimental_stims/body_parts/tucker-good-36skLT5jZcc-unsplash.jpg,0,0,722,0,unchosen,33,11,body_parts,outdoor_scenes,1300,0,5,1
152,85508,0,153,3,3,1,gain2,no_gain6,E,K,42,45,objects,objects,88,92,Stimuli/Experimental_stims/objects/jess-bailey-nOeVi8DsN8U-unsplash.jpg,Stimuli/Experimental_stims/objects/leohoho-rngTKHXumy0-unsplash.jpg,0,1,667,1,chosen,42,45,objects,objects,3300,1,5,1
153,85508,0,154,3,3,1,gain6,no_gain6,B,K,14,45,faces,objects,80,92,Stimuli/Experimental_stims/faces/david-siglin-UuW4psOb388-unsplash.jpg,Stimuli/Experimental_stims/objects/leohoho-rngTKHXumy0-unsplash.jpg,0,1,688,1,chosen,14,45,faces,objects,1000,0,5,1
154,85508,0,155,3,3,1,gain1,no_gain2,A,F,47,22,objects,faces,99,62,Stimuli/Experimental_stims/objects/ronaldo-arthur-vidal-Cdz_lvnl37k-unsplash.jpg,Stimuli/Experimental_stims/faces/ravi-patel-VMGAbeeJTKo-unsplash.jpg,0,0,836,0,unchosen,22,47,faces,objects,1300,0,5,1
155,85508,0,156,3,3,0,no_gain4,gain3,H,C,16,30,faces,body_parts,100,80,Stimuli/Experimental_stims/faces/freddy-kearney-o-ioeoATbIM-unsplash.jpg,Stimuli/Experimental_stims/body_parts/mika-korhonen-Xodzxosar18-unsplash.jpg,0,1,793,0,chosen,16,30,faces,body_parts,1300,0,5,1
156,85508,0,157,3,3,0,no_gain4,gain4,H,J,16,19,faces,faces,100,95,Stimuli/Experimental_stims/faces/freddy-kearney-o-ioeoATbIM-unsplash.jpg,Stimuli/Experimental_stims/faces/joel-mott-LaK153ghdig-unsplash.jpg,0,1,884,0,chosen,16,19,faces,faces,1600,0,5,1
157,85508,0,158,3,3,1,gain6,no_gain3,B,D,14,38,faces,objects,80,88,Stimuli/Experimental_stims/faces/david-siglin-UuW4psOb388-unsplash.jpg,Stimuli/Experimental_stims/objects/art-lasovsky-8XddFc6NkBY-unsplash.jpg,0,0,591,0,chosen,38,14,objects,faces,1400,0,5,1
158,85508,0,159,3,3,0,no_gain1,gain2,G,E,46,34,objects,body_parts,90,64,Stimuli/Experimental_stims/objects/mockup-graphics-PNsj6RiHAF4-unsplash.jpg,Stimuli/Experimental_stims/body_parts/wagner-santos-mBWMvIuVnso-unsplash.jpg,0,1,147,0,unchosen,46,34,objects,body_parts,2100,0,5,1
159,85508,0,160,3,3,0,no_gain4,gain3,H,C,7,4,outdoor_scenes,outdoor_scenes,93,86,Stimuli/Experimental_stims/outdoor_scenes/petr-vysohlid-9fqwGqGLUxc-unsplash.jpg,Stimuli/Experimental_stims/outdoor_scenes/jarrett-kow-1ZOyYPOBn7I-unsplash.jpg,0,0,915,1,unchosen,4,7,outdoor_scenes,outdoor_scenes,1200,0,5,1
160,85508,0,161,3,3,0,no_gain1,gain3,G,C,2,30,outdoor_scenes,body_parts,92,80,Stimuli/Experimental_stims/outdoor_scenes/bruno-van-der-kraan-qez8mNJ3ilU-unsplash.jpg,Stimuli/Experimental_stims/body_parts/mika-korhonen-Xodzxosar18-unsplash.jpg,0,1,545,0,chosen,2,30,outdoor_scenes,body_parts,4100,1,5,1
161,85508,0,162,3,3,0,no_gain1,gain4,G,J,46,44,objects,objects,90,74,Stimuli/Experimental_stims/objects/mockup-graphics-PNsj6RiHAF4-unsplash.jpg,Stimuli/Experimental_stims/objects/kuiye-chen-NuOGFo4PudE-unsplash.jpg,0,0,692,1,unchosen,44,46,objects,objects,1900,0,5,1
162,85508,0,163,3,3,1,gain5,no_gain5,I,L,28,29,body_parts,body_parts,79,90,Stimuli/Experimental_stims/body_parts/ira-vishnevskaya-8DQAvdCby1I-unsplash.jpg,Stimuli/Experimental_stims/body_parts/manuel-schinner-ZwjFuJ7ebpk-unsplash.jpg,0,1,261,1,chosen,28,29,body_parts,body_parts,2000,0,5,1
163,85508,0,164,3,3,0,no_gain2,gain5,F,I,22,11,faces,outdoor_scenes,62,97,Stimuli/Experimental_stims/faces/ravi-patel-VMGAbeeJTKo-unsplash.jpg,Stimuli/Experimental_stims/outdoor_scenes/stephen-leonardi-gyIRjKPXupE-unsplash.jpg,1,NaN,,NaN,unchosen,NaN,NaN,NaN,NaN,2600,0,5,1
164,85508,0,165,3,3,1,gain1,no_gain4,A,H,47,7,objects,outdoor_scenes,99,93,Stimuli/Experimental_stims/objects/ronaldo-arthur-vidal-Cdz_lvnl37k-unsplash.jpg,Stimuli/Experimental_stims/outdoor_scenes/petr-vysohlid-9fqwGqGLUxc-unsplash.jpg,0,1,942,1,unchosen,47,7,objects,outdoor_scenes,1100,0,5,1
165,85508,0,166,3,3,0,no_gain4,gain5,H,I,16,28,faces,body_parts,100,79,Stimuli/Experimental_stims/faces/freddy-kearney-o-ioeoATbIM-unsplash.jpg,Stimuli/Experimental_stims/body_parts/ira-vishnevskaya-8DQAvdCby1I-unsplash.jpg,0,1,1259,0,chosen,16,28,faces,body_parts,4400,1,5,1
166,85508,0,167,3,3,0,no_gain5,gain4,L,J,12,44,faces,objects,71,74,Stimuli/Experimental_stims/faces/aiony-haust-jmATI5Q_YgY-unsplash.jpg,Stimuli/Experimental_stims/objects/kuiye-chen-NuOGFo4PudE-unsplash.jpg,0,0,172,1,unchosen,44,12,objects,faces,1200,0,5,1
167,85508,0,168,3,3,0,no_gain5,gain6,L,B,29,14,body_parts,faces,90,80,Stimuli/Experimental_stims/body_parts/manuel-schinner-ZwjFuJ7ebpk-unsplash.jpg,Stimuli/Experimental_stims/faces/david-siglin-UuW4psOb388-unsplash.jpg,1,NaN,,NaN,chosen,NaN,NaN,NaN,NaN,1100,0,5,1
168,85508,0,169,3,3,1,gain1,no_gain6,A,K,47,33,objects,body_parts,99,65,Stimuli/Experimental_stims/objects/ronaldo-arthur-vidal-Cdz_lvnl37k-unsplash.jpg,Stimuli/Experimental_stims/body_parts/tucker-good-36skLT5jZcc-unsplash.jpg,0,0,1474,0,unchosen,33,47,body_parts,objects,1700,0,5,1
169,85508,0,170,3,3,1,gain2,no_gain2,E,F,42,26,objects,body_parts,88,88,Stimuli/Experimental_stims/objects/jess-bailey-nOeVi8DsN8U-unsplash.jpg,Stimuli/Experimental_stims/body_parts/engin-akyurt-x_3gyC42btc-unsplash.jpg,0,1,1120,1,chosen,42,26,objects,body_parts,1100,0,5,1
170,85508,0,171,3,3,0,no_gain2,gain4,F,J,22,44,faces,objects,62,74,Stimuli/Experimental_stims/faces/ravi-patel-VMGAbeeJTKo-unsplash.jpg,Stimuli/Experimental_stims/objects/kuiye-chen-NuOGFo4PudE-unsplash.jpg,0,0,425,1,unchosen,44,22,objects,faces,3300,1,5,1
171,85508,0,172,3,3,0,no_gain3,gain2,D,E,38,42,objects,objects,88,88,Stimuli/Experimental_stims/objects/art-lasovsky-8XddFc6NkBY-unsplash.jpg,Stimuli/Experimental_stims/objects/jess-bailey-nOeVi8DsN8U-unsplash.jpg,0,1,1041,0,chosen,38,42,objects,objects,2800,0,5,1
172,85508,0,173,3,3,0,no_gain4,gain2,H,E,16,42,faces,objects,100,88,Stimuli/Experimental_stims/faces/freddy-kearney-o-ioeoATbIM-unsplash.jpg,Stimuli/Experimental_stims/objects/jess-bailey-nOeVi8DsN8U-unsplash.jpg,0,1,960,0,chosen,16,42,faces,objects,1000,0,5,1
173,85508,0,174,3,3,0,no_gain1,gain6,G,B,46,1,objects,outdoor_scenes,90,94,Stimuli/Experimental_stims/objects/mockup-graphics-PNsj6RiHAF4-unsplash.jpg,Stimuli/Experimental_stims/outdoor_scenes/ashim-d-silva-S2Q5mdOrrVc-unsplash.jpg,0,0,821,1,unchosen,1,46,outdoor_scenes,objects,3100,0,5,1
174,85508,0,175,3,3,1,gain4,no_gain1,J,G,19,2,faces,outdoor_scenes,95,92,Stimuli/Experimental_stims/faces/joel-mott-LaK153ghdig-unsplash.jpg,Stimuli/Experimental_stims/outdoor_scenes/bruno-van-der-kraan-qez8mNJ3ilU-unsplash.jpg,0,0,898,0,chosen,2,19,outdoor_scenes,faces,2000,0,5,1
175,85508,0,176,3,3,0,no_gain6,gain6,K,B,33,1,body_parts,outdoor_scenes,65,94,Stimuli/Experimental_stims/body_parts/tucker-good-36skLT5jZcc-unsplash.jpg,Stimuli/Experimental_stims/outdoor_scenes/ashim-d-silva-S2Q5mdOrrVc-unsplash.jpg,0,1,18,0,unchosen,33,1,body_parts,outdoor_scenes,2300,0,5,1
176,85508,0,177,3,3,0,no_gain2,gain5,F,I,26,28,body_parts,body_parts,88,79,Stimuli/Experimental_stims/body_parts/engin-akyurt-x_3gyC42btc-unsplash.jpg,Stimuli/Experimental_stims/body_parts/ira-vishnevskaya-8DQAvdCby1I-unsplash.jpg,0,0,690,1,chosen,28,26,body_parts,body_parts,1500,0,5,1
177,85508,0,178,3,3,0,no_gain5,gain2,L,E,12,34,faces,body_parts,71,64,Stimuli/Experimental_stims/faces/aiony-haust-jmATI5Q_YgY-unsplash.jpg,Stimuli/Experimental_stims/body_parts/wagner-santos-mBWMvIuVnso-unsplash.jpg,0,1,627,0,unchosen,12,34,faces,body_parts,1600,0,5,1
178,85508,0,179,3,3,1,gain6,no_gain1,B,G,14,2,faces,outdoor_scenes,80,92,Stimuli/Experimental_stims/faces/david-siglin-UuW4psOb388-unsplash.jpg,Stimuli/Experimental_stims/outdoor_scenes/bruno-van-der-kraan-qez8mNJ3ilU-unsplash.jpg,0,0,680,0,chosen,2,14,outdoor_scenes,faces,4200,1,5,1
179,85508,0,180,3,3,0,no_gain5,gain4,L,J,29,19,body_parts,faces,90,95,Stimuli/Experimental_stims/body_parts/manuel-schinner-ZwjFuJ7ebpk-unsplash.jpg,Stimuli/Experimental_stims/faces/joel-mott-LaK153ghdig-unsplash.jpg,0,1,291,0,chosen,29,19,body_parts,faces,1000,0,5,1
180,85508,0,181,3,3,0,no_gain6,gain3,K,C,45,30,objects,body_parts,92,80,Stimuli/Experimental_stims/objects/leohoho-rngTKHXumy0-unsplash.jpg,Stimuli/Experimental_stims/body_parts/mika-korhonen-Xodzxosar18-unsplash.jpg,0,1,280,0,chosen,45,30,objects,body_parts,2000,0,5,1
181,85508,0,182,3,3,1,gain4,no_gain3,J,D,44,18,objects,faces,74,92,Stimuli/Experimental_stims/objects/kuiye-chen-NuOGFo4PudE-unsplash.jpg,Stimuli/Experimental_stims/faces/jessica-radanavong-mrYkTuAesKE-unsplash.jpg,0,0,879,0,unchosen,18,44,faces,objects,1700,0,5,1
182,85508,0,183,3,3,1,gain2,no_gain6,E,K,34,33,body_parts,body_parts,64,65,Stimuli/Experimental_stims/body_parts/wagner-santos-mBWMvIuVnso-unsplash.jpg,Stimuli/Experimental_stims/body_parts/tucker-good-36skLT5jZcc-unsplash.jpg,0,0,988,0,unchosen,33,34,body_parts,body_parts,2300,0,5,1
183,85508,0,184,3,3,1,gain4,no_gain4,J,H,44,7,objects,outdoor_scenes,74,93,Stimuli/Experimental_stims/objects/kuiye-chen-NuOGFo4PudE-unsplash.jpg,Stimuli/Experimental_stims/outdoor_scenes/petr-vysohlid-9fqwGqGLUxc-unsplash.jpg,0,1,846,1,unchosen,44,7,objects,outdoor_scenes,3300,1,5,1
184,85508,0,185,3,3,0,no_gain1,gain2,G,E,2,42,outdoor_scenes,objects,92,88,Stimuli/Experimental_stims/outdoor_scenes/bruno-van-der-kraan-qez8mNJ3ilU-unsplash.jpg,Stimuli/Experimental_stims/objects/jess-bailey-nOeVi8DsN8U-unsplash.jpg,0,0,625,1,chosen,42,2,objects,outdoor_scenes,1100,0,5,1
185,85508,0,186,3,3,0,no_gain4,gain6,H,B,16,14,faces,faces,100,80,Stimuli/Experimental_stims/faces/freddy-kearney-o-ioeoATbIM-unsplash.jpg,Stimuli/Experimental_stims/faces/david-siglin-UuW4psOb388-unsplash.jpg,0,1,741,0,chosen,16,14,faces,faces,1900,0,5,1
186,85508,0,187,3,3,1,gain3,no_gain5,C,L,30,29,body_parts,body_parts,80,90,Stimuli/Experimental_stims/body_parts/mika-korhonen-Xodzxosar18-unsplash.jpg,Stimuli/Experimental_stims/body_parts/manuel-schinner-ZwjFuJ7ebpk-unsplash.jpg,0,0,803,0,chosen,29,30,body_parts,body_parts,2400,0,5,1
187,85508,0,188,3,3,0,no_gain2,gain6,F,B,22,1,faces,outdoor_scenes,62,94,Stimuli/Experimental_stims/faces/ravi-patel-VMGAbeeJTKo-unsplash.jpg,Stimuli/Experimental_stims/outdoor_scenes/ashim-d-silva-S2Q5mdOrrVc-unsplash.jpg,0,0,622,1,unchosen,1,22,outdoor_scenes,faces,1900,0,5,1
188,85508,0,189,3,3,0,no_gain1,gain1,G,A,46,47,objects,objects,90,99,Stimuli/Experimental_stims/objects/mockup-graphics-PNsj6RiHAF4-unsplash.jpg,Stimuli/Experimental_stims/objects/ronaldo-arthur-vidal-Cdz_lvnl37k-unsplash.jpg,0,1,762,0,unchosen,46,47,objects,objects,3300,1,5,1
189,85508,0,190,3,3,0,no_gain3,gain5,D,I,18,11,faces,outdoor_scenes,92,97,Stimuli/Experimental_stims/faces/jessica-radanavong-mrYkTuAesKE-unsplash.jpg,Stimuli/Experimental_stims/outdoor_scenes/stephen-leonardi-gyIRjKPXupE-unsplash.jpg,0,0,658,1,unchosen,11,18,outdoor_scenes,faces,1200,0,5,1
190,85508,0,191,3,3,1,gain1,no_gain1,A,G,3,2,outdoor_scenes,outdoor_scenes,93,92,Stimuli/Experimental_stims/outdoor_scenes/henry-be-NLF6hTe4PAg-unsplash.jpg,Stimuli/Experimental_stims/outdoor_scenes/bruno-van-der-kraan-qez8mNJ3ilU-unsplash.jpg,0,1,1005,1,chosen,3,2,outdoor_scenes,outdoor_scenes,1100,0,5,1
191,85508,0,192,3,3,0,no_gain4,gain5,H,I,7,11,outdoor_scenes,outdoor_scenes,93,97,Stimuli/Experimental_stims/outdoor_scenes/petr-vysohlid-9fqwGqGLUxc-unsplash.jpg,Stimuli/Experimental_stims/outdoor_scenes/stephen-leonardi-gyIRjKPXupE-unsplash.jpg,0,1,715,0,unchosen,7,11,outdoor_scenes,outdoor_scenes,1400,0,5,1
192,85508,0,193,3,3,1,gain3,no_gain1,C,G,4,46,outdoor_scenes,objects,86,90,Stimuli/Experimental_stims/outdoor_scenes/jarrett-kow-1ZOyYPOBn7I-unsplash.jpg,Stimuli/Experimental_stims/objects/mockup-graphics-PNsj6RiHAF4-unsplash.jpg,1,NaN,,NaN,unchosen,NaN,NaN,NaN,NaN,2600,0,5,1
193,85508,0,194,3,3,1,gain6,no_gain4,B,H,1,7,outdoor_scenes,outdoor_scenes,94,93,Stimuli/Experimental_stims/outdoor_scenes/ashim-d-silva-S2Q5mdOrrVc-unsplash.jpg,Stimuli/Experimental_stims/outdoor_scenes/petr-vysohlid-9fqwGqGLUxc-unsplash.jpg,0,1,935,1,unchosen,1,7,outdoor_scenes,outdoor_scenes,1100,0,5,1
194,85508,0,195,3,3,1,gain1,no_gain3,A,D,3,38,outdoor_scenes,objects,93,88,Stimuli/Experimental_stims/outdoor_scenes/henry-be-NLF6hTe4PAg-unsplash.jpg,Stimuli/Experimental_stims/objects/art-lasovsky-8XddFc6NkBY-unsplash.jpg,0,0,750,0,chosen,38,3,objects,outdoor_scenes,4100,1,5,1
195,85508,0,196,3,3,1,gain6,no_gain3,B,D,1,18,outdoor_scenes,faces,94,92,Stimuli/Experimental_stims/outdoor_scenes/ashim-d-silva-S2Q5mdOrrVc-unsplash.jpg,Stimuli/Experimental_stims/faces/jessica-radanavong-mrYkTuAesKE-unsplash.jpg,0,1,579,1,unchosen,1,18,outdoor_scenes,faces,1000,0,5,1
196,85508,0,197,3,3,0,no_gain3,gain4,D,J,38,19,objects,faces,88,95,Stimuli/Experimental_stims/objects/art-lasovsky-8XddFc6NkBY-unsplash.jpg,Stimuli/Experimental_stims/faces/joel-mott-LaK153ghdig-unsplash.jpg,0,0,676,1,chosen,19,38,faces,objects,1800,0,5,1
197,85508,0,198,3,3,1,gain1,no_gain3,A,D,47,18,objects,faces,99,92,Stimuli/Experimental_stims/objects/ronaldo-arthur-vidal-Cdz_lvnl37k-unsplash.jpg,Stimuli/Experimental_stims/faces/jessica-radanavong-mrYkTuAesKE-unsplash.jpg,0,1,624,1,unchosen,47,18,objects,faces,1600,0,5,1
198,85508,0,199,3,3,1,gain4,no_gain6,J,K,44,33,objects,body_parts,74,65,Stimuli/Experimental_stims/objects/kuiye-chen-NuOGFo4PudE-unsplash.jpg,Stimuli/Experimental_stims/body_parts/tucker-good-36skLT5jZcc-unsplash.jpg,0,0,814,0,unchosen,33,44,body_parts,objects,2100,0,5,1
199,85508,0,200,3,3,1,gain2,no_gain4,E,H,34,7,body_parts,outdoor_scenes,64,93,Stimuli/Experimental_stims/body_parts/wagner-santos-mBWMvIuVnso-unsplash.jpg,Stimuli/Experimental_stims/outdoor_scenes/petr-vysohlid-9fqwGqGLUxc-unsplash.jpg,0,1,835,1,unchosen,34,7,body_parts,outdoor_scenes,1700,0,5,1
200,85508,0,201,3,3,1,gain5,no_gain3,I,D,28,38,body_parts,objects,79,88,Stimuli/Experimental_stims/body_parts/ira-vishnevskaya-8DQAvdCby1I-unsplash.jpg,Stimuli/Experimental_stims/objects/art-lasovsky-8XddFc6NkBY-unsplash.jpg,0,1,972,1,chosen,28,38,body_parts,objects,3200,1,5,1
201,85508,0,202,3,3,0,no_gain6,gain4,K,J,45,19,objects,faces,92,95,Stimuli/Experimental_stims/objects/leohoho-rngTKHXumy0-unsplash.jpg,Stimuli/Experimental_stims/faces/joel-mott-LaK153ghdig-unsplash.jpg,0,0,682,1,chosen,19,45,faces,objects,1100,0,5,1
202,85508,0,203,3,3,1,gain2,no_gain2,E,F,34,22,body_parts,faces,64,62,Stimuli/Experimental_stims/body_parts/wagner-santos-mBWMvIuVnso-unsplash.jpg,Stimuli/Experimental_stims/faces/ravi-patel-VMGAbeeJTKo-unsplash.jpg,0,1,723,1,unchosen,34,22,body_parts,faces,2800,0,5,1
203,85508,0,204,3,3,1,gain2,no_gain5,E,L,42,29,objects,body_parts,88,90,Stimuli/Experimental_stims/objects/jess-bailey-nOeVi8DsN8U-unsplash.jpg,Stimuli/Experimental_stims/body_parts/manuel-schinner-ZwjFuJ7ebpk-unsplash.jpg,0,0,689,0,chosen,29,42,body_parts,objects,1400,0,5,1
204,85508,0,205,3,3,1,gain1,no_gain2,A,F,3,26,outdoor_scenes,body_parts,93,88,Stimuli/Experimental_stims/outdoor_scenes/henry-be-NLF6hTe4PAg-unsplash.jpg,Stimuli/Experimental_stims/body_parts/engin-akyurt-x_3gyC42btc-unsplash.jpg,0,0,1066,0,chosen,26,3,body_parts,outdoor_scenes,2200,0,5,1
205,85508,0,206,3,3,1,gain3,no_gain3,C,D,4,18,outdoor_scenes,faces,86,92,Stimuli/Experimental_stims/outdoor_scenes/jarrett-kow-1ZOyYPOBn7I-unsplash.jpg,Stimuli/Experimental_stims/faces/jessica-radanavong-mrYkTuAesKE-unsplash.jpg,0,1,1161,1,unchosen,4,18,outdoor_scenes,faces,1200,0,5,1
206,85508,0,207,3,3,0,no_gain6,gain5,K,I,45,28,objects,body_parts,92,79,Stimuli/Experimental_stims/objects/leohoho-rngTKHXumy0-unsplash.jpg,Stimuli/Experimental_stims/body_parts/ira-vishnevskaya-8DQAvdCby1I-unsplash.jpg,0,0,852,1,chosen,28,45,body_parts,objects,2100,0,5,1
207,85508,0,208,3,3,1,gain1,no_gain5,A,L,3,29,outdoor_scenes,body_parts,93,90,Stimuli/Experimental_stims/outdoor_scenes/henry-be-NLF6hTe4PAg-unsplash.jpg,Stimuli/Experimental_stims/body_parts/manuel-schinner-ZwjFuJ7ebpk-unsplash.jpg,0,1,696,1,chosen,3,29,outdoor_scenes,body_parts,2600,0,5,1
208,85508,0,209,3,3,0,no_gain2,gain3,F,C,22,4,faces,outdoor_scenes,62,86,Stimuli/Experimental_stims/faces/ravi-patel-VMGAbeeJTKo-unsplash.jpg,Stimuli/Experimental_stims/outdoor_scenes/jarrett-kow-1ZOyYPOBn7I-unsplash.jpg,0,0,716,1,unchosen,4,22,outdoor_scenes,faces,3800,1,5,1
209,85508,0,210,3,3,0,no_gain6,gain1,K,A,45,3,objects,outdoor_scenes,92,93,Stimuli/Experimental_stims/objects/leohoho-rngTKHXumy0-unsplash.jpg,Stimuli/Experimental_stims/outdoor_scenes/henry-be-NLF6hTe4PAg-unsplash.jpg,1,NaN,,NaN,chosen,NaN,NaN,NaN,NaN,2300,0,5,1
210,85508,0,211,3,3,1,gain3,no_gain2,C,F,30,26,body_parts,body_parts,80,88,Stimuli/Experimental_stims/body_parts/mika-korhonen-Xodzxosar18-unsplash.jpg,Stimuli/Experimental_stims/body_parts/engin-akyurt-x_3gyC42btc-unsplash.jpg,0,1,1049,1,chosen,30,26,body_parts,body_parts,1500,0,5,1
211,85508,0,212,3,3,0,no_gain3,gain2,D,E,18,34,faces,body_parts,92,64,Stimuli/Experimental_stims/faces/jessica-radanavong-mrYkTuAesKE-unsplash.jpg,Stimuli/Experimental_stims/body_parts/wagner-santos-mBWMvIuVnso-unsplash.jpg,0,0,1093,1,unchosen,34,18,body_parts,faces,1700,0,5,1
212,85508,0,213,3,3,1,gain5,no_gain5,I,L,11,12,outdoor_scenes,faces,97,71,Stimuli/Experimental_stims/outdoor_scenes/stephen-leonardi-gyIRjKPXupE-unsplash.jpg,Stimuli/Experimental_stims/faces/aiony-haust-jmATI5Q_YgY-unsplash.jpg,0,1,679,1,unchosen,11,12,outdoor_scenes,faces,1000,0,5,1
213,85508,0,214,3,3,1,gain6,no_gain5,B,L,1,12,outdoor_scenes,faces,94,71,Stimuli/Experimental_stims/outdoor_scenes/ashim-d-silva-S2Q5mdOrrVc-unsplash.jpg,Stimuli/Experimental_stims/faces/aiony-haust-jmATI5Q_YgY-unsplash.jpg,0,0,679,0,unchosen,12,1,faces,outdoor_scenes,2800,0,5,1
214,85508,0,215,3,3,0,no_gain1,gain5,G,I,2,28,outdoor_scenes,body_parts,92,79,Stimuli/Experimental_stims/outdoor_scenes/bruno-van-der-kraan-qez8mNJ3ilU-unsplash.jpg,Stimuli/Experimental_stims/body_parts/ira-vishnevskaya-8DQAvdCby1I-unsplash.jpg,0,1,874,0,chosen,2,28,outdoor_scenes,body_parts,2400,0,5,1
215,85508,0,216,3,3,0,no_gain1,gain5,G,I,46,11,objects,outdoor_scenes,90,97,Stimuli/Experimental_stims/objects/mockup-graphics-PNsj6RiHAF4-unsplash.jpg,Stimuli/Experimental_stims/outdoor_scenes/stephen-leonardi-gyIRjKPXupE-unsplash.jpg,0,0,571,1,unchosen,11,46,outdoor_scenes,objects,3800,1,5,1
216,85508,0,217,3,3,0,no_gain5,gain3,L,C,12,4,faces,outdoor_scenes,71,86,Stimuli/Experimental_stims/faces/aiony-haust-jmATI5Q_YgY-unsplash.jpg,Stimuli/Experimental_stims/outdoor_scenes/jarrett-kow-1ZOyYPOBn7I-unsplash.jpg,0,1,701,0,unchosen,12,4,faces,outdoor_scenes,1500,0,5,1
217,85508,0,218,3,3,0,no_gain5,gain1,L,A,12,47,faces,objects,71,99,Stimuli/Experimental_stims/faces/aiony-haust-jmATI5Q_YgY-unsplash.jpg,Stimuli/Experimental_stims/objects/ronaldo-arthur-vidal-Cdz_lvnl37k-unsplash.jpg,0,0,726,1,unchosen,47,12,objects,faces,1100,0,5,1
218,85508,0,219,3,3,1,gain4,no_gain2,J,F,19,26,faces,body_parts,95,88,Stimuli/Experimental_stims/faces/joel-mott-LaK153ghdig-unsplash.jpg,Stimuli/Experimental_stims/body_parts/engin-akyurt-x_3gyC42btc-unsplash.jpg,0,1,705,1,chosen,19,26,faces,body_parts,1500,0,5,1
219,85508,0,220,3,3,0,no_gain2,gain6,F,B,26,14,body_parts,faces,88,80,Stimuli/Experimental_stims/body_parts/engin-akyurt-x_3gyC42btc-unsplash.jpg,Stimuli/Experimental_stims/faces/david-siglin-UuW4psOb388-unsplash.jpg,0,0,744,1,chosen,14,26,faces,body_parts,2500,0,5,1
220,85508,0,221,4,4,0,no_gain5,gain1,L,A,12,47,faces,objects,71,99,Stimuli/Experimental_stims/faces/aiony-haust-jmATI5Q_YgY-unsplash.jpg,Stimuli/Experimental_stims/objects/ronaldo-arthur-vidal-Cdz_lvnl37k-unsplash.jpg,0,1,790,0,unchosen,12,47,faces,objects,3400,1,3,1
221,85508,0,222,4,4,0,no_gain5,gain4,L,J,29,19,body_parts,faces,90,95,Stimuli/Experimental_stims/body_parts/manuel-schinner-ZwjFuJ7ebpk-unsplash.jpg,Stimuli/Experimental_stims/faces/joel-mott-LaK153ghdig-unsplash.jpg,0,0,520,1,chosen,19,29,faces,body_parts,1500,0,3,1
222,85508,0,223,4,4,0,no_gain2,gain3,F,C,22,4,faces,outdoor_scenes,62,86,Stimuli/Experimental_stims/faces/ravi-patel-VMGAbeeJTKo-unsplash.jpg,Stimuli/Experimental_stims/outdoor_scenes/jarrett-kow-1ZOyYPOBn7I-unsplash.jpg,0,0,748,1,unchosen,4,22,outdoor_scenes,faces,2000,0,3,1
223,85508,0,224,4,4,0,no_gain4,gain3,H,C,7,4,outdoor_scenes,outdoor_scenes,93,86,Stimuli/Experimental_stims/outdoor_scenes/petr-vysohlid-9fqwGqGLUxc-unsplash.jpg,Stimuli/Experimental_stims/outdoor_scenes/jarrett-kow-1ZOyYPOBn7I-unsplash.jpg,0,1,607,0,unchosen,7,4,outdoor_scenes,outdoor_scenes,1100,0,3,1
224,85508,0,225,4,4,0,no_gain1,gain6,G,B,46,1,objects,outdoor_scenes,90,94,Stimuli/Experimental_stims/objects/mockup-graphics-PNsj6RiHAF4-unsplash.jpg,Stimuli/Experimental_stims/outdoor_scenes/ashim-d-silva-S2Q5mdOrrVc-unsplash.jpg,0,0,677,1,unchosen,1,46,outdoor_scenes,objects,2700,0,3,1
225,85508,0,226,4,4,0,no_gain4,gain2,H,E,16,42,faces,objects,100,88,Stimuli/Experimental_stims/faces/freddy-kearney-o-ioeoATbIM-unsplash.jpg,Stimuli/Experimental_stims/objects/jess-bailey-nOeVi8DsN8U-unsplash.jpg,0,1,654,0,chosen,16,42,faces,objects,1700,0,3,1
226,85508,0,227,4,4,0,no_gain1,gain1,G,A,2,3,outdoor_scenes,outdoor_scenes,92,93,Stimuli/Experimental_stims/outdoor_scenes/bruno-van-der-kraan-qez8mNJ3ilU-unsplash.jpg,Stimuli/Experimental_stims/outdoor_scenes/henry-be-NLF6hTe4PAg-unsplash.jpg,0,0,854,1,chosen,3,2,outdoor_scenes,outdoor_scenes,3500,1,3,1
227,85508,0,228,4,4,0,no_gain3,gain3,D,C,18,4,faces,outdoor_scenes,92,86,Stimuli/Experimental_stims/faces/jessica-radanavong-mrYkTuAesKE-unsplash.jpg,Stimuli/Experimental_stims/outdoor_scenes/jarrett-kow-1ZOyYPOBn7I-unsplash.jpg,0,0,721,1,unchosen,4,18,outdoor_scenes,faces,2700,0,3,1
228,85508,0,229,4,4,1,gain4,no_gain5,J,L,44,12,objects,faces,74,71,Stimuli/Experimental_stims/objects/kuiye-chen-NuOGFo4PudE-unsplash.jpg,Stimuli/Experimental_stims/faces/aiony-haust-jmATI5Q_YgY-unsplash.jpg,0,1,772,1,unchosen,44,12,objects,faces,1500,0,3,1
229,85508,0,230,4,4,0,no_gain6,gain1,K,A,45,3,objects,outdoor_scenes,92,93,Stimuli/Experimental_stims/objects/leohoho-rngTKHXumy0-unsplash.jpg,Stimuli/Experimental_stims/outdoor_scenes/henry-be-NLF6hTe4PAg-unsplash.jpg,0,0,1209,1,chosen,3,45,outdoor_scenes,objects,1700,0,3,1
230,85508,0,231,4,4,0,no_gain1,gain2,G,E,46,34,objects,body_parts,90,64,Stimuli/Experimental_stims/objects/mockup-graphics-PNsj6RiHAF4-unsplash.jpg,Stimuli/Experimental_stims/body_parts/wagner-santos-mBWMvIuVnso-unsplash.jpg,0,1,675,0,unchosen,46,34,objects,body_parts,2300,0,3,1
231,85508,0,232,4,4,0,no_gain4,gain6,H,B,16,14,faces,faces,100,80,Stimuli/Experimental_stims/faces/freddy-kearney-o-ioeoATbIM-unsplash.jpg,Stimuli/Experimental_stims/faces/david-siglin-UuW4psOb388-unsplash.jpg,0,0,476,1,chosen,14,16,faces,faces,3100,1,3,1
232,85508,0,233,4,4,1,gain5,no_gain3,I,D,28,38,body_parts,objects,79,88,Stimuli/Experimental_stims/body_parts/ira-vishnevskaya-8DQAvdCby1I-unsplash.jpg,Stimuli/Experimental_stims/objects/art-lasovsky-8XddFc6NkBY-unsplash.jpg,0,1,676,1,chosen,28,38,body_parts,objects,1300,0,3,1
233,85508,0,234,4,4,1,gain1,no_gain3,A,D,3,38,outdoor_scenes,objects,93,88,Stimuli/Experimental_stims/outdoor_scenes/henry-be-NLF6hTe4PAg-unsplash.jpg,Stimuli/Experimental_stims/objects/art-lasovsky-8XddFc6NkBY-unsplash.jpg,0,0,690,0,chosen,38,3,objects,outdoor_scenes,1400,0,3,1
234,85508,0,235,4,4,1,gain2,no_gain4,E,H,34,7,body_parts,outdoor_scenes,64,93,Stimuli/Experimental_stims/body_parts/wagner-santos-mBWMvIuVnso-unsplash.jpg,Stimuli/Experimental_stims/outdoor_scenes/petr-vysohlid-9fqwGqGLUxc-unsplash.jpg,0,0,744,0,unchosen,7,34,outdoor_scenes,body_parts,2500,0,3,1
235,85508,0,236,4,4,1,gain2,no_gain5,E,L,34,12,body_parts,faces,64,71,Stimuli/Experimental_stims/body_parts/wagner-santos-mBWMvIuVnso-unsplash.jpg,Stimuli/Experimental_stims/faces/aiony-haust-jmATI5Q_YgY-unsplash.jpg,0,1,636,1,unchosen,34,12,body_parts,faces,1500,0,3,1
236,85508,0,237,4,4,1,gain4,no_gain1,J,G,44,46,objects,objects,74,90,Stimuli/Experimental_stims/objects/kuiye-chen-NuOGFo4PudE-unsplash.jpg,Stimuli/Experimental_stims/objects/mockup-graphics-PNsj6RiHAF4-unsplash.jpg,0,0,578,0,unchosen,46,44,objects,objects,1900,0,3,1
237,85508,0,238,4,4,1,gain6,no_gain3,B,D,14,38,faces,objects,80,88,Stimuli/Experimental_stims/faces/david-siglin-UuW4psOb388-unsplash.jpg,Stimuli/Experimental_stims/objects/art-lasovsky-8XddFc6NkBY-unsplash.jpg,0,1,1013,1,chosen,14,38,faces,objects,1200,0,3,1
238,85508,0,239,4,4,1,gain2,no_gain5,E,L,42,29,objects,body_parts,88,90,Stimuli/Experimental_stims/objects/jess-bailey-nOeVi8DsN8U-unsplash.jpg,Stimuli/Experimental_stims/body_parts/manuel-schinner-ZwjFuJ7ebpk-unsplash.jpg,0,0,782,0,chosen,29,42,body_parts,objects,3500,1,3,1
239,85508,0,240,4,4,0,no_gain2,gain6,F,B,22,1,faces,outdoor_scenes,62,94,Stimuli/Experimental_stims/faces/ravi-patel-VMGAbeeJTKo-unsplash.jpg,Stimuli/Experimental_stims/outdoor_scenes/ashim-d-silva-S2Q5mdOrrVc-unsplash.jpg,0,1,901,0,unchosen,22,1,faces,outdoor_scenes,1500,0,3,1
240,85508,0,241,4,4,1,gain5,no_gain6,I,K,28,45,body_parts,objects,79,92,Stimuli/Experimental_stims/body_parts/ira-vishnevskaya-8DQAvdCby1I-unsplash.jpg,Stimuli/Experimental_stims/objects/leohoho-rngTKHXumy0-unsplash.jpg,0,1,829,1,chosen,28,45,body_parts,objects,2200,0,3,1
241,85508,0,242,4,4,1,gain6,no_gain2,B,F,14,26,faces,body_parts,80,88,Stimuli/Experimental_stims/faces/david-siglin-UuW4psOb388-unsplash.jpg,Stimuli/Experimental_stims/body_parts/engin-akyurt-x_3gyC42btc-unsplash.jpg,0,0,799,0,chosen,26,14,body_parts,faces,1100,0,3,1
242,85508,0,243,4,4,0,no_gain3,gain2,D,E,38,42,objects,objects,88,88,Stimuli/Experimental_stims/objects/art-lasovsky-8XddFc6NkBY-unsplash.jpg,Stimuli/Experimental_stims/objects/jess-bailey-nOeVi8DsN8U-unsplash.jpg,0,1,671,0,chosen,38,42,objects,objects,1300,0,3,1
243,85508,0,244,4,4,0,no_gain3,gain5,D,I,18,11,faces,outdoor_scenes,92,97,Stimuli/Experimental_stims/faces/jessica-radanavong-mrYkTuAesKE-unsplash.jpg,Stimuli/Experimental_stims/outdoor_scenes/stephen-leonardi-gyIRjKPXupE-unsplash.jpg,0,0,651,1,unchosen,11,18,outdoor_scenes,faces,1500,0,3,1
244,85508,0,245,4,4,0,no_gain6,gain6,K,B,45,14,objects,faces,92,80,Stimuli/Experimental_stims/objects/leohoho-rngTKHXumy0-unsplash.jpg,Stimuli/Experimental_stims/faces/david-siglin-UuW4psOb388-unsplash.jpg,0,0,641,1,chosen,14,45,faces,objects,1100,0,3,1
245,85508,0,246,4,4,1,gain3,no_gain6,C,K,30,45,body_parts,objects,80,92,Stimuli/Experimental_stims/body_parts/mika-korhonen-Xodzxosar18-unsplash.jpg,Stimuli/Experimental_stims/objects/leohoho-rngTKHXumy0-unsplash.jpg,0,1,864,1,chosen,30,45,body_parts,objects,2000,0,3,1
246,85508,0,247,4,4,0,no_gain2,gain5,F,I,22,11,faces,outdoor_scenes,62,97,Stimuli/Experimental_stims/faces/ravi-patel-VMGAbeeJTKo-unsplash.jpg,Stimuli/Experimental_stims/outdoor_scenes/stephen-leonardi-gyIRjKPXupE-unsplash.jpg,0,0,652,1,unchosen,11,22,outdoor_scenes,faces,4700,1,3,1
247,85508,0,248,4,4,0,no_gain1,gain3,G,C,2,30,outdoor_scenes,body_parts,92,80,Stimuli/Experimental_stims/outdoor_scenes/bruno-van-der-kraan-qez8mNJ3ilU-unsplash.jpg,Stimuli/Experimental_stims/body_parts/mika-korhonen-Xodzxosar18-unsplash.jpg,0,1,703,0,chosen,2,30,outdoor_scenes,body_parts,2400,0,3,1
248,85508,0,249,4,4,1,gain4,no_gain2,J,F,44,22,objects,faces,74,62,Stimuli/Experimental_stims/objects/kuiye-chen-NuOGFo4PudE-unsplash.jpg,Stimuli/Experimental_stims/faces/ravi-patel-VMGAbeeJTKo-unsplash.jpg,0,0,841,0,unchosen,22,44,faces,objects,1100,0,3,1
249,85508,0,250,4,4,1,gain6,no_gain5,B,L,14,29,faces,body_parts,80,90,Stimuli/Experimental_stims/faces/david-siglin-UuW4psOb388-unsplash.jpg,Stimuli/Experimental_stims/body_parts/manuel-schinner-ZwjFuJ7ebpk-unsplash.jpg,0,0,1344,0,chosen,29,14,body_parts,faces,2400,0,3,1
250,85508,0,251,4,4,1,gain4,no_gain6,J,K,44,33,objects,body_parts,74,65,Stimuli/Experimental_stims/objects/kuiye-chen-NuOGFo4PudE-unsplash.jpg,Stimuli/Experimental_stims/body_parts/tucker-good-36skLT5jZcc-unsplash.jpg,0,1,641,1,unchosen,44,33,objects,body_parts,1600,0,3,1
251,85508,0,252,4,4,0,no_gain1,gain1,G,A,46,47,objects,objects,90,99,Stimuli/Experimental_stims/objects/mockup-graphics-PNsj6RiHAF4-unsplash.jpg,Stimuli/Experimental_stims/objects/ronaldo-arthur-vidal-Cdz_lvnl37k-unsplash.jpg,0,0,968,1,unchosen,47,46,objects,objects,2300,0,3,1
252,85508,0,253,4,4,0,no_gain3,gain4,D,J,38,19,objects,faces,88,95,Stimuli/Experimental_stims/objects/art-lasovsky-8XddFc6NkBY-unsplash.jpg,Stimuli/Experimental_stims/faces/joel-mott-LaK153ghdig-unsplash.jpg,0,1,848,0,chosen,38,19,objects,faces,2500,0,3,1
253,85508,0,254,4,4,1,gain3,no_gain5,C,L,30,29,body_parts,body_parts,80,90,Stimuli/Experimental_stims/body_parts/mika-korhonen-Xodzxosar18-unsplash.jpg,Stimuli/Experimental_stims/body_parts/manuel-schinner-ZwjFuJ7ebpk-unsplash.jpg,0,0,733,0,chosen,29,30,body_parts,body_parts,3700,1,3,1
254,85508,0,255,4,4,1,gain2,no_gain1,E,G,42,2,objects,outdoor_scenes,88,92,Stimuli/Experimental_stims/objects/jess-bailey-nOeVi8DsN8U-unsplash.jpg,Stimuli/Experimental_stims/outdoor_scenes/bruno-van-der-kraan-qez8mNJ3ilU-unsplash.jpg,0,1,671,1,chosen,42,2,objects,outdoor_scenes,2100,0,3,1
255,85508,0,256,4,4,1,gain6,no_gain3,B,D,1,18,outdoor_scenes,faces,94,92,Stimuli/Experimental_stims/outdoor_scenes/ashim-d-silva-S2Q5mdOrrVc-unsplash.jpg,Stimuli/Experimental_stims/faces/jessica-radanavong-mrYkTuAesKE-unsplash.jpg,0,0,677,0,unchosen,18,1,faces,outdoor_scenes,2300,0,3,1
256,85508,0,257,4,4,0,no_gain6,gain1,K,A,33,47,body_parts,objects,65,99,Stimuli/Experimental_stims/body_parts/tucker-good-36skLT5jZcc-unsplash.jpg,Stimuli/Experimental_stims/objects/ronaldo-arthur-vidal-Cdz_lvnl37k-unsplash.jpg,0,0,602,1,unchosen,47,33,objects,body_parts,1700,0,3,1
257,85508,0,258,4,4,0,no_gain4,gain6,H,B,7,1,outdoor_scenes,outdoor_scenes,93,94,Stimuli/Experimental_stims/outdoor_scenes/petr-vysohlid-9fqwGqGLUxc-unsplash.jpg,Stimuli/Experimental_stims/outdoor_scenes/ashim-d-silva-S2Q5mdOrrVc-unsplash.jpg,0,1,803,0,unchosen,7,1,outdoor_scenes,outdoor_scenes,2900,0,3,1
258,85508,0,259,4,4,0,no_gain4,gain1,H,A,16,3,faces,outdoor_scenes,100,93,Stimuli/Experimental_stims/faces/freddy-kearney-o-ioeoATbIM-unsplash.jpg,Stimuli/Experimental_stims/outdoor_scenes/henry-be-NLF6hTe4PAg-unsplash.jpg,0,0,624,1,chosen,3,16,outdoor_scenes,faces,3000,1,3,1
259,85508,0,260,4,4,1,gain2,no_gain3,E,D,34,18,body_parts,faces,64,92,Stimuli/Experimental_stims/body_parts/wagner-santos-mBWMvIuVnso-unsplash.jpg,Stimuli/Experimental_stims/faces/jessica-radanavong-mrYkTuAesKE-unsplash.jpg,0,1,677,1,unchosen,34,18,body_parts,faces,2600,0,3,1
260,85508,0,261,4,4,0,no_gain6,gain5,K,I,33,11,body_parts,outdoor_scenes,65,97,Stimuli/Experimental_stims/body_parts/tucker-good-36skLT5jZcc-unsplash.jpg,Stimuli/Experimental_stims/outdoor_scenes/stephen-leonardi-gyIRjKPXupE-unsplash.jpg,0,0,605,1,unchosen,11,33,outdoor_scenes,body_parts,1700,0,3,1
261,85508,0,262,4,4,0,no_gain3,gain1,D,A,18,47,faces,objects,92,99,Stimuli/Experimental_stims/faces/jessica-radanavong-mrYkTuAesKE-unsplash.jpg,Stimuli/Experimental_stims/objects/ronaldo-arthur-vidal-Cdz_lvnl37k-unsplash.jpg,0,0,899,1,unchosen,47,18,objects,faces,1800,0,3,1
262,85508,0,263,4,4,1,gain5,no_gain5,I,L,28,29,body_parts,body_parts,79,90,Stimuli/Experimental_stims/body_parts/ira-vishnevskaya-8DQAvdCby1I-unsplash.jpg,Stimuli/Experimental_stims/body_parts/manuel-schinner-ZwjFuJ7ebpk-unsplash.jpg,0,1,811,1,chosen,28,29,body_parts,body_parts,1400,0,3,1
263,85508,0,264,4,4,0,no_gain2,gain1,F,A,26,3,body_parts,outdoor_scenes,88,93,Stimuli/Experimental_stims/body_parts/engin-akyurt-x_3gyC42btc-unsplash.jpg,Stimuli/Experimental_stims/outdoor_scenes/henry-be-NLF6hTe4PAg-unsplash.jpg,0,0,579,1,chosen,3,26,outdoor_scenes,body_parts,2200,0,3,1
264,85508,0,265,4,4,0,no_gain2,gain1,F,A,22,47,faces,objects,62,99,Stimuli/Experimental_stims/faces/ravi-patel-VMGAbeeJTKo-unsplash.jpg,Stimuli/Experimental_stims/objects/ronaldo-arthur-vidal-Cdz_lvnl37k-unsplash.jpg,0,1,775,0,unchosen,22,47,faces,objects,3500,1,3,1
265,85508,0,266,4,4,1,gain3,no_gain3,C,D,30,38,body_parts,objects,80,88,Stimuli/Experimental_stims/body_parts/mika-korhonen-Xodzxosar18-unsplash.jpg,Stimuli/Experimental_stims/objects/art-lasovsky-8XddFc6NkBY-unsplash.jpg,0,0,626,0,chosen,38,30,objects,body_parts,1400,0,3,1
266,85508,0,267,4,4,0,no_gain2,gain4,F,J,26,19,body_parts,faces,88,95,Stimuli/Experimental_stims/body_parts/engin-akyurt-x_3gyC42btc-unsplash.jpg,Stimuli/Experimental_stims/faces/joel-mott-LaK153ghdig-unsplash.jpg,0,1,840,0,chosen,26,19,body_parts,faces,1100,0,3,1
267,85508,0,268,4,4,1,gain6,no_gain1,B,G,14,2,faces,outdoor_scenes,80,92,Stimuli/Experimental_stims/faces/david-siglin-UuW4psOb388-unsplash.jpg,Stimuli/Experimental_stims/outdoor_scenes/bruno-van-der-kraan-qez8mNJ3ilU-unsplash.jpg,0,0,811,0,chosen,2,14,outdoor_scenes,faces,1300,0,3,1
268,85508,0,269,4,4,0,no_gain1,gain3,G,C,46,4,objects,outdoor_scenes,90,86,Stimuli/Experimental_stims/objects/mockup-graphics-PNsj6RiHAF4-unsplash.jpg,Stimuli/Experimental_stims/outdoor_scenes/jarrett-kow-1ZOyYPOBn7I-unsplash.jpg,1,NaN,,NaN,unchosen,NaN,NaN,NaN,NaN,2600,0,3,1
269,85508,0,270,4,4,0,no_gain4,gain4,H,J,16,19,faces,faces,100,95,Stimuli/Experimental_stims/faces/freddy-kearney-o-ioeoATbIM-unsplash.jpg,Stimuli/Experimental_stims/faces/joel-mott-LaK153ghdig-unsplash.jpg,0,0,108,1,chosen,19,16,faces,faces,1100,0,3,1
270,85508,0,271,4,4,1,gain1,no_gain4,A,H,47,7,objects,outdoor_scenes,99,93,Stimuli/Experimental_stims/objects/ronaldo-arthur-vidal-Cdz_lvnl37k-unsplash.jpg,Stimuli/Experimental_stims/outdoor_scenes/petr-vysohlid-9fqwGqGLUxc-unsplash.jpg,0,1,744,1,unchosen,47,7,objects,outdoor_scenes,1400,0,3,1
271,85508,0,272,4,4,1,gain4,no_gain3,J,D,44,18,objects,faces,74,92,Stimuli/Experimental_stims/objects/kuiye-chen-NuOGFo4PudE-unsplash.jpg,Stimuli/Experimental_stims/faces/jessica-radanavong-mrYkTuAesKE-unsplash.jpg,0,0,639,0,unchosen,18,44,faces,objects,3200,1,3,1
272,85508,0,273,4,4,0,no_gain6,gain2,K,E,45,42,objects,objects,92,88,Stimuli/Experimental_stims/objects/leohoho-rngTKHXumy0-unsplash.jpg,Stimuli/Experimental_stims/objects/jess-bailey-nOeVi8DsN8U-unsplash.jpg,0,1,684,0,chosen,45,42,objects,objects,1600,0,3,1
273,85508,0,274,4,4,0,no_gain2,gain5,F,I,26,28,body_parts,body_parts,88,79,Stimuli/Experimental_stims/body_parts/engin-akyurt-x_3gyC42btc-unsplash.jpg,Stimuli/Experimental_stims/body_parts/ira-vishnevskaya-8DQAvdCby1I-unsplash.jpg,0,0,786,1,chosen,28,26,body_parts,body_parts,1000,0,3,1
274,85508,0,275,4,4,1,gain1,no_gain5,A,L,3,29,outdoor_scenes,body_parts,93,90,Stimuli/Experimental_stims/outdoor_scenes/henry-be-NLF6hTe4PAg-unsplash.jpg,Stimuli/Experimental_stims/body_parts/manuel-schinner-ZwjFuJ7ebpk-unsplash.jpg,0,1,810,1,chosen,3,29,outdoor_scenes,body_parts,1700,0,3,1
275,85508,0,276,4,4,1,gain4,no_gain4,J,H,44,7,objects,outdoor_scenes,74,93,Stimuli/Experimental_stims/objects/kuiye-chen-NuOGFo4PudE-unsplash.jpg,Stimuli/Experimental_stims/outdoor_scenes/petr-vysohlid-9fqwGqGLUxc-unsplash.jpg,0,0,748,0,unchosen,7,44,outdoor_scenes,objects,1200,0,3,1
276,85508,0,277,4,4,1,gain3,no_gain5,C,L,4,12,outdoor_scenes,faces,86,71,Stimuli/Experimental_stims/outdoor_scenes/jarrett-kow-1ZOyYPOBn7I-unsplash.jpg,Stimuli/Experimental_stims/faces/aiony-haust-jmATI5Q_YgY-unsplash.jpg,0,1,829,1,unchosen,4,12,outdoor_scenes,faces,2200,0,3,1
277,85508,0,278,4,4,0,no_gain5,gain6,L,B,12,1,faces,outdoor_scenes,71,94,Stimuli/Experimental_stims/faces/aiony-haust-jmATI5Q_YgY-unsplash.jpg,Stimuli/Experimental_stims/outdoor_scenes/ashim-d-silva-S2Q5mdOrrVc-unsplash.jpg,0,0,596,1,unchosen,1,12,outdoor_scenes,faces,2000,0,3,1
278,85508,0,279,4,4,1,gain3,no_gain4,C,H,30,16,body_parts,faces,80,100,Stimuli/Experimental_stims/body_parts/mika-korhonen-Xodzxosar18-unsplash.jpg,Stimuli/Experimental_stims/faces/freddy-kearney-o-ioeoATbIM-unsplash.jpg,0,1,522,1,chosen,30,16,body_parts,faces,3100,1,3,1
279,85508,0,280,4,4,1,gain5,no_gain5,I,L,11,12,outdoor_scenes,faces,97,71,Stimuli/Experimental_stims/outdoor_scenes/stephen-leonardi-gyIRjKPXupE-unsplash.jpg,Stimuli/Experimental_stims/faces/aiony-haust-jmATI5Q_YgY-unsplash.jpg,0,0,682,0,unchosen,12,11,faces,outdoor_scenes,2400,0,3,1
280,85508,0,281,4,4,1,gain4,no_gain1,J,G,19,2,faces,outdoor_scenes,95,92,Stimuli/Experimental_stims/faces/joel-mott-LaK153ghdig-unsplash.jpg,Stimuli/Experimental_stims/outdoor_scenes/bruno-van-der-kraan-qez8mNJ3ilU-unsplash.jpg,0,1,693,1,chosen,19,2,faces,outdoor_scenes,1000,0,3,1
281,85508,0,282,4,4,0,no_gain1,gain5,G,I,2,28,outdoor_scenes,body_parts,92,79,Stimuli/Experimental_stims/outdoor_scenes/bruno-van-der-kraan-qez8mNJ3ilU-unsplash.jpg,Stimuli/Experimental_stims/body_parts/ira-vishnevskaya-8DQAvdCby1I-unsplash.jpg,0,0,778,1,chosen,28,2,body_parts,outdoor_scenes,1900,0,3,1
282,85508,0,283,4,4,0,no_gain4,gain5,H,I,7,11,outdoor_scenes,outdoor_scenes,93,97,Stimuli/Experimental_stims/outdoor_scenes/petr-vysohlid-9fqwGqGLUxc-unsplash.jpg,Stimuli/Experimental_stims/outdoor_scenes/stephen-leonardi-gyIRjKPXupE-unsplash.jpg,0,1,857,0,unchosen,7,11,outdoor_scenes,outdoor_scenes,2400,0,3,1
283,85508,0,284,4,4,1,gain2,no_gain2,E,F,42,26,objects,body_parts,88,88,Stimuli/Experimental_stims/objects/jess-bailey-nOeVi8DsN8U-unsplash.jpg,Stimuli/Experimental_stims/body_parts/engin-akyurt-x_3gyC42btc-unsplash.jpg,0,0,608,0,chosen,26,42,body_parts,objects,1300,0,3,1
284,85508,0,285,4,4,0,no_gain4,gain5,H,I,16,28,faces,body_parts,100,79,Stimuli/Experimental_stims/faces/freddy-kearney-o-ioeoATbIM-unsplash.jpg,Stimuli/Experimental_stims/body_parts/ira-vishnevskaya-8DQAvdCby1I-unsplash.jpg,0,1,526,0,chosen,16,28,faces,body_parts,1600,0,3,1
285,85508,0,286,4,4,1,gain6,no_gain6,B,K,1,33,outdoor_scenes,body_parts,94,65,Stimuli/Experimental_stims/outdoor_scenes/ashim-d-silva-S2Q5mdOrrVc-unsplash.jpg,Stimuli/Experimental_stims/body_parts/tucker-good-36skLT5jZcc-unsplash.jpg,0,1,812,1,unchosen,1,33,outdoor_scenes,body_parts,1000,0,3,1
286,85508,0,287,4,4,0,no_gain6,gain4,K,J,45,19,objects,faces,92,95,Stimuli/Experimental_stims/objects/leohoho-rngTKHXumy0-unsplash.jpg,Stimuli/Experimental_stims/faces/joel-mott-LaK153ghdig-unsplash.jpg,0,0,599,1,chosen,19,45,faces,objects,1500,0,3,1
287,85508,0,288,4,4,1,gain5,no_gain1,I,G,11,46,outdoor_scenes,objects,97,90,Stimuli/Experimental_stims/outdoor_scenes/stephen-leonardi-gyIRjKPXupE-unsplash.jpg,Stimuli/Experimental_stims/objects/mockup-graphics-PNsj6RiHAF4-unsplash.jpg,0,0,224,0,unchosen,46,11,objects,outdoor_scenes,1900,0,3,1
288,85508,0,289,4,4,1,gain3,no_gain2,C,F,30,26,body_parts,body_parts,80,88,Stimuli/Experimental_stims/body_parts/mika-korhonen-Xodzxosar18-unsplash.jpg,Stimuli/Experimental_stims/body_parts/engin-akyurt-x_3gyC42btc-unsplash.jpg,0,1,1430,1,chosen,30,26,body_parts,body_parts,1600,0,3,1
289,85508,0,290,4,4,1,gain3,no_gain6,C,K,4,33,outdoor_scenes,body_parts,86,65,Stimuli/Experimental_stims/outdoor_scenes/jarrett-kow-1ZOyYPOBn7I-unsplash.jpg,Stimuli/Experimental_stims/body_parts/tucker-good-36skLT5jZcc-unsplash.jpg,0,1,588,1,unchosen,4,33,outdoor_scenes,body_parts,1200,0,3,1
290,85508,0,291,4,4,1,gain2,no_gain2,E,F,34,22,body_parts,faces,64,62,Stimuli/Experimental_stims/body_parts/wagner-santos-mBWMvIuVnso-unsplash.jpg,Stimuli/Experimental_stims/faces/ravi-patel-VMGAbeeJTKo-unsplash.jpg,0,1,977,1,unchosen,34,22,body_parts,faces,1000,0,3,1
291,85508,0,292,4,4,1,gain2,no_gain6,E,K,34,33,body_parts,body_parts,64,65,Stimuli/Experimental_stims/body_parts/wagner-santos-mBWMvIuVnso-unsplash.jpg,Stimuli/Experimental_stims/body_parts/tucker-good-36skLT5jZcc-unsplash.jpg,0,0,672,0,unchosen,33,34,body_parts,body_parts,3200,1,3,1