,PID,practice,trial,block,run,gain_left,left_item_id,right_item_id,left_pair_id,right_pair_id,left_stimulus,right_stimulus,left_category,left_rating,right_rating,right_category,left_path,right_path,no_response,left_chosen,rt,higher_outcome_chosen,choice_type,chosen_stimulus,unchosen_stimulus,chosen_category,unchosen_category,iti,long_iti,simulation,version
0,66833,1,1,0,0,0,,,,,,,,,,,Stimuli/Practice_stims/Final_decisions/debby-hudson-FmCSSSGge-0-unsplash.jpg,Stimuli/Practice_stims/Final_decisions/yassine-khalfalli-adsQ9d_Cx0c-unsplash.jpg,0,1,1125,0,,,,,,3000,0,7,2
1,66833,1,2,0,0,0,,,,,,,,,,,Stimuli/Practice_stims/Final_decisions/florian-wehde-iVW7mZPwd4g-unsplash.jpg,Stimuli/Practice_stims/Final_decisions/patrick-perkins-3wylDrjxH-E-unsplash.jpg,0,1,37,0,,,,,,1500,0,7,2
2,66833,1,3,0,0,0,,,,,,,,,,,Stimuli/Practice_stims/Final_decisions/debby-hudson-FmCSSSGge-0-unsplash.jpg,Stimuli/Practice_stims/Final_decisions/florian-wehde-iVW7mZPwd4g-unsplash.jpg,0,1,150,0,,,,,,2000,0,7,2
3,66833,1,4,0,0,0,,,,,,,,,,,Stimuli/Practice_stims/Final_decisions/yassine-khalfalli-adsQ9d_Cx0c-unsplash.jpg,Stimuli/Practice_stims/Final_decisions/debby-hudson-FmCSSSGge-0-unsplash.jpg,0,0,75,1,,,,,,1000,0,7,2
4,66833,0,5,1,1,1,gain2,no_gain3,D,B,41,5,objects,86,86,outdoor_scenes,Stimuli/Experimental_stims/objects/insung-yoon-w2JtIQQXoRU-unsplash.jpg,Stimuli/Experimental_stims/outdoor_scenes/jeff-king-bJHWJeiHfHc-unsplash.jpg,0,1,619,1,unchosen,41,5,objects,outdoor_scenes,4100,1,7,2
5,66833,0,6,1,1,1,gain3,no_gain5,L,F,21,22,faces,88,85,faces,Stimuli/Experimental_stims/faces/leilani-angel-K84vnnzxmTQ-unsplash.jpg,Stimuli/Experimental_stims/faces/ravi-patel-VMGAbeeJTKo-unsplash.jpg,0,0,146,0,chosen,22,21,faces,faces,1200,0,7,2
6,66833,0,7,1,1,1,gain1,no_gain3,K,B,46,13,objects,87,87,faces,Stimuli/Experimental_stims/objects/mockup-graphics-PNsj6RiHAF4-unsplash.jpg,Stimuli/Experimental_stims/faces/daniel-rigdon-dXmXKPP2L4E-unsplash.jpg,0,0,134,0,chosen,13,46,faces,objects,2600,0,7,2
7,66833,0,8,1,1,1,gain2,no_gain4,D,A,20,47,faces,81,87,objects,Stimuli/Experimental_stims/faces/justin-chen-J7Cf1Gch49E-unsplash.jpg,Stimuli/Experimental_stims/objects/ronaldo-arthur-vidal-Cdz_lvnl37k-unsplash.jpg,0,1,7,1,chosen,20,47,faces,objects,2000,0,7,2
8,66833,0,9,1,1,0,no_gain5,gain1,F,K,24,31,body_parts,83,85,body_parts,Stimuli/Experimental_stims/body_parts/clay-banks-LjqARJaJotc-unsplash.jpg,Stimuli/Experimental_stims/body_parts/sincerely-media-VN6DbKajo5s-unsplash.jpg,0,1,24,0,unchosen,24,31,body_parts,body_parts,1200,0,7,2
9,66833,0,10,1,1,0,no_gain4,gain3,A,L,47,21,objects,87,88,faces,Stimuli/Experimental_stims/objects/ronaldo-arthur-vidal-Cdz_lvnl37k-unsplash.jpg,Stimuli/Experimental_stims/faces/leilani-angel-K84vnnzxmTQ-unsplash.jpg,0,0,69,1,chosen,21,47,faces,objects,3200,1,7,2
10,66833,0,11,1,1,0,no_gain1,gain3,G,L,37,21,objects,90,88,faces,Stimuli/Experimental_stims/objects/alexander-andrews-VLGWE_SumrA-unsplash.jpg,Stimuli/Experimental_stims/faces/leilani-angel-K84vnnzxmTQ-unsplash.jpg,0,1,143,0,chosen,37,21,objects,faces,1200,0,7,2
11,66833,0,12,1,1,0,no_gain2,gain1,C,K,2,46,outdoor_scenes,85,87,objects,Stimuli/Experimental_stims/outdoor_scenes/bruno-van-der-kraan-qez8mNJ3ilU-unsplash.jpg,Stimuli/Experimental_stims/objects/mockup-graphics-PNsj6RiHAF4-unsplash.jpg,0,0,61,1,chosen,46,2,objects,outdoor_scenes,1800,0,7,2
12,66833,0,13,1,1,1,gain2,no_gain1,D,G,41,9,objects,86,84,outdoor_scenes,Stimuli/Experimental_stims/objects/insung-yoon-w2JtIQQXoRU-unsplash.jpg,Stimuli/Experimental_stims/outdoor_scenes/sergey-pesterev-y-b_FOmJXdg-unsplash.jpg,0,1,141,1,unchosen,41,9,objects,outdoor_scenes,1600,0,7,2
13,66833,0,14,1,1,0,no_gain6,gain6,J,I,36,10,objects,88,85,outdoor_scenes,Stimuli/Experimental_stims/objects/alexander-andrews-JYGnB9gTCls-unsplash.jpg,Stimuli/Experimental_stims/outdoor_scenes/shannon-kunkle-dM8INmkyDas-unsplash.jpg,0,1,34,0,unchosen,36,10,objects,outdoor_scenes,1300,0,7,2
14,66833,0,15,1,1,0,no_gain1,gain5,G,H,9,4,outdoor_scenes,84,82,outdoor_scenes,Stimuli/Experimental_stims/outdoor_scenes/sergey-pesterev-y-b_FOmJXdg-unsplash.jpg,Stimuli/Experimental_stims/outdoor_scenes/jarrett-kow-1ZOyYPOBn7I-unsplash.jpg,0,0,89,1,unchosen,4,9,outdoor_scenes,outdoor_scenes,1900,0,7,2
15,66833,0,16,1,1,0,no_gain3,gain2,B,D,13,20,faces,87,81,faces,Stimuli/Experimental_stims/faces/daniel-rigdon-dXmXKPP2L4E-unsplash.jpg,Stimuli/Experimental_stims/faces/justin-chen-J7Cf1Gch49E-unsplash.jpg,0,1,225,0,chosen,13,20,faces,faces,4100,1,7,2
16,66833,0,17,1,1,1,gain4,no_gain2,E,C,25,35,body_parts,87,77,body_parts,Stimuli/Experimental_stims/body_parts/engin-akyurt-Q2rfH3GW39c-unsplash.jpg,Stimuli/Experimental_stims/body_parts/wc-so-KH4AAPjb-tI-unsplash.jpg,0,0,170,0,unchosen,35,25,body_parts,body_parts,1100,0,7,2
17,66833,0,18,1,1,1,gain6,no_gain2,I,C,28,2,body_parts,92,85,outdoor_scenes,Stimuli/Experimental_stims/body_parts/ira-vishnevskaya-8DQAvdCby1I-unsplash.jpg,Stimuli/Experimental_stims/outdoor_scenes/bruno-van-der-kraan-qez8mNJ3ilU-unsplash.jpg,0,0,21,0,chosen,2,28,outdoor_scenes,body_parts,1200,0,7,2
18,66833,0,19,1,1,1,gain5,no_gain4,H,A,4,11,outdoor_scenes,82,78,outdoor_scenes,Stimuli/Experimental_stims/outdoor_scenes/jarrett-kow-1ZOyYPOBn7I-unsplash.jpg,Stimuli/Experimental_stims/outdoor_scenes/stephen-leonardi-gyIRjKPXupE-unsplash.jpg,0,1,97,1,unchosen,4,11,outdoor_scenes,outdoor_scenes,1400,0,7,2
19,66833,0,20,1,1,0,no_gain4,gain1,A,K,47,46,objects,87,87,objects,Stimuli/Experimental_stims/objects/ronaldo-arthur-vidal-Cdz_lvnl37k-unsplash.jpg,Stimuli/Experimental_stims/objects/mockup-graphics-PNsj6RiHAF4-unsplash.jpg,0,0,145,1,chosen,46,47,objects,objects,1300,0,7,2
20,66833,0,21,1,1,1,gain6,no_gain6,I,J,28,14,body_parts,92,81,faces,Stimuli/Experimental_stims/body_parts/ira-vishnevskaya-8DQAvdCby1I-unsplash.jpg,Stimuli/Experimental_stims/faces/david-siglin-UuW4psOb388-unsplash.jpg,0,1,59,1,chosen,28,14,body_parts,faces,4600,1,7,2
21,66833,0,22,1,1,0,no_gain1,gain3,G,L,9,32,outdoor_scenes,84,86,body_parts,Stimuli/Experimental_stims/outdoor_scenes/sergey-pesterev-y-b_FOmJXdg-unsplash.jpg,Stimuli/Experimental_stims/body_parts/towfiqu-barbhuiya-3AsiVDsZnHg-unsplash.jpg,0,0,42,1,unchosen,32,9,body_parts,outdoor_scenes,1000,0,7,2
22,66833,0,23,1,1,1,gain4,no_gain4,E,A,39,47,objects,89,87,objects,Stimuli/Experimental_stims/objects/charlesdeluvio-1-nx1QR5dTE-unsplash.jpg,Stimuli/Experimental_stims/objects/ronaldo-arthur-vidal-Cdz_lvnl37k-unsplash.jpg,0,0,42,0,chosen,47,39,objects,objects,1100,0,7,2
23,66833,0,24,1,1,0,no_gain1,gain4,G,E,9,25,outdoor_scenes,84,87,body_parts,Stimuli/Experimental_stims/outdoor_scenes/sergey-pesterev-y-b_FOmJXdg-unsplash.jpg,Stimuli/Experimental_stims/body_parts/engin-akyurt-Q2rfH3GW39c-unsplash.jpg,0,0,141,1,unchosen,25,9,body_parts,outdoor_scenes,1700,0,7,2
24,66833,0,25,1,1,0,no_gain3,gain5,B,H,5,4,outdoor_scenes,86,82,outdoor_scenes,Stimuli/Experimental_stims/outdoor_scenes/jeff-king-bJHWJeiHfHc-unsplash.jpg,Stimuli/Experimental_stims/outdoor_scenes/jarrett-kow-1ZOyYPOBn7I-unsplash.jpg,0,1,27,0,unchosen,5,4,outdoor_scenes,outdoor_scenes,2800,0,7,2
25,66833,0,26,1,1,1,gain4,no_gain3,E,B,39,13,objects,89,87,faces,Stimuli/Experimental_stims/objects/charlesdeluvio-1-nx1QR5dTE-unsplash.jpg,Stimuli/Experimental_stims/faces/daniel-rigdon-dXmXKPP2L4E-unsplash.jpg,0,1,17,1,chosen,39,13,objects,faces,3200,1,7,2
26,66833,0,27,1,1,1,gain5,no_gain6,H,J,23,14,faces,92,81,faces,Stimuli/Experimental_stims/faces/rikonavt-HQjfrvdTfak-unsplash.jpg,Stimuli/Experimental_stims/faces/david-siglin-UuW4psOb388-unsplash.jpg,0,0,119,0,chosen,14,23,faces,faces,2000,0,7,2
27,66833,0,28,1,1,0,no_gain3,gain3,B,L,5,32,outdoor_scenes,86,86,body_parts,Stimuli/Experimental_stims/outdoor_scenes/jeff-king-bJHWJeiHfHc-unsplash.jpg,Stimuli/Experimental_stims/body_parts/towfiqu-barbhuiya-3AsiVDsZnHg-unsplash.jpg,0,1,414,0,unchosen,5,32,outdoor_scenes,body_parts,1600,0,7,2
28,66833,0,29,1,1,1,gain6,no_gain3,I,B,28,13,body_parts,92,87,faces,Stimuli/Experimental_stims/body_parts/ira-vishnevskaya-8DQAvdCby1I-unsplash.jpg,Stimuli/Experimental_stims/faces/daniel-rigdon-dXmXKPP2L4E-unsplash.jpg,0,1,223,1,chosen,28,13,body_parts,faces,1300,0,7,2
29,66833,0,30,1,1,1,gain5,no_gain5,H,F,4,24,outdoor_scenes,82,83,body_parts,Stimuli/Experimental_stims/outdoor_scenes/jarrett-kow-1ZOyYPOBn7I-unsplash.jpg,Stimuli/Experimental_stims/body_parts/clay-banks-LjqARJaJotc-unsplash.jpg,0,0,325,0,unchosen,24,4,body_parts,outdoor_scenes,1200,0,7,2
30,66833,0,31,1,1,0,no_gain6,gain3,J,L,36,32,objects,88,86,body_parts,Stimuli/Experimental_stims/objects/alexander-andrews-JYGnB9gTCls-unsplash.jpg,Stimuli/Experimental_stims/body_parts/towfiqu-barbhuiya-3AsiVDsZnHg-unsplash.jpg,0,0,239,1,unchosen,32,36,body_parts,objects,3500,1,7,2
31,66833,0,32,1,1,0,no_gain1,gain1,G,K,37,46,objects,90,87,objects,Stimuli/Experimental_stims/objects/alexander-andrews-VLGWE_SumrA-unsplash.jpg,Stimuli/Experimental_stims/objects/mockup-graphics-PNsj6RiHAF4-unsplash.jpg,0,1,2,0,chosen,37,46,objects,objects,1800,0,7,2
32,66833,0,33,1,1,0,no_gain5,gain6,F,I,24,10,body_parts,83,85,outdoor_scenes,Stimuli/Experimental_stims/body_parts/clay-banks-LjqARJaJotc-unsplash.jpg,Stimuli/Experimental_stims/outdoor_scenes/shannon-kunkle-dM8INmkyDas-unsplash.jpg,0,1,25,0,unchosen,24,10,body_parts,outdoor_scenes,1600,0,7,2
33,66833,0,34,1,1,0,no_gain1,gain5,G,H,37,23,objects,90,92,faces,Stimuli/Experimental_stims/objects/alexander-andrews-VLGWE_SumrA-unsplash.jpg,Stimuli/Experimental_stims/faces/rikonavt-HQjfrvdTfak-unsplash.jpg,0,0,108,1,chosen,23,37,faces,objects,2000,0,7,2
34,66833,0,35,1,1,0,no_gain5,gain5,F,H,22,23,faces,85,92,faces,Stimuli/Experimental_stims/faces/ravi-patel-VMGAbeeJTKo-unsplash.jpg,Stimuli/Experimental_stims/faces/rikonavt-HQjfrvdTfak-unsplash.jpg,0,1,189,0,chosen,22,23,faces,faces,1100,0,7,2
35,66833,0,36,1,1,1,gain1,no_gain2,K,C,31,35,body_parts,85,77,body_parts,Stimuli/Experimental_stims/body_parts/sincerely-media-VN6DbKajo5s-unsplash.jpg,Stimuli/Experimental_stims/body_parts/wc-so-KH4AAPjb-tI-unsplash.jpg,0,0,16,0,unchosen,35,31,body_parts,body_parts,2800,0,7,2
36,66833,0,37,1,1,0,no_gain2,gain5,C,H,2,23,outdoor_scenes,85,92,faces,Stimuli/Experimental_stims/outdoor_scenes/bruno-van-der-kraan-qez8mNJ3ilU-unsplash.jpg,Stimuli/Experimental_stims/faces/rikonavt-HQjfrvdTfak-unsplash.jpg,0,0,29,1,chosen,23,2,faces,outdoor_scenes,3100,1,7,2
37,66833,0,38,1,1,0,no_gain4,gain2,A,D,11,41,outdoor_scenes,78,86,objects,Stimuli/Experimental_stims/outdoor_scenes/stephen-leonardi-gyIRjKPXupE-unsplash.jpg,Stimuli/Experimental_stims/objects/insung-yoon-w2JtIQQXoRU-unsplash.jpg,0,0,41,1,unchosen,41,11,objects,outdoor_scenes,1100,0,7,2
38,66833,0,39,1,1,0,no_gain4,gain1,A,K,11,31,outdoor_scenes,78,85,body_parts,Stimuli/Experimental_stims/outdoor_scenes/stephen-leonardi-gyIRjKPXupE-unsplash.jpg,Stimuli/Experimental_stims/body_parts/sincerely-media-VN6DbKajo5s-unsplash.jpg,0,1,153,0,unchosen,11,31,outdoor_scenes,body_parts,1100,0,7,2
39,66833,0,40,1,1,1,gain2,no_gain1,D,G,20,37,faces,81,90,objects,Stimuli/Experimental_stims/faces/justin-chen-J7Cf1Gch49E-unsplash.jpg,Stimuli/Experimental_stims/objects/alexander-andrews-VLGWE_SumrA-unsplash.jpg,0,0,22,0,chosen,37,20,objects,faces,1100,0,7,2
40,66833,0,41,1,1,1,gain2,no_gain5,D,F,41,24,objects,86,83,body_parts,Stimuli/Experimental_stims/objects/insung-yoon-w2JtIQQXoRU-unsplash.jpg,Stimuli/Experimental_stims/body_parts/clay-banks-LjqARJaJotc-unsplash.jpg,0,0,163,0,unchosen,24,41,body_parts,objects,2300,0,7,2
41,66833,0,42,1,1,1,gain6,no_gain3,I,B,10,5,outdoor_scenes,85,86,outdoor_scenes,Stimuli/Experimental_stims/outdoor_scenes/shannon-kunkle-dM8INmkyDas-unsplash.jpg,Stimuli/Experimental_stims/outdoor_scenes/jeff-king-bJHWJeiHfHc-unsplash.jpg,0,0,118,0,unchosen,5,10,outdoor_scenes,outdoor_scenes,3700,1,7,2
42,66833,0,43,1,1,0,no_gain6,gain5,J,H,36,4,objects,88,82,outdoor_scenes,Stimuli/Experimental_stims/objects/alexander-andrews-JYGnB9gTCls-unsplash.jpg,Stimuli/Experimental_stims/outdoor_scenes/jarrett-kow-1ZOyYPOBn7I-unsplash.jpg,0,0,267,1,unchosen,4,36,outdoor_scenes,objects,2400,0,7,2
43,66833,0,44,1,1,0,no_gain5,gain6,F,I,22,28,faces,85,92,body_parts,Stimuli/Experimental_stims/faces/ravi-patel-VMGAbeeJTKo-unsplash.jpg,Stimuli/Experimental_stims/body_parts/ira-vishnevskaya-8DQAvdCby1I-unsplash.jpg,0,1,291,0,chosen,22,28,faces,body_parts,1400,0,7,2
44,66833,0,45,1,1,0,no_gain2,gain6,C,I,35,10,body_parts,77,85,outdoor_scenes,Stimuli/Experimental_stims/body_parts/wc-so-KH4AAPjb-tI-unsplash.jpg,Stimuli/Experimental_stims/outdoor_scenes/shannon-kunkle-dM8INmkyDas-unsplash.jpg,0,0,2,1,unchosen,10,35,outdoor_scenes,body_parts,2500,0,7,2
45,66833,0,46,1,1,1,gain6,no_gain1,I,G,28,37,body_parts,92,90,objects,Stimuli/Experimental_stims/body_parts/ira-vishnevskaya-8DQAvdCby1I-unsplash.jpg,Stimuli/Experimental_stims/objects/alexander-andrews-VLGWE_SumrA-unsplash.jpg,0,0,58,0,chosen,37,28,objects,body_parts,2600,0,7,2
46,66833,0,47,1,1,1,gain2,no_gain2,D,C,20,2,faces,81,85,outdoor_scenes,Stimuli/Experimental_stims/faces/justin-chen-J7Cf1Gch49E-unsplash.jpg,Stimuli/Experimental_stims/outdoor_scenes/bruno-van-der-kraan-qez8mNJ3ilU-unsplash.jpg,0,1,309,1,chosen,20,2,faces,outdoor_scenes,1100,0,7,2
47,66833,0,48,1,1,0,no_gain6,gain1,J,K,36,31,objects,88,85,body_parts,Stimuli/Experimental_stims/objects/alexander-andrews-JYGnB9gTCls-unsplash.jpg,Stimuli/Experimental_stims/body_parts/sincerely-media-VN6DbKajo5s-unsplash.jpg,0,1,76,0,unchosen,36,31,objects,body_parts,4800,1,7,2
48,66833,0,49,1,1,1,gain4,no_gain3,E,B,25,5,body_parts,87,86,outdoor_scenes,Stimuli/Experimental_stims/body_parts/engin-akyurt-Q2rfH3GW39c-unsplash.jpg,Stimuli/Experimental_stims/outdoor_scenes/jeff-king-bJHWJeiHfHc-unsplash.jpg,0,0,924,0,unchosen,5,25,outdoor_scenes,body_parts,1600,0,7,2
49,66833,0,50,1,1,1,gain6,no_gain4,I,A,28,47,body_parts,92,87,objects,Stimuli/Experimental_stims/body_parts/ira-vishnevskaya-8DQAvdCby1I-unsplash.jpg,Stimuli/Experimental_stims/objects/ronaldo-arthur-vidal-Cdz_lvnl37k-unsplash.jpg,0,0,170,0,chosen,47,28,objects,body_parts,2800,0,7,2
50,66833,0,51,1,1,1,gain1,no_gain3,K,B,31,5,body_parts,85,86,outdoor_scenes,Stimuli/Experimental_stims/body_parts/sincerely-media-VN6DbKajo5s-unsplash.jpg,Stimuli/Experimental_stims/outdoor_scenes/jeff-king-bJHWJeiHfHc-unsplash.jpg,0,0,132,0,unchosen,5,31,outdoor_scenes,body_parts,2300,0,7,2
51,66833,0,52,1,1,1,gain3,no_gain5,L,F,32,24,body_parts,86,83,body_parts,Stimuli/Experimental_stims/body_parts/towfiqu-barbhuiya-3AsiVDsZnHg-unsplash.jpg,Stimuli/Experimental_stims/body_parts/clay-banks-LjqARJaJotc-unsplash.jpg,0,1,688,1,unchosen,32,24,body_parts,body_parts,2400,0,7,2
52,66833,0,53,1,1,1,gain4,no_gain4,E,A,25,11,body_parts,87,78,outdoor_scenes,Stimuli/Experimental_stims/body_parts/engin-akyurt-Q2rfH3GW39c-unsplash.jpg,Stimuli/Experimental_stims/outdoor_scenes/stephen-leonardi-gyIRjKPXupE-unsplash.jpg,0,1,250,1,unchosen,25,11,body_parts,outdoor_scenes,1800,0,7,2
53,66833,0,54,1,1,0,no_gain6,gain1,J,K,14,46,faces,81,87,objects,Stimuli/Experimental_stims/faces/david-siglin-UuW4psOb388-unsplash.jpg,Stimuli/Experimental_stims/objects/mockup-graphics-PNsj6RiHAF4-unsplash.jpg,0,1,19,0,chosen,14,46,faces,objects,1500,0,7,2
54,66833,0,55,1,1,1,gain6,no_gain4,I,A,10,11,outdoor_scenes,85,78,outdoor_scenes,Stimuli/Experimental_stims/outdoor_scenes/shannon-kunkle-dM8INmkyDas-unsplash.jpg,Stimuli/Experimental_stims/outdoor_scenes/stephen-leonardi-gyIRjKPXupE-unsplash.jpg,0,1,31,1,unchosen,10,11,outdoor_scenes,outdoor_scenes,1900,0,7,2
55,66833,0,56,1,1,1,gain3,no_gain2,L,C,32,35,body_parts,86,77,body_parts,Stimuli/Experimental_stims/body_parts/towfiqu-barbhuiya-3AsiVDsZnHg-unsplash.jpg,Stimuli/Experimental_stims/body_parts/wc-so-KH4AAPjb-tI-unsplash.jpg,0,1,405,1,unchosen,32,35,body_parts,body_parts,1100,0,7,2
56,66833,0,57,1,1,0,no_gain2,gain2,C,D,35,41,body_parts,77,86,objects,Stimuli/Experimental_stims/body_parts/wc-so-KH4AAPjb-tI-unsplash.jpg,Stimuli/Experimental_stims/objects/insung-yoon-w2JtIQQXoRU-unsplash.jpg,0,1,756,0,unchosen,35,41,body_parts,objects,1700,0,7,2
57,66833,0,58,1,1,1,gain5,no_gain3,H,B,23,13,faces,92,87,faces,Stimuli/Experimental_stims/faces/rikonavt-HQjfrvdTfak-unsplash.jpg,Stimuli/Experimental_stims/faces/daniel-rigdon-dXmXKPP2L4E-unsplash.jpg,0,1,77,1,chosen,23,13,faces,faces,1600,0,7,2
58,66833,0,59,1,1,1,gain6,no_gain1,I,G,10,9,outdoor_scenes,85,84,outdoor_scenes,Stimuli/Experimental_stims/outdoor_scenes/shannon-kunkle-dM8INmkyDas-unsplash.jpg,Stimuli/Experimental_stims/outdoor_scenes/sergey-pesterev-y-b_FOmJXdg-unsplash.jpg,0,1,38,1,unchosen,10,9,outdoor_scenes,outdoor_scenes,1700,0,7,2
59,66833,0,60,1,1,0,no_gain5,gain4,F,E,22,39,faces,85,89,objects,Stimuli/Experimental_stims/faces/ravi-patel-VMGAbeeJTKo-unsplash.jpg,Stimuli/Experimental_stims/objects/charlesdeluvio-1-nx1QR5dTE-unsplash.jpg,0,1,377,0,chosen,22,39,faces,objects,3000,0,7,2
60,66833,0,61,1,1,1,gain3,no_gain6,L,J,21,14,faces,88,81,faces,Stimuli/Experimental_stims/faces/leilani-angel-K84vnnzxmTQ-unsplash.jpg,Stimuli/Experimental_stims/faces/david-siglin-UuW4psOb388-unsplash.jpg,0,1,2,1,chosen,21,14,faces,faces,2100,0,7,2
61,66833,0,62,1,1,1,gain5,no_gain2,H,C,4,35,outdoor_scenes,82,77,body_parts,Stimuli/Experimental_stims/outdoor_scenes/jarrett-kow-1ZOyYPOBn7I-unsplash.jpg,Stimuli/Experimental_stims/body_parts/wc-so-KH4AAPjb-tI-unsplash.jpg,0,0,24,0,unchosen,35,4,body_parts,outdoor_scenes,3200,1,7,2
62,66833,0,63,1,1,1,gain1,no_gain5,K,F,46,22,objects,87,85,faces,Stimuli/Experimental_stims/objects/mockup-graphics-PNsj6RiHAF4-unsplash.jpg,Stimuli/Experimental_stims/faces/ravi-patel-VMGAbeeJTKo-unsplash.jpg,0,1,26,1,chosen,46,22,objects,faces,1600,0,7,2
63,66833,0,64,1,1,0,no_gain2,gain4,C,E,2,39,outdoor_scenes,85,89,objects,Stimuli/Experimental_stims/outdoor_scenes/bruno-van-der-kraan-qez8mNJ3ilU-unsplash.jpg,Stimuli/Experimental_stims/objects/charlesdeluvio-1-nx1QR5dTE-unsplash.jpg,0,0,409,1,chosen,39,2,objects,outdoor_scenes,1300,0,7,2
64,66833,0,65,1,1,0,no_gain1,gain1,G,K,9,31,outdoor_scenes,84,85,body_parts,Stimuli/Experimental_stims/outdoor_scenes/sergey-pesterev-y-b_FOmJXdg-unsplash.jpg,Stimuli/Experimental_stims/body_parts/sincerely-media-VN6DbKajo5s-unsplash.jpg,0,1,85,0,unchosen,9,31,outdoor_scenes,body_parts,1800,0,7,2
65,66833,0,66,1,1,0,no_gain1,gain4,G,E,37,39,objects,90,89,objects,Stimuli/Experimental_stims/objects/alexander-andrews-VLGWE_SumrA-unsplash.jpg,Stimuli/Experimental_stims/objects/charlesdeluvio-1-nx1QR5dTE-unsplash.jpg,0,1,196,0,chosen,37,39,objects,objects,1400,0,7,2
66,66833,0,67,1,1,0,no_gain3,gain3,B,L,13,21,faces,87,88,faces,Stimuli/Experimental_stims/faces/daniel-rigdon-dXmXKPP2L4E-unsplash.jpg,Stimuli/Experimental_stims/faces/leilani-angel-K84vnnzxmTQ-unsplash.jpg,0,1,23,0,chosen,13,21,faces,faces,1500,0,7,2
67,66833,0,68,1,1,0,no_gain6,gain2,J,D,14,20,faces,81,81,faces,Stimuli/Experimental_stims/faces/david-siglin-UuW4psOb388-unsplash.jpg,Stimuli/Experimental_stims/faces/justin-chen-J7Cf1Gch49E-unsplash.jpg,0,0,149,1,chosen,20,14,faces,faces,1100,0,7,2
68,66833,0,69,1,1,0,no_gain6,gain4,J,E,36,25,objects,88,87,body_parts,Stimuli/Experimental_stims/objects/alexander-andrews-JYGnB9gTCls-unsplash.jpg,Stimuli/Experimental_stims/body_parts/engin-akyurt-Q2rfH3GW39c-unsplash.jpg,0,0,132,1,unchosen,25,36,body_parts,objects,4300,1,7,2
69,66833,0,70,1,1,0,no_gain2,gain3,C,L,2,21,outdoor_scenes,85,88,faces,Stimuli/Experimental_stims/outdoor_scenes/bruno-van-der-kraan-qez8mNJ3ilU-unsplash.jpg,Stimuli/Experimental_stims/faces/leilani-angel-K84vnnzxmTQ-unsplash.jpg,0,0,102,1,chosen,21,2,faces,outdoor_scenes,1100,0,7,2
70,66833,0,71,1,1,1,gain2,no_gain5,D,F,20,22,faces,81,85,faces,Stimuli/Experimental_stims/faces/justin-chen-J7Cf1Gch49E-unsplash.jpg,Stimuli/Experimental_stims/faces/ravi-patel-VMGAbeeJTKo-unsplash.jpg,0,0,1,0,chosen,22,20,faces,faces,1300,0,7,2
71,66833,0,72,1,1,1,gain2,no_gain6,D,J,41,36,objects,86,88,objects,Stimuli/Experimental_stims/objects/insung-yoon-w2JtIQQXoRU-unsplash.jpg,Stimuli/Experimental_stims/objects/alexander-andrews-JYGnB9gTCls-unsplash.jpg,0,1,311,1,unchosen,41,36,objects,objects,2000,0,7,2
72,66833,0,73,1,1,0,no_gain4,gain3,A,L,11,32,outdoor_scenes,78,86,body_parts,Stimuli/Experimental_stims/outdoor_scenes/stephen-leonardi-gyIRjKPXupE-unsplash.jpg,Stimuli/Experimental_stims/body_parts/towfiqu-barbhuiya-3AsiVDsZnHg-unsplash.jpg,0,0,29,1,unchosen,32,11,body_parts,outdoor_scenes,1900,0,7,2
73,66833,0,74,1,1,0,no_gain4,gain5,A,H,47,23,objects,87,92,faces,Stimuli/Experimental_stims/objects/ronaldo-arthur-vidal-Cdz_lvnl37k-unsplash.jpg,Stimuli/Experimental_stims/faces/rikonavt-HQjfrvdTfak-unsplash.jpg,0,1,229,0,chosen,47,23,objects,faces,2200,0,7,2
74,66833,0,75,1,1,1,gain4,no_gain6,E,J,39,14,objects,89,81,faces,Stimuli/Experimental_stims/objects/charlesdeluvio-1-nx1QR5dTE-unsplash.jpg,Stimuli/Experimental_stims/faces/david-siglin-UuW4psOb388-unsplash.jpg,0,1,38,1,chosen,39,14,objects,faces,1000,0,7,2
75,66833,0,76,1,1,1,gain4,no_gain5,E,F,25,24,body_parts,87,83,body_parts,Stimuli/Experimental_stims/body_parts/engin-akyurt-Q2rfH3GW39c-unsplash.jpg,Stimuli/Experimental_stims/body_parts/clay-banks-LjqARJaJotc-unsplash.jpg,0,1,375,1,unchosen,25,24,body_parts,body_parts,1100,0,7,2
76,66833,0,77,2,2,1,gain6,no_gain3,I,B,10,5,outdoor_scenes,85,86,outdoor_scenes,Stimuli/Experimental_stims/outdoor_scenes/shannon-kunkle-dM8INmkyDas-unsplash.jpg,Stimuli/Experimental_stims/outdoor_scenes/jeff-king-bJHWJeiHfHc-unsplash.jpg,0,0,1075,0,unchosen,5,10,outdoor_scenes,outdoor_scenes,3800,1,10,2
77,66833,0,78,2,2,1,gain6,no_gain4,I,A,28,47,body_parts,92,87,objects,Stimuli/Experimental_stims/body_parts/ira-vishnevskaya-8DQAvdCby1I-unsplash.jpg,Stimuli/Experimental_stims/objects/ronaldo-arthur-vidal-Cdz_lvnl37k-unsplash.jpg,0,1,2,1,chosen,28,47,body_parts,objects,2000,0,10,2
78,66833,0,79,2,2,1,gain3,no_gain1,L,G,21,37,faces,88,90,objects,Stimuli/Experimental_stims/faces/leilani-angel-K84vnnzxmTQ-unsplash.jpg,Stimuli/Experimental_stims/objects/alexander-andrews-VLGWE_SumrA-unsplash.jpg,0,1,67,1,chosen,21,37,faces,objects,3000,0,10,2
79,66833,0,80,2,2,1,gain4,no_gain3,E,B,25,5,body_parts,87,86,outdoor_scenes,Stimuli/Experimental_stims/body_parts/engin-akyurt-Q2rfH3GW39c-unsplash.jpg,Stimuli/Experimental_stims/outdoor_scenes/jeff-king-bJHWJeiHfHc-unsplash.jpg,0,1,229,1,unchosen,25,5,body_parts,outdoor_scenes,1400,0,10,2
80,66833,0,81,2,2,1,gain6,no_gain6,I,J,28,14,body_parts,92,81,faces,Stimuli/Experimental_stims/body_parts/ira-vishnevskaya-8DQAvdCby1I-unsplash.jpg,Stimuli/Experimental_stims/faces/david-siglin-UuW4psOb388-unsplash.jpg,0,0,2,0,chosen,14,28,faces,body_parts,2900,0,10,2
81,66833,0,82,2,2,1,gain2,no_gain1,D,G,20,37,faces,81,90,objects,Stimuli/Experimental_stims/faces/justin-chen-J7Cf1Gch49E-unsplash.jpg,Stimuli/Experimental_stims/objects/alexander-andrews-VLGWE_SumrA-unsplash.jpg,0,0,152,0,chosen,37,20,objects,faces,2000,0,10,2
82,66833,0,83,2,2,0,no_gain1,gain3,G,L,9,32,outdoor_scenes,84,86,body_parts,Stimuli/Experimental_stims/outdoor_scenes/sergey-pesterev-y-b_FOmJXdg-unsplash.jpg,Stimuli/Experimental_stims/body_parts/towfiqu-barbhuiya-3AsiVDsZnHg-unsplash.jpg,0,1,19,0,unchosen,9,32,outdoor_scenes,body_parts,2700,0,10,2
83,66833,0,84,2,2,0,no_gain6,gain2,J,D,14,20,faces,81,81,faces,Stimuli/Experimental_stims/faces/david-siglin-UuW4psOb388-unsplash.jpg,Stimuli/Experimental_stims/faces/justin-chen-J7Cf1Gch49E-unsplash.jpg,0,1,758,0,chosen,14,20,faces,faces,3600,1,10,2
84,66833,0,85,2,2,0,no_gain3,gain2,B,D,5,41,outdoor_scenes,86,86,objects,Stimuli/Experimental_stims/outdoor_scenes/jeff-king-bJHWJeiHfHc-unsplash.jpg,Stimuli/Experimental_stims/objects/insung-yoon-w2JtIQQXoRU-unsplash.jpg,0,1,126,0,unchosen,5,41,outdoor_scenes,objects,1300,0,10,2
85,66833,0,86,2,2,1,gain6,no_gain1,I,G,10,9,outdoor_scenes,85,84,outdoor_scenes,Stimuli/Experimental_stims/outdoor_scenes/shannon-kunkle-dM8INmkyDas-unsplash.jpg,Stimuli/Experimental_stims/outdoor_scenes/sergey-pesterev-y-b_FOmJXdg-unsplash.jpg,0,0,6,0,unchosen,9,10,outdoor_scenes,outdoor_scenes,3000,0,10,2
86,66833,0,87,2,2,0,no_gain5,gain4,F,E,24,25,body_parts,83,87,body_parts,Stimuli/Experimental_stims/body_parts/clay-banks-LjqARJaJotc-unsplash.jpg,Stimuli/Experimental_stims/body_parts/engin-akyurt-Q2rfH3GW39c-unsplash.jpg,0,0,112,1,unchosen,25,24,body_parts,body_parts,2600,0,10,2
87,66833,0,88,2,2,0,no_gain2,gain3,C,L,2,21,outdoor_scenes,85,88,faces,Stimuli/Experimental_stims/outdoor_scenes/bruno-van-der-kraan-qez8mNJ3ilU-unsplash.jpg,Stimuli/Experimental_stims/faces/leilani-angel-K84vnnzxmTQ-unsplash.jpg,0,1,2,0,chosen,2,21,outdoor_scenes,faces,1100,0,10,2
88,66833,0,89,2,2,0,no_gain1,gain1,G,K,37,46,objects,90,87,objects,Stimuli/Experimental_stims/objects/alexander-andrews-VLGWE_SumrA-unsplash.jpg,Stimuli/Experimental_stims/objects/mockup-graphics-PNsj6RiHAF4-unsplash.jpg,0,1,34,0,chosen,37,46,objects,objects,1400,0,10,2
89,66833,0,90,2,2,0,no_gain5,gain2,F,D,24,41,body_parts,83,86,objects,Stimuli/Experimental_stims/body_parts/clay-banks-LjqARJaJotc-unsplash.jpg,Stimuli/Experimental_stims/objects/insung-yoon-w2JtIQQXoRU-unsplash.jpg,0,1,121,0,unchosen,24,41,body_parts,objects,1100,0,10,2
90,66833,0,91,2,2,1,gain3,no_gain3,L,B,32,5,body_parts,86,86,outdoor_scenes,Stimuli/Experimental_stims/body_parts/towfiqu-barbhuiya-3AsiVDsZnHg-unsplash.jpg,Stimuli/Experimental_stims/outdoor_scenes/jeff-king-bJHWJeiHfHc-unsplash.jpg,0,0,152,0,unchosen,5,32,outdoor_scenes,body_parts,2900,0,10,2
91,66833,0,92,2,2,1,gain5,no_gain4,H,A,23,47,faces,92,87,objects,Stimuli/Experimental_stims/faces/rikonavt-HQjfrvdTfak-unsplash.jpg,Stimuli/Experimental_stims/objects/ronaldo-arthur-vidal-Cdz_lvnl37k-unsplash.jpg,0,1,26,1,chosen,23,47,faces,objects,1600,0,10,2
92,66833,0,93,2,2,1,gain2,no_gain6,D,J,41,36,objects,86,88,objects,Stimuli/Experimental_stims/objects/insung-yoon-w2JtIQQXoRU-unsplash.jpg,Stimuli/Experimental_stims/objects/alexander-andrews-JYGnB9gTCls-unsplash.jpg,0,0,58,0,unchosen,36,41,objects,objects,1500,0,10,2
93,66833,0,94,2,2,0,no_gain5,gain6,F,I,24,10,body_parts,83,85,outdoor_scenes,Stimuli/Experimental_stims/body_parts/clay-banks-LjqARJaJotc-unsplash.jpg,Stimuli/Experimental_stims/outdoor_scenes/shannon-kunkle-dM8INmkyDas-unsplash.jpg,0,0,195,1,unchosen,10,24,outdoor_scenes,body_parts,3800,1,10,2
94,66833,0,95,2,2,0,no_gain6,gain4,J,E,14,39,faces,81,89,objects,Stimuli/Experimental_stims/faces/david-siglin-UuW4psOb388-unsplash.jpg,Stimuli/Experimental_stims/objects/charlesdeluvio-1-nx1QR5dTE-unsplash.jpg,0,0,30,1,chosen,39,14,objects,faces,1500,0,10,2
95,66833,0,96,2,2,1,gain5,no_gain2,H,C,4,35,outdoor_scenes,82,77,body_parts,Stimuli/Experimental_stims/outdoor_scenes/jarrett-kow-1ZOyYPOBn7I-unsplash.jpg,Stimuli/Experimental_stims/body_parts/wc-so-KH4AAPjb-tI-unsplash.jpg,0,0,60,0,unchosen,35,4,body_parts,outdoor_scenes,1000,0,10,2
96,66833,0,97,2,2,1,gain4,no_gain4,E,A,25,11,body_parts,87,78,outdoor_scenes,Stimuli/Experimental_stims/body_parts/engin-akyurt-Q2rfH3GW39c-unsplash.jpg,Stimuli/Experimental_stims/outdoor_scenes/stephen-leonardi-gyIRjKPXupE-unsplash.jpg,0,0,28,0,unchosen,11,25,outdoor_scenes,body_parts,1600,0,10,2
97,66833,0,98,2,2,0,no_gain5,gain3,F,L,22,21,faces,85,88,faces,Stimuli/Experimental_stims/faces/ravi-patel-VMGAbeeJTKo-unsplash.jpg,Stimuli/Experimental_stims/faces/leilani-angel-K84vnnzxmTQ-unsplash.jpg,0,1,92,0,chosen,22,21,faces,faces,1300,0,10,2
98,66833,0,99,2,2,1,gain2,no_gain4,D,A,20,47,faces,81,87,objects,Stimuli/Experimental_stims/faces/justin-chen-J7Cf1Gch49E-unsplash.jpg,Stimuli/Experimental_stims/objects/ronaldo-arthur-vidal-Cdz_lvnl37k-unsplash.jpg,0,0,44,0,chosen,47,20,objects,faces,3500,1,10,2
99,66833,0,100,2,2,0,no_gain2,gain4,C,E,2,39,outdoor_scenes,85,89,objects,Stimuli/Experimental_stims/outdoor_scenes/bruno-van-der-kraan-qez8mNJ3ilU-unsplash.jpg,Stimuli/Experimental_stims/objects/charlesdeluvio-1-nx1QR5dTE-unsplash.jpg,0,1,194,0,chosen,2,39,outdoor_scenes,objects,2500,0,10,2
100,66833,0,101,2,2,1,gain5,no_gain6,H,J,4,36,outdoor_scenes,82,88,objects,Stimuli/Experimental_stims/outdoor_scenes/jarrett-kow-1ZOyYPOBn7I-unsplash.jpg,Stimuli/Experimental_stims/objects/alexander-andrews-JYGnB9gTCls-unsplash.jpg,0,1,76,1,unchosen,4,36,outdoor_scenes,objects,1100,0,10,2
101,66833,0,102,2,2,1,gain3,no_gain3,L,B,21,13,faces,88,87,faces,Stimuli/Experimental_stims/faces/leilani-angel-K84vnnzxmTQ-unsplash.jpg,Stimuli/Experimental_stims/faces/daniel-rigdon-dXmXKPP2L4E-unsplash.jpg,0,0,128,0,chosen,13,21,faces,faces,1000,0,10,2
102,66833,0,103,2,2,0,no_gain2,gain1,C,K,35,31,body_parts,77,85,body_parts,Stimuli/Experimental_stims/body_parts/wc-so-KH4AAPjb-tI-unsplash.jpg,Stimuli/Experimental_stims/body_parts/sincerely-media-VN6DbKajo5s-unsplash.jpg,0,1,72,0,unchosen,35,31,body_parts,body_parts,2100,0,10,2
103,66833,0,104,2,2,1,gain4,no_gain4,E,A,39,47,objects,89,87,objects,Stimuli/Experimental_stims/objects/charlesdeluvio-1-nx1QR5dTE-unsplash.jpg,Stimuli/Experimental_stims/objects/ronaldo-arthur-vidal-Cdz_lvnl37k-unsplash.jpg,0,0,34,0,chosen,47,39,objects,objects,1300,0,10,2
104,66833,0,105,2,2,0,no_gain2,gain4,C,E,35,25,body_parts,77,87,body_parts,Stimuli/Experimental_stims/body_parts/wc-so-KH4AAPjb-tI-unsplash.jpg,Stimuli/Experimental_stims/body_parts/engin-akyurt-Q2rfH3GW39c-unsplash.jpg,0,0,1,1,unchosen,25,35,body_parts,body_parts,2000,0,10,2
105,66833,0,106,2,2,1,gain5,no_gain1,H,G,23,37,faces,92,90,objects,Stimuli/Experimental_stims/faces/rikonavt-HQjfrvdTfak-unsplash.jpg,Stimuli/Experimental_stims/objects/alexander-andrews-VLGWE_SumrA-unsplash.jpg,0,1,4,1,chosen,23,37,faces,objects,3100,1,10,2
106,66833,0,107,2,2,0,no_gain6,gain3,J,L,36,32,objects,88,86,body_parts,Stimuli/Experimental_stims/objects/alexander-andrews-JYGnB9gTCls-unsplash.jpg,Stimuli/Experimental_stims/body_parts/towfiqu-barbhuiya-3AsiVDsZnHg-unsplash.jpg,0,0,124,1,unchosen,32,36,body_parts,objects,1400,0,10,2
107,66833,0,108,2,2,1,gain6,no_gain1,I,G,28,37,body_parts,92,90,objects,Stimuli/Experimental_stims/body_parts/ira-vishnevskaya-8DQAvdCby1I-unsplash.jpg,Stimuli/Experimental_stims/objects/alexander-andrews-VLGWE_SumrA-unsplash.jpg,0,1,116,1,chosen,28,37,body_parts,objects,1300,0,10,2
108,66833,0,109,2,2,0,no_gain2,gain5,C,H,2,23,outdoor_scenes,85,92,faces,Stimuli/Experimental_stims/outdoor_scenes/bruno-van-der-kraan-qez8mNJ3ilU-unsplash.jpg,Stimuli/Experimental_stims/faces/rikonavt-HQjfrvdTfak-unsplash.jpg,0,0,205,1,chosen,23,2,faces,outdoor_scenes,1300,0,10,2
109,66833,0,110,2,2,0,no_gain5,gain5,F,H,24,4,body_parts,83,82,outdoor_scenes,Stimuli/Experimental_stims/body_parts/clay-banks-LjqARJaJotc-unsplash.jpg,Stimuli/Experimental_stims/outdoor_scenes/jarrett-kow-1ZOyYPOBn7I-unsplash.jpg,0,1,173,0,unchosen,24,4,body_parts,outdoor_scenes,1200,0,10,2
110,66833,0,111,2,2,0,no_gain5,gain1,F,K,24,31,body_parts,83,85,body_parts,Stimuli/Experimental_stims/body_parts/clay-banks-LjqARJaJotc-unsplash.jpg,Stimuli/Experimental_stims/body_parts/sincerely-media-VN6DbKajo5s-unsplash.jpg,0,1,1,0,unchosen,24,31,body_parts,body_parts,1300,0,10,2
111,66833,0,112,2,2,0,no_gain6,gain5,J,H,14,23,faces,81,92,faces,Stimuli/Experimental_stims/faces/david-siglin-UuW4psOb388-unsplash.jpg,Stimuli/Experimental_stims/faces/rikonavt-HQjfrvdTfak-unsplash.jpg,0,1,571,0,chosen,14,23,faces,faces,1100,0,10,2
112,66833,0,113,2,2,1,gain2,no_gain2,D,C,20,2,faces,81,85,outdoor_scenes,Stimuli/Experimental_stims/faces/justin-chen-J7Cf1Gch49E-unsplash.jpg,Stimuli/Experimental_stims/outdoor_scenes/bruno-van-der-kraan-qez8mNJ3ilU-unsplash.jpg,0,0,117,0,chosen,2,20,outdoor_scenes,faces,1900,0,10,2
113,66833,0,114,2,2,1,gain1,no_gain6,K,J,31,36,body_parts,85,88,objects,Stimuli/Experimental_stims/body_parts/sincerely-media-VN6DbKajo5s-unsplash.jpg,Stimuli/Experimental_stims/objects/alexander-andrews-JYGnB9gTCls-unsplash.jpg,0,1,234,1,unchosen,31,36,body_parts,objects,2100,0,10,2
114,66833,0,115,2,2,0,no_gain3,gain5,B,H,5,4,outdoor_scenes,86,82,outdoor_scenes,Stimuli/Experimental_stims/outdoor_scenes/jeff-king-bJHWJeiHfHc-unsplash.jpg,Stimuli/Experimental_stims/outdoor_scenes/jarrett-kow-1ZOyYPOBn7I-unsplash.jpg,0,0,90,1,unchosen,4,5,outdoor_scenes,outdoor_scenes,1400,0,10,2
115,66833,0,116,2,2,1,gain3,no_gain6,L,J,21,14,faces,88,81,faces,Stimuli/Experimental_stims/faces/leilani-angel-K84vnnzxmTQ-unsplash.jpg,Stimuli/Experimental_stims/faces/david-siglin-UuW4psOb388-unsplash.jpg,0,0,269,0,chosen,14,21,faces,faces,1100,0,10,2
116,66833,0,117,2,2,0,no_gain5,gain5,F,H,22,23,faces,85,92,faces,Stimuli/Experimental_stims/faces/ravi-patel-VMGAbeeJTKo-unsplash.jpg,Stimuli/Experimental_stims/faces/rikonavt-HQjfrvdTfak-unsplash.jpg,0,1,45,0,chosen,22,23,faces,faces,1600,0,10,2
117,66833,0,118,2,2,1,gain3,no_gain4,L,A,32,11,body_parts,86,78,outdoor_scenes,Stimuli/Experimental_stims/body_parts/towfiqu-barbhuiya-3AsiVDsZnHg-unsplash.jpg,Stimuli/Experimental_stims/outdoor_scenes/stephen-leonardi-gyIRjKPXupE-unsplash.jpg,0,1,193,1,unchosen,32,11,body_parts,outdoor_scenes,1300,0,10,2
118,66833,0,119,2,2,1,gain4,no_gain1,E,G,39,37,objects,89,90,objects,Stimuli/Experimental_stims/objects/charlesdeluvio-1-nx1QR5dTE-unsplash.jpg,Stimuli/Experimental_stims/objects/alexander-andrews-VLGWE_SumrA-unsplash.jpg,0,0,127,0,chosen,37,39,objects,objects,2500,0,10,2
119,66833,0,120,2,2,0,no_gain4,gain2,A,D,11,41,outdoor_scenes,78,86,objects,Stimuli/Experimental_stims/outdoor_scenes/stephen-leonardi-gyIRjKPXupE-unsplash.jpg,Stimuli/Experimental_stims/objects/insung-yoon-w2JtIQQXoRU-unsplash.jpg,0,1,241,0,unchosen,11,41,outdoor_scenes,objects,4300,1,10,2
120,66833,0,121,2,2,0,no_gain3,gain4,B,E,13,39,faces,87,89,objects,Stimuli/Experimental_stims/faces/daniel-rigdon-dXmXKPP2L4E-unsplash.jpg,Stimuli/Experimental_stims/objects/charlesdeluvio-1-nx1QR5dTE-unsplash.jpg,0,0,146,1,chosen,39,13,objects,faces,2400,0,10,2
121,66833,0,122,2,2,1,gain1,no_gain4,K,A,31,11,body_parts,85,78,outdoor_scenes,Stimuli/Experimental_stims/body_parts/sincerely-media-VN6DbKajo5s-unsplash.jpg,Stimuli/Experimental_stims/outdoor_scenes/stephen-leonardi-gyIRjKPXupE-unsplash.jpg,0,0,928,0,unchosen,11,31,outdoor_scenes,body_parts,1800,0,10,2
122,66833,0,123,2,2,1,gain6,no_gain3,I,B,28,13,body_parts,92,87,faces,Stimuli/Experimental_stims/body_parts/ira-vishnevskaya-8DQAvdCby1I-unsplash.jpg,Stimuli/Experimental_stims/faces/daniel-rigdon-dXmXKPP2L4E-unsplash.jpg,0,1,798,1,chosen,28,13,body_parts,faces,1000,0,10,2
123,66833,0,124,2,2,1,gain5,no_gain1,H,G,4,9,outdoor_scenes,82,84,outdoor_scenes,Stimuli/Experimental_stims/outdoor_scenes/jarrett-kow-1ZOyYPOBn7I-unsplash.jpg,Stimuli/Experimental_stims/outdoor_scenes/sergey-pesterev-y-b_FOmJXdg-unsplash.jpg,0,1,931,1,unchosen,4,9,outdoor_scenes,outdoor_scenes,2000,0,10,2
124,66833,0,125,2,2,1,gain3,no_gain2,L,C,32,35,body_parts,86,77,body_parts,Stimuli/Experimental_stims/body_parts/towfiqu-barbhuiya-3AsiVDsZnHg-unsplash.jpg,Stimuli/Experimental_stims/body_parts/wc-so-KH4AAPjb-tI-unsplash.jpg,0,1,778,1,unchosen,32,35,body_parts,body_parts,2700,0,10,2
125,66833,0,126,2,2,0,no_gain2,gain2,C,D,35,41,body_parts,77,86,objects,Stimuli/Experimental_stims/body_parts/wc-so-KH4AAPjb-tI-unsplash.jpg,Stimuli/Experimental_stims/objects/insung-yoon-w2JtIQQXoRU-unsplash.jpg,0,1,702,0,unchosen,35,41,body_parts,objects,2500,0,10,2
126,66833,0,127,2,2,0,no_gain4,gain1,A,K,47,46,objects,87,87,objects,Stimuli/Experimental_stims/objects/ronaldo-arthur-vidal-Cdz_lvnl37k-unsplash.jpg,Stimuli/Experimental_stims/objects/mockup-graphics-PNsj6RiHAF4-unsplash.jpg,0,1,354,0,chosen,47,46,objects,objects,1800,0,10,2
127,66833,0,128,2,2,1,gain4,no_gain6,E,J,25,36,body_parts,87,88,objects,Stimuli/Experimental_stims/body_parts/engin-akyurt-Q2rfH3GW39c-unsplash.jpg,Stimuli/Experimental_stims/objects/alexander-andrews-JYGnB9gTCls-unsplash.jpg,0,0,1065,0,unchosen,36,25,objects,body_parts,1200,0,10,2
128,66833,0,129,2,2,0,no_gain1,gain2,G,D,9,41,outdoor_scenes,84,86,objects,Stimuli/Experimental_stims/outdoor_scenes/sergey-pesterev-y-b_FOmJXdg-unsplash.jpg,Stimuli/Experimental_stims/objects/insung-yoon-w2JtIQQXoRU-unsplash.jpg,0,1,1064,0,unchosen,9,41,outdoor_scenes,objects,3800,1,10,2
129,66833,0,130,2,2,1,gain1,no_gain6,K,J,46,14,objects,87,81,faces,Stimuli/Experimental_stims/objects/mockup-graphics-PNsj6RiHAF4-unsplash.jpg,Stimuli/Experimental_stims/faces/david-siglin-UuW4psOb388-unsplash.jpg,0,0,540,0,chosen,14,46,faces,objects,1300,0,10,2
130,66833,0,131,2,2,1,gain6,no_gain4,I,A,10,11,outdoor_scenes,85,78,outdoor_scenes,Stimuli/Experimental_stims/outdoor_scenes/shannon-kunkle-dM8INmkyDas-unsplash.jpg,Stimuli/Experimental_stims/outdoor_scenes/stephen-leonardi-gyIRjKPXupE-unsplash.jpg,0,1,42,1,unchosen,10,11,outdoor_scenes,outdoor_scenes,2900,0,10,2
131,66833,0,132,2,2,0,no_gain5,gain2,F,D,22,20,faces,85,81,faces,Stimuli/Experimental_stims/faces/ravi-patel-VMGAbeeJTKo-unsplash.jpg,Stimuli/Experimental_stims/faces/justin-chen-J7Cf1Gch49E-unsplash.jpg,0,0,79,1,chosen,20,22,faces,faces,1200,0,10,2
132,66833,0,133,2,2,0,no_gain5,gain6,F,I,22,28,faces,85,92,body_parts,Stimuli/Experimental_stims/faces/ravi-patel-VMGAbeeJTKo-unsplash.jpg,Stimuli/Experimental_stims/body_parts/ira-vishnevskaya-8DQAvdCby1I-unsplash.jpg,0,0,62,1,chosen,28,22,body_parts,faces,1300,0,10,2
133,66833,0,134,2,2,0,no_gain2,gain6,C,I,35,10,body_parts,77,85,outdoor_scenes,Stimuli/Experimental_stims/body_parts/wc-so-KH4AAPjb-tI-unsplash.jpg,Stimuli/Experimental_stims/outdoor_scenes/shannon-kunkle-dM8INmkyDas-unsplash.jpg,0,0,51,1,unchosen,10,35,outdoor_scenes,body_parts,2500,0,10,2
134,66833,0,135,2,2,1,gain5,no_gain3,H,B,23,13,faces,92,87,faces,Stimuli/Experimental_stims/faces/rikonavt-HQjfrvdTfak-unsplash.jpg,Stimuli/Experimental_stims/faces/daniel-rigdon-dXmXKPP2L4E-unsplash.jpg,0,1,178,1,chosen,23,13,faces,faces,3000,0,10,2
135,66833,0,136,2,2,1,gain4,no_gain5,E,F,39,22,objects,89,85,faces,Stimuli/Experimental_stims/objects/charlesdeluvio-1-nx1QR5dTE-unsplash.jpg,Stimuli/Experimental_stims/faces/ravi-patel-VMGAbeeJTKo-unsplash.jpg,0,0,9,0,chosen,22,39,faces,objects,4200,1,10,2
136,66833,0,137,2,2,0,no_gain6,gain6,J,I,36,10,objects,88,85,outdoor_scenes,Stimuli/Experimental_stims/objects/alexander-andrews-JYGnB9gTCls-unsplash.jpg,Stimuli/Experimental_stims/outdoor_scenes/shannon-kunkle-dM8INmkyDas-unsplash.jpg,0,0,24,1,unchosen,10,36,outdoor_scenes,objects,1700,0,10,2
137,66833,0,138,2,2,0,no_gain3,gain1,B,K,13,46,faces,87,87,objects,Stimuli/Experimental_stims/faces/daniel-rigdon-dXmXKPP2L4E-unsplash.jpg,Stimuli/Experimental_stims/objects/mockup-graphics-PNsj6RiHAF4-unsplash.jpg,0,0,184,1,chosen,46,13,objects,faces,1300,0,10,2
138,66833,0,139,2,2,0,no_gain2,gain1,C,K,2,46,outdoor_scenes,85,87,objects,Stimuli/Experimental_stims/outdoor_scenes/bruno-van-der-kraan-qez8mNJ3ilU-unsplash.jpg,Stimuli/Experimental_stims/objects/mockup-graphics-PNsj6RiHAF4-unsplash.jpg,0,0,141,1,chosen,46,2,objects,outdoor_scenes,1100,0,10,2
139,66833,0,140,2,2,0,no_gain2,gain6,C,I,2,28,outdoor_scenes,85,92,body_parts,Stimuli/Experimental_stims/outdoor_scenes/bruno-van-der-kraan-qez8mNJ3ilU-unsplash.jpg,Stimuli/Experimental_stims/body_parts/ira-vishnevskaya-8DQAvdCby1I-unsplash.jpg,0,0,818,1,chosen,28,2,body_parts,outdoor_scenes,1300,0,10,2
140,66833,0,141,2,2,1,gain5,no_gain4,H,A,4,11,outdoor_scenes,82,78,outdoor_scenes,Stimuli/Experimental_stims/outdoor_scenes/jarrett-kow-1ZOyYPOBn7I-unsplash.jpg,Stimuli/Experimental_stims/outdoor_scenes/stephen-leonardi-gyIRjKPXupE-unsplash.jpg,0,1,475,1,unchosen,4,11,outdoor_scenes,outdoor_scenes,1500,0,10,2
141,66833,0,142,2,2,0,no_gain5,gain1,F,K,22,46,faces,85,87,objects,Stimuli/Experimental_stims/faces/ravi-patel-VMGAbeeJTKo-unsplash.jpg,Stimuli/Experimental_stims/objects/mockup-graphics-PNsj6RiHAF4-unsplash.jpg,0,1,68,0,chosen,22,46,faces,objects,1800,0,10,2
142,66833,0,143,2,2,0,no_gain1,gain4,G,E,9,25,outdoor_scenes,84,87,body_parts,Stimuli/Experimental_stims/outdoor_scenes/sergey-pesterev-y-b_FOmJXdg-unsplash.jpg,Stimuli/Experimental_stims/body_parts/engin-akyurt-Q2rfH3GW39c-unsplash.jpg,0,1,164,0,unchosen,9,25,outdoor_scenes,body_parts,1400,0,10,2
143,66833,0,144,2,2,1,gain3,no_gain5,L,F,32,24,body_parts,86,83,body_parts,Stimuli/Experimental_stims/body_parts/towfiqu-barbhuiya-3AsiVDsZnHg-unsplash.jpg,Stimuli/Experimental_stims/body_parts/clay-banks-LjqARJaJotc-unsplash.jpg,0,0,39,0,unchosen,24,32,body_parts,body_parts,1400,0,10,2
144,66833,0,145,2,2,0,no_gain4,gain3,A,L,47,21,objects,87,88,faces,Stimuli/Experimental_stims/objects/ronaldo-arthur-vidal-Cdz_lvnl37k-unsplash.jpg,Stimuli/Experimental_stims/faces/leilani-angel-K84vnnzxmTQ-unsplash.jpg,0,0,94,1,chosen,21,47,faces,objects,1600,0,10,2
145,66833,0,146,2,2,1,gain1,no_gain3,K,B,31,5,body_parts,85,86,outdoor_scenes,Stimuli/Experimental_stims/body_parts/sincerely-media-VN6DbKajo5s-unsplash.jpg,Stimuli/Experimental_stims/outdoor_scenes/jeff-king-bJHWJeiHfHc-unsplash.jpg,0,1,306,1,unchosen,31,5,body_parts,outdoor_scenes,2000,0,10,2
146,66833,0,147,2,2,0,no_gain1,gain1,G,K,9,31,outdoor_scenes,84,85,body_parts,Stimuli/Experimental_stims/outdoor_scenes/sergey-pesterev-y-b_FOmJXdg-unsplash.jpg,Stimuli/Experimental_stims/body_parts/sincerely-media-VN6DbKajo5s-unsplash.jpg,0,0,2,1,unchosen,31,9,body_parts,outdoor_scenes,2500,0,10,2
147,66833,0,148,2,2,1,gain2,no_gain3,D,B,20,13,faces,81,87,faces,Stimuli/Experimental_stims/faces/justin-chen-J7Cf1Gch49E-unsplash.jpg,Stimuli/Experimental_stims/faces/daniel-rigdon-dXmXKPP2L4E-unsplash.jpg,0,1,381,1,chosen,20,13,faces,faces,3300,1,10,2
148,66833,0,149,3,3,0,no_gain1,gain2,G,D,9,41,outdoor_scenes,84,86,objects,Stimuli/Experimental_stims/outdoor_scenes/sergey-pesterev-y-b_FOmJXdg-unsplash.jpg,Stimuli/Experimental_stims/objects/insung-yoon-w2JtIQQXoRU-unsplash.jpg,0,1,735,0,unchosen,9,41,outdoor_scenes,objects,2200,0,10,2
149,66833,0,150,3,3,1,gain2,no_gain4,D,A,41,11,objects,86,78,outdoor_scenes,Stimuli/Experimental_stims/objects/insung-yoon-w2JtIQQXoRU-unsplash.jpg,Stimuli/Experimental_stims/outdoor_scenes/stephen-leonardi-gyIRjKPXupE-unsplash.jpg,0,0,209,0,unchosen,11,41,outdoor_scenes,objects,1200,0,10,2
150,66833,0,151,3,3,0,no_gain5,gain1,F,K,24,31,body_parts,83,85,body_parts,Stimuli/Experimental_stims/body_parts/clay-banks-LjqARJaJotc-unsplash.jpg,Stimuli/Experimental_stims/body_parts/sincerely-media-VN6DbKajo5s-unsplash.jpg,0,0,115,1,unchosen,31,24,body_parts,body_parts,1700,0,10,2
151,66833,0,152,3,3,0,no_gain6,gain4,J,E,14,39,faces,81,89,objects,Stimuli/Experimental_stims/faces/david-siglin-UuW4psOb388-unsplash.jpg,Stimuli/Experimental_stims/objects/charlesdeluvio-1-nx1QR5dTE-unsplash.jpg,0,1,78,0,chosen,14,39,faces,objects,1100,0,10,2
152,66833,0,153,3,3,0,no_gain1,gain3,G,L,37,21,objects,90,88,faces,Stimuli/Experimental_stims/objects/alexander-andrews-VLGWE_SumrA-unsplash.jpg,Stimuli/Experimental_stims/faces/leilani-angel-K84vnnzxmTQ-unsplash.jpg,0,0,430,1,chosen,21,37,faces,objects,1000,0,10,2
153,66833,0,154,3,3,1,gain4,no_gain3,E,B,25,5,body_parts,87,86,outdoor_scenes,Stimuli/Experimental_stims/body_parts/engin-akyurt-Q2rfH3GW39c-unsplash.jpg,Stimuli/Experimental_stims/outdoor_scenes/jeff-king-bJHWJeiHfHc-unsplash.jpg,0,0,28,0,unchosen,5,25,outdoor_scenes,body_parts,1900,0,10,2
154,66833,0,155,3,3,1,gain3,no_gain3,L,B,32,5,body_parts,86,86,outdoor_scenes,Stimuli/Experimental_stims/body_parts/towfiqu-barbhuiya-3AsiVDsZnHg-unsplash.jpg,Stimuli/Experimental_stims/outdoor_scenes/jeff-king-bJHWJeiHfHc-unsplash.jpg,0,1,397,1,unchosen,32,5,body_parts,outdoor_scenes,4700,1,10,2
155,66833,0,156,3,3,1,gain5,no_gain5,H,F,23,22,faces,92,85,faces,Stimuli/Experimental_stims/faces/rikonavt-HQjfrvdTfak-unsplash.jpg,Stimuli/Experimental_stims/faces/ravi-patel-VMGAbeeJTKo-unsplash.jpg,0,0,206,0,chosen,22,23,faces,faces,2400,0,10,2
156,66833,0,157,3,3,1,gain6,no_gain3,I,B,10,5,outdoor_scenes,85,86,outdoor_scenes,Stimuli/Experimental_stims/outdoor_scenes/shannon-kunkle-dM8INmkyDas-unsplash.jpg,Stimuli/Experimental_stims/outdoor_scenes/jeff-king-bJHWJeiHfHc-unsplash.jpg,0,0,306,0,unchosen,5,10,outdoor_scenes,outdoor_scenes,1900,0,10,2
157,66833,0,158,3,3,1,gain1,no_gain4,K,A,46,47,objects,87,87,objects,Stimuli/Experimental_stims/objects/mockup-graphics-PNsj6RiHAF4-unsplash.jpg,Stimuli/Experimental_stims/objects/ronaldo-arthur-vidal-Cdz_lvnl37k-unsplash.jpg,0,1,144,1,chosen,46,47,objects,objects,1000,0,10,2
158,66833,0,159,3,3,0,no_gain2,gain6,C,I,2,28,outdoor_scenes,85,92,body_parts,Stimuli/Experimental_stims/outdoor_scenes/bruno-van-der-kraan-qez8mNJ3ilU-unsplash.jpg,Stimuli/Experimental_stims/body_parts/ira-vishnevskaya-8DQAvdCby1I-unsplash.jpg,0,1,159,0,chosen,2,28,outdoor_scenes,body_parts,1800,0,10,2
159,66833,0,160,3,3,1,gain4,no_gain4,E,A,25,11,body_parts,87,78,outdoor_scenes,Stimuli/Experimental_stims/body_parts/engin-akyurt-Q2rfH3GW39c-unsplash.jpg,Stimuli/Experimental_stims/outdoor_scenes/stephen-leonardi-gyIRjKPXupE-unsplash.jpg,0,0,14,0,unchosen,11,25,outdoor_scenes,body_parts,1800,0,10,2
160,66833,0,161,3,3,0,no_gain4,gain3,A,L,11,32,outdoor_scenes,78,86,body_parts,Stimuli/Experimental_stims/outdoor_scenes/stephen-leonardi-gyIRjKPXupE-unsplash.jpg,Stimuli/Experimental_stims/body_parts/towfiqu-barbhuiya-3AsiVDsZnHg-unsplash.jpg,0,1,279,0,unchosen,11,32,outdoor_scenes,body_parts,4700,1,10,2
161,66833,0,162,3,3,0,no_gain1,gain4,G,E,9,25,outdoor_scenes,84,87,body_parts,Stimuli/Experimental_stims/outdoor_scenes/sergey-pesterev-y-b_FOmJXdg-unsplash.jpg,Stimuli/Experimental_stims/body_parts/engin-akyurt-Q2rfH3GW39c-unsplash.jpg,0,0,42,1,unchosen,25,9,body_parts,outdoor_scenes,1300,0,10,2
162,66833,0,163,3,3,1,gain2,no_gain5,D,F,20,22,faces,81,85,faces,Stimuli/Experimental_stims/faces/justin-chen-J7Cf1Gch49E-unsplash.jpg,Stimuli/Experimental_stims/faces/ravi-patel-VMGAbeeJTKo-unsplash.jpg,0,1,151,1,chosen,20,22,faces,faces,1200,0,10,2
163,66833,0,164,3,3,0,no_gain3,gain4,B,E,13,39,faces,87,89,objects,Stimuli/Experimental_stims/faces/daniel-rigdon-dXmXKPP2L4E-unsplash.jpg,Stimuli/Experimental_stims/objects/charlesdeluvio-1-nx1QR5dTE-unsplash.jpg,0,0,74,1,chosen,39,13,objects,faces,1600,0,10,2
164,66833,0,165,3,3,0,no_gain2,gain5,C,H,35,4,body_parts,77,82,outdoor_scenes,Stimuli/Experimental_stims/body_parts/wc-so-KH4AAPjb-tI-unsplash.jpg,Stimuli/Experimental_stims/outdoor_scenes/jarrett-kow-1ZOyYPOBn7I-unsplash.jpg,0,0,170,1,unchosen,4,35,outdoor_scenes,body_parts,1200,0,10,2
165,66833,0,166,3,3,1,gain6,no_gain5,I,F,10,24,outdoor_scenes,85,83,body_parts,Stimuli/Experimental_stims/outdoor_scenes/shannon-kunkle-dM8INmkyDas-unsplash.jpg,Stimuli/Experimental_stims/body_parts/clay-banks-LjqARJaJotc-unsplash.jpg,0,1,46,1,unchosen,10,24,outdoor_scenes,body_parts,1100,0,10,2
166,66833,0,167,3,3,0,no_gain6,gain3,J,L,14,21,faces,81,88,faces,Stimuli/Experimental_stims/faces/david-siglin-UuW4psOb388-unsplash.jpg,Stimuli/Experimental_stims/faces/leilani-angel-K84vnnzxmTQ-unsplash.jpg,0,0,82,1,chosen,21,14,faces,faces,3100,1,10,2
167,66833,0,168,3,3,0,no_gain5,gain3,F,L,24,32,body_parts,83,86,body_parts,Stimuli/Experimental_stims/body_parts/clay-banks-LjqARJaJotc-unsplash.jpg,Stimuli/Experimental_stims/body_parts/towfiqu-barbhuiya-3AsiVDsZnHg-unsplash.jpg,0,0,28,1,unchosen,32,24,body_parts,body_parts,1500,0,10,2
168,66833,0,169,3,3,0,no_gain4,gain3,A,L,47,21,objects,87,88,faces,Stimuli/Experimental_stims/objects/ronaldo-arthur-vidal-Cdz_lvnl37k-unsplash.jpg,Stimuli/Experimental_stims/faces/leilani-angel-K84vnnzxmTQ-unsplash.jpg,0,1,494,0,chosen,47,21,objects,faces,1000,0,10,2
169,66833,0,170,3,3,0,no_gain5,gain2,F,D,24,41,body_parts,83,86,objects,Stimuli/Experimental_stims/body_parts/clay-banks-LjqARJaJotc-unsplash.jpg,Stimuli/Experimental_stims/objects/insung-yoon-w2JtIQQXoRU-unsplash.jpg,0,1,69,0,unchosen,24,41,body_parts,objects,1500,0,10,2
170,66833,0,171,3,3,0,no_gain3,gain2,B,D,13,20,faces,87,81,faces,Stimuli/Experimental_stims/faces/daniel-rigdon-dXmXKPP2L4E-unsplash.jpg,Stimuli/Experimental_stims/faces/justin-chen-J7Cf1Gch49E-unsplash.jpg,0,1,1,0,chosen,13,20,faces,faces,1400,0,10,2
171,66833,0,172,3,3,1,gain1,no_gain2,K,C,46,2,objects,87,85,outdoor_scenes,Stimuli/Experimental_stims/objects/mockup-graphics-PNsj6RiHAF4-unsplash.jpg,Stimuli/Experimental_stims/outdoor_scenes/bruno-van-der-kraan-qez8mNJ3ilU-unsplash.jpg,0,1,687,1,chosen,46,2,objects,outdoor_scenes,3500,1,10,2
172,66833,0,173,3,3,0,no_gain4,gain2,A,D,47,20,objects,87,81,faces,Stimuli/Experimental_stims/objects/ronaldo-arthur-vidal-Cdz_lvnl37k-unsplash.jpg,Stimuli/Experimental_stims/faces/justin-chen-J7Cf1Gch49E-unsplash.jpg,0,0,559,1,chosen,20,47,faces,objects,1600,0,10,2
173,66833,0,174,3,3,0,no_gain4,gain5,A,H,11,4,outdoor_scenes,78,82,outdoor_scenes,Stimuli/Experimental_stims/outdoor_scenes/stephen-leonardi-gyIRjKPXupE-unsplash.jpg,Stimuli/Experimental_stims/outdoor_scenes/jarrett-kow-1ZOyYPOBn7I-unsplash.jpg,0,1,714,0,unchosen,11,4,outdoor_scenes,outdoor_scenes,2200,0,10,2
174,66833,0,175,3,3,0,no_gain3,gain2,B,D,5,41,outdoor_scenes,86,86,objects,Stimuli/Experimental_stims/outdoor_scenes/jeff-king-bJHWJeiHfHc-unsplash.jpg,Stimuli/Experimental_stims/objects/insung-yoon-w2JtIQQXoRU-unsplash.jpg,0,1,447,0,unchosen,5,41,outdoor_scenes,objects,1200,0,10,2
175,66833,0,176,3,3,1,gain2,no_gain2,D,C,41,35,objects,86,77,body_parts,Stimuli/Experimental_stims/objects/insung-yoon-w2JtIQQXoRU-unsplash.jpg,Stimuli/Experimental_stims/body_parts/wc-so-KH4AAPjb-tI-unsplash.jpg,0,1,44,1,unchosen,41,35,objects,body_parts,1900,0,10,2
176,66833,0,177,3,3,0,no_gain6,gain5,J,H,14,23,faces,81,92,faces,Stimuli/Experimental_stims/faces/david-siglin-UuW4psOb388-unsplash.jpg,Stimuli/Experimental_stims/faces/rikonavt-HQjfrvdTfak-unsplash.jpg,0,1,169,0,chosen,14,23,faces,faces,2000,0,10,2
177,66833,0,178,3,3,1,gain6,no_gain1,I,G,28,37,body_parts,92,90,objects,Stimuli/Experimental_stims/body_parts/ira-vishnevskaya-8DQAvdCby1I-unsplash.jpg,Stimuli/Experimental_stims/objects/alexander-andrews-VLGWE_SumrA-unsplash.jpg,0,1,270,1,chosen,28,37,body_parts,objects,1800,0,10,2
178,66833,0,179,3,3,0,no_gain1,gain2,G,D,37,20,objects,90,81,faces,Stimuli/Experimental_stims/objects/alexander-andrews-VLGWE_SumrA-unsplash.jpg,Stimuli/Experimental_stims/faces/justin-chen-J7Cf1Gch49E-unsplash.jpg,0,1,29,0,chosen,37,20,objects,faces,2200,0,10,2
179,66833,0,180,3,3,0,no_gain2,gain3,C,L,35,32,body_parts,77,86,body_parts,Stimuli/Experimental_stims/body_parts/wc-so-KH4AAPjb-tI-unsplash.jpg,Stimuli/Experimental_stims/body_parts/towfiqu-barbhuiya-3AsiVDsZnHg-unsplash.jpg,0,1,83,0,unchosen,35,32,body_parts,body_parts,2300,0,10,2
180,66833,0,181,3,3,1,gain6,no_gain3,I,B,28,13,body_parts,92,87,faces,Stimuli/Experimental_stims/body_parts/ira-vishnevskaya-8DQAvdCby1I-unsplash.jpg,Stimuli/Experimental_stims/faces/daniel-rigdon-dXmXKPP2L4E-unsplash.jpg,0,0,69,0,chosen,13,28,faces,body_parts,4300,1,10,2
181,66833,0,182,3,3,1,gain5,no_gain3,H,B,23,13,faces,92,87,faces,Stimuli/Experimental_stims/faces/rikonavt-HQjfrvdTfak-unsplash.jpg,Stimuli/Experimental_stims/faces/daniel-rigdon-dXmXKPP2L4E-unsplash.jpg,0,1,215,1,chosen,23,13,faces,faces,1600,0,10,2
182,66833,0,183,3,3,0,no_gain2,gain4,C,E,35,25,body_parts,77,87,body_parts,Stimuli/Experimental_stims/body_parts/wc-so-KH4AAPjb-tI-unsplash.jpg,Stimuli/Experimental_stims/body_parts/engin-akyurt-Q2rfH3GW39c-unsplash.jpg,0,1,45,0,unchosen,35,25,body_parts,body_parts,1600,0,10,2
183,66833,0,184,3,3,1,gain3,no_gain1,L,G,32,9,body_parts,86,84,outdoor_scenes,Stimuli/Experimental_stims/body_parts/towfiqu-barbhuiya-3AsiVDsZnHg-unsplash.jpg,Stimuli/Experimental_stims/outdoor_scenes/sergey-pesterev-y-b_FOmJXdg-unsplash.jpg,0,1,190,1,unchosen,32,9,body_parts,outdoor_scenes,1100,0,10,2
184,66833,0,185,3,3,1,gain6,no_gain6,I,J,28,14,body_parts,92,81,faces,Stimuli/Experimental_stims/body_parts/ira-vishnevskaya-8DQAvdCby1I-unsplash.jpg,Stimuli/Experimental_stims/faces/david-siglin-UuW4psOb388-unsplash.jpg,0,1,331,1,chosen,28,14,body_parts,faces,1000,0,10,2
185,66833,0,186,3,3,0,no_gain1,gain5,G,H,37,23,objects,90,92,faces,Stimuli/Experimental_stims/objects/alexander-andrews-VLGWE_SumrA-unsplash.jpg,Stimuli/Experimental_stims/faces/rikonavt-HQjfrvdTfak-unsplash.jpg,0,1,85,0,chosen,37,23,objects,faces,1000,0,10,2
186,66833,0,187,3,3,0,no_gain1,gain5,G,H,9,4,outdoor_scenes,84,82,outdoor_scenes,Stimuli/Experimental_stims/outdoor_scenes/sergey-pesterev-y-b_FOmJXdg-unsplash.jpg,Stimuli/Experimental_stims/outdoor_scenes/jarrett-kow-1ZOyYPOBn7I-unsplash.jpg,0,0,88,1,unchosen,4,9,outdoor_scenes,outdoor_scenes,3000,1,10,2
187,66833,0,188,3,3,1,gain4,no_gain1,E,G,39,37,objects,89,90,objects,Stimuli/Experimental_stims/objects/charlesdeluvio-1-nx1QR5dTE-unsplash.jpg,Stimuli/Experimental_stims/objects/alexander-andrews-VLGWE_SumrA-unsplash.jpg,0,1,331,1,chosen,39,37,objects,objects,1000,0,10,2
188,66833,0,189,3,3,1,gain3,no_gain3,L,B,21,13,faces,88,87,faces,Stimuli/Experimental_stims/faces/leilani-angel-K84vnnzxmTQ-unsplash.jpg,Stimuli/Experimental_stims/faces/daniel-rigdon-dXmXKPP2L4E-unsplash.jpg,0,1,291,1,chosen,21,13,faces,faces,1600,0,10,2
189,66833,0,190,3,3,0,no_gain2,gain5,C,H,2,23,outdoor_scenes,85,92,faces,Stimuli/Experimental_stims/outdoor_scenes/bruno-van-der-kraan-qez8mNJ3ilU-unsplash.jpg,Stimuli/Experimental_stims/faces/rikonavt-HQjfrvdTfak-unsplash.jpg,0,0,20,1,chosen,23,2,faces,outdoor_scenes,1500,0,10,2
190,66833,0,191,3,3,0,no_gain1,gain6,G,I,9,10,outdoor_scenes,84,85,outdoor_scenes,Stimuli/Experimental_stims/outdoor_scenes/sergey-pesterev-y-b_FOmJXdg-unsplash.jpg,Stimuli/Experimental_stims/outdoor_scenes/shannon-kunkle-dM8INmkyDas-unsplash.jpg,0,0,58,1,unchosen,10,9,outdoor_scenes,outdoor_scenes,1700,0,10,2
191,66833,0,192,3,3,1,gain5,no_gain6,H,J,4,36,outdoor_scenes,82,88,objects,Stimuli/Experimental_stims/outdoor_scenes/jarrett-kow-1ZOyYPOBn7I-unsplash.jpg,Stimuli/Experimental_stims/objects/alexander-andrews-JYGnB9gTCls-unsplash.jpg,0,1,447,1,unchosen,4,36,outdoor_scenes,objects,1300,0,10,2
192,66833,0,193,3,3,0,no_gain5,gain4,F,E,24,25,body_parts,83,87,body_parts,Stimuli/Experimental_stims/body_parts/clay-banks-LjqARJaJotc-unsplash.jpg,Stimuli/Experimental_stims/body_parts/engin-akyurt-Q2rfH3GW39c-unsplash.jpg,0,1,46,0,unchosen,24,25,body_parts,body_parts,1300,0,10,2
193,66833,0,194,3,3,1,gain1,no_gain5,K,F,46,22,objects,87,85,faces,Stimuli/Experimental_stims/objects/mockup-graphics-PNsj6RiHAF4-unsplash.jpg,Stimuli/Experimental_stims/faces/ravi-patel-VMGAbeeJTKo-unsplash.jpg,0,0,4,0,chosen,22,46,faces,objects,3600,1,10,2
194,66833,0,195,3,3,1,gain6,no_gain4,I,A,10,11,outdoor_scenes,85,78,outdoor_scenes,Stimuli/Experimental_stims/outdoor_scenes/shannon-kunkle-dM8INmkyDas-unsplash.jpg,Stimuli/Experimental_stims/outdoor_scenes/stephen-leonardi-gyIRjKPXupE-unsplash.jpg,0,0,3,0,unchosen,11,10,outdoor_scenes,outdoor_scenes,2100,0,10,2
195,66833,0,196,3,3,1,gain1,no_gain1,K,G,46,37,objects,87,90,objects,Stimuli/Experimental_stims/objects/mockup-graphics-PNsj6RiHAF4-unsplash.jpg,Stimuli/Experimental_stims/objects/alexander-andrews-VLGWE_SumrA-unsplash.jpg,0,0,69,0,chosen,37,46,objects,objects,1600,0,10,2
196,66833,0,197,3,3,1,gain4,no_gain6,E,J,25,36,body_parts,87,88,objects,Stimuli/Experimental_stims/body_parts/engin-akyurt-Q2rfH3GW39c-unsplash.jpg,Stimuli/Experimental_stims/objects/alexander-andrews-JYGnB9gTCls-unsplash.jpg,0,0,709,0,unchosen,36,25,objects,body_parts,1800,0,10,2
197,66833,0,198,3,3,1,gain3,no_gain6,L,J,32,36,body_parts,86,88,objects,Stimuli/Experimental_stims/body_parts/towfiqu-barbhuiya-3AsiVDsZnHg-unsplash.jpg,Stimuli/Experimental_stims/objects/alexander-andrews-JYGnB9gTCls-unsplash.jpg,0,1,644,1,unchosen,32,36,body_parts,objects,1600,0,10,2
198,66833,0,199,3,3,1,gain1,no_gain3,K,B,46,13,objects,87,87,faces,Stimuli/Experimental_stims/objects/mockup-graphics-PNsj6RiHAF4-unsplash.jpg,Stimuli/Experimental_stims/faces/daniel-rigdon-dXmXKPP2L4E-unsplash.jpg,0,1,770,1,chosen,46,13,objects,faces,3100,1,10,2
199,66833,0,200,3,3,0,no_gain5,gain4,F,E,22,39,faces,85,89,objects,Stimuli/Experimental_stims/faces/ravi-patel-VMGAbeeJTKo-unsplash.jpg,Stimuli/Experimental_stims/objects/charlesdeluvio-1-nx1QR5dTE-unsplash.jpg,0,1,652,0,chosen,22,39,faces,objects,2500,0,10,2
200,66833,0,201,3,3,0,no_gain1,gain1,G,K,9,31,outdoor_scenes,84,85,body_parts,Stimuli/Experimental_stims/outdoor_scenes/sergey-pesterev-y-b_FOmJXdg-unsplash.jpg,Stimuli/Experimental_stims/body_parts/sincerely-media-VN6DbKajo5s-unsplash.jpg,0,0,611,1,unchosen,31,9,body_parts,outdoor_scenes,2000,0,10,2
201,66833,0,202,3,3,0,no_gain4,gain4,A,E,47,39,objects,87,89,objects,Stimuli/Experimental_stims/objects/ronaldo-arthur-vidal-Cdz_lvnl37k-unsplash.jpg,Stimuli/Experimental_stims/objects/charlesdeluvio-1-nx1QR5dTE-unsplash.jpg,0,1,771,0,chosen,47,39,objects,objects,2100,0,10,2
202,66833,0,203,3,3,1,gain3,no_gain5,L,F,21,22,faces,88,85,faces,Stimuli/Experimental_stims/faces/leilani-angel-K84vnnzxmTQ-unsplash.jpg,Stimuli/Experimental_stims/faces/ravi-patel-VMGAbeeJTKo-unsplash.jpg,0,0,862,0,chosen,22,21,faces,faces,1200,0,10,2
203,66833,0,204,3,3,1,gain1,no_gain6,K,J,31,36,body_parts,85,88,objects,Stimuli/Experimental_stims/body_parts/sincerely-media-VN6DbKajo5s-unsplash.jpg,Stimuli/Experimental_stims/objects/alexander-andrews-JYGnB9gTCls-unsplash.jpg,0,1,713,1,unchosen,31,36,body_parts,objects,3300,1,10,2
204,66833,0,205,3,3,1,gain3,no_gain2,L,C,21,2,faces,88,85,outdoor_scenes,Stimuli/Experimental_stims/faces/leilani-angel-K84vnnzxmTQ-unsplash.jpg,Stimuli/Experimental_stims/outdoor_scenes/bruno-van-der-kraan-qez8mNJ3ilU-unsplash.jpg,0,0,606,0,chosen,2,21,outdoor_scenes,faces,2100,0,10,2
205,66833,0,206,3,3,0,no_gain4,gain5,A,H,47,23,objects,87,92,faces,Stimuli/Experimental_stims/objects/ronaldo-arthur-vidal-Cdz_lvnl37k-unsplash.jpg,Stimuli/Experimental_stims/faces/rikonavt-HQjfrvdTfak-unsplash.jpg,0,1,803,0,chosen,47,23,objects,faces,2100,0,10,2
206,66833,0,207,3,3,1,gain2,no_gain6,D,J,20,14,faces,81,81,faces,Stimuli/Experimental_stims/faces/justin-chen-J7Cf1Gch49E-unsplash.jpg,Stimuli/Experimental_stims/faces/david-siglin-UuW4psOb388-unsplash.jpg,0,0,822,0,chosen,14,20,faces,faces,2600,0,10,2
207,66833,0,208,3,3,1,gain1,no_gain2,K,C,31,35,body_parts,85,77,body_parts,Stimuli/Experimental_stims/body_parts/sincerely-media-VN6DbKajo5s-unsplash.jpg,Stimuli/Experimental_stims/body_parts/wc-so-KH4AAPjb-tI-unsplash.jpg,0,0,576,0,unchosen,35,31,body_parts,body_parts,2800,0,10,2
208,66833,0,209,3,3,1,gain1,no_gain4,K,A,31,11,body_parts,85,78,outdoor_scenes,Stimuli/Experimental_stims/body_parts/sincerely-media-VN6DbKajo5s-unsplash.jpg,Stimuli/Experimental_stims/outdoor_scenes/stephen-leonardi-gyIRjKPXupE-unsplash.jpg,0,1,619,1,unchosen,31,11,body_parts,outdoor_scenes,2100,0,10,2
209,66833,0,210,3,3,0,no_gain6,gain1,J,K,14,46,faces,81,87,objects,Stimuli/Experimental_stims/faces/david-siglin-UuW4psOb388-unsplash.jpg,Stimuli/Experimental_stims/objects/mockup-graphics-PNsj6RiHAF4-unsplash.jpg,0,1,696,0,chosen,14,46,faces,objects,1300,0,10,2
210,66833,0,211,3,3,0,no_gain5,gain6,F,I,22,28,faces,85,92,body_parts,Stimuli/Experimental_stims/faces/ravi-patel-VMGAbeeJTKo-unsplash.jpg,Stimuli/Experimental_stims/body_parts/ira-vishnevskaya-8DQAvdCby1I-unsplash.jpg,0,0,944,1,chosen,28,22,body_parts,faces,3900,1,10,2
211,66833,0,212,3,3,0,no_gain2,gain6,C,I,35,10,body_parts,77,85,outdoor_scenes,Stimuli/Experimental_stims/body_parts/wc-so-KH4AAPjb-tI-unsplash.jpg,Stimuli/Experimental_stims/outdoor_scenes/shannon-kunkle-dM8INmkyDas-unsplash.jpg,0,1,662,0,unchosen,35,10,body_parts,outdoor_scenes,1600,0,10,2
212,66833,0,213,3,3,1,gain4,no_gain2,E,C,39,2,objects,89,85,outdoor_scenes,Stimuli/Experimental_stims/objects/charlesdeluvio-1-nx1QR5dTE-unsplash.jpg,Stimuli/Experimental_stims/outdoor_scenes/bruno-van-der-kraan-qez8mNJ3ilU-unsplash.jpg,0,0,1106,0,chosen,2,39,outdoor_scenes,objects,1300,0,10,2
213,66833,0,214,3,3,0,no_gain3,gain5,B,H,5,4,outdoor_scenes,86,82,outdoor_scenes,Stimuli/Experimental_stims/outdoor_scenes/jeff-king-bJHWJeiHfHc-unsplash.jpg,Stimuli/Experimental_stims/outdoor_scenes/jarrett-kow-1ZOyYPOBn7I-unsplash.jpg,0,0,989,1,unchosen,4,5,outdoor_scenes,outdoor_scenes,1700,0,10,2
214,66833,0,215,3,3,1,gain2,no_gain6,D,J,41,36,objects,86,88,objects,Stimuli/Experimental_stims/objects/insung-yoon-w2JtIQQXoRU-unsplash.jpg,Stimuli/Experimental_stims/objects/alexander-andrews-JYGnB9gTCls-unsplash.jpg,0,0,535,0,unchosen,36,41,objects,objects,1600,0,10,2
215,66833,0,216,3,3,0,no_gain4,gain6,A,I,47,28,objects,87,92,body_parts,Stimuli/Experimental_stims/objects/ronaldo-arthur-vidal-Cdz_lvnl37k-unsplash.jpg,Stimuli/Experimental_stims/body_parts/ira-vishnevskaya-8DQAvdCby1I-unsplash.jpg,0,0,196,1,chosen,28,47,body_parts,objects,3600,1,10,2
216,66833,0,217,3,3,1,gain5,no_gain5,H,F,4,24,outdoor_scenes,82,83,body_parts,Stimuli/Experimental_stims/outdoor_scenes/jarrett-kow-1ZOyYPOBn7I-unsplash.jpg,Stimuli/Experimental_stims/body_parts/clay-banks-LjqARJaJotc-unsplash.jpg,0,0,175,0,unchosen,24,4,body_parts,outdoor_scenes,2700,0,10,2
217,66833,0,218,3,3,1,gain2,no_gain2,D,C,20,2,faces,81,85,outdoor_scenes,Stimuli/Experimental_stims/faces/justin-chen-J7Cf1Gch49E-unsplash.jpg,Stimuli/Experimental_stims/outdoor_scenes/bruno-van-der-kraan-qez8mNJ3ilU-unsplash.jpg,0,0,261,0,chosen,2,20,outdoor_scenes,faces,2800,0,10,2
218,66833,0,219,3,3,0,no_gain6,gain6,J,I,36,10,objects,88,85,outdoor_scenes,Stimuli/Experimental_stims/objects/alexander-andrews-JYGnB9gTCls-unsplash.jpg,Stimuli/Experimental_stims/outdoor_scenes/shannon-kunkle-dM8INmkyDas-unsplash.jpg,0,0,271,1,unchosen,10,36,outdoor_scenes,objects,2800,0,10,2
219,66833,0,220,3,3,1,gain1,no_gain3,K,B,31,5,body_parts,85,86,outdoor_scenes,Stimuli/Experimental_stims/body_parts/sincerely-media-VN6DbKajo5s-unsplash.jpg,Stimuli/Experimental_stims/outdoor_scenes/jeff-king-bJHWJeiHfHc-unsplash.jpg,0,1,208,1,unchosen,31,5,body_parts,outdoor_scenes,1100,0,10,2
220,66833,0,221,4,4,0,no_gain6,gain2,J,D,14,20,faces,81,81,faces,Stimuli/Experimental_stims/faces/david-siglin-UuW4psOb388-unsplash.jpg,Stimuli/Experimental_stims/faces/justin-chen-J7Cf1Gch49E-unsplash.jpg,0,1,1058,0,chosen,14,20,faces,faces,4200,1,9,2
221,66833,0,222,4,4,1,gain4,no_gain2,E,C,25,35,body_parts,87,77,body_parts,Stimuli/Experimental_stims/body_parts/engin-akyurt-Q2rfH3GW39c-unsplash.jpg,Stimuli/Experimental_stims/body_parts/wc-so-KH4AAPjb-tI-unsplash.jpg,0,0,463,0,unchosen,35,25,body_parts,body_parts,2400,0,9,2
222,66833,0,223,4,4,1,gain2,no_gain1,D,G,20,37,faces,81,90,objects,Stimuli/Experimental_stims/faces/justin-chen-J7Cf1Gch49E-unsplash.jpg,Stimuli/Experimental_stims/objects/alexander-andrews-VLGWE_SumrA-unsplash.jpg,0,1,213,1,chosen,20,37,faces,objects,1200,0,9,2
223,66833,0,224,4,4,0,no_gain4,gain4,A,E,47,39,objects,87,89,objects,Stimuli/Experimental_stims/objects/ronaldo-arthur-vidal-Cdz_lvnl37k-unsplash.jpg,Stimuli/Experimental_stims/objects/charlesdeluvio-1-nx1QR5dTE-unsplash.jpg,0,0,178,1,chosen,39,47,objects,objects,1400,0,9,2
224,66833,0,225,4,4,0,no_gain4,gain6,A,I,11,10,outdoor_scenes,78,85,outdoor_scenes,Stimuli/Experimental_stims/outdoor_scenes/stephen-leonardi-gyIRjKPXupE-unsplash.jpg,Stimuli/Experimental_stims/outdoor_scenes/shannon-kunkle-dM8INmkyDas-unsplash.jpg,0,1,55,0,unchosen,11,10,outdoor_scenes,outdoor_scenes,1800,0,9,2
225,66833,0,226,4,4,0,no_gain4,gain5,A,H,11,4,outdoor_scenes,78,82,outdoor_scenes,Stimuli/Experimental_stims/outdoor_scenes/stephen-leonardi-gyIRjKPXupE-unsplash.jpg,Stimuli/Experimental_stims/outdoor_scenes/jarrett-kow-1ZOyYPOBn7I-unsplash.jpg,0,0,140,1,unchosen,4,11,outdoor_scenes,outdoor_scenes,2200,0,9,2
226,66833,0,227,4,4,1,gain4,no_gain1,E,G,39,37,objects,89,90,objects,Stimuli/Experimental_stims/objects/charlesdeluvio-1-nx1QR5dTE-unsplash.jpg,Stimuli/Experimental_stims/objects/alexander-andrews-VLGWE_SumrA-unsplash.jpg,0,1,57,1,chosen,39,37,objects,objects,4000,1,9,2
227,66833,0,228,4,4,1,gain3,no_gain2,L,C,21,2,faces,88,85,outdoor_scenes,Stimuli/Experimental_stims/faces/leilani-angel-K84vnnzxmTQ-unsplash.jpg,Stimuli/Experimental_stims/outdoor_scenes/bruno-van-der-kraan-qez8mNJ3ilU-unsplash.jpg,0,0,305,0,chosen,2,21,outdoor_scenes,faces,1900,0,9,2
228,66833,0,229,4,4,0,no_gain5,gain4,F,E,22,39,faces,85,89,objects,Stimuli/Experimental_stims/faces/ravi-patel-VMGAbeeJTKo-unsplash.jpg,Stimuli/Experimental_stims/objects/charlesdeluvio-1-nx1QR5dTE-unsplash.jpg,0,0,218,1,chosen,39,22,objects,faces,1800,0,9,2
229,66833,0,230,4,4,0,no_gain4,gain3,A,L,11,32,outdoor_scenes,78,86,body_parts,Stimuli/Experimental_stims/outdoor_scenes/stephen-leonardi-gyIRjKPXupE-unsplash.jpg,Stimuli/Experimental_stims/body_parts/towfiqu-barbhuiya-3AsiVDsZnHg-unsplash.jpg,0,1,217,0,unchosen,11,32,outdoor_scenes,body_parts,1200,0,9,2
230,66833,0,231,4,4,0,no_gain3,gain5,B,H,5,4,outdoor_scenes,86,82,outdoor_scenes,Stimuli/Experimental_stims/outdoor_scenes/jeff-king-bJHWJeiHfHc-unsplash.jpg,Stimuli/Experimental_stims/outdoor_scenes/jarrett-kow-1ZOyYPOBn7I-unsplash.jpg,0,1,282,0,unchosen,5,4,outdoor_scenes,outdoor_scenes,1700,0,9,2
231,66833,0,232,4,4,0,no_gain2,gain5,C,H,35,4,body_parts,77,82,outdoor_scenes,Stimuli/Experimental_stims/body_parts/wc-so-KH4AAPjb-tI-unsplash.jpg,Stimuli/Experimental_stims/outdoor_scenes/jarrett-kow-1ZOyYPOBn7I-unsplash.jpg,0,1,175,0,unchosen,35,4,body_parts,outdoor_scenes,3500,1,9,2
232,66833,0,233,4,4,1,gain3,no_gain3,L,B,21,13,faces,88,87,faces,Stimuli/Experimental_stims/faces/leilani-angel-K84vnnzxmTQ-unsplash.jpg,Stimuli/Experimental_stims/faces/daniel-rigdon-dXmXKPP2L4E-unsplash.jpg,0,1,77,1,chosen,21,13,faces,faces,1700,0,9,2
233,66833,0,234,4,4,1,gain2,no_gain2,D,C,41,35,objects,86,77,body_parts,Stimuli/Experimental_stims/objects/insung-yoon-w2JtIQQXoRU-unsplash.jpg,Stimuli/Experimental_stims/body_parts/wc-so-KH4AAPjb-tI-unsplash.jpg,0,1,222,1,unchosen,41,35,objects,body_parts,2000,0,9,2
234,66833,0,235,4,4,0,no_gain6,gain5,J,H,36,4,objects,88,82,outdoor_scenes,Stimuli/Experimental_stims/objects/alexander-andrews-JYGnB9gTCls-unsplash.jpg,Stimuli/Experimental_stims/outdoor_scenes/jarrett-kow-1ZOyYPOBn7I-unsplash.jpg,0,0,298,1,unchosen,4,36,outdoor_scenes,objects,1300,0,9,2
235,66833,0,236,4,4,1,gain6,no_gain1,I,G,28,37,body_parts,92,90,objects,Stimuli/Experimental_stims/body_parts/ira-vishnevskaya-8DQAvdCby1I-unsplash.jpg,Stimuli/Experimental_stims/objects/alexander-andrews-VLGWE_SumrA-unsplash.jpg,0,0,226,0,chosen,37,28,objects,body_parts,1400,0,9,2
236,66833,0,237,4,4,1,gain1,no_gain4,K,A,31,11,body_parts,85,78,outdoor_scenes,Stimuli/Experimental_stims/body_parts/sincerely-media-VN6DbKajo5s-unsplash.jpg,Stimuli/Experimental_stims/outdoor_scenes/stephen-leonardi-gyIRjKPXupE-unsplash.jpg,0,0,198,0,unchosen,11,31,outdoor_scenes,body_parts,3600,1,9,2
237,66833,0,238,4,4,0,no_gain3,gain4,B,E,13,39,faces,87,89,objects,Stimuli/Experimental_stims/faces/daniel-rigdon-dXmXKPP2L4E-unsplash.jpg,Stimuli/Experimental_stims/objects/charlesdeluvio-1-nx1QR5dTE-unsplash.jpg,0,1,193,0,chosen,13,39,faces,objects,2700,0,9,2
238,66833,0,239,4,4,0,no_gain5,gain1,F,K,24,31,body_parts,83,85,body_parts,Stimuli/Experimental_stims/body_parts/clay-banks-LjqARJaJotc-unsplash.jpg,Stimuli/Experimental_stims/body_parts/sincerely-media-VN6DbKajo5s-unsplash.jpg,0,1,319,0,unchosen,24,31,body_parts,body_parts,1900,0,9,2
239,66833,0,240,4,4,0,no_gain1,gain3,G,L,9,32,outdoor_scenes,84,86,body_parts,Stimuli/Experimental_stims/outdoor_scenes/sergey-pesterev-y-b_FOmJXdg-unsplash.jpg,Stimuli/Experimental_stims/body_parts/towfiqu-barbhuiya-3AsiVDsZnHg-unsplash.jpg,0,1,21,0,unchosen,9,32,outdoor_scenes,body_parts,1200,0,9,2
240,66833,0,241,4,4,0,no_gain2,gain1,C,K,35,31,body_parts,77,85,body_parts,Stimuli/Experimental_stims/body_parts/wc-so-KH4AAPjb-tI-unsplash.jpg,Stimuli/Experimental_stims/body_parts/sincerely-media-VN6DbKajo5s-unsplash.jpg,0,0,102,1,unchosen,31,35,body_parts,body_parts,1000,0,9,2
241,66833,0,242,4,4,1,gain3,no_gain4,L,A,21,47,faces,88,87,objects,Stimuli/Experimental_stims/faces/leilani-angel-K84vnnzxmTQ-unsplash.jpg,Stimuli/Experimental_stims/objects/ronaldo-arthur-vidal-Cdz_lvnl37k-unsplash.jpg,0,1,192,1,chosen,21,47,faces,objects,3700,1,9,2
242,66833,0,243,4,4,0,no_gain4,gain1,A,K,47,46,objects,87,87,objects,Stimuli/Experimental_stims/objects/ronaldo-arthur-vidal-Cdz_lvnl37k-unsplash.jpg,Stimuli/Experimental_stims/objects/mockup-graphics-PNsj6RiHAF4-unsplash.jpg,0,1,19,0,chosen,47,46,objects,objects,1200,0,9,2
243,66833,0,244,4,4,1,gain2,no_gain3,D,B,41,5,objects,86,86,outdoor_scenes,Stimuli/Experimental_stims/objects/insung-yoon-w2JtIQQXoRU-unsplash.jpg,Stimuli/Experimental_stims/outdoor_scenes/jeff-king-bJHWJeiHfHc-unsplash.jpg,0,0,88,0,unchosen,5,41,outdoor_scenes,objects,2600,0,9,2
244,66833,0,245,4,4,1,gain4,no_gain4,E,A,25,11,body_parts,87,78,outdoor_scenes,Stimuli/Experimental_stims/body_parts/engin-akyurt-Q2rfH3GW39c-unsplash.jpg,Stimuli/Experimental_stims/outdoor_scenes/stephen-leonardi-gyIRjKPXupE-unsplash.jpg,0,0,205,0,unchosen,11,25,outdoor_scenes,body_parts,2400,0,9,2
245,66833,0,246,4,4,1,gain2,no_gain6,D,J,41,36,objects,86,88,objects,Stimuli/Experimental_stims/objects/insung-yoon-w2JtIQQXoRU-unsplash.jpg,Stimuli/Experimental_stims/objects/alexander-andrews-JYGnB9gTCls-unsplash.jpg,0,0,218,0,unchosen,36,41,objects,objects,1200,0,9,2
246,66833,0,247,4,4,0,no_gain6,gain6,J,I,14,28,faces,81,92,body_parts,Stimuli/Experimental_stims/faces/david-siglin-UuW4psOb388-unsplash.jpg,Stimuli/Experimental_stims/body_parts/ira-vishnevskaya-8DQAvdCby1I-unsplash.jpg,0,0,160,1,chosen,28,14,body_parts,faces,2500,0,9,2
247,66833,0,248,4,4,1,gain2,no_gain5,D,F,41,24,objects,86,83,body_parts,Stimuli/Experimental_stims/objects/insung-yoon-w2JtIQQXoRU-unsplash.jpg,Stimuli/Experimental_stims/body_parts/clay-banks-LjqARJaJotc-unsplash.jpg,0,0,50,0,unchosen,24,41,body_parts,objects,2200,0,9,2
248,66833,0,249,4,4,0,no_gain1,gain3,G,L,37,21,objects,90,88,faces,Stimuli/Experimental_stims/objects/alexander-andrews-VLGWE_SumrA-unsplash.jpg,Stimuli/Experimental_stims/faces/leilani-angel-K84vnnzxmTQ-unsplash.jpg,0,0,41,1,chosen,21,37,faces,objects,1100,0,9,2
249,66833,0,250,4,4,0,no_gain6,gain1,J,K,14,46,faces,81,87,objects,Stimuli/Experimental_stims/faces/david-siglin-UuW4psOb388-unsplash.jpg,Stimuli/Experimental_stims/objects/mockup-graphics-PNsj6RiHAF4-unsplash.jpg,0,0,202,1,chosen,46,14,objects,faces,1700,0,9,2
250,66833,0,251,4,4,0,no_gain1,gain2,G,D,9,41,outdoor_scenes,84,86,objects,Stimuli/Experimental_stims/outdoor_scenes/sergey-pesterev-y-b_FOmJXdg-unsplash.jpg,Stimuli/Experimental_stims/objects/insung-yoon-w2JtIQQXoRU-unsplash.jpg,0,0,124,1,unchosen,41,9,objects,outdoor_scenes,1100,0,9,2
251,66833,0,252,4,4,1,gain6,no_gain3,I,B,28,13,body_parts,92,87,faces,Stimuli/Experimental_stims/body_parts/ira-vishnevskaya-8DQAvdCby1I-unsplash.jpg,Stimuli/Experimental_stims/faces/daniel-rigdon-dXmXKPP2L4E-unsplash.jpg,0,0,140,0,chosen,13,28,faces,body_parts,1900,0,9,2
252,66833,0,253,4,4,1,gain4,no_gain1,E,G,25,9,body_parts,87,84,outdoor_scenes,Stimuli/Experimental_stims/body_parts/engin-akyurt-Q2rfH3GW39c-unsplash.jpg,Stimuli/Experimental_stims/outdoor_scenes/sergey-pesterev-y-b_FOmJXdg-unsplash.jpg,0,0,68,0,unchosen,9,25,outdoor_scenes,body_parts,1100,0,9,2
253,66833,0,254,4,4,1,gain4,no_gain5,E,F,25,24,body_parts,87,83,body_parts,Stimuli/Experimental_stims/body_parts/engin-akyurt-Q2rfH3GW39c-unsplash.jpg,Stimuli/Experimental_stims/body_parts/clay-banks-LjqARJaJotc-unsplash.jpg,0,1,132,1,unchosen,25,24,body_parts,body_parts,1000,0,9,2
254,66833,0,255,4,4,1,gain6,no_gain6,I,J,10,36,outdoor_scenes,85,88,objects,Stimuli/Experimental_stims/outdoor_scenes/shannon-kunkle-dM8INmkyDas-unsplash.jpg,Stimuli/Experimental_stims/objects/alexander-andrews-JYGnB9gTCls-unsplash.jpg,0,1,7,1,unchosen,10,36,outdoor_scenes,objects,1600,0,9,2
255,66833,0,256,4,4,0,no_gain4,gain5,A,H,47,23,objects,87,92,faces,Stimuli/Experimental_stims/objects/ronaldo-arthur-vidal-Cdz_lvnl37k-unsplash.jpg,Stimuli/Experimental_stims/faces/rikonavt-HQjfrvdTfak-unsplash.jpg,0,1,46,0,chosen,47,23,objects,faces,2700,0,9,2
256,66833,0,257,4,4,1,gain4,no_gain6,E,J,25,36,body_parts,87,88,objects,Stimuli/Experimental_stims/body_parts/engin-akyurt-Q2rfH3GW39c-unsplash.jpg,Stimuli/Experimental_stims/objects/alexander-andrews-JYGnB9gTCls-unsplash.jpg,0,0,21,0,unchosen,36,25,objects,body_parts,3500,1,9,2
257,66833,0,258,4,4,0,no_gain2,gain6,C,I,35,10,body_parts,77,85,outdoor_scenes,Stimuli/Experimental_stims/body_parts/wc-so-KH4AAPjb-tI-unsplash.jpg,Stimuli/Experimental_stims/outdoor_scenes/shannon-kunkle-dM8INmkyDas-unsplash.jpg,0,1,484,0,unchosen,35,10,body_parts,outdoor_scenes,1000,0,9,2
258,66833,0,259,4,4,0,no_gain2,gain3,C,L,35,32,body_parts,77,86,body_parts,Stimuli/Experimental_stims/body_parts/wc-so-KH4AAPjb-tI-unsplash.jpg,Stimuli/Experimental_stims/body_parts/towfiqu-barbhuiya-3AsiVDsZnHg-unsplash.jpg,0,0,1059,1,unchosen,32,35,body_parts,body_parts,1700,0,9,2
259,66833,0,260,4,4,1,gain2,no_gain5,D,F,20,22,faces,81,85,faces,Stimuli/Experimental_stims/faces/justin-chen-J7Cf1Gch49E-unsplash.jpg,Stimuli/Experimental_stims/faces/ravi-patel-VMGAbeeJTKo-unsplash.jpg,0,0,823,0,chosen,22,20,faces,faces,1500,0,9,2
260,66833,0,261,4,4,1,gain3,no_gain5,L,F,21,22,faces,88,85,faces,Stimuli/Experimental_stims/faces/leilani-angel-K84vnnzxmTQ-unsplash.jpg,Stimuli/Experimental_stims/faces/ravi-patel-VMGAbeeJTKo-unsplash.jpg,0,1,1192,1,chosen,21,22,faces,faces,1400,0,9,2
261,66833,0,262,4,4,1,gain5,no_gain3,H,B,23,13,faces,92,87,faces,Stimuli/Experimental_stims/faces/rikonavt-HQjfrvdTfak-unsplash.jpg,Stimuli/Experimental_stims/faces/daniel-rigdon-dXmXKPP2L4E-unsplash.jpg,0,1,18,1,chosen,23,13,faces,faces,1300,0,9,2
262,66833,0,263,4,4,1,gain5,no_gain5,H,F,4,24,outdoor_scenes,82,83,body_parts,Stimuli/Experimental_stims/outdoor_scenes/jarrett-kow-1ZOyYPOBn7I-unsplash.jpg,Stimuli/Experimental_stims/body_parts/clay-banks-LjqARJaJotc-unsplash.jpg,0,0,24,0,unchosen,24,4,body_parts,outdoor_scenes,4500,1,9,2
263,66833,0,264,4,4,0,no_gain5,gain6,F,I,24,10,body_parts,83,85,outdoor_scenes,Stimuli/Experimental_stims/body_parts/clay-banks-LjqARJaJotc-unsplash.jpg,Stimuli/Experimental_stims/outdoor_scenes/shannon-kunkle-dM8INmkyDas-unsplash.jpg,0,0,128,1,unchosen,10,24,outdoor_scenes,body_parts,1900,0,9,2
264,66833,0,265,4,4,0,no_gain6,gain1,J,K,36,31,objects,88,85,body_parts,Stimuli/Experimental_stims/objects/alexander-andrews-JYGnB9gTCls-unsplash.jpg,Stimuli/Experimental_stims/body_parts/sincerely-media-VN6DbKajo5s-unsplash.jpg,0,0,207,1,unchosen,31,36,body_parts,objects,1900,0,9,2
265,66833,0,266,4,4,1,gain5,no_gain5,H,F,23,22,faces,92,85,faces,Stimuli/Experimental_stims/faces/rikonavt-HQjfrvdTfak-unsplash.jpg,Stimuli/Experimental_stims/faces/ravi-patel-VMGAbeeJTKo-unsplash.jpg,0,0,119,0,chosen,22,23,faces,faces,1600,0,9,2
266,66833,0,267,4,4,0,no_gain2,gain4,C,E,2,39,outdoor_scenes,85,89,objects,Stimuli/Experimental_stims/outdoor_scenes/bruno-van-der-kraan-qez8mNJ3ilU-unsplash.jpg,Stimuli/Experimental_stims/objects/charlesdeluvio-1-nx1QR5dTE-unsplash.jpg,0,1,4,0,chosen,2,39,outdoor_scenes,objects,2300,0,9,2
267,66833,0,268,4,4,1,gain6,no_gain2,I,C,28,2,body_parts,92,85,outdoor_scenes,Stimuli/Experimental_stims/body_parts/ira-vishnevskaya-8DQAvdCby1I-unsplash.jpg,Stimuli/Experimental_stims/outdoor_scenes/bruno-van-der-kraan-qez8mNJ3ilU-unsplash.jpg,0,0,137,0,chosen,2,28,outdoor_scenes,body_parts,3700,1,9,2
268,66833,0,269,4,4,0,no_gain3,gain3,B,L,5,32,outdoor_scenes,86,86,body_parts,Stimuli/Experimental_stims/outdoor_scenes/jeff-king-bJHWJeiHfHc-unsplash.jpg,Stimuli/Experimental_stims/body_parts/towfiqu-barbhuiya-3AsiVDsZnHg-unsplash.jpg,0,0,221,1,unchosen,32,5,body_parts,outdoor_scenes,1200,0,9,2
269,66833,0,270,4,4,1,gain4,no_gain3,E,B,25,5,body_parts,87,86,outdoor_scenes,Stimuli/Experimental_stims/body_parts/engin-akyurt-Q2rfH3GW39c-unsplash.jpg,Stimuli/Experimental_stims/outdoor_scenes/jeff-king-bJHWJeiHfHc-unsplash.jpg,0,1,28,1,unchosen,25,5,body_parts,outdoor_scenes,1900,0,9,2
270,66833,0,271,4,4,0,no_gain3,gain1,B,K,5,31,outdoor_scenes,86,85,body_parts,Stimuli/Experimental_stims/outdoor_scenes/jeff-king-bJHWJeiHfHc-unsplash.jpg,Stimuli/Experimental_stims/body_parts/sincerely-media-VN6DbKajo5s-unsplash.jpg,0,1,53,0,unchosen,5,31,outdoor_scenes,body_parts,2000,0,9,2
271,66833,0,272,4,4,1,gain1,no_gain3,K,B,46,13,objects,87,87,faces,Stimuli/Experimental_stims/objects/mockup-graphics-PNsj6RiHAF4-unsplash.jpg,Stimuli/Experimental_stims/faces/daniel-rigdon-dXmXKPP2L4E-unsplash.jpg,0,0,357,0,chosen,13,46,faces,objects,2700,0,9,2
272,66833,0,273,4,4,1,gain6,no_gain5,I,F,28,22,body_parts,92,85,faces,Stimuli/Experimental_stims/body_parts/ira-vishnevskaya-8DQAvdCby1I-unsplash.jpg,Stimuli/Experimental_stims/faces/ravi-patel-VMGAbeeJTKo-unsplash.jpg,0,0,200,0,chosen,22,28,faces,body_parts,1100,0,9,2
273,66833,0,274,4,4,0,no_gain2,gain1,C,K,2,46,outdoor_scenes,85,87,objects,Stimuli/Experimental_stims/outdoor_scenes/bruno-van-der-kraan-qez8mNJ3ilU-unsplash.jpg,Stimuli/Experimental_stims/objects/mockup-graphics-PNsj6RiHAF4-unsplash.jpg,0,1,47,0,chosen,2,46,outdoor_scenes,objects,4200,1,9,2
274,66833,0,275,4,4,1,gain3,no_gain6,L,J,32,36,body_parts,86,88,objects,Stimuli/Experimental_stims/body_parts/towfiqu-barbhuiya-3AsiVDsZnHg-unsplash.jpg,Stimuli/Experimental_stims/objects/alexander-andrews-JYGnB9gTCls-unsplash.jpg,0,1,238,1,unchosen,32,36,body_parts,objects,1300,0,9,2
275,66833,0,276,4,4,1,gain1,no_gain5,K,F,46,22,objects,87,85,faces,Stimuli/Experimental_stims/objects/mockup-graphics-PNsj6RiHAF4-unsplash.jpg,Stimuli/Experimental_stims/faces/ravi-patel-VMGAbeeJTKo-unsplash.jpg,0,1,185,1,chosen,46,22,objects,faces,2000,0,9,2
276,66833,0,277,4,4,0,no_gain3,gain2,B,D,13,20,faces,87,81,faces,Stimuli/Experimental_stims/faces/daniel-rigdon-dXmXKPP2L4E-unsplash.jpg,Stimuli/Experimental_stims/faces/justin-chen-J7Cf1Gch49E-unsplash.jpg,0,0,413,1,chosen,20,13,faces,faces,1100,0,9,2
277,66833,0,278,4,4,1,gain5,no_gain1,H,G,4,9,outdoor_scenes,82,84,outdoor_scenes,Stimuli/Experimental_stims/outdoor_scenes/jarrett-kow-1ZOyYPOBn7I-unsplash.jpg,Stimuli/Experimental_stims/outdoor_scenes/sergey-pesterev-y-b_FOmJXdg-unsplash.jpg,0,0,175,0,unchosen,9,4,outdoor_scenes,outdoor_scenes,2300,0,9,2
278,66833,0,279,4,4,1,gain2,no_gain2,D,C,20,2,faces,81,85,outdoor_scenes,Stimuli/Experimental_stims/faces/justin-chen-J7Cf1Gch49E-unsplash.jpg,Stimuli/Experimental_stims/outdoor_scenes/bruno-van-der-kraan-qez8mNJ3ilU-unsplash.jpg,0,1,145,1,chosen,20,2,faces,outdoor_scenes,2900,0,9,2
279,66833,0,280,4,4,0,no_gain2,gain5,C,H,2,23,outdoor_scenes,85,92,faces,Stimuli/Experimental_stims/outdoor_scenes/bruno-van-der-kraan-qez8mNJ3ilU-unsplash.jpg,Stimuli/Experimental_stims/faces/rikonavt-HQjfrvdTfak-unsplash.jpg,0,1,265,0,chosen,2,23,outdoor_scenes,faces,1200,0,9,2
280,66833,0,281,4,4,1,gain5,no_gain6,H,J,23,14,faces,92,81,faces,Stimuli/Experimental_stims/faces/rikonavt-HQjfrvdTfak-unsplash.jpg,Stimuli/Experimental_stims/faces/david-siglin-UuW4psOb388-unsplash.jpg,0,1,96,1,chosen,23,14,faces,faces,1500,0,9,2
281,66833,0,282,4,4,1,gain6,no_gain3,I,B,10,5,outdoor_scenes,85,86,outdoor_scenes,Stimuli/Experimental_stims/outdoor_scenes/shannon-kunkle-dM8INmkyDas-unsplash.jpg,Stimuli/Experimental_stims/outdoor_scenes/jeff-king-bJHWJeiHfHc-unsplash.jpg,0,1,1,1,unchosen,10,5,outdoor_scenes,outdoor_scenes,1100,0,9,2
282,66833,0,283,4,4,0,no_gain6,gain4,J,E,14,39,faces,81,89,objects,Stimuli/Experimental_stims/faces/david-siglin-UuW4psOb388-unsplash.jpg,Stimuli/Experimental_stims/objects/charlesdeluvio-1-nx1QR5dTE-unsplash.jpg,0,0,332,1,chosen,39,14,objects,faces,1200,0,9,2
283,66833,0,284,4,4,0,no_gain4,gain2,A,D,47,20,objects,87,81,faces,Stimuli/Experimental_stims/objects/ronaldo-arthur-vidal-Cdz_lvnl37k-unsplash.jpg,Stimuli/Experimental_stims/faces/justin-chen-J7Cf1Gch49E-unsplash.jpg,0,0,117,1,chosen,20,47,faces,objects,1400,0,9,2
284,66833,0,285,4,4,1,gain2,no_gain4,D,A,41,11,objects,86,78,outdoor_scenes,Stimuli/Experimental_stims/objects/insung-yoon-w2JtIQQXoRU-unsplash.jpg,Stimuli/Experimental_stims/outdoor_scenes/stephen-leonardi-gyIRjKPXupE-unsplash.jpg,0,1,371,1,unchosen,41,11,objects,outdoor_scenes,1100,0,9,2
285,66833,0,286,4,4,1,gain3,no_gain6,L,J,21,14,faces,88,81,faces,Stimuli/Experimental_stims/faces/leilani-angel-K84vnnzxmTQ-unsplash.jpg,Stimuli/Experimental_stims/faces/david-siglin-UuW4psOb388-unsplash.jpg,0,0,7,0,chosen,14,21,faces,faces,2100,0,9,2
286,66833,0,287,4,4,0,no_gain1,gain1,G,K,9,31,outdoor_scenes,84,85,body_parts,Stimuli/Experimental_stims/outdoor_scenes/sergey-pesterev-y-b_FOmJXdg-unsplash.jpg,Stimuli/Experimental_stims/body_parts/sincerely-media-VN6DbKajo5s-unsplash.jpg,0,1,12,0,unchosen,9,31,outdoor_scenes,body_parts,3300,1,9,2
287,66833,0,288,4,4,0,no_gain1,gain6,G,I,9,10,outdoor_scenes,84,85,outdoor_scenes,Stimuli/Experimental_stims/outdoor_scenes/sergey-pesterev-y-b_FOmJXdg-unsplash.jpg,Stimuli/Experimental_stims/outdoor_scenes/shannon-kunkle-dM8INmkyDas-unsplash.jpg,0,0,194,1,unchosen,10,9,outdoor_scenes,outdoor_scenes,1900,0,9,2
288,66833,0,289,4,4,0,no_gain1,gain5,G,H,37,23,objects,90,92,faces,Stimuli/Experimental_stims/objects/alexander-andrews-VLGWE_SumrA-unsplash.jpg,Stimuli/Experimental_stims/faces/rikonavt-HQjfrvdTfak-unsplash.jpg,0,1,331,0,chosen,37,23,objects,faces,2000,0,9,2
289,66833,0,290,4,4,0,no_gain4,gain6,A,I,47,28,objects,87,92,body_parts,Stimuli/Experimental_stims/objects/ronaldo-arthur-vidal-Cdz_lvnl37k-unsplash.jpg,Stimuli/Experimental_stims/body_parts/ira-vishnevskaya-8DQAvdCby1I-unsplash.jpg,0,0,4,1,chosen,28,47,body_parts,objects,1100,0,9,2
290,66833,0,291,4,4,1,gain3,no_gain5,L,F,32,24,body_parts,86,83,body_parts,Stimuli/Experimental_stims/body_parts/towfiqu-barbhuiya-3AsiVDsZnHg-unsplash.jpg,Stimuli/Experimental_stims/body_parts/clay-banks-LjqARJaJotc-unsplash.jpg,0,1,235,1,unchosen,32,24,body_parts,body_parts,1800,0,9,2
291,66833,0,292,4,4,0,no_gain1,gain1,G,K,37,46,objects,90,87,objects,Stimuli/Experimental_stims/objects/alexander-andrews-VLGWE_SumrA-unsplash.jpg,Stimuli/Experimental_stims/objects/mockup-graphics-PNsj6RiHAF4-unsplash.jpg,0,0,53,1,chosen,46,37,objects,objects,3200,1,9,2