,PID,practice,trial,block,run,gain_left,left_item_id,right_item_id,left_pair_id,right_pair_id,left_stimulus,right_stimulus,left_category,left_rating,right_rating,right_category,left_path,right_path,no_response,left_chosen,rt,higher_outcome_chosen,choice_type,chosen_stimulus,unchosen_stimulus,chosen_category,unchosen_category,iti,long_iti,simulation,version
0,23013,1,1,0,0,0,,,,,,,,,,,Stimuli/Practice_stims/Final_decisions/debby-hudson-FmCSSSGge-0-unsplash.jpg,Stimuli/Practice_stims/Final_decisions/yassine-khalfalli-adsQ9d_Cx0c-unsplash.jpg,0,1,803,0,,,,,,3000,0,7,2
1,23013,1,2,0,0,0,,,,,,,,,,,Stimuli/Practice_stims/Final_decisions/florian-wehde-iVW7mZPwd4g-unsplash.jpg,Stimuli/Practice_stims/Final_decisions/patrick-perkins-3wylDrjxH-E-unsplash.jpg,0,1,931,0,,,,,,1500,0,7,2
2,23013,1,3,0,0,0,,,,,,,,,,,Stimuli/Practice_stims/Final_decisions/debby-hudson-FmCSSSGge-0-unsplash.jpg,Stimuli/Practice_stims/Final_decisions/florian-wehde-iVW7mZPwd4g-unsplash.jpg,0,0,1349,1,,,,,,2000,0,7,2
3,23013,1,4,0,0,0,,,,,,,,,,,Stimuli/Practice_stims/Final_decisions/yassine-khalfalli-adsQ9d_Cx0c-unsplash.jpg,Stimuli/Practice_stims/Final_decisions/debby-hudson-FmCSSSGge-0-unsplash.jpg,0,0,1441,1,,,,,,1000,0,7,2
4,23013,0,5,1,1,1,gain2,no_gain3,I,J,2,42,outdoor_scenes,79,80,objects,Stimuli/Experimental_stims/outdoor_scenes/bruno-van-der-kraan-qez8mNJ3ilU-unsplash.jpg,Stimuli/Experimental_stims/objects/jess-bailey-nOeVi8DsN8U-unsplash.jpg,0,0,1390,0,unchosen,42,2,objects,outdoor_scenes,4100,1,7,2
5,23013,0,6,1,1,1,gain3,no_gain5,C,A,34,38,body_parts,79,66,objects,Stimuli/Experimental_stims/body_parts/wagner-santos-mBWMvIuVnso-unsplash.jpg,Stimuli/Experimental_stims/objects/art-lasovsky-8XddFc6NkBY-unsplash.jpg,0,0,1338,0,chosen,38,34,objects,body_parts,1200,0,7,2
6,23013,0,7,1,1,1,gain1,no_gain3,G,J,45,15,objects,93,78,faces,Stimuli/Experimental_stims/objects/leohoho-rngTKHXumy0-unsplash.jpg,Stimuli/Experimental_stims/faces/erik-lucatero-d2MSDujJl2g-unsplash.jpg,0,1,1505,1,chosen,45,15,objects,faces,2600,0,7,2
7,23013,0,8,1,1,1,gain2,no_gain4,I,E,33,28,body_parts,79,76,body_parts,Stimuli/Experimental_stims/body_parts/tucker-good-36skLT5jZcc-unsplash.jpg,Stimuli/Experimental_stims/body_parts/ira-vishnevskaya-8DQAvdCby1I-unsplash.jpg,0,0,1260,0,chosen,28,33,body_parts,body_parts,2000,0,7,2
8,23013,0,9,1,1,0,no_gain5,gain1,A,G,9,8,outdoor_scenes,64,81,outdoor_scenes,Stimuli/Experimental_stims/outdoor_scenes/sergey-pesterev-y-b_FOmJXdg-unsplash.jpg,Stimuli/Experimental_stims/outdoor_scenes/samsommer-vddccTqwal8-unsplash.jpg,0,0,1466,1,unchosen,8,9,outdoor_scenes,outdoor_scenes,1200,0,7,2
9,23013,0,10,1,1,0,no_gain4,gain3,E,C,28,34,body_parts,76,79,body_parts,Stimuli/Experimental_stims/body_parts/ira-vishnevskaya-8DQAvdCby1I-unsplash.jpg,Stimuli/Experimental_stims/body_parts/wagner-santos-mBWMvIuVnso-unsplash.jpg,0,0,1385,1,chosen,34,28,body_parts,body_parts,3200,1,7,2
10,23013,0,11,1,1,0,no_gain1,gain3,K,C,43,34,objects,84,79,body_parts,Stimuli/Experimental_stims/objects/jonathan-greenaway-Y4hGgeiFn3s-unsplash.jpg,Stimuli/Experimental_stims/body_parts/wagner-santos-mBWMvIuVnso-unsplash.jpg,0,1,771,0,chosen,43,34,objects,body_parts,1200,0,7,2
11,23013,0,12,1,1,0,no_gain2,gain1,F,G,17,45,faces,83,93,objects,Stimuli/Experimental_stims/faces/good-faces-xmSWVeGEnJw-unsplash.jpg,Stimuli/Experimental_stims/objects/leohoho-rngTKHXumy0-unsplash.jpg,0,0,1148,1,chosen,45,17,objects,faces,1800,0,7,2
12,23013,0,13,1,1,1,gain2,no_gain1,I,K,2,26,outdoor_scenes,79,86,body_parts,Stimuli/Experimental_stims/outdoor_scenes/bruno-van-der-kraan-qez8mNJ3ilU-unsplash.jpg,Stimuli/Experimental_stims/body_parts/engin-akyurt-x_3gyC42btc-unsplash.jpg,0,1,1407,1,unchosen,2,26,outdoor_scenes,body_parts,1600,0,7,2
13,23013,0,14,1,1,0,no_gain6,gain6,B,L,10,27,outdoor_scenes,93,62,body_parts,Stimuli/Experimental_stims/outdoor_scenes/shannon-kunkle-dM8INmkyDas-unsplash.jpg,Stimuli/Experimental_stims/body_parts/heike-mintel-i_Gns0ELnLw-unsplash.jpg,0,0,1453,1,unchosen,27,10,body_parts,outdoor_scenes,1300,0,7,2
14,23013,0,15,1,1,0,no_gain1,gain5,K,H,26,6,body_parts,86,81,outdoor_scenes,Stimuli/Experimental_stims/body_parts/engin-akyurt-x_3gyC42btc-unsplash.jpg,Stimuli/Experimental_stims/outdoor_scenes/meng-ji-8BH_M-53CyA-unsplash.jpg,0,1,1146,0,unchosen,26,6,body_parts,outdoor_scenes,1900,0,7,2
15,23013,0,16,1,1,0,no_gain3,gain2,J,I,15,33,faces,78,79,body_parts,Stimuli/Experimental_stims/faces/erik-lucatero-d2MSDujJl2g-unsplash.jpg,Stimuli/Experimental_stims/body_parts/tucker-good-36skLT5jZcc-unsplash.jpg,0,0,1300,1,chosen,33,15,body_parts,faces,4100,1,7,2
16,23013,0,17,1,1,1,gain4,no_gain2,D,F,41,30,objects,66,87,body_parts,Stimuli/Experimental_stims/objects/insung-yoon-w2JtIQQXoRU-unsplash.jpg,Stimuli/Experimental_stims/body_parts/mika-korhonen-Xodzxosar18-unsplash.jpg,0,0,1093,0,unchosen,30,41,body_parts,objects,1100,0,7,2
17,23013,0,18,1,1,1,gain6,no_gain2,L,F,20,17,faces,84,83,faces,Stimuli/Experimental_stims/faces/justin-chen-J7Cf1Gch49E-unsplash.jpg,Stimuli/Experimental_stims/faces/good-faces-xmSWVeGEnJw-unsplash.jpg,0,0,1307,0,chosen,17,20,faces,faces,1200,0,7,2
18,23013,0,19,1,1,1,gain5,no_gain4,H,E,6,47,outdoor_scenes,81,67,objects,Stimuli/Experimental_stims/outdoor_scenes/meng-ji-8BH_M-53CyA-unsplash.jpg,Stimuli/Experimental_stims/objects/ronaldo-arthur-vidal-Cdz_lvnl37k-unsplash.jpg,0,0,1099,0,unchosen,47,6,objects,outdoor_scenes,1400,0,7,2
19,23013,0,20,1,1,0,no_gain4,gain1,E,G,28,45,body_parts,76,93,objects,Stimuli/Experimental_stims/body_parts/ira-vishnevskaya-8DQAvdCby1I-unsplash.jpg,Stimuli/Experimental_stims/objects/leohoho-rngTKHXumy0-unsplash.jpg,0,1,956,0,chosen,28,45,body_parts,objects,1300,0,7,2
20,23013,0,21,1,1,1,gain6,no_gain6,L,B,20,14,faces,84,73,faces,Stimuli/Experimental_stims/faces/justin-chen-J7Cf1Gch49E-unsplash.jpg,Stimuli/Experimental_stims/faces/david-siglin-UuW4psOb388-unsplash.jpg,0,0,1120,0,chosen,14,20,faces,faces,4600,1,7,2
21,23013,0,22,1,1,0,no_gain1,gain3,K,C,26,5,body_parts,86,71,outdoor_scenes,Stimuli/Experimental_stims/body_parts/engin-akyurt-x_3gyC42btc-unsplash.jpg,Stimuli/Experimental_stims/outdoor_scenes/jeff-king-bJHWJeiHfHc-unsplash.jpg,0,0,1491,1,unchosen,5,26,outdoor_scenes,body_parts,1000,0,7,2
22,23013,0,23,1,1,1,gain4,no_gain4,D,E,22,28,faces,77,76,body_parts,Stimuli/Experimental_stims/faces/ravi-patel-VMGAbeeJTKo-unsplash.jpg,Stimuli/Experimental_stims/body_parts/ira-vishnevskaya-8DQAvdCby1I-unsplash.jpg,1,NaN,,NaN,chosen,NaN,NaN,NaN,NaN,1100,0,7,2
23,23013,0,24,1,1,0,no_gain1,gain4,K,D,26,41,body_parts,86,66,objects,Stimuli/Experimental_stims/body_parts/engin-akyurt-x_3gyC42btc-unsplash.jpg,Stimuli/Experimental_stims/objects/insung-yoon-w2JtIQQXoRU-unsplash.jpg,0,1,1211,0,unchosen,26,41,body_parts,objects,1700,0,7,2
24,23013,0,25,1,1,0,no_gain3,gain5,J,H,42,6,objects,80,81,outdoor_scenes,Stimuli/Experimental_stims/objects/jess-bailey-nOeVi8DsN8U-unsplash.jpg,Stimuli/Experimental_stims/outdoor_scenes/meng-ji-8BH_M-53CyA-unsplash.jpg,0,0,881,1,unchosen,6,42,outdoor_scenes,objects,2800,0,7,2
25,23013,0,26,1,1,1,gain4,no_gain3,D,J,22,15,faces,77,78,faces,Stimuli/Experimental_stims/faces/ravi-patel-VMGAbeeJTKo-unsplash.jpg,Stimuli/Experimental_stims/faces/erik-lucatero-d2MSDujJl2g-unsplash.jpg,0,0,909,0,chosen,15,22,faces,faces,3200,1,7,2
26,23013,0,27,1,1,1,gain5,no_gain6,H,B,18,14,faces,84,73,faces,Stimuli/Experimental_stims/faces/jessica-radanavong-mrYkTuAesKE-unsplash.jpg,Stimuli/Experimental_stims/faces/david-siglin-UuW4psOb388-unsplash.jpg,0,1,1300,1,chosen,18,14,faces,faces,2000,0,7,2
27,23013,0,28,1,1,0,no_gain3,gain3,J,C,42,5,objects,80,71,outdoor_scenes,Stimuli/Experimental_stims/objects/jess-bailey-nOeVi8DsN8U-unsplash.jpg,Stimuli/Experimental_stims/outdoor_scenes/jeff-king-bJHWJeiHfHc-unsplash.jpg,0,0,1233,1,unchosen,5,42,outdoor_scenes,objects,1600,0,7,2
28,23013,0,29,1,1,1,gain6,no_gain3,L,J,20,15,faces,84,78,faces,Stimuli/Experimental_stims/faces/justin-chen-J7Cf1Gch49E-unsplash.jpg,Stimuli/Experimental_stims/faces/erik-lucatero-d2MSDujJl2g-unsplash.jpg,0,1,1259,1,chosen,20,15,faces,faces,1300,0,7,2
29,23013,0,30,1,1,1,gain5,no_gain5,H,A,6,9,outdoor_scenes,81,64,outdoor_scenes,Stimuli/Experimental_stims/outdoor_scenes/meng-ji-8BH_M-53CyA-unsplash.jpg,Stimuli/Experimental_stims/outdoor_scenes/sergey-pesterev-y-b_FOmJXdg-unsplash.jpg,0,0,1297,0,unchosen,9,6,outdoor_scenes,outdoor_scenes,1200,0,7,2
30,23013,0,31,1,1,0,no_gain6,gain3,B,C,10,5,outdoor_scenes,93,71,outdoor_scenes,Stimuli/Experimental_stims/outdoor_scenes/shannon-kunkle-dM8INmkyDas-unsplash.jpg,Stimuli/Experimental_stims/outdoor_scenes/jeff-king-bJHWJeiHfHc-unsplash.jpg,0,0,1337,1,unchosen,5,10,outdoor_scenes,outdoor_scenes,3500,1,7,2
31,23013,0,32,1,1,0,no_gain1,gain1,K,G,43,45,objects,84,93,objects,Stimuli/Experimental_stims/objects/jonathan-greenaway-Y4hGgeiFn3s-unsplash.jpg,Stimuli/Experimental_stims/objects/leohoho-rngTKHXumy0-unsplash.jpg,0,0,884,1,chosen,45,43,objects,objects,1800,0,7,2
32,23013,0,33,1,1,0,no_gain5,gain6,A,L,9,27,outdoor_scenes,64,62,body_parts,Stimuli/Experimental_stims/outdoor_scenes/sergey-pesterev-y-b_FOmJXdg-unsplash.jpg,Stimuli/Experimental_stims/body_parts/heike-mintel-i_Gns0ELnLw-unsplash.jpg,0,0,985,1,unchosen,27,9,body_parts,outdoor_scenes,1600,0,7,2
33,23013,0,34,1,1,0,no_gain1,gain5,K,H,43,18,objects,84,84,faces,Stimuli/Experimental_stims/objects/jonathan-greenaway-Y4hGgeiFn3s-unsplash.jpg,Stimuli/Experimental_stims/faces/jessica-radanavong-mrYkTuAesKE-unsplash.jpg,0,1,1161,0,chosen,43,18,objects,faces,2000,0,7,2
34,23013,0,35,1,1,0,no_gain5,gain5,A,H,38,18,objects,66,84,faces,Stimuli/Experimental_stims/objects/art-lasovsky-8XddFc6NkBY-unsplash.jpg,Stimuli/Experimental_stims/faces/jessica-radanavong-mrYkTuAesKE-unsplash.jpg,0,0,723,1,chosen,18,38,faces,objects,1100,0,7,2
35,23013,0,36,1,1,1,gain1,no_gain2,G,F,8,30,outdoor_scenes,81,87,body_parts,Stimuli/Experimental_stims/outdoor_scenes/samsommer-vddccTqwal8-unsplash.jpg,Stimuli/Experimental_stims/body_parts/mika-korhonen-Xodzxosar18-unsplash.jpg,0,0,1281,0,unchosen,30,8,body_parts,outdoor_scenes,2800,0,7,2
36,23013,0,37,1,1,0,no_gain2,gain5,F,H,17,18,faces,83,84,faces,Stimuli/Experimental_stims/faces/good-faces-xmSWVeGEnJw-unsplash.jpg,Stimuli/Experimental_stims/faces/jessica-radanavong-mrYkTuAesKE-unsplash.jpg,0,0,1132,1,chosen,18,17,faces,faces,3100,1,7,2
37,23013,0,38,1,1,0,no_gain4,gain2,E,I,47,2,objects,67,79,outdoor_scenes,Stimuli/Experimental_stims/objects/ronaldo-arthur-vidal-Cdz_lvnl37k-unsplash.jpg,Stimuli/Experimental_stims/outdoor_scenes/bruno-van-der-kraan-qez8mNJ3ilU-unsplash.jpg,0,0,1259,1,unchosen,2,47,outdoor_scenes,objects,1100,0,7,2
38,23013,0,39,1,1,0,no_gain4,gain1,E,G,47,8,objects,67,81,outdoor_scenes,Stimuli/Experimental_stims/objects/ronaldo-arthur-vidal-Cdz_lvnl37k-unsplash.jpg,Stimuli/Experimental_stims/outdoor_scenes/samsommer-vddccTqwal8-unsplash.jpg,0,1,1240,0,unchosen,47,8,objects,outdoor_scenes,1100,0,7,2
39,23013,0,40,1,1,1,gain2,no_gain1,I,K,33,43,body_parts,79,84,objects,Stimuli/Experimental_stims/body_parts/tucker-good-36skLT5jZcc-unsplash.jpg,Stimuli/Experimental_stims/objects/jonathan-greenaway-Y4hGgeiFn3s-unsplash.jpg,0,0,1318,0,chosen,43,33,objects,body_parts,1100,0,7,2
40,23013,0,41,1,1,1,gain2,no_gain5,I,A,2,9,outdoor_scenes,79,64,outdoor_scenes,Stimuli/Experimental_stims/outdoor_scenes/bruno-van-der-kraan-qez8mNJ3ilU-unsplash.jpg,Stimuli/Experimental_stims/outdoor_scenes/sergey-pesterev-y-b_FOmJXdg-unsplash.jpg,0,0,1060,0,unchosen,9,2,outdoor_scenes,outdoor_scenes,2300,0,7,2
41,23013,0,42,1,1,1,gain6,no_gain3,L,J,27,42,body_parts,62,80,objects,Stimuli/Experimental_stims/body_parts/heike-mintel-i_Gns0ELnLw-unsplash.jpg,Stimuli/Experimental_stims/objects/jess-bailey-nOeVi8DsN8U-unsplash.jpg,0,0,1144,0,unchosen,42,27,objects,body_parts,3700,1,7,2
42,23013,0,43,1,1,0,no_gain6,gain5,B,H,10,6,outdoor_scenes,93,81,outdoor_scenes,Stimuli/Experimental_stims/outdoor_scenes/shannon-kunkle-dM8INmkyDas-unsplash.jpg,Stimuli/Experimental_stims/outdoor_scenes/meng-ji-8BH_M-53CyA-unsplash.jpg,0,0,800,1,unchosen,6,10,outdoor_scenes,outdoor_scenes,2400,0,7,2
43,23013,0,44,1,1,0,no_gain5,gain6,A,L,38,20,objects,66,84,faces,Stimuli/Experimental_stims/objects/art-lasovsky-8XddFc6NkBY-unsplash.jpg,Stimuli/Experimental_stims/faces/justin-chen-J7Cf1Gch49E-unsplash.jpg,0,1,1144,0,chosen,38,20,objects,faces,1400,0,7,2
44,23013,0,45,1,1,0,no_gain2,gain6,F,L,30,27,body_parts,87,62,body_parts,Stimuli/Experimental_stims/body_parts/mika-korhonen-Xodzxosar18-unsplash.jpg,Stimuli/Experimental_stims/body_parts/heike-mintel-i_Gns0ELnLw-unsplash.jpg,0,0,1019,1,unchosen,27,30,body_parts,body_parts,2500,0,7,2
45,23013,0,46,1,1,1,gain6,no_gain1,L,K,20,43,faces,84,84,objects,Stimuli/Experimental_stims/faces/justin-chen-J7Cf1Gch49E-unsplash.jpg,Stimuli/Experimental_stims/objects/jonathan-greenaway-Y4hGgeiFn3s-unsplash.jpg,0,0,810,0,chosen,43,20,objects,faces,2600,0,7,2
46,23013,0,47,1,1,1,gain2,no_gain2,I,F,33,17,body_parts,79,83,faces,Stimuli/Experimental_stims/body_parts/tucker-good-36skLT5jZcc-unsplash.jpg,Stimuli/Experimental_stims/faces/good-faces-xmSWVeGEnJw-unsplash.jpg,1,NaN,,NaN,chosen,NaN,NaN,NaN,NaN,1100,0,7,2
47,23013,0,48,1,1,0,no_gain6,gain1,B,G,10,8,outdoor_scenes,93,81,outdoor_scenes,Stimuli/Experimental_stims/outdoor_scenes/shannon-kunkle-dM8INmkyDas-unsplash.jpg,Stimuli/Experimental_stims/outdoor_scenes/samsommer-vddccTqwal8-unsplash.jpg,1,NaN,,NaN,unchosen,NaN,NaN,NaN,NaN,4800,1,7,2
48,23013,0,49,1,1,1,gain4,no_gain3,D,J,41,42,objects,66,80,objects,Stimuli/Experimental_stims/objects/insung-yoon-w2JtIQQXoRU-unsplash.jpg,Stimuli/Experimental_stims/objects/jess-bailey-nOeVi8DsN8U-unsplash.jpg,1,NaN,,NaN,unchosen,NaN,NaN,NaN,NaN,1600,0,7,2
49,23013,0,50,1,1,1,gain6,no_gain4,L,E,20,28,faces,84,76,body_parts,Stimuli/Experimental_stims/faces/justin-chen-J7Cf1Gch49E-unsplash.jpg,Stimuli/Experimental_stims/body_parts/ira-vishnevskaya-8DQAvdCby1I-unsplash.jpg,1,NaN,,NaN,chosen,NaN,NaN,NaN,NaN,2800,0,7,2
50,23013,0,51,1,1,1,gain1,no_gain3,G,J,8,42,outdoor_scenes,81,80,objects,Stimuli/Experimental_stims/outdoor_scenes/samsommer-vddccTqwal8-unsplash.jpg,Stimuli/Experimental_stims/objects/jess-bailey-nOeVi8DsN8U-unsplash.jpg,0,1,546,1,unchosen,8,42,outdoor_scenes,objects,2300,0,7,2
51,23013,0,52,1,1,1,gain3,no_gain5,C,A,5,9,outdoor_scenes,71,64,outdoor_scenes,Stimuli/Experimental_stims/outdoor_scenes/jeff-king-bJHWJeiHfHc-unsplash.jpg,Stimuli/Experimental_stims/outdoor_scenes/sergey-pesterev-y-b_FOmJXdg-unsplash.jpg,1,NaN,,NaN,unchosen,NaN,NaN,NaN,NaN,2400,0,7,2
52,23013,0,53,1,1,1,gain4,no_gain4,D,E,41,47,objects,66,67,objects,Stimuli/Experimental_stims/objects/insung-yoon-w2JtIQQXoRU-unsplash.jpg,Stimuli/Experimental_stims/objects/ronaldo-arthur-vidal-Cdz_lvnl37k-unsplash.jpg,1,NaN,,NaN,unchosen,NaN,NaN,NaN,NaN,1800,0,7,2
53,23013,0,54,1,1,0,no_gain6,gain1,B,G,14,45,faces,73,93,objects,Stimuli/Experimental_stims/faces/david-siglin-UuW4psOb388-unsplash.jpg,Stimuli/Experimental_stims/objects/leohoho-rngTKHXumy0-unsplash.jpg,1,NaN,,NaN,chosen,NaN,NaN,NaN,NaN,1500,0,7,2
54,23013,0,55,1,1,1,gain6,no_gain4,L,E,27,47,body_parts,62,67,objects,Stimuli/Experimental_stims/body_parts/heike-mintel-i_Gns0ELnLw-unsplash.jpg,Stimuli/Experimental_stims/objects/ronaldo-arthur-vidal-Cdz_lvnl37k-unsplash.jpg,1,NaN,,NaN,unchosen,NaN,NaN,NaN,NaN,1900,0,7,2
55,23013,0,56,1,1,1,gain3,no_gain2,C,F,5,30,outdoor_scenes,71,87,body_parts,Stimuli/Experimental_stims/outdoor_scenes/jeff-king-bJHWJeiHfHc-unsplash.jpg,Stimuli/Experimental_stims/body_parts/mika-korhonen-Xodzxosar18-unsplash.jpg,0,0,1282,0,unchosen,30,5,body_parts,outdoor_scenes,1100,0,7,2
56,23013,0,57,1,1,0,no_gain2,gain2,F,I,30,2,body_parts,87,79,outdoor_scenes,Stimuli/Experimental_stims/body_parts/mika-korhonen-Xodzxosar18-unsplash.jpg,Stimuli/Experimental_stims/outdoor_scenes/bruno-van-der-kraan-qez8mNJ3ilU-unsplash.jpg,0,0,1224,1,unchosen,2,30,outdoor_scenes,body_parts,1700,0,7,2
57,23013,0,58,1,1,1,gain5,no_gain3,H,J,18,15,faces,84,78,faces,Stimuli/Experimental_stims/faces/jessica-radanavong-mrYkTuAesKE-unsplash.jpg,Stimuli/Experimental_stims/faces/erik-lucatero-d2MSDujJl2g-unsplash.jpg,0,1,727,1,chosen,18,15,faces,faces,1600,0,7,2
58,23013,0,59,1,1,1,gain6,no_gain1,L,K,27,26,body_parts,62,86,body_parts,Stimuli/Experimental_stims/body_parts/heike-mintel-i_Gns0ELnLw-unsplash.jpg,Stimuli/Experimental_stims/body_parts/engin-akyurt-x_3gyC42btc-unsplash.jpg,0,0,920,0,unchosen,26,27,body_parts,body_parts,1700,0,7,2
59,23013,0,60,1,1,0,no_gain5,gain4,A,D,38,22,objects,66,77,faces,Stimuli/Experimental_stims/objects/art-lasovsky-8XddFc6NkBY-unsplash.jpg,Stimuli/Experimental_stims/faces/ravi-patel-VMGAbeeJTKo-unsplash.jpg,0,0,929,1,chosen,22,38,faces,objects,3000,0,7,2
60,23013,0,61,1,1,1,gain3,no_gain6,C,B,34,14,body_parts,79,73,faces,Stimuli/Experimental_stims/body_parts/wagner-santos-mBWMvIuVnso-unsplash.jpg,Stimuli/Experimental_stims/faces/david-siglin-UuW4psOb388-unsplash.jpg,0,0,924,0,chosen,14,34,faces,body_parts,2100,0,7,2
61,23013,0,62,1,1,1,gain5,no_gain2,H,F,6,30,outdoor_scenes,81,87,body_parts,Stimuli/Experimental_stims/outdoor_scenes/meng-ji-8BH_M-53CyA-unsplash.jpg,Stimuli/Experimental_stims/body_parts/mika-korhonen-Xodzxosar18-unsplash.jpg,0,0,1152,0,unchosen,30,6,body_parts,outdoor_scenes,3200,1,7,2
62,23013,0,63,1,1,1,gain1,no_gain5,G,A,45,38,objects,93,66,objects,Stimuli/Experimental_stims/objects/leohoho-rngTKHXumy0-unsplash.jpg,Stimuli/Experimental_stims/objects/art-lasovsky-8XddFc6NkBY-unsplash.jpg,0,0,1301,0,chosen,38,45,objects,objects,1600,0,7,2
63,23013,0,64,1,1,0,no_gain2,gain4,F,D,17,22,faces,83,77,faces,Stimuli/Experimental_stims/faces/good-faces-xmSWVeGEnJw-unsplash.jpg,Stimuli/Experimental_stims/faces/ravi-patel-VMGAbeeJTKo-unsplash.jpg,0,1,790,0,chosen,17,22,faces,faces,1300,0,7,2
64,23013,0,65,1,1,0,no_gain1,gain1,K,G,26,8,body_parts,86,81,outdoor_scenes,Stimuli/Experimental_stims/body_parts/engin-akyurt-x_3gyC42btc-unsplash.jpg,Stimuli/Experimental_stims/outdoor_scenes/samsommer-vddccTqwal8-unsplash.jpg,0,0,702,1,unchosen,8,26,outdoor_scenes,body_parts,1800,0,7,2
65,23013,0,66,1,1,0,no_gain1,gain4,K,D,43,22,objects,84,77,faces,Stimuli/Experimental_stims/objects/jonathan-greenaway-Y4hGgeiFn3s-unsplash.jpg,Stimuli/Experimental_stims/faces/ravi-patel-VMGAbeeJTKo-unsplash.jpg,0,0,693,1,chosen,22,43,faces,objects,1400,0,7,2
66,23013,0,67,1,1,0,no_gain3,gain3,J,C,15,34,faces,78,79,body_parts,Stimuli/Experimental_stims/faces/erik-lucatero-d2MSDujJl2g-unsplash.jpg,Stimuli/Experimental_stims/body_parts/wagner-santos-mBWMvIuVnso-unsplash.jpg,0,0,862,1,chosen,34,15,body_parts,faces,1500,0,7,2
67,23013,0,68,1,1,0,no_gain6,gain2,B,I,14,33,faces,73,79,body_parts,Stimuli/Experimental_stims/faces/david-siglin-UuW4psOb388-unsplash.jpg,Stimuli/Experimental_stims/body_parts/tucker-good-36skLT5jZcc-unsplash.jpg,0,1,1006,0,chosen,14,33,faces,body_parts,1100,0,7,2
68,23013,0,69,1,1,0,no_gain6,gain4,B,D,10,41,outdoor_scenes,93,66,objects,Stimuli/Experimental_stims/outdoor_scenes/shannon-kunkle-dM8INmkyDas-unsplash.jpg,Stimuli/Experimental_stims/objects/insung-yoon-w2JtIQQXoRU-unsplash.jpg,0,0,801,1,unchosen,41,10,objects,outdoor_scenes,4300,1,7,2
69,23013,0,70,1,1,0,no_gain2,gain3,F,C,17,34,faces,83,79,body_parts,Stimuli/Experimental_stims/faces/good-faces-xmSWVeGEnJw-unsplash.jpg,Stimuli/Experimental_stims/body_parts/wagner-santos-mBWMvIuVnso-unsplash.jpg,0,0,761,1,chosen,34,17,body_parts,faces,1100,0,7,2
70,23013,0,71,1,1,1,gain2,no_gain5,I,A,33,38,body_parts,79,66,objects,Stimuli/Experimental_stims/body_parts/tucker-good-36skLT5jZcc-unsplash.jpg,Stimuli/Experimental_stims/objects/art-lasovsky-8XddFc6NkBY-unsplash.jpg,1,NaN,,NaN,chosen,NaN,NaN,NaN,NaN,1300,0,7,2
71,23013,0,72,1,1,1,gain2,no_gain6,I,B,2,10,outdoor_scenes,79,93,outdoor_scenes,Stimuli/Experimental_stims/outdoor_scenes/bruno-van-der-kraan-qez8mNJ3ilU-unsplash.jpg,Stimuli/Experimental_stims/outdoor_scenes/shannon-kunkle-dM8INmkyDas-unsplash.jpg,1,NaN,,NaN,unchosen,NaN,NaN,NaN,NaN,2000,0,7,2
72,23013,0,73,1,1,0,no_gain4,gain3,E,C,47,5,objects,67,71,outdoor_scenes,Stimuli/Experimental_stims/objects/ronaldo-arthur-vidal-Cdz_lvnl37k-unsplash.jpg,Stimuli/Experimental_stims/outdoor_scenes/jeff-king-bJHWJeiHfHc-unsplash.jpg,0,0,1284,1,unchosen,5,47,outdoor_scenes,objects,1900,0,7,2
73,23013,0,74,1,1,0,no_gain4,gain5,E,H,28,18,body_parts,76,84,faces,Stimuli/Experimental_stims/body_parts/ira-vishnevskaya-8DQAvdCby1I-unsplash.jpg,Stimuli/Experimental_stims/faces/jessica-radanavong-mrYkTuAesKE-unsplash.jpg,0,0,849,1,chosen,18,28,faces,body_parts,2200,0,7,2
74,23013,0,75,1,1,1,gain4,no_gain6,D,B,22,14,faces,77,73,faces,Stimuli/Experimental_stims/faces/ravi-patel-VMGAbeeJTKo-unsplash.jpg,Stimuli/Experimental_stims/faces/david-siglin-UuW4psOb388-unsplash.jpg,0,0,998,0,chosen,14,22,faces,faces,1000,0,7,2
75,23013,0,76,1,1,1,gain4,no_gain5,D,A,41,9,objects,66,64,outdoor_scenes,Stimuli/Experimental_stims/objects/insung-yoon-w2JtIQQXoRU-unsplash.jpg,Stimuli/Experimental_stims/outdoor_scenes/sergey-pesterev-y-b_FOmJXdg-unsplash.jpg,0,1,1353,1,unchosen,41,9,objects,outdoor_scenes,1100,0,7,2
76,23013,0,77,2,2,1,gain6,no_gain3,L,J,27,42,body_parts,62,80,objects,Stimuli/Experimental_stims/body_parts/heike-mintel-i_Gns0ELnLw-unsplash.jpg,Stimuli/Experimental_stims/objects/jess-bailey-nOeVi8DsN8U-unsplash.jpg,0,0,983,0,unchosen,42,27,objects,body_parts,3800,1,10,2
77,23013,0,78,2,2,1,gain6,no_gain4,L,E,20,28,faces,84,76,body_parts,Stimuli/Experimental_stims/faces/justin-chen-J7Cf1Gch49E-unsplash.jpg,Stimuli/Experimental_stims/body_parts/ira-vishnevskaya-8DQAvdCby1I-unsplash.jpg,0,0,726,0,chosen,28,20,body_parts,faces,2000,0,10,2
78,23013,0,79,2,2,1,gain3,no_gain1,C,K,34,43,body_parts,79,84,objects,Stimuli/Experimental_stims/body_parts/wagner-santos-mBWMvIuVnso-unsplash.jpg,Stimuli/Experimental_stims/objects/jonathan-greenaway-Y4hGgeiFn3s-unsplash.jpg,1,NaN,,NaN,chosen,NaN,NaN,NaN,NaN,3000,0,10,2
79,23013,0,80,2,2,1,gain4,no_gain3,D,J,41,42,objects,66,80,objects,Stimuli/Experimental_stims/objects/insung-yoon-w2JtIQQXoRU-unsplash.jpg,Stimuli/Experimental_stims/objects/jess-bailey-nOeVi8DsN8U-unsplash.jpg,0,0,836,0,unchosen,42,41,objects,objects,1400,0,10,2
80,23013,0,81,2,2,1,gain6,no_gain6,L,B,20,14,faces,84,73,faces,Stimuli/Experimental_stims/faces/justin-chen-J7Cf1Gch49E-unsplash.jpg,Stimuli/Experimental_stims/faces/david-siglin-UuW4psOb388-unsplash.jpg,0,0,1097,0,chosen,14,20,faces,faces,2900,0,10,2
81,23013,0,82,2,2,1,gain2,no_gain1,I,K,33,43,body_parts,79,84,objects,Stimuli/Experimental_stims/body_parts/tucker-good-36skLT5jZcc-unsplash.jpg,Stimuli/Experimental_stims/objects/jonathan-greenaway-Y4hGgeiFn3s-unsplash.jpg,0,0,974,0,chosen,43,33,objects,body_parts,2000,0,10,2
82,23013,0,83,2,2,0,no_gain1,gain3,K,C,26,5,body_parts,86,71,outdoor_scenes,Stimuli/Experimental_stims/body_parts/engin-akyurt-x_3gyC42btc-unsplash.jpg,Stimuli/Experimental_stims/outdoor_scenes/jeff-king-bJHWJeiHfHc-unsplash.jpg,0,0,906,1,unchosen,5,26,outdoor_scenes,body_parts,2700,0,10,2
83,23013,0,84,2,2,0,no_gain6,gain2,B,I,14,33,faces,73,79,body_parts,Stimuli/Experimental_stims/faces/david-siglin-UuW4psOb388-unsplash.jpg,Stimuli/Experimental_stims/body_parts/tucker-good-36skLT5jZcc-unsplash.jpg,0,0,1104,1,chosen,33,14,body_parts,faces,3600,1,10,2
84,23013,0,85,2,2,0,no_gain3,gain2,J,I,42,2,objects,80,79,outdoor_scenes,Stimuli/Experimental_stims/objects/jess-bailey-nOeVi8DsN8U-unsplash.jpg,Stimuli/Experimental_stims/outdoor_scenes/bruno-van-der-kraan-qez8mNJ3ilU-unsplash.jpg,0,0,998,1,unchosen,2,42,outdoor_scenes,objects,1300,0,10,2
85,23013,0,86,2,2,1,gain6,no_gain1,L,K,27,26,body_parts,62,86,body_parts,Stimuli/Experimental_stims/body_parts/heike-mintel-i_Gns0ELnLw-unsplash.jpg,Stimuli/Experimental_stims/body_parts/engin-akyurt-x_3gyC42btc-unsplash.jpg,0,0,865,0,unchosen,26,27,body_parts,body_parts,3000,0,10,2
86,23013,0,87,2,2,0,no_gain5,gain4,A,D,9,41,outdoor_scenes,64,66,objects,Stimuli/Experimental_stims/outdoor_scenes/sergey-pesterev-y-b_FOmJXdg-unsplash.jpg,Stimuli/Experimental_stims/objects/insung-yoon-w2JtIQQXoRU-unsplash.jpg,0,0,1337,1,unchosen,41,9,objects,outdoor_scenes,2600,0,10,2
87,23013,0,88,2,2,0,no_gain2,gain3,F,C,17,34,faces,83,79,body_parts,Stimuli/Experimental_stims/faces/good-faces-xmSWVeGEnJw-unsplash.jpg,Stimuli/Experimental_stims/body_parts/wagner-santos-mBWMvIuVnso-unsplash.jpg,0,1,1026,0,chosen,17,34,faces,body_parts,1100,0,10,2
88,23013,0,89,2,2,0,no_gain1,gain1,K,G,43,45,objects,84,93,objects,Stimuli/Experimental_stims/objects/jonathan-greenaway-Y4hGgeiFn3s-unsplash.jpg,Stimuli/Experimental_stims/objects/leohoho-rngTKHXumy0-unsplash.jpg,0,0,935,1,chosen,45,43,objects,objects,1400,0,10,2
89,23013,0,90,2,2,0,no_gain5,gain2,A,I,9,2,outdoor_scenes,64,79,outdoor_scenes,Stimuli/Experimental_stims/outdoor_scenes/sergey-pesterev-y-b_FOmJXdg-unsplash.jpg,Stimuli/Experimental_stims/outdoor_scenes/bruno-van-der-kraan-qez8mNJ3ilU-unsplash.jpg,0,0,716,1,unchosen,2,9,outdoor_scenes,outdoor_scenes,1100,0,10,2
90,23013,0,91,2,2,1,gain3,no_gain3,C,J,5,42,outdoor_scenes,71,80,objects,Stimuli/Experimental_stims/outdoor_scenes/jeff-king-bJHWJeiHfHc-unsplash.jpg,Stimuli/Experimental_stims/objects/jess-bailey-nOeVi8DsN8U-unsplash.jpg,0,0,902,0,unchosen,42,5,objects,outdoor_scenes,2900,0,10,2
91,23013,0,92,2,2,1,gain5,no_gain4,H,E,18,28,faces,84,76,body_parts,Stimuli/Experimental_stims/faces/jessica-radanavong-mrYkTuAesKE-unsplash.jpg,Stimuli/Experimental_stims/body_parts/ira-vishnevskaya-8DQAvdCby1I-unsplash.jpg,0,1,889,1,chosen,18,28,faces,body_parts,1600,0,10,2
92,23013,0,93,2,2,1,gain2,no_gain6,I,B,2,10,outdoor_scenes,79,93,outdoor_scenes,Stimuli/Experimental_stims/outdoor_scenes/bruno-van-der-kraan-qez8mNJ3ilU-unsplash.jpg,Stimuli/Experimental_stims/outdoor_scenes/shannon-kunkle-dM8INmkyDas-unsplash.jpg,0,1,909,1,unchosen,2,10,outdoor_scenes,outdoor_scenes,1500,0,10,2
93,23013,0,94,2,2,0,no_gain5,gain6,A,L,9,27,outdoor_scenes,64,62,body_parts,Stimuli/Experimental_stims/outdoor_scenes/sergey-pesterev-y-b_FOmJXdg-unsplash.jpg,Stimuli/Experimental_stims/body_parts/heike-mintel-i_Gns0ELnLw-unsplash.jpg,0,0,783,1,unchosen,27,9,body_parts,outdoor_scenes,3800,1,10,2
94,23013,0,95,2,2,0,no_gain6,gain4,B,D,14,22,faces,73,77,faces,Stimuli/Experimental_stims/faces/david-siglin-UuW4psOb388-unsplash.jpg,Stimuli/Experimental_stims/faces/ravi-patel-VMGAbeeJTKo-unsplash.jpg,0,0,780,1,chosen,22,14,faces,faces,1500,0,10,2
95,23013,0,96,2,2,1,gain5,no_gain2,H,F,6,30,outdoor_scenes,81,87,body_parts,Stimuli/Experimental_stims/outdoor_scenes/meng-ji-8BH_M-53CyA-unsplash.jpg,Stimuli/Experimental_stims/body_parts/mika-korhonen-Xodzxosar18-unsplash.jpg,0,0,967,0,unchosen,30,6,body_parts,outdoor_scenes,1000,0,10,2
96,23013,0,97,2,2,1,gain4,no_gain4,D,E,41,47,objects,66,67,objects,Stimuli/Experimental_stims/objects/insung-yoon-w2JtIQQXoRU-unsplash.jpg,Stimuli/Experimental_stims/objects/ronaldo-arthur-vidal-Cdz_lvnl37k-unsplash.jpg,0,0,1068,0,unchosen,47,41,objects,objects,1600,0,10,2
97,23013,0,98,2,2,0,no_gain5,gain3,A,C,38,34,objects,66,79,body_parts,Stimuli/Experimental_stims/objects/art-lasovsky-8XddFc6NkBY-unsplash.jpg,Stimuli/Experimental_stims/body_parts/wagner-santos-mBWMvIuVnso-unsplash.jpg,1,NaN,,NaN,chosen,NaN,NaN,NaN,NaN,1300,0,10,2
98,23013,0,99,2,2,1,gain2,no_gain4,I,E,33,28,body_parts,79,76,body_parts,Stimuli/Experimental_stims/body_parts/tucker-good-36skLT5jZcc-unsplash.jpg,Stimuli/Experimental_stims/body_parts/ira-vishnevskaya-8DQAvdCby1I-unsplash.jpg,0,0,783,0,chosen,28,33,body_parts,body_parts,3500,1,10,2
99,23013,0,100,2,2,0,no_gain2,gain4,F,D,17,22,faces,83,77,faces,Stimuli/Experimental_stims/faces/good-faces-xmSWVeGEnJw-unsplash.jpg,Stimuli/Experimental_stims/faces/ravi-patel-VMGAbeeJTKo-unsplash.jpg,0,0,637,1,chosen,22,17,faces,faces,2500,0,10,2
100,23013,0,101,2,2,1,gain5,no_gain6,H,B,6,10,outdoor_scenes,81,93,outdoor_scenes,Stimuli/Experimental_stims/outdoor_scenes/meng-ji-8BH_M-53CyA-unsplash.jpg,Stimuli/Experimental_stims/outdoor_scenes/shannon-kunkle-dM8INmkyDas-unsplash.jpg,0,0,711,0,unchosen,10,6,outdoor_scenes,outdoor_scenes,1100,0,10,2
101,23013,0,102,2,2,1,gain3,no_gain3,C,J,34,15,body_parts,79,78,faces,Stimuli/Experimental_stims/body_parts/wagner-santos-mBWMvIuVnso-unsplash.jpg,Stimuli/Experimental_stims/faces/erik-lucatero-d2MSDujJl2g-unsplash.jpg,0,0,822,0,chosen,15,34,faces,body_parts,1000,0,10,2
102,23013,0,103,2,2,0,no_gain2,gain1,F,G,30,8,body_parts,87,81,outdoor_scenes,Stimuli/Experimental_stims/body_parts/mika-korhonen-Xodzxosar18-unsplash.jpg,Stimuli/Experimental_stims/outdoor_scenes/samsommer-vddccTqwal8-unsplash.jpg,0,1,1094,0,unchosen,30,8,body_parts,outdoor_scenes,2100,0,10,2
103,23013,0,104,2,2,1,gain4,no_gain4,D,E,22,28,faces,77,76,body_parts,Stimuli/Experimental_stims/faces/ravi-patel-VMGAbeeJTKo-unsplash.jpg,Stimuli/Experimental_stims/body_parts/ira-vishnevskaya-8DQAvdCby1I-unsplash.jpg,0,0,804,0,chosen,28,22,body_parts,faces,1300,0,10,2
104,23013,0,105,2,2,0,no_gain2,gain4,F,D,30,41,body_parts,87,66,objects,Stimuli/Experimental_stims/body_parts/mika-korhonen-Xodzxosar18-unsplash.jpg,Stimuli/Experimental_stims/objects/insung-yoon-w2JtIQQXoRU-unsplash.jpg,0,1,1157,0,unchosen,30,41,body_parts,objects,2000,0,10,2
105,23013,0,106,2,2,1,gain5,no_gain1,H,K,18,43,faces,84,84,objects,Stimuli/Experimental_stims/faces/jessica-radanavong-mrYkTuAesKE-unsplash.jpg,Stimuli/Experimental_stims/objects/jonathan-greenaway-Y4hGgeiFn3s-unsplash.jpg,0,0,762,0,chosen,43,18,objects,faces,3100,1,10,2
106,23013,0,107,2,2,0,no_gain6,gain3,B,C,10,5,outdoor_scenes,93,71,outdoor_scenes,Stimuli/Experimental_stims/outdoor_scenes/shannon-kunkle-dM8INmkyDas-unsplash.jpg,Stimuli/Experimental_stims/outdoor_scenes/jeff-king-bJHWJeiHfHc-unsplash.jpg,0,0,1005,1,unchosen,5,10,outdoor_scenes,outdoor_scenes,1400,0,10,2
107,23013,0,108,2,2,1,gain6,no_gain1,L,K,20,43,faces,84,84,objects,Stimuli/Experimental_stims/faces/justin-chen-J7Cf1Gch49E-unsplash.jpg,Stimuli/Experimental_stims/objects/jonathan-greenaway-Y4hGgeiFn3s-unsplash.jpg,0,0,660,0,chosen,43,20,objects,faces,1300,0,10,2
108,23013,0,109,2,2,0,no_gain2,gain5,F,H,17,18,faces,83,84,faces,Stimuli/Experimental_stims/faces/good-faces-xmSWVeGEnJw-unsplash.jpg,Stimuli/Experimental_stims/faces/jessica-radanavong-mrYkTuAesKE-unsplash.jpg,0,1,890,0,chosen,17,18,faces,faces,1300,0,10,2
109,23013,0,110,2,2,0,no_gain5,gain5,A,H,9,6,outdoor_scenes,64,81,outdoor_scenes,Stimuli/Experimental_stims/outdoor_scenes/sergey-pesterev-y-b_FOmJXdg-unsplash.jpg,Stimuli/Experimental_stims/outdoor_scenes/meng-ji-8BH_M-53CyA-unsplash.jpg,0,0,731,1,unchosen,6,9,outdoor_scenes,outdoor_scenes,1200,0,10,2
110,23013,0,111,2,2,0,no_gain5,gain1,A,G,9,8,outdoor_scenes,64,81,outdoor_scenes,Stimuli/Experimental_stims/outdoor_scenes/sergey-pesterev-y-b_FOmJXdg-unsplash.jpg,Stimuli/Experimental_stims/outdoor_scenes/samsommer-vddccTqwal8-unsplash.jpg,0,0,771,1,unchosen,8,9,outdoor_scenes,outdoor_scenes,1300,0,10,2
111,23013,0,112,2,2,0,no_gain6,gain5,B,H,14,18,faces,73,84,faces,Stimuli/Experimental_stims/faces/david-siglin-UuW4psOb388-unsplash.jpg,Stimuli/Experimental_stims/faces/jessica-radanavong-mrYkTuAesKE-unsplash.jpg,0,0,831,1,chosen,18,14,faces,faces,1100,0,10,2
112,23013,0,113,2,2,1,gain2,no_gain2,I,F,33,17,body_parts,79,83,faces,Stimuli/Experimental_stims/body_parts/tucker-good-36skLT5jZcc-unsplash.jpg,Stimuli/Experimental_stims/faces/good-faces-xmSWVeGEnJw-unsplash.jpg,0,0,764,0,chosen,17,33,faces,body_parts,1900,0,10,2
113,23013,0,114,2,2,1,gain1,no_gain6,G,B,8,10,outdoor_scenes,81,93,outdoor_scenes,Stimuli/Experimental_stims/outdoor_scenes/samsommer-vddccTqwal8-unsplash.jpg,Stimuli/Experimental_stims/outdoor_scenes/shannon-kunkle-dM8INmkyDas-unsplash.jpg,0,1,703,1,unchosen,8,10,outdoor_scenes,outdoor_scenes,2100,0,10,2
114,23013,0,115,2,2,0,no_gain3,gain5,J,H,42,6,objects,80,81,outdoor_scenes,Stimuli/Experimental_stims/objects/jess-bailey-nOeVi8DsN8U-unsplash.jpg,Stimuli/Experimental_stims/outdoor_scenes/meng-ji-8BH_M-53CyA-unsplash.jpg,0,0,697,1,unchosen,6,42,outdoor_scenes,objects,1400,0,10,2
115,23013,0,116,2,2,1,gain3,no_gain6,C,B,34,14,body_parts,79,73,faces,Stimuli/Experimental_stims/body_parts/wagner-santos-mBWMvIuVnso-unsplash.jpg,Stimuli/Experimental_stims/faces/david-siglin-UuW4psOb388-unsplash.jpg,0,0,888,0,chosen,14,34,faces,body_parts,1100,0,10,2
116,23013,0,117,2,2,0,no_gain5,gain5,A,H,38,18,objects,66,84,faces,Stimuli/Experimental_stims/objects/art-lasovsky-8XddFc6NkBY-unsplash.jpg,Stimuli/Experimental_stims/faces/jessica-radanavong-mrYkTuAesKE-unsplash.jpg,0,1,738,0,chosen,38,18,objects,faces,1600,0,10,2
117,23013,0,118,2,2,1,gain3,no_gain4,C,E,5,47,outdoor_scenes,71,67,objects,Stimuli/Experimental_stims/outdoor_scenes/jeff-king-bJHWJeiHfHc-unsplash.jpg,Stimuli/Experimental_stims/objects/ronaldo-arthur-vidal-Cdz_lvnl37k-unsplash.jpg,0,0,1015,0,unchosen,47,5,objects,outdoor_scenes,1300,0,10,2
118,23013,0,119,2,2,1,gain4,no_gain1,D,K,22,43,faces,77,84,objects,Stimuli/Experimental_stims/faces/ravi-patel-VMGAbeeJTKo-unsplash.jpg,Stimuli/Experimental_stims/objects/jonathan-greenaway-Y4hGgeiFn3s-unsplash.jpg,0,0,727,0,chosen,43,22,objects,faces,2500,0,10,2
119,23013,0,120,2,2,0,no_gain4,gain2,E,I,47,2,objects,67,79,outdoor_scenes,Stimuli/Experimental_stims/objects/ronaldo-arthur-vidal-Cdz_lvnl37k-unsplash.jpg,Stimuli/Experimental_stims/outdoor_scenes/bruno-van-der-kraan-qez8mNJ3ilU-unsplash.jpg,0,0,640,1,unchosen,2,47,outdoor_scenes,objects,4300,1,10,2
120,23013,0,121,2,2,0,no_gain3,gain4,J,D,15,22,faces,78,77,faces,Stimuli/Experimental_stims/faces/erik-lucatero-d2MSDujJl2g-unsplash.jpg,Stimuli/Experimental_stims/faces/ravi-patel-VMGAbeeJTKo-unsplash.jpg,0,1,842,0,chosen,15,22,faces,faces,2400,0,10,2
121,23013,0,122,2,2,1,gain1,no_gain4,G,E,8,47,outdoor_scenes,81,67,objects,Stimuli/Experimental_stims/outdoor_scenes/samsommer-vddccTqwal8-unsplash.jpg,Stimuli/Experimental_stims/objects/ronaldo-arthur-vidal-Cdz_lvnl37k-unsplash.jpg,0,0,703,0,unchosen,47,8,objects,outdoor_scenes,1800,0,10,2
122,23013,0,123,2,2,1,gain6,no_gain3,L,J,20,15,faces,84,78,faces,Stimuli/Experimental_stims/faces/justin-chen-J7Cf1Gch49E-unsplash.jpg,Stimuli/Experimental_stims/faces/erik-lucatero-d2MSDujJl2g-unsplash.jpg,0,0,825,0,chosen,15,20,faces,faces,1000,0,10,2
123,23013,0,124,2,2,1,gain5,no_gain1,H,K,6,26,outdoor_scenes,81,86,body_parts,Stimuli/Experimental_stims/outdoor_scenes/meng-ji-8BH_M-53CyA-unsplash.jpg,Stimuli/Experimental_stims/body_parts/engin-akyurt-x_3gyC42btc-unsplash.jpg,0,1,1187,1,unchosen,6,26,outdoor_scenes,body_parts,2000,0,10,2
124,23013,0,125,2,2,1,gain3,no_gain2,C,F,5,30,outdoor_scenes,71,87,body_parts,Stimuli/Experimental_stims/outdoor_scenes/jeff-king-bJHWJeiHfHc-unsplash.jpg,Stimuli/Experimental_stims/body_parts/mika-korhonen-Xodzxosar18-unsplash.jpg,0,0,551,0,unchosen,30,5,body_parts,outdoor_scenes,2700,0,10,2
125,23013,0,126,2,2,0,no_gain2,gain2,F,I,30,2,body_parts,87,79,outdoor_scenes,Stimuli/Experimental_stims/body_parts/mika-korhonen-Xodzxosar18-unsplash.jpg,Stimuli/Experimental_stims/outdoor_scenes/bruno-van-der-kraan-qez8mNJ3ilU-unsplash.jpg,0,0,1008,1,unchosen,2,30,outdoor_scenes,body_parts,2500,0,10,2
126,23013,0,127,2,2,0,no_gain4,gain1,E,G,28,45,body_parts,76,93,objects,Stimuli/Experimental_stims/body_parts/ira-vishnevskaya-8DQAvdCby1I-unsplash.jpg,Stimuli/Experimental_stims/objects/leohoho-rngTKHXumy0-unsplash.jpg,0,0,684,1,chosen,45,28,objects,body_parts,1800,0,10,2
127,23013,0,128,2,2,1,gain4,no_gain6,D,B,41,10,objects,66,93,outdoor_scenes,Stimuli/Experimental_stims/objects/insung-yoon-w2JtIQQXoRU-unsplash.jpg,Stimuli/Experimental_stims/outdoor_scenes/shannon-kunkle-dM8INmkyDas-unsplash.jpg,0,0,704,0,unchosen,10,41,outdoor_scenes,objects,1200,0,10,2
128,23013,0,129,2,2,0,no_gain1,gain2,K,I,26,2,body_parts,86,79,outdoor_scenes,Stimuli/Experimental_stims/body_parts/engin-akyurt-x_3gyC42btc-unsplash.jpg,Stimuli/Experimental_stims/outdoor_scenes/bruno-van-der-kraan-qez8mNJ3ilU-unsplash.jpg,0,1,912,0,unchosen,26,2,body_parts,outdoor_scenes,3800,1,10,2
129,23013,0,130,2,2,1,gain1,no_gain6,G,B,45,14,objects,93,73,faces,Stimuli/Experimental_stims/objects/leohoho-rngTKHXumy0-unsplash.jpg,Stimuli/Experimental_stims/faces/david-siglin-UuW4psOb388-unsplash.jpg,0,1,0,1,chosen,45,14,objects,faces,1300,0,10,2
130,23013,0,131,2,2,1,gain6,no_gain4,L,E,27,47,body_parts,62,67,objects,Stimuli/Experimental_stims/body_parts/heike-mintel-i_Gns0ELnLw-unsplash.jpg,Stimuli/Experimental_stims/objects/ronaldo-arthur-vidal-Cdz_lvnl37k-unsplash.jpg,0,0,822,0,unchosen,47,27,objects,body_parts,2900,0,10,2
131,23013,0,132,2,2,0,no_gain5,gain2,A,I,38,33,objects,66,79,body_parts,Stimuli/Experimental_stims/objects/art-lasovsky-8XddFc6NkBY-unsplash.jpg,Stimuli/Experimental_stims/body_parts/tucker-good-36skLT5jZcc-unsplash.jpg,0,0,725,1,chosen,33,38,body_parts,objects,1200,0,10,2
132,23013,0,133,2,2,0,no_gain5,gain6,A,L,38,20,objects,66,84,faces,Stimuli/Experimental_stims/objects/art-lasovsky-8XddFc6NkBY-unsplash.jpg,Stimuli/Experimental_stims/faces/justin-chen-J7Cf1Gch49E-unsplash.jpg,0,1,1171,0,chosen,38,20,objects,faces,1300,0,10,2
133,23013,0,134,2,2,0,no_gain2,gain6,F,L,30,27,body_parts,87,62,body_parts,Stimuli/Experimental_stims/body_parts/mika-korhonen-Xodzxosar18-unsplash.jpg,Stimuli/Experimental_stims/body_parts/heike-mintel-i_Gns0ELnLw-unsplash.jpg,0,0,812,1,unchosen,27,30,body_parts,body_parts,2500,0,10,2
134,23013,0,135,2,2,1,gain5,no_gain3,H,J,18,15,faces,84,78,faces,Stimuli/Experimental_stims/faces/jessica-radanavong-mrYkTuAesKE-unsplash.jpg,Stimuli/Experimental_stims/faces/erik-lucatero-d2MSDujJl2g-unsplash.jpg,0,0,741,0,chosen,15,18,faces,faces,3000,0,10,2
135,23013,0,136,2,2,1,gain4,no_gain5,D,A,22,38,faces,77,66,objects,Stimuli/Experimental_stims/faces/ravi-patel-VMGAbeeJTKo-unsplash.jpg,Stimuli/Experimental_stims/objects/art-lasovsky-8XddFc6NkBY-unsplash.jpg,0,0,700,0,chosen,38,22,objects,faces,4200,1,10,2
136,23013,0,137,2,2,0,no_gain6,gain6,B,L,10,27,outdoor_scenes,93,62,body_parts,Stimuli/Experimental_stims/outdoor_scenes/shannon-kunkle-dM8INmkyDas-unsplash.jpg,Stimuli/Experimental_stims/body_parts/heike-mintel-i_Gns0ELnLw-unsplash.jpg,1,NaN,,NaN,unchosen,NaN,NaN,NaN,NaN,1700,0,10,2
137,23013,0,138,2,2,0,no_gain3,gain1,J,G,15,45,faces,78,93,objects,Stimuli/Experimental_stims/faces/erik-lucatero-d2MSDujJl2g-unsplash.jpg,Stimuli/Experimental_stims/objects/leohoho-rngTKHXumy0-unsplash.jpg,0,0,748,1,chosen,45,15,objects,faces,1300,0,10,2
138,23013,0,139,2,2,0,no_gain2,gain1,F,G,17,45,faces,83,93,objects,Stimuli/Experimental_stims/faces/good-faces-xmSWVeGEnJw-unsplash.jpg,Stimuli/Experimental_stims/objects/leohoho-rngTKHXumy0-unsplash.jpg,0,0,1182,1,chosen,45,17,objects,faces,1100,0,10,2
139,23013,0,140,2,2,0,no_gain2,gain6,F,L,17,20,faces,83,84,faces,Stimuli/Experimental_stims/faces/good-faces-xmSWVeGEnJw-unsplash.jpg,Stimuli/Experimental_stims/faces/justin-chen-J7Cf1Gch49E-unsplash.jpg,0,1,790,0,chosen,17,20,faces,faces,1300,0,10,2
140,23013,0,141,2,2,1,gain5,no_gain4,H,E,6,47,outdoor_scenes,81,67,objects,Stimuli/Experimental_stims/outdoor_scenes/meng-ji-8BH_M-53CyA-unsplash.jpg,Stimuli/Experimental_stims/objects/ronaldo-arthur-vidal-Cdz_lvnl37k-unsplash.jpg,0,0,678,0,unchosen,47,6,objects,outdoor_scenes,1500,0,10,2
141,23013,0,142,2,2,0,no_gain5,gain1,A,G,38,45,objects,66,93,objects,Stimuli/Experimental_stims/objects/art-lasovsky-8XddFc6NkBY-unsplash.jpg,Stimuli/Experimental_stims/objects/leohoho-rngTKHXumy0-unsplash.jpg,0,0,874,1,chosen,45,38,objects,objects,1800,0,10,2
142,23013,0,143,2,2,0,no_gain1,gain4,K,D,26,41,body_parts,86,66,objects,Stimuli/Experimental_stims/body_parts/engin-akyurt-x_3gyC42btc-unsplash.jpg,Stimuli/Experimental_stims/objects/insung-yoon-w2JtIQQXoRU-unsplash.jpg,0,1,947,0,unchosen,26,41,body_parts,objects,1400,0,10,2
143,23013,0,144,2,2,1,gain3,no_gain5,C,A,5,9,outdoor_scenes,71,64,outdoor_scenes,Stimuli/Experimental_stims/outdoor_scenes/jeff-king-bJHWJeiHfHc-unsplash.jpg,Stimuli/Experimental_stims/outdoor_scenes/sergey-pesterev-y-b_FOmJXdg-unsplash.jpg,0,0,1072,0,unchosen,9,5,outdoor_scenes,outdoor_scenes,1400,0,10,2
144,23013,0,145,2,2,0,no_gain4,gain3,E,C,28,34,body_parts,76,79,body_parts,Stimuli/Experimental_stims/body_parts/ira-vishnevskaya-8DQAvdCby1I-unsplash.jpg,Stimuli/Experimental_stims/body_parts/wagner-santos-mBWMvIuVnso-unsplash.jpg,0,0,1141,1,chosen,34,28,body_parts,body_parts,1600,0,10,2
145,23013,0,146,2,2,1,gain1,no_gain3,G,J,8,42,outdoor_scenes,81,80,objects,Stimuli/Experimental_stims/outdoor_scenes/samsommer-vddccTqwal8-unsplash.jpg,Stimuli/Experimental_stims/objects/jess-bailey-nOeVi8DsN8U-unsplash.jpg,0,0,803,0,unchosen,42,8,objects,outdoor_scenes,2000,0,10,2
146,23013,0,147,2,2,0,no_gain1,gain1,K,G,26,8,body_parts,86,81,outdoor_scenes,Stimuli/Experimental_stims/body_parts/engin-akyurt-x_3gyC42btc-unsplash.jpg,Stimuli/Experimental_stims/outdoor_scenes/samsommer-vddccTqwal8-unsplash.jpg,0,0,850,1,unchosen,8,26,outdoor_scenes,body_parts,2500,0,10,2
147,23013,0,148,2,2,1,gain2,no_gain3,I,J,33,15,body_parts,79,78,faces,Stimuli/Experimental_stims/body_parts/tucker-good-36skLT5jZcc-unsplash.jpg,Stimuli/Experimental_stims/faces/erik-lucatero-d2MSDujJl2g-unsplash.jpg,0,0,756,0,chosen,15,33,faces,body_parts,3300,1,10,2
148,23013,0,149,3,3,0,no_gain1,gain2,K,I,26,2,body_parts,86,79,outdoor_scenes,Stimuli/Experimental_stims/body_parts/engin-akyurt-x_3gyC42btc-unsplash.jpg,Stimuli/Experimental_stims/outdoor_scenes/bruno-van-der-kraan-qez8mNJ3ilU-unsplash.jpg,0,1,1072,0,unchosen,26,2,body_parts,outdoor_scenes,2200,0,10,2
149,23013,0,150,3,3,1,gain2,no_gain4,I,E,2,47,outdoor_scenes,79,67,objects,Stimuli/Experimental_stims/outdoor_scenes/bruno-van-der-kraan-qez8mNJ3ilU-unsplash.jpg,Stimuli/Experimental_stims/objects/ronaldo-arthur-vidal-Cdz_lvnl37k-unsplash.jpg,0,0,1002,0,unchosen,47,2,objects,outdoor_scenes,1200,0,10,2
150,23013,0,151,3,3,0,no_gain5,gain1,A,G,9,8,outdoor_scenes,64,81,outdoor_scenes,Stimuli/Experimental_stims/outdoor_scenes/sergey-pesterev-y-b_FOmJXdg-unsplash.jpg,Stimuli/Experimental_stims/outdoor_scenes/samsommer-vddccTqwal8-unsplash.jpg,0,0,1154,1,unchosen,8,9,outdoor_scenes,outdoor_scenes,1700,0,10,2
151,23013,0,152,3,3,0,no_gain6,gain4,B,D,14,22,faces,73,77,faces,Stimuli/Experimental_stims/faces/david-siglin-UuW4psOb388-unsplash.jpg,Stimuli/Experimental_stims/faces/ravi-patel-VMGAbeeJTKo-unsplash.jpg,0,0,823,1,chosen,22,14,faces,faces,1100,0,10,2
152,23013,0,153,3,3,0,no_gain1,gain3,K,C,43,34,objects,84,79,body_parts,Stimuli/Experimental_stims/objects/jonathan-greenaway-Y4hGgeiFn3s-unsplash.jpg,Stimuli/Experimental_stims/body_parts/wagner-santos-mBWMvIuVnso-unsplash.jpg,0,1,1150,0,chosen,43,34,objects,body_parts,1000,0,10,2
153,23013,0,154,3,3,1,gain4,no_gain3,D,J,41,42,objects,66,80,objects,Stimuli/Experimental_stims/objects/insung-yoon-w2JtIQQXoRU-unsplash.jpg,Stimuli/Experimental_stims/objects/jess-bailey-nOeVi8DsN8U-unsplash.jpg,0,0,806,0,unchosen,42,41,objects,objects,1900,0,10,2
154,23013,0,155,3,3,1,gain3,no_gain3,C,J,5,42,outdoor_scenes,71,80,objects,Stimuli/Experimental_stims/outdoor_scenes/jeff-king-bJHWJeiHfHc-unsplash.jpg,Stimuli/Experimental_stims/objects/jess-bailey-nOeVi8DsN8U-unsplash.jpg,0,0,625,0,unchosen,42,5,objects,outdoor_scenes,4700,1,10,2
155,23013,0,156,3,3,1,gain5,no_gain5,H,A,18,38,faces,84,66,objects,Stimuli/Experimental_stims/faces/jessica-radanavong-mrYkTuAesKE-unsplash.jpg,Stimuli/Experimental_stims/objects/art-lasovsky-8XddFc6NkBY-unsplash.jpg,0,1,773,1,chosen,18,38,faces,objects,2400,0,10,2
156,23013,0,157,3,3,1,gain6,no_gain3,L,J,27,42,body_parts,62,80,objects,Stimuli/Experimental_stims/body_parts/heike-mintel-i_Gns0ELnLw-unsplash.jpg,Stimuli/Experimental_stims/objects/jess-bailey-nOeVi8DsN8U-unsplash.jpg,0,0,815,0,unchosen,42,27,objects,body_parts,1900,0,10,2
157,23013,0,158,3,3,1,gain1,no_gain4,G,E,45,28,objects,93,76,body_parts,Stimuli/Experimental_stims/objects/leohoho-rngTKHXumy0-unsplash.jpg,Stimuli/Experimental_stims/body_parts/ira-vishnevskaya-8DQAvdCby1I-unsplash.jpg,0,0,759,0,chosen,28,45,body_parts,objects,1000,0,10,2
158,23013,0,159,3,3,0,no_gain2,gain6,F,L,17,20,faces,83,84,faces,Stimuli/Experimental_stims/faces/good-faces-xmSWVeGEnJw-unsplash.jpg,Stimuli/Experimental_stims/faces/justin-chen-J7Cf1Gch49E-unsplash.jpg,0,0,1285,1,chosen,20,17,faces,faces,1800,0,10,2
159,23013,0,160,3,3,1,gain4,no_gain4,D,E,41,47,objects,66,67,objects,Stimuli/Experimental_stims/objects/insung-yoon-w2JtIQQXoRU-unsplash.jpg,Stimuli/Experimental_stims/objects/ronaldo-arthur-vidal-Cdz_lvnl37k-unsplash.jpg,0,0,721,0,unchosen,47,41,objects,objects,1800,0,10,2
160,23013,0,161,3,3,0,no_gain4,gain3,E,C,47,5,objects,67,71,outdoor_scenes,Stimuli/Experimental_stims/objects/ronaldo-arthur-vidal-Cdz_lvnl37k-unsplash.jpg,Stimuli/Experimental_stims/outdoor_scenes/jeff-king-bJHWJeiHfHc-unsplash.jpg,0,1,970,0,unchosen,47,5,objects,outdoor_scenes,4700,1,10,2
161,23013,0,162,3,3,0,no_gain1,gain4,K,D,26,41,body_parts,86,66,objects,Stimuli/Experimental_stims/body_parts/engin-akyurt-x_3gyC42btc-unsplash.jpg,Stimuli/Experimental_stims/objects/insung-yoon-w2JtIQQXoRU-unsplash.jpg,0,0,765,1,unchosen,41,26,objects,body_parts,1300,0,10,2
162,23013,0,163,3,3,1,gain2,no_gain5,I,A,33,38,body_parts,79,66,objects,Stimuli/Experimental_stims/body_parts/tucker-good-36skLT5jZcc-unsplash.jpg,Stimuli/Experimental_stims/objects/art-lasovsky-8XddFc6NkBY-unsplash.jpg,0,0,711,0,chosen,38,33,objects,body_parts,1200,0,10,2
163,23013,0,164,3,3,0,no_gain3,gain4,J,D,15,22,faces,78,77,faces,Stimuli/Experimental_stims/faces/erik-lucatero-d2MSDujJl2g-unsplash.jpg,Stimuli/Experimental_stims/faces/ravi-patel-VMGAbeeJTKo-unsplash.jpg,0,0,787,1,chosen,22,15,faces,faces,1600,0,10,2
164,23013,0,165,3,3,0,no_gain2,gain5,F,H,30,6,body_parts,87,81,outdoor_scenes,Stimuli/Experimental_stims/body_parts/mika-korhonen-Xodzxosar18-unsplash.jpg,Stimuli/Experimental_stims/outdoor_scenes/meng-ji-8BH_M-53CyA-unsplash.jpg,0,1,984,0,unchosen,30,6,body_parts,outdoor_scenes,1200,0,10,2
165,23013,0,166,3,3,1,gain6,no_gain5,L,A,27,9,body_parts,62,64,outdoor_scenes,Stimuli/Experimental_stims/body_parts/heike-mintel-i_Gns0ELnLw-unsplash.jpg,Stimuli/Experimental_stims/outdoor_scenes/sergey-pesterev-y-b_FOmJXdg-unsplash.jpg,0,0,713,0,unchosen,9,27,outdoor_scenes,body_parts,1100,0,10,2
166,23013,0,167,3,3,0,no_gain6,gain3,B,C,14,34,faces,73,79,body_parts,Stimuli/Experimental_stims/faces/david-siglin-UuW4psOb388-unsplash.jpg,Stimuli/Experimental_stims/body_parts/wagner-santos-mBWMvIuVnso-unsplash.jpg,0,0,743,1,chosen,34,14,body_parts,faces,3100,1,10,2
167,23013,0,168,3,3,0,no_gain5,gain3,A,C,9,5,outdoor_scenes,64,71,outdoor_scenes,Stimuli/Experimental_stims/outdoor_scenes/sergey-pesterev-y-b_FOmJXdg-unsplash.jpg,Stimuli/Experimental_stims/outdoor_scenes/jeff-king-bJHWJeiHfHc-unsplash.jpg,0,0,1099,1,unchosen,5,9,outdoor_scenes,outdoor_scenes,1500,0,10,2
168,23013,0,169,3,3,0,no_gain4,gain3,E,C,28,34,body_parts,76,79,body_parts,Stimuli/Experimental_stims/body_parts/ira-vishnevskaya-8DQAvdCby1I-unsplash.jpg,Stimuli/Experimental_stims/body_parts/wagner-santos-mBWMvIuVnso-unsplash.jpg,0,0,759,1,chosen,34,28,body_parts,body_parts,1000,0,10,2
169,23013,0,170,3,3,0,no_gain5,gain2,A,I,9,2,outdoor_scenes,64,79,outdoor_scenes,Stimuli/Experimental_stims/outdoor_scenes/sergey-pesterev-y-b_FOmJXdg-unsplash.jpg,Stimuli/Experimental_stims/outdoor_scenes/bruno-van-der-kraan-qez8mNJ3ilU-unsplash.jpg,0,1,996,0,unchosen,9,2,outdoor_scenes,outdoor_scenes,1500,0,10,2
170,23013,0,171,3,3,0,no_gain3,gain2,J,I,15,33,faces,78,79,body_parts,Stimuli/Experimental_stims/faces/erik-lucatero-d2MSDujJl2g-unsplash.jpg,Stimuli/Experimental_stims/body_parts/tucker-good-36skLT5jZcc-unsplash.jpg,0,0,944,1,chosen,33,15,body_parts,faces,1400,0,10,2
171,23013,0,172,3,3,1,gain1,no_gain2,G,F,45,17,objects,93,83,faces,Stimuli/Experimental_stims/objects/leohoho-rngTKHXumy0-unsplash.jpg,Stimuli/Experimental_stims/faces/good-faces-xmSWVeGEnJw-unsplash.jpg,0,0,797,0,chosen,17,45,faces,objects,3500,1,10,2
172,23013,0,173,3,3,0,no_gain4,gain2,E,I,28,33,body_parts,76,79,body_parts,Stimuli/Experimental_stims/body_parts/ira-vishnevskaya-8DQAvdCby1I-unsplash.jpg,Stimuli/Experimental_stims/body_parts/tucker-good-36skLT5jZcc-unsplash.jpg,0,0,690,1,chosen,33,28,body_parts,body_parts,1600,0,10,2
173,23013,0,174,3,3,0,no_gain4,gain5,E,H,47,6,objects,67,81,outdoor_scenes,Stimuli/Experimental_stims/objects/ronaldo-arthur-vidal-Cdz_lvnl37k-unsplash.jpg,Stimuli/Experimental_stims/outdoor_scenes/meng-ji-8BH_M-53CyA-unsplash.jpg,0,0,820,1,unchosen,6,47,outdoor_scenes,objects,2200,0,10,2
174,23013,0,175,3,3,0,no_gain3,gain2,J,I,42,2,objects,80,79,outdoor_scenes,Stimuli/Experimental_stims/objects/jess-bailey-nOeVi8DsN8U-unsplash.jpg,Stimuli/Experimental_stims/outdoor_scenes/bruno-van-der-kraan-qez8mNJ3ilU-unsplash.jpg,0,0,662,1,unchosen,2,42,outdoor_scenes,objects,1200,0,10,2
175,23013,0,176,3,3,1,gain2,no_gain2,I,F,2,30,outdoor_scenes,79,87,body_parts,Stimuli/Experimental_stims/outdoor_scenes/bruno-van-der-kraan-qez8mNJ3ilU-unsplash.jpg,Stimuli/Experimental_stims/body_parts/mika-korhonen-Xodzxosar18-unsplash.jpg,1,NaN,,NaN,unchosen,NaN,NaN,NaN,NaN,1900,0,10,2
176,23013,0,177,3,3,0,no_gain6,gain5,B,H,14,18,faces,73,84,faces,Stimuli/Experimental_stims/faces/david-siglin-UuW4psOb388-unsplash.jpg,Stimuli/Experimental_stims/faces/jessica-radanavong-mrYkTuAesKE-unsplash.jpg,0,1,927,0,chosen,14,18,faces,faces,2000,0,10,2
177,23013,0,178,3,3,1,gain6,no_gain1,L,K,20,43,faces,84,84,objects,Stimuli/Experimental_stims/faces/justin-chen-J7Cf1Gch49E-unsplash.jpg,Stimuli/Experimental_stims/objects/jonathan-greenaway-Y4hGgeiFn3s-unsplash.jpg,0,0,1389,0,chosen,43,20,objects,faces,1800,0,10,2
178,23013,0,179,3,3,0,no_gain1,gain2,K,I,43,33,objects,84,79,body_parts,Stimuli/Experimental_stims/objects/jonathan-greenaway-Y4hGgeiFn3s-unsplash.jpg,Stimuli/Experimental_stims/body_parts/tucker-good-36skLT5jZcc-unsplash.jpg,0,0,908,1,chosen,33,43,body_parts,objects,2200,0,10,2
179,23013,0,180,3,3,0,no_gain2,gain3,F,C,30,5,body_parts,87,71,outdoor_scenes,Stimuli/Experimental_stims/body_parts/mika-korhonen-Xodzxosar18-unsplash.jpg,Stimuli/Experimental_stims/outdoor_scenes/jeff-king-bJHWJeiHfHc-unsplash.jpg,0,0,859,1,unchosen,5,30,outdoor_scenes,body_parts,2300,0,10,2
180,23013,0,181,3,3,1,gain6,no_gain3,L,J,20,15,faces,84,78,faces,Stimuli/Experimental_stims/faces/justin-chen-J7Cf1Gch49E-unsplash.jpg,Stimuli/Experimental_stims/faces/erik-lucatero-d2MSDujJl2g-unsplash.jpg,0,0,794,0,chosen,15,20,faces,faces,4300,1,10,2
181,23013,0,182,3,3,1,gain5,no_gain3,H,J,18,15,faces,84,78,faces,Stimuli/Experimental_stims/faces/jessica-radanavong-mrYkTuAesKE-unsplash.jpg,Stimuli/Experimental_stims/faces/erik-lucatero-d2MSDujJl2g-unsplash.jpg,0,1,696,1,chosen,18,15,faces,faces,1600,0,10,2
182,23013,0,183,3,3,0,no_gain2,gain4,F,D,30,41,body_parts,87,66,objects,Stimuli/Experimental_stims/body_parts/mika-korhonen-Xodzxosar18-unsplash.jpg,Stimuli/Experimental_stims/objects/insung-yoon-w2JtIQQXoRU-unsplash.jpg,0,0,786,1,unchosen,41,30,objects,body_parts,1600,0,10,2
183,23013,0,184,3,3,1,gain3,no_gain1,C,K,5,26,outdoor_scenes,71,86,body_parts,Stimuli/Experimental_stims/outdoor_scenes/jeff-king-bJHWJeiHfHc-unsplash.jpg,Stimuli/Experimental_stims/body_parts/engin-akyurt-x_3gyC42btc-unsplash.jpg,0,1,1087,1,unchosen,5,26,outdoor_scenes,body_parts,1100,0,10,2
184,23013,0,185,3,3,1,gain6,no_gain6,L,B,20,14,faces,84,73,faces,Stimuli/Experimental_stims/faces/justin-chen-J7Cf1Gch49E-unsplash.jpg,Stimuli/Experimental_stims/faces/david-siglin-UuW4psOb388-unsplash.jpg,0,0,872,0,chosen,14,20,faces,faces,1000,0,10,2
185,23013,0,186,3,3,0,no_gain1,gain5,K,H,43,18,objects,84,84,faces,Stimuli/Experimental_stims/objects/jonathan-greenaway-Y4hGgeiFn3s-unsplash.jpg,Stimuli/Experimental_stims/faces/jessica-radanavong-mrYkTuAesKE-unsplash.jpg,0,0,1166,1,chosen,18,43,faces,objects,1000,0,10,2
186,23013,0,187,3,3,0,no_gain1,gain5,K,H,26,6,body_parts,86,81,outdoor_scenes,Stimuli/Experimental_stims/body_parts/engin-akyurt-x_3gyC42btc-unsplash.jpg,Stimuli/Experimental_stims/outdoor_scenes/meng-ji-8BH_M-53CyA-unsplash.jpg,0,0,670,1,unchosen,6,26,outdoor_scenes,body_parts,3000,1,10,2
187,23013,0,188,3,3,1,gain4,no_gain1,D,K,22,43,faces,77,84,objects,Stimuli/Experimental_stims/faces/ravi-patel-VMGAbeeJTKo-unsplash.jpg,Stimuli/Experimental_stims/objects/jonathan-greenaway-Y4hGgeiFn3s-unsplash.jpg,0,0,849,0,chosen,43,22,objects,faces,1000,0,10,2
188,23013,0,189,3,3,1,gain3,no_gain3,C,J,34,15,body_parts,79,78,faces,Stimuli/Experimental_stims/body_parts/wagner-santos-mBWMvIuVnso-unsplash.jpg,Stimuli/Experimental_stims/faces/erik-lucatero-d2MSDujJl2g-unsplash.jpg,0,1,1482,1,chosen,34,15,body_parts,faces,1600,0,10,2
189,23013,0,190,3,3,0,no_gain2,gain5,F,H,17,18,faces,83,84,faces,Stimuli/Experimental_stims/faces/good-faces-xmSWVeGEnJw-unsplash.jpg,Stimuli/Experimental_stims/faces/jessica-radanavong-mrYkTuAesKE-unsplash.jpg,0,1,920,0,chosen,17,18,faces,faces,1500,0,10,2
190,23013,0,191,3,3,0,no_gain1,gain6,K,L,26,27,body_parts,86,62,body_parts,Stimuli/Experimental_stims/body_parts/engin-akyurt-x_3gyC42btc-unsplash.jpg,Stimuli/Experimental_stims/body_parts/heike-mintel-i_Gns0ELnLw-unsplash.jpg,0,0,703,1,unchosen,27,26,body_parts,body_parts,1700,0,10,2
191,23013,0,192,3,3,1,gain5,no_gain6,H,B,6,10,outdoor_scenes,81,93,outdoor_scenes,Stimuli/Experimental_stims/outdoor_scenes/meng-ji-8BH_M-53CyA-unsplash.jpg,Stimuli/Experimental_stims/outdoor_scenes/shannon-kunkle-dM8INmkyDas-unsplash.jpg,0,1,1423,1,unchosen,6,10,outdoor_scenes,outdoor_scenes,1300,0,10,2
192,23013,0,193,3,3,0,no_gain5,gain4,A,D,9,41,outdoor_scenes,64,66,objects,Stimuli/Experimental_stims/outdoor_scenes/sergey-pesterev-y-b_FOmJXdg-unsplash.jpg,Stimuli/Experimental_stims/objects/insung-yoon-w2JtIQQXoRU-unsplash.jpg,0,0,808,1,unchosen,41,9,objects,outdoor_scenes,1300,0,10,2
193,23013,0,194,3,3,1,gain1,no_gain5,G,A,45,38,objects,93,66,objects,Stimuli/Experimental_stims/objects/leohoho-rngTKHXumy0-unsplash.jpg,Stimuli/Experimental_stims/objects/art-lasovsky-8XddFc6NkBY-unsplash.jpg,0,0,813,0,chosen,38,45,objects,objects,3600,1,10,2
194,23013,0,195,3,3,1,gain6,no_gain4,L,E,27,47,body_parts,62,67,objects,Stimuli/Experimental_stims/body_parts/heike-mintel-i_Gns0ELnLw-unsplash.jpg,Stimuli/Experimental_stims/objects/ronaldo-arthur-vidal-Cdz_lvnl37k-unsplash.jpg,0,0,885,0,unchosen,47,27,objects,body_parts,2100,0,10,2
195,23013,0,196,3,3,1,gain1,no_gain1,G,K,45,43,objects,93,84,objects,Stimuli/Experimental_stims/objects/leohoho-rngTKHXumy0-unsplash.jpg,Stimuli/Experimental_stims/objects/jonathan-greenaway-Y4hGgeiFn3s-unsplash.jpg,0,1,874,1,chosen,45,43,objects,objects,1600,0,10,2
196,23013,0,197,3,3,1,gain4,no_gain6,D,B,41,10,objects,66,93,outdoor_scenes,Stimuli/Experimental_stims/objects/insung-yoon-w2JtIQQXoRU-unsplash.jpg,Stimuli/Experimental_stims/outdoor_scenes/shannon-kunkle-dM8INmkyDas-unsplash.jpg,0,0,632,0,unchosen,10,41,outdoor_scenes,objects,1800,0,10,2
197,23013,0,198,3,3,1,gain3,no_gain6,C,B,5,10,outdoor_scenes,71,93,outdoor_scenes,Stimuli/Experimental_stims/outdoor_scenes/jeff-king-bJHWJeiHfHc-unsplash.jpg,Stimuli/Experimental_stims/outdoor_scenes/shannon-kunkle-dM8INmkyDas-unsplash.jpg,0,0,1031,0,unchosen,10,5,outdoor_scenes,outdoor_scenes,1600,0,10,2
198,23013,0,199,3,3,1,gain1,no_gain3,G,J,45,15,objects,93,78,faces,Stimuli/Experimental_stims/objects/leohoho-rngTKHXumy0-unsplash.jpg,Stimuli/Experimental_stims/faces/erik-lucatero-d2MSDujJl2g-unsplash.jpg,0,0,952,0,chosen,15,45,faces,objects,3100,1,10,2
199,23013,0,200,3,3,0,no_gain5,gain4,A,D,38,22,objects,66,77,faces,Stimuli/Experimental_stims/objects/art-lasovsky-8XddFc6NkBY-unsplash.jpg,Stimuli/Experimental_stims/faces/ravi-patel-VMGAbeeJTKo-unsplash.jpg,0,0,999,1,chosen,22,38,faces,objects,2500,0,10,2
200,23013,0,201,3,3,0,no_gain1,gain1,K,G,26,8,body_parts,86,81,outdoor_scenes,Stimuli/Experimental_stims/body_parts/engin-akyurt-x_3gyC42btc-unsplash.jpg,Stimuli/Experimental_stims/outdoor_scenes/samsommer-vddccTqwal8-unsplash.jpg,0,0,782,1,unchosen,8,26,outdoor_scenes,body_parts,2000,0,10,2
201,23013,0,202,3,3,0,no_gain4,gain4,E,D,28,22,body_parts,76,77,faces,Stimuli/Experimental_stims/body_parts/ira-vishnevskaya-8DQAvdCby1I-unsplash.jpg,Stimuli/Experimental_stims/faces/ravi-patel-VMGAbeeJTKo-unsplash.jpg,0,0,770,1,chosen,22,28,faces,body_parts,2100,0,10,2
202,23013,0,203,3,3,1,gain3,no_gain5,C,A,34,38,body_parts,79,66,objects,Stimuli/Experimental_stims/body_parts/wagner-santos-mBWMvIuVnso-unsplash.jpg,Stimuli/Experimental_stims/objects/art-lasovsky-8XddFc6NkBY-unsplash.jpg,0,0,1109,0,chosen,38,34,objects,body_parts,1200,0,10,2
203,23013,0,204,3,3,1,gain1,no_gain6,G,B,8,10,outdoor_scenes,81,93,outdoor_scenes,Stimuli/Experimental_stims/outdoor_scenes/samsommer-vddccTqwal8-unsplash.jpg,Stimuli/Experimental_stims/outdoor_scenes/shannon-kunkle-dM8INmkyDas-unsplash.jpg,0,0,912,0,unchosen,10,8,outdoor_scenes,outdoor_scenes,3300,1,10,2
204,23013,0,205,3,3,1,gain3,no_gain2,C,F,34,17,body_parts,79,83,faces,Stimuli/Experimental_stims/body_parts/wagner-santos-mBWMvIuVnso-unsplash.jpg,Stimuli/Experimental_stims/faces/good-faces-xmSWVeGEnJw-unsplash.jpg,0,0,765,0,chosen,17,34,faces,body_parts,2100,0,10,2
205,23013,0,206,3,3,0,no_gain4,gain5,E,H,28,18,body_parts,76,84,faces,Stimuli/Experimental_stims/body_parts/ira-vishnevskaya-8DQAvdCby1I-unsplash.jpg,Stimuli/Experimental_stims/faces/jessica-radanavong-mrYkTuAesKE-unsplash.jpg,0,0,1224,1,chosen,18,28,faces,body_parts,2100,0,10,2
206,23013,0,207,3,3,1,gain2,no_gain6,I,B,33,14,body_parts,79,73,faces,Stimuli/Experimental_stims/body_parts/tucker-good-36skLT5jZcc-unsplash.jpg,Stimuli/Experimental_stims/faces/david-siglin-UuW4psOb388-unsplash.jpg,0,1,1012,1,chosen,33,14,body_parts,faces,2600,0,10,2
207,23013,0,208,3,3,1,gain1,no_gain2,G,F,8,30,outdoor_scenes,81,87,body_parts,Stimuli/Experimental_stims/outdoor_scenes/samsommer-vddccTqwal8-unsplash.jpg,Stimuli/Experimental_stims/body_parts/mika-korhonen-Xodzxosar18-unsplash.jpg,0,0,716,0,unchosen,30,8,body_parts,outdoor_scenes,2800,0,10,2
208,23013,0,209,3,3,1,gain1,no_gain4,G,E,8,47,outdoor_scenes,81,67,objects,Stimuli/Experimental_stims/outdoor_scenes/samsommer-vddccTqwal8-unsplash.jpg,Stimuli/Experimental_stims/objects/ronaldo-arthur-vidal-Cdz_lvnl37k-unsplash.jpg,0,0,649,0,unchosen,47,8,objects,outdoor_scenes,2100,0,10,2
209,23013,0,210,3,3,0,no_gain6,gain1,B,G,14,45,faces,73,93,objects,Stimuli/Experimental_stims/faces/david-siglin-UuW4psOb388-unsplash.jpg,Stimuli/Experimental_stims/objects/leohoho-rngTKHXumy0-unsplash.jpg,0,0,708,1,chosen,45,14,objects,faces,1300,0,10,2
210,23013,0,211,3,3,0,no_gain5,gain6,A,L,38,20,objects,66,84,faces,Stimuli/Experimental_stims/objects/art-lasovsky-8XddFc6NkBY-unsplash.jpg,Stimuli/Experimental_stims/faces/justin-chen-J7Cf1Gch49E-unsplash.jpg,0,1,1225,0,chosen,38,20,objects,faces,3900,1,10,2
211,23013,0,212,3,3,0,no_gain2,gain6,F,L,30,27,body_parts,87,62,body_parts,Stimuli/Experimental_stims/body_parts/mika-korhonen-Xodzxosar18-unsplash.jpg,Stimuli/Experimental_stims/body_parts/heike-mintel-i_Gns0ELnLw-unsplash.jpg,0,0,745,1,unchosen,27,30,body_parts,body_parts,1600,0,10,2
212,23013,0,213,3,3,1,gain4,no_gain2,D,F,22,17,faces,77,83,faces,Stimuli/Experimental_stims/faces/ravi-patel-VMGAbeeJTKo-unsplash.jpg,Stimuli/Experimental_stims/faces/good-faces-xmSWVeGEnJw-unsplash.jpg,0,0,951,0,chosen,17,22,faces,faces,1300,0,10,2
213,23013,0,214,3,3,0,no_gain3,gain5,J,H,42,6,objects,80,81,outdoor_scenes,Stimuli/Experimental_stims/objects/jess-bailey-nOeVi8DsN8U-unsplash.jpg,Stimuli/Experimental_stims/outdoor_scenes/meng-ji-8BH_M-53CyA-unsplash.jpg,0,1,813,0,unchosen,42,6,objects,outdoor_scenes,1700,0,10,2
214,23013,0,215,3,3,1,gain2,no_gain6,I,B,2,10,outdoor_scenes,79,93,outdoor_scenes,Stimuli/Experimental_stims/outdoor_scenes/bruno-van-der-kraan-qez8mNJ3ilU-unsplash.jpg,Stimuli/Experimental_stims/outdoor_scenes/shannon-kunkle-dM8INmkyDas-unsplash.jpg,0,0,921,0,unchosen,10,2,outdoor_scenes,outdoor_scenes,1600,0,10,2
215,23013,0,216,3,3,0,no_gain4,gain6,E,L,28,20,body_parts,76,84,faces,Stimuli/Experimental_stims/body_parts/ira-vishnevskaya-8DQAvdCby1I-unsplash.jpg,Stimuli/Experimental_stims/faces/justin-chen-J7Cf1Gch49E-unsplash.jpg,0,1,769,0,chosen,28,20,body_parts,faces,3600,1,10,2
216,23013,0,217,3,3,1,gain5,no_gain5,H,A,6,9,outdoor_scenes,81,64,outdoor_scenes,Stimuli/Experimental_stims/outdoor_scenes/meng-ji-8BH_M-53CyA-unsplash.jpg,Stimuli/Experimental_stims/outdoor_scenes/sergey-pesterev-y-b_FOmJXdg-unsplash.jpg,0,0,1075,0,unchosen,9,6,outdoor_scenes,outdoor_scenes,2700,0,10,2
217,23013,0,218,3,3,1,gain2,no_gain2,I,F,33,17,body_parts,79,83,faces,Stimuli/Experimental_stims/body_parts/tucker-good-36skLT5jZcc-unsplash.jpg,Stimuli/Experimental_stims/faces/good-faces-xmSWVeGEnJw-unsplash.jpg,0,0,697,0,chosen,17,33,faces,body_parts,2800,0,10,2
218,23013,0,219,3,3,0,no_gain6,gain6,B,L,10,27,outdoor_scenes,93,62,body_parts,Stimuli/Experimental_stims/outdoor_scenes/shannon-kunkle-dM8INmkyDas-unsplash.jpg,Stimuli/Experimental_stims/body_parts/heike-mintel-i_Gns0ELnLw-unsplash.jpg,0,1,1069,0,unchosen,10,27,outdoor_scenes,body_parts,2800,0,10,2
219,23013,0,220,3,3,1,gain1,no_gain3,G,J,8,42,outdoor_scenes,81,80,objects,Stimuli/Experimental_stims/outdoor_scenes/samsommer-vddccTqwal8-unsplash.jpg,Stimuli/Experimental_stims/objects/jess-bailey-nOeVi8DsN8U-unsplash.jpg,0,1,112,1,unchosen,8,42,outdoor_scenes,objects,1100,0,10,2
220,23013,0,221,4,4,0,no_gain6,gain2,B,I,14,33,faces,73,79,body_parts,Stimuli/Experimental_stims/faces/david-siglin-UuW4psOb388-unsplash.jpg,Stimuli/Experimental_stims/body_parts/tucker-good-36skLT5jZcc-unsplash.jpg,0,1,1129,0,chosen,14,33,faces,body_parts,4200,1,9,2
221,23013,0,222,4,4,1,gain4,no_gain2,D,F,41,30,objects,66,87,body_parts,Stimuli/Experimental_stims/objects/insung-yoon-w2JtIQQXoRU-unsplash.jpg,Stimuli/Experimental_stims/body_parts/mika-korhonen-Xodzxosar18-unsplash.jpg,0,0,701,0,unchosen,30,41,body_parts,objects,2400,0,9,2
222,23013,0,223,4,4,1,gain2,no_gain1,I,K,33,43,body_parts,79,84,objects,Stimuli/Experimental_stims/body_parts/tucker-good-36skLT5jZcc-unsplash.jpg,Stimuli/Experimental_stims/objects/jonathan-greenaway-Y4hGgeiFn3s-unsplash.jpg,0,0,926,0,chosen,43,33,objects,body_parts,1200,0,9,2
223,23013,0,224,4,4,0,no_gain4,gain4,E,D,28,22,body_parts,76,77,faces,Stimuli/Experimental_stims/body_parts/ira-vishnevskaya-8DQAvdCby1I-unsplash.jpg,Stimuli/Experimental_stims/faces/ravi-patel-VMGAbeeJTKo-unsplash.jpg,0,0,500,1,chosen,22,28,faces,body_parts,1400,0,9,2
224,23013,0,225,4,4,0,no_gain4,gain6,E,L,47,27,objects,67,62,body_parts,Stimuli/Experimental_stims/objects/ronaldo-arthur-vidal-Cdz_lvnl37k-unsplash.jpg,Stimuli/Experimental_stims/body_parts/heike-mintel-i_Gns0ELnLw-unsplash.jpg,0,0,930,1,unchosen,27,47,body_parts,objects,1800,0,9,2
225,23013,0,226,4,4,0,no_gain4,gain5,E,H,47,6,objects,67,81,outdoor_scenes,Stimuli/Experimental_stims/objects/ronaldo-arthur-vidal-Cdz_lvnl37k-unsplash.jpg,Stimuli/Experimental_stims/outdoor_scenes/meng-ji-8BH_M-53CyA-unsplash.jpg,0,1,947,0,unchosen,47,6,objects,outdoor_scenes,2200,0,9,2
226,23013,0,227,4,4,1,gain4,no_gain1,D,K,22,43,faces,77,84,objects,Stimuli/Experimental_stims/faces/ravi-patel-VMGAbeeJTKo-unsplash.jpg,Stimuli/Experimental_stims/objects/jonathan-greenaway-Y4hGgeiFn3s-unsplash.jpg,0,0,641,0,chosen,43,22,objects,faces,4000,1,9,2
227,23013,0,228,4,4,1,gain3,no_gain2,C,F,34,17,body_parts,79,83,faces,Stimuli/Experimental_stims/body_parts/wagner-santos-mBWMvIuVnso-unsplash.jpg,Stimuli/Experimental_stims/faces/good-faces-xmSWVeGEnJw-unsplash.jpg,0,0,702,0,chosen,17,34,faces,body_parts,1900,0,9,2
228,23013,0,229,4,4,0,no_gain5,gain4,A,D,38,22,objects,66,77,faces,Stimuli/Experimental_stims/objects/art-lasovsky-8XddFc6NkBY-unsplash.jpg,Stimuli/Experimental_stims/faces/ravi-patel-VMGAbeeJTKo-unsplash.jpg,0,0,627,1,chosen,22,38,faces,objects,1800,0,9,2
229,23013,0,230,4,4,0,no_gain4,gain3,E,C,47,5,objects,67,71,outdoor_scenes,Stimuli/Experimental_stims/objects/ronaldo-arthur-vidal-Cdz_lvnl37k-unsplash.jpg,Stimuli/Experimental_stims/outdoor_scenes/jeff-king-bJHWJeiHfHc-unsplash.jpg,0,0,898,1,unchosen,5,47,outdoor_scenes,objects,1200,0,9,2
230,23013,0,231,4,4,0,no_gain3,gain5,J,H,42,6,objects,80,81,outdoor_scenes,Stimuli/Experimental_stims/objects/jess-bailey-nOeVi8DsN8U-unsplash.jpg,Stimuli/Experimental_stims/outdoor_scenes/meng-ji-8BH_M-53CyA-unsplash.jpg,0,1,894,0,unchosen,42,6,objects,outdoor_scenes,1700,0,9,2
231,23013,0,232,4,4,0,no_gain2,gain5,F,H,30,6,body_parts,87,81,outdoor_scenes,Stimuli/Experimental_stims/body_parts/mika-korhonen-Xodzxosar18-unsplash.jpg,Stimuli/Experimental_stims/outdoor_scenes/meng-ji-8BH_M-53CyA-unsplash.jpg,0,0,629,1,unchosen,6,30,outdoor_scenes,body_parts,3500,1,9,2
232,23013,0,233,4,4,1,gain3,no_gain3,C,J,34,15,body_parts,79,78,faces,Stimuli/Experimental_stims/body_parts/wagner-santos-mBWMvIuVnso-unsplash.jpg,Stimuli/Experimental_stims/faces/erik-lucatero-d2MSDujJl2g-unsplash.jpg,0,0,699,0,chosen,15,34,faces,body_parts,1700,0,9,2
233,23013,0,234,4,4,1,gain2,no_gain2,I,F,2,30,outdoor_scenes,79,87,body_parts,Stimuli/Experimental_stims/outdoor_scenes/bruno-van-der-kraan-qez8mNJ3ilU-unsplash.jpg,Stimuli/Experimental_stims/body_parts/mika-korhonen-Xodzxosar18-unsplash.jpg,0,1,1134,1,unchosen,2,30,outdoor_scenes,body_parts,2000,0,9,2
234,23013,0,235,4,4,0,no_gain6,gain5,B,H,10,6,outdoor_scenes,93,81,outdoor_scenes,Stimuli/Experimental_stims/outdoor_scenes/shannon-kunkle-dM8INmkyDas-unsplash.jpg,Stimuli/Experimental_stims/outdoor_scenes/meng-ji-8BH_M-53CyA-unsplash.jpg,0,0,876,1,unchosen,6,10,outdoor_scenes,outdoor_scenes,1300,0,9,2
235,23013,0,236,4,4,1,gain6,no_gain1,L,K,20,43,faces,84,84,objects,Stimuli/Experimental_stims/faces/justin-chen-J7Cf1Gch49E-unsplash.jpg,Stimuli/Experimental_stims/objects/jonathan-greenaway-Y4hGgeiFn3s-unsplash.jpg,1,NaN,,NaN,chosen,NaN,NaN,NaN,NaN,1400,0,9,2
236,23013,0,237,4,4,1,gain1,no_gain4,G,E,8,47,outdoor_scenes,81,67,objects,Stimuli/Experimental_stims/outdoor_scenes/samsommer-vddccTqwal8-unsplash.jpg,Stimuli/Experimental_stims/objects/ronaldo-arthur-vidal-Cdz_lvnl37k-unsplash.jpg,0,0,673,0,unchosen,47,8,objects,outdoor_scenes,3600,1,9,2
237,23013,0,238,4,4,0,no_gain3,gain4,J,D,15,22,faces,78,77,faces,Stimuli/Experimental_stims/faces/erik-lucatero-d2MSDujJl2g-unsplash.jpg,Stimuli/Experimental_stims/faces/ravi-patel-VMGAbeeJTKo-unsplash.jpg,0,0,825,1,chosen,22,15,faces,faces,2700,0,9,2
238,23013,0,239,4,4,0,no_gain5,gain1,A,G,9,8,outdoor_scenes,64,81,outdoor_scenes,Stimuli/Experimental_stims/outdoor_scenes/sergey-pesterev-y-b_FOmJXdg-unsplash.jpg,Stimuli/Experimental_stims/outdoor_scenes/samsommer-vddccTqwal8-unsplash.jpg,0,1,1277,0,unchosen,9,8,outdoor_scenes,outdoor_scenes,1900,0,9,2
239,23013,0,240,4,4,0,no_gain1,gain3,K,C,26,5,body_parts,86,71,outdoor_scenes,Stimuli/Experimental_stims/body_parts/engin-akyurt-x_3gyC42btc-unsplash.jpg,Stimuli/Experimental_stims/outdoor_scenes/jeff-king-bJHWJeiHfHc-unsplash.jpg,0,1,1207,0,unchosen,26,5,body_parts,outdoor_scenes,1200,0,9,2
240,23013,0,241,4,4,0,no_gain2,gain1,F,G,30,8,body_parts,87,81,outdoor_scenes,Stimuli/Experimental_stims/body_parts/mika-korhonen-Xodzxosar18-unsplash.jpg,Stimuli/Experimental_stims/outdoor_scenes/samsommer-vddccTqwal8-unsplash.jpg,0,0,888,1,unchosen,8,30,outdoor_scenes,body_parts,1000,0,9,2
241,23013,0,242,4,4,1,gain3,no_gain4,C,E,34,28,body_parts,79,76,body_parts,Stimuli/Experimental_stims/body_parts/wagner-santos-mBWMvIuVnso-unsplash.jpg,Stimuli/Experimental_stims/body_parts/ira-vishnevskaya-8DQAvdCby1I-unsplash.jpg,0,1,847,1,chosen,34,28,body_parts,body_parts,3700,1,9,2
242,23013,0,243,4,4,0,no_gain4,gain1,E,G,28,45,body_parts,76,93,objects,Stimuli/Experimental_stims/body_parts/ira-vishnevskaya-8DQAvdCby1I-unsplash.jpg,Stimuli/Experimental_stims/objects/leohoho-rngTKHXumy0-unsplash.jpg,0,0,671,1,chosen,45,28,objects,body_parts,1200,0,9,2
243,23013,0,244,4,4,1,gain2,no_gain3,I,J,2,42,outdoor_scenes,79,80,objects,Stimuli/Experimental_stims/outdoor_scenes/bruno-van-der-kraan-qez8mNJ3ilU-unsplash.jpg,Stimuli/Experimental_stims/objects/jess-bailey-nOeVi8DsN8U-unsplash.jpg,0,0,751,0,unchosen,42,2,objects,outdoor_scenes,2600,0,9,2
244,23013,0,245,4,4,1,gain4,no_gain4,D,E,41,47,objects,66,67,objects,Stimuli/Experimental_stims/objects/insung-yoon-w2JtIQQXoRU-unsplash.jpg,Stimuli/Experimental_stims/objects/ronaldo-arthur-vidal-Cdz_lvnl37k-unsplash.jpg,0,1,727,1,unchosen,41,47,objects,objects,2400,0,9,2
245,23013,0,246,4,4,1,gain2,no_gain6,I,B,2,10,outdoor_scenes,79,93,outdoor_scenes,Stimuli/Experimental_stims/outdoor_scenes/bruno-van-der-kraan-qez8mNJ3ilU-unsplash.jpg,Stimuli/Experimental_stims/outdoor_scenes/shannon-kunkle-dM8INmkyDas-unsplash.jpg,0,1,989,1,unchosen,2,10,outdoor_scenes,outdoor_scenes,1200,0,9,2
246,23013,0,247,4,4,0,no_gain6,gain6,B,L,14,20,faces,73,84,faces,Stimuli/Experimental_stims/faces/david-siglin-UuW4psOb388-unsplash.jpg,Stimuli/Experimental_stims/faces/justin-chen-J7Cf1Gch49E-unsplash.jpg,0,0,840,1,chosen,20,14,faces,faces,2500,0,9,2
247,23013,0,248,4,4,1,gain2,no_gain5,I,A,2,9,outdoor_scenes,79,64,outdoor_scenes,Stimuli/Experimental_stims/outdoor_scenes/bruno-van-der-kraan-qez8mNJ3ilU-unsplash.jpg,Stimuli/Experimental_stims/outdoor_scenes/sergey-pesterev-y-b_FOmJXdg-unsplash.jpg,0,0,955,0,unchosen,9,2,outdoor_scenes,outdoor_scenes,2200,0,9,2
248,23013,0,249,4,4,0,no_gain1,gain3,K,C,43,34,objects,84,79,body_parts,Stimuli/Experimental_stims/objects/jonathan-greenaway-Y4hGgeiFn3s-unsplash.jpg,Stimuli/Experimental_stims/body_parts/wagner-santos-mBWMvIuVnso-unsplash.jpg,0,0,1041,1,chosen,34,43,body_parts,objects,1100,0,9,2
249,23013,0,250,4,4,0,no_gain6,gain1,B,G,14,45,faces,73,93,objects,Stimuli/Experimental_stims/faces/david-siglin-UuW4psOb388-unsplash.jpg,Stimuli/Experimental_stims/objects/leohoho-rngTKHXumy0-unsplash.jpg,0,0,1018,1,chosen,45,14,objects,faces,1700,0,9,2
250,23013,0,251,4,4,0,no_gain1,gain2,K,I,26,2,body_parts,86,79,outdoor_scenes,Stimuli/Experimental_stims/body_parts/engin-akyurt-x_3gyC42btc-unsplash.jpg,Stimuli/Experimental_stims/outdoor_scenes/bruno-van-der-kraan-qez8mNJ3ilU-unsplash.jpg,0,0,1113,1,unchosen,2,26,outdoor_scenes,body_parts,1100,0,9,2
251,23013,0,252,4,4,1,gain6,no_gain3,L,J,20,15,faces,84,78,faces,Stimuli/Experimental_stims/faces/justin-chen-J7Cf1Gch49E-unsplash.jpg,Stimuli/Experimental_stims/faces/erik-lucatero-d2MSDujJl2g-unsplash.jpg,0,0,958,0,chosen,15,20,faces,faces,1900,0,9,2
252,23013,0,253,4,4,1,gain4,no_gain1,D,K,41,26,objects,66,86,body_parts,Stimuli/Experimental_stims/objects/insung-yoon-w2JtIQQXoRU-unsplash.jpg,Stimuli/Experimental_stims/body_parts/engin-akyurt-x_3gyC42btc-unsplash.jpg,0,0,976,0,unchosen,26,41,body_parts,objects,1100,0,9,2
253,23013,0,254,4,4,1,gain4,no_gain5,D,A,41,9,objects,66,64,outdoor_scenes,Stimuli/Experimental_stims/objects/insung-yoon-w2JtIQQXoRU-unsplash.jpg,Stimuli/Experimental_stims/outdoor_scenes/sergey-pesterev-y-b_FOmJXdg-unsplash.jpg,0,1,882,1,unchosen,41,9,objects,outdoor_scenes,1000,0,9,2
254,23013,0,255,4,4,1,gain6,no_gain6,L,B,27,10,body_parts,62,93,outdoor_scenes,Stimuli/Experimental_stims/body_parts/heike-mintel-i_Gns0ELnLw-unsplash.jpg,Stimuli/Experimental_stims/outdoor_scenes/shannon-kunkle-dM8INmkyDas-unsplash.jpg,0,0,573,0,unchosen,10,27,outdoor_scenes,body_parts,1600,0,9,2
255,23013,0,256,4,4,0,no_gain4,gain5,E,H,28,18,body_parts,76,84,faces,Stimuli/Experimental_stims/body_parts/ira-vishnevskaya-8DQAvdCby1I-unsplash.jpg,Stimuli/Experimental_stims/faces/jessica-radanavong-mrYkTuAesKE-unsplash.jpg,0,0,655,1,chosen,18,28,faces,body_parts,2700,0,9,2
256,23013,0,257,4,4,1,gain4,no_gain6,D,B,41,10,objects,66,93,outdoor_scenes,Stimuli/Experimental_stims/objects/insung-yoon-w2JtIQQXoRU-unsplash.jpg,Stimuli/Experimental_stims/outdoor_scenes/shannon-kunkle-dM8INmkyDas-unsplash.jpg,0,0,784,0,unchosen,10,41,outdoor_scenes,objects,3500,1,9,2
257,23013,0,258,4,4,0,no_gain2,gain6,F,L,30,27,body_parts,87,62,body_parts,Stimuli/Experimental_stims/body_parts/mika-korhonen-Xodzxosar18-unsplash.jpg,Stimuli/Experimental_stims/body_parts/heike-mintel-i_Gns0ELnLw-unsplash.jpg,0,0,746,1,unchosen,27,30,body_parts,body_parts,1000,0,9,2
258,23013,0,259,4,4,0,no_gain2,gain3,F,C,30,5,body_parts,87,71,outdoor_scenes,Stimuli/Experimental_stims/body_parts/mika-korhonen-Xodzxosar18-unsplash.jpg,Stimuli/Experimental_stims/outdoor_scenes/jeff-king-bJHWJeiHfHc-unsplash.jpg,0,1,1054,0,unchosen,30,5,body_parts,outdoor_scenes,1700,0,9,2
259,23013,0,260,4,4,1,gain2,no_gain5,I,A,33,38,body_parts,79,66,objects,Stimuli/Experimental_stims/body_parts/tucker-good-36skLT5jZcc-unsplash.jpg,Stimuli/Experimental_stims/objects/art-lasovsky-8XddFc6NkBY-unsplash.jpg,0,0,886,0,chosen,38,33,objects,body_parts,1500,0,9,2
260,23013,0,261,4,4,1,gain3,no_gain5,C,A,34,38,body_parts,79,66,objects,Stimuli/Experimental_stims/body_parts/wagner-santos-mBWMvIuVnso-unsplash.jpg,Stimuli/Experimental_stims/objects/art-lasovsky-8XddFc6NkBY-unsplash.jpg,0,0,870,0,chosen,38,34,objects,body_parts,1400,0,9,2
261,23013,0,262,4,4,1,gain5,no_gain3,H,J,18,15,faces,84,78,faces,Stimuli/Experimental_stims/faces/jessica-radanavong-mrYkTuAesKE-unsplash.jpg,Stimuli/Experimental_stims/faces/erik-lucatero-d2MSDujJl2g-unsplash.jpg,0,0,811,0,chosen,15,18,faces,faces,1300,0,9,2
262,23013,0,263,4,4,1,gain5,no_gain5,H,A,6,9,outdoor_scenes,81,64,outdoor_scenes,Stimuli/Experimental_stims/outdoor_scenes/meng-ji-8BH_M-53CyA-unsplash.jpg,Stimuli/Experimental_stims/outdoor_scenes/sergey-pesterev-y-b_FOmJXdg-unsplash.jpg,0,1,1281,1,unchosen,6,9,outdoor_scenes,outdoor_scenes,4500,1,9,2
263,23013,0,264,4,4,0,no_gain5,gain6,A,L,9,27,outdoor_scenes,64,62,body_parts,Stimuli/Experimental_stims/outdoor_scenes/sergey-pesterev-y-b_FOmJXdg-unsplash.jpg,Stimuli/Experimental_stims/body_parts/heike-mintel-i_Gns0ELnLw-unsplash.jpg,0,0,1299,1,unchosen,27,9,body_parts,outdoor_scenes,1900,0,9,2
264,23013,0,265,4,4,0,no_gain6,gain1,B,G,10,8,outdoor_scenes,93,81,outdoor_scenes,Stimuli/Experimental_stims/outdoor_scenes/shannon-kunkle-dM8INmkyDas-unsplash.jpg,Stimuli/Experimental_stims/outdoor_scenes/samsommer-vddccTqwal8-unsplash.jpg,0,0,1304,1,unchosen,8,10,outdoor_scenes,outdoor_scenes,1900,0,9,2
265,23013,0,266,4,4,1,gain5,no_gain5,H,A,18,38,faces,84,66,objects,Stimuli/Experimental_stims/faces/jessica-radanavong-mrYkTuAesKE-unsplash.jpg,Stimuli/Experimental_stims/objects/art-lasovsky-8XddFc6NkBY-unsplash.jpg,0,0,874,0,chosen,38,18,objects,faces,1600,0,9,2
266,23013,0,267,4,4,0,no_gain2,gain4,F,D,17,22,faces,83,77,faces,Stimuli/Experimental_stims/faces/good-faces-xmSWVeGEnJw-unsplash.jpg,Stimuli/Experimental_stims/faces/ravi-patel-VMGAbeeJTKo-unsplash.jpg,0,1,712,0,chosen,17,22,faces,faces,2300,0,9,2
267,23013,0,268,4,4,1,gain6,no_gain2,L,F,20,17,faces,84,83,faces,Stimuli/Experimental_stims/faces/justin-chen-J7Cf1Gch49E-unsplash.jpg,Stimuli/Experimental_stims/faces/good-faces-xmSWVeGEnJw-unsplash.jpg,0,0,928,0,chosen,17,20,faces,faces,3700,1,9,2
268,23013,0,269,4,4,0,no_gain3,gain3,J,C,42,5,objects,80,71,outdoor_scenes,Stimuli/Experimental_stims/objects/jess-bailey-nOeVi8DsN8U-unsplash.jpg,Stimuli/Experimental_stims/outdoor_scenes/jeff-king-bJHWJeiHfHc-unsplash.jpg,0,1,673,0,unchosen,42,5,objects,outdoor_scenes,1200,0,9,2
269,23013,0,270,4,4,1,gain4,no_gain3,D,J,41,42,objects,66,80,objects,Stimuli/Experimental_stims/objects/insung-yoon-w2JtIQQXoRU-unsplash.jpg,Stimuli/Experimental_stims/objects/jess-bailey-nOeVi8DsN8U-unsplash.jpg,1,NaN,,NaN,unchosen,NaN,NaN,NaN,NaN,1900,0,9,2
270,23013,0,271,4,4,0,no_gain3,gain1,J,G,42,8,objects,80,81,outdoor_scenes,Stimuli/Experimental_stims/objects/jess-bailey-nOeVi8DsN8U-unsplash.jpg,Stimuli/Experimental_stims/outdoor_scenes/samsommer-vddccTqwal8-unsplash.jpg,0,1,1034,0,unchosen,42,8,objects,outdoor_scenes,2000,0,9,2
271,23013,0,272,4,4,1,gain1,no_gain3,G,J,45,15,objects,93,78,faces,Stimuli/Experimental_stims/objects/leohoho-rngTKHXumy0-unsplash.jpg,Stimuli/Experimental_stims/faces/erik-lucatero-d2MSDujJl2g-unsplash.jpg,1,NaN,,NaN,chosen,NaN,NaN,NaN,NaN,2700,0,9,2
272,23013,0,273,4,4,1,gain6,no_gain5,L,A,20,38,faces,84,66,objects,Stimuli/Experimental_stims/faces/justin-chen-J7Cf1Gch49E-unsplash.jpg,Stimuli/Experimental_stims/objects/art-lasovsky-8XddFc6NkBY-unsplash.jpg,1,NaN,,NaN,chosen,NaN,NaN,NaN,NaN,1100,0,9,2
273,23013,0,274,4,4,0,no_gain2,gain1,F,G,17,45,faces,83,93,objects,Stimuli/Experimental_stims/faces/good-faces-xmSWVeGEnJw-unsplash.jpg,Stimuli/Experimental_stims/objects/leohoho-rngTKHXumy0-unsplash.jpg,0,1,805,0,chosen,17,45,faces,objects,4200,1,9,2
274,23013,0,275,4,4,1,gain3,no_gain6,C,B,5,10,outdoor_scenes,71,93,outdoor_scenes,Stimuli/Experimental_stims/outdoor_scenes/jeff-king-bJHWJeiHfHc-unsplash.jpg,Stimuli/Experimental_stims/outdoor_scenes/shannon-kunkle-dM8INmkyDas-unsplash.jpg,0,0,897,0,unchosen,10,5,outdoor_scenes,outdoor_scenes,1300,0,9,2
275,23013,0,276,4,4,1,gain1,no_gain5,G,A,45,38,objects,93,66,objects,Stimuli/Experimental_stims/objects/leohoho-rngTKHXumy0-unsplash.jpg,Stimuli/Experimental_stims/objects/art-lasovsky-8XddFc6NkBY-unsplash.jpg,0,0,1001,0,chosen,38,45,objects,objects,2000,0,9,2
276,23013,0,277,4,4,0,no_gain3,gain2,J,I,15,33,faces,78,79,body_parts,Stimuli/Experimental_stims/faces/erik-lucatero-d2MSDujJl2g-unsplash.jpg,Stimuli/Experimental_stims/body_parts/tucker-good-36skLT5jZcc-unsplash.jpg,0,1,1106,0,chosen,15,33,faces,body_parts,1100,0,9,2
277,23013,0,278,4,4,1,gain5,no_gain1,H,K,6,26,outdoor_scenes,81,86,body_parts,Stimuli/Experimental_stims/outdoor_scenes/meng-ji-8BH_M-53CyA-unsplash.jpg,Stimuli/Experimental_stims/body_parts/engin-akyurt-x_3gyC42btc-unsplash.jpg,0,0,1096,0,unchosen,26,6,body_parts,outdoor_scenes,2300,0,9,2
278,23013,0,279,4,4,1,gain2,no_gain2,I,F,33,17,body_parts,79,83,faces,Stimuli/Experimental_stims/body_parts/tucker-good-36skLT5jZcc-unsplash.jpg,Stimuli/Experimental_stims/faces/good-faces-xmSWVeGEnJw-unsplash.jpg,0,0,1257,0,chosen,17,33,faces,body_parts,2900,0,9,2
279,23013,0,280,4,4,0,no_gain2,gain5,F,H,17,18,faces,83,84,faces,Stimuli/Experimental_stims/faces/good-faces-xmSWVeGEnJw-unsplash.jpg,Stimuli/Experimental_stims/faces/jessica-radanavong-mrYkTuAesKE-unsplash.jpg,0,1,797,0,chosen,17,18,faces,faces,1200,0,9,2
280,23013,0,281,4,4,1,gain5,no_gain6,H,B,18,14,faces,84,73,faces,Stimuli/Experimental_stims/faces/jessica-radanavong-mrYkTuAesKE-unsplash.jpg,Stimuli/Experimental_stims/faces/david-siglin-UuW4psOb388-unsplash.jpg,0,0,840,0,chosen,14,18,faces,faces,1500,0,9,2
281,23013,0,282,4,4,1,gain6,no_gain3,L,J,27,42,body_parts,62,80,objects,Stimuli/Experimental_stims/body_parts/heike-mintel-i_Gns0ELnLw-unsplash.jpg,Stimuli/Experimental_stims/objects/jess-bailey-nOeVi8DsN8U-unsplash.jpg,0,0,940,0,unchosen,42,27,objects,body_parts,1100,0,9,2
282,23013,0,283,4,4,0,no_gain6,gain4,B,D,14,22,faces,73,77,faces,Stimuli/Experimental_stims/faces/david-siglin-UuW4psOb388-unsplash.jpg,Stimuli/Experimental_stims/faces/ravi-patel-VMGAbeeJTKo-unsplash.jpg,0,1,1150,0,chosen,14,22,faces,faces,1200,0,9,2
283,23013,0,284,4,4,0,no_gain4,gain2,E,I,28,33,body_parts,76,79,body_parts,Stimuli/Experimental_stims/body_parts/ira-vishnevskaya-8DQAvdCby1I-unsplash.jpg,Stimuli/Experimental_stims/body_parts/tucker-good-36skLT5jZcc-unsplash.jpg,0,0,630,1,chosen,33,28,body_parts,body_parts,1400,0,9,2
284,23013,0,285,4,4,1,gain2,no_gain4,I,E,2,47,outdoor_scenes,79,67,objects,Stimuli/Experimental_stims/outdoor_scenes/bruno-van-der-kraan-qez8mNJ3ilU-unsplash.jpg,Stimuli/Experimental_stims/objects/ronaldo-arthur-vidal-Cdz_lvnl37k-unsplash.jpg,0,0,804,0,unchosen,47,2,objects,outdoor_scenes,1100,0,9,2
285,23013,0,286,4,4,1,gain3,no_gain6,C,B,34,14,body_parts,79,73,faces,Stimuli/Experimental_stims/body_parts/wagner-santos-mBWMvIuVnso-unsplash.jpg,Stimuli/Experimental_stims/faces/david-siglin-UuW4psOb388-unsplash.jpg,0,1,650,1,chosen,34,14,body_parts,faces,2100,0,9,2
286,23013,0,287,4,4,0,no_gain1,gain1,K,G,26,8,body_parts,86,81,outdoor_scenes,Stimuli/Experimental_stims/body_parts/engin-akyurt-x_3gyC42btc-unsplash.jpg,Stimuli/Experimental_stims/outdoor_scenes/samsommer-vddccTqwal8-unsplash.jpg,0,0,787,1,unchosen,8,26,outdoor_scenes,body_parts,3300,1,9,2
287,23013,0,288,4,4,0,no_gain1,gain6,K,L,26,27,body_parts,86,62,body_parts,Stimuli/Experimental_stims/body_parts/engin-akyurt-x_3gyC42btc-unsplash.jpg,Stimuli/Experimental_stims/body_parts/heike-mintel-i_Gns0ELnLw-unsplash.jpg,0,0,719,1,unchosen,27,26,body_parts,body_parts,1900,0,9,2
288,23013,0,289,4,4,0,no_gain1,gain5,K,H,43,18,objects,84,84,faces,Stimuli/Experimental_stims/objects/jonathan-greenaway-Y4hGgeiFn3s-unsplash.jpg,Stimuli/Experimental_stims/faces/jessica-radanavong-mrYkTuAesKE-unsplash.jpg,0,0,946,1,chosen,18,43,faces,objects,2000,0,9,2
289,23013,0,290,4,4,0,no_gain4,gain6,E,L,28,20,body_parts,76,84,faces,Stimuli/Experimental_stims/body_parts/ira-vishnevskaya-8DQAvdCby1I-unsplash.jpg,Stimuli/Experimental_stims/faces/justin-chen-J7Cf1Gch49E-unsplash.jpg,0,1,1042,0,chosen,28,20,body_parts,faces,1100,0,9,2
290,23013,0,291,4,4,1,gain3,no_gain5,C,A,5,9,outdoor_scenes,71,64,outdoor_scenes,Stimuli/Experimental_stims/outdoor_scenes/jeff-king-bJHWJeiHfHc-unsplash.jpg,Stimuli/Experimental_stims/outdoor_scenes/sergey-pesterev-y-b_FOmJXdg-unsplash.jpg,0,0,1253,0,unchosen,9,5,outdoor_scenes,outdoor_scenes,1800,0,9,2
291,23013,0,292,4,4,0,no_gain1,gain1,K,G,43,45,objects,84,93,objects,Stimuli/Experimental_stims/objects/jonathan-greenaway-Y4hGgeiFn3s-unsplash.jpg,Stimuli/Experimental_stims/objects/leohoho-rngTKHXumy0-unsplash.jpg,0,0,642,1,chosen,45,43,objects,objects,3200,1,9,2