,PID,practice,trial,block,run,gain_left,left_item_id,right_item_id,left_pair_id,right_pair_id,left_stimulus,right_stimulus,left_category,right_category,left_rating,right_rating,left_path,right_path,no_response,left_chosen,rt,higher_outcome_chosen,choice_type,chosen_stimulus,unchosen_stimulus,chosen_category,unchosen_category,iti,long_iti,simulation,version
0,32234,1,1,0,0,0,,,,,,,,,,,Stimuli/Practice_stims/Final_decisions/debby-hudson-FmCSSSGge-0-unsplash.jpg,Stimuli/Practice_stims/Final_decisions/yassine-khalfalli-adsQ9d_Cx0c-unsplash.jpg,0,1,167,0,,,,,,3000,0,9,3
1,32234,1,2,0,0,0,,,,,,,,,,,Stimuli/Practice_stims/Final_decisions/florian-wehde-iVW7mZPwd4g-unsplash.jpg,Stimuli/Practice_stims/Final_decisions/patrick-perkins-3wylDrjxH-E-unsplash.jpg,0,0,129,1,,,,,,1500,0,9,3
2,32234,1,3,0,0,0,,,,,,,,,,,Stimuli/Practice_stims/Final_decisions/debby-hudson-FmCSSSGge-0-unsplash.jpg,Stimuli/Practice_stims/Final_decisions/florian-wehde-iVW7mZPwd4g-unsplash.jpg,0,1,21,0,,,,,,2000,0,9,3
3,32234,1,4,0,0,0,,,,,,,,,,,Stimuli/Practice_stims/Final_decisions/yassine-khalfalli-adsQ9d_Cx0c-unsplash.jpg,Stimuli/Practice_stims/Final_decisions/debby-hudson-FmCSSSGge-0-unsplash.jpg,0,1,22,0,,,,,,1000,0,9,3
4,32234,0,5,1,1,1,gain5,no_gain5,K,I,42,0,objects,outdoor_scenes,81,94,Stimuli/Experimental_stims/objects/jess-bailey-nOeVi8DsN8U-unsplash.jpg,Stimuli/Experimental_stims/outdoor_scenes/aleksandra-boguslawska-MS7KD9Ti7FQ-unsplash.jpg,0,1,682,1,unchosen,42,0,objects,outdoor_scenes,4700,1,9,3
5,32234,0,6,1,1,1,gain3,no_gain2,B,A,2,9,outdoor_scenes,outdoor_scenes,87,68,Stimuli/Experimental_stims/outdoor_scenes/bruno-van-der-kraan-qez8mNJ3ilU-unsplash.jpg,Stimuli/Experimental_stims/outdoor_scenes/sergey-pesterev-y-b_FOmJXdg-unsplash.jpg,0,0,16,0,unchosen,9,2,outdoor_scenes,outdoor_scenes,2300,0,9,3
6,32234,0,7,1,1,1,gain1,no_gain2,E,A,46,9,objects,outdoor_scenes,82,68,Stimuli/Experimental_stims/objects/mockup-graphics-PNsj6RiHAF4-unsplash.jpg,Stimuli/Experimental_stims/outdoor_scenes/sergey-pesterev-y-b_FOmJXdg-unsplash.jpg,0,0,171,0,unchosen,9,46,outdoor_scenes,objects,1100,0,9,3
7,32234,0,8,1,1,0,no_gain4,gain5,H,K,5,31,outdoor_scenes,body_parts,70,75,Stimuli/Experimental_stims/outdoor_scenes/jeff-king-bJHWJeiHfHc-unsplash.jpg,Stimuli/Experimental_stims/body_parts/sincerely-media-VN6DbKajo5s-unsplash.jpg,0,0,208,1,chosen,31,5,body_parts,outdoor_scenes,1600,0,9,3
8,32234,0,9,1,1,0,no_gain5,gain1,I,E,0,46,outdoor_scenes,objects,94,82,Stimuli/Experimental_stims/outdoor_scenes/aleksandra-boguslawska-MS7KD9Ti7FQ-unsplash.jpg,Stimuli/Experimental_stims/objects/mockup-graphics-PNsj6RiHAF4-unsplash.jpg,0,0,21,1,unchosen,46,0,objects,outdoor_scenes,2300,0,9,3
9,32234,0,10,1,1,0,no_gain4,gain1,H,E,5,33,outdoor_scenes,body_parts,70,88,Stimuli/Experimental_stims/outdoor_scenes/jeff-king-bJHWJeiHfHc-unsplash.jpg,Stimuli/Experimental_stims/body_parts/tucker-good-36skLT5jZcc-unsplash.jpg,0,1,135,0,chosen,5,33,outdoor_scenes,body_parts,1500,0,9,3
10,32234,0,11,1,1,1,gain1,no_gain3,E,L,33,35,body_parts,body_parts,88,33,Stimuli/Experimental_stims/body_parts/tucker-good-36skLT5jZcc-unsplash.jpg,Stimuli/Experimental_stims/body_parts/wc-so-KH4AAPjb-tI-unsplash.jpg,0,1,167,1,chosen,33,35,body_parts,body_parts,1500,0,9,3
11,32234,0,12,1,1,0,no_gain1,gain1,C,E,3,33,outdoor_scenes,body_parts,68,88,Stimuli/Experimental_stims/outdoor_scenes/henry-be-NLF6hTe4PAg-unsplash.jpg,Stimuli/Experimental_stims/body_parts/tucker-good-36skLT5jZcc-unsplash.jpg,0,1,131,0,chosen,3,33,outdoor_scenes,body_parts,1200,0,9,3
12,32234,0,13,1,1,1,gain6,no_gain1,D,C,20,27,faces,body_parts,77,100,Stimuli/Experimental_stims/faces/justin-chen-J7Cf1Gch49E-unsplash.jpg,Stimuli/Experimental_stims/body_parts/heike-mintel-i_Gns0ELnLw-unsplash.jpg,0,1,182,1,unchosen,20,27,faces,body_parts,1300,0,9,3
13,32234,0,14,1,1,0,no_gain1,gain4,C,G,3,8,outdoor_scenes,outdoor_scenes,68,80,Stimuli/Experimental_stims/outdoor_scenes/henry-be-NLF6hTe4PAg-unsplash.jpg,Stimuli/Experimental_stims/outdoor_scenes/samsommer-vddccTqwal8-unsplash.jpg,0,1,20,0,chosen,3,8,outdoor_scenes,outdoor_scenes,1200,0,9,3
14,32234,0,15,1,1,1,gain6,no_gain4,D,H,20,17,faces,faces,77,84,Stimuli/Experimental_stims/faces/justin-chen-J7Cf1Gch49E-unsplash.jpg,Stimuli/Experimental_stims/faces/good-faces-xmSWVeGEnJw-unsplash.jpg,0,1,266,1,unchosen,20,17,faces,faces,4100,1,9,3
15,32234,0,16,1,1,1,gain4,no_gain4,G,H,40,17,objects,faces,77,84,Stimuli/Experimental_stims/objects/fabian-blank-pElSkGRA2NU-unsplash.jpg,Stimuli/Experimental_stims/faces/good-faces-xmSWVeGEnJw-unsplash.jpg,0,1,108,1,unchosen,40,17,objects,faces,1200,0,9,3
16,32234,0,17,1,1,1,gain5,no_gain6,K,F,31,19,body_parts,faces,75,76,Stimuli/Experimental_stims/body_parts/sincerely-media-VN6DbKajo5s-unsplash.jpg,Stimuli/Experimental_stims/faces/joel-mott-LaK153ghdig-unsplash.jpg,0,1,60,1,chosen,31,19,body_parts,faces,1200,0,9,3
17,32234,0,18,1,1,0,no_gain3,gain3,L,B,18,2,faces,outdoor_scenes,84,87,Stimuli/Experimental_stims/faces/jessica-radanavong-mrYkTuAesKE-unsplash.jpg,Stimuli/Experimental_stims/outdoor_scenes/bruno-van-der-kraan-qez8mNJ3ilU-unsplash.jpg,0,1,23,0,unchosen,18,2,faces,outdoor_scenes,1600,0,9,3
18,32234,0,19,1,1,0,no_gain4,gain3,H,B,5,23,outdoor_scenes,faces,70,81,Stimuli/Experimental_stims/outdoor_scenes/jeff-king-bJHWJeiHfHc-unsplash.jpg,Stimuli/Experimental_stims/faces/rikonavt-HQjfrvdTfak-unsplash.jpg,0,0,13,1,chosen,23,5,faces,outdoor_scenes,1400,0,9,3
19,32234,0,20,1,1,0,no_gain2,gain2,A,J,9,37,outdoor_scenes,objects,68,68,Stimuli/Experimental_stims/outdoor_scenes/sergey-pesterev-y-b_FOmJXdg-unsplash.jpg,Stimuli/Experimental_stims/objects/alexander-andrews-VLGWE_SumrA-unsplash.jpg,0,0,2,1,unchosen,37,9,objects,outdoor_scenes,4300,1,9,3
20,32234,0,21,1,1,1,gain2,no_gain4,J,H,12,5,faces,outdoor_scenes,80,70,Stimuli/Experimental_stims/faces/aiony-haust-jmATI5Q_YgY-unsplash.jpg,Stimuli/Experimental_stims/outdoor_scenes/jeff-king-bJHWJeiHfHc-unsplash.jpg,0,0,143,0,chosen,5,12,outdoor_scenes,faces,1500,0,9,3
21,32234,0,22,1,1,1,gain2,no_gain5,J,I,12,25,faces,body_parts,80,71,Stimuli/Experimental_stims/faces/aiony-haust-jmATI5Q_YgY-unsplash.jpg,Stimuli/Experimental_stims/body_parts/engin-akyurt-Q2rfH3GW39c-unsplash.jpg,0,1,3,1,chosen,12,25,faces,body_parts,1400,0,9,3
22,32234,0,23,1,1,1,gain4,no_gain2,G,A,40,9,objects,outdoor_scenes,77,68,Stimuli/Experimental_stims/objects/fabian-blank-pElSkGRA2NU-unsplash.jpg,Stimuli/Experimental_stims/outdoor_scenes/sergey-pesterev-y-b_FOmJXdg-unsplash.jpg,0,0,228,0,unchosen,9,40,outdoor_scenes,objects,1300,0,9,3
23,32234,0,24,1,1,1,gain2,no_gain6,J,F,37,34,objects,body_parts,68,86,Stimuli/Experimental_stims/objects/alexander-andrews-VLGWE_SumrA-unsplash.jpg,Stimuli/Experimental_stims/body_parts/wagner-santos-mBWMvIuVnso-unsplash.jpg,0,1,6,1,unchosen,37,34,objects,body_parts,1000,0,9,3
24,32234,0,25,1,1,0,no_gain1,gain5,C,K,3,31,outdoor_scenes,body_parts,68,75,Stimuli/Experimental_stims/outdoor_scenes/henry-be-NLF6hTe4PAg-unsplash.jpg,Stimuli/Experimental_stims/body_parts/sincerely-media-VN6DbKajo5s-unsplash.jpg,0,0,293,1,chosen,31,3,body_parts,outdoor_scenes,3100,1,9,3
25,32234,0,26,1,1,1,gain2,no_gain1,J,C,12,3,faces,outdoor_scenes,80,68,Stimuli/Experimental_stims/faces/aiony-haust-jmATI5Q_YgY-unsplash.jpg,Stimuli/Experimental_stims/outdoor_scenes/henry-be-NLF6hTe4PAg-unsplash.jpg,0,1,159,1,chosen,12,3,faces,outdoor_scenes,2700,0,9,3
26,32234,0,27,1,1,1,gain2,no_gain2,J,A,12,43,faces,objects,80,58,Stimuli/Experimental_stims/faces/aiony-haust-jmATI5Q_YgY-unsplash.jpg,Stimuli/Experimental_stims/objects/jonathan-greenaway-Y4hGgeiFn3s-unsplash.jpg,0,1,149,1,chosen,12,43,faces,objects,1400,0,9,3
27,32234,0,28,1,1,1,gain4,no_gain3,G,L,40,18,objects,faces,77,84,Stimuli/Experimental_stims/objects/fabian-blank-pElSkGRA2NU-unsplash.jpg,Stimuli/Experimental_stims/faces/jessica-radanavong-mrYkTuAesKE-unsplash.jpg,0,0,271,0,unchosen,18,40,faces,objects,1100,0,9,3
28,32234,0,29,1,1,0,no_gain1,gain3,C,B,27,2,body_parts,outdoor_scenes,100,87,Stimuli/Experimental_stims/body_parts/heike-mintel-i_Gns0ELnLw-unsplash.jpg,Stimuli/Experimental_stims/outdoor_scenes/bruno-van-der-kraan-qez8mNJ3ilU-unsplash.jpg,0,1,238,0,unchosen,27,2,body_parts,outdoor_scenes,1900,0,9,3
29,32234,0,30,1,1,1,gain6,no_gain4,D,H,45,5,objects,outdoor_scenes,75,70,Stimuli/Experimental_stims/objects/leohoho-rngTKHXumy0-unsplash.jpg,Stimuli/Experimental_stims/outdoor_scenes/jeff-king-bJHWJeiHfHc-unsplash.jpg,0,1,93,1,chosen,45,5,objects,outdoor_scenes,1200,0,9,3
30,32234,0,31,1,1,1,gain5,no_gain3,K,L,31,35,body_parts,body_parts,75,33,Stimuli/Experimental_stims/body_parts/sincerely-media-VN6DbKajo5s-unsplash.jpg,Stimuli/Experimental_stims/body_parts/wc-so-KH4AAPjb-tI-unsplash.jpg,0,1,112,1,chosen,31,35,body_parts,body_parts,2300,0,9,3
31,32234,0,32,1,1,0,no_gain3,gain5,L,K,18,42,faces,objects,84,81,Stimuli/Experimental_stims/faces/jessica-radanavong-mrYkTuAesKE-unsplash.jpg,Stimuli/Experimental_stims/objects/jess-bailey-nOeVi8DsN8U-unsplash.jpg,0,1,2,0,unchosen,18,42,faces,objects,2000,0,9,3
32,32234,0,33,1,1,1,gain6,no_gain6,D,F,45,19,objects,faces,75,76,Stimuli/Experimental_stims/objects/leohoho-rngTKHXumy0-unsplash.jpg,Stimuli/Experimental_stims/faces/joel-mott-LaK153ghdig-unsplash.jpg,0,1,13,1,chosen,45,19,objects,faces,2000,0,9,3
33,32234,0,34,1,1,0,no_gain6,gain6,F,D,34,20,body_parts,faces,86,77,Stimuli/Experimental_stims/body_parts/wagner-santos-mBWMvIuVnso-unsplash.jpg,Stimuli/Experimental_stims/faces/justin-chen-J7Cf1Gch49E-unsplash.jpg,0,1,122,0,unchosen,34,20,body_parts,faces,1300,0,9,3
34,32234,0,35,1,1,0,no_gain6,gain1,F,E,34,46,body_parts,objects,86,82,Stimuli/Experimental_stims/body_parts/wagner-santos-mBWMvIuVnso-unsplash.jpg,Stimuli/Experimental_stims/objects/mockup-graphics-PNsj6RiHAF4-unsplash.jpg,0,1,108,0,unchosen,34,46,body_parts,objects,3100,1,9,3
35,32234,0,36,1,1,0,no_gain3,gain2,L,J,35,12,body_parts,faces,33,80,Stimuli/Experimental_stims/body_parts/wc-so-KH4AAPjb-tI-unsplash.jpg,Stimuli/Experimental_stims/faces/aiony-haust-jmATI5Q_YgY-unsplash.jpg,0,0,120,1,chosen,12,35,faces,body_parts,2600,0,9,3
36,32234,0,37,1,1,0,no_gain6,gain4,F,G,34,40,body_parts,objects,86,77,Stimuli/Experimental_stims/body_parts/wagner-santos-mBWMvIuVnso-unsplash.jpg,Stimuli/Experimental_stims/objects/fabian-blank-pElSkGRA2NU-unsplash.jpg,0,1,218,0,unchosen,34,40,body_parts,objects,1200,0,9,3
37,32234,0,38,1,1,1,gain4,no_gain5,G,I,40,0,objects,outdoor_scenes,77,94,Stimuli/Experimental_stims/objects/fabian-blank-pElSkGRA2NU-unsplash.jpg,Stimuli/Experimental_stims/outdoor_scenes/aleksandra-boguslawska-MS7KD9Ti7FQ-unsplash.jpg,0,1,251,1,unchosen,40,0,objects,outdoor_scenes,1700,0,9,3
38,32234,0,39,1,1,1,gain2,no_gain5,J,I,37,0,objects,outdoor_scenes,68,94,Stimuli/Experimental_stims/objects/alexander-andrews-VLGWE_SumrA-unsplash.jpg,Stimuli/Experimental_stims/outdoor_scenes/aleksandra-boguslawska-MS7KD9Ti7FQ-unsplash.jpg,0,1,154,1,unchosen,37,0,objects,outdoor_scenes,1600,0,9,3
39,32234,0,40,1,1,0,no_gain1,gain3,C,B,3,23,outdoor_scenes,faces,68,81,Stimuli/Experimental_stims/outdoor_scenes/henry-be-NLF6hTe4PAg-unsplash.jpg,Stimuli/Experimental_stims/faces/rikonavt-HQjfrvdTfak-unsplash.jpg,0,1,30,0,chosen,3,23,outdoor_scenes,faces,4400,1,9,3
40,32234,0,41,1,1,1,gain1,no_gain5,E,I,33,25,body_parts,body_parts,88,71,Stimuli/Experimental_stims/body_parts/tucker-good-36skLT5jZcc-unsplash.jpg,Stimuli/Experimental_stims/body_parts/engin-akyurt-Q2rfH3GW39c-unsplash.jpg,0,1,137,1,chosen,33,25,body_parts,body_parts,1600,0,9,3
41,32234,0,42,1,1,0,no_gain4,gain3,H,B,17,2,faces,outdoor_scenes,84,87,Stimuli/Experimental_stims/faces/good-faces-xmSWVeGEnJw-unsplash.jpg,Stimuli/Experimental_stims/outdoor_scenes/bruno-van-der-kraan-qez8mNJ3ilU-unsplash.jpg,0,1,253,0,unchosen,17,2,faces,outdoor_scenes,1700,0,9,3
42,32234,0,43,1,1,1,gain6,no_gain2,D,A,45,43,objects,objects,75,58,Stimuli/Experimental_stims/objects/leohoho-rngTKHXumy0-unsplash.jpg,Stimuli/Experimental_stims/objects/jonathan-greenaway-Y4hGgeiFn3s-unsplash.jpg,0,1,143,1,chosen,45,43,objects,objects,1900,0,9,3
43,32234,0,44,1,1,1,gain4,no_gain4,G,H,8,5,outdoor_scenes,outdoor_scenes,80,70,Stimuli/Experimental_stims/outdoor_scenes/samsommer-vddccTqwal8-unsplash.jpg,Stimuli/Experimental_stims/outdoor_scenes/jeff-king-bJHWJeiHfHc-unsplash.jpg,1,NaN,,NaN,chosen,NaN,NaN,NaN,NaN,1900,0,9,3
44,32234,0,45,1,1,0,no_gain4,gain1,H,E,17,46,faces,objects,84,82,Stimuli/Experimental_stims/faces/good-faces-xmSWVeGEnJw-unsplash.jpg,Stimuli/Experimental_stims/objects/mockup-graphics-PNsj6RiHAF4-unsplash.jpg,0,1,74,0,unchosen,17,46,faces,objects,2000,0,9,3
45,32234,0,46,1,1,0,no_gain2,gain1,A,E,43,33,objects,body_parts,58,88,Stimuli/Experimental_stims/objects/jonathan-greenaway-Y4hGgeiFn3s-unsplash.jpg,Stimuli/Experimental_stims/body_parts/tucker-good-36skLT5jZcc-unsplash.jpg,0,0,33,1,chosen,33,43,body_parts,objects,2200,0,9,3
46,32234,0,47,1,1,0,no_gain5,gain5,I,K,25,31,body_parts,body_parts,71,75,Stimuli/Experimental_stims/body_parts/engin-akyurt-Q2rfH3GW39c-unsplash.jpg,Stimuli/Experimental_stims/body_parts/sincerely-media-VN6DbKajo5s-unsplash.jpg,1,NaN,,NaN,chosen,NaN,NaN,NaN,NaN,3000,0,9,3
47,32234,0,48,1,1,0,no_gain2,gain3,A,B,43,23,objects,faces,58,81,Stimuli/Experimental_stims/objects/jonathan-greenaway-Y4hGgeiFn3s-unsplash.jpg,Stimuli/Experimental_stims/faces/rikonavt-HQjfrvdTfak-unsplash.jpg,1,NaN,,NaN,chosen,NaN,NaN,NaN,NaN,4200,1,9,3
48,32234,0,49,1,1,0,no_gain6,gain3,F,B,34,2,body_parts,outdoor_scenes,86,87,Stimuli/Experimental_stims/body_parts/wagner-santos-mBWMvIuVnso-unsplash.jpg,Stimuli/Experimental_stims/outdoor_scenes/bruno-van-der-kraan-qez8mNJ3ilU-unsplash.jpg,1,NaN,,NaN,unchosen,NaN,NaN,NaN,NaN,2100,0,9,3
49,32234,0,50,1,1,0,no_gain5,gain4,I,G,25,8,body_parts,outdoor_scenes,71,80,Stimuli/Experimental_stims/body_parts/engin-akyurt-Q2rfH3GW39c-unsplash.jpg,Stimuli/Experimental_stims/outdoor_scenes/samsommer-vddccTqwal8-unsplash.jpg,0,1,1243,0,chosen,25,8,body_parts,outdoor_scenes,1800,0,9,3
50,32234,0,51,1,1,1,gain3,no_gain5,B,I,23,25,faces,body_parts,81,71,Stimuli/Experimental_stims/faces/rikonavt-HQjfrvdTfak-unsplash.jpg,Stimuli/Experimental_stims/body_parts/engin-akyurt-Q2rfH3GW39c-unsplash.jpg,0,0,177,0,chosen,25,23,body_parts,faces,2400,0,9,3
51,32234,0,52,1,1,0,no_gain4,gain2,H,J,17,37,faces,objects,84,68,Stimuli/Experimental_stims/faces/good-faces-xmSWVeGEnJw-unsplash.jpg,Stimuli/Experimental_stims/objects/alexander-andrews-VLGWE_SumrA-unsplash.jpg,0,0,219,1,unchosen,37,17,objects,faces,1100,0,9,3
52,32234,0,53,1,1,0,no_gain2,gain5,A,K,43,31,objects,body_parts,58,75,Stimuli/Experimental_stims/objects/jonathan-greenaway-Y4hGgeiFn3s-unsplash.jpg,Stimuli/Experimental_stims/body_parts/sincerely-media-VN6DbKajo5s-unsplash.jpg,0,0,50,1,chosen,31,43,body_parts,objects,1100,0,9,3
53,32234,0,54,1,1,0,no_gain2,gain6,A,D,9,20,outdoor_scenes,faces,68,77,Stimuli/Experimental_stims/outdoor_scenes/sergey-pesterev-y-b_FOmJXdg-unsplash.jpg,Stimuli/Experimental_stims/faces/justin-chen-J7Cf1Gch49E-unsplash.jpg,0,0,112,1,unchosen,20,9,faces,outdoor_scenes,1100,0,9,3
54,32234,0,55,1,1,1,gain6,no_gain3,D,L,45,35,objects,body_parts,75,33,Stimuli/Experimental_stims/objects/leohoho-rngTKHXumy0-unsplash.jpg,Stimuli/Experimental_stims/body_parts/wc-so-KH4AAPjb-tI-unsplash.jpg,0,0,192,0,chosen,35,45,body_parts,objects,3900,1,9,3
55,32234,0,56,1,1,0,no_gain1,gain5,C,K,27,42,body_parts,objects,100,81,Stimuli/Experimental_stims/body_parts/heike-mintel-i_Gns0ELnLw-unsplash.jpg,Stimuli/Experimental_stims/objects/jess-bailey-nOeVi8DsN8U-unsplash.jpg,0,0,245,1,unchosen,42,27,objects,body_parts,2100,0,9,3
56,32234,0,57,1,1,1,gain5,no_gain4,K,H,42,17,objects,faces,81,84,Stimuli/Experimental_stims/objects/jess-bailey-nOeVi8DsN8U-unsplash.jpg,Stimuli/Experimental_stims/faces/good-faces-xmSWVeGEnJw-unsplash.jpg,0,0,347,0,unchosen,17,42,faces,objects,1000,0,9,3
57,32234,0,58,1,1,0,no_gain1,gain4,C,G,27,40,body_parts,objects,100,77,Stimuli/Experimental_stims/body_parts/heike-mintel-i_Gns0ELnLw-unsplash.jpg,Stimuli/Experimental_stims/objects/fabian-blank-pElSkGRA2NU-unsplash.jpg,0,1,338,0,unchosen,27,40,body_parts,objects,1200,0,9,3
58,32234,0,59,1,1,1,gain3,no_gain6,B,F,23,19,faces,faces,81,76,Stimuli/Experimental_stims/faces/rikonavt-HQjfrvdTfak-unsplash.jpg,Stimuli/Experimental_stims/faces/joel-mott-LaK153ghdig-unsplash.jpg,0,0,250,0,chosen,19,23,faces,faces,1300,0,9,3
59,32234,0,60,1,1,1,gain4,no_gain6,G,F,8,19,outdoor_scenes,faces,80,76,Stimuli/Experimental_stims/outdoor_scenes/samsommer-vddccTqwal8-unsplash.jpg,Stimuli/Experimental_stims/faces/joel-mott-LaK153ghdig-unsplash.jpg,0,1,137,1,chosen,8,19,outdoor_scenes,faces,1300,0,9,3
60,32234,0,61,1,1,1,gain2,no_gain1,J,C,37,27,objects,body_parts,68,100,Stimuli/Experimental_stims/objects/alexander-andrews-VLGWE_SumrA-unsplash.jpg,Stimuli/Experimental_stims/body_parts/heike-mintel-i_Gns0ELnLw-unsplash.jpg,0,0,138,0,unchosen,27,37,body_parts,objects,3300,1,9,3
61,32234,0,62,1,1,1,gain2,no_gain3,J,L,37,18,objects,faces,68,84,Stimuli/Experimental_stims/objects/alexander-andrews-VLGWE_SumrA-unsplash.jpg,Stimuli/Experimental_stims/faces/jessica-radanavong-mrYkTuAesKE-unsplash.jpg,0,1,67,1,unchosen,37,18,objects,faces,1100,0,9,3
62,32234,0,63,1,1,0,no_gain5,gain6,I,D,25,45,body_parts,objects,71,75,Stimuli/Experimental_stims/body_parts/engin-akyurt-Q2rfH3GW39c-unsplash.jpg,Stimuli/Experimental_stims/objects/leohoho-rngTKHXumy0-unsplash.jpg,0,1,260,0,chosen,25,45,body_parts,objects,1400,0,9,3
63,32234,0,64,1,1,0,no_gain2,gain4,A,G,43,8,objects,outdoor_scenes,58,80,Stimuli/Experimental_stims/objects/jonathan-greenaway-Y4hGgeiFn3s-unsplash.jpg,Stimuli/Experimental_stims/outdoor_scenes/samsommer-vddccTqwal8-unsplash.jpg,0,1,212,0,chosen,43,8,objects,outdoor_scenes,1400,0,9,3
64,32234,0,65,1,1,0,no_gain3,gain3,L,B,35,23,body_parts,faces,33,81,Stimuli/Experimental_stims/body_parts/wc-so-KH4AAPjb-tI-unsplash.jpg,Stimuli/Experimental_stims/faces/rikonavt-HQjfrvdTfak-unsplash.jpg,0,1,368,0,chosen,35,23,body_parts,faces,2700,0,9,3
65,32234,0,66,1,1,0,no_gain6,gain5,F,K,34,42,body_parts,objects,86,81,Stimuli/Experimental_stims/body_parts/wagner-santos-mBWMvIuVnso-unsplash.jpg,Stimuli/Experimental_stims/objects/jess-bailey-nOeVi8DsN8U-unsplash.jpg,0,1,402,0,unchosen,34,42,body_parts,objects,1500,0,9,3
66,32234,0,67,1,1,1,gain3,no_gain5,B,I,2,0,outdoor_scenes,outdoor_scenes,87,94,Stimuli/Experimental_stims/outdoor_scenes/bruno-van-der-kraan-qez8mNJ3ilU-unsplash.jpg,Stimuli/Experimental_stims/outdoor_scenes/aleksandra-boguslawska-MS7KD9Ti7FQ-unsplash.jpg,0,1,22,1,unchosen,2,0,outdoor_scenes,outdoor_scenes,3700,1,9,3
67,32234,0,68,1,1,0,no_gain1,gain1,C,E,27,46,body_parts,objects,100,82,Stimuli/Experimental_stims/body_parts/heike-mintel-i_Gns0ELnLw-unsplash.jpg,Stimuli/Experimental_stims/objects/mockup-graphics-PNsj6RiHAF4-unsplash.jpg,0,0,116,1,unchosen,46,27,objects,body_parts,2600,0,9,3
68,32234,0,69,1,1,1,gain4,no_gain3,G,L,8,35,outdoor_scenes,body_parts,80,33,Stimuli/Experimental_stims/outdoor_scenes/samsommer-vddccTqwal8-unsplash.jpg,Stimuli/Experimental_stims/body_parts/wc-so-KH4AAPjb-tI-unsplash.jpg,0,1,100,1,chosen,8,35,outdoor_scenes,body_parts,1600,0,9,3
69,32234,0,70,1,1,1,gain6,no_gain3,D,L,20,18,faces,faces,77,84,Stimuli/Experimental_stims/faces/justin-chen-J7Cf1Gch49E-unsplash.jpg,Stimuli/Experimental_stims/faces/jessica-radanavong-mrYkTuAesKE-unsplash.jpg,0,0,247,0,unchosen,18,20,faces,faces,1100,0,9,3
70,32234,0,71,1,1,0,no_gain6,gain2,F,J,19,12,faces,faces,76,80,Stimuli/Experimental_stims/faces/joel-mott-LaK153ghdig-unsplash.jpg,Stimuli/Experimental_stims/faces/aiony-haust-jmATI5Q_YgY-unsplash.jpg,0,0,205,1,chosen,12,19,faces,faces,1600,0,9,3
71,32234,0,72,1,1,0,no_gain6,gain1,F,E,19,33,faces,body_parts,76,88,Stimuli/Experimental_stims/faces/joel-mott-LaK153ghdig-unsplash.jpg,Stimuli/Experimental_stims/body_parts/tucker-good-36skLT5jZcc-unsplash.jpg,0,1,473,0,chosen,19,33,faces,body_parts,4400,1,9,3
72,32234,0,73,1,1,1,gain6,no_gain1,D,C,45,3,objects,outdoor_scenes,75,68,Stimuli/Experimental_stims/objects/leohoho-rngTKHXumy0-unsplash.jpg,Stimuli/Experimental_stims/outdoor_scenes/henry-be-NLF6hTe4PAg-unsplash.jpg,0,0,77,0,chosen,3,45,outdoor_scenes,objects,1100,0,9,3
73,32234,0,74,1,1,0,no_gain5,gain6,I,D,0,20,outdoor_scenes,faces,94,77,Stimuli/Experimental_stims/outdoor_scenes/aleksandra-boguslawska-MS7KD9Ti7FQ-unsplash.jpg,Stimuli/Experimental_stims/faces/justin-chen-J7Cf1Gch49E-unsplash.jpg,0,1,168,0,unchosen,0,20,outdoor_scenes,faces,1700,0,9,3
74,32234,0,75,1,1,1,gain5,no_gain2,K,A,42,9,objects,outdoor_scenes,81,68,Stimuli/Experimental_stims/objects/jess-bailey-nOeVi8DsN8U-unsplash.jpg,Stimuli/Experimental_stims/outdoor_scenes/sergey-pesterev-y-b_FOmJXdg-unsplash.jpg,0,1,305,1,unchosen,42,9,objects,outdoor_scenes,2500,0,9,3
75,32234,0,76,1,1,1,gain1,no_gain3,E,L,46,18,objects,faces,82,84,Stimuli/Experimental_stims/objects/mockup-graphics-PNsj6RiHAF4-unsplash.jpg,Stimuli/Experimental_stims/faces/jessica-radanavong-mrYkTuAesKE-unsplash.jpg,0,0,89,0,unchosen,18,46,faces,objects,2100,0,9,3
76,32234,0,77,2,2,0,no_gain2,gain4,A,G,9,40,outdoor_scenes,objects,68,77,Stimuli/Experimental_stims/outdoor_scenes/sergey-pesterev-y-b_FOmJXdg-unsplash.jpg,Stimuli/Experimental_stims/objects/fabian-blank-pElSkGRA2NU-unsplash.jpg,0,1,1397,0,unchosen,9,40,outdoor_scenes,objects,3800,1,9,3
77,32234,0,78,2,2,0,no_gain6,gain5,F,K,19,31,faces,body_parts,76,75,Stimuli/Experimental_stims/faces/joel-mott-LaK153ghdig-unsplash.jpg,Stimuli/Experimental_stims/body_parts/sincerely-media-VN6DbKajo5s-unsplash.jpg,0,1,145,0,chosen,19,31,faces,body_parts,1200,0,9,3
78,32234,0,79,2,2,0,no_gain5,gain5,I,K,25,31,body_parts,body_parts,71,75,Stimuli/Experimental_stims/body_parts/engin-akyurt-Q2rfH3GW39c-unsplash.jpg,Stimuli/Experimental_stims/body_parts/sincerely-media-VN6DbKajo5s-unsplash.jpg,0,1,49,0,chosen,25,31,body_parts,body_parts,1200,0,9,3
79,32234,0,80,2,2,0,no_gain6,gain3,F,B,34,2,body_parts,outdoor_scenes,86,87,Stimuli/Experimental_stims/body_parts/wagner-santos-mBWMvIuVnso-unsplash.jpg,Stimuli/Experimental_stims/outdoor_scenes/bruno-van-der-kraan-qez8mNJ3ilU-unsplash.jpg,0,0,135,1,unchosen,2,34,outdoor_scenes,body_parts,2700,0,9,3
80,32234,0,81,2,2,0,no_gain2,gain6,A,D,43,45,objects,objects,58,75,Stimuli/Experimental_stims/objects/jonathan-greenaway-Y4hGgeiFn3s-unsplash.jpg,Stimuli/Experimental_stims/objects/leohoho-rngTKHXumy0-unsplash.jpg,0,1,105,0,chosen,43,45,objects,objects,2900,0,9,3
81,32234,0,82,2,2,1,gain6,no_gain4,D,H,20,17,faces,faces,77,84,Stimuli/Experimental_stims/faces/justin-chen-J7Cf1Gch49E-unsplash.jpg,Stimuli/Experimental_stims/faces/good-faces-xmSWVeGEnJw-unsplash.jpg,0,0,765,0,unchosen,17,20,faces,faces,1400,0,9,3
82,32234,0,83,2,2,1,gain2,no_gain1,J,C,12,3,faces,outdoor_scenes,80,68,Stimuli/Experimental_stims/faces/aiony-haust-jmATI5Q_YgY-unsplash.jpg,Stimuli/Experimental_stims/outdoor_scenes/henry-be-NLF6hTe4PAg-unsplash.jpg,0,0,455,0,chosen,3,12,outdoor_scenes,faces,1100,0,9,3
83,32234,0,84,2,2,0,no_gain5,gain3,I,B,25,23,body_parts,faces,71,81,Stimuli/Experimental_stims/body_parts/engin-akyurt-Q2rfH3GW39c-unsplash.jpg,Stimuli/Experimental_stims/faces/rikonavt-HQjfrvdTfak-unsplash.jpg,0,0,198,1,chosen,23,25,faces,body_parts,2400,0,9,3
84,32234,0,85,2,2,1,gain6,no_gain3,D,L,20,18,faces,faces,77,84,Stimuli/Experimental_stims/faces/justin-chen-J7Cf1Gch49E-unsplash.jpg,Stimuli/Experimental_stims/faces/jessica-radanavong-mrYkTuAesKE-unsplash.jpg,0,1,50,1,unchosen,20,18,faces,faces,2400,0,9,3
85,32234,0,86,2,2,1,gain5,no_gain1,K,C,31,3,body_parts,outdoor_scenes,75,68,Stimuli/Experimental_stims/body_parts/sincerely-media-VN6DbKajo5s-unsplash.jpg,Stimuli/Experimental_stims/outdoor_scenes/henry-be-NLF6hTe4PAg-unsplash.jpg,0,0,192,0,chosen,3,31,outdoor_scenes,body_parts,1400,0,9,3
86,32234,0,87,2,2,0,no_gain3,gain1,L,E,35,33,body_parts,body_parts,33,88,Stimuli/Experimental_stims/body_parts/wc-so-KH4AAPjb-tI-unsplash.jpg,Stimuli/Experimental_stims/body_parts/tucker-good-36skLT5jZcc-unsplash.jpg,0,1,308,0,chosen,35,33,body_parts,body_parts,3000,1,9,3
87,32234,0,88,2,2,0,no_gain5,gain1,I,E,0,46,outdoor_scenes,objects,94,82,Stimuli/Experimental_stims/outdoor_scenes/aleksandra-boguslawska-MS7KD9Ti7FQ-unsplash.jpg,Stimuli/Experimental_stims/objects/mockup-graphics-PNsj6RiHAF4-unsplash.jpg,0,1,79,0,unchosen,0,46,outdoor_scenes,objects,1000,0,9,3
88,32234,0,89,2,2,0,no_gain5,gain4,I,G,0,40,outdoor_scenes,objects,94,77,Stimuli/Experimental_stims/outdoor_scenes/aleksandra-boguslawska-MS7KD9Ti7FQ-unsplash.jpg,Stimuli/Experimental_stims/objects/fabian-blank-pElSkGRA2NU-unsplash.jpg,0,1,98,0,unchosen,0,40,outdoor_scenes,objects,1100,0,9,3
89,32234,0,90,2,2,0,no_gain3,gain2,L,J,18,37,faces,objects,84,68,Stimuli/Experimental_stims/faces/jessica-radanavong-mrYkTuAesKE-unsplash.jpg,Stimuli/Experimental_stims/objects/alexander-andrews-VLGWE_SumrA-unsplash.jpg,0,0,1,1,unchosen,37,18,objects,faces,2200,0,9,3
90,32234,0,91,2,2,1,gain1,no_gain6,E,F,33,19,body_parts,faces,88,76,Stimuli/Experimental_stims/body_parts/tucker-good-36skLT5jZcc-unsplash.jpg,Stimuli/Experimental_stims/faces/joel-mott-LaK153ghdig-unsplash.jpg,0,0,6,0,chosen,19,33,faces,body_parts,1600,0,9,3
91,32234,0,92,2,2,1,gain2,no_gain6,J,F,37,34,objects,body_parts,68,86,Stimuli/Experimental_stims/objects/alexander-andrews-VLGWE_SumrA-unsplash.jpg,Stimuli/Experimental_stims/body_parts/wagner-santos-mBWMvIuVnso-unsplash.jpg,0,1,114,1,unchosen,37,34,objects,body_parts,3200,1,9,3
92,32234,0,93,2,2,0,no_gain5,gain6,I,D,0,20,outdoor_scenes,faces,94,77,Stimuli/Experimental_stims/outdoor_scenes/aleksandra-boguslawska-MS7KD9Ti7FQ-unsplash.jpg,Stimuli/Experimental_stims/faces/justin-chen-J7Cf1Gch49E-unsplash.jpg,0,1,129,0,unchosen,0,20,outdoor_scenes,faces,2100,0,9,3
93,32234,0,94,2,2,1,gain3,no_gain3,B,L,2,18,outdoor_scenes,faces,87,84,Stimuli/Experimental_stims/outdoor_scenes/bruno-van-der-kraan-qez8mNJ3ilU-unsplash.jpg,Stimuli/Experimental_stims/faces/jessica-radanavong-mrYkTuAesKE-unsplash.jpg,0,0,1,0,unchosen,18,2,faces,outdoor_scenes,1100,0,9,3
94,32234,0,95,2,2,0,no_gain2,gain3,A,B,43,23,objects,faces,58,81,Stimuli/Experimental_stims/objects/jonathan-greenaway-Y4hGgeiFn3s-unsplash.jpg,Stimuli/Experimental_stims/faces/rikonavt-HQjfrvdTfak-unsplash.jpg,0,0,2,1,chosen,23,43,faces,objects,2800,0,9,3
95,32234,0,96,2,2,1,gain1,no_gain4,E,H,46,17,objects,faces,82,84,Stimuli/Experimental_stims/objects/mockup-graphics-PNsj6RiHAF4-unsplash.jpg,Stimuli/Experimental_stims/faces/good-faces-xmSWVeGEnJw-unsplash.jpg,0,0,25,0,unchosen,17,46,faces,objects,1100,0,9,3
96,32234,0,97,2,2,0,no_gain3,gain4,L,G,35,8,body_parts,outdoor_scenes,33,80,Stimuli/Experimental_stims/body_parts/wc-so-KH4AAPjb-tI-unsplash.jpg,Stimuli/Experimental_stims/outdoor_scenes/samsommer-vddccTqwal8-unsplash.jpg,0,0,3,1,chosen,8,35,outdoor_scenes,body_parts,4900,1,9,3
97,32234,0,98,2,2,1,gain3,no_gain3,B,L,23,35,faces,body_parts,81,33,Stimuli/Experimental_stims/faces/rikonavt-HQjfrvdTfak-unsplash.jpg,Stimuli/Experimental_stims/body_parts/wc-so-KH4AAPjb-tI-unsplash.jpg,0,0,255,0,chosen,35,23,body_parts,faces,1200,0,9,3
98,32234,0,99,2,2,0,no_gain5,gain5,I,K,0,42,outdoor_scenes,objects,94,81,Stimuli/Experimental_stims/outdoor_scenes/aleksandra-boguslawska-MS7KD9Ti7FQ-unsplash.jpg,Stimuli/Experimental_stims/objects/jess-bailey-nOeVi8DsN8U-unsplash.jpg,0,0,168,1,unchosen,42,0,objects,outdoor_scenes,1200,0,9,3
99,32234,0,100,2,2,1,gain4,no_gain5,G,I,8,25,outdoor_scenes,body_parts,80,71,Stimuli/Experimental_stims/outdoor_scenes/samsommer-vddccTqwal8-unsplash.jpg,Stimuli/Experimental_stims/body_parts/engin-akyurt-Q2rfH3GW39c-unsplash.jpg,0,0,552,0,chosen,25,8,body_parts,outdoor_scenes,1900,0,9,3
100,32234,0,101,2,2,0,no_gain6,gain4,F,G,19,8,faces,outdoor_scenes,76,80,Stimuli/Experimental_stims/faces/joel-mott-LaK153ghdig-unsplash.jpg,Stimuli/Experimental_stims/outdoor_scenes/samsommer-vddccTqwal8-unsplash.jpg,0,1,412,0,chosen,19,8,faces,outdoor_scenes,1500,0,9,3
101,32234,0,102,2,2,0,no_gain5,gain2,I,J,0,37,outdoor_scenes,objects,94,68,Stimuli/Experimental_stims/outdoor_scenes/aleksandra-boguslawska-MS7KD9Ti7FQ-unsplash.jpg,Stimuli/Experimental_stims/objects/alexander-andrews-VLGWE_SumrA-unsplash.jpg,0,0,178,1,unchosen,37,0,objects,outdoor_scenes,1600,0,9,3
102,32234,0,103,2,2,0,no_gain5,gain6,I,D,25,45,body_parts,objects,71,75,Stimuli/Experimental_stims/body_parts/engin-akyurt-Q2rfH3GW39c-unsplash.jpg,Stimuli/Experimental_stims/objects/leohoho-rngTKHXumy0-unsplash.jpg,0,1,320,0,chosen,25,45,body_parts,objects,1500,0,9,3
103,32234,0,104,2,2,1,gain4,no_gain3,G,L,40,18,objects,faces,77,84,Stimuli/Experimental_stims/objects/fabian-blank-pElSkGRA2NU-unsplash.jpg,Stimuli/Experimental_stims/faces/jessica-radanavong-mrYkTuAesKE-unsplash.jpg,0,1,490,1,unchosen,40,18,objects,faces,2000,0,9,3
104,32234,0,105,2,2,1,gain2,no_gain4,J,H,12,5,faces,outdoor_scenes,80,70,Stimuli/Experimental_stims/faces/aiony-haust-jmATI5Q_YgY-unsplash.jpg,Stimuli/Experimental_stims/outdoor_scenes/jeff-king-bJHWJeiHfHc-unsplash.jpg,0,1,302,1,chosen,12,5,faces,outdoor_scenes,2000,0,9,3
105,32234,0,106,2,2,0,no_gain2,gain1,A,E,43,33,objects,body_parts,58,88,Stimuli/Experimental_stims/objects/jonathan-greenaway-Y4hGgeiFn3s-unsplash.jpg,Stimuli/Experimental_stims/body_parts/tucker-good-36skLT5jZcc-unsplash.jpg,0,1,106,0,chosen,43,33,objects,body_parts,3400,1,9,3
106,32234,0,107,2,2,1,gain1,no_gain6,E,F,46,34,objects,body_parts,82,86,Stimuli/Experimental_stims/objects/mockup-graphics-PNsj6RiHAF4-unsplash.jpg,Stimuli/Experimental_stims/body_parts/wagner-santos-mBWMvIuVnso-unsplash.jpg,0,1,597,1,unchosen,46,34,objects,body_parts,1600,0,9,3
107,32234,0,108,2,2,0,no_gain1,gain3,C,B,27,2,body_parts,outdoor_scenes,100,87,Stimuli/Experimental_stims/body_parts/heike-mintel-i_Gns0ELnLw-unsplash.jpg,Stimuli/Experimental_stims/outdoor_scenes/bruno-van-der-kraan-qez8mNJ3ilU-unsplash.jpg,0,0,156,1,unchosen,2,27,outdoor_scenes,body_parts,2400,0,9,3
108,32234,0,109,2,2,0,no_gain5,gain2,I,J,25,12,body_parts,faces,71,80,Stimuli/Experimental_stims/body_parts/engin-akyurt-Q2rfH3GW39c-unsplash.jpg,Stimuli/Experimental_stims/faces/aiony-haust-jmATI5Q_YgY-unsplash.jpg,0,0,380,1,chosen,12,25,faces,body_parts,2900,0,9,3
109,32234,0,110,2,2,1,gain2,no_gain2,J,A,12,43,faces,objects,80,58,Stimuli/Experimental_stims/faces/aiony-haust-jmATI5Q_YgY-unsplash.jpg,Stimuli/Experimental_stims/objects/jonathan-greenaway-Y4hGgeiFn3s-unsplash.jpg,0,0,420,0,chosen,43,12,objects,faces,2100,0,9,3
110,32234,0,111,2,2,1,gain5,no_gain6,K,F,42,34,objects,body_parts,81,86,Stimuli/Experimental_stims/objects/jess-bailey-nOeVi8DsN8U-unsplash.jpg,Stimuli/Experimental_stims/body_parts/wagner-santos-mBWMvIuVnso-unsplash.jpg,0,0,134,0,unchosen,34,42,body_parts,objects,3600,1,9,3
111,32234,0,112,2,2,1,gain6,no_gain4,D,H,45,5,objects,outdoor_scenes,75,70,Stimuli/Experimental_stims/objects/leohoho-rngTKHXumy0-unsplash.jpg,Stimuli/Experimental_stims/outdoor_scenes/jeff-king-bJHWJeiHfHc-unsplash.jpg,0,1,250,1,chosen,45,5,objects,outdoor_scenes,1900,0,9,3
112,32234,0,113,2,2,1,gain3,no_gain1,B,C,23,3,faces,outdoor_scenes,81,68,Stimuli/Experimental_stims/faces/rikonavt-HQjfrvdTfak-unsplash.jpg,Stimuli/Experimental_stims/outdoor_scenes/henry-be-NLF6hTe4PAg-unsplash.jpg,0,0,110,0,chosen,3,23,outdoor_scenes,faces,1000,0,9,3
113,32234,0,114,2,2,0,no_gain6,gain2,F,J,19,12,faces,faces,76,80,Stimuli/Experimental_stims/faces/joel-mott-LaK153ghdig-unsplash.jpg,Stimuli/Experimental_stims/faces/aiony-haust-jmATI5Q_YgY-unsplash.jpg,0,1,129,0,chosen,19,12,faces,faces,1500,0,9,3
114,32234,0,115,2,2,1,gain1,no_gain3,E,L,46,18,objects,faces,82,84,Stimuli/Experimental_stims/objects/mockup-graphics-PNsj6RiHAF4-unsplash.jpg,Stimuli/Experimental_stims/faces/jessica-radanavong-mrYkTuAesKE-unsplash.jpg,0,1,133,1,unchosen,46,18,objects,faces,1600,0,9,3
115,32234,0,116,2,2,0,no_gain1,gain1,C,E,27,46,body_parts,objects,100,82,Stimuli/Experimental_stims/body_parts/heike-mintel-i_Gns0ELnLw-unsplash.jpg,Stimuli/Experimental_stims/objects/mockup-graphics-PNsj6RiHAF4-unsplash.jpg,0,0,150,1,unchosen,46,27,objects,body_parts,1100,0,9,3
116,32234,0,117,2,2,1,gain6,no_gain1,D,C,45,3,objects,outdoor_scenes,75,68,Stimuli/Experimental_stims/objects/leohoho-rngTKHXumy0-unsplash.jpg,Stimuli/Experimental_stims/outdoor_scenes/henry-be-NLF6hTe4PAg-unsplash.jpg,0,0,112,0,chosen,3,45,outdoor_scenes,objects,4400,1,9,3
117,32234,0,118,2,2,1,gain3,no_gain6,B,F,23,19,faces,faces,81,76,Stimuli/Experimental_stims/faces/rikonavt-HQjfrvdTfak-unsplash.jpg,Stimuli/Experimental_stims/faces/joel-mott-LaK153ghdig-unsplash.jpg,0,0,17,0,chosen,19,23,faces,faces,1100,0,9,3
118,32234,0,119,2,2,1,gain3,no_gain4,B,H,2,17,outdoor_scenes,faces,87,84,Stimuli/Experimental_stims/outdoor_scenes/bruno-van-der-kraan-qez8mNJ3ilU-unsplash.jpg,Stimuli/Experimental_stims/faces/good-faces-xmSWVeGEnJw-unsplash.jpg,0,0,2,0,unchosen,17,2,faces,outdoor_scenes,1200,0,9,3
119,32234,0,120,2,2,0,no_gain4,gain1,H,E,5,33,outdoor_scenes,body_parts,70,88,Stimuli/Experimental_stims/outdoor_scenes/jeff-king-bJHWJeiHfHc-unsplash.jpg,Stimuli/Experimental_stims/body_parts/tucker-good-36skLT5jZcc-unsplash.jpg,0,1,416,0,chosen,5,33,outdoor_scenes,body_parts,1000,0,9,3
120,32234,0,121,2,2,0,no_gain3,gain5,L,K,18,42,faces,objects,84,81,Stimuli/Experimental_stims/faces/jessica-radanavong-mrYkTuAesKE-unsplash.jpg,Stimuli/Experimental_stims/objects/jess-bailey-nOeVi8DsN8U-unsplash.jpg,0,1,161,0,unchosen,18,42,faces,objects,1500,0,9,3
121,32234,0,122,2,2,0,no_gain1,gain4,C,G,27,40,body_parts,objects,100,77,Stimuli/Experimental_stims/body_parts/heike-mintel-i_Gns0ELnLw-unsplash.jpg,Stimuli/Experimental_stims/objects/fabian-blank-pElSkGRA2NU-unsplash.jpg,0,1,125,0,unchosen,27,40,body_parts,objects,2000,0,9,3
122,32234,0,123,2,2,0,no_gain4,gain3,H,B,5,23,outdoor_scenes,faces,70,81,Stimuli/Experimental_stims/outdoor_scenes/jeff-king-bJHWJeiHfHc-unsplash.jpg,Stimuli/Experimental_stims/faces/rikonavt-HQjfrvdTfak-unsplash.jpg,0,1,99,0,chosen,5,23,outdoor_scenes,faces,3700,1,9,3
123,32234,0,124,2,2,0,no_gain1,gain2,C,J,27,37,body_parts,objects,100,68,Stimuli/Experimental_stims/body_parts/heike-mintel-i_Gns0ELnLw-unsplash.jpg,Stimuli/Experimental_stims/objects/alexander-andrews-VLGWE_SumrA-unsplash.jpg,0,1,137,0,unchosen,27,37,body_parts,objects,2100,0,9,3
124,32234,0,125,2,2,1,gain5,no_gain1,K,C,42,27,objects,body_parts,81,100,Stimuli/Experimental_stims/objects/jess-bailey-nOeVi8DsN8U-unsplash.jpg,Stimuli/Experimental_stims/body_parts/heike-mintel-i_Gns0ELnLw-unsplash.jpg,0,1,180,1,unchosen,42,27,objects,body_parts,1100,0,9,3
125,32234,0,126,2,2,1,gain5,no_gain3,K,L,31,35,body_parts,body_parts,75,33,Stimuli/Experimental_stims/body_parts/sincerely-media-VN6DbKajo5s-unsplash.jpg,Stimuli/Experimental_stims/body_parts/wc-so-KH4AAPjb-tI-unsplash.jpg,0,1,31,1,chosen,31,35,body_parts,body_parts,1500,0,9,3
126,32234,0,127,2,2,0,no_gain5,gain1,I,E,25,33,body_parts,body_parts,71,88,Stimuli/Experimental_stims/body_parts/engin-akyurt-Q2rfH3GW39c-unsplash.jpg,Stimuli/Experimental_stims/body_parts/tucker-good-36skLT5jZcc-unsplash.jpg,0,1,348,0,chosen,25,33,body_parts,body_parts,1900,0,9,3
127,32234,0,128,2,2,0,no_gain2,gain6,A,D,9,20,outdoor_scenes,faces,68,77,Stimuli/Experimental_stims/outdoor_scenes/sergey-pesterev-y-b_FOmJXdg-unsplash.jpg,Stimuli/Experimental_stims/faces/justin-chen-J7Cf1Gch49E-unsplash.jpg,0,0,136,1,unchosen,20,9,faces,outdoor_scenes,1600,0,9,3
128,32234,0,129,2,2,1,gain5,no_gain4,K,H,42,17,objects,faces,81,84,Stimuli/Experimental_stims/objects/jess-bailey-nOeVi8DsN8U-unsplash.jpg,Stimuli/Experimental_stims/faces/good-faces-xmSWVeGEnJw-unsplash.jpg,0,0,14,0,unchosen,17,42,faces,objects,3100,1,9,3
129,32234,0,130,2,2,0,no_gain1,gain1,C,E,3,33,outdoor_scenes,body_parts,68,88,Stimuli/Experimental_stims/outdoor_scenes/henry-be-NLF6hTe4PAg-unsplash.jpg,Stimuli/Experimental_stims/body_parts/tucker-good-36skLT5jZcc-unsplash.jpg,0,1,161,0,chosen,3,33,outdoor_scenes,body_parts,2800,0,9,3
130,32234,0,131,2,2,1,gain5,no_gain4,K,H,31,5,body_parts,outdoor_scenes,75,70,Stimuli/Experimental_stims/body_parts/sincerely-media-VN6DbKajo5s-unsplash.jpg,Stimuli/Experimental_stims/outdoor_scenes/jeff-king-bJHWJeiHfHc-unsplash.jpg,0,0,75,0,chosen,5,31,outdoor_scenes,body_parts,1800,0,9,3
131,32234,0,132,2,2,0,no_gain6,gain6,F,D,34,20,body_parts,faces,86,77,Stimuli/Experimental_stims/body_parts/wagner-santos-mBWMvIuVnso-unsplash.jpg,Stimuli/Experimental_stims/faces/justin-chen-J7Cf1Gch49E-unsplash.jpg,0,0,175,1,unchosen,20,34,faces,body_parts,2100,0,9,3
132,32234,0,133,2,2,1,gain6,no_gain3,D,L,45,35,objects,body_parts,75,33,Stimuli/Experimental_stims/objects/leohoho-rngTKHXumy0-unsplash.jpg,Stimuli/Experimental_stims/body_parts/wc-so-KH4AAPjb-tI-unsplash.jpg,0,0,233,0,chosen,35,45,body_parts,objects,2100,0,9,3
133,32234,0,134,2,2,0,no_gain2,gain5,A,K,43,31,objects,body_parts,58,75,Stimuli/Experimental_stims/objects/jonathan-greenaway-Y4hGgeiFn3s-unsplash.jpg,Stimuli/Experimental_stims/body_parts/sincerely-media-VN6DbKajo5s-unsplash.jpg,0,1,88,0,chosen,43,31,objects,body_parts,1600,0,9,3
134,32234,0,135,2,2,0,no_gain4,gain2,H,J,17,37,faces,objects,84,68,Stimuli/Experimental_stims/faces/good-faces-xmSWVeGEnJw-unsplash.jpg,Stimuli/Experimental_stims/objects/alexander-andrews-VLGWE_SumrA-unsplash.jpg,0,0,625,1,unchosen,37,17,objects,faces,2600,0,9,3
135,32234,0,136,2,2,1,gain4,no_gain4,G,H,8,5,outdoor_scenes,outdoor_scenes,80,70,Stimuli/Experimental_stims/outdoor_scenes/samsommer-vddccTqwal8-unsplash.jpg,Stimuli/Experimental_stims/outdoor_scenes/jeff-king-bJHWJeiHfHc-unsplash.jpg,0,0,136,0,chosen,5,8,outdoor_scenes,outdoor_scenes,1100,0,9,3
136,32234,0,137,2,2,0,no_gain2,gain2,A,J,9,37,outdoor_scenes,objects,68,68,Stimuli/Experimental_stims/outdoor_scenes/sergey-pesterev-y-b_FOmJXdg-unsplash.jpg,Stimuli/Experimental_stims/objects/alexander-andrews-VLGWE_SumrA-unsplash.jpg,0,0,41,1,unchosen,37,9,objects,outdoor_scenes,2700,0,9,3
137,32234,0,138,2,2,1,gain4,no_gain6,G,F,40,34,objects,body_parts,77,86,Stimuli/Experimental_stims/objects/fabian-blank-pElSkGRA2NU-unsplash.jpg,Stimuli/Experimental_stims/body_parts/wagner-santos-mBWMvIuVnso-unsplash.jpg,0,1,829,1,unchosen,40,34,objects,body_parts,1500,0,9,3
138,32234,0,139,2,2,1,gain3,no_gain5,B,I,2,0,outdoor_scenes,outdoor_scenes,87,94,Stimuli/Experimental_stims/outdoor_scenes/bruno-van-der-kraan-qez8mNJ3ilU-unsplash.jpg,Stimuli/Experimental_stims/outdoor_scenes/aleksandra-boguslawska-MS7KD9Ti7FQ-unsplash.jpg,0,1,790,1,unchosen,2,0,outdoor_scenes,outdoor_scenes,1100,0,9,3
139,32234,0,140,2,2,1,gain4,no_gain1,G,C,8,3,outdoor_scenes,outdoor_scenes,80,68,Stimuli/Experimental_stims/outdoor_scenes/samsommer-vddccTqwal8-unsplash.jpg,Stimuli/Experimental_stims/outdoor_scenes/henry-be-NLF6hTe4PAg-unsplash.jpg,0,0,69,0,chosen,3,8,outdoor_scenes,outdoor_scenes,1200,0,9,3
140,32234,0,141,2,2,1,gain3,no_gain2,B,A,2,9,outdoor_scenes,outdoor_scenes,87,68,Stimuli/Experimental_stims/outdoor_scenes/bruno-van-der-kraan-qez8mNJ3ilU-unsplash.jpg,Stimuli/Experimental_stims/outdoor_scenes/sergey-pesterev-y-b_FOmJXdg-unsplash.jpg,0,1,134,1,unchosen,2,9,outdoor_scenes,outdoor_scenes,1200,0,9,3
141,32234,0,142,2,2,0,no_gain2,gain1,A,E,9,46,outdoor_scenes,objects,68,82,Stimuli/Experimental_stims/outdoor_scenes/sergey-pesterev-y-b_FOmJXdg-unsplash.jpg,Stimuli/Experimental_stims/objects/mockup-graphics-PNsj6RiHAF4-unsplash.jpg,0,1,82,0,unchosen,9,46,outdoor_scenes,objects,4600,1,9,3
142,32234,0,143,2,2,1,gain6,no_gain6,D,F,45,19,objects,faces,75,76,Stimuli/Experimental_stims/objects/leohoho-rngTKHXumy0-unsplash.jpg,Stimuli/Experimental_stims/faces/joel-mott-LaK153ghdig-unsplash.jpg,0,0,7,0,chosen,19,45,faces,objects,2000,0,9,3
143,32234,0,144,2,2,1,gain4,no_gain4,G,H,40,17,objects,faces,77,84,Stimuli/Experimental_stims/objects/fabian-blank-pElSkGRA2NU-unsplash.jpg,Stimuli/Experimental_stims/faces/good-faces-xmSWVeGEnJw-unsplash.jpg,0,0,459,0,unchosen,17,40,faces,objects,1700,0,9,3
144,32234,0,145,2,2,1,gain6,no_gain1,D,C,20,27,faces,body_parts,77,100,Stimuli/Experimental_stims/faces/justin-chen-J7Cf1Gch49E-unsplash.jpg,Stimuli/Experimental_stims/body_parts/heike-mintel-i_Gns0ELnLw-unsplash.jpg,0,0,134,0,unchosen,27,20,body_parts,faces,1300,0,9,3
145,32234,0,146,2,2,0,no_gain2,gain4,A,G,43,8,objects,outdoor_scenes,58,80,Stimuli/Experimental_stims/objects/jonathan-greenaway-Y4hGgeiFn3s-unsplash.jpg,Stimuli/Experimental_stims/outdoor_scenes/samsommer-vddccTqwal8-unsplash.jpg,0,0,189,1,chosen,8,43,outdoor_scenes,objects,1300,0,9,3
146,32234,0,147,2,2,1,gain5,no_gain2,K,A,42,9,objects,outdoor_scenes,81,68,Stimuli/Experimental_stims/objects/jess-bailey-nOeVi8DsN8U-unsplash.jpg,Stimuli/Experimental_stims/outdoor_scenes/sergey-pesterev-y-b_FOmJXdg-unsplash.jpg,0,1,1004,1,unchosen,42,9,objects,outdoor_scenes,1600,0,9,3
147,32234,0,148,2,2,1,gain2,no_gain3,J,L,12,35,faces,body_parts,80,33,Stimuli/Experimental_stims/faces/aiony-haust-jmATI5Q_YgY-unsplash.jpg,Stimuli/Experimental_stims/body_parts/wc-so-KH4AAPjb-tI-unsplash.jpg,0,0,337,0,chosen,35,12,body_parts,faces,2900,0,9,3
148,32234,0,149,3,3,0,no_gain1,gain2,C,J,27,37,body_parts,objects,100,68,Stimuli/Experimental_stims/body_parts/heike-mintel-i_Gns0ELnLw-unsplash.jpg,Stimuli/Experimental_stims/objects/alexander-andrews-VLGWE_SumrA-unsplash.jpg,0,1,819,0,unchosen,27,37,body_parts,objects,2500,0,3,3
149,32234,0,150,3,3,0,no_gain2,gain5,A,K,43,31,objects,body_parts,58,75,Stimuli/Experimental_stims/objects/jonathan-greenaway-Y4hGgeiFn3s-unsplash.jpg,Stimuli/Experimental_stims/body_parts/sincerely-media-VN6DbKajo5s-unsplash.jpg,0,0,1473,1,chosen,31,43,body_parts,objects,1500,0,3,3
150,32234,0,151,3,3,0,no_gain5,gain1,I,E,0,46,outdoor_scenes,objects,94,82,Stimuli/Experimental_stims/outdoor_scenes/aleksandra-boguslawska-MS7KD9Ti7FQ-unsplash.jpg,Stimuli/Experimental_stims/objects/mockup-graphics-PNsj6RiHAF4-unsplash.jpg,0,1,694,0,unchosen,0,46,outdoor_scenes,objects,1000,0,3,3
151,32234,0,152,3,3,1,gain3,no_gain3,B,L,2,18,outdoor_scenes,faces,87,84,Stimuli/Experimental_stims/outdoor_scenes/bruno-van-der-kraan-qez8mNJ3ilU-unsplash.jpg,Stimuli/Experimental_stims/faces/jessica-radanavong-mrYkTuAesKE-unsplash.jpg,0,0,40,0,unchosen,18,2,faces,outdoor_scenes,2000,0,3,3
152,32234,0,153,3,3,0,no_gain4,gain3,H,B,17,2,faces,outdoor_scenes,84,87,Stimuli/Experimental_stims/faces/good-faces-xmSWVeGEnJw-unsplash.jpg,Stimuli/Experimental_stims/outdoor_scenes/bruno-van-der-kraan-qez8mNJ3ilU-unsplash.jpg,0,1,37,0,unchosen,17,2,faces,outdoor_scenes,1600,0,3,3
153,32234,0,154,3,3,0,no_gain6,gain5,F,K,19,31,faces,body_parts,76,75,Stimuli/Experimental_stims/faces/joel-mott-LaK153ghdig-unsplash.jpg,Stimuli/Experimental_stims/body_parts/sincerely-media-VN6DbKajo5s-unsplash.jpg,0,1,107,0,chosen,19,31,faces,body_parts,5000,1,3,3
154,32234,0,155,3,3,1,gain5,no_gain5,K,I,42,0,objects,outdoor_scenes,81,94,Stimuli/Experimental_stims/objects/jess-bailey-nOeVi8DsN8U-unsplash.jpg,Stimuli/Experimental_stims/outdoor_scenes/aleksandra-boguslawska-MS7KD9Ti7FQ-unsplash.jpg,0,0,61,0,unchosen,0,42,outdoor_scenes,objects,1500,0,3,3
155,32234,0,156,3,3,0,no_gain4,gain4,H,G,5,8,outdoor_scenes,outdoor_scenes,70,80,Stimuli/Experimental_stims/outdoor_scenes/jeff-king-bJHWJeiHfHc-unsplash.jpg,Stimuli/Experimental_stims/outdoor_scenes/samsommer-vddccTqwal8-unsplash.jpg,0,1,313,0,chosen,5,8,outdoor_scenes,outdoor_scenes,1800,0,3,3
156,32234,0,157,3,3,0,no_gain6,gain1,F,E,19,33,faces,body_parts,76,88,Stimuli/Experimental_stims/faces/joel-mott-LaK153ghdig-unsplash.jpg,Stimuli/Experimental_stims/body_parts/tucker-good-36skLT5jZcc-unsplash.jpg,0,1,2,0,chosen,19,33,faces,body_parts,1900,0,3,3
157,32234,0,158,3,3,1,gain6,no_gain5,D,I,20,0,faces,outdoor_scenes,77,94,Stimuli/Experimental_stims/faces/justin-chen-J7Cf1Gch49E-unsplash.jpg,Stimuli/Experimental_stims/outdoor_scenes/aleksandra-boguslawska-MS7KD9Ti7FQ-unsplash.jpg,0,1,1204,1,unchosen,20,0,faces,outdoor_scenes,2000,0,3,3
158,32234,0,159,3,3,1,gain1,no_gain5,E,I,33,25,body_parts,body_parts,88,71,Stimuli/Experimental_stims/body_parts/tucker-good-36skLT5jZcc-unsplash.jpg,Stimuli/Experimental_stims/body_parts/engin-akyurt-Q2rfH3GW39c-unsplash.jpg,0,0,89,0,chosen,25,33,body_parts,body_parts,1300,0,3,3
159,32234,0,160,3,3,0,no_gain5,gain4,I,G,25,8,body_parts,outdoor_scenes,71,80,Stimuli/Experimental_stims/body_parts/engin-akyurt-Q2rfH3GW39c-unsplash.jpg,Stimuli/Experimental_stims/outdoor_scenes/samsommer-vddccTqwal8-unsplash.jpg,0,0,188,1,chosen,8,25,outdoor_scenes,body_parts,2700,0,3,3
160,32234,0,161,3,3,0,no_gain3,gain4,L,G,35,8,body_parts,outdoor_scenes,33,80,Stimuli/Experimental_stims/body_parts/wc-so-KH4AAPjb-tI-unsplash.jpg,Stimuli/Experimental_stims/outdoor_scenes/samsommer-vddccTqwal8-unsplash.jpg,0,1,783,0,chosen,35,8,body_parts,outdoor_scenes,1600,0,3,3
161,32234,0,162,3,3,1,gain4,no_gain3,G,L,40,18,objects,faces,77,84,Stimuli/Experimental_stims/objects/fabian-blank-pElSkGRA2NU-unsplash.jpg,Stimuli/Experimental_stims/faces/jessica-radanavong-mrYkTuAesKE-unsplash.jpg,0,1,175,1,unchosen,40,18,objects,faces,4000,1,3,3
162,32234,0,163,3,3,0,no_gain1,gain3,C,B,3,23,outdoor_scenes,faces,68,81,Stimuli/Experimental_stims/outdoor_scenes/henry-be-NLF6hTe4PAg-unsplash.jpg,Stimuli/Experimental_stims/faces/rikonavt-HQjfrvdTfak-unsplash.jpg,0,0,119,1,chosen,23,3,faces,outdoor_scenes,1900,0,3,3
163,32234,0,164,3,3,0,no_gain4,gain5,H,K,17,42,faces,objects,84,81,Stimuli/Experimental_stims/faces/good-faces-xmSWVeGEnJw-unsplash.jpg,Stimuli/Experimental_stims/objects/jess-bailey-nOeVi8DsN8U-unsplash.jpg,0,0,273,1,unchosen,42,17,objects,faces,1700,0,3,3
164,32234,0,165,3,3,0,no_gain6,gain4,F,G,19,8,faces,outdoor_scenes,76,80,Stimuli/Experimental_stims/faces/joel-mott-LaK153ghdig-unsplash.jpg,Stimuli/Experimental_stims/outdoor_scenes/samsommer-vddccTqwal8-unsplash.jpg,0,1,1003,0,chosen,19,8,faces,outdoor_scenes,1800,0,3,3
165,32234,0,166,3,3,1,gain5,no_gain3,K,L,31,35,body_parts,body_parts,75,33,Stimuli/Experimental_stims/body_parts/sincerely-media-VN6DbKajo5s-unsplash.jpg,Stimuli/Experimental_stims/body_parts/wc-so-KH4AAPjb-tI-unsplash.jpg,0,1,408,1,chosen,31,35,body_parts,body_parts,1500,0,3,3
166,32234,0,167,3,3,1,gain4,no_gain2,G,A,8,43,outdoor_scenes,objects,80,58,Stimuli/Experimental_stims/outdoor_scenes/samsommer-vddccTqwal8-unsplash.jpg,Stimuli/Experimental_stims/objects/jonathan-greenaway-Y4hGgeiFn3s-unsplash.jpg,0,0,113,0,chosen,43,8,objects,outdoor_scenes,2700,0,3,3
167,32234,0,168,3,3,0,no_gain6,gain6,F,D,34,20,body_parts,faces,86,77,Stimuli/Experimental_stims/body_parts/wagner-santos-mBWMvIuVnso-unsplash.jpg,Stimuli/Experimental_stims/faces/justin-chen-J7Cf1Gch49E-unsplash.jpg,0,0,396,1,unchosen,20,34,faces,body_parts,3600,1,3,3
168,32234,0,169,3,3,0,no_gain2,gain6,A,D,43,45,objects,objects,58,75,Stimuli/Experimental_stims/objects/jonathan-greenaway-Y4hGgeiFn3s-unsplash.jpg,Stimuli/Experimental_stims/objects/leohoho-rngTKHXumy0-unsplash.jpg,0,0,20,1,chosen,45,43,objects,objects,2100,0,3,3
169,32234,0,170,3,3,1,gain5,no_gain6,K,F,42,34,objects,body_parts,81,86,Stimuli/Experimental_stims/objects/jess-bailey-nOeVi8DsN8U-unsplash.jpg,Stimuli/Experimental_stims/body_parts/wagner-santos-mBWMvIuVnso-unsplash.jpg,0,1,224,1,unchosen,42,34,objects,body_parts,2300,0,3,3
170,32234,0,171,3,3,1,gain1,no_gain3,E,L,46,18,objects,faces,82,84,Stimuli/Experimental_stims/objects/mockup-graphics-PNsj6RiHAF4-unsplash.jpg,Stimuli/Experimental_stims/faces/jessica-radanavong-mrYkTuAesKE-unsplash.jpg,0,0,42,0,unchosen,18,46,faces,objects,1400,0,3,3
171,32234,0,172,3,3,1,gain3,no_gain3,B,L,23,35,faces,body_parts,81,33,Stimuli/Experimental_stims/faces/rikonavt-HQjfrvdTfak-unsplash.jpg,Stimuli/Experimental_stims/body_parts/wc-so-KH4AAPjb-tI-unsplash.jpg,0,0,78,0,chosen,35,23,body_parts,faces,1200,0,3,3
172,32234,0,173,3,3,1,gain2,no_gain6,J,F,12,19,faces,faces,80,76,Stimuli/Experimental_stims/faces/aiony-haust-jmATI5Q_YgY-unsplash.jpg,Stimuli/Experimental_stims/faces/joel-mott-LaK153ghdig-unsplash.jpg,0,0,266,0,chosen,19,12,faces,faces,1900,0,3,3
173,32234,0,174,3,3,0,no_gain2,gain4,A,G,9,40,outdoor_scenes,objects,68,77,Stimuli/Experimental_stims/outdoor_scenes/sergey-pesterev-y-b_FOmJXdg-unsplash.jpg,Stimuli/Experimental_stims/objects/fabian-blank-pElSkGRA2NU-unsplash.jpg,0,0,147,1,unchosen,40,9,objects,outdoor_scenes,1800,0,3,3
174,32234,0,175,3,3,1,gain6,no_gain6,D,F,45,19,objects,faces,75,76,Stimuli/Experimental_stims/objects/leohoho-rngTKHXumy0-unsplash.jpg,Stimuli/Experimental_stims/faces/joel-mott-LaK153ghdig-unsplash.jpg,0,0,116,0,chosen,19,45,faces,objects,4100,1,3,3
175,32234,0,176,3,3,0,no_gain5,gain6,I,D,25,45,body_parts,objects,71,75,Stimuli/Experimental_stims/body_parts/engin-akyurt-Q2rfH3GW39c-unsplash.jpg,Stimuli/Experimental_stims/objects/leohoho-rngTKHXumy0-unsplash.jpg,0,1,622,0,chosen,25,45,body_parts,objects,1400,0,3,3
176,32234,0,177,3,3,0,no_gain2,gain6,A,D,9,20,outdoor_scenes,faces,68,77,Stimuli/Experimental_stims/outdoor_scenes/sergey-pesterev-y-b_FOmJXdg-unsplash.jpg,Stimuli/Experimental_stims/faces/justin-chen-J7Cf1Gch49E-unsplash.jpg,0,0,669,1,unchosen,20,9,faces,outdoor_scenes,2200,0,3,3
177,32234,0,178,3,3,1,gain1,no_gain2,E,A,46,9,objects,outdoor_scenes,82,68,Stimuli/Experimental_stims/objects/mockup-graphics-PNsj6RiHAF4-unsplash.jpg,Stimuli/Experimental_stims/outdoor_scenes/sergey-pesterev-y-b_FOmJXdg-unsplash.jpg,0,1,176,1,unchosen,46,9,objects,outdoor_scenes,1400,0,3,3
178,32234,0,179,3,3,1,gain3,no_gain2,B,A,23,43,faces,objects,81,58,Stimuli/Experimental_stims/faces/rikonavt-HQjfrvdTfak-unsplash.jpg,Stimuli/Experimental_stims/objects/jonathan-greenaway-Y4hGgeiFn3s-unsplash.jpg,0,0,739,0,chosen,43,23,objects,faces,1100,0,3,3
179,32234,0,180,3,3,1,gain4,no_gain1,G,C,8,3,outdoor_scenes,outdoor_scenes,80,68,Stimuli/Experimental_stims/outdoor_scenes/samsommer-vddccTqwal8-unsplash.jpg,Stimuli/Experimental_stims/outdoor_scenes/henry-be-NLF6hTe4PAg-unsplash.jpg,0,1,119,1,chosen,8,3,outdoor_scenes,outdoor_scenes,1400,0,3,3
180,32234,0,181,3,3,1,gain1,no_gain4,E,H,46,17,objects,faces,82,84,Stimuli/Experimental_stims/objects/mockup-graphics-PNsj6RiHAF4-unsplash.jpg,Stimuli/Experimental_stims/faces/good-faces-xmSWVeGEnJw-unsplash.jpg,0,1,246,1,unchosen,46,17,objects,faces,1700,0,3,3
181,32234,0,182,3,3,1,gain1,no_gain4,E,H,33,5,body_parts,outdoor_scenes,88,70,Stimuli/Experimental_stims/body_parts/tucker-good-36skLT5jZcc-unsplash.jpg,Stimuli/Experimental_stims/outdoor_scenes/jeff-king-bJHWJeiHfHc-unsplash.jpg,0,0,346,0,chosen,5,33,outdoor_scenes,body_parts,3400,1,3,3
182,32234,0,183,3,3,1,gain3,no_gain5,B,I,23,25,faces,body_parts,81,71,Stimuli/Experimental_stims/faces/rikonavt-HQjfrvdTfak-unsplash.jpg,Stimuli/Experimental_stims/body_parts/engin-akyurt-Q2rfH3GW39c-unsplash.jpg,1,NaN,,NaN,chosen,NaN,NaN,NaN,NaN,1000,0,3,3
183,32234,0,184,3,3,1,gain1,no_gain6,E,F,46,34,objects,body_parts,82,86,Stimuli/Experimental_stims/objects/mockup-graphics-PNsj6RiHAF4-unsplash.jpg,Stimuli/Experimental_stims/body_parts/wagner-santos-mBWMvIuVnso-unsplash.jpg,0,1,127,1,unchosen,46,34,objects,body_parts,1200,0,3,3
184,32234,0,185,3,3,0,no_gain5,gain4,I,G,0,40,outdoor_scenes,objects,94,77,Stimuli/Experimental_stims/outdoor_scenes/aleksandra-boguslawska-MS7KD9Ti7FQ-unsplash.jpg,Stimuli/Experimental_stims/objects/fabian-blank-pElSkGRA2NU-unsplash.jpg,1,NaN,,NaN,unchosen,NaN,NaN,NaN,NaN,1200,0,3,3
185,32234,0,186,3,3,0,no_gain1,gain2,C,J,3,12,outdoor_scenes,faces,68,80,Stimuli/Experimental_stims/outdoor_scenes/henry-be-NLF6hTe4PAg-unsplash.jpg,Stimuli/Experimental_stims/faces/aiony-haust-jmATI5Q_YgY-unsplash.jpg,0,0,167,1,chosen,12,3,faces,outdoor_scenes,2800,0,3,3
186,32234,0,187,3,3,0,no_gain1,gain4,C,G,27,40,body_parts,objects,100,77,Stimuli/Experimental_stims/body_parts/heike-mintel-i_Gns0ELnLw-unsplash.jpg,Stimuli/Experimental_stims/objects/fabian-blank-pElSkGRA2NU-unsplash.jpg,0,0,90,1,unchosen,40,27,objects,body_parts,1200,0,3,3
187,32234,0,188,3,3,0,no_gain6,gain3,F,B,19,23,faces,faces,76,81,Stimuli/Experimental_stims/faces/joel-mott-LaK153ghdig-unsplash.jpg,Stimuli/Experimental_stims/faces/rikonavt-HQjfrvdTfak-unsplash.jpg,0,1,25,0,chosen,19,23,faces,faces,1200,0,3,3
188,32234,0,189,3,3,1,gain2,no_gain2,J,A,12,43,faces,objects,80,58,Stimuli/Experimental_stims/faces/aiony-haust-jmATI5Q_YgY-unsplash.jpg,Stimuli/Experimental_stims/objects/jonathan-greenaway-Y4hGgeiFn3s-unsplash.jpg,0,0,40,0,chosen,43,12,objects,faces,2100,0,3,3
189,32234,0,190,3,3,1,gain2,no_gain6,J,F,37,34,objects,body_parts,68,86,Stimuli/Experimental_stims/objects/alexander-andrews-VLGWE_SumrA-unsplash.jpg,Stimuli/Experimental_stims/body_parts/wagner-santos-mBWMvIuVnso-unsplash.jpg,0,0,24,0,unchosen,34,37,body_parts,objects,3800,1,3,3
190,32234,0,191,3,3,0,no_gain3,gain2,L,J,35,12,body_parts,faces,33,80,Stimuli/Experimental_stims/body_parts/wc-so-KH4AAPjb-tI-unsplash.jpg,Stimuli/Experimental_stims/faces/aiony-haust-jmATI5Q_YgY-unsplash.jpg,0,1,361,0,chosen,35,12,body_parts,faces,2200,0,3,3
191,32234,0,192,3,3,1,gain4,no_gain4,G,H,40,17,objects,faces,77,84,Stimuli/Experimental_stims/objects/fabian-blank-pElSkGRA2NU-unsplash.jpg,Stimuli/Experimental_stims/faces/good-faces-xmSWVeGEnJw-unsplash.jpg,0,1,19,1,unchosen,40,17,objects,faces,2500,0,3,3
192,32234,0,193,3,3,1,gain2,no_gain5,J,I,12,25,faces,body_parts,80,71,Stimuli/Experimental_stims/faces/aiony-haust-jmATI5Q_YgY-unsplash.jpg,Stimuli/Experimental_stims/body_parts/engin-akyurt-Q2rfH3GW39c-unsplash.jpg,0,0,49,0,chosen,25,12,body_parts,faces,1100,0,3,3
193,32234,0,194,3,3,1,gain3,no_gain1,B,C,2,27,outdoor_scenes,body_parts,87,100,Stimuli/Experimental_stims/outdoor_scenes/bruno-van-der-kraan-qez8mNJ3ilU-unsplash.jpg,Stimuli/Experimental_stims/body_parts/heike-mintel-i_Gns0ELnLw-unsplash.jpg,0,1,580,1,unchosen,2,27,outdoor_scenes,body_parts,1800,0,3,3
194,32234,0,195,3,3,1,gain3,no_gain6,B,F,2,34,outdoor_scenes,body_parts,87,86,Stimuli/Experimental_stims/outdoor_scenes/bruno-van-der-kraan-qez8mNJ3ilU-unsplash.jpg,Stimuli/Experimental_stims/body_parts/wagner-santos-mBWMvIuVnso-unsplash.jpg,0,1,678,1,unchosen,2,34,outdoor_scenes,body_parts,3600,1,3,3
195,32234,0,196,3,3,1,gain4,no_gain6,G,F,40,34,objects,body_parts,77,86,Stimuli/Experimental_stims/objects/fabian-blank-pElSkGRA2NU-unsplash.jpg,Stimuli/Experimental_stims/body_parts/wagner-santos-mBWMvIuVnso-unsplash.jpg,0,0,123,0,unchosen,34,40,body_parts,objects,2400,0,3,3
196,32234,0,197,3,3,1,gain1,no_gain1,E,C,33,3,body_parts,outdoor_scenes,88,68,Stimuli/Experimental_stims/body_parts/tucker-good-36skLT5jZcc-unsplash.jpg,Stimuli/Experimental_stims/outdoor_scenes/henry-be-NLF6hTe4PAg-unsplash.jpg,0,1,191,1,chosen,33,3,body_parts,outdoor_scenes,2400,0,3,3
197,32234,0,198,3,3,0,no_gain3,gain2,L,J,18,37,faces,objects,84,68,Stimuli/Experimental_stims/faces/jessica-radanavong-mrYkTuAesKE-unsplash.jpg,Stimuli/Experimental_stims/objects/alexander-andrews-VLGWE_SumrA-unsplash.jpg,0,1,80,0,unchosen,18,37,faces,objects,2200,0,3,3
198,32234,0,199,3,3,1,gain1,no_gain2,E,A,33,43,body_parts,objects,88,58,Stimuli/Experimental_stims/body_parts/tucker-good-36skLT5jZcc-unsplash.jpg,Stimuli/Experimental_stims/objects/jonathan-greenaway-Y4hGgeiFn3s-unsplash.jpg,0,1,285,1,chosen,33,43,body_parts,objects,2800,0,3,3
199,32234,0,200,3,3,0,no_gain2,gain3,A,B,9,2,outdoor_scenes,outdoor_scenes,68,87,Stimuli/Experimental_stims/outdoor_scenes/sergey-pesterev-y-b_FOmJXdg-unsplash.jpg,Stimuli/Experimental_stims/outdoor_scenes/bruno-van-der-kraan-qez8mNJ3ilU-unsplash.jpg,0,0,310,1,unchosen,2,9,outdoor_scenes,outdoor_scenes,1700,0,3,3
200,32234,0,201,3,3,0,no_gain1,gain6,C,D,27,20,body_parts,faces,100,77,Stimuli/Experimental_stims/body_parts/heike-mintel-i_Gns0ELnLw-unsplash.jpg,Stimuli/Experimental_stims/faces/justin-chen-J7Cf1Gch49E-unsplash.jpg,0,0,3,1,unchosen,20,27,faces,body_parts,1100,0,3,3
201,32234,0,202,3,3,0,no_gain4,gain3,H,B,5,23,outdoor_scenes,faces,70,81,Stimuli/Experimental_stims/outdoor_scenes/jeff-king-bJHWJeiHfHc-unsplash.jpg,Stimuli/Experimental_stims/faces/rikonavt-HQjfrvdTfak-unsplash.jpg,0,1,32,0,chosen,5,23,outdoor_scenes,faces,1200,0,3,3
202,32234,0,203,3,3,0,no_gain3,gain5,L,K,18,42,faces,objects,84,81,Stimuli/Experimental_stims/faces/jessica-radanavong-mrYkTuAesKE-unsplash.jpg,Stimuli/Experimental_stims/objects/jess-bailey-nOeVi8DsN8U-unsplash.jpg,0,1,697,0,unchosen,18,42,faces,objects,2700,0,3,3
203,32234,0,204,3,3,0,no_gain1,gain1,C,E,27,46,body_parts,objects,100,82,Stimuli/Experimental_stims/body_parts/heike-mintel-i_Gns0ELnLw-unsplash.jpg,Stimuli/Experimental_stims/objects/mockup-graphics-PNsj6RiHAF4-unsplash.jpg,1,NaN,,NaN,unchosen,NaN,NaN,NaN,NaN,1100,0,3,3
204,32234,0,205,3,3,1,gain5,no_gain5,K,I,31,25,body_parts,body_parts,75,71,Stimuli/Experimental_stims/body_parts/sincerely-media-VN6DbKajo5s-unsplash.jpg,Stimuli/Experimental_stims/body_parts/engin-akyurt-Q2rfH3GW39c-unsplash.jpg,0,1,922,1,chosen,31,25,body_parts,body_parts,1100,0,3,3
205,32234,0,206,3,3,0,no_gain4,gain6,H,D,5,45,outdoor_scenes,objects,70,75,Stimuli/Experimental_stims/outdoor_scenes/jeff-king-bJHWJeiHfHc-unsplash.jpg,Stimuli/Experimental_stims/objects/leohoho-rngTKHXumy0-unsplash.jpg,0,1,128,0,chosen,5,45,outdoor_scenes,objects,1500,0,3,3
206,32234,0,207,3,3,0,no_gain5,gain3,I,B,0,2,outdoor_scenes,outdoor_scenes,94,87,Stimuli/Experimental_stims/outdoor_scenes/aleksandra-boguslawska-MS7KD9Ti7FQ-unsplash.jpg,Stimuli/Experimental_stims/outdoor_scenes/bruno-van-der-kraan-qez8mNJ3ilU-unsplash.jpg,0,0,48,1,unchosen,2,0,outdoor_scenes,outdoor_scenes,1600,0,3,3
207,32234,0,208,3,3,0,no_gain1,gain5,C,K,3,31,outdoor_scenes,body_parts,68,75,Stimuli/Experimental_stims/outdoor_scenes/henry-be-NLF6hTe4PAg-unsplash.jpg,Stimuli/Experimental_stims/body_parts/sincerely-media-VN6DbKajo5s-unsplash.jpg,0,0,94,1,chosen,31,3,body_parts,outdoor_scenes,1500,0,3,3
208,32234,0,209,3,3,1,gain1,no_gain3,E,L,33,35,body_parts,body_parts,88,33,Stimuli/Experimental_stims/body_parts/tucker-good-36skLT5jZcc-unsplash.jpg,Stimuli/Experimental_stims/body_parts/wc-so-KH4AAPjb-tI-unsplash.jpg,0,1,198,1,chosen,33,35,body_parts,body_parts,2800,0,3,3
209,32234,0,210,3,3,1,gain6,no_gain3,D,L,45,35,objects,body_parts,75,33,Stimuli/Experimental_stims/objects/leohoho-rngTKHXumy0-unsplash.jpg,Stimuli/Experimental_stims/body_parts/wc-so-KH4AAPjb-tI-unsplash.jpg,0,1,189,1,chosen,45,35,objects,body_parts,3400,1,3,3
210,32234,0,211,3,3,1,gain2,no_gain4,J,H,37,17,objects,faces,68,84,Stimuli/Experimental_stims/objects/alexander-andrews-VLGWE_SumrA-unsplash.jpg,Stimuli/Experimental_stims/faces/good-faces-xmSWVeGEnJw-unsplash.jpg,0,1,706,1,unchosen,37,17,objects,faces,1500,0,3,3
211,32234,0,212,3,3,1,gain2,no_gain2,J,A,37,9,objects,outdoor_scenes,68,68,Stimuli/Experimental_stims/objects/alexander-andrews-VLGWE_SumrA-unsplash.jpg,Stimuli/Experimental_stims/outdoor_scenes/sergey-pesterev-y-b_FOmJXdg-unsplash.jpg,0,1,954,1,unchosen,37,9,objects,outdoor_scenes,1500,0,3,3
212,32234,0,213,3,3,1,gain6,no_gain1,D,C,45,3,objects,outdoor_scenes,75,68,Stimuli/Experimental_stims/objects/leohoho-rngTKHXumy0-unsplash.jpg,Stimuli/Experimental_stims/outdoor_scenes/henry-be-NLF6hTe4PAg-unsplash.jpg,0,0,1,0,chosen,3,45,outdoor_scenes,objects,1500,0,3,3
213,32234,0,214,3,3,0,no_gain5,gain2,I,J,0,37,outdoor_scenes,objects,94,68,Stimuli/Experimental_stims/outdoor_scenes/aleksandra-boguslawska-MS7KD9Ti7FQ-unsplash.jpg,Stimuli/Experimental_stims/objects/alexander-andrews-VLGWE_SumrA-unsplash.jpg,0,0,188,1,unchosen,37,0,objects,outdoor_scenes,1200,0,3,3
214,32234,0,215,3,3,0,no_gain4,gain5,H,K,5,31,outdoor_scenes,body_parts,70,75,Stimuli/Experimental_stims/outdoor_scenes/jeff-king-bJHWJeiHfHc-unsplash.jpg,Stimuli/Experimental_stims/body_parts/sincerely-media-VN6DbKajo5s-unsplash.jpg,0,1,66,0,chosen,5,31,outdoor_scenes,body_parts,1900,0,3,3
215,32234,0,216,3,3,1,gain6,no_gain4,D,H,20,17,faces,faces,77,84,Stimuli/Experimental_stims/faces/justin-chen-J7Cf1Gch49E-unsplash.jpg,Stimuli/Experimental_stims/faces/good-faces-xmSWVeGEnJw-unsplash.jpg,0,0,407,0,unchosen,17,20,faces,faces,3600,1,3,3
216,32234,0,217,3,3,0,no_gain2,gain5,A,K,9,42,outdoor_scenes,objects,68,81,Stimuli/Experimental_stims/outdoor_scenes/sergey-pesterev-y-b_FOmJXdg-unsplash.jpg,Stimuli/Experimental_stims/objects/jess-bailey-nOeVi8DsN8U-unsplash.jpg,0,1,1149,0,unchosen,9,42,outdoor_scenes,objects,2500,0,3,3
217,32234,0,218,3,3,0,no_gain4,gain2,H,J,5,12,outdoor_scenes,faces,70,80,Stimuli/Experimental_stims/outdoor_scenes/jeff-king-bJHWJeiHfHc-unsplash.jpg,Stimuli/Experimental_stims/faces/aiony-haust-jmATI5Q_YgY-unsplash.jpg,0,1,66,0,chosen,5,12,outdoor_scenes,faces,1600,0,3,3
218,32234,0,219,3,3,1,gain6,no_gain3,D,L,20,18,faces,faces,77,84,Stimuli/Experimental_stims/faces/justin-chen-J7Cf1Gch49E-unsplash.jpg,Stimuli/Experimental_stims/faces/jessica-radanavong-mrYkTuAesKE-unsplash.jpg,0,1,66,1,unchosen,20,18,faces,faces,1200,0,3,3
219,32234,0,220,3,3,0,no_gain1,gain5,C,K,27,42,body_parts,objects,100,81,Stimuli/Experimental_stims/body_parts/heike-mintel-i_Gns0ELnLw-unsplash.jpg,Stimuli/Experimental_stims/objects/jess-bailey-nOeVi8DsN8U-unsplash.jpg,0,0,39,1,unchosen,42,27,objects,body_parts,1300,0,3,3
220,32234,0,221,4,4,0,no_gain6,gain5,F,K,34,42,body_parts,objects,86,81,Stimuli/Experimental_stims/body_parts/wagner-santos-mBWMvIuVnso-unsplash.jpg,Stimuli/Experimental_stims/objects/jess-bailey-nOeVi8DsN8U-unsplash.jpg,0,1,1342,0,unchosen,34,42,body_parts,objects,3300,1,1,3
221,32234,0,222,4,4,0,no_gain4,gain5,H,K,17,42,faces,objects,84,81,Stimuli/Experimental_stims/faces/good-faces-xmSWVeGEnJw-unsplash.jpg,Stimuli/Experimental_stims/objects/jess-bailey-nOeVi8DsN8U-unsplash.jpg,0,1,0,0,unchosen,17,42,faces,objects,1400,0,1,3
222,32234,0,223,4,4,1,gain5,no_gain5,K,I,31,25,body_parts,body_parts,75,71,Stimuli/Experimental_stims/body_parts/sincerely-media-VN6DbKajo5s-unsplash.jpg,Stimuli/Experimental_stims/body_parts/engin-akyurt-Q2rfH3GW39c-unsplash.jpg,0,0,226,0,chosen,25,31,body_parts,body_parts,2400,0,1,3
223,32234,0,224,4,4,0,no_gain3,gain4,L,G,35,8,body_parts,outdoor_scenes,33,80,Stimuli/Experimental_stims/body_parts/wc-so-KH4AAPjb-tI-unsplash.jpg,Stimuli/Experimental_stims/outdoor_scenes/samsommer-vddccTqwal8-unsplash.jpg,0,0,64,1,chosen,8,35,outdoor_scenes,body_parts,1200,0,1,3
224,32234,0,225,4,4,1,gain4,no_gain1,G,C,40,27,objects,body_parts,77,100,Stimuli/Experimental_stims/objects/fabian-blank-pElSkGRA2NU-unsplash.jpg,Stimuli/Experimental_stims/body_parts/heike-mintel-i_Gns0ELnLw-unsplash.jpg,0,1,535,1,unchosen,40,27,objects,body_parts,1100,0,1,3
225,32234,0,226,4,4,0,no_gain1,gain1,C,E,27,46,body_parts,objects,100,82,Stimuli/Experimental_stims/body_parts/heike-mintel-i_Gns0ELnLw-unsplash.jpg,Stimuli/Experimental_stims/objects/mockup-graphics-PNsj6RiHAF4-unsplash.jpg,0,0,72,1,unchosen,46,27,objects,body_parts,1600,0,1,3
226,32234,0,227,4,4,1,gain6,no_gain3,D,L,20,18,faces,faces,77,84,Stimuli/Experimental_stims/faces/justin-chen-J7Cf1Gch49E-unsplash.jpg,Stimuli/Experimental_stims/faces/jessica-radanavong-mrYkTuAesKE-unsplash.jpg,0,0,422,0,unchosen,18,20,faces,faces,3100,1,1,3
227,32234,0,228,4,4,0,no_gain2,gain4,A,G,43,8,objects,outdoor_scenes,58,80,Stimuli/Experimental_stims/objects/jonathan-greenaway-Y4hGgeiFn3s-unsplash.jpg,Stimuli/Experimental_stims/outdoor_scenes/samsommer-vddccTqwal8-unsplash.jpg,0,1,212,0,chosen,43,8,objects,outdoor_scenes,1000,0,1,3
228,32234,0,229,4,4,1,gain6,no_gain5,D,I,45,25,objects,body_parts,75,71,Stimuli/Experimental_stims/objects/leohoho-rngTKHXumy0-unsplash.jpg,Stimuli/Experimental_stims/body_parts/engin-akyurt-Q2rfH3GW39c-unsplash.jpg,0,1,148,1,chosen,45,25,objects,body_parts,3000,0,1,3
229,32234,0,230,4,4,0,no_gain4,gain5,H,K,5,31,outdoor_scenes,body_parts,70,75,Stimuli/Experimental_stims/outdoor_scenes/jeff-king-bJHWJeiHfHc-unsplash.jpg,Stimuli/Experimental_stims/body_parts/sincerely-media-VN6DbKajo5s-unsplash.jpg,0,0,102,1,chosen,31,5,body_parts,outdoor_scenes,1700,0,1,3
230,32234,0,231,4,4,1,gain1,no_gain4,E,H,46,17,objects,faces,82,84,Stimuli/Experimental_stims/objects/mockup-graphics-PNsj6RiHAF4-unsplash.jpg,Stimuli/Experimental_stims/faces/good-faces-xmSWVeGEnJw-unsplash.jpg,0,1,12,1,unchosen,46,17,objects,faces,2400,0,1,3
231,32234,0,232,4,4,0,no_gain6,gain2,F,J,19,12,faces,faces,76,80,Stimuli/Experimental_stims/faces/joel-mott-LaK153ghdig-unsplash.jpg,Stimuli/Experimental_stims/faces/aiony-haust-jmATI5Q_YgY-unsplash.jpg,0,1,224,0,chosen,19,12,faces,faces,4000,1,1,3
232,32234,0,233,4,4,0,no_gain6,gain1,F,E,34,46,body_parts,objects,86,82,Stimuli/Experimental_stims/body_parts/wagner-santos-mBWMvIuVnso-unsplash.jpg,Stimuli/Experimental_stims/objects/mockup-graphics-PNsj6RiHAF4-unsplash.jpg,0,0,284,1,unchosen,46,34,objects,body_parts,1900,0,1,3
233,32234,0,234,4,4,1,gain3,no_gain4,B,H,23,5,faces,outdoor_scenes,81,70,Stimuli/Experimental_stims/faces/rikonavt-HQjfrvdTfak-unsplash.jpg,Stimuli/Experimental_stims/outdoor_scenes/jeff-king-bJHWJeiHfHc-unsplash.jpg,0,1,352,1,chosen,23,5,faces,outdoor_scenes,1100,0,1,3
234,32234,0,235,4,4,1,gain5,no_gain1,K,C,42,27,objects,body_parts,81,100,Stimuli/Experimental_stims/objects/jess-bailey-nOeVi8DsN8U-unsplash.jpg,Stimuli/Experimental_stims/body_parts/heike-mintel-i_Gns0ELnLw-unsplash.jpg,0,1,33,1,unchosen,42,27,objects,body_parts,1300,0,1,3
235,32234,0,236,4,4,0,no_gain4,gain4,H,G,5,8,outdoor_scenes,outdoor_scenes,70,80,Stimuli/Experimental_stims/outdoor_scenes/jeff-king-bJHWJeiHfHc-unsplash.jpg,Stimuli/Experimental_stims/outdoor_scenes/samsommer-vddccTqwal8-unsplash.jpg,0,0,340,1,chosen,8,5,outdoor_scenes,outdoor_scenes,1900,0,1,3
236,32234,0,237,4,4,1,gain4,no_gain4,G,H,40,17,objects,faces,77,84,Stimuli/Experimental_stims/objects/fabian-blank-pElSkGRA2NU-unsplash.jpg,Stimuli/Experimental_stims/faces/good-faces-xmSWVeGEnJw-unsplash.jpg,0,1,505,1,unchosen,40,17,objects,faces,1800,0,1,3
237,32234,0,238,4,4,1,gain4,no_gain5,G,I,40,0,objects,outdoor_scenes,77,94,Stimuli/Experimental_stims/objects/fabian-blank-pElSkGRA2NU-unsplash.jpg,Stimuli/Experimental_stims/outdoor_scenes/aleksandra-boguslawska-MS7KD9Ti7FQ-unsplash.jpg,0,0,8,0,unchosen,0,40,outdoor_scenes,objects,4300,1,1,3
238,32234,0,239,4,4,1,gain5,no_gain5,K,I,42,0,objects,outdoor_scenes,81,94,Stimuli/Experimental_stims/objects/jess-bailey-nOeVi8DsN8U-unsplash.jpg,Stimuli/Experimental_stims/outdoor_scenes/aleksandra-boguslawska-MS7KD9Ti7FQ-unsplash.jpg,0,0,197,0,unchosen,0,42,outdoor_scenes,objects,2300,0,1,3
239,32234,0,240,4,4,1,gain3,no_gain2,B,A,23,43,faces,objects,81,58,Stimuli/Experimental_stims/faces/rikonavt-HQjfrvdTfak-unsplash.jpg,Stimuli/Experimental_stims/objects/jonathan-greenaway-Y4hGgeiFn3s-unsplash.jpg,0,1,322,1,chosen,23,43,faces,objects,1200,0,1,3
240,32234,0,241,4,4,0,no_gain4,gain2,H,J,5,12,outdoor_scenes,faces,70,80,Stimuli/Experimental_stims/outdoor_scenes/jeff-king-bJHWJeiHfHc-unsplash.jpg,Stimuli/Experimental_stims/faces/aiony-haust-jmATI5Q_YgY-unsplash.jpg,0,1,154,0,chosen,5,12,outdoor_scenes,faces,1300,0,1,3
241,32234,0,242,4,4,0,no_gain3,gain1,L,E,18,46,faces,objects,84,82,Stimuli/Experimental_stims/faces/jessica-radanavong-mrYkTuAesKE-unsplash.jpg,Stimuli/Experimental_stims/objects/mockup-graphics-PNsj6RiHAF4-unsplash.jpg,0,0,34,1,unchosen,46,18,objects,faces,1900,0,1,3
242,32234,0,243,4,4,1,gain3,no_gain6,B,F,2,34,outdoor_scenes,body_parts,87,86,Stimuli/Experimental_stims/outdoor_scenes/bruno-van-der-kraan-qez8mNJ3ilU-unsplash.jpg,Stimuli/Experimental_stims/body_parts/wagner-santos-mBWMvIuVnso-unsplash.jpg,0,0,77,0,unchosen,34,2,body_parts,outdoor_scenes,1300,0,1,3
243,32234,0,244,4,4,1,gain4,no_gain1,G,C,8,3,outdoor_scenes,outdoor_scenes,80,68,Stimuli/Experimental_stims/outdoor_scenes/samsommer-vddccTqwal8-unsplash.jpg,Stimuli/Experimental_stims/outdoor_scenes/henry-be-NLF6hTe4PAg-unsplash.jpg,0,1,132,1,chosen,8,3,outdoor_scenes,outdoor_scenes,4200,1,1,3
244,32234,0,245,4,4,0,no_gain2,gain5,A,K,9,42,outdoor_scenes,objects,68,81,Stimuli/Experimental_stims/outdoor_scenes/sergey-pesterev-y-b_FOmJXdg-unsplash.jpg,Stimuli/Experimental_stims/objects/jess-bailey-nOeVi8DsN8U-unsplash.jpg,0,0,281,1,unchosen,42,9,objects,outdoor_scenes,2400,0,1,3
245,32234,0,246,4,4,1,gain2,no_gain2,J,A,12,43,faces,objects,80,58,Stimuli/Experimental_stims/faces/aiony-haust-jmATI5Q_YgY-unsplash.jpg,Stimuli/Experimental_stims/objects/jonathan-greenaway-Y4hGgeiFn3s-unsplash.jpg,0,1,144,1,chosen,12,43,faces,objects,1700,0,1,3
246,32234,0,247,4,4,0,no_gain1,gain5,C,K,3,31,outdoor_scenes,body_parts,68,75,Stimuli/Experimental_stims/outdoor_scenes/henry-be-NLF6hTe4PAg-unsplash.jpg,Stimuli/Experimental_stims/body_parts/sincerely-media-VN6DbKajo5s-unsplash.jpg,0,1,136,0,chosen,3,31,outdoor_scenes,body_parts,1600,0,1,3
247,32234,0,248,4,4,1,gain3,no_gain5,B,I,2,0,outdoor_scenes,outdoor_scenes,87,94,Stimuli/Experimental_stims/outdoor_scenes/bruno-van-der-kraan-qez8mNJ3ilU-unsplash.jpg,Stimuli/Experimental_stims/outdoor_scenes/aleksandra-boguslawska-MS7KD9Ti7FQ-unsplash.jpg,0,1,162,1,unchosen,2,0,outdoor_scenes,outdoor_scenes,1100,0,1,3
248,32234,0,249,4,4,0,no_gain2,gain1,A,E,9,46,outdoor_scenes,objects,68,82,Stimuli/Experimental_stims/outdoor_scenes/sergey-pesterev-y-b_FOmJXdg-unsplash.jpg,Stimuli/Experimental_stims/objects/mockup-graphics-PNsj6RiHAF4-unsplash.jpg,0,0,1,1,unchosen,46,9,objects,outdoor_scenes,1200,0,1,3
249,32234,0,250,4,4,1,gain6,no_gain3,D,L,45,35,objects,body_parts,75,33,Stimuli/Experimental_stims/objects/leohoho-rngTKHXumy0-unsplash.jpg,Stimuli/Experimental_stims/body_parts/wc-so-KH4AAPjb-tI-unsplash.jpg,0,1,221,1,chosen,45,35,objects,body_parts,3100,1,1,3
250,32234,0,251,4,4,1,gain3,no_gain6,B,F,23,19,faces,faces,81,76,Stimuli/Experimental_stims/faces/rikonavt-HQjfrvdTfak-unsplash.jpg,Stimuli/Experimental_stims/faces/joel-mott-LaK153ghdig-unsplash.jpg,0,1,284,1,chosen,23,19,faces,faces,2600,0,1,3
251,32234,0,252,4,4,0,no_gain1,gain6,C,D,27,20,body_parts,faces,100,77,Stimuli/Experimental_stims/body_parts/heike-mintel-i_Gns0ELnLw-unsplash.jpg,Stimuli/Experimental_stims/faces/justin-chen-J7Cf1Gch49E-unsplash.jpg,1,NaN,,NaN,unchosen,NaN,NaN,NaN,NaN,2400,0,1,3
252,32234,0,253,4,4,1,gain2,no_gain3,J,L,37,18,objects,faces,68,84,Stimuli/Experimental_stims/objects/alexander-andrews-VLGWE_SumrA-unsplash.jpg,Stimuli/Experimental_stims/faces/jessica-radanavong-mrYkTuAesKE-unsplash.jpg,1,NaN,,NaN,unchosen,NaN,NaN,NaN,NaN,1000,0,1,3
253,32234,0,254,4,4,0,no_gain6,gain4,F,G,19,8,faces,outdoor_scenes,76,80,Stimuli/Experimental_stims/faces/joel-mott-LaK153ghdig-unsplash.jpg,Stimuli/Experimental_stims/outdoor_scenes/samsommer-vddccTqwal8-unsplash.jpg,0,1,50,0,chosen,19,8,faces,outdoor_scenes,3000,0,1,3
254,32234,0,255,4,4,0,no_gain4,gain1,H,E,5,33,outdoor_scenes,body_parts,70,88,Stimuli/Experimental_stims/outdoor_scenes/jeff-king-bJHWJeiHfHc-unsplash.jpg,Stimuli/Experimental_stims/body_parts/tucker-good-36skLT5jZcc-unsplash.jpg,0,1,4,0,chosen,5,33,outdoor_scenes,body_parts,2400,0,1,3
255,32234,0,256,4,4,0,no_gain2,gain3,A,B,9,2,outdoor_scenes,outdoor_scenes,68,87,Stimuli/Experimental_stims/outdoor_scenes/sergey-pesterev-y-b_FOmJXdg-unsplash.jpg,Stimuli/Experimental_stims/outdoor_scenes/bruno-van-der-kraan-qez8mNJ3ilU-unsplash.jpg,0,1,106,0,unchosen,9,2,outdoor_scenes,outdoor_scenes,2300,0,1,3
256,32234,0,257,4,4,1,gain3,no_gain3,B,L,23,35,faces,body_parts,81,33,Stimuli/Experimental_stims/faces/rikonavt-HQjfrvdTfak-unsplash.jpg,Stimuli/Experimental_stims/body_parts/wc-so-KH4AAPjb-tI-unsplash.jpg,1,NaN,,NaN,chosen,NaN,NaN,NaN,NaN,1900,0,1,3
257,32234,0,258,4,4,1,gain4,no_gain2,G,A,40,9,objects,outdoor_scenes,77,68,Stimuli/Experimental_stims/objects/fabian-blank-pElSkGRA2NU-unsplash.jpg,Stimuli/Experimental_stims/outdoor_scenes/sergey-pesterev-y-b_FOmJXdg-unsplash.jpg,0,1,38,1,unchosen,40,9,objects,outdoor_scenes,3200,1,1,3
258,32234,0,259,4,4,0,no_gain4,gain6,H,D,17,20,faces,faces,84,77,Stimuli/Experimental_stims/faces/good-faces-xmSWVeGEnJw-unsplash.jpg,Stimuli/Experimental_stims/faces/justin-chen-J7Cf1Gch49E-unsplash.jpg,0,1,47,0,unchosen,17,20,faces,faces,1000,0,1,3
259,32234,0,260,4,4,1,gain5,no_gain3,K,L,31,35,body_parts,body_parts,75,33,Stimuli/Experimental_stims/body_parts/sincerely-media-VN6DbKajo5s-unsplash.jpg,Stimuli/Experimental_stims/body_parts/wc-so-KH4AAPjb-tI-unsplash.jpg,0,1,4,1,chosen,31,35,body_parts,body_parts,1200,0,1,3
260,32234,0,261,4,4,0,no_gain5,gain4,I,G,25,8,body_parts,outdoor_scenes,71,80,Stimuli/Experimental_stims/body_parts/engin-akyurt-Q2rfH3GW39c-unsplash.jpg,Stimuli/Experimental_stims/outdoor_scenes/samsommer-vddccTqwal8-unsplash.jpg,0,1,12,0,chosen,25,8,body_parts,outdoor_scenes,2700,0,1,3
261,32234,0,262,4,4,0,no_gain1,gain1,C,E,3,33,outdoor_scenes,body_parts,68,88,Stimuli/Experimental_stims/outdoor_scenes/henry-be-NLF6hTe4PAg-unsplash.jpg,Stimuli/Experimental_stims/body_parts/tucker-good-36skLT5jZcc-unsplash.jpg,0,0,31,1,chosen,33,3,body_parts,outdoor_scenes,1300,0,1,3
262,32234,0,263,4,4,0,no_gain1,gain2,C,J,27,37,body_parts,objects,100,68,Stimuli/Experimental_stims/body_parts/heike-mintel-i_Gns0ELnLw-unsplash.jpg,Stimuli/Experimental_stims/objects/alexander-andrews-VLGWE_SumrA-unsplash.jpg,0,1,213,0,unchosen,27,37,body_parts,objects,1500,0,1,3
263,32234,0,264,4,4,1,gain3,no_gain5,B,I,23,25,faces,body_parts,81,71,Stimuli/Experimental_stims/faces/rikonavt-HQjfrvdTfak-unsplash.jpg,Stimuli/Experimental_stims/body_parts/engin-akyurt-Q2rfH3GW39c-unsplash.jpg,0,0,28,0,chosen,25,23,body_parts,faces,3700,1,1,3
264,32234,0,265,4,4,0,no_gain2,gain5,A,K,43,31,objects,body_parts,58,75,Stimuli/Experimental_stims/objects/jonathan-greenaway-Y4hGgeiFn3s-unsplash.jpg,Stimuli/Experimental_stims/body_parts/sincerely-media-VN6DbKajo5s-unsplash.jpg,0,1,214,0,chosen,43,31,objects,body_parts,1000,0,1,3
265,32234,0,266,4,4,1,gain4,no_gain6,G,F,40,34,objects,body_parts,77,86,Stimuli/Experimental_stims/objects/fabian-blank-pElSkGRA2NU-unsplash.jpg,Stimuli/Experimental_stims/body_parts/wagner-santos-mBWMvIuVnso-unsplash.jpg,0,1,135,1,unchosen,40,34,objects,body_parts,1700,0,1,3
266,32234,0,267,4,4,1,gain4,no_gain3,G,L,40,18,objects,faces,77,84,Stimuli/Experimental_stims/objects/fabian-blank-pElSkGRA2NU-unsplash.jpg,Stimuli/Experimental_stims/faces/jessica-radanavong-mrYkTuAesKE-unsplash.jpg,0,1,100,1,unchosen,40,18,objects,faces,1100,0,1,3
267,32234,0,268,4,4,0,no_gain4,gain3,H,B,17,2,faces,outdoor_scenes,84,87,Stimuli/Experimental_stims/faces/good-faces-xmSWVeGEnJw-unsplash.jpg,Stimuli/Experimental_stims/outdoor_scenes/bruno-van-der-kraan-qez8mNJ3ilU-unsplash.jpg,1,NaN,,NaN,unchosen,NaN,NaN,NaN,NaN,1200,0,1,3
268,32234,0,269,4,4,1,gain5,no_gain6,K,F,31,19,body_parts,faces,75,76,Stimuli/Experimental_stims/body_parts/sincerely-media-VN6DbKajo5s-unsplash.jpg,Stimuli/Experimental_stims/faces/joel-mott-LaK153ghdig-unsplash.jpg,0,1,154,1,chosen,31,19,body_parts,faces,1300,0,1,3
269,32234,0,270,4,4,1,gain6,no_gain1,D,C,45,3,objects,outdoor_scenes,75,68,Stimuli/Experimental_stims/objects/leohoho-rngTKHXumy0-unsplash.jpg,Stimuli/Experimental_stims/outdoor_scenes/henry-be-NLF6hTe4PAg-unsplash.jpg,0,1,212,1,chosen,45,3,objects,outdoor_scenes,1700,0,1,3
270,32234,0,271,4,4,1,gain2,no_gain2,J,A,37,9,objects,outdoor_scenes,68,68,Stimuli/Experimental_stims/objects/alexander-andrews-VLGWE_SumrA-unsplash.jpg,Stimuli/Experimental_stims/outdoor_scenes/sergey-pesterev-y-b_FOmJXdg-unsplash.jpg,0,0,109,0,unchosen,9,37,outdoor_scenes,objects,3400,1,1,3
271,32234,0,272,4,4,0,no_gain5,gain6,I,D,0,20,outdoor_scenes,faces,94,77,Stimuli/Experimental_stims/outdoor_scenes/aleksandra-boguslawska-MS7KD9Ti7FQ-unsplash.jpg,Stimuli/Experimental_stims/faces/justin-chen-J7Cf1Gch49E-unsplash.jpg,0,0,52,1,unchosen,20,0,faces,outdoor_scenes,2500,0,1,3
272,32234,0,273,4,4,1,gain2,no_gain1,J,C,12,3,faces,outdoor_scenes,80,68,Stimuli/Experimental_stims/faces/aiony-haust-jmATI5Q_YgY-unsplash.jpg,Stimuli/Experimental_stims/outdoor_scenes/henry-be-NLF6hTe4PAg-unsplash.jpg,0,1,932,1,chosen,12,3,faces,outdoor_scenes,2600,0,1,3
273,32234,0,274,4,4,1,gain2,no_gain6,J,F,37,34,objects,body_parts,68,86,Stimuli/Experimental_stims/objects/alexander-andrews-VLGWE_SumrA-unsplash.jpg,Stimuli/Experimental_stims/body_parts/wagner-santos-mBWMvIuVnso-unsplash.jpg,0,0,31,0,unchosen,34,37,body_parts,objects,2000,0,1,3
274,32234,0,275,4,4,0,no_gain1,gain3,C,B,3,23,outdoor_scenes,faces,68,81,Stimuli/Experimental_stims/outdoor_scenes/henry-be-NLF6hTe4PAg-unsplash.jpg,Stimuli/Experimental_stims/faces/rikonavt-HQjfrvdTfak-unsplash.jpg,0,1,108,0,chosen,3,23,outdoor_scenes,faces,1900,0,1,3
275,32234,0,276,4,4,0,no_gain2,gain6,A,D,9,20,outdoor_scenes,faces,68,77,Stimuli/Experimental_stims/outdoor_scenes/sergey-pesterev-y-b_FOmJXdg-unsplash.jpg,Stimuli/Experimental_stims/faces/justin-chen-J7Cf1Gch49E-unsplash.jpg,0,1,17,0,unchosen,9,20,outdoor_scenes,faces,1500,0,1,3
276,32234,0,277,4,4,1,gain2,no_gain5,J,I,37,0,objects,outdoor_scenes,68,94,Stimuli/Experimental_stims/objects/alexander-andrews-VLGWE_SumrA-unsplash.jpg,Stimuli/Experimental_stims/outdoor_scenes/aleksandra-boguslawska-MS7KD9Ti7FQ-unsplash.jpg,0,1,378,1,unchosen,37,0,objects,outdoor_scenes,2500,0,1,3
277,32234,0,278,4,4,0,no_gain6,gain6,F,D,19,45,faces,objects,76,75,Stimuli/Experimental_stims/faces/joel-mott-LaK153ghdig-unsplash.jpg,Stimuli/Experimental_stims/objects/leohoho-rngTKHXumy0-unsplash.jpg,0,0,90,1,chosen,45,19,objects,faces,1400,0,1,3
278,32234,0,279,4,4,0,no_gain3,gain2,L,J,35,12,body_parts,faces,33,80,Stimuli/Experimental_stims/body_parts/wc-so-KH4AAPjb-tI-unsplash.jpg,Stimuli/Experimental_stims/faces/aiony-haust-jmATI5Q_YgY-unsplash.jpg,0,0,139,1,chosen,12,35,faces,body_parts,1300,0,1,3
279,32234,0,280,4,4,1,gain6,no_gain6,D,F,20,34,faces,body_parts,77,86,Stimuli/Experimental_stims/faces/justin-chen-J7Cf1Gch49E-unsplash.jpg,Stimuli/Experimental_stims/body_parts/wagner-santos-mBWMvIuVnso-unsplash.jpg,0,1,39,1,unchosen,20,34,faces,body_parts,1100,0,1,3
280,32234,0,281,4,4,1,gain6,no_gain2,D,A,45,43,objects,objects,75,58,Stimuli/Experimental_stims/objects/leohoho-rngTKHXumy0-unsplash.jpg,Stimuli/Experimental_stims/objects/jonathan-greenaway-Y4hGgeiFn3s-unsplash.jpg,0,1,101,1,chosen,45,43,objects,objects,1100,0,1,3
281,32234,0,282,4,4,1,gain2,no_gain5,J,I,12,25,faces,body_parts,80,71,Stimuli/Experimental_stims/faces/aiony-haust-jmATI5Q_YgY-unsplash.jpg,Stimuli/Experimental_stims/body_parts/engin-akyurt-Q2rfH3GW39c-unsplash.jpg,0,1,95,1,chosen,12,25,faces,body_parts,3900,1,1,3
282,32234,0,283,4,4,1,gain2,no_gain4,J,H,37,17,objects,faces,68,84,Stimuli/Experimental_stims/objects/alexander-andrews-VLGWE_SumrA-unsplash.jpg,Stimuli/Experimental_stims/faces/good-faces-xmSWVeGEnJw-unsplash.jpg,0,1,568,1,unchosen,37,17,objects,faces,1200,0,1,3
283,32234,0,284,4,4,0,no_gain4,gain6,H,D,5,45,outdoor_scenes,objects,70,75,Stimuli/Experimental_stims/outdoor_scenes/jeff-king-bJHWJeiHfHc-unsplash.jpg,Stimuli/Experimental_stims/objects/leohoho-rngTKHXumy0-unsplash.jpg,0,1,18,0,chosen,5,45,outdoor_scenes,objects,1800,0,1,3
284,32234,0,285,4,4,0,no_gain1,gain3,C,B,27,2,body_parts,outdoor_scenes,100,87,Stimuli/Experimental_stims/body_parts/heike-mintel-i_Gns0ELnLw-unsplash.jpg,Stimuli/Experimental_stims/outdoor_scenes/bruno-van-der-kraan-qez8mNJ3ilU-unsplash.jpg,0,1,49,0,unchosen,27,2,body_parts,outdoor_scenes,1900,0,1,3
285,32234,0,286,4,4,1,gain1,no_gain3,E,L,33,35,body_parts,body_parts,88,33,Stimuli/Experimental_stims/body_parts/tucker-good-36skLT5jZcc-unsplash.jpg,Stimuli/Experimental_stims/body_parts/wc-so-KH4AAPjb-tI-unsplash.jpg,0,1,51,1,chosen,33,35,body_parts,body_parts,1100,0,1,3
286,32234,0,287,4,4,0,no_gain3,gain3,L,B,18,2,faces,outdoor_scenes,84,87,Stimuli/Experimental_stims/faces/jessica-radanavong-mrYkTuAesKE-unsplash.jpg,Stimuli/Experimental_stims/outdoor_scenes/bruno-van-der-kraan-qez8mNJ3ilU-unsplash.jpg,0,1,1,0,unchosen,18,2,faces,outdoor_scenes,3000,0,1,3
287,32234,0,288,4,4,0,no_gain5,gain1,I,E,0,46,outdoor_scenes,objects,94,82,Stimuli/Experimental_stims/outdoor_scenes/aleksandra-boguslawska-MS7KD9Ti7FQ-unsplash.jpg,Stimuli/Experimental_stims/objects/mockup-graphics-PNsj6RiHAF4-unsplash.jpg,0,1,163,0,unchosen,0,46,outdoor_scenes,objects,2800,0,1,3
288,32234,0,289,4,4,0,no_gain3,gain5,L,K,18,42,faces,objects,84,81,Stimuli/Experimental_stims/faces/jessica-radanavong-mrYkTuAesKE-unsplash.jpg,Stimuli/Experimental_stims/objects/jess-bailey-nOeVi8DsN8U-unsplash.jpg,0,0,43,1,unchosen,42,18,objects,faces,1600,0,1,3
289,32234,0,290,4,4,0,no_gain6,gain1,F,E,19,33,faces,body_parts,76,88,Stimuli/Experimental_stims/faces/joel-mott-LaK153ghdig-unsplash.jpg,Stimuli/Experimental_stims/body_parts/tucker-good-36skLT5jZcc-unsplash.jpg,0,0,1,1,chosen,33,19,body_parts,faces,1800,0,1,3
290,32234,0,291,4,4,0,no_gain2,gain1,A,E,43,33,objects,body_parts,58,88,Stimuli/Experimental_stims/objects/jonathan-greenaway-Y4hGgeiFn3s-unsplash.jpg,Stimuli/Experimental_stims/body_parts/tucker-good-36skLT5jZcc-unsplash.jpg,0,1,238,0,chosen,43,33,objects,body_parts,1900,0,1,3
291,32234,0,292,4,4,1,gain1,no_gain5,E,I,33,25,body_parts,body_parts,88,71,Stimuli/Experimental_stims/body_parts/tucker-good-36skLT5jZcc-unsplash.jpg,Stimuli/Experimental_stims/body_parts/engin-akyurt-Q2rfH3GW39c-unsplash.jpg,0,1,38,1,chosen,33,25,body_parts,body_parts,1700,0,1,3