,PID,practice,trial,block,run,gain_left,left_item_id,right_item_id,left_pair_id,right_pair_id,left_stimulus,right_stimulus,left_category,right_category,left_rating,right_rating,left_path,right_path,no_response,left_chosen,rt,higher_outcome_chosen,choice_type,chosen_stimulus,unchosen_stimulus,chosen_category,unchosen_category,iti,long_iti,simulation,version
0,47210,1,1,0,0,0,,,,,,,,,,,Stimuli/Practice_stims/Final_decisions/debby-hudson-FmCSSSGge-0-unsplash.jpg,Stimuli/Practice_stims/Final_decisions/yassine-khalfalli-adsQ9d_Cx0c-unsplash.jpg,0,0,839,1,,,,,,3000,0,9,3
1,47210,1,2,0,0,0,,,,,,,,,,,Stimuli/Practice_stims/Final_decisions/florian-wehde-iVW7mZPwd4g-unsplash.jpg,Stimuli/Practice_stims/Final_decisions/patrick-perkins-3wylDrjxH-E-unsplash.jpg,0,1,983,0,,,,,,1500,0,9,3
2,47210,1,3,0,0,0,,,,,,,,,,,Stimuli/Practice_stims/Final_decisions/debby-hudson-FmCSSSGge-0-unsplash.jpg,Stimuli/Practice_stims/Final_decisions/florian-wehde-iVW7mZPwd4g-unsplash.jpg,0,1,1335,0,,,,,,2000,0,9,3
3,47210,1,4,0,0,0,,,,,,,,,,,Stimuli/Practice_stims/Final_decisions/yassine-khalfalli-adsQ9d_Cx0c-unsplash.jpg,Stimuli/Practice_stims/Final_decisions/debby-hudson-FmCSSSGge-0-unsplash.jpg,0,0,828,1,,,,,,1000,0,9,3
4,47210,0,5,1,1,1,gain5,no_gain5,C,L,5,16,outdoor_scenes,faces,95,32,Stimuli/Experimental_stims/outdoor_scenes/jeff-king-bJHWJeiHfHc-unsplash.jpg,Stimuli/Experimental_stims/faces/freddy-kearney-o-ioeoATbIM-unsplash.jpg,0,1,1431,1,unchosen,5,16,outdoor_scenes,faces,4700,1,9,3
5,47210,0,6,1,1,1,gain3,no_gain2,K,G,46,6,objects,outdoor_scenes,91,89,Stimuli/Experimental_stims/objects/mockup-graphics-PNsj6RiHAF4-unsplash.jpg,Stimuli/Experimental_stims/outdoor_scenes/meng-ji-8BH_M-53CyA-unsplash.jpg,0,1,1014,1,unchosen,46,6,objects,outdoor_scenes,2300,0,9,3
6,47210,0,7,1,1,1,gain1,no_gain2,F,G,13,6,faces,outdoor_scenes,81,89,Stimuli/Experimental_stims/faces/daniel-rigdon-dXmXKPP2L4E-unsplash.jpg,Stimuli/Experimental_stims/outdoor_scenes/meng-ji-8BH_M-53CyA-unsplash.jpg,0,1,882,1,unchosen,13,6,faces,outdoor_scenes,1100,0,9,3
7,47210,0,8,1,1,0,no_gain4,gain5,E,C,31,30,body_parts,body_parts,75,65,Stimuli/Experimental_stims/body_parts/sincerely-media-VN6DbKajo5s-unsplash.jpg,Stimuli/Experimental_stims/body_parts/mika-korhonen-Xodzxosar18-unsplash.jpg,0,0,1204,1,chosen,30,31,body_parts,body_parts,1600,0,9,3
8,47210,0,9,1,1,0,no_gain5,gain1,L,F,16,13,faces,faces,32,81,Stimuli/Experimental_stims/faces/freddy-kearney-o-ioeoATbIM-unsplash.jpg,Stimuli/Experimental_stims/faces/daniel-rigdon-dXmXKPP2L4E-unsplash.jpg,1,NaN,,NaN,unchosen,NaN,NaN,NaN,NaN,2300,0,9,3
9,47210,0,10,1,1,0,no_gain4,gain1,E,F,31,28,body_parts,body_parts,75,86,Stimuli/Experimental_stims/body_parts/sincerely-media-VN6DbKajo5s-unsplash.jpg,Stimuli/Experimental_stims/body_parts/ira-vishnevskaya-8DQAvdCby1I-unsplash.jpg,0,1,633,0,chosen,31,28,body_parts,body_parts,1500,0,9,3
10,47210,0,11,1,1,1,gain1,no_gain3,F,I,28,24,body_parts,body_parts,86,77,Stimuli/Experimental_stims/body_parts/ira-vishnevskaya-8DQAvdCby1I-unsplash.jpg,Stimuli/Experimental_stims/body_parts/clay-banks-LjqARJaJotc-unsplash.jpg,0,0,1286,0,chosen,24,28,body_parts,body_parts,1500,0,9,3
11,47210,0,12,1,1,0,no_gain1,gain1,A,F,41,28,objects,body_parts,91,86,Stimuli/Experimental_stims/objects/insung-yoon-w2JtIQQXoRU-unsplash.jpg,Stimuli/Experimental_stims/body_parts/ira-vishnevskaya-8DQAvdCby1I-unsplash.jpg,0,1,981,0,chosen,41,28,objects,body_parts,1200,0,9,3
12,47210,0,13,1,1,1,gain6,no_gain1,B,A,23,1,faces,outdoor_scenes,39,70,Stimuli/Experimental_stims/faces/rikonavt-HQjfrvdTfak-unsplash.jpg,Stimuli/Experimental_stims/outdoor_scenes/ashim-d-silva-S2Q5mdOrrVc-unsplash.jpg,0,1,951,1,unchosen,23,1,faces,outdoor_scenes,1300,0,9,3
13,47210,0,14,1,1,0,no_gain1,gain4,A,D,41,36,objects,objects,91,77,Stimuli/Experimental_stims/objects/insung-yoon-w2JtIQQXoRU-unsplash.jpg,Stimuli/Experimental_stims/objects/alexander-andrews-JYGnB9gTCls-unsplash.jpg,0,1,1171,0,chosen,41,36,objects,objects,1200,0,9,3
14,47210,0,15,1,1,1,gain6,no_gain4,B,E,23,38,faces,objects,39,63,Stimuli/Experimental_stims/faces/rikonavt-HQjfrvdTfak-unsplash.jpg,Stimuli/Experimental_stims/objects/art-lasovsky-8XddFc6NkBY-unsplash.jpg,0,0,1376,0,unchosen,38,23,objects,faces,4100,1,9,3
15,47210,0,16,1,1,1,gain4,no_gain4,D,E,14,38,faces,objects,53,63,Stimuli/Experimental_stims/faces/david-siglin-UuW4psOb388-unsplash.jpg,Stimuli/Experimental_stims/objects/art-lasovsky-8XddFc6NkBY-unsplash.jpg,0,0,1135,0,unchosen,38,14,objects,faces,1200,0,9,3
16,47210,0,17,1,1,1,gain5,no_gain6,C,H,30,0,body_parts,outdoor_scenes,65,85,Stimuli/Experimental_stims/body_parts/mika-korhonen-Xodzxosar18-unsplash.jpg,Stimuli/Experimental_stims/outdoor_scenes/aleksandra-boguslawska-MS7KD9Ti7FQ-unsplash.jpg,1,NaN,,NaN,chosen,NaN,NaN,NaN,NaN,1200,0,9,3
17,47210,0,18,1,1,0,no_gain3,gain3,I,K,8,46,outdoor_scenes,objects,43,91,Stimuli/Experimental_stims/outdoor_scenes/samsommer-vddccTqwal8-unsplash.jpg,Stimuli/Experimental_stims/objects/mockup-graphics-PNsj6RiHAF4-unsplash.jpg,0,0,1158,1,unchosen,46,8,objects,outdoor_scenes,1600,0,9,3
18,47210,0,19,1,1,0,no_gain4,gain3,E,K,31,25,body_parts,body_parts,75,42,Stimuli/Experimental_stims/body_parts/sincerely-media-VN6DbKajo5s-unsplash.jpg,Stimuli/Experimental_stims/body_parts/engin-akyurt-Q2rfH3GW39c-unsplash.jpg,0,1,720,0,chosen,31,25,body_parts,body_parts,1400,0,9,3
19,47210,0,20,1,1,0,no_gain2,gain2,G,J,6,45,outdoor_scenes,objects,89,92,Stimuli/Experimental_stims/outdoor_scenes/meng-ji-8BH_M-53CyA-unsplash.jpg,Stimuli/Experimental_stims/objects/leohoho-rngTKHXumy0-unsplash.jpg,0,0,1124,1,unchosen,45,6,objects,outdoor_scenes,4300,1,9,3
20,47210,0,21,1,1,1,gain2,no_gain4,J,E,19,31,faces,body_parts,76,75,Stimuli/Experimental_stims/faces/joel-mott-LaK153ghdig-unsplash.jpg,Stimuli/Experimental_stims/body_parts/sincerely-media-VN6DbKajo5s-unsplash.jpg,0,1,945,1,chosen,19,31,faces,body_parts,1500,0,9,3
21,47210,0,22,1,1,1,gain2,no_gain5,J,L,19,35,faces,body_parts,76,62,Stimuli/Experimental_stims/faces/joel-mott-LaK153ghdig-unsplash.jpg,Stimuli/Experimental_stims/body_parts/wc-so-KH4AAPjb-tI-unsplash.jpg,0,1,848,1,chosen,19,35,faces,body_parts,1400,0,9,3
22,47210,0,23,1,1,1,gain4,no_gain2,D,G,14,6,faces,outdoor_scenes,53,89,Stimuli/Experimental_stims/faces/david-siglin-UuW4psOb388-unsplash.jpg,Stimuli/Experimental_stims/outdoor_scenes/meng-ji-8BH_M-53CyA-unsplash.jpg,0,0,925,0,unchosen,6,14,outdoor_scenes,faces,1300,0,9,3
23,47210,0,24,1,1,1,gain2,no_gain6,J,H,45,17,objects,faces,92,68,Stimuli/Experimental_stims/objects/leohoho-rngTKHXumy0-unsplash.jpg,Stimuli/Experimental_stims/faces/good-faces-xmSWVeGEnJw-unsplash.jpg,0,1,1002,1,unchosen,45,17,objects,faces,1000,0,9,3
24,47210,0,25,1,1,0,no_gain1,gain5,A,C,41,30,objects,body_parts,91,65,Stimuli/Experimental_stims/objects/insung-yoon-w2JtIQQXoRU-unsplash.jpg,Stimuli/Experimental_stims/body_parts/mika-korhonen-Xodzxosar18-unsplash.jpg,0,1,826,0,chosen,41,30,objects,body_parts,3100,1,9,3
25,47210,0,26,1,1,1,gain2,no_gain1,J,A,19,41,faces,objects,76,91,Stimuli/Experimental_stims/faces/joel-mott-LaK153ghdig-unsplash.jpg,Stimuli/Experimental_stims/objects/insung-yoon-w2JtIQQXoRU-unsplash.jpg,0,1,759,1,chosen,19,41,faces,objects,2700,0,9,3
26,47210,0,27,1,1,1,gain2,no_gain2,J,G,19,44,faces,objects,76,83,Stimuli/Experimental_stims/faces/joel-mott-LaK153ghdig-unsplash.jpg,Stimuli/Experimental_stims/objects/kuiye-chen-NuOGFo4PudE-unsplash.jpg,0,1,813,1,chosen,19,44,faces,objects,1400,0,9,3
27,47210,0,28,1,1,1,gain4,no_gain3,D,I,14,8,faces,outdoor_scenes,53,43,Stimuli/Experimental_stims/faces/david-siglin-UuW4psOb388-unsplash.jpg,Stimuli/Experimental_stims/outdoor_scenes/samsommer-vddccTqwal8-unsplash.jpg,0,0,927,0,unchosen,8,14,outdoor_scenes,faces,1100,0,9,3
28,47210,0,29,1,1,0,no_gain1,gain3,A,K,1,46,outdoor_scenes,objects,70,91,Stimuli/Experimental_stims/outdoor_scenes/ashim-d-silva-S2Q5mdOrrVc-unsplash.jpg,Stimuli/Experimental_stims/objects/mockup-graphics-PNsj6RiHAF4-unsplash.jpg,0,0,889,1,unchosen,46,1,objects,outdoor_scenes,1900,0,9,3
29,47210,0,30,1,1,1,gain6,no_gain4,B,E,11,31,outdoor_scenes,body_parts,86,75,Stimuli/Experimental_stims/outdoor_scenes/stephen-leonardi-gyIRjKPXupE-unsplash.jpg,Stimuli/Experimental_stims/body_parts/sincerely-media-VN6DbKajo5s-unsplash.jpg,1,NaN,,NaN,chosen,NaN,NaN,NaN,NaN,1200,0,9,3
30,47210,0,31,1,1,1,gain5,no_gain3,C,I,30,24,body_parts,body_parts,65,77,Stimuli/Experimental_stims/body_parts/mika-korhonen-Xodzxosar18-unsplash.jpg,Stimuli/Experimental_stims/body_parts/clay-banks-LjqARJaJotc-unsplash.jpg,0,0,876,0,chosen,24,30,body_parts,body_parts,2300,0,9,3
31,47210,0,32,1,1,0,no_gain3,gain5,I,C,8,5,outdoor_scenes,outdoor_scenes,43,95,Stimuli/Experimental_stims/outdoor_scenes/samsommer-vddccTqwal8-unsplash.jpg,Stimuli/Experimental_stims/outdoor_scenes/jeff-king-bJHWJeiHfHc-unsplash.jpg,0,0,1241,1,unchosen,5,8,outdoor_scenes,outdoor_scenes,2000,0,9,3
32,47210,0,33,1,1,1,gain6,no_gain6,B,H,11,0,outdoor_scenes,outdoor_scenes,86,85,Stimuli/Experimental_stims/outdoor_scenes/stephen-leonardi-gyIRjKPXupE-unsplash.jpg,Stimuli/Experimental_stims/outdoor_scenes/aleksandra-boguslawska-MS7KD9Ti7FQ-unsplash.jpg,0,0,1003,0,chosen,0,11,outdoor_scenes,outdoor_scenes,2000,0,9,3
33,47210,0,34,1,1,0,no_gain6,gain6,H,B,17,23,faces,faces,68,39,Stimuli/Experimental_stims/faces/good-faces-xmSWVeGEnJw-unsplash.jpg,Stimuli/Experimental_stims/faces/rikonavt-HQjfrvdTfak-unsplash.jpg,0,0,1290,1,unchosen,23,17,faces,faces,1300,0,9,3
34,47210,0,35,1,1,0,no_gain6,gain1,H,F,17,13,faces,faces,68,81,Stimuli/Experimental_stims/faces/good-faces-xmSWVeGEnJw-unsplash.jpg,Stimuli/Experimental_stims/faces/daniel-rigdon-dXmXKPP2L4E-unsplash.jpg,0,1,969,0,unchosen,17,13,faces,faces,3100,1,9,3
35,47210,0,36,1,1,0,no_gain3,gain2,I,J,24,19,body_parts,faces,77,76,Stimuli/Experimental_stims/body_parts/clay-banks-LjqARJaJotc-unsplash.jpg,Stimuli/Experimental_stims/faces/joel-mott-LaK153ghdig-unsplash.jpg,0,0,1406,1,chosen,19,24,faces,body_parts,2600,0,9,3
36,47210,0,37,1,1,0,no_gain6,gain4,H,D,17,14,faces,faces,68,53,Stimuli/Experimental_stims/faces/good-faces-xmSWVeGEnJw-unsplash.jpg,Stimuli/Experimental_stims/faces/david-siglin-UuW4psOb388-unsplash.jpg,0,0,860,1,unchosen,14,17,faces,faces,1200,0,9,3
37,47210,0,38,1,1,1,gain4,no_gain5,D,L,14,16,faces,faces,53,32,Stimuli/Experimental_stims/faces/david-siglin-UuW4psOb388-unsplash.jpg,Stimuli/Experimental_stims/faces/freddy-kearney-o-ioeoATbIM-unsplash.jpg,0,0,773,0,unchosen,16,14,faces,faces,1700,0,9,3
38,47210,0,39,1,1,1,gain2,no_gain5,J,L,45,16,objects,faces,92,32,Stimuli/Experimental_stims/objects/leohoho-rngTKHXumy0-unsplash.jpg,Stimuli/Experimental_stims/faces/freddy-kearney-o-ioeoATbIM-unsplash.jpg,0,1,1478,1,unchosen,45,16,objects,faces,1600,0,9,3
39,47210,0,40,1,1,0,no_gain1,gain3,A,K,41,25,objects,body_parts,91,42,Stimuli/Experimental_stims/objects/insung-yoon-w2JtIQQXoRU-unsplash.jpg,Stimuli/Experimental_stims/body_parts/engin-akyurt-Q2rfH3GW39c-unsplash.jpg,0,1,940,0,chosen,41,25,objects,body_parts,4400,1,9,3
40,47210,0,41,1,1,1,gain1,no_gain5,F,L,28,35,body_parts,body_parts,86,62,Stimuli/Experimental_stims/body_parts/ira-vishnevskaya-8DQAvdCby1I-unsplash.jpg,Stimuli/Experimental_stims/body_parts/wc-so-KH4AAPjb-tI-unsplash.jpg,1,NaN,,NaN,chosen,NaN,NaN,NaN,NaN,1600,0,9,3
41,47210,0,42,1,1,0,no_gain4,gain3,E,K,38,46,objects,objects,63,91,Stimuli/Experimental_stims/objects/art-lasovsky-8XddFc6NkBY-unsplash.jpg,Stimuli/Experimental_stims/objects/mockup-graphics-PNsj6RiHAF4-unsplash.jpg,0,0,812,1,unchosen,46,38,objects,objects,1700,0,9,3
42,47210,0,43,1,1,1,gain6,no_gain2,B,G,11,44,outdoor_scenes,objects,86,83,Stimuli/Experimental_stims/outdoor_scenes/stephen-leonardi-gyIRjKPXupE-unsplash.jpg,Stimuli/Experimental_stims/objects/kuiye-chen-NuOGFo4PudE-unsplash.jpg,0,0,1051,0,chosen,44,11,objects,outdoor_scenes,1900,0,9,3
43,47210,0,44,1,1,1,gain4,no_gain4,D,E,36,31,objects,body_parts,77,75,Stimuli/Experimental_stims/objects/alexander-andrews-JYGnB9gTCls-unsplash.jpg,Stimuli/Experimental_stims/body_parts/sincerely-media-VN6DbKajo5s-unsplash.jpg,0,0,1218,0,chosen,31,36,body_parts,objects,1900,0,9,3
44,47210,0,45,1,1,0,no_gain4,gain1,E,F,38,13,objects,faces,63,81,Stimuli/Experimental_stims/objects/art-lasovsky-8XddFc6NkBY-unsplash.jpg,Stimuli/Experimental_stims/faces/daniel-rigdon-dXmXKPP2L4E-unsplash.jpg,0,1,755,0,unchosen,38,13,objects,faces,2000,0,9,3
45,47210,0,46,1,1,0,no_gain2,gain1,G,F,44,28,objects,body_parts,83,86,Stimuli/Experimental_stims/objects/kuiye-chen-NuOGFo4PudE-unsplash.jpg,Stimuli/Experimental_stims/body_parts/ira-vishnevskaya-8DQAvdCby1I-unsplash.jpg,0,1,1258,0,chosen,44,28,objects,body_parts,2200,0,9,3
46,47210,0,47,1,1,0,no_gain5,gain5,L,C,35,30,body_parts,body_parts,62,65,Stimuli/Experimental_stims/body_parts/wc-so-KH4AAPjb-tI-unsplash.jpg,Stimuli/Experimental_stims/body_parts/mika-korhonen-Xodzxosar18-unsplash.jpg,0,1,953,0,chosen,35,30,body_parts,body_parts,3000,0,9,3
47,47210,0,48,1,1,0,no_gain2,gain3,G,K,44,25,objects,body_parts,83,42,Stimuli/Experimental_stims/objects/kuiye-chen-NuOGFo4PudE-unsplash.jpg,Stimuli/Experimental_stims/body_parts/engin-akyurt-Q2rfH3GW39c-unsplash.jpg,0,1,903,0,chosen,44,25,objects,body_parts,4200,1,9,3
48,47210,0,49,1,1,0,no_gain6,gain3,H,K,17,46,faces,objects,68,91,Stimuli/Experimental_stims/faces/good-faces-xmSWVeGEnJw-unsplash.jpg,Stimuli/Experimental_stims/objects/mockup-graphics-PNsj6RiHAF4-unsplash.jpg,0,0,839,1,unchosen,46,17,objects,faces,2100,0,9,3
49,47210,0,50,1,1,0,no_gain5,gain4,L,D,35,36,body_parts,objects,62,77,Stimuli/Experimental_stims/body_parts/wc-so-KH4AAPjb-tI-unsplash.jpg,Stimuli/Experimental_stims/objects/alexander-andrews-JYGnB9gTCls-unsplash.jpg,0,1,1325,0,chosen,35,36,body_parts,objects,1800,0,9,3
50,47210,0,51,1,1,1,gain3,no_gain5,K,L,25,35,body_parts,body_parts,42,62,Stimuli/Experimental_stims/body_parts/engin-akyurt-Q2rfH3GW39c-unsplash.jpg,Stimuli/Experimental_stims/body_parts/wc-so-KH4AAPjb-tI-unsplash.jpg,0,0,1053,0,chosen,35,25,body_parts,body_parts,2400,0,9,3
51,47210,0,52,1,1,0,no_gain4,gain2,E,J,38,45,objects,objects,63,92,Stimuli/Experimental_stims/objects/art-lasovsky-8XddFc6NkBY-unsplash.jpg,Stimuli/Experimental_stims/objects/leohoho-rngTKHXumy0-unsplash.jpg,0,0,1029,1,unchosen,45,38,objects,objects,1100,0,9,3
52,47210,0,53,1,1,0,no_gain2,gain5,G,C,44,30,objects,body_parts,83,65,Stimuli/Experimental_stims/objects/kuiye-chen-NuOGFo4PudE-unsplash.jpg,Stimuli/Experimental_stims/body_parts/mika-korhonen-Xodzxosar18-unsplash.jpg,0,0,956,1,chosen,30,44,body_parts,objects,1100,0,9,3
53,47210,0,54,1,1,0,no_gain2,gain6,G,B,6,23,outdoor_scenes,faces,89,39,Stimuli/Experimental_stims/outdoor_scenes/meng-ji-8BH_M-53CyA-unsplash.jpg,Stimuli/Experimental_stims/faces/rikonavt-HQjfrvdTfak-unsplash.jpg,0,1,1067,0,unchosen,6,23,outdoor_scenes,faces,1100,0,9,3
54,47210,0,55,1,1,1,gain6,no_gain3,B,I,11,24,outdoor_scenes,body_parts,86,77,Stimuli/Experimental_stims/outdoor_scenes/stephen-leonardi-gyIRjKPXupE-unsplash.jpg,Stimuli/Experimental_stims/body_parts/clay-banks-LjqARJaJotc-unsplash.jpg,0,0,898,0,chosen,24,11,body_parts,outdoor_scenes,3900,1,9,3
55,47210,0,56,1,1,0,no_gain1,gain5,A,C,1,5,outdoor_scenes,outdoor_scenes,70,95,Stimuli/Experimental_stims/outdoor_scenes/ashim-d-silva-S2Q5mdOrrVc-unsplash.jpg,Stimuli/Experimental_stims/outdoor_scenes/jeff-king-bJHWJeiHfHc-unsplash.jpg,0,1,824,0,unchosen,1,5,outdoor_scenes,outdoor_scenes,2100,0,9,3
56,47210,0,57,1,1,1,gain5,no_gain4,C,E,5,38,outdoor_scenes,objects,95,63,Stimuli/Experimental_stims/outdoor_scenes/jeff-king-bJHWJeiHfHc-unsplash.jpg,Stimuli/Experimental_stims/objects/art-lasovsky-8XddFc6NkBY-unsplash.jpg,0,0,742,0,unchosen,38,5,objects,outdoor_scenes,1000,0,9,3
57,47210,0,58,1,1,0,no_gain1,gain4,A,D,1,14,outdoor_scenes,faces,70,53,Stimuli/Experimental_stims/outdoor_scenes/ashim-d-silva-S2Q5mdOrrVc-unsplash.jpg,Stimuli/Experimental_stims/faces/david-siglin-UuW4psOb388-unsplash.jpg,0,1,949,0,unchosen,1,14,outdoor_scenes,faces,1200,0,9,3
58,47210,0,59,1,1,1,gain3,no_gain6,K,H,25,0,body_parts,outdoor_scenes,42,85,Stimuli/Experimental_stims/body_parts/engin-akyurt-Q2rfH3GW39c-unsplash.jpg,Stimuli/Experimental_stims/outdoor_scenes/aleksandra-boguslawska-MS7KD9Ti7FQ-unsplash.jpg,0,0,921,0,chosen,0,25,outdoor_scenes,body_parts,1300,0,9,3
59,47210,0,60,1,1,1,gain4,no_gain6,D,H,36,0,objects,outdoor_scenes,77,85,Stimuli/Experimental_stims/objects/alexander-andrews-JYGnB9gTCls-unsplash.jpg,Stimuli/Experimental_stims/outdoor_scenes/aleksandra-boguslawska-MS7KD9Ti7FQ-unsplash.jpg,0,0,1159,0,chosen,0,36,outdoor_scenes,objects,1300,0,9,3
60,47210,0,61,1,1,1,gain2,no_gain1,J,A,45,1,objects,outdoor_scenes,92,70,Stimuli/Experimental_stims/objects/leohoho-rngTKHXumy0-unsplash.jpg,Stimuli/Experimental_stims/outdoor_scenes/ashim-d-silva-S2Q5mdOrrVc-unsplash.jpg,0,1,848,1,unchosen,45,1,objects,outdoor_scenes,3300,1,9,3
61,47210,0,62,1,1,1,gain2,no_gain3,J,I,45,8,objects,outdoor_scenes,92,43,Stimuli/Experimental_stims/objects/leohoho-rngTKHXumy0-unsplash.jpg,Stimuli/Experimental_stims/outdoor_scenes/samsommer-vddccTqwal8-unsplash.jpg,0,1,1073,1,unchosen,45,8,objects,outdoor_scenes,1100,0,9,3
62,47210,0,63,1,1,0,no_gain5,gain6,L,B,35,11,body_parts,outdoor_scenes,62,86,Stimuli/Experimental_stims/body_parts/wc-so-KH4AAPjb-tI-unsplash.jpg,Stimuli/Experimental_stims/outdoor_scenes/stephen-leonardi-gyIRjKPXupE-unsplash.jpg,0,1,1004,0,chosen,35,11,body_parts,outdoor_scenes,1400,0,9,3
63,47210,0,64,1,1,0,no_gain2,gain4,G,D,44,36,objects,objects,83,77,Stimuli/Experimental_stims/objects/kuiye-chen-NuOGFo4PudE-unsplash.jpg,Stimuli/Experimental_stims/objects/alexander-andrews-JYGnB9gTCls-unsplash.jpg,0,1,1330,0,chosen,44,36,objects,objects,1400,0,9,3
64,47210,0,65,1,1,0,no_gain3,gain3,I,K,24,25,body_parts,body_parts,77,42,Stimuli/Experimental_stims/body_parts/clay-banks-LjqARJaJotc-unsplash.jpg,Stimuli/Experimental_stims/body_parts/engin-akyurt-Q2rfH3GW39c-unsplash.jpg,0,1,841,0,chosen,24,25,body_parts,body_parts,2700,0,9,3
65,47210,0,66,1,1,0,no_gain6,gain5,H,C,17,5,faces,outdoor_scenes,68,95,Stimuli/Experimental_stims/faces/good-faces-xmSWVeGEnJw-unsplash.jpg,Stimuli/Experimental_stims/outdoor_scenes/jeff-king-bJHWJeiHfHc-unsplash.jpg,0,0,973,1,unchosen,5,17,outdoor_scenes,faces,1500,0,9,3
66,47210,0,67,1,1,1,gain3,no_gain5,K,L,46,16,objects,faces,91,32,Stimuli/Experimental_stims/objects/mockup-graphics-PNsj6RiHAF4-unsplash.jpg,Stimuli/Experimental_stims/faces/freddy-kearney-o-ioeoATbIM-unsplash.jpg,0,1,1106,1,unchosen,46,16,objects,faces,3700,1,9,3
67,47210,0,68,1,1,0,no_gain1,gain1,A,F,1,13,outdoor_scenes,faces,70,81,Stimuli/Experimental_stims/outdoor_scenes/ashim-d-silva-S2Q5mdOrrVc-unsplash.jpg,Stimuli/Experimental_stims/faces/daniel-rigdon-dXmXKPP2L4E-unsplash.jpg,0,0,1057,1,unchosen,13,1,faces,outdoor_scenes,2600,0,9,3
68,47210,0,69,1,1,1,gain4,no_gain3,D,I,36,24,objects,body_parts,77,77,Stimuli/Experimental_stims/objects/alexander-andrews-JYGnB9gTCls-unsplash.jpg,Stimuli/Experimental_stims/body_parts/clay-banks-LjqARJaJotc-unsplash.jpg,0,0,898,0,chosen,24,36,body_parts,objects,1600,0,9,3
69,47210,0,70,1,1,1,gain6,no_gain3,B,I,23,8,faces,outdoor_scenes,39,43,Stimuli/Experimental_stims/faces/rikonavt-HQjfrvdTfak-unsplash.jpg,Stimuli/Experimental_stims/outdoor_scenes/samsommer-vddccTqwal8-unsplash.jpg,0,0,903,0,unchosen,8,23,outdoor_scenes,faces,1100,0,9,3
70,47210,0,71,1,1,0,no_gain6,gain2,H,J,0,19,outdoor_scenes,faces,85,76,Stimuli/Experimental_stims/outdoor_scenes/aleksandra-boguslawska-MS7KD9Ti7FQ-unsplash.jpg,Stimuli/Experimental_stims/faces/joel-mott-LaK153ghdig-unsplash.jpg,0,0,1077,1,chosen,19,0,faces,outdoor_scenes,1600,0,9,3
71,47210,0,72,1,1,0,no_gain6,gain1,H,F,0,28,outdoor_scenes,body_parts,85,86,Stimuli/Experimental_stims/outdoor_scenes/aleksandra-boguslawska-MS7KD9Ti7FQ-unsplash.jpg,Stimuli/Experimental_stims/body_parts/ira-vishnevskaya-8DQAvdCby1I-unsplash.jpg,1,NaN,,NaN,chosen,NaN,NaN,NaN,NaN,4400,1,9,3
72,47210,0,73,1,1,1,gain6,no_gain1,B,A,11,41,outdoor_scenes,objects,86,91,Stimuli/Experimental_stims/outdoor_scenes/stephen-leonardi-gyIRjKPXupE-unsplash.jpg,Stimuli/Experimental_stims/objects/insung-yoon-w2JtIQQXoRU-unsplash.jpg,0,0,645,0,chosen,41,11,objects,outdoor_scenes,1100,0,9,3
73,47210,0,74,1,1,0,no_gain5,gain6,L,B,16,23,faces,faces,32,39,Stimuli/Experimental_stims/faces/freddy-kearney-o-ioeoATbIM-unsplash.jpg,Stimuli/Experimental_stims/faces/rikonavt-HQjfrvdTfak-unsplash.jpg,0,1,724,0,unchosen,16,23,faces,faces,1700,0,9,3
74,47210,0,75,1,1,1,gain5,no_gain2,C,G,5,6,outdoor_scenes,outdoor_scenes,95,89,Stimuli/Experimental_stims/outdoor_scenes/jeff-king-bJHWJeiHfHc-unsplash.jpg,Stimuli/Experimental_stims/outdoor_scenes/meng-ji-8BH_M-53CyA-unsplash.jpg,0,0,649,0,unchosen,6,5,outdoor_scenes,outdoor_scenes,2500,0,9,3
75,47210,0,76,1,1,1,gain1,no_gain3,F,I,13,8,faces,outdoor_scenes,81,43,Stimuli/Experimental_stims/faces/daniel-rigdon-dXmXKPP2L4E-unsplash.jpg,Stimuli/Experimental_stims/outdoor_scenes/samsommer-vddccTqwal8-unsplash.jpg,0,1,582,1,unchosen,13,8,faces,outdoor_scenes,2100,0,9,3
76,47210,0,77,2,2,0,no_gain2,gain4,G,D,6,14,outdoor_scenes,faces,89,53,Stimuli/Experimental_stims/outdoor_scenes/meng-ji-8BH_M-53CyA-unsplash.jpg,Stimuli/Experimental_stims/faces/david-siglin-UuW4psOb388-unsplash.jpg,1,NaN,,NaN,unchosen,NaN,NaN,NaN,NaN,3800,1,9,3
77,47210,0,78,2,2,0,no_gain6,gain5,H,C,0,30,outdoor_scenes,body_parts,85,65,Stimuli/Experimental_stims/outdoor_scenes/aleksandra-boguslawska-MS7KD9Ti7FQ-unsplash.jpg,Stimuli/Experimental_stims/body_parts/mika-korhonen-Xodzxosar18-unsplash.jpg,0,1,736,0,chosen,0,30,outdoor_scenes,body_parts,1200,0,9,3
78,47210,0,79,2,2,0,no_gain5,gain5,L,C,35,30,body_parts,body_parts,62,65,Stimuli/Experimental_stims/body_parts/wc-so-KH4AAPjb-tI-unsplash.jpg,Stimuli/Experimental_stims/body_parts/mika-korhonen-Xodzxosar18-unsplash.jpg,0,0,679,1,chosen,30,35,body_parts,body_parts,1200,0,9,3
79,47210,0,80,2,2,0,no_gain6,gain3,H,K,17,46,faces,objects,68,91,Stimuli/Experimental_stims/faces/good-faces-xmSWVeGEnJw-unsplash.jpg,Stimuli/Experimental_stims/objects/mockup-graphics-PNsj6RiHAF4-unsplash.jpg,0,1,650,0,unchosen,17,46,faces,objects,2700,0,9,3
80,47210,0,81,2,2,0,no_gain2,gain6,G,B,44,11,objects,outdoor_scenes,83,86,Stimuli/Experimental_stims/objects/kuiye-chen-NuOGFo4PudE-unsplash.jpg,Stimuli/Experimental_stims/outdoor_scenes/stephen-leonardi-gyIRjKPXupE-unsplash.jpg,0,0,616,1,chosen,11,44,outdoor_scenes,objects,2900,0,9,3
81,47210,0,82,2,2,1,gain6,no_gain4,B,E,23,38,faces,objects,39,63,Stimuli/Experimental_stims/faces/rikonavt-HQjfrvdTfak-unsplash.jpg,Stimuli/Experimental_stims/objects/art-lasovsky-8XddFc6NkBY-unsplash.jpg,0,0,983,0,unchosen,38,23,objects,faces,1400,0,9,3
82,47210,0,83,2,2,1,gain2,no_gain1,J,A,19,41,faces,objects,76,91,Stimuli/Experimental_stims/faces/joel-mott-LaK153ghdig-unsplash.jpg,Stimuli/Experimental_stims/objects/insung-yoon-w2JtIQQXoRU-unsplash.jpg,0,1,977,1,chosen,19,41,faces,objects,1100,0,9,3
83,47210,0,84,2,2,0,no_gain5,gain3,L,K,35,25,body_parts,body_parts,62,42,Stimuli/Experimental_stims/body_parts/wc-so-KH4AAPjb-tI-unsplash.jpg,Stimuli/Experimental_stims/body_parts/engin-akyurt-Q2rfH3GW39c-unsplash.jpg,0,1,854,0,chosen,35,25,body_parts,body_parts,2400,0,9,3
84,47210,0,85,2,2,1,gain6,no_gain3,B,I,23,8,faces,outdoor_scenes,39,43,Stimuli/Experimental_stims/faces/rikonavt-HQjfrvdTfak-unsplash.jpg,Stimuli/Experimental_stims/outdoor_scenes/samsommer-vddccTqwal8-unsplash.jpg,0,1,834,1,unchosen,23,8,faces,outdoor_scenes,2400,0,9,3
85,47210,0,86,2,2,1,gain5,no_gain1,C,A,30,41,body_parts,objects,65,91,Stimuli/Experimental_stims/body_parts/mika-korhonen-Xodzxosar18-unsplash.jpg,Stimuli/Experimental_stims/objects/insung-yoon-w2JtIQQXoRU-unsplash.jpg,0,1,775,1,chosen,30,41,body_parts,objects,1400,0,9,3
86,47210,0,87,2,2,0,no_gain3,gain1,I,F,24,28,body_parts,body_parts,77,86,Stimuli/Experimental_stims/body_parts/clay-banks-LjqARJaJotc-unsplash.jpg,Stimuli/Experimental_stims/body_parts/ira-vishnevskaya-8DQAvdCby1I-unsplash.jpg,0,0,1053,1,chosen,28,24,body_parts,body_parts,3000,1,9,3
87,47210,0,88,2,2,0,no_gain5,gain1,L,F,16,13,faces,faces,32,81,Stimuli/Experimental_stims/faces/freddy-kearney-o-ioeoATbIM-unsplash.jpg,Stimuli/Experimental_stims/faces/daniel-rigdon-dXmXKPP2L4E-unsplash.jpg,0,1,776,0,unchosen,16,13,faces,faces,1000,0,9,3
88,47210,0,89,2,2,0,no_gain5,gain4,L,D,16,14,faces,faces,32,53,Stimuli/Experimental_stims/faces/freddy-kearney-o-ioeoATbIM-unsplash.jpg,Stimuli/Experimental_stims/faces/david-siglin-UuW4psOb388-unsplash.jpg,0,0,707,1,unchosen,14,16,faces,faces,1100,0,9,3
89,47210,0,90,2,2,0,no_gain3,gain2,I,J,8,45,outdoor_scenes,objects,43,92,Stimuli/Experimental_stims/outdoor_scenes/samsommer-vddccTqwal8-unsplash.jpg,Stimuli/Experimental_stims/objects/leohoho-rngTKHXumy0-unsplash.jpg,0,1,725,0,unchosen,8,45,outdoor_scenes,objects,2200,0,9,3
90,47210,0,91,2,2,1,gain1,no_gain6,F,H,28,0,body_parts,outdoor_scenes,86,85,Stimuli/Experimental_stims/body_parts/ira-vishnevskaya-8DQAvdCby1I-unsplash.jpg,Stimuli/Experimental_stims/outdoor_scenes/aleksandra-boguslawska-MS7KD9Ti7FQ-unsplash.jpg,0,0,657,0,chosen,0,28,outdoor_scenes,body_parts,1600,0,9,3
91,47210,0,92,2,2,1,gain2,no_gain6,J,H,45,17,objects,faces,92,68,Stimuli/Experimental_stims/objects/leohoho-rngTKHXumy0-unsplash.jpg,Stimuli/Experimental_stims/faces/good-faces-xmSWVeGEnJw-unsplash.jpg,1,NaN,,NaN,unchosen,NaN,NaN,NaN,NaN,3200,1,9,3
92,47210,0,93,2,2,0,no_gain5,gain6,L,B,16,23,faces,faces,32,39,Stimuli/Experimental_stims/faces/freddy-kearney-o-ioeoATbIM-unsplash.jpg,Stimuli/Experimental_stims/faces/rikonavt-HQjfrvdTfak-unsplash.jpg,0,0,917,1,unchosen,23,16,faces,faces,2100,0,9,3
93,47210,0,94,2,2,1,gain3,no_gain3,K,I,46,8,objects,outdoor_scenes,91,43,Stimuli/Experimental_stims/objects/mockup-graphics-PNsj6RiHAF4-unsplash.jpg,Stimuli/Experimental_stims/outdoor_scenes/samsommer-vddccTqwal8-unsplash.jpg,0,1,719,1,unchosen,46,8,objects,outdoor_scenes,1100,0,9,3
94,47210,0,95,2,2,0,no_gain2,gain3,G,K,44,25,objects,body_parts,83,42,Stimuli/Experimental_stims/objects/kuiye-chen-NuOGFo4PudE-unsplash.jpg,Stimuli/Experimental_stims/body_parts/engin-akyurt-Q2rfH3GW39c-unsplash.jpg,0,1,723,0,chosen,44,25,objects,body_parts,2800,0,9,3
95,47210,0,96,2,2,1,gain1,no_gain4,F,E,13,38,faces,objects,81,63,Stimuli/Experimental_stims/faces/daniel-rigdon-dXmXKPP2L4E-unsplash.jpg,Stimuli/Experimental_stims/objects/art-lasovsky-8XddFc6NkBY-unsplash.jpg,0,1,616,1,unchosen,13,38,faces,objects,1100,0,9,3
96,47210,0,97,2,2,0,no_gain3,gain4,I,D,24,36,body_parts,objects,77,77,Stimuli/Experimental_stims/body_parts/clay-banks-LjqARJaJotc-unsplash.jpg,Stimuli/Experimental_stims/objects/alexander-andrews-JYGnB9gTCls-unsplash.jpg,0,1,717,0,chosen,24,36,body_parts,objects,4900,1,9,3
97,47210,0,98,2,2,1,gain3,no_gain3,K,I,25,24,body_parts,body_parts,42,77,Stimuli/Experimental_stims/body_parts/engin-akyurt-Q2rfH3GW39c-unsplash.jpg,Stimuli/Experimental_stims/body_parts/clay-banks-LjqARJaJotc-unsplash.jpg,0,0,1482,0,chosen,24,25,body_parts,body_parts,1200,0,9,3
98,47210,0,99,2,2,0,no_gain5,gain5,L,C,16,5,faces,outdoor_scenes,32,95,Stimuli/Experimental_stims/faces/freddy-kearney-o-ioeoATbIM-unsplash.jpg,Stimuli/Experimental_stims/outdoor_scenes/jeff-king-bJHWJeiHfHc-unsplash.jpg,0,0,1132,1,unchosen,5,16,outdoor_scenes,faces,1200,0,9,3
99,47210,0,100,2,2,1,gain4,no_gain5,D,L,36,35,objects,body_parts,77,62,Stimuli/Experimental_stims/objects/alexander-andrews-JYGnB9gTCls-unsplash.jpg,Stimuli/Experimental_stims/body_parts/wc-so-KH4AAPjb-tI-unsplash.jpg,0,0,880,0,chosen,35,36,body_parts,objects,1900,0,9,3
100,47210,0,101,2,2,0,no_gain6,gain4,H,D,0,36,outdoor_scenes,objects,85,77,Stimuli/Experimental_stims/outdoor_scenes/aleksandra-boguslawska-MS7KD9Ti7FQ-unsplash.jpg,Stimuli/Experimental_stims/objects/alexander-andrews-JYGnB9gTCls-unsplash.jpg,0,1,697,0,chosen,0,36,outdoor_scenes,objects,1500,0,9,3
101,47210,0,102,2,2,0,no_gain5,gain2,L,J,16,45,faces,objects,32,92,Stimuli/Experimental_stims/faces/freddy-kearney-o-ioeoATbIM-unsplash.jpg,Stimuli/Experimental_stims/objects/leohoho-rngTKHXumy0-unsplash.jpg,0,0,831,1,unchosen,45,16,objects,faces,1600,0,9,3
102,47210,0,103,2,2,0,no_gain5,gain6,L,B,35,11,body_parts,outdoor_scenes,62,86,Stimuli/Experimental_stims/body_parts/wc-so-KH4AAPjb-tI-unsplash.jpg,Stimuli/Experimental_stims/outdoor_scenes/stephen-leonardi-gyIRjKPXupE-unsplash.jpg,0,1,867,0,chosen,35,11,body_parts,outdoor_scenes,1500,0,9,3
103,47210,0,104,2,2,1,gain4,no_gain3,D,I,14,8,faces,outdoor_scenes,53,43,Stimuli/Experimental_stims/faces/david-siglin-UuW4psOb388-unsplash.jpg,Stimuli/Experimental_stims/outdoor_scenes/samsommer-vddccTqwal8-unsplash.jpg,0,1,722,1,unchosen,14,8,faces,outdoor_scenes,2000,0,9,3
104,47210,0,105,2,2,1,gain2,no_gain4,J,E,19,31,faces,body_parts,76,75,Stimuli/Experimental_stims/faces/joel-mott-LaK153ghdig-unsplash.jpg,Stimuli/Experimental_stims/body_parts/sincerely-media-VN6DbKajo5s-unsplash.jpg,0,1,708,1,chosen,19,31,faces,body_parts,2000,0,9,3
105,47210,0,106,2,2,0,no_gain2,gain1,G,F,44,28,objects,body_parts,83,86,Stimuli/Experimental_stims/objects/kuiye-chen-NuOGFo4PudE-unsplash.jpg,Stimuli/Experimental_stims/body_parts/ira-vishnevskaya-8DQAvdCby1I-unsplash.jpg,0,1,600,0,chosen,44,28,objects,body_parts,3400,1,9,3
106,47210,0,107,2,2,1,gain1,no_gain6,F,H,13,17,faces,faces,81,68,Stimuli/Experimental_stims/faces/daniel-rigdon-dXmXKPP2L4E-unsplash.jpg,Stimuli/Experimental_stims/faces/good-faces-xmSWVeGEnJw-unsplash.jpg,0,1,569,1,unchosen,13,17,faces,faces,1600,0,9,3
107,47210,0,108,2,2,0,no_gain1,gain3,A,K,1,46,outdoor_scenes,objects,70,91,Stimuli/Experimental_stims/outdoor_scenes/ashim-d-silva-S2Q5mdOrrVc-unsplash.jpg,Stimuli/Experimental_stims/objects/mockup-graphics-PNsj6RiHAF4-unsplash.jpg,0,0,990,1,unchosen,46,1,objects,outdoor_scenes,2400,0,9,3
108,47210,0,109,2,2,0,no_gain5,gain2,L,J,35,19,body_parts,faces,62,76,Stimuli/Experimental_stims/body_parts/wc-so-KH4AAPjb-tI-unsplash.jpg,Stimuli/Experimental_stims/faces/joel-mott-LaK153ghdig-unsplash.jpg,0,1,738,0,chosen,35,19,body_parts,faces,2900,0,9,3
109,47210,0,110,2,2,1,gain2,no_gain2,J,G,19,44,faces,objects,76,83,Stimuli/Experimental_stims/faces/joel-mott-LaK153ghdig-unsplash.jpg,Stimuli/Experimental_stims/objects/kuiye-chen-NuOGFo4PudE-unsplash.jpg,0,1,847,1,chosen,19,44,faces,objects,2100,0,9,3
110,47210,0,111,2,2,1,gain5,no_gain6,C,H,5,17,outdoor_scenes,faces,95,68,Stimuli/Experimental_stims/outdoor_scenes/jeff-king-bJHWJeiHfHc-unsplash.jpg,Stimuli/Experimental_stims/faces/good-faces-xmSWVeGEnJw-unsplash.jpg,0,1,799,1,unchosen,5,17,outdoor_scenes,faces,3600,1,9,3
111,47210,0,112,2,2,1,gain6,no_gain4,B,E,11,31,outdoor_scenes,body_parts,86,75,Stimuli/Experimental_stims/outdoor_scenes/stephen-leonardi-gyIRjKPXupE-unsplash.jpg,Stimuli/Experimental_stims/body_parts/sincerely-media-VN6DbKajo5s-unsplash.jpg,0,1,753,1,chosen,11,31,outdoor_scenes,body_parts,1900,0,9,3
112,47210,0,113,2,2,1,gain3,no_gain1,K,A,25,41,body_parts,objects,42,91,Stimuli/Experimental_stims/body_parts/engin-akyurt-Q2rfH3GW39c-unsplash.jpg,Stimuli/Experimental_stims/objects/insung-yoon-w2JtIQQXoRU-unsplash.jpg,0,0,840,0,chosen,41,25,objects,body_parts,1000,0,9,3
113,47210,0,114,2,2,0,no_gain6,gain2,H,J,0,19,outdoor_scenes,faces,85,76,Stimuli/Experimental_stims/outdoor_scenes/aleksandra-boguslawska-MS7KD9Ti7FQ-unsplash.jpg,Stimuli/Experimental_stims/faces/joel-mott-LaK153ghdig-unsplash.jpg,0,1,843,0,chosen,0,19,outdoor_scenes,faces,1500,0,9,3
114,47210,0,115,2,2,1,gain1,no_gain3,F,I,13,8,faces,outdoor_scenes,81,43,Stimuli/Experimental_stims/faces/daniel-rigdon-dXmXKPP2L4E-unsplash.jpg,Stimuli/Experimental_stims/outdoor_scenes/samsommer-vddccTqwal8-unsplash.jpg,0,0,635,0,unchosen,8,13,outdoor_scenes,faces,1600,0,9,3
115,47210,0,116,2,2,0,no_gain1,gain1,A,F,1,13,outdoor_scenes,faces,70,81,Stimuli/Experimental_stims/outdoor_scenes/ashim-d-silva-S2Q5mdOrrVc-unsplash.jpg,Stimuli/Experimental_stims/faces/daniel-rigdon-dXmXKPP2L4E-unsplash.jpg,0,1,693,0,unchosen,1,13,outdoor_scenes,faces,1100,0,9,3
116,47210,0,117,2,2,1,gain6,no_gain1,B,A,11,41,outdoor_scenes,objects,86,91,Stimuli/Experimental_stims/outdoor_scenes/stephen-leonardi-gyIRjKPXupE-unsplash.jpg,Stimuli/Experimental_stims/objects/insung-yoon-w2JtIQQXoRU-unsplash.jpg,0,0,686,0,chosen,41,11,objects,outdoor_scenes,4400,1,9,3
117,47210,0,118,2,2,1,gain3,no_gain6,K,H,25,0,body_parts,outdoor_scenes,42,85,Stimuli/Experimental_stims/body_parts/engin-akyurt-Q2rfH3GW39c-unsplash.jpg,Stimuli/Experimental_stims/outdoor_scenes/aleksandra-boguslawska-MS7KD9Ti7FQ-unsplash.jpg,0,1,906,1,chosen,25,0,body_parts,outdoor_scenes,1100,0,9,3
118,47210,0,119,2,2,1,gain3,no_gain4,K,E,46,38,objects,objects,91,63,Stimuli/Experimental_stims/objects/mockup-graphics-PNsj6RiHAF4-unsplash.jpg,Stimuli/Experimental_stims/objects/art-lasovsky-8XddFc6NkBY-unsplash.jpg,0,0,797,0,unchosen,38,46,objects,objects,1200,0,9,3
119,47210,0,120,2,2,0,no_gain4,gain1,E,F,31,28,body_parts,body_parts,75,86,Stimuli/Experimental_stims/body_parts/sincerely-media-VN6DbKajo5s-unsplash.jpg,Stimuli/Experimental_stims/body_parts/ira-vishnevskaya-8DQAvdCby1I-unsplash.jpg,0,1,784,0,chosen,31,28,body_parts,body_parts,1000,0,9,3
120,47210,0,121,2,2,0,no_gain3,gain5,I,C,8,5,outdoor_scenes,outdoor_scenes,43,95,Stimuli/Experimental_stims/outdoor_scenes/samsommer-vddccTqwal8-unsplash.jpg,Stimuli/Experimental_stims/outdoor_scenes/jeff-king-bJHWJeiHfHc-unsplash.jpg,0,0,668,1,unchosen,5,8,outdoor_scenes,outdoor_scenes,1500,0,9,3
121,47210,0,122,2,2,0,no_gain1,gain4,A,D,1,14,outdoor_scenes,faces,70,53,Stimuli/Experimental_stims/outdoor_scenes/ashim-d-silva-S2Q5mdOrrVc-unsplash.jpg,Stimuli/Experimental_stims/faces/david-siglin-UuW4psOb388-unsplash.jpg,0,1,957,0,unchosen,1,14,outdoor_scenes,faces,2000,0,9,3
122,47210,0,123,2,2,0,no_gain4,gain3,E,K,31,25,body_parts,body_parts,75,42,Stimuli/Experimental_stims/body_parts/sincerely-media-VN6DbKajo5s-unsplash.jpg,Stimuli/Experimental_stims/body_parts/engin-akyurt-Q2rfH3GW39c-unsplash.jpg,0,1,830,0,chosen,31,25,body_parts,body_parts,3700,1,9,3
123,47210,0,124,2,2,0,no_gain1,gain2,A,J,1,45,outdoor_scenes,objects,70,92,Stimuli/Experimental_stims/outdoor_scenes/ashim-d-silva-S2Q5mdOrrVc-unsplash.jpg,Stimuli/Experimental_stims/objects/leohoho-rngTKHXumy0-unsplash.jpg,0,1,749,0,unchosen,1,45,outdoor_scenes,objects,2100,0,9,3
124,47210,0,125,2,2,1,gain5,no_gain1,C,A,5,1,outdoor_scenes,outdoor_scenes,95,70,Stimuli/Experimental_stims/outdoor_scenes/jeff-king-bJHWJeiHfHc-unsplash.jpg,Stimuli/Experimental_stims/outdoor_scenes/ashim-d-silva-S2Q5mdOrrVc-unsplash.jpg,0,0,784,0,unchosen,1,5,outdoor_scenes,outdoor_scenes,1100,0,9,3
125,47210,0,126,2,2,1,gain5,no_gain3,C,I,30,24,body_parts,body_parts,65,77,Stimuli/Experimental_stims/body_parts/mika-korhonen-Xodzxosar18-unsplash.jpg,Stimuli/Experimental_stims/body_parts/clay-banks-LjqARJaJotc-unsplash.jpg,1,NaN,,NaN,chosen,NaN,NaN,NaN,NaN,1500,0,9,3
126,47210,0,127,2,2,0,no_gain5,gain1,L,F,35,28,body_parts,body_parts,62,86,Stimuli/Experimental_stims/body_parts/wc-so-KH4AAPjb-tI-unsplash.jpg,Stimuli/Experimental_stims/body_parts/ira-vishnevskaya-8DQAvdCby1I-unsplash.jpg,0,0,678,1,chosen,28,35,body_parts,body_parts,1900,0,9,3
127,47210,0,128,2,2,0,no_gain2,gain6,G,B,6,23,outdoor_scenes,faces,89,39,Stimuli/Experimental_stims/outdoor_scenes/meng-ji-8BH_M-53CyA-unsplash.jpg,Stimuli/Experimental_stims/faces/rikonavt-HQjfrvdTfak-unsplash.jpg,0,1,640,0,unchosen,6,23,outdoor_scenes,faces,1600,0,9,3
128,47210,0,129,2,2,1,gain5,no_gain4,C,E,5,38,outdoor_scenes,objects,95,63,Stimuli/Experimental_stims/outdoor_scenes/jeff-king-bJHWJeiHfHc-unsplash.jpg,Stimuli/Experimental_stims/objects/art-lasovsky-8XddFc6NkBY-unsplash.jpg,1,NaN,,NaN,unchosen,NaN,NaN,NaN,NaN,3100,1,9,3
129,47210,0,130,2,2,0,no_gain1,gain1,A,F,41,28,objects,body_parts,91,86,Stimuli/Experimental_stims/objects/insung-yoon-w2JtIQQXoRU-unsplash.jpg,Stimuli/Experimental_stims/body_parts/ira-vishnevskaya-8DQAvdCby1I-unsplash.jpg,0,0,674,1,chosen,28,41,body_parts,objects,2800,0,9,3
130,47210,0,131,2,2,1,gain5,no_gain4,C,E,30,31,body_parts,body_parts,65,75,Stimuli/Experimental_stims/body_parts/mika-korhonen-Xodzxosar18-unsplash.jpg,Stimuli/Experimental_stims/body_parts/sincerely-media-VN6DbKajo5s-unsplash.jpg,0,1,591,1,chosen,30,31,body_parts,body_parts,1800,0,9,3
131,47210,0,132,2,2,0,no_gain6,gain6,H,B,17,23,faces,faces,68,39,Stimuli/Experimental_stims/faces/good-faces-xmSWVeGEnJw-unsplash.jpg,Stimuli/Experimental_stims/faces/rikonavt-HQjfrvdTfak-unsplash.jpg,0,0,728,1,unchosen,23,17,faces,faces,2100,0,9,3
132,47210,0,133,2,2,1,gain6,no_gain3,B,I,11,24,outdoor_scenes,body_parts,86,77,Stimuli/Experimental_stims/outdoor_scenes/stephen-leonardi-gyIRjKPXupE-unsplash.jpg,Stimuli/Experimental_stims/body_parts/clay-banks-LjqARJaJotc-unsplash.jpg,0,1,759,1,chosen,11,24,outdoor_scenes,body_parts,2100,0,9,3
133,47210,0,134,2,2,0,no_gain2,gain5,G,C,44,30,objects,body_parts,83,65,Stimuli/Experimental_stims/objects/kuiye-chen-NuOGFo4PudE-unsplash.jpg,Stimuli/Experimental_stims/body_parts/mika-korhonen-Xodzxosar18-unsplash.jpg,0,1,846,0,chosen,44,30,objects,body_parts,1600,0,9,3
134,47210,0,135,2,2,0,no_gain4,gain2,E,J,38,45,objects,objects,63,92,Stimuli/Experimental_stims/objects/art-lasovsky-8XddFc6NkBY-unsplash.jpg,Stimuli/Experimental_stims/objects/leohoho-rngTKHXumy0-unsplash.jpg,0,1,788,0,unchosen,38,45,objects,objects,2600,0,9,3
135,47210,0,136,2,2,1,gain4,no_gain4,D,E,36,31,objects,body_parts,77,75,Stimuli/Experimental_stims/objects/alexander-andrews-JYGnB9gTCls-unsplash.jpg,Stimuli/Experimental_stims/body_parts/sincerely-media-VN6DbKajo5s-unsplash.jpg,0,1,777,1,chosen,36,31,objects,body_parts,1100,0,9,3
136,47210,0,137,2,2,0,no_gain2,gain2,G,J,6,45,outdoor_scenes,objects,89,92,Stimuli/Experimental_stims/outdoor_scenes/meng-ji-8BH_M-53CyA-unsplash.jpg,Stimuli/Experimental_stims/objects/leohoho-rngTKHXumy0-unsplash.jpg,0,0,862,1,unchosen,45,6,objects,outdoor_scenes,2700,0,9,3
137,47210,0,138,2,2,1,gain4,no_gain6,D,H,14,17,faces,faces,53,68,Stimuli/Experimental_stims/faces/david-siglin-UuW4psOb388-unsplash.jpg,Stimuli/Experimental_stims/faces/good-faces-xmSWVeGEnJw-unsplash.jpg,0,1,837,1,unchosen,14,17,faces,faces,1500,0,9,3
138,47210,0,139,2,2,1,gain3,no_gain5,K,L,46,16,objects,faces,91,32,Stimuli/Experimental_stims/objects/mockup-graphics-PNsj6RiHAF4-unsplash.jpg,Stimuli/Experimental_stims/faces/freddy-kearney-o-ioeoATbIM-unsplash.jpg,0,1,945,1,unchosen,46,16,objects,faces,1100,0,9,3
139,47210,0,140,2,2,1,gain4,no_gain1,D,A,36,41,objects,objects,77,91,Stimuli/Experimental_stims/objects/alexander-andrews-JYGnB9gTCls-unsplash.jpg,Stimuli/Experimental_stims/objects/insung-yoon-w2JtIQQXoRU-unsplash.jpg,0,1,1070,1,chosen,36,41,objects,objects,1200,0,9,3
140,47210,0,141,2,2,1,gain3,no_gain2,K,G,46,6,objects,outdoor_scenes,91,89,Stimuli/Experimental_stims/objects/mockup-graphics-PNsj6RiHAF4-unsplash.jpg,Stimuli/Experimental_stims/outdoor_scenes/meng-ji-8BH_M-53CyA-unsplash.jpg,0,1,716,1,unchosen,46,6,objects,outdoor_scenes,1200,0,9,3
141,47210,0,142,2,2,0,no_gain2,gain1,G,F,6,13,outdoor_scenes,faces,89,81,Stimuli/Experimental_stims/outdoor_scenes/meng-ji-8BH_M-53CyA-unsplash.jpg,Stimuli/Experimental_stims/faces/daniel-rigdon-dXmXKPP2L4E-unsplash.jpg,0,1,903,0,unchosen,6,13,outdoor_scenes,faces,4600,1,9,3
142,47210,0,143,2,2,1,gain6,no_gain6,B,H,11,0,outdoor_scenes,outdoor_scenes,86,85,Stimuli/Experimental_stims/outdoor_scenes/stephen-leonardi-gyIRjKPXupE-unsplash.jpg,Stimuli/Experimental_stims/outdoor_scenes/aleksandra-boguslawska-MS7KD9Ti7FQ-unsplash.jpg,0,0,1506,0,chosen,0,11,outdoor_scenes,outdoor_scenes,2000,0,9,3
143,47210,0,144,2,2,1,gain4,no_gain4,D,E,14,38,faces,objects,53,63,Stimuli/Experimental_stims/faces/david-siglin-UuW4psOb388-unsplash.jpg,Stimuli/Experimental_stims/objects/art-lasovsky-8XddFc6NkBY-unsplash.jpg,0,0,949,0,unchosen,38,14,objects,faces,1700,0,9,3
144,47210,0,145,2,2,1,gain6,no_gain1,B,A,23,1,faces,outdoor_scenes,39,70,Stimuli/Experimental_stims/faces/rikonavt-HQjfrvdTfak-unsplash.jpg,Stimuli/Experimental_stims/outdoor_scenes/ashim-d-silva-S2Q5mdOrrVc-unsplash.jpg,0,1,765,1,unchosen,23,1,faces,outdoor_scenes,1300,0,9,3
145,47210,0,146,2,2,0,no_gain2,gain4,G,D,44,36,objects,objects,83,77,Stimuli/Experimental_stims/objects/kuiye-chen-NuOGFo4PudE-unsplash.jpg,Stimuli/Experimental_stims/objects/alexander-andrews-JYGnB9gTCls-unsplash.jpg,0,0,779,1,chosen,36,44,objects,objects,1300,0,9,3
146,47210,0,147,2,2,1,gain5,no_gain2,C,G,5,6,outdoor_scenes,outdoor_scenes,95,89,Stimuli/Experimental_stims/outdoor_scenes/jeff-king-bJHWJeiHfHc-unsplash.jpg,Stimuli/Experimental_stims/outdoor_scenes/meng-ji-8BH_M-53CyA-unsplash.jpg,0,1,684,1,unchosen,5,6,outdoor_scenes,outdoor_scenes,1600,0,9,3
147,47210,0,148,2,2,1,gain2,no_gain3,J,I,19,24,faces,body_parts,76,77,Stimuli/Experimental_stims/faces/joel-mott-LaK153ghdig-unsplash.jpg,Stimuli/Experimental_stims/body_parts/clay-banks-LjqARJaJotc-unsplash.jpg,0,1,904,1,chosen,19,24,faces,body_parts,2900,0,9,3
148,47210,0,149,3,3,0,no_gain1,gain2,A,J,1,45,outdoor_scenes,objects,70,92,Stimuli/Experimental_stims/outdoor_scenes/ashim-d-silva-S2Q5mdOrrVc-unsplash.jpg,Stimuli/Experimental_stims/objects/leohoho-rngTKHXumy0-unsplash.jpg,0,0,889,1,unchosen,45,1,objects,outdoor_scenes,2500,0,3,3
149,47210,0,150,3,3,0,no_gain2,gain5,G,C,44,30,objects,body_parts,83,65,Stimuli/Experimental_stims/objects/kuiye-chen-NuOGFo4PudE-unsplash.jpg,Stimuli/Experimental_stims/body_parts/mika-korhonen-Xodzxosar18-unsplash.jpg,0,1,1127,0,chosen,44,30,objects,body_parts,1500,0,3,3
150,47210,0,151,3,3,0,no_gain5,gain1,L,F,16,13,faces,faces,32,81,Stimuli/Experimental_stims/faces/freddy-kearney-o-ioeoATbIM-unsplash.jpg,Stimuli/Experimental_stims/faces/daniel-rigdon-dXmXKPP2L4E-unsplash.jpg,0,0,1003,1,unchosen,13,16,faces,faces,1000,0,3,3
151,47210,0,152,3,3,1,gain3,no_gain3,K,I,46,8,objects,outdoor_scenes,91,43,Stimuli/Experimental_stims/objects/mockup-graphics-PNsj6RiHAF4-unsplash.jpg,Stimuli/Experimental_stims/outdoor_scenes/samsommer-vddccTqwal8-unsplash.jpg,0,1,804,1,unchosen,46,8,objects,outdoor_scenes,2000,0,3,3
152,47210,0,153,3,3,0,no_gain4,gain3,E,K,38,46,objects,objects,63,91,Stimuli/Experimental_stims/objects/art-lasovsky-8XddFc6NkBY-unsplash.jpg,Stimuli/Experimental_stims/objects/mockup-graphics-PNsj6RiHAF4-unsplash.jpg,0,0,1348,1,unchosen,46,38,objects,objects,1600,0,3,3
153,47210,0,154,3,3,0,no_gain6,gain5,H,C,0,30,outdoor_scenes,body_parts,85,65,Stimuli/Experimental_stims/outdoor_scenes/aleksandra-boguslawska-MS7KD9Ti7FQ-unsplash.jpg,Stimuli/Experimental_stims/body_parts/mika-korhonen-Xodzxosar18-unsplash.jpg,0,1,1239,0,chosen,0,30,outdoor_scenes,body_parts,5000,1,3,3
154,47210,0,155,3,3,1,gain5,no_gain5,C,L,5,16,outdoor_scenes,faces,95,32,Stimuli/Experimental_stims/outdoor_scenes/jeff-king-bJHWJeiHfHc-unsplash.jpg,Stimuli/Experimental_stims/faces/freddy-kearney-o-ioeoATbIM-unsplash.jpg,0,0,822,0,unchosen,16,5,faces,outdoor_scenes,1500,0,3,3
155,47210,0,156,3,3,0,no_gain4,gain4,E,D,31,36,body_parts,objects,75,77,Stimuli/Experimental_stims/body_parts/sincerely-media-VN6DbKajo5s-unsplash.jpg,Stimuli/Experimental_stims/objects/alexander-andrews-JYGnB9gTCls-unsplash.jpg,0,0,897,1,chosen,36,31,objects,body_parts,1800,0,3,3
156,47210,0,157,3,3,0,no_gain6,gain1,H,F,0,28,outdoor_scenes,body_parts,85,86,Stimuli/Experimental_stims/outdoor_scenes/aleksandra-boguslawska-MS7KD9Ti7FQ-unsplash.jpg,Stimuli/Experimental_stims/body_parts/ira-vishnevskaya-8DQAvdCby1I-unsplash.jpg,0,1,859,0,chosen,0,28,outdoor_scenes,body_parts,1900,0,3,3
157,47210,0,158,3,3,1,gain6,no_gain5,B,L,23,16,faces,faces,39,32,Stimuli/Experimental_stims/faces/rikonavt-HQjfrvdTfak-unsplash.jpg,Stimuli/Experimental_stims/faces/freddy-kearney-o-ioeoATbIM-unsplash.jpg,0,1,750,1,unchosen,23,16,faces,faces,2000,0,3,3
158,47210,0,159,3,3,1,gain1,no_gain5,F,L,28,35,body_parts,body_parts,86,62,Stimuli/Experimental_stims/body_parts/ira-vishnevskaya-8DQAvdCby1I-unsplash.jpg,Stimuli/Experimental_stims/body_parts/wc-so-KH4AAPjb-tI-unsplash.jpg,0,0,891,0,chosen,35,28,body_parts,body_parts,1300,0,3,3
159,47210,0,160,3,3,0,no_gain5,gain4,L,D,35,36,body_parts,objects,62,77,Stimuli/Experimental_stims/body_parts/wc-so-KH4AAPjb-tI-unsplash.jpg,Stimuli/Experimental_stims/objects/alexander-andrews-JYGnB9gTCls-unsplash.jpg,0,1,952,0,chosen,35,36,body_parts,objects,2700,0,3,3
160,47210,0,161,3,3,0,no_gain3,gain4,I,D,24,36,body_parts,objects,77,77,Stimuli/Experimental_stims/body_parts/clay-banks-LjqARJaJotc-unsplash.jpg,Stimuli/Experimental_stims/objects/alexander-andrews-JYGnB9gTCls-unsplash.jpg,0,1,1042,0,chosen,24,36,body_parts,objects,1600,0,3,3
161,47210,0,162,3,3,1,gain4,no_gain3,D,I,14,8,faces,outdoor_scenes,53,43,Stimuli/Experimental_stims/faces/david-siglin-UuW4psOb388-unsplash.jpg,Stimuli/Experimental_stims/outdoor_scenes/samsommer-vddccTqwal8-unsplash.jpg,1,NaN,,NaN,unchosen,NaN,NaN,NaN,NaN,4000,1,3,3
162,47210,0,163,3,3,0,no_gain1,gain3,A,K,41,25,objects,body_parts,91,42,Stimuli/Experimental_stims/objects/insung-yoon-w2JtIQQXoRU-unsplash.jpg,Stimuli/Experimental_stims/body_parts/engin-akyurt-Q2rfH3GW39c-unsplash.jpg,0,1,905,0,chosen,41,25,objects,body_parts,1900,0,3,3
163,47210,0,164,3,3,0,no_gain4,gain5,E,C,38,5,objects,outdoor_scenes,63,95,Stimuli/Experimental_stims/objects/art-lasovsky-8XddFc6NkBY-unsplash.jpg,Stimuli/Experimental_stims/outdoor_scenes/jeff-king-bJHWJeiHfHc-unsplash.jpg,0,1,623,0,unchosen,38,5,objects,outdoor_scenes,1700,0,3,3
164,47210,0,165,3,3,0,no_gain6,gain4,H,D,0,36,outdoor_scenes,objects,85,77,Stimuli/Experimental_stims/outdoor_scenes/aleksandra-boguslawska-MS7KD9Ti7FQ-unsplash.jpg,Stimuli/Experimental_stims/objects/alexander-andrews-JYGnB9gTCls-unsplash.jpg,0,1,544,0,chosen,0,36,outdoor_scenes,objects,1800,0,3,3
165,47210,0,166,3,3,1,gain5,no_gain3,C,I,30,24,body_parts,body_parts,65,77,Stimuli/Experimental_stims/body_parts/mika-korhonen-Xodzxosar18-unsplash.jpg,Stimuli/Experimental_stims/body_parts/clay-banks-LjqARJaJotc-unsplash.jpg,0,1,680,1,chosen,30,24,body_parts,body_parts,1500,0,3,3
166,47210,0,167,3,3,1,gain4,no_gain2,D,G,36,44,objects,objects,77,83,Stimuli/Experimental_stims/objects/alexander-andrews-JYGnB9gTCls-unsplash.jpg,Stimuli/Experimental_stims/objects/kuiye-chen-NuOGFo4PudE-unsplash.jpg,0,1,613,1,chosen,36,44,objects,objects,2700,0,3,3
167,47210,0,168,3,3,0,no_gain6,gain6,H,B,17,23,faces,faces,68,39,Stimuli/Experimental_stims/faces/good-faces-xmSWVeGEnJw-unsplash.jpg,Stimuli/Experimental_stims/faces/rikonavt-HQjfrvdTfak-unsplash.jpg,0,0,942,1,unchosen,23,17,faces,faces,3600,1,3,3
168,47210,0,169,3,3,0,no_gain2,gain6,G,B,44,11,objects,outdoor_scenes,83,86,Stimuli/Experimental_stims/objects/kuiye-chen-NuOGFo4PudE-unsplash.jpg,Stimuli/Experimental_stims/outdoor_scenes/stephen-leonardi-gyIRjKPXupE-unsplash.jpg,0,1,738,0,chosen,44,11,objects,outdoor_scenes,2100,0,3,3
169,47210,0,170,3,3,1,gain5,no_gain6,C,H,5,17,outdoor_scenes,faces,95,68,Stimuli/Experimental_stims/outdoor_scenes/jeff-king-bJHWJeiHfHc-unsplash.jpg,Stimuli/Experimental_stims/faces/good-faces-xmSWVeGEnJw-unsplash.jpg,0,1,801,1,unchosen,5,17,outdoor_scenes,faces,2300,0,3,3
170,47210,0,171,3,3,1,gain1,no_gain3,F,I,13,8,faces,outdoor_scenes,81,43,Stimuli/Experimental_stims/faces/daniel-rigdon-dXmXKPP2L4E-unsplash.jpg,Stimuli/Experimental_stims/outdoor_scenes/samsommer-vddccTqwal8-unsplash.jpg,0,1,754,1,unchosen,13,8,faces,outdoor_scenes,1400,0,3,3
171,47210,0,172,3,3,1,gain3,no_gain3,K,I,25,24,body_parts,body_parts,42,77,Stimuli/Experimental_stims/body_parts/engin-akyurt-Q2rfH3GW39c-unsplash.jpg,Stimuli/Experimental_stims/body_parts/clay-banks-LjqARJaJotc-unsplash.jpg,0,1,685,1,chosen,25,24,body_parts,body_parts,1200,0,3,3
172,47210,0,173,3,3,1,gain2,no_gain6,J,H,19,0,faces,outdoor_scenes,76,85,Stimuli/Experimental_stims/faces/joel-mott-LaK153ghdig-unsplash.jpg,Stimuli/Experimental_stims/outdoor_scenes/aleksandra-boguslawska-MS7KD9Ti7FQ-unsplash.jpg,0,1,830,1,chosen,19,0,faces,outdoor_scenes,1900,0,3,3
173,47210,0,174,3,3,0,no_gain2,gain4,G,D,6,14,outdoor_scenes,faces,89,53,Stimuli/Experimental_stims/outdoor_scenes/meng-ji-8BH_M-53CyA-unsplash.jpg,Stimuli/Experimental_stims/faces/david-siglin-UuW4psOb388-unsplash.jpg,0,1,990,0,unchosen,6,14,outdoor_scenes,faces,1800,0,3,3
174,47210,0,175,3,3,1,gain6,no_gain6,B,H,11,0,outdoor_scenes,outdoor_scenes,86,85,Stimuli/Experimental_stims/outdoor_scenes/stephen-leonardi-gyIRjKPXupE-unsplash.jpg,Stimuli/Experimental_stims/outdoor_scenes/aleksandra-boguslawska-MS7KD9Ti7FQ-unsplash.jpg,0,0,1036,0,chosen,0,11,outdoor_scenes,outdoor_scenes,4100,1,3,3
175,47210,0,176,3,3,0,no_gain5,gain6,L,B,35,11,body_parts,outdoor_scenes,62,86,Stimuli/Experimental_stims/body_parts/wc-so-KH4AAPjb-tI-unsplash.jpg,Stimuli/Experimental_stims/outdoor_scenes/stephen-leonardi-gyIRjKPXupE-unsplash.jpg,0,1,734,0,chosen,35,11,body_parts,outdoor_scenes,1400,0,3,3
176,47210,0,177,3,3,0,no_gain2,gain6,G,B,6,23,outdoor_scenes,faces,89,39,Stimuli/Experimental_stims/outdoor_scenes/meng-ji-8BH_M-53CyA-unsplash.jpg,Stimuli/Experimental_stims/faces/rikonavt-HQjfrvdTfak-unsplash.jpg,0,1,925,0,unchosen,6,23,outdoor_scenes,faces,2200,0,3,3
177,47210,0,178,3,3,1,gain1,no_gain2,F,G,13,6,faces,outdoor_scenes,81,89,Stimuli/Experimental_stims/faces/daniel-rigdon-dXmXKPP2L4E-unsplash.jpg,Stimuli/Experimental_stims/outdoor_scenes/meng-ji-8BH_M-53CyA-unsplash.jpg,0,1,751,1,unchosen,13,6,faces,outdoor_scenes,1400,0,3,3
178,47210,0,179,3,3,1,gain3,no_gain2,K,G,25,44,body_parts,objects,42,83,Stimuli/Experimental_stims/body_parts/engin-akyurt-Q2rfH3GW39c-unsplash.jpg,Stimuli/Experimental_stims/objects/kuiye-chen-NuOGFo4PudE-unsplash.jpg,0,1,812,1,chosen,25,44,body_parts,objects,1100,0,3,3
179,47210,0,180,3,3,1,gain4,no_gain1,D,A,36,41,objects,objects,77,91,Stimuli/Experimental_stims/objects/alexander-andrews-JYGnB9gTCls-unsplash.jpg,Stimuli/Experimental_stims/objects/insung-yoon-w2JtIQQXoRU-unsplash.jpg,0,0,982,0,chosen,41,36,objects,objects,1400,0,3,3
180,47210,0,181,3,3,1,gain1,no_gain4,F,E,13,38,faces,objects,81,63,Stimuli/Experimental_stims/faces/daniel-rigdon-dXmXKPP2L4E-unsplash.jpg,Stimuli/Experimental_stims/objects/art-lasovsky-8XddFc6NkBY-unsplash.jpg,0,0,879,0,unchosen,38,13,objects,faces,1700,0,3,3
181,47210,0,182,3,3,1,gain1,no_gain4,F,E,28,31,body_parts,body_parts,86,75,Stimuli/Experimental_stims/body_parts/ira-vishnevskaya-8DQAvdCby1I-unsplash.jpg,Stimuli/Experimental_stims/body_parts/sincerely-media-VN6DbKajo5s-unsplash.jpg,0,0,897,0,chosen,31,28,body_parts,body_parts,3400,1,3,3
182,47210,0,183,3,3,1,gain3,no_gain5,K,L,25,35,body_parts,body_parts,42,62,Stimuli/Experimental_stims/body_parts/engin-akyurt-Q2rfH3GW39c-unsplash.jpg,Stimuli/Experimental_stims/body_parts/wc-so-KH4AAPjb-tI-unsplash.jpg,0,1,805,1,chosen,25,35,body_parts,body_parts,1000,0,3,3
183,47210,0,184,3,3,1,gain1,no_gain6,F,H,13,17,faces,faces,81,68,Stimuli/Experimental_stims/faces/daniel-rigdon-dXmXKPP2L4E-unsplash.jpg,Stimuli/Experimental_stims/faces/good-faces-xmSWVeGEnJw-unsplash.jpg,0,0,882,0,unchosen,17,13,faces,faces,1200,0,3,3
184,47210,0,185,3,3,0,no_gain5,gain4,L,D,16,14,faces,faces,32,53,Stimuli/Experimental_stims/faces/freddy-kearney-o-ioeoATbIM-unsplash.jpg,Stimuli/Experimental_stims/faces/david-siglin-UuW4psOb388-unsplash.jpg,0,1,746,0,unchosen,16,14,faces,faces,1200,0,3,3
185,47210,0,186,3,3,0,no_gain1,gain2,A,J,41,19,objects,faces,91,76,Stimuli/Experimental_stims/objects/insung-yoon-w2JtIQQXoRU-unsplash.jpg,Stimuli/Experimental_stims/faces/joel-mott-LaK153ghdig-unsplash.jpg,0,0,804,1,chosen,19,41,faces,objects,2800,0,3,3
186,47210,0,187,3,3,0,no_gain1,gain4,A,D,1,14,outdoor_scenes,faces,70,53,Stimuli/Experimental_stims/outdoor_scenes/ashim-d-silva-S2Q5mdOrrVc-unsplash.jpg,Stimuli/Experimental_stims/faces/david-siglin-UuW4psOb388-unsplash.jpg,1,NaN,,NaN,unchosen,NaN,NaN,NaN,NaN,1200,0,3,3
187,47210,0,188,3,3,0,no_gain6,gain3,H,K,0,25,outdoor_scenes,body_parts,85,42,Stimuli/Experimental_stims/outdoor_scenes/aleksandra-boguslawska-MS7KD9Ti7FQ-unsplash.jpg,Stimuli/Experimental_stims/body_parts/engin-akyurt-Q2rfH3GW39c-unsplash.jpg,0,0,1209,1,chosen,25,0,body_parts,outdoor_scenes,1200,0,3,3
188,47210,0,189,3,3,1,gain2,no_gain2,J,G,19,44,faces,objects,76,83,Stimuli/Experimental_stims/faces/joel-mott-LaK153ghdig-unsplash.jpg,Stimuli/Experimental_stims/objects/kuiye-chen-NuOGFo4PudE-unsplash.jpg,0,0,934,0,chosen,44,19,objects,faces,2100,0,3,3
189,47210,0,190,3,3,1,gain2,no_gain6,J,H,45,17,objects,faces,92,68,Stimuli/Experimental_stims/objects/leohoho-rngTKHXumy0-unsplash.jpg,Stimuli/Experimental_stims/faces/good-faces-xmSWVeGEnJw-unsplash.jpg,0,1,745,1,unchosen,45,17,objects,faces,3800,1,3,3
190,47210,0,191,3,3,0,no_gain3,gain2,I,J,24,19,body_parts,faces,77,76,Stimuli/Experimental_stims/body_parts/clay-banks-LjqARJaJotc-unsplash.jpg,Stimuli/Experimental_stims/faces/joel-mott-LaK153ghdig-unsplash.jpg,0,1,681,0,chosen,24,19,body_parts,faces,2200,0,3,3
191,47210,0,192,3,3,1,gain4,no_gain4,D,E,14,38,faces,objects,53,63,Stimuli/Experimental_stims/faces/david-siglin-UuW4psOb388-unsplash.jpg,Stimuli/Experimental_stims/objects/art-lasovsky-8XddFc6NkBY-unsplash.jpg,0,0,1499,0,unchosen,38,14,objects,faces,2500,0,3,3
192,47210,0,193,3,3,1,gain2,no_gain5,J,L,19,35,faces,body_parts,76,62,Stimuli/Experimental_stims/faces/joel-mott-LaK153ghdig-unsplash.jpg,Stimuli/Experimental_stims/body_parts/wc-so-KH4AAPjb-tI-unsplash.jpg,0,1,750,1,chosen,19,35,faces,body_parts,1100,0,3,3
193,47210,0,194,3,3,1,gain3,no_gain1,K,A,46,1,objects,outdoor_scenes,91,70,Stimuli/Experimental_stims/objects/mockup-graphics-PNsj6RiHAF4-unsplash.jpg,Stimuli/Experimental_stims/outdoor_scenes/ashim-d-silva-S2Q5mdOrrVc-unsplash.jpg,0,1,764,1,unchosen,46,1,objects,outdoor_scenes,1800,0,3,3
194,47210,0,195,3,3,1,gain3,no_gain6,K,H,46,17,objects,faces,91,68,Stimuli/Experimental_stims/objects/mockup-graphics-PNsj6RiHAF4-unsplash.jpg,Stimuli/Experimental_stims/faces/good-faces-xmSWVeGEnJw-unsplash.jpg,0,1,678,1,unchosen,46,17,objects,faces,3600,1,3,3
195,47210,0,196,3,3,1,gain4,no_gain6,D,H,14,17,faces,faces,53,68,Stimuli/Experimental_stims/faces/david-siglin-UuW4psOb388-unsplash.jpg,Stimuli/Experimental_stims/faces/good-faces-xmSWVeGEnJw-unsplash.jpg,0,0,1100,0,unchosen,17,14,faces,faces,2400,0,3,3
196,47210,0,197,3,3,1,gain1,no_gain1,F,A,28,41,body_parts,objects,86,91,Stimuli/Experimental_stims/body_parts/ira-vishnevskaya-8DQAvdCby1I-unsplash.jpg,Stimuli/Experimental_stims/objects/insung-yoon-w2JtIQQXoRU-unsplash.jpg,0,0,763,0,chosen,41,28,objects,body_parts,2400,0,3,3
197,47210,0,198,3,3,0,no_gain3,gain2,I,J,8,45,outdoor_scenes,objects,43,92,Stimuli/Experimental_stims/outdoor_scenes/samsommer-vddccTqwal8-unsplash.jpg,Stimuli/Experimental_stims/objects/leohoho-rngTKHXumy0-unsplash.jpg,0,1,634,0,unchosen,8,45,outdoor_scenes,objects,2200,0,3,3
198,47210,0,199,3,3,1,gain1,no_gain2,F,G,28,44,body_parts,objects,86,83,Stimuli/Experimental_stims/body_parts/ira-vishnevskaya-8DQAvdCby1I-unsplash.jpg,Stimuli/Experimental_stims/objects/kuiye-chen-NuOGFo4PudE-unsplash.jpg,0,0,807,0,chosen,44,28,objects,body_parts,2800,0,3,3
199,47210,0,200,3,3,0,no_gain2,gain3,G,K,6,46,outdoor_scenes,objects,89,91,Stimuli/Experimental_stims/outdoor_scenes/meng-ji-8BH_M-53CyA-unsplash.jpg,Stimuli/Experimental_stims/objects/mockup-graphics-PNsj6RiHAF4-unsplash.jpg,0,1,640,0,unchosen,6,46,outdoor_scenes,objects,1700,0,3,3
200,47210,0,201,3,3,0,no_gain1,gain6,A,B,1,23,outdoor_scenes,faces,70,39,Stimuli/Experimental_stims/outdoor_scenes/ashim-d-silva-S2Q5mdOrrVc-unsplash.jpg,Stimuli/Experimental_stims/faces/rikonavt-HQjfrvdTfak-unsplash.jpg,0,0,854,1,unchosen,23,1,faces,outdoor_scenes,1100,0,3,3
201,47210,0,202,3,3,0,no_gain4,gain3,E,K,31,25,body_parts,body_parts,75,42,Stimuli/Experimental_stims/body_parts/sincerely-media-VN6DbKajo5s-unsplash.jpg,Stimuli/Experimental_stims/body_parts/engin-akyurt-Q2rfH3GW39c-unsplash.jpg,0,1,691,0,chosen,31,25,body_parts,body_parts,1200,0,3,3
202,47210,0,203,3,3,0,no_gain3,gain5,I,C,8,5,outdoor_scenes,outdoor_scenes,43,95,Stimuli/Experimental_stims/outdoor_scenes/samsommer-vddccTqwal8-unsplash.jpg,Stimuli/Experimental_stims/outdoor_scenes/jeff-king-bJHWJeiHfHc-unsplash.jpg,0,0,619,1,unchosen,5,8,outdoor_scenes,outdoor_scenes,2700,0,3,3
203,47210,0,204,3,3,0,no_gain1,gain1,A,F,1,13,outdoor_scenes,faces,70,81,Stimuli/Experimental_stims/outdoor_scenes/ashim-d-silva-S2Q5mdOrrVc-unsplash.jpg,Stimuli/Experimental_stims/faces/daniel-rigdon-dXmXKPP2L4E-unsplash.jpg,0,1,722,0,unchosen,1,13,outdoor_scenes,faces,1100,0,3,3
204,47210,0,205,3,3,1,gain5,no_gain5,C,L,30,35,body_parts,body_parts,65,62,Stimuli/Experimental_stims/body_parts/mika-korhonen-Xodzxosar18-unsplash.jpg,Stimuli/Experimental_stims/body_parts/wc-so-KH4AAPjb-tI-unsplash.jpg,0,0,985,0,chosen,35,30,body_parts,body_parts,1100,0,3,3
205,47210,0,206,3,3,0,no_gain4,gain6,E,B,31,11,body_parts,outdoor_scenes,75,86,Stimuli/Experimental_stims/body_parts/sincerely-media-VN6DbKajo5s-unsplash.jpg,Stimuli/Experimental_stims/outdoor_scenes/stephen-leonardi-gyIRjKPXupE-unsplash.jpg,0,1,1064,0,chosen,31,11,body_parts,outdoor_scenes,1500,0,3,3
206,47210,0,207,3,3,0,no_gain5,gain3,L,K,16,46,faces,objects,32,91,Stimuli/Experimental_stims/faces/freddy-kearney-o-ioeoATbIM-unsplash.jpg,Stimuli/Experimental_stims/objects/mockup-graphics-PNsj6RiHAF4-unsplash.jpg,0,0,976,1,unchosen,46,16,objects,faces,1600,0,3,3
207,47210,0,208,3,3,0,no_gain1,gain5,A,C,41,30,objects,body_parts,91,65,Stimuli/Experimental_stims/objects/insung-yoon-w2JtIQQXoRU-unsplash.jpg,Stimuli/Experimental_stims/body_parts/mika-korhonen-Xodzxosar18-unsplash.jpg,0,0,1017,1,chosen,30,41,body_parts,objects,1500,0,3,3
208,47210,0,209,3,3,1,gain1,no_gain3,F,I,28,24,body_parts,body_parts,86,77,Stimuli/Experimental_stims/body_parts/ira-vishnevskaya-8DQAvdCby1I-unsplash.jpg,Stimuli/Experimental_stims/body_parts/clay-banks-LjqARJaJotc-unsplash.jpg,0,0,729,0,chosen,24,28,body_parts,body_parts,2800,0,3,3
209,47210,0,210,3,3,1,gain6,no_gain3,B,I,11,24,outdoor_scenes,body_parts,86,77,Stimuli/Experimental_stims/outdoor_scenes/stephen-leonardi-gyIRjKPXupE-unsplash.jpg,Stimuli/Experimental_stims/body_parts/clay-banks-LjqARJaJotc-unsplash.jpg,0,1,831,1,chosen,11,24,outdoor_scenes,body_parts,3400,1,3,3
210,47210,0,211,3,3,1,gain2,no_gain4,J,E,45,38,objects,objects,92,63,Stimuli/Experimental_stims/objects/leohoho-rngTKHXumy0-unsplash.jpg,Stimuli/Experimental_stims/objects/art-lasovsky-8XddFc6NkBY-unsplash.jpg,0,1,886,1,unchosen,45,38,objects,objects,1500,0,3,3
211,47210,0,212,3,3,1,gain2,no_gain2,J,G,45,6,objects,outdoor_scenes,92,89,Stimuli/Experimental_stims/objects/leohoho-rngTKHXumy0-unsplash.jpg,Stimuli/Experimental_stims/outdoor_scenes/meng-ji-8BH_M-53CyA-unsplash.jpg,0,1,746,1,unchosen,45,6,objects,outdoor_scenes,1500,0,3,3
212,47210,0,213,3,3,1,gain6,no_gain1,B,A,11,41,outdoor_scenes,objects,86,91,Stimuli/Experimental_stims/outdoor_scenes/stephen-leonardi-gyIRjKPXupE-unsplash.jpg,Stimuli/Experimental_stims/objects/insung-yoon-w2JtIQQXoRU-unsplash.jpg,0,1,817,1,chosen,11,41,outdoor_scenes,objects,1500,0,3,3
213,47210,0,214,3,3,0,no_gain5,gain2,L,J,16,45,faces,objects,32,92,Stimuli/Experimental_stims/faces/freddy-kearney-o-ioeoATbIM-unsplash.jpg,Stimuli/Experimental_stims/objects/leohoho-rngTKHXumy0-unsplash.jpg,0,1,702,0,unchosen,16,45,faces,objects,1200,0,3,3
214,47210,0,215,3,3,0,no_gain4,gain5,E,C,31,30,body_parts,body_parts,75,65,Stimuli/Experimental_stims/body_parts/sincerely-media-VN6DbKajo5s-unsplash.jpg,Stimuli/Experimental_stims/body_parts/mika-korhonen-Xodzxosar18-unsplash.jpg,0,0,685,1,chosen,30,31,body_parts,body_parts,1900,0,3,3
215,47210,0,216,3,3,1,gain6,no_gain4,B,E,23,38,faces,objects,39,63,Stimuli/Experimental_stims/faces/rikonavt-HQjfrvdTfak-unsplash.jpg,Stimuli/Experimental_stims/objects/art-lasovsky-8XddFc6NkBY-unsplash.jpg,0,0,684,0,unchosen,38,23,objects,faces,3600,1,3,3
216,47210,0,217,3,3,0,no_gain2,gain5,G,C,6,5,outdoor_scenes,outdoor_scenes,89,95,Stimuli/Experimental_stims/outdoor_scenes/meng-ji-8BH_M-53CyA-unsplash.jpg,Stimuli/Experimental_stims/outdoor_scenes/jeff-king-bJHWJeiHfHc-unsplash.jpg,0,0,913,1,unchosen,5,6,outdoor_scenes,outdoor_scenes,2500,0,3,3
217,47210,0,218,3,3,0,no_gain4,gain2,E,J,31,19,body_parts,faces,75,76,Stimuli/Experimental_stims/body_parts/sincerely-media-VN6DbKajo5s-unsplash.jpg,Stimuli/Experimental_stims/faces/joel-mott-LaK153ghdig-unsplash.jpg,0,0,763,1,chosen,19,31,faces,body_parts,1600,0,3,3
218,47210,0,219,3,3,1,gain6,no_gain3,B,I,23,8,faces,outdoor_scenes,39,43,Stimuli/Experimental_stims/faces/rikonavt-HQjfrvdTfak-unsplash.jpg,Stimuli/Experimental_stims/outdoor_scenes/samsommer-vddccTqwal8-unsplash.jpg,0,0,936,0,unchosen,8,23,outdoor_scenes,faces,1200,0,3,3
219,47210,0,220,3,3,0,no_gain1,gain5,A,C,1,5,outdoor_scenes,outdoor_scenes,70,95,Stimuli/Experimental_stims/outdoor_scenes/ashim-d-silva-S2Q5mdOrrVc-unsplash.jpg,Stimuli/Experimental_stims/outdoor_scenes/jeff-king-bJHWJeiHfHc-unsplash.jpg,0,0,891,1,unchosen,5,1,outdoor_scenes,outdoor_scenes,1300,0,3,3
220,47210,0,221,4,4,0,no_gain6,gain5,H,C,17,5,faces,outdoor_scenes,68,95,Stimuli/Experimental_stims/faces/good-faces-xmSWVeGEnJw-unsplash.jpg,Stimuli/Experimental_stims/outdoor_scenes/jeff-king-bJHWJeiHfHc-unsplash.jpg,0,0,1410,1,unchosen,5,17,outdoor_scenes,faces,3300,1,1,3
221,47210,0,222,4,4,0,no_gain4,gain5,E,C,38,5,objects,outdoor_scenes,63,95,Stimuli/Experimental_stims/objects/art-lasovsky-8XddFc6NkBY-unsplash.jpg,Stimuli/Experimental_stims/outdoor_scenes/jeff-king-bJHWJeiHfHc-unsplash.jpg,0,1,985,0,unchosen,38,5,objects,outdoor_scenes,1400,0,1,3
222,47210,0,223,4,4,1,gain5,no_gain5,C,L,30,35,body_parts,body_parts,65,62,Stimuli/Experimental_stims/body_parts/mika-korhonen-Xodzxosar18-unsplash.jpg,Stimuli/Experimental_stims/body_parts/wc-so-KH4AAPjb-tI-unsplash.jpg,0,0,1136,0,chosen,35,30,body_parts,body_parts,2400,0,1,3
223,47210,0,224,4,4,0,no_gain3,gain4,I,D,24,36,body_parts,objects,77,77,Stimuli/Experimental_stims/body_parts/clay-banks-LjqARJaJotc-unsplash.jpg,Stimuli/Experimental_stims/objects/alexander-andrews-JYGnB9gTCls-unsplash.jpg,0,1,785,0,chosen,24,36,body_parts,objects,1200,0,1,3
224,47210,0,225,4,4,1,gain4,no_gain1,D,A,14,1,faces,outdoor_scenes,53,70,Stimuli/Experimental_stims/faces/david-siglin-UuW4psOb388-unsplash.jpg,Stimuli/Experimental_stims/outdoor_scenes/ashim-d-silva-S2Q5mdOrrVc-unsplash.jpg,0,0,1431,0,unchosen,1,14,outdoor_scenes,faces,1100,0,1,3
225,47210,0,226,4,4,0,no_gain1,gain1,A,F,1,13,outdoor_scenes,faces,70,81,Stimuli/Experimental_stims/outdoor_scenes/ashim-d-silva-S2Q5mdOrrVc-unsplash.jpg,Stimuli/Experimental_stims/faces/daniel-rigdon-dXmXKPP2L4E-unsplash.jpg,0,1,1227,0,unchosen,1,13,outdoor_scenes,faces,1600,0,1,3
226,47210,0,227,4,4,1,gain6,no_gain3,B,I,23,8,faces,outdoor_scenes,39,43,Stimuli/Experimental_stims/faces/rikonavt-HQjfrvdTfak-unsplash.jpg,Stimuli/Experimental_stims/outdoor_scenes/samsommer-vddccTqwal8-unsplash.jpg,0,0,1174,0,unchosen,8,23,outdoor_scenes,faces,3100,1,1,3
227,47210,0,228,4,4,0,no_gain2,gain4,G,D,44,36,objects,objects,83,77,Stimuli/Experimental_stims/objects/kuiye-chen-NuOGFo4PudE-unsplash.jpg,Stimuli/Experimental_stims/objects/alexander-andrews-JYGnB9gTCls-unsplash.jpg,0,1,832,0,chosen,44,36,objects,objects,1000,0,1,3
228,47210,0,229,4,4,1,gain6,no_gain5,B,L,11,35,outdoor_scenes,body_parts,86,62,Stimuli/Experimental_stims/outdoor_scenes/stephen-leonardi-gyIRjKPXupE-unsplash.jpg,Stimuli/Experimental_stims/body_parts/wc-so-KH4AAPjb-tI-unsplash.jpg,1,NaN,,NaN,chosen,NaN,NaN,NaN,NaN,3000,0,1,3
229,47210,0,230,4,4,0,no_gain4,gain5,E,C,31,30,body_parts,body_parts,75,65,Stimuli/Experimental_stims/body_parts/sincerely-media-VN6DbKajo5s-unsplash.jpg,Stimuli/Experimental_stims/body_parts/mika-korhonen-Xodzxosar18-unsplash.jpg,0,1,1013,0,chosen,31,30,body_parts,body_parts,1700,0,1,3
230,47210,0,231,4,4,1,gain1,no_gain4,F,E,13,38,faces,objects,81,63,Stimuli/Experimental_stims/faces/daniel-rigdon-dXmXKPP2L4E-unsplash.jpg,Stimuli/Experimental_stims/objects/art-lasovsky-8XddFc6NkBY-unsplash.jpg,0,1,990,1,unchosen,13,38,faces,objects,2400,0,1,3
231,47210,0,232,4,4,0,no_gain6,gain2,H,J,0,19,outdoor_scenes,faces,85,76,Stimuli/Experimental_stims/outdoor_scenes/aleksandra-boguslawska-MS7KD9Ti7FQ-unsplash.jpg,Stimuli/Experimental_stims/faces/joel-mott-LaK153ghdig-unsplash.jpg,0,0,874,1,chosen,19,0,faces,outdoor_scenes,4000,1,1,3
232,47210,0,233,4,4,0,no_gain6,gain1,H,F,17,13,faces,faces,68,81,Stimuli/Experimental_stims/faces/good-faces-xmSWVeGEnJw-unsplash.jpg,Stimuli/Experimental_stims/faces/daniel-rigdon-dXmXKPP2L4E-unsplash.jpg,0,0,749,1,unchosen,13,17,faces,faces,1900,0,1,3
233,47210,0,234,4,4,1,gain3,no_gain4,K,E,25,31,body_parts,body_parts,42,75,Stimuli/Experimental_stims/body_parts/engin-akyurt-Q2rfH3GW39c-unsplash.jpg,Stimuli/Experimental_stims/body_parts/sincerely-media-VN6DbKajo5s-unsplash.jpg,0,0,1352,0,chosen,31,25,body_parts,body_parts,1100,0,1,3
234,47210,0,235,4,4,1,gain5,no_gain1,C,A,5,1,outdoor_scenes,outdoor_scenes,95,70,Stimuli/Experimental_stims/outdoor_scenes/jeff-king-bJHWJeiHfHc-unsplash.jpg,Stimuli/Experimental_stims/outdoor_scenes/ashim-d-silva-S2Q5mdOrrVc-unsplash.jpg,0,1,1122,1,unchosen,5,1,outdoor_scenes,outdoor_scenes,1300,0,1,3
235,47210,0,236,4,4,0,no_gain4,gain4,E,D,31,36,body_parts,objects,75,77,Stimuli/Experimental_stims/body_parts/sincerely-media-VN6DbKajo5s-unsplash.jpg,Stimuli/Experimental_stims/objects/alexander-andrews-JYGnB9gTCls-unsplash.jpg,0,1,821,0,chosen,31,36,body_parts,objects,1900,0,1,3
236,47210,0,237,4,4,1,gain4,no_gain4,D,E,14,38,faces,objects,53,63,Stimuli/Experimental_stims/faces/david-siglin-UuW4psOb388-unsplash.jpg,Stimuli/Experimental_stims/objects/art-lasovsky-8XddFc6NkBY-unsplash.jpg,0,1,769,1,unchosen,14,38,faces,objects,1800,0,1,3
237,47210,0,238,4,4,1,gain4,no_gain5,D,L,14,16,faces,faces,53,32,Stimuli/Experimental_stims/faces/david-siglin-UuW4psOb388-unsplash.jpg,Stimuli/Experimental_stims/faces/freddy-kearney-o-ioeoATbIM-unsplash.jpg,0,0,937,0,unchosen,16,14,faces,faces,4300,1,1,3
238,47210,0,239,4,4,1,gain5,no_gain5,C,L,5,16,outdoor_scenes,faces,95,32,Stimuli/Experimental_stims/outdoor_scenes/jeff-king-bJHWJeiHfHc-unsplash.jpg,Stimuli/Experimental_stims/faces/freddy-kearney-o-ioeoATbIM-unsplash.jpg,0,1,850,1,unchosen,5,16,outdoor_scenes,faces,2300,0,1,3
239,47210,0,240,4,4,1,gain3,no_gain2,K,G,25,44,body_parts,objects,42,83,Stimuli/Experimental_stims/body_parts/engin-akyurt-Q2rfH3GW39c-unsplash.jpg,Stimuli/Experimental_stims/objects/kuiye-chen-NuOGFo4PudE-unsplash.jpg,0,1,1158,1,chosen,25,44,body_parts,objects,1200,0,1,3
240,47210,0,241,4,4,0,no_gain4,gain2,E,J,31,19,body_parts,faces,75,76,Stimuli/Experimental_stims/body_parts/sincerely-media-VN6DbKajo5s-unsplash.jpg,Stimuli/Experimental_stims/faces/joel-mott-LaK153ghdig-unsplash.jpg,0,0,1240,1,chosen,19,31,faces,body_parts,1300,0,1,3
241,47210,0,242,4,4,0,no_gain3,gain1,I,F,8,13,outdoor_scenes,faces,43,81,Stimuli/Experimental_stims/outdoor_scenes/samsommer-vddccTqwal8-unsplash.jpg,Stimuli/Experimental_stims/faces/daniel-rigdon-dXmXKPP2L4E-unsplash.jpg,0,0,999,1,unchosen,13,8,faces,outdoor_scenes,1900,0,1,3
242,47210,0,243,4,4,1,gain3,no_gain6,K,H,46,17,objects,faces,91,68,Stimuli/Experimental_stims/objects/mockup-graphics-PNsj6RiHAF4-unsplash.jpg,Stimuli/Experimental_stims/faces/good-faces-xmSWVeGEnJw-unsplash.jpg,0,0,705,0,unchosen,17,46,faces,objects,1300,0,1,3
243,47210,0,244,4,4,1,gain4,no_gain1,D,A,36,41,objects,objects,77,91,Stimuli/Experimental_stims/objects/alexander-andrews-JYGnB9gTCls-unsplash.jpg,Stimuli/Experimental_stims/objects/insung-yoon-w2JtIQQXoRU-unsplash.jpg,0,0,1180,0,chosen,41,36,objects,objects,4200,1,1,3
244,47210,0,245,4,4,0,no_gain2,gain5,G,C,6,5,outdoor_scenes,outdoor_scenes,89,95,Stimuli/Experimental_stims/outdoor_scenes/meng-ji-8BH_M-53CyA-unsplash.jpg,Stimuli/Experimental_stims/outdoor_scenes/jeff-king-bJHWJeiHfHc-unsplash.jpg,0,1,823,0,unchosen,6,5,outdoor_scenes,outdoor_scenes,2400,0,1,3
245,47210,0,246,4,4,1,gain2,no_gain2,J,G,19,44,faces,objects,76,83,Stimuli/Experimental_stims/faces/joel-mott-LaK153ghdig-unsplash.jpg,Stimuli/Experimental_stims/objects/kuiye-chen-NuOGFo4PudE-unsplash.jpg,0,1,949,1,chosen,19,44,faces,objects,1700,0,1,3
246,47210,0,247,4,4,0,no_gain1,gain5,A,C,41,30,objects,body_parts,91,65,Stimuli/Experimental_stims/objects/insung-yoon-w2JtIQQXoRU-unsplash.jpg,Stimuli/Experimental_stims/body_parts/mika-korhonen-Xodzxosar18-unsplash.jpg,0,1,732,0,chosen,41,30,objects,body_parts,1600,0,1,3
247,47210,0,248,4,4,1,gain3,no_gain5,K,L,46,16,objects,faces,91,32,Stimuli/Experimental_stims/objects/mockup-graphics-PNsj6RiHAF4-unsplash.jpg,Stimuli/Experimental_stims/faces/freddy-kearney-o-ioeoATbIM-unsplash.jpg,0,1,674,1,unchosen,46,16,objects,faces,1100,0,1,3
248,47210,0,249,4,4,0,no_gain2,gain1,G,F,6,13,outdoor_scenes,faces,89,81,Stimuli/Experimental_stims/outdoor_scenes/meng-ji-8BH_M-53CyA-unsplash.jpg,Stimuli/Experimental_stims/faces/daniel-rigdon-dXmXKPP2L4E-unsplash.jpg,0,1,1124,0,unchosen,6,13,outdoor_scenes,faces,1200,0,1,3
249,47210,0,250,4,4,1,gain6,no_gain3,B,I,11,24,outdoor_scenes,body_parts,86,77,Stimuli/Experimental_stims/outdoor_scenes/stephen-leonardi-gyIRjKPXupE-unsplash.jpg,Stimuli/Experimental_stims/body_parts/clay-banks-LjqARJaJotc-unsplash.jpg,0,0,977,0,chosen,24,11,body_parts,outdoor_scenes,3100,1,1,3
250,47210,0,251,4,4,1,gain3,no_gain6,K,H,25,0,body_parts,outdoor_scenes,42,85,Stimuli/Experimental_stims/body_parts/engin-akyurt-Q2rfH3GW39c-unsplash.jpg,Stimuli/Experimental_stims/outdoor_scenes/aleksandra-boguslawska-MS7KD9Ti7FQ-unsplash.jpg,0,1,834,1,chosen,25,0,body_parts,outdoor_scenes,2600,0,1,3
251,47210,0,252,4,4,0,no_gain1,gain6,A,B,1,23,outdoor_scenes,faces,70,39,Stimuli/Experimental_stims/outdoor_scenes/ashim-d-silva-S2Q5mdOrrVc-unsplash.jpg,Stimuli/Experimental_stims/faces/rikonavt-HQjfrvdTfak-unsplash.jpg,0,0,698,1,unchosen,23,1,faces,outdoor_scenes,2400,0,1,3
252,47210,0,253,4,4,1,gain2,no_gain3,J,I,45,8,objects,outdoor_scenes,92,43,Stimuli/Experimental_stims/objects/leohoho-rngTKHXumy0-unsplash.jpg,Stimuli/Experimental_stims/outdoor_scenes/samsommer-vddccTqwal8-unsplash.jpg,0,1,636,1,unchosen,45,8,objects,outdoor_scenes,1000,0,1,3
253,47210,0,254,4,4,0,no_gain6,gain4,H,D,0,36,outdoor_scenes,objects,85,77,Stimuli/Experimental_stims/outdoor_scenes/aleksandra-boguslawska-MS7KD9Ti7FQ-unsplash.jpg,Stimuli/Experimental_stims/objects/alexander-andrews-JYGnB9gTCls-unsplash.jpg,0,1,946,0,chosen,0,36,outdoor_scenes,objects,3000,0,1,3
254,47210,0,255,4,4,0,no_gain4,gain1,E,F,31,28,body_parts,body_parts,75,86,Stimuli/Experimental_stims/body_parts/sincerely-media-VN6DbKajo5s-unsplash.jpg,Stimuli/Experimental_stims/body_parts/ira-vishnevskaya-8DQAvdCby1I-unsplash.jpg,0,0,1024,1,chosen,28,31,body_parts,body_parts,2400,0,1,3
255,47210,0,256,4,4,0,no_gain2,gain3,G,K,6,46,outdoor_scenes,objects,89,91,Stimuli/Experimental_stims/outdoor_scenes/meng-ji-8BH_M-53CyA-unsplash.jpg,Stimuli/Experimental_stims/objects/mockup-graphics-PNsj6RiHAF4-unsplash.jpg,0,0,788,1,unchosen,46,6,objects,outdoor_scenes,2300,0,1,3
256,47210,0,257,4,4,1,gain3,no_gain3,K,I,25,24,body_parts,body_parts,42,77,Stimuli/Experimental_stims/body_parts/engin-akyurt-Q2rfH3GW39c-unsplash.jpg,Stimuli/Experimental_stims/body_parts/clay-banks-LjqARJaJotc-unsplash.jpg,0,1,583,1,chosen,25,24,body_parts,body_parts,1900,0,1,3
257,47210,0,258,4,4,1,gain4,no_gain2,D,G,14,6,faces,outdoor_scenes,53,89,Stimuli/Experimental_stims/faces/david-siglin-UuW4psOb388-unsplash.jpg,Stimuli/Experimental_stims/outdoor_scenes/meng-ji-8BH_M-53CyA-unsplash.jpg,0,0,696,0,unchosen,6,14,outdoor_scenes,faces,3200,1,1,3
258,47210,0,259,4,4,0,no_gain4,gain6,E,B,38,23,objects,faces,63,39,Stimuli/Experimental_stims/objects/art-lasovsky-8XddFc6NkBY-unsplash.jpg,Stimuli/Experimental_stims/faces/rikonavt-HQjfrvdTfak-unsplash.jpg,0,1,760,0,unchosen,38,23,objects,faces,1000,0,1,3
259,47210,0,260,4,4,1,gain5,no_gain3,C,I,30,24,body_parts,body_parts,65,77,Stimuli/Experimental_stims/body_parts/mika-korhonen-Xodzxosar18-unsplash.jpg,Stimuli/Experimental_stims/body_parts/clay-banks-LjqARJaJotc-unsplash.jpg,0,0,905,0,chosen,24,30,body_parts,body_parts,1200,0,1,3
260,47210,0,261,4,4,0,no_gain5,gain4,L,D,35,36,body_parts,objects,62,77,Stimuli/Experimental_stims/body_parts/wc-so-KH4AAPjb-tI-unsplash.jpg,Stimuli/Experimental_stims/objects/alexander-andrews-JYGnB9gTCls-unsplash.jpg,0,1,898,0,chosen,35,36,body_parts,objects,2700,0,1,3
261,47210,0,262,4,4,0,no_gain1,gain1,A,F,41,28,objects,body_parts,91,86,Stimuli/Experimental_stims/objects/insung-yoon-w2JtIQQXoRU-unsplash.jpg,Stimuli/Experimental_stims/body_parts/ira-vishnevskaya-8DQAvdCby1I-unsplash.jpg,0,1,915,0,chosen,41,28,objects,body_parts,1300,0,1,3
262,47210,0,263,4,4,0,no_gain1,gain2,A,J,1,45,outdoor_scenes,objects,70,92,Stimuli/Experimental_stims/outdoor_scenes/ashim-d-silva-S2Q5mdOrrVc-unsplash.jpg,Stimuli/Experimental_stims/objects/leohoho-rngTKHXumy0-unsplash.jpg,0,1,859,0,unchosen,1,45,outdoor_scenes,objects,1500,0,1,3
263,47210,0,264,4,4,1,gain3,no_gain5,K,L,25,35,body_parts,body_parts,42,62,Stimuli/Experimental_stims/body_parts/engin-akyurt-Q2rfH3GW39c-unsplash.jpg,Stimuli/Experimental_stims/body_parts/wc-so-KH4AAPjb-tI-unsplash.jpg,0,0,962,0,chosen,35,25,body_parts,body_parts,3700,1,1,3
264,47210,0,265,4,4,0,no_gain2,gain5,G,C,44,30,objects,body_parts,83,65,Stimuli/Experimental_stims/objects/kuiye-chen-NuOGFo4PudE-unsplash.jpg,Stimuli/Experimental_stims/body_parts/mika-korhonen-Xodzxosar18-unsplash.jpg,0,1,882,0,chosen,44,30,objects,body_parts,1000,0,1,3
265,47210,0,266,4,4,1,gain4,no_gain6,D,H,14,17,faces,faces,53,68,Stimuli/Experimental_stims/faces/david-siglin-UuW4psOb388-unsplash.jpg,Stimuli/Experimental_stims/faces/good-faces-xmSWVeGEnJw-unsplash.jpg,0,1,925,1,unchosen,14,17,faces,faces,1700,0,1,3
266,47210,0,267,4,4,1,gain4,no_gain3,D,I,14,8,faces,outdoor_scenes,53,43,Stimuli/Experimental_stims/faces/david-siglin-UuW4psOb388-unsplash.jpg,Stimuli/Experimental_stims/outdoor_scenes/samsommer-vddccTqwal8-unsplash.jpg,0,1,774,1,unchosen,14,8,faces,outdoor_scenes,1100,0,1,3
267,47210,0,268,4,4,0,no_gain4,gain3,E,K,38,46,objects,objects,63,91,Stimuli/Experimental_stims/objects/art-lasovsky-8XddFc6NkBY-unsplash.jpg,Stimuli/Experimental_stims/objects/mockup-graphics-PNsj6RiHAF4-unsplash.jpg,0,1,733,0,unchosen,38,46,objects,objects,1200,0,1,3
268,47210,0,269,4,4,1,gain5,no_gain6,C,H,30,0,body_parts,outdoor_scenes,65,85,Stimuli/Experimental_stims/body_parts/mika-korhonen-Xodzxosar18-unsplash.jpg,Stimuli/Experimental_stims/outdoor_scenes/aleksandra-boguslawska-MS7KD9Ti7FQ-unsplash.jpg,0,0,749,0,chosen,0,30,outdoor_scenes,body_parts,1300,0,1,3
269,47210,0,270,4,4,1,gain6,no_gain1,B,A,11,41,outdoor_scenes,objects,86,91,Stimuli/Experimental_stims/outdoor_scenes/stephen-leonardi-gyIRjKPXupE-unsplash.jpg,Stimuli/Experimental_stims/objects/insung-yoon-w2JtIQQXoRU-unsplash.jpg,0,1,547,1,chosen,11,41,outdoor_scenes,objects,1700,0,1,3
270,47210,0,271,4,4,1,gain2,no_gain2,J,G,45,6,objects,outdoor_scenes,92,89,Stimuli/Experimental_stims/objects/leohoho-rngTKHXumy0-unsplash.jpg,Stimuli/Experimental_stims/outdoor_scenes/meng-ji-8BH_M-53CyA-unsplash.jpg,0,0,651,0,unchosen,6,45,outdoor_scenes,objects,3400,1,1,3
271,47210,0,272,4,4,0,no_gain5,gain6,L,B,16,23,faces,faces,32,39,Stimuli/Experimental_stims/faces/freddy-kearney-o-ioeoATbIM-unsplash.jpg,Stimuli/Experimental_stims/faces/rikonavt-HQjfrvdTfak-unsplash.jpg,0,0,1077,1,unchosen,23,16,faces,faces,2500,0,1,3
272,47210,0,273,4,4,1,gain2,no_gain1,J,A,19,41,faces,objects,76,91,Stimuli/Experimental_stims/faces/joel-mott-LaK153ghdig-unsplash.jpg,Stimuli/Experimental_stims/objects/insung-yoon-w2JtIQQXoRU-unsplash.jpg,0,0,1000,0,chosen,41,19,objects,faces,2600,0,1,3
273,47210,0,274,4,4,1,gain2,no_gain6,J,H,45,17,objects,faces,92,68,Stimuli/Experimental_stims/objects/leohoho-rngTKHXumy0-unsplash.jpg,Stimuli/Experimental_stims/faces/good-faces-xmSWVeGEnJw-unsplash.jpg,0,1,1178,1,unchosen,45,17,objects,faces,2000,0,1,3
274,47210,0,275,4,4,0,no_gain1,gain3,A,K,41,25,objects,body_parts,91,42,Stimuli/Experimental_stims/objects/insung-yoon-w2JtIQQXoRU-unsplash.jpg,Stimuli/Experimental_stims/body_parts/engin-akyurt-Q2rfH3GW39c-unsplash.jpg,0,1,812,0,chosen,41,25,objects,body_parts,1900,0,1,3
275,47210,0,276,4,4,0,no_gain2,gain6,G,B,6,23,outdoor_scenes,faces,89,39,Stimuli/Experimental_stims/outdoor_scenes/meng-ji-8BH_M-53CyA-unsplash.jpg,Stimuli/Experimental_stims/faces/rikonavt-HQjfrvdTfak-unsplash.jpg,0,0,1069,1,unchosen,23,6,faces,outdoor_scenes,1500,0,1,3
276,47210,0,277,4,4,1,gain2,no_gain5,J,L,45,16,objects,faces,92,32,Stimuli/Experimental_stims/objects/leohoho-rngTKHXumy0-unsplash.jpg,Stimuli/Experimental_stims/faces/freddy-kearney-o-ioeoATbIM-unsplash.jpg,0,1,807,1,unchosen,45,16,objects,faces,2500,0,1,3
277,47210,0,278,4,4,0,no_gain6,gain6,H,B,0,11,outdoor_scenes,outdoor_scenes,85,86,Stimuli/Experimental_stims/outdoor_scenes/aleksandra-boguslawska-MS7KD9Ti7FQ-unsplash.jpg,Stimuli/Experimental_stims/outdoor_scenes/stephen-leonardi-gyIRjKPXupE-unsplash.jpg,0,0,1004,1,chosen,11,0,outdoor_scenes,outdoor_scenes,1400,0,1,3
278,47210,0,279,4,4,0,no_gain3,gain2,I,J,24,19,body_parts,faces,77,76,Stimuli/Experimental_stims/body_parts/clay-banks-LjqARJaJotc-unsplash.jpg,Stimuli/Experimental_stims/faces/joel-mott-LaK153ghdig-unsplash.jpg,0,1,1277,0,chosen,24,19,body_parts,faces,1300,0,1,3
279,47210,0,280,4,4,1,gain6,no_gain6,B,H,23,17,faces,faces,39,68,Stimuli/Experimental_stims/faces/rikonavt-HQjfrvdTfak-unsplash.jpg,Stimuli/Experimental_stims/faces/good-faces-xmSWVeGEnJw-unsplash.jpg,0,0,769,0,unchosen,17,23,faces,faces,1100,0,1,3
280,47210,0,281,4,4,1,gain6,no_gain2,B,G,11,44,outdoor_scenes,objects,86,83,Stimuli/Experimental_stims/outdoor_scenes/stephen-leonardi-gyIRjKPXupE-unsplash.jpg,Stimuli/Experimental_stims/objects/kuiye-chen-NuOGFo4PudE-unsplash.jpg,0,1,791,1,chosen,11,44,outdoor_scenes,objects,1100,0,1,3
281,47210,0,282,4,4,1,gain2,no_gain5,J,L,19,35,faces,body_parts,76,62,Stimuli/Experimental_stims/faces/joel-mott-LaK153ghdig-unsplash.jpg,Stimuli/Experimental_stims/body_parts/wc-so-KH4AAPjb-tI-unsplash.jpg,0,0,627,0,chosen,35,19,body_parts,faces,3900,1,1,3
282,47210,0,283,4,4,1,gain2,no_gain4,J,E,45,38,objects,objects,92,63,Stimuli/Experimental_stims/objects/leohoho-rngTKHXumy0-unsplash.jpg,Stimuli/Experimental_stims/objects/art-lasovsky-8XddFc6NkBY-unsplash.jpg,0,1,819,1,unchosen,45,38,objects,objects,1200,0,1,3
283,47210,0,284,4,4,0,no_gain4,gain6,E,B,31,11,body_parts,outdoor_scenes,75,86,Stimuli/Experimental_stims/body_parts/sincerely-media-VN6DbKajo5s-unsplash.jpg,Stimuli/Experimental_stims/outdoor_scenes/stephen-leonardi-gyIRjKPXupE-unsplash.jpg,0,0,1302,1,chosen,11,31,outdoor_scenes,body_parts,1800,0,1,3
284,47210,0,285,4,4,0,no_gain1,gain3,A,K,1,46,outdoor_scenes,objects,70,91,Stimuli/Experimental_stims/outdoor_scenes/ashim-d-silva-S2Q5mdOrrVc-unsplash.jpg,Stimuli/Experimental_stims/objects/mockup-graphics-PNsj6RiHAF4-unsplash.jpg,0,1,701,0,unchosen,1,46,outdoor_scenes,objects,1900,0,1,3
285,47210,0,286,4,4,1,gain1,no_gain3,F,I,28,24,body_parts,body_parts,86,77,Stimuli/Experimental_stims/body_parts/ira-vishnevskaya-8DQAvdCby1I-unsplash.jpg,Stimuli/Experimental_stims/body_parts/clay-banks-LjqARJaJotc-unsplash.jpg,1,NaN,,NaN,chosen,NaN,NaN,NaN,NaN,1100,0,1,3
286,47210,0,287,4,4,0,no_gain3,gain3,I,K,8,46,outdoor_scenes,objects,43,91,Stimuli/Experimental_stims/outdoor_scenes/samsommer-vddccTqwal8-unsplash.jpg,Stimuli/Experimental_stims/objects/mockup-graphics-PNsj6RiHAF4-unsplash.jpg,0,0,864,1,unchosen,46,8,objects,outdoor_scenes,3000,0,1,3
287,47210,0,288,4,4,0,no_gain5,gain1,L,F,16,13,faces,faces,32,81,Stimuli/Experimental_stims/faces/freddy-kearney-o-ioeoATbIM-unsplash.jpg,Stimuli/Experimental_stims/faces/daniel-rigdon-dXmXKPP2L4E-unsplash.jpg,0,0,885,1,unchosen,13,16,faces,faces,2800,0,1,3
288,47210,0,289,4,4,0,no_gain3,gain5,I,C,8,5,outdoor_scenes,outdoor_scenes,43,95,Stimuli/Experimental_stims/outdoor_scenes/samsommer-vddccTqwal8-unsplash.jpg,Stimuli/Experimental_stims/outdoor_scenes/jeff-king-bJHWJeiHfHc-unsplash.jpg,0,0,884,1,unchosen,5,8,outdoor_scenes,outdoor_scenes,1600,0,1,3
289,47210,0,290,4,4,0,no_gain6,gain1,H,F,0,28,outdoor_scenes,body_parts,85,86,Stimuli/Experimental_stims/outdoor_scenes/aleksandra-boguslawska-MS7KD9Ti7FQ-unsplash.jpg,Stimuli/Experimental_stims/body_parts/ira-vishnevskaya-8DQAvdCby1I-unsplash.jpg,0,1,714,0,chosen,0,28,outdoor_scenes,body_parts,1800,0,1,3
290,47210,0,291,4,4,0,no_gain2,gain1,G,F,44,28,objects,body_parts,83,86,Stimuli/Experimental_stims/objects/kuiye-chen-NuOGFo4PudE-unsplash.jpg,Stimuli/Experimental_stims/body_parts/ira-vishnevskaya-8DQAvdCby1I-unsplash.jpg,0,0,768,1,chosen,28,44,body_parts,objects,1900,0,1,3
291,47210,0,292,4,4,1,gain1,no_gain5,F,L,28,35,body_parts,body_parts,86,62,Stimuli/Experimental_stims/body_parts/ira-vishnevskaya-8DQAvdCby1I-unsplash.jpg,Stimuli/Experimental_stims/body_parts/wc-so-KH4AAPjb-tI-unsplash.jpg,0,1,776,1,chosen,28,35,body_parts,body_parts,1700,0,1,3