,PID,practice,trial,block,run,gain_left,left_item_id,right_item_id,left_pair_id,right_pair_id,left_stimulus,right_stimulus,left_category,left_rating,right_rating,right_category,left_path,right_path,no_response,left_chosen,rt,higher_outcome_chosen,choice_type,chosen_stimulus,unchosen_stimulus,chosen_category,unchosen_category,iti,long_iti,simulation,version
0,75229,1,1,0,0,0,,,,,,,,,,,Stimuli/Practice_stims/Final_decisions/debby-hudson-FmCSSSGge-0-unsplash.jpg,Stimuli/Practice_stims/Final_decisions/yassine-khalfalli-adsQ9d_Cx0c-unsplash.jpg,0,1,866,0,,,,,,3000,0,7,2
1,75229,1,2,0,0,0,,,,,,,,,,,Stimuli/Practice_stims/Final_decisions/florian-wehde-iVW7mZPwd4g-unsplash.jpg,Stimuli/Practice_stims/Final_decisions/patrick-perkins-3wylDrjxH-E-unsplash.jpg,0,1,879,0,,,,,,1500,0,7,2
2,75229,1,3,0,0,0,,,,,,,,,,,Stimuli/Practice_stims/Final_decisions/debby-hudson-FmCSSSGge-0-unsplash.jpg,Stimuli/Practice_stims/Final_decisions/florian-wehde-iVW7mZPwd4g-unsplash.jpg,0,0,678,1,,,,,,2000,0,7,2
3,75229,1,4,0,0,0,,,,,,,,,,,Stimuli/Practice_stims/Final_decisions/yassine-khalfalli-adsQ9d_Cx0c-unsplash.jpg,Stimuli/Practice_stims/Final_decisions/debby-hudson-FmCSSSGge-0-unsplash.jpg,0,0,834,1,,,,,,1000,0,7,2
4,75229,0,5,1,1,1,gain2,no_gain3,D,B,37,6,objects,59,84,outdoor_scenes,Stimuli/Experimental_stims/objects/alexander-andrews-VLGWE_SumrA-unsplash.jpg,Stimuli/Experimental_stims/outdoor_scenes/meng-ji-8BH_M-53CyA-unsplash.jpg,0,0,1245,0,unchosen,6,37,outdoor_scenes,objects,4100,1,7,2
5,75229,0,6,1,1,1,gain3,no_gain5,L,E,31,33,body_parts,56,64,body_parts,Stimuli/Experimental_stims/body_parts/sincerely-media-VN6DbKajo5s-unsplash.jpg,Stimuli/Experimental_stims/body_parts/tucker-good-36skLT5jZcc-unsplash.jpg,0,0,1385,0,chosen,33,31,body_parts,body_parts,1200,0,7,2
6,75229,0,7,1,1,1,gain1,no_gain3,J,B,39,18,objects,57,47,faces,Stimuli/Experimental_stims/objects/charlesdeluvio-1-nx1QR5dTE-unsplash.jpg,Stimuli/Experimental_stims/faces/jessica-radanavong-mrYkTuAesKE-unsplash.jpg,0,0,1428,0,chosen,18,39,faces,objects,2600,0,7,2
7,75229,0,8,1,1,1,gain2,no_gain4,D,H,14,9,faces,61,87,outdoor_scenes,Stimuli/Experimental_stims/faces/david-siglin-UuW4psOb388-unsplash.jpg,Stimuli/Experimental_stims/outdoor_scenes/sergey-pesterev-y-b_FOmJXdg-unsplash.jpg,1,NaN,,NaN,chosen,NaN,NaN,NaN,NaN,2000,0,7,2
8,75229,0,9,1,1,0,no_gain5,gain1,E,J,47,19,objects,57,79,faces,Stimuli/Experimental_stims/objects/ronaldo-arthur-vidal-Cdz_lvnl37k-unsplash.jpg,Stimuli/Experimental_stims/faces/joel-mott-LaK153ghdig-unsplash.jpg,0,0,1411,1,unchosen,19,47,faces,objects,1200,0,7,2
9,75229,0,10,1,1,0,no_gain4,gain3,H,L,9,31,outdoor_scenes,87,56,body_parts,Stimuli/Experimental_stims/outdoor_scenes/sergey-pesterev-y-b_FOmJXdg-unsplash.jpg,Stimuli/Experimental_stims/body_parts/sincerely-media-VN6DbKajo5s-unsplash.jpg,1,NaN,,NaN,chosen,NaN,NaN,NaN,NaN,3200,1,7,2
10,75229,0,11,1,1,0,no_gain1,gain3,I,L,27,31,body_parts,93,56,body_parts,Stimuli/Experimental_stims/body_parts/heike-mintel-i_Gns0ELnLw-unsplash.jpg,Stimuli/Experimental_stims/body_parts/sincerely-media-VN6DbKajo5s-unsplash.jpg,0,0,1343,1,chosen,31,27,body_parts,body_parts,1200,0,7,2
11,75229,0,12,1,1,0,no_gain2,gain1,K,J,36,39,objects,68,57,objects,Stimuli/Experimental_stims/objects/alexander-andrews-JYGnB9gTCls-unsplash.jpg,Stimuli/Experimental_stims/objects/charlesdeluvio-1-nx1QR5dTE-unsplash.jpg,0,0,1265,1,chosen,39,36,objects,objects,1800,0,7,2
12,75229,0,13,1,1,1,gain2,no_gain1,D,I,37,11,objects,59,80,outdoor_scenes,Stimuli/Experimental_stims/objects/alexander-andrews-VLGWE_SumrA-unsplash.jpg,Stimuli/Experimental_stims/outdoor_scenes/stephen-leonardi-gyIRjKPXupE-unsplash.jpg,0,1,1256,1,unchosen,37,11,objects,outdoor_scenes,1600,0,7,2
13,75229,0,14,1,1,0,no_gain6,gain6,A,F,5,21,outdoor_scenes,68,64,faces,Stimuli/Experimental_stims/outdoor_scenes/jeff-king-bJHWJeiHfHc-unsplash.jpg,Stimuli/Experimental_stims/faces/leilani-angel-K84vnnzxmTQ-unsplash.jpg,1,NaN,,NaN,unchosen,NaN,NaN,NaN,NaN,1300,0,7,2
14,75229,0,15,1,1,0,no_gain1,gain5,I,C,11,3,outdoor_scenes,80,78,outdoor_scenes,Stimuli/Experimental_stims/outdoor_scenes/stephen-leonardi-gyIRjKPXupE-unsplash.jpg,Stimuli/Experimental_stims/outdoor_scenes/henry-be-NLF6hTe4PAg-unsplash.jpg,1,NaN,,NaN,unchosen,NaN,NaN,NaN,NaN,1900,0,7,2
15,75229,0,16,1,1,0,no_gain3,gain2,B,D,18,14,faces,47,61,faces,Stimuli/Experimental_stims/faces/jessica-radanavong-mrYkTuAesKE-unsplash.jpg,Stimuli/Experimental_stims/faces/david-siglin-UuW4psOb388-unsplash.jpg,0,0,1493,1,chosen,14,18,faces,faces,4100,1,7,2
16,75229,0,17,1,1,1,gain4,no_gain2,G,K,45,29,objects,58,83,body_parts,Stimuli/Experimental_stims/objects/leohoho-rngTKHXumy0-unsplash.jpg,Stimuli/Experimental_stims/body_parts/manuel-schinner-ZwjFuJ7ebpk-unsplash.jpg,0,1,1445,1,unchosen,45,29,objects,body_parts,1100,0,7,2
17,75229,0,18,1,1,1,gain6,no_gain2,F,K,32,36,body_parts,57,68,objects,Stimuli/Experimental_stims/body_parts/towfiqu-barbhuiya-3AsiVDsZnHg-unsplash.jpg,Stimuli/Experimental_stims/objects/alexander-andrews-JYGnB9gTCls-unsplash.jpg,1,NaN,,NaN,chosen,NaN,NaN,NaN,NaN,1200,0,7,2
18,75229,0,19,1,1,1,gain5,no_gain4,C,H,3,20,outdoor_scenes,78,62,faces,Stimuli/Experimental_stims/outdoor_scenes/henry-be-NLF6hTe4PAg-unsplash.jpg,Stimuli/Experimental_stims/faces/justin-chen-J7Cf1Gch49E-unsplash.jpg,1,NaN,,NaN,unchosen,NaN,NaN,NaN,NaN,1400,0,7,2
19,75229,0,20,1,1,0,no_gain4,gain1,H,J,9,39,outdoor_scenes,87,57,objects,Stimuli/Experimental_stims/outdoor_scenes/sergey-pesterev-y-b_FOmJXdg-unsplash.jpg,Stimuli/Experimental_stims/objects/charlesdeluvio-1-nx1QR5dTE-unsplash.jpg,0,0,130,1,chosen,39,9,objects,outdoor_scenes,1300,0,7,2
20,75229,0,21,1,1,1,gain6,no_gain6,F,A,32,40,body_parts,57,58,objects,Stimuli/Experimental_stims/body_parts/towfiqu-barbhuiya-3AsiVDsZnHg-unsplash.jpg,Stimuli/Experimental_stims/objects/fabian-blank-pElSkGRA2NU-unsplash.jpg,0,0,1128,0,chosen,40,32,objects,body_parts,4600,1,7,2
21,75229,0,22,1,1,0,no_gain1,gain3,I,L,11,15,outdoor_scenes,80,40,faces,Stimuli/Experimental_stims/outdoor_scenes/stephen-leonardi-gyIRjKPXupE-unsplash.jpg,Stimuli/Experimental_stims/faces/erik-lucatero-d2MSDujJl2g-unsplash.jpg,1,NaN,,NaN,unchosen,NaN,NaN,NaN,NaN,1000,0,7,2
22,75229,0,23,1,1,1,gain4,no_gain4,G,H,4,9,outdoor_scenes,75,87,outdoor_scenes,Stimuli/Experimental_stims/outdoor_scenes/jarrett-kow-1ZOyYPOBn7I-unsplash.jpg,Stimuli/Experimental_stims/outdoor_scenes/sergey-pesterev-y-b_FOmJXdg-unsplash.jpg,0,0,1452,0,chosen,9,4,outdoor_scenes,outdoor_scenes,1100,0,7,2
23,75229,0,24,1,1,0,no_gain1,gain4,I,G,11,45,outdoor_scenes,80,58,objects,Stimuli/Experimental_stims/outdoor_scenes/stephen-leonardi-gyIRjKPXupE-unsplash.jpg,Stimuli/Experimental_stims/objects/leohoho-rngTKHXumy0-unsplash.jpg,0,0,995,1,unchosen,45,11,objects,outdoor_scenes,1700,0,7,2
24,75229,0,25,1,1,0,no_gain3,gain5,B,C,6,3,outdoor_scenes,84,78,outdoor_scenes,Stimuli/Experimental_stims/outdoor_scenes/meng-ji-8BH_M-53CyA-unsplash.jpg,Stimuli/Experimental_stims/outdoor_scenes/henry-be-NLF6hTe4PAg-unsplash.jpg,0,0,1392,1,unchosen,3,6,outdoor_scenes,outdoor_scenes,2800,0,7,2
25,75229,0,26,1,1,1,gain4,no_gain3,G,B,4,18,outdoor_scenes,75,47,faces,Stimuli/Experimental_stims/outdoor_scenes/jarrett-kow-1ZOyYPOBn7I-unsplash.jpg,Stimuli/Experimental_stims/faces/jessica-radanavong-mrYkTuAesKE-unsplash.jpg,0,0,1028,0,chosen,18,4,faces,outdoor_scenes,3200,1,7,2
26,75229,0,27,1,1,1,gain5,no_gain6,C,A,28,40,body_parts,64,58,objects,Stimuli/Experimental_stims/body_parts/ira-vishnevskaya-8DQAvdCby1I-unsplash.jpg,Stimuli/Experimental_stims/objects/fabian-blank-pElSkGRA2NU-unsplash.jpg,0,1,1233,1,chosen,28,40,body_parts,objects,2000,0,7,2
27,75229,0,28,1,1,0,no_gain3,gain3,B,L,6,15,outdoor_scenes,84,40,faces,Stimuli/Experimental_stims/outdoor_scenes/meng-ji-8BH_M-53CyA-unsplash.jpg,Stimuli/Experimental_stims/faces/erik-lucatero-d2MSDujJl2g-unsplash.jpg,1,NaN,,NaN,unchosen,NaN,NaN,NaN,NaN,1600,0,7,2
28,75229,0,29,1,1,1,gain6,no_gain3,F,B,32,18,body_parts,57,47,faces,Stimuli/Experimental_stims/body_parts/towfiqu-barbhuiya-3AsiVDsZnHg-unsplash.jpg,Stimuli/Experimental_stims/faces/jessica-radanavong-mrYkTuAesKE-unsplash.jpg,0,0,904,0,chosen,18,32,faces,body_parts,1300,0,7,2
29,75229,0,30,1,1,1,gain5,no_gain5,C,E,3,47,outdoor_scenes,78,57,objects,Stimuli/Experimental_stims/outdoor_scenes/henry-be-NLF6hTe4PAg-unsplash.jpg,Stimuli/Experimental_stims/objects/ronaldo-arthur-vidal-Cdz_lvnl37k-unsplash.jpg,1,NaN,,NaN,unchosen,NaN,NaN,NaN,NaN,1200,0,7,2
30,75229,0,31,1,1,0,no_gain6,gain3,A,L,5,15,outdoor_scenes,68,40,faces,Stimuli/Experimental_stims/outdoor_scenes/jeff-king-bJHWJeiHfHc-unsplash.jpg,Stimuli/Experimental_stims/faces/erik-lucatero-d2MSDujJl2g-unsplash.jpg,0,1,889,0,unchosen,5,15,outdoor_scenes,faces,3500,1,7,2
31,75229,0,32,1,1,0,no_gain1,gain1,I,J,27,39,body_parts,93,57,objects,Stimuli/Experimental_stims/body_parts/heike-mintel-i_Gns0ELnLw-unsplash.jpg,Stimuli/Experimental_stims/objects/charlesdeluvio-1-nx1QR5dTE-unsplash.jpg,0,0,1437,1,chosen,39,27,objects,body_parts,1800,0,7,2
32,75229,0,33,1,1,0,no_gain5,gain6,E,F,47,21,objects,57,64,faces,Stimuli/Experimental_stims/objects/ronaldo-arthur-vidal-Cdz_lvnl37k-unsplash.jpg,Stimuli/Experimental_stims/faces/leilani-angel-K84vnnzxmTQ-unsplash.jpg,0,0,1324,1,unchosen,21,47,faces,objects,1600,0,7,2
33,75229,0,34,1,1,0,no_gain1,gain5,I,C,27,28,body_parts,93,64,body_parts,Stimuli/Experimental_stims/body_parts/heike-mintel-i_Gns0ELnLw-unsplash.jpg,Stimuli/Experimental_stims/body_parts/ira-vishnevskaya-8DQAvdCby1I-unsplash.jpg,0,1,1288,0,chosen,27,28,body_parts,body_parts,2000,0,7,2
34,75229,0,35,1,1,0,no_gain5,gain5,E,C,33,28,body_parts,64,64,body_parts,Stimuli/Experimental_stims/body_parts/tucker-good-36skLT5jZcc-unsplash.jpg,Stimuli/Experimental_stims/body_parts/ira-vishnevskaya-8DQAvdCby1I-unsplash.jpg,1,NaN,,NaN,chosen,NaN,NaN,NaN,NaN,1100,0,7,2
35,75229,0,36,1,1,1,gain1,no_gain2,J,K,19,29,faces,79,83,body_parts,Stimuli/Experimental_stims/faces/joel-mott-LaK153ghdig-unsplash.jpg,Stimuli/Experimental_stims/body_parts/manuel-schinner-ZwjFuJ7ebpk-unsplash.jpg,0,0,1189,0,unchosen,29,19,body_parts,faces,2800,0,7,2
36,75229,0,37,1,1,0,no_gain2,gain5,K,C,36,28,objects,68,64,body_parts,Stimuli/Experimental_stims/objects/alexander-andrews-JYGnB9gTCls-unsplash.jpg,Stimuli/Experimental_stims/body_parts/ira-vishnevskaya-8DQAvdCby1I-unsplash.jpg,0,0,789,1,chosen,28,36,body_parts,objects,3100,1,7,2
37,75229,0,38,1,1,0,no_gain4,gain2,H,D,20,37,faces,62,59,objects,Stimuli/Experimental_stims/faces/justin-chen-J7Cf1Gch49E-unsplash.jpg,Stimuli/Experimental_stims/objects/alexander-andrews-VLGWE_SumrA-unsplash.jpg,0,1,822,0,unchosen,20,37,faces,objects,1100,0,7,2
38,75229,0,39,1,1,0,no_gain4,gain1,H,J,20,19,faces,62,79,faces,Stimuli/Experimental_stims/faces/justin-chen-J7Cf1Gch49E-unsplash.jpg,Stimuli/Experimental_stims/faces/joel-mott-LaK153ghdig-unsplash.jpg,0,0,1396,1,unchosen,19,20,faces,faces,1100,0,7,2
39,75229,0,40,1,1,1,gain2,no_gain1,D,I,14,27,faces,61,93,body_parts,Stimuli/Experimental_stims/faces/david-siglin-UuW4psOb388-unsplash.jpg,Stimuli/Experimental_stims/body_parts/heike-mintel-i_Gns0ELnLw-unsplash.jpg,1,NaN,,NaN,chosen,NaN,NaN,NaN,NaN,1100,0,7,2
40,75229,0,41,1,1,1,gain2,no_gain5,D,E,37,47,objects,59,57,objects,Stimuli/Experimental_stims/objects/alexander-andrews-VLGWE_SumrA-unsplash.jpg,Stimuli/Experimental_stims/objects/ronaldo-arthur-vidal-Cdz_lvnl37k-unsplash.jpg,1,NaN,,NaN,unchosen,NaN,NaN,NaN,NaN,2300,0,7,2
41,75229,0,42,1,1,1,gain6,no_gain3,F,B,21,6,faces,64,84,outdoor_scenes,Stimuli/Experimental_stims/faces/leilani-angel-K84vnnzxmTQ-unsplash.jpg,Stimuli/Experimental_stims/outdoor_scenes/meng-ji-8BH_M-53CyA-unsplash.jpg,0,0,1326,0,unchosen,6,21,outdoor_scenes,faces,3700,1,7,2
42,75229,0,43,1,1,0,no_gain6,gain5,A,C,5,3,outdoor_scenes,68,78,outdoor_scenes,Stimuli/Experimental_stims/outdoor_scenes/jeff-king-bJHWJeiHfHc-unsplash.jpg,Stimuli/Experimental_stims/outdoor_scenes/henry-be-NLF6hTe4PAg-unsplash.jpg,0,0,871,1,unchosen,3,5,outdoor_scenes,outdoor_scenes,2400,0,7,2
43,75229,0,44,1,1,0,no_gain5,gain6,E,F,33,32,body_parts,64,57,body_parts,Stimuli/Experimental_stims/body_parts/tucker-good-36skLT5jZcc-unsplash.jpg,Stimuli/Experimental_stims/body_parts/towfiqu-barbhuiya-3AsiVDsZnHg-unsplash.jpg,1,NaN,,NaN,chosen,NaN,NaN,NaN,NaN,1400,0,7,2
44,75229,0,45,1,1,0,no_gain2,gain6,K,F,29,21,body_parts,83,64,faces,Stimuli/Experimental_stims/body_parts/manuel-schinner-ZwjFuJ7ebpk-unsplash.jpg,Stimuli/Experimental_stims/faces/leilani-angel-K84vnnzxmTQ-unsplash.jpg,0,0,1261,1,unchosen,21,29,faces,body_parts,2500,0,7,2
45,75229,0,46,1,1,1,gain6,no_gain1,F,I,32,27,body_parts,57,93,body_parts,Stimuli/Experimental_stims/body_parts/towfiqu-barbhuiya-3AsiVDsZnHg-unsplash.jpg,Stimuli/Experimental_stims/body_parts/heike-mintel-i_Gns0ELnLw-unsplash.jpg,0,1,796,1,chosen,32,27,body_parts,body_parts,2600,0,7,2
46,75229,0,47,1,1,1,gain2,no_gain2,D,K,14,36,faces,61,68,objects,Stimuli/Experimental_stims/faces/david-siglin-UuW4psOb388-unsplash.jpg,Stimuli/Experimental_stims/objects/alexander-andrews-JYGnB9gTCls-unsplash.jpg,0,0,1407,0,chosen,36,14,objects,faces,1100,0,7,2
47,75229,0,48,1,1,0,no_gain6,gain1,A,J,5,19,outdoor_scenes,68,79,faces,Stimuli/Experimental_stims/outdoor_scenes/jeff-king-bJHWJeiHfHc-unsplash.jpg,Stimuli/Experimental_stims/faces/joel-mott-LaK153ghdig-unsplash.jpg,1,NaN,,NaN,unchosen,NaN,NaN,NaN,NaN,4800,1,7,2
48,75229,0,49,1,1,1,gain4,no_gain3,G,B,45,6,objects,58,84,outdoor_scenes,Stimuli/Experimental_stims/objects/leohoho-rngTKHXumy0-unsplash.jpg,Stimuli/Experimental_stims/outdoor_scenes/meng-ji-8BH_M-53CyA-unsplash.jpg,0,0,986,0,unchosen,6,45,outdoor_scenes,objects,1600,0,7,2
49,75229,0,50,1,1,1,gain6,no_gain4,F,H,32,9,body_parts,57,87,outdoor_scenes,Stimuli/Experimental_stims/body_parts/towfiqu-barbhuiya-3AsiVDsZnHg-unsplash.jpg,Stimuli/Experimental_stims/outdoor_scenes/sergey-pesterev-y-b_FOmJXdg-unsplash.jpg,0,0,867,0,chosen,9,32,outdoor_scenes,body_parts,2800,0,7,2
50,75229,0,51,1,1,1,gain1,no_gain3,J,B,19,6,faces,79,84,outdoor_scenes,Stimuli/Experimental_stims/faces/joel-mott-LaK153ghdig-unsplash.jpg,Stimuli/Experimental_stims/outdoor_scenes/meng-ji-8BH_M-53CyA-unsplash.jpg,0,0,1282,0,unchosen,6,19,outdoor_scenes,faces,2300,0,7,2
51,75229,0,52,1,1,1,gain3,no_gain5,L,E,15,47,faces,40,57,objects,Stimuli/Experimental_stims/faces/erik-lucatero-d2MSDujJl2g-unsplash.jpg,Stimuli/Experimental_stims/objects/ronaldo-arthur-vidal-Cdz_lvnl37k-unsplash.jpg,0,0,1394,0,unchosen,47,15,objects,faces,2400,0,7,2
52,75229,0,53,1,1,1,gain4,no_gain4,G,H,45,20,objects,58,62,faces,Stimuli/Experimental_stims/objects/leohoho-rngTKHXumy0-unsplash.jpg,Stimuli/Experimental_stims/faces/justin-chen-J7Cf1Gch49E-unsplash.jpg,0,1,856,1,unchosen,45,20,objects,faces,1800,0,7,2
53,75229,0,54,1,1,0,no_gain6,gain1,A,J,40,39,objects,58,57,objects,Stimuli/Experimental_stims/objects/fabian-blank-pElSkGRA2NU-unsplash.jpg,Stimuli/Experimental_stims/objects/charlesdeluvio-1-nx1QR5dTE-unsplash.jpg,0,0,1216,1,chosen,39,40,objects,objects,1500,0,7,2
54,75229,0,55,1,1,1,gain6,no_gain4,F,H,21,20,faces,64,62,faces,Stimuli/Experimental_stims/faces/leilani-angel-K84vnnzxmTQ-unsplash.jpg,Stimuli/Experimental_stims/faces/justin-chen-J7Cf1Gch49E-unsplash.jpg,0,0,1400,0,unchosen,20,21,faces,faces,1900,0,7,2
55,75229,0,56,1,1,1,gain3,no_gain2,L,K,15,29,faces,40,83,body_parts,Stimuli/Experimental_stims/faces/erik-lucatero-d2MSDujJl2g-unsplash.jpg,Stimuli/Experimental_stims/body_parts/manuel-schinner-ZwjFuJ7ebpk-unsplash.jpg,0,0,704,0,unchosen,29,15,body_parts,faces,1100,0,7,2
56,75229,0,57,1,1,0,no_gain2,gain2,K,D,29,37,body_parts,83,59,objects,Stimuli/Experimental_stims/body_parts/manuel-schinner-ZwjFuJ7ebpk-unsplash.jpg,Stimuli/Experimental_stims/objects/alexander-andrews-VLGWE_SumrA-unsplash.jpg,0,1,1487,0,unchosen,29,37,body_parts,objects,1700,0,7,2
57,75229,0,58,1,1,1,gain5,no_gain3,C,B,28,18,body_parts,64,47,faces,Stimuli/Experimental_stims/body_parts/ira-vishnevskaya-8DQAvdCby1I-unsplash.jpg,Stimuli/Experimental_stims/faces/jessica-radanavong-mrYkTuAesKE-unsplash.jpg,0,0,820,0,chosen,18,28,faces,body_parts,1600,0,7,2
58,75229,0,59,1,1,1,gain6,no_gain1,F,I,21,11,faces,64,80,outdoor_scenes,Stimuli/Experimental_stims/faces/leilani-angel-K84vnnzxmTQ-unsplash.jpg,Stimuli/Experimental_stims/outdoor_scenes/stephen-leonardi-gyIRjKPXupE-unsplash.jpg,1,NaN,,NaN,unchosen,NaN,NaN,NaN,NaN,1700,0,7,2
59,75229,0,60,1,1,0,no_gain5,gain4,E,G,33,4,body_parts,64,75,outdoor_scenes,Stimuli/Experimental_stims/body_parts/tucker-good-36skLT5jZcc-unsplash.jpg,Stimuli/Experimental_stims/outdoor_scenes/jarrett-kow-1ZOyYPOBn7I-unsplash.jpg,1,NaN,,NaN,chosen,NaN,NaN,NaN,NaN,3000,0,7,2
60,75229,0,61,1,1,1,gain3,no_gain6,L,A,31,40,body_parts,56,58,objects,Stimuli/Experimental_stims/body_parts/sincerely-media-VN6DbKajo5s-unsplash.jpg,Stimuli/Experimental_stims/objects/fabian-blank-pElSkGRA2NU-unsplash.jpg,1,NaN,,NaN,chosen,NaN,NaN,NaN,NaN,2100,0,7,2
61,75229,0,62,1,1,1,gain5,no_gain2,C,K,3,29,outdoor_scenes,78,83,body_parts,Stimuli/Experimental_stims/outdoor_scenes/henry-be-NLF6hTe4PAg-unsplash.jpg,Stimuli/Experimental_stims/body_parts/manuel-schinner-ZwjFuJ7ebpk-unsplash.jpg,0,0,947,0,unchosen,29,3,body_parts,outdoor_scenes,3200,1,7,2
62,75229,0,63,1,1,1,gain1,no_gain5,J,E,39,33,objects,57,64,body_parts,Stimuli/Experimental_stims/objects/charlesdeluvio-1-nx1QR5dTE-unsplash.jpg,Stimuli/Experimental_stims/body_parts/tucker-good-36skLT5jZcc-unsplash.jpg,0,1,625,1,chosen,39,33,objects,body_parts,1600,0,7,2
63,75229,0,64,1,1,0,no_gain2,gain4,K,G,36,4,objects,68,75,outdoor_scenes,Stimuli/Experimental_stims/objects/alexander-andrews-JYGnB9gTCls-unsplash.jpg,Stimuli/Experimental_stims/outdoor_scenes/jarrett-kow-1ZOyYPOBn7I-unsplash.jpg,0,0,947,1,chosen,4,36,outdoor_scenes,objects,1300,0,7,2
64,75229,0,65,1,1,0,no_gain1,gain1,I,J,11,19,outdoor_scenes,80,79,faces,Stimuli/Experimental_stims/outdoor_scenes/stephen-leonardi-gyIRjKPXupE-unsplash.jpg,Stimuli/Experimental_stims/faces/joel-mott-LaK153ghdig-unsplash.jpg,0,0,1311,1,unchosen,19,11,faces,outdoor_scenes,1800,0,7,2
65,75229,0,66,1,1,0,no_gain1,gain4,I,G,27,4,body_parts,93,75,outdoor_scenes,Stimuli/Experimental_stims/body_parts/heike-mintel-i_Gns0ELnLw-unsplash.jpg,Stimuli/Experimental_stims/outdoor_scenes/jarrett-kow-1ZOyYPOBn7I-unsplash.jpg,1,NaN,,NaN,chosen,NaN,NaN,NaN,NaN,1400,0,7,2
66,75229,0,67,1,1,0,no_gain3,gain3,B,L,18,31,faces,47,56,body_parts,Stimuli/Experimental_stims/faces/jessica-radanavong-mrYkTuAesKE-unsplash.jpg,Stimuli/Experimental_stims/body_parts/sincerely-media-VN6DbKajo5s-unsplash.jpg,0,0,1480,1,chosen,31,18,body_parts,faces,1500,0,7,2
67,75229,0,68,1,1,0,no_gain6,gain2,A,D,40,14,objects,58,61,faces,Stimuli/Experimental_stims/objects/fabian-blank-pElSkGRA2NU-unsplash.jpg,Stimuli/Experimental_stims/faces/david-siglin-UuW4psOb388-unsplash.jpg,0,0,1440,1,chosen,14,40,faces,objects,1100,0,7,2
68,75229,0,69,1,1,0,no_gain6,gain4,A,G,5,45,outdoor_scenes,68,58,objects,Stimuli/Experimental_stims/outdoor_scenes/jeff-king-bJHWJeiHfHc-unsplash.jpg,Stimuli/Experimental_stims/objects/leohoho-rngTKHXumy0-unsplash.jpg,0,0,1034,1,unchosen,45,5,objects,outdoor_scenes,4300,1,7,2
69,75229,0,70,1,1,0,no_gain2,gain3,K,L,36,31,objects,68,56,body_parts,Stimuli/Experimental_stims/objects/alexander-andrews-JYGnB9gTCls-unsplash.jpg,Stimuli/Experimental_stims/body_parts/sincerely-media-VN6DbKajo5s-unsplash.jpg,0,0,779,1,chosen,31,36,body_parts,objects,1100,0,7,2
70,75229,0,71,1,1,1,gain2,no_gain5,D,E,14,33,faces,61,64,body_parts,Stimuli/Experimental_stims/faces/david-siglin-UuW4psOb388-unsplash.jpg,Stimuli/Experimental_stims/body_parts/tucker-good-36skLT5jZcc-unsplash.jpg,0,0,971,0,chosen,33,14,body_parts,faces,1300,0,7,2
71,75229,0,72,1,1,1,gain2,no_gain6,D,A,37,5,objects,59,68,outdoor_scenes,Stimuli/Experimental_stims/objects/alexander-andrews-VLGWE_SumrA-unsplash.jpg,Stimuli/Experimental_stims/outdoor_scenes/jeff-king-bJHWJeiHfHc-unsplash.jpg,1,NaN,,NaN,unchosen,NaN,NaN,NaN,NaN,2000,0,7,2
72,75229,0,73,1,1,0,no_gain4,gain3,H,L,20,15,faces,62,40,faces,Stimuli/Experimental_stims/faces/justin-chen-J7Cf1Gch49E-unsplash.jpg,Stimuli/Experimental_stims/faces/erik-lucatero-d2MSDujJl2g-unsplash.jpg,0,0,1386,1,unchosen,15,20,faces,faces,1900,0,7,2
73,75229,0,74,1,1,0,no_gain4,gain5,H,C,9,28,outdoor_scenes,87,64,body_parts,Stimuli/Experimental_stims/outdoor_scenes/sergey-pesterev-y-b_FOmJXdg-unsplash.jpg,Stimuli/Experimental_stims/body_parts/ira-vishnevskaya-8DQAvdCby1I-unsplash.jpg,1,NaN,,NaN,chosen,NaN,NaN,NaN,NaN,2200,0,7,2
74,75229,0,75,1,1,1,gain4,no_gain6,G,A,4,40,outdoor_scenes,75,58,objects,Stimuli/Experimental_stims/outdoor_scenes/jarrett-kow-1ZOyYPOBn7I-unsplash.jpg,Stimuli/Experimental_stims/objects/fabian-blank-pElSkGRA2NU-unsplash.jpg,1,NaN,,NaN,chosen,NaN,NaN,NaN,NaN,1000,0,7,2
75,75229,0,76,1,1,1,gain4,no_gain5,G,E,45,47,objects,58,57,objects,Stimuli/Experimental_stims/objects/leohoho-rngTKHXumy0-unsplash.jpg,Stimuli/Experimental_stims/objects/ronaldo-arthur-vidal-Cdz_lvnl37k-unsplash.jpg,0,1,15,1,unchosen,45,47,objects,objects,1100,0,7,2
76,75229,0,77,2,2,1,gain6,no_gain3,F,B,21,6,faces,64,84,outdoor_scenes,Stimuli/Experimental_stims/faces/leilani-angel-K84vnnzxmTQ-unsplash.jpg,Stimuli/Experimental_stims/outdoor_scenes/meng-ji-8BH_M-53CyA-unsplash.jpg,0,0,963,0,unchosen,6,21,outdoor_scenes,faces,3800,1,10,2
77,75229,0,78,2,2,1,gain6,no_gain4,F,H,32,9,body_parts,57,87,outdoor_scenes,Stimuli/Experimental_stims/body_parts/towfiqu-barbhuiya-3AsiVDsZnHg-unsplash.jpg,Stimuli/Experimental_stims/outdoor_scenes/sergey-pesterev-y-b_FOmJXdg-unsplash.jpg,0,0,675,0,chosen,9,32,outdoor_scenes,body_parts,2000,0,10,2
78,75229,0,79,2,2,1,gain3,no_gain1,L,I,31,27,body_parts,56,93,body_parts,Stimuli/Experimental_stims/body_parts/sincerely-media-VN6DbKajo5s-unsplash.jpg,Stimuli/Experimental_stims/body_parts/heike-mintel-i_Gns0ELnLw-unsplash.jpg,1,NaN,,NaN,chosen,NaN,NaN,NaN,NaN,3000,0,10,2
79,75229,0,80,2,2,1,gain4,no_gain3,G,B,45,6,objects,58,84,outdoor_scenes,Stimuli/Experimental_stims/objects/leohoho-rngTKHXumy0-unsplash.jpg,Stimuli/Experimental_stims/outdoor_scenes/meng-ji-8BH_M-53CyA-unsplash.jpg,0,0,709,0,unchosen,6,45,outdoor_scenes,objects,1400,0,10,2
80,75229,0,81,2,2,1,gain6,no_gain6,F,A,32,40,body_parts,57,58,objects,Stimuli/Experimental_stims/body_parts/towfiqu-barbhuiya-3AsiVDsZnHg-unsplash.jpg,Stimuli/Experimental_stims/objects/fabian-blank-pElSkGRA2NU-unsplash.jpg,0,0,678,0,chosen,40,32,objects,body_parts,2900,0,10,2
81,75229,0,82,2,2,1,gain2,no_gain1,D,I,14,27,faces,61,93,body_parts,Stimuli/Experimental_stims/faces/david-siglin-UuW4psOb388-unsplash.jpg,Stimuli/Experimental_stims/body_parts/heike-mintel-i_Gns0ELnLw-unsplash.jpg,0,0,705,0,chosen,27,14,body_parts,faces,2000,0,10,2
82,75229,0,83,2,2,0,no_gain1,gain3,I,L,11,15,outdoor_scenes,80,40,faces,Stimuli/Experimental_stims/outdoor_scenes/stephen-leonardi-gyIRjKPXupE-unsplash.jpg,Stimuli/Experimental_stims/faces/erik-lucatero-d2MSDujJl2g-unsplash.jpg,0,0,1233,1,unchosen,15,11,faces,outdoor_scenes,2700,0,10,2
83,75229,0,84,2,2,0,no_gain6,gain2,A,D,40,14,objects,58,61,faces,Stimuli/Experimental_stims/objects/fabian-blank-pElSkGRA2NU-unsplash.jpg,Stimuli/Experimental_stims/faces/david-siglin-UuW4psOb388-unsplash.jpg,0,0,1090,1,chosen,14,40,faces,objects,3600,1,10,2
84,75229,0,85,2,2,0,no_gain3,gain2,B,D,6,37,outdoor_scenes,84,59,objects,Stimuli/Experimental_stims/outdoor_scenes/meng-ji-8BH_M-53CyA-unsplash.jpg,Stimuli/Experimental_stims/objects/alexander-andrews-VLGWE_SumrA-unsplash.jpg,0,0,1139,1,unchosen,37,6,objects,outdoor_scenes,1300,0,10,2
85,75229,0,86,2,2,1,gain6,no_gain1,F,I,21,11,faces,64,80,outdoor_scenes,Stimuli/Experimental_stims/faces/leilani-angel-K84vnnzxmTQ-unsplash.jpg,Stimuli/Experimental_stims/outdoor_scenes/stephen-leonardi-gyIRjKPXupE-unsplash.jpg,0,0,956,0,unchosen,11,21,outdoor_scenes,faces,3000,0,10,2
86,75229,0,87,2,2,0,no_gain5,gain4,E,G,47,45,objects,57,58,objects,Stimuli/Experimental_stims/objects/ronaldo-arthur-vidal-Cdz_lvnl37k-unsplash.jpg,Stimuli/Experimental_stims/objects/leohoho-rngTKHXumy0-unsplash.jpg,0,0,866,1,unchosen,45,47,objects,objects,2600,0,10,2
87,75229,0,88,2,2,0,no_gain2,gain3,K,L,36,31,objects,68,56,body_parts,Stimuli/Experimental_stims/objects/alexander-andrews-JYGnB9gTCls-unsplash.jpg,Stimuli/Experimental_stims/body_parts/sincerely-media-VN6DbKajo5s-unsplash.jpg,0,0,795,1,chosen,31,36,body_parts,objects,1100,0,10,2
88,75229,0,89,2,2,0,no_gain1,gain1,I,J,27,39,body_parts,93,57,objects,Stimuli/Experimental_stims/body_parts/heike-mintel-i_Gns0ELnLw-unsplash.jpg,Stimuli/Experimental_stims/objects/charlesdeluvio-1-nx1QR5dTE-unsplash.jpg,0,0,1265,1,chosen,39,27,objects,body_parts,1400,0,10,2
89,75229,0,90,2,2,0,no_gain5,gain2,E,D,47,37,objects,57,59,objects,Stimuli/Experimental_stims/objects/ronaldo-arthur-vidal-Cdz_lvnl37k-unsplash.jpg,Stimuli/Experimental_stims/objects/alexander-andrews-VLGWE_SumrA-unsplash.jpg,0,0,666,1,unchosen,37,47,objects,objects,1100,0,10,2
90,75229,0,91,2,2,1,gain3,no_gain3,L,B,15,6,faces,40,84,outdoor_scenes,Stimuli/Experimental_stims/faces/erik-lucatero-d2MSDujJl2g-unsplash.jpg,Stimuli/Experimental_stims/outdoor_scenes/meng-ji-8BH_M-53CyA-unsplash.jpg,0,0,1355,0,unchosen,6,15,outdoor_scenes,faces,2900,0,10,2
91,75229,0,92,2,2,1,gain5,no_gain4,C,H,28,9,body_parts,64,87,outdoor_scenes,Stimuli/Experimental_stims/body_parts/ira-vishnevskaya-8DQAvdCby1I-unsplash.jpg,Stimuli/Experimental_stims/outdoor_scenes/sergey-pesterev-y-b_FOmJXdg-unsplash.jpg,0,0,932,0,chosen,9,28,outdoor_scenes,body_parts,1600,0,10,2
92,75229,0,93,2,2,1,gain2,no_gain6,D,A,37,5,objects,59,68,outdoor_scenes,Stimuli/Experimental_stims/objects/alexander-andrews-VLGWE_SumrA-unsplash.jpg,Stimuli/Experimental_stims/outdoor_scenes/jeff-king-bJHWJeiHfHc-unsplash.jpg,0,0,1462,0,unchosen,5,37,outdoor_scenes,objects,1500,0,10,2
93,75229,0,94,2,2,0,no_gain5,gain6,E,F,47,21,objects,57,64,faces,Stimuli/Experimental_stims/objects/ronaldo-arthur-vidal-Cdz_lvnl37k-unsplash.jpg,Stimuli/Experimental_stims/faces/leilani-angel-K84vnnzxmTQ-unsplash.jpg,0,0,1239,1,unchosen,21,47,faces,objects,3800,1,10,2
94,75229,0,95,2,2,0,no_gain6,gain4,A,G,40,4,objects,58,75,outdoor_scenes,Stimuli/Experimental_stims/objects/fabian-blank-pElSkGRA2NU-unsplash.jpg,Stimuli/Experimental_stims/outdoor_scenes/jarrett-kow-1ZOyYPOBn7I-unsplash.jpg,0,0,721,1,chosen,4,40,outdoor_scenes,objects,1500,0,10,2
95,75229,0,96,2,2,1,gain5,no_gain2,C,K,3,29,outdoor_scenes,78,83,body_parts,Stimuli/Experimental_stims/outdoor_scenes/henry-be-NLF6hTe4PAg-unsplash.jpg,Stimuli/Experimental_stims/body_parts/manuel-schinner-ZwjFuJ7ebpk-unsplash.jpg,1,NaN,,NaN,unchosen,NaN,NaN,NaN,NaN,1000,0,10,2
96,75229,0,97,2,2,1,gain4,no_gain4,G,H,45,20,objects,58,62,faces,Stimuli/Experimental_stims/objects/leohoho-rngTKHXumy0-unsplash.jpg,Stimuli/Experimental_stims/faces/justin-chen-J7Cf1Gch49E-unsplash.jpg,0,0,1341,0,unchosen,20,45,faces,objects,1600,0,10,2
97,75229,0,98,2,2,0,no_gain5,gain3,E,L,33,31,body_parts,64,56,body_parts,Stimuli/Experimental_stims/body_parts/tucker-good-36skLT5jZcc-unsplash.jpg,Stimuli/Experimental_stims/body_parts/sincerely-media-VN6DbKajo5s-unsplash.jpg,0,0,1203,1,chosen,31,33,body_parts,body_parts,1300,0,10,2
98,75229,0,99,2,2,1,gain2,no_gain4,D,H,14,9,faces,61,87,outdoor_scenes,Stimuli/Experimental_stims/faces/david-siglin-UuW4psOb388-unsplash.jpg,Stimuli/Experimental_stims/outdoor_scenes/sergey-pesterev-y-b_FOmJXdg-unsplash.jpg,0,0,974,0,chosen,9,14,outdoor_scenes,faces,3500,1,10,2
99,75229,0,100,2,2,0,no_gain2,gain4,K,G,36,4,objects,68,75,outdoor_scenes,Stimuli/Experimental_stims/objects/alexander-andrews-JYGnB9gTCls-unsplash.jpg,Stimuli/Experimental_stims/outdoor_scenes/jarrett-kow-1ZOyYPOBn7I-unsplash.jpg,0,0,740,1,chosen,4,36,outdoor_scenes,objects,2500,0,10,2
100,75229,0,101,2,2,1,gain5,no_gain6,C,A,3,5,outdoor_scenes,78,68,outdoor_scenes,Stimuli/Experimental_stims/outdoor_scenes/henry-be-NLF6hTe4PAg-unsplash.jpg,Stimuli/Experimental_stims/outdoor_scenes/jeff-king-bJHWJeiHfHc-unsplash.jpg,0,0,1197,0,unchosen,5,3,outdoor_scenes,outdoor_scenes,1100,0,10,2
101,75229,0,102,2,2,1,gain3,no_gain3,L,B,31,18,body_parts,56,47,faces,Stimuli/Experimental_stims/body_parts/sincerely-media-VN6DbKajo5s-unsplash.jpg,Stimuli/Experimental_stims/faces/jessica-radanavong-mrYkTuAesKE-unsplash.jpg,0,0,1386,0,chosen,18,31,faces,body_parts,1000,0,10,2
102,75229,0,103,2,2,0,no_gain2,gain1,K,J,29,19,body_parts,83,79,faces,Stimuli/Experimental_stims/body_parts/manuel-schinner-ZwjFuJ7ebpk-unsplash.jpg,Stimuli/Experimental_stims/faces/joel-mott-LaK153ghdig-unsplash.jpg,1,NaN,,NaN,unchosen,NaN,NaN,NaN,NaN,2100,0,10,2
103,75229,0,104,2,2,1,gain4,no_gain4,G,H,4,9,outdoor_scenes,75,87,outdoor_scenes,Stimuli/Experimental_stims/outdoor_scenes/jarrett-kow-1ZOyYPOBn7I-unsplash.jpg,Stimuli/Experimental_stims/outdoor_scenes/sergey-pesterev-y-b_FOmJXdg-unsplash.jpg,0,0,1289,0,chosen,9,4,outdoor_scenes,outdoor_scenes,1300,0,10,2
104,75229,0,105,2,2,0,no_gain2,gain4,K,G,29,45,body_parts,83,58,objects,Stimuli/Experimental_stims/body_parts/manuel-schinner-ZwjFuJ7ebpk-unsplash.jpg,Stimuli/Experimental_stims/objects/leohoho-rngTKHXumy0-unsplash.jpg,0,0,948,1,unchosen,45,29,objects,body_parts,2000,0,10,2
105,75229,0,106,2,2,1,gain5,no_gain1,C,I,28,27,body_parts,64,93,body_parts,Stimuli/Experimental_stims/body_parts/ira-vishnevskaya-8DQAvdCby1I-unsplash.jpg,Stimuli/Experimental_stims/body_parts/heike-mintel-i_Gns0ELnLw-unsplash.jpg,0,0,1044,0,chosen,27,28,body_parts,body_parts,3100,1,10,2
106,75229,0,107,2,2,0,no_gain6,gain3,A,L,5,15,outdoor_scenes,68,40,faces,Stimuli/Experimental_stims/outdoor_scenes/jeff-king-bJHWJeiHfHc-unsplash.jpg,Stimuli/Experimental_stims/faces/erik-lucatero-d2MSDujJl2g-unsplash.jpg,1,NaN,,NaN,unchosen,NaN,NaN,NaN,NaN,1400,0,10,2
107,75229,0,108,2,2,1,gain6,no_gain1,F,I,32,27,body_parts,57,93,body_parts,Stimuli/Experimental_stims/body_parts/towfiqu-barbhuiya-3AsiVDsZnHg-unsplash.jpg,Stimuli/Experimental_stims/body_parts/heike-mintel-i_Gns0ELnLw-unsplash.jpg,0,0,978,0,chosen,27,32,body_parts,body_parts,1300,0,10,2
108,75229,0,109,2,2,0,no_gain2,gain5,K,C,36,28,objects,68,64,body_parts,Stimuli/Experimental_stims/objects/alexander-andrews-JYGnB9gTCls-unsplash.jpg,Stimuli/Experimental_stims/body_parts/ira-vishnevskaya-8DQAvdCby1I-unsplash.jpg,0,0,1326,1,chosen,28,36,body_parts,objects,1300,0,10,2
109,75229,0,110,2,2,0,no_gain5,gain5,E,C,47,3,objects,57,78,outdoor_scenes,Stimuli/Experimental_stims/objects/ronaldo-arthur-vidal-Cdz_lvnl37k-unsplash.jpg,Stimuli/Experimental_stims/outdoor_scenes/henry-be-NLF6hTe4PAg-unsplash.jpg,1,NaN,,NaN,unchosen,NaN,NaN,NaN,NaN,1200,0,10,2
110,75229,0,111,2,2,0,no_gain5,gain1,E,J,47,19,objects,57,79,faces,Stimuli/Experimental_stims/objects/ronaldo-arthur-vidal-Cdz_lvnl37k-unsplash.jpg,Stimuli/Experimental_stims/faces/joel-mott-LaK153ghdig-unsplash.jpg,0,0,931,1,unchosen,19,47,faces,objects,1300,0,10,2
111,75229,0,112,2,2,0,no_gain6,gain5,A,C,40,28,objects,58,64,body_parts,Stimuli/Experimental_stims/objects/fabian-blank-pElSkGRA2NU-unsplash.jpg,Stimuli/Experimental_stims/body_parts/ira-vishnevskaya-8DQAvdCby1I-unsplash.jpg,0,1,1212,0,chosen,40,28,objects,body_parts,1100,0,10,2
112,75229,0,113,2,2,1,gain2,no_gain2,D,K,14,36,faces,61,68,objects,Stimuli/Experimental_stims/faces/david-siglin-UuW4psOb388-unsplash.jpg,Stimuli/Experimental_stims/objects/alexander-andrews-JYGnB9gTCls-unsplash.jpg,0,0,837,0,chosen,36,14,objects,faces,1900,0,10,2
113,75229,0,114,2,2,1,gain1,no_gain6,J,A,19,5,faces,79,68,outdoor_scenes,Stimuli/Experimental_stims/faces/joel-mott-LaK153ghdig-unsplash.jpg,Stimuli/Experimental_stims/outdoor_scenes/jeff-king-bJHWJeiHfHc-unsplash.jpg,1,NaN,,NaN,unchosen,NaN,NaN,NaN,NaN,2100,0,10,2
114,75229,0,115,2,2,0,no_gain3,gain5,B,C,6,3,outdoor_scenes,84,78,outdoor_scenes,Stimuli/Experimental_stims/outdoor_scenes/meng-ji-8BH_M-53CyA-unsplash.jpg,Stimuli/Experimental_stims/outdoor_scenes/henry-be-NLF6hTe4PAg-unsplash.jpg,0,1,789,0,unchosen,6,3,outdoor_scenes,outdoor_scenes,1400,0,10,2
115,75229,0,116,2,2,1,gain3,no_gain6,L,A,31,40,body_parts,56,58,objects,Stimuli/Experimental_stims/body_parts/sincerely-media-VN6DbKajo5s-unsplash.jpg,Stimuli/Experimental_stims/objects/fabian-blank-pElSkGRA2NU-unsplash.jpg,0,0,889,0,chosen,40,31,objects,body_parts,1100,0,10,2
116,75229,0,117,2,2,0,no_gain5,gain5,E,C,33,28,body_parts,64,64,body_parts,Stimuli/Experimental_stims/body_parts/tucker-good-36skLT5jZcc-unsplash.jpg,Stimuli/Experimental_stims/body_parts/ira-vishnevskaya-8DQAvdCby1I-unsplash.jpg,0,0,705,1,chosen,28,33,body_parts,body_parts,1600,0,10,2
117,75229,0,118,2,2,1,gain3,no_gain4,L,H,15,20,faces,40,62,faces,Stimuli/Experimental_stims/faces/erik-lucatero-d2MSDujJl2g-unsplash.jpg,Stimuli/Experimental_stims/faces/justin-chen-J7Cf1Gch49E-unsplash.jpg,0,1,567,1,unchosen,15,20,faces,faces,1300,0,10,2
118,75229,0,119,2,2,1,gain4,no_gain1,G,I,4,27,outdoor_scenes,75,93,body_parts,Stimuli/Experimental_stims/outdoor_scenes/jarrett-kow-1ZOyYPOBn7I-unsplash.jpg,Stimuli/Experimental_stims/body_parts/heike-mintel-i_Gns0ELnLw-unsplash.jpg,0,0,818,0,chosen,27,4,body_parts,outdoor_scenes,2500,0,10,2
119,75229,0,120,2,2,0,no_gain4,gain2,H,D,20,37,faces,62,59,objects,Stimuli/Experimental_stims/faces/justin-chen-J7Cf1Gch49E-unsplash.jpg,Stimuli/Experimental_stims/objects/alexander-andrews-VLGWE_SumrA-unsplash.jpg,0,0,1268,1,unchosen,37,20,objects,faces,4300,1,10,2
120,75229,0,121,2,2,0,no_gain3,gain4,B,G,18,4,faces,47,75,outdoor_scenes,Stimuli/Experimental_stims/faces/jessica-radanavong-mrYkTuAesKE-unsplash.jpg,Stimuli/Experimental_stims/outdoor_scenes/jarrett-kow-1ZOyYPOBn7I-unsplash.jpg,0,1,943,0,chosen,18,4,faces,outdoor_scenes,2400,0,10,2
121,75229,0,122,2,2,1,gain1,no_gain4,J,H,19,20,faces,79,62,faces,Stimuli/Experimental_stims/faces/joel-mott-LaK153ghdig-unsplash.jpg,Stimuli/Experimental_stims/faces/justin-chen-J7Cf1Gch49E-unsplash.jpg,0,0,1315,0,unchosen,20,19,faces,faces,1800,0,10,2
122,75229,0,123,2,2,1,gain6,no_gain3,F,B,32,18,body_parts,57,47,faces,Stimuli/Experimental_stims/body_parts/towfiqu-barbhuiya-3AsiVDsZnHg-unsplash.jpg,Stimuli/Experimental_stims/faces/jessica-radanavong-mrYkTuAesKE-unsplash.jpg,0,0,1287,0,chosen,18,32,faces,body_parts,1000,0,10,2
123,75229,0,124,2,2,1,gain5,no_gain1,C,I,3,11,outdoor_scenes,78,80,outdoor_scenes,Stimuli/Experimental_stims/outdoor_scenes/henry-be-NLF6hTe4PAg-unsplash.jpg,Stimuli/Experimental_stims/outdoor_scenes/stephen-leonardi-gyIRjKPXupE-unsplash.jpg,0,1,964,1,unchosen,3,11,outdoor_scenes,outdoor_scenes,2000,0,10,2
124,75229,0,125,2,2,1,gain3,no_gain2,L,K,15,29,faces,40,83,body_parts,Stimuli/Experimental_stims/faces/erik-lucatero-d2MSDujJl2g-unsplash.jpg,Stimuli/Experimental_stims/body_parts/manuel-schinner-ZwjFuJ7ebpk-unsplash.jpg,0,0,994,0,unchosen,29,15,body_parts,faces,2700,0,10,2
125,75229,0,126,2,2,0,no_gain2,gain2,K,D,29,37,body_parts,83,59,objects,Stimuli/Experimental_stims/body_parts/manuel-schinner-ZwjFuJ7ebpk-unsplash.jpg,Stimuli/Experimental_stims/objects/alexander-andrews-VLGWE_SumrA-unsplash.jpg,0,0,665,1,unchosen,37,29,objects,body_parts,2500,0,10,2
126,75229,0,127,2,2,0,no_gain4,gain1,H,J,9,39,outdoor_scenes,87,57,objects,Stimuli/Experimental_stims/outdoor_scenes/sergey-pesterev-y-b_FOmJXdg-unsplash.jpg,Stimuli/Experimental_stims/objects/charlesdeluvio-1-nx1QR5dTE-unsplash.jpg,0,0,1380,1,chosen,39,9,objects,outdoor_scenes,1800,0,10,2
127,75229,0,128,2,2,1,gain4,no_gain6,G,A,45,5,objects,58,68,outdoor_scenes,Stimuli/Experimental_stims/objects/leohoho-rngTKHXumy0-unsplash.jpg,Stimuli/Experimental_stims/outdoor_scenes/jeff-king-bJHWJeiHfHc-unsplash.jpg,0,0,894,0,unchosen,5,45,outdoor_scenes,objects,1200,0,10,2
128,75229,0,129,2,2,0,no_gain1,gain2,I,D,11,37,outdoor_scenes,80,59,objects,Stimuli/Experimental_stims/outdoor_scenes/stephen-leonardi-gyIRjKPXupE-unsplash.jpg,Stimuli/Experimental_stims/objects/alexander-andrews-VLGWE_SumrA-unsplash.jpg,0,0,1473,1,unchosen,37,11,objects,outdoor_scenes,3800,1,10,2
129,75229,0,130,2,2,1,gain1,no_gain6,J,A,39,40,objects,57,58,objects,Stimuli/Experimental_stims/objects/charlesdeluvio-1-nx1QR5dTE-unsplash.jpg,Stimuli/Experimental_stims/objects/fabian-blank-pElSkGRA2NU-unsplash.jpg,0,0,1340,0,chosen,40,39,objects,objects,1300,0,10,2
130,75229,0,131,2,2,1,gain6,no_gain4,F,H,21,20,faces,64,62,faces,Stimuli/Experimental_stims/faces/leilani-angel-K84vnnzxmTQ-unsplash.jpg,Stimuli/Experimental_stims/faces/justin-chen-J7Cf1Gch49E-unsplash.jpg,0,0,800,0,unchosen,20,21,faces,faces,2900,0,10,2
131,75229,0,132,2,2,0,no_gain5,gain2,E,D,33,14,body_parts,64,61,faces,Stimuli/Experimental_stims/body_parts/tucker-good-36skLT5jZcc-unsplash.jpg,Stimuli/Experimental_stims/faces/david-siglin-UuW4psOb388-unsplash.jpg,0,0,858,1,chosen,14,33,faces,body_parts,1200,0,10,2
132,75229,0,133,2,2,0,no_gain5,gain6,E,F,33,32,body_parts,64,57,body_parts,Stimuli/Experimental_stims/body_parts/tucker-good-36skLT5jZcc-unsplash.jpg,Stimuli/Experimental_stims/body_parts/towfiqu-barbhuiya-3AsiVDsZnHg-unsplash.jpg,0,0,1239,1,chosen,32,33,body_parts,body_parts,1300,0,10,2
133,75229,0,134,2,2,0,no_gain2,gain6,K,F,29,21,body_parts,83,64,faces,Stimuli/Experimental_stims/body_parts/manuel-schinner-ZwjFuJ7ebpk-unsplash.jpg,Stimuli/Experimental_stims/faces/leilani-angel-K84vnnzxmTQ-unsplash.jpg,0,0,1370,1,unchosen,21,29,faces,body_parts,2500,0,10,2
134,75229,0,135,2,2,1,gain5,no_gain3,C,B,28,18,body_parts,64,47,faces,Stimuli/Experimental_stims/body_parts/ira-vishnevskaya-8DQAvdCby1I-unsplash.jpg,Stimuli/Experimental_stims/faces/jessica-radanavong-mrYkTuAesKE-unsplash.jpg,0,0,705,0,chosen,18,28,faces,body_parts,3000,0,10,2
135,75229,0,136,2,2,1,gain4,no_gain5,G,E,4,33,outdoor_scenes,75,64,body_parts,Stimuli/Experimental_stims/outdoor_scenes/jarrett-kow-1ZOyYPOBn7I-unsplash.jpg,Stimuli/Experimental_stims/body_parts/tucker-good-36skLT5jZcc-unsplash.jpg,1,NaN,,NaN,chosen,NaN,NaN,NaN,NaN,4200,1,10,2
136,75229,0,137,2,2,0,no_gain6,gain6,A,F,5,21,outdoor_scenes,68,64,faces,Stimuli/Experimental_stims/outdoor_scenes/jeff-king-bJHWJeiHfHc-unsplash.jpg,Stimuli/Experimental_stims/faces/leilani-angel-K84vnnzxmTQ-unsplash.jpg,0,0,1276,1,unchosen,21,5,faces,outdoor_scenes,1700,0,10,2
137,75229,0,138,2,2,0,no_gain3,gain1,B,J,18,39,faces,47,57,objects,Stimuli/Experimental_stims/faces/jessica-radanavong-mrYkTuAesKE-unsplash.jpg,Stimuli/Experimental_stims/objects/charlesdeluvio-1-nx1QR5dTE-unsplash.jpg,0,0,1069,1,chosen,39,18,objects,faces,1300,0,10,2
138,75229,0,139,2,2,0,no_gain2,gain1,K,J,36,39,objects,68,57,objects,Stimuli/Experimental_stims/objects/alexander-andrews-JYGnB9gTCls-unsplash.jpg,Stimuli/Experimental_stims/objects/charlesdeluvio-1-nx1QR5dTE-unsplash.jpg,0,0,822,1,chosen,39,36,objects,objects,1100,0,10,2
139,75229,0,140,2,2,0,no_gain2,gain6,K,F,36,32,objects,68,57,body_parts,Stimuli/Experimental_stims/objects/alexander-andrews-JYGnB9gTCls-unsplash.jpg,Stimuli/Experimental_stims/body_parts/towfiqu-barbhuiya-3AsiVDsZnHg-unsplash.jpg,0,1,679,0,chosen,36,32,objects,body_parts,1300,0,10,2
140,75229,0,141,2,2,1,gain5,no_gain4,C,H,3,20,outdoor_scenes,78,62,faces,Stimuli/Experimental_stims/outdoor_scenes/henry-be-NLF6hTe4PAg-unsplash.jpg,Stimuli/Experimental_stims/faces/justin-chen-J7Cf1Gch49E-unsplash.jpg,0,0,754,0,unchosen,20,3,faces,outdoor_scenes,1500,0,10,2
141,75229,0,142,2,2,0,no_gain5,gain1,E,J,33,39,body_parts,64,57,objects,Stimuli/Experimental_stims/body_parts/tucker-good-36skLT5jZcc-unsplash.jpg,Stimuli/Experimental_stims/objects/charlesdeluvio-1-nx1QR5dTE-unsplash.jpg,0,0,751,1,chosen,39,33,objects,body_parts,1800,0,10,2
142,75229,0,143,2,2,0,no_gain1,gain4,I,G,11,45,outdoor_scenes,80,58,objects,Stimuli/Experimental_stims/outdoor_scenes/stephen-leonardi-gyIRjKPXupE-unsplash.jpg,Stimuli/Experimental_stims/objects/leohoho-rngTKHXumy0-unsplash.jpg,0,0,1076,1,unchosen,45,11,objects,outdoor_scenes,1400,0,10,2
143,75229,0,144,2,2,1,gain3,no_gain5,L,E,15,47,faces,40,57,objects,Stimuli/Experimental_stims/faces/erik-lucatero-d2MSDujJl2g-unsplash.jpg,Stimuli/Experimental_stims/objects/ronaldo-arthur-vidal-Cdz_lvnl37k-unsplash.jpg,0,0,825,0,unchosen,47,15,objects,faces,1400,0,10,2
144,75229,0,145,2,2,0,no_gain4,gain3,H,L,9,31,outdoor_scenes,87,56,body_parts,Stimuli/Experimental_stims/outdoor_scenes/sergey-pesterev-y-b_FOmJXdg-unsplash.jpg,Stimuli/Experimental_stims/body_parts/sincerely-media-VN6DbKajo5s-unsplash.jpg,0,1,1376,0,chosen,9,31,outdoor_scenes,body_parts,1600,0,10,2
145,75229,0,146,2,2,1,gain1,no_gain3,J,B,19,6,faces,79,84,outdoor_scenes,Stimuli/Experimental_stims/faces/joel-mott-LaK153ghdig-unsplash.jpg,Stimuli/Experimental_stims/outdoor_scenes/meng-ji-8BH_M-53CyA-unsplash.jpg,0,0,1270,0,unchosen,6,19,outdoor_scenes,faces,2000,0,10,2
146,75229,0,147,2,2,0,no_gain1,gain1,I,J,11,19,outdoor_scenes,80,79,faces,Stimuli/Experimental_stims/outdoor_scenes/stephen-leonardi-gyIRjKPXupE-unsplash.jpg,Stimuli/Experimental_stims/faces/joel-mott-LaK153ghdig-unsplash.jpg,0,0,1369,1,unchosen,19,11,faces,outdoor_scenes,2500,0,10,2
147,75229,0,148,2,2,1,gain2,no_gain3,D,B,14,18,faces,61,47,faces,Stimuli/Experimental_stims/faces/david-siglin-UuW4psOb388-unsplash.jpg,Stimuli/Experimental_stims/faces/jessica-radanavong-mrYkTuAesKE-unsplash.jpg,0,0,799,0,chosen,18,14,faces,faces,3300,1,10,2
148,75229,0,149,3,3,0,no_gain1,gain2,I,D,11,37,outdoor_scenes,80,59,objects,Stimuli/Experimental_stims/outdoor_scenes/stephen-leonardi-gyIRjKPXupE-unsplash.jpg,Stimuli/Experimental_stims/objects/alexander-andrews-VLGWE_SumrA-unsplash.jpg,0,0,874,1,unchosen,37,11,objects,outdoor_scenes,2200,0,10,2
149,75229,0,150,3,3,1,gain2,no_gain4,D,H,37,20,objects,59,62,faces,Stimuli/Experimental_stims/objects/alexander-andrews-VLGWE_SumrA-unsplash.jpg,Stimuli/Experimental_stims/faces/justin-chen-J7Cf1Gch49E-unsplash.jpg,0,1,953,1,unchosen,37,20,objects,faces,1200,0,10,2
150,75229,0,151,3,3,0,no_gain5,gain1,E,J,47,19,objects,57,79,faces,Stimuli/Experimental_stims/objects/ronaldo-arthur-vidal-Cdz_lvnl37k-unsplash.jpg,Stimuli/Experimental_stims/faces/joel-mott-LaK153ghdig-unsplash.jpg,0,0,777,1,unchosen,19,47,faces,objects,1700,0,10,2
151,75229,0,152,3,3,0,no_gain6,gain4,A,G,40,4,objects,58,75,outdoor_scenes,Stimuli/Experimental_stims/objects/fabian-blank-pElSkGRA2NU-unsplash.jpg,Stimuli/Experimental_stims/outdoor_scenes/jarrett-kow-1ZOyYPOBn7I-unsplash.jpg,0,1,902,0,chosen,40,4,objects,outdoor_scenes,1100,0,10,2
152,75229,0,153,3,3,0,no_gain1,gain3,I,L,27,31,body_parts,93,56,body_parts,Stimuli/Experimental_stims/body_parts/heike-mintel-i_Gns0ELnLw-unsplash.jpg,Stimuli/Experimental_stims/body_parts/sincerely-media-VN6DbKajo5s-unsplash.jpg,0,0,1248,1,chosen,31,27,body_parts,body_parts,1000,0,10,2
153,75229,0,154,3,3,1,gain4,no_gain3,G,B,45,6,objects,58,84,outdoor_scenes,Stimuli/Experimental_stims/objects/leohoho-rngTKHXumy0-unsplash.jpg,Stimuli/Experimental_stims/outdoor_scenes/meng-ji-8BH_M-53CyA-unsplash.jpg,0,0,1358,0,unchosen,6,45,outdoor_scenes,objects,1900,0,10,2
154,75229,0,155,3,3,1,gain3,no_gain3,L,B,15,6,faces,40,84,outdoor_scenes,Stimuli/Experimental_stims/faces/erik-lucatero-d2MSDujJl2g-unsplash.jpg,Stimuli/Experimental_stims/outdoor_scenes/meng-ji-8BH_M-53CyA-unsplash.jpg,0,0,708,0,unchosen,6,15,outdoor_scenes,faces,4700,1,10,2
155,75229,0,156,3,3,1,gain5,no_gain5,C,E,28,33,body_parts,64,64,body_parts,Stimuli/Experimental_stims/body_parts/ira-vishnevskaya-8DQAvdCby1I-unsplash.jpg,Stimuli/Experimental_stims/body_parts/tucker-good-36skLT5jZcc-unsplash.jpg,0,0,1339,0,chosen,33,28,body_parts,body_parts,2400,0,10,2
156,75229,0,157,3,3,1,gain6,no_gain3,F,B,21,6,faces,64,84,outdoor_scenes,Stimuli/Experimental_stims/faces/leilani-angel-K84vnnzxmTQ-unsplash.jpg,Stimuli/Experimental_stims/outdoor_scenes/meng-ji-8BH_M-53CyA-unsplash.jpg,0,0,921,0,unchosen,6,21,outdoor_scenes,faces,1900,0,10,2
157,75229,0,158,3,3,1,gain1,no_gain4,J,H,39,9,objects,57,87,outdoor_scenes,Stimuli/Experimental_stims/objects/charlesdeluvio-1-nx1QR5dTE-unsplash.jpg,Stimuli/Experimental_stims/outdoor_scenes/sergey-pesterev-y-b_FOmJXdg-unsplash.jpg,1,NaN,,NaN,chosen,NaN,NaN,NaN,NaN,1000,0,10,2
158,75229,0,159,3,3,0,no_gain2,gain6,K,F,36,32,objects,68,57,body_parts,Stimuli/Experimental_stims/objects/alexander-andrews-JYGnB9gTCls-unsplash.jpg,Stimuli/Experimental_stims/body_parts/towfiqu-barbhuiya-3AsiVDsZnHg-unsplash.jpg,0,1,1388,0,chosen,36,32,objects,body_parts,1800,0,10,2
159,75229,0,160,3,3,1,gain4,no_gain4,G,H,45,20,objects,58,62,faces,Stimuli/Experimental_stims/objects/leohoho-rngTKHXumy0-unsplash.jpg,Stimuli/Experimental_stims/faces/justin-chen-J7Cf1Gch49E-unsplash.jpg,0,0,729,0,unchosen,20,45,faces,objects,1800,0,10,2
160,75229,0,161,3,3,0,no_gain4,gain3,H,L,20,15,faces,62,40,faces,Stimuli/Experimental_stims/faces/justin-chen-J7Cf1Gch49E-unsplash.jpg,Stimuli/Experimental_stims/faces/erik-lucatero-d2MSDujJl2g-unsplash.jpg,1,NaN,,NaN,unchosen,NaN,NaN,NaN,NaN,4700,1,10,2
161,75229,0,162,3,3,0,no_gain1,gain4,I,G,11,45,outdoor_scenes,80,58,objects,Stimuli/Experimental_stims/outdoor_scenes/stephen-leonardi-gyIRjKPXupE-unsplash.jpg,Stimuli/Experimental_stims/objects/leohoho-rngTKHXumy0-unsplash.jpg,0,0,597,1,unchosen,45,11,objects,outdoor_scenes,1300,0,10,2
162,75229,0,163,3,3,1,gain2,no_gain5,D,E,14,33,faces,61,64,body_parts,Stimuli/Experimental_stims/faces/david-siglin-UuW4psOb388-unsplash.jpg,Stimuli/Experimental_stims/body_parts/tucker-good-36skLT5jZcc-unsplash.jpg,0,0,794,0,chosen,33,14,body_parts,faces,1200,0,10,2
163,75229,0,164,3,3,0,no_gain3,gain4,B,G,18,4,faces,47,75,outdoor_scenes,Stimuli/Experimental_stims/faces/jessica-radanavong-mrYkTuAesKE-unsplash.jpg,Stimuli/Experimental_stims/outdoor_scenes/jarrett-kow-1ZOyYPOBn7I-unsplash.jpg,0,0,1240,1,chosen,4,18,outdoor_scenes,faces,1600,0,10,2
164,75229,0,165,3,3,0,no_gain2,gain5,K,C,29,3,body_parts,83,78,outdoor_scenes,Stimuli/Experimental_stims/body_parts/manuel-schinner-ZwjFuJ7ebpk-unsplash.jpg,Stimuli/Experimental_stims/outdoor_scenes/henry-be-NLF6hTe4PAg-unsplash.jpg,0,0,1302,1,unchosen,3,29,outdoor_scenes,body_parts,1200,0,10,2
165,75229,0,166,3,3,1,gain6,no_gain5,F,E,21,47,faces,64,57,objects,Stimuli/Experimental_stims/faces/leilani-angel-K84vnnzxmTQ-unsplash.jpg,Stimuli/Experimental_stims/objects/ronaldo-arthur-vidal-Cdz_lvnl37k-unsplash.jpg,0,0,881,0,unchosen,47,21,objects,faces,1100,0,10,2
166,75229,0,167,3,3,0,no_gain6,gain3,A,L,40,31,objects,58,56,body_parts,Stimuli/Experimental_stims/objects/fabian-blank-pElSkGRA2NU-unsplash.jpg,Stimuli/Experimental_stims/body_parts/sincerely-media-VN6DbKajo5s-unsplash.jpg,0,0,1333,1,chosen,31,40,body_parts,objects,3100,1,10,2
167,75229,0,168,3,3,0,no_gain5,gain3,E,L,47,15,objects,57,40,faces,Stimuli/Experimental_stims/objects/ronaldo-arthur-vidal-Cdz_lvnl37k-unsplash.jpg,Stimuli/Experimental_stims/faces/erik-lucatero-d2MSDujJl2g-unsplash.jpg,0,0,1349,1,unchosen,15,47,faces,objects,1500,0,10,2
168,75229,0,169,3,3,0,no_gain4,gain3,H,L,9,31,outdoor_scenes,87,56,body_parts,Stimuli/Experimental_stims/outdoor_scenes/sergey-pesterev-y-b_FOmJXdg-unsplash.jpg,Stimuli/Experimental_stims/body_parts/sincerely-media-VN6DbKajo5s-unsplash.jpg,0,1,1316,0,chosen,9,31,outdoor_scenes,body_parts,1000,0,10,2
169,75229,0,170,3,3,0,no_gain5,gain2,E,D,47,37,objects,57,59,objects,Stimuli/Experimental_stims/objects/ronaldo-arthur-vidal-Cdz_lvnl37k-unsplash.jpg,Stimuli/Experimental_stims/objects/alexander-andrews-VLGWE_SumrA-unsplash.jpg,0,0,1080,1,unchosen,37,47,objects,objects,1500,0,10,2
170,75229,0,171,3,3,0,no_gain3,gain2,B,D,18,14,faces,47,61,faces,Stimuli/Experimental_stims/faces/jessica-radanavong-mrYkTuAesKE-unsplash.jpg,Stimuli/Experimental_stims/faces/david-siglin-UuW4psOb388-unsplash.jpg,0,0,610,1,chosen,14,18,faces,faces,1400,0,10,2
171,75229,0,172,3,3,1,gain1,no_gain2,J,K,39,36,objects,57,68,objects,Stimuli/Experimental_stims/objects/charlesdeluvio-1-nx1QR5dTE-unsplash.jpg,Stimuli/Experimental_stims/objects/alexander-andrews-JYGnB9gTCls-unsplash.jpg,0,0,925,0,chosen,36,39,objects,objects,3500,1,10,2
172,75229,0,173,3,3,0,no_gain4,gain2,H,D,9,14,outdoor_scenes,87,61,faces,Stimuli/Experimental_stims/outdoor_scenes/sergey-pesterev-y-b_FOmJXdg-unsplash.jpg,Stimuli/Experimental_stims/faces/david-siglin-UuW4psOb388-unsplash.jpg,0,0,767,1,chosen,14,9,faces,outdoor_scenes,1600,0,10,2
173,75229,0,174,3,3,0,no_gain4,gain5,H,C,20,3,faces,62,78,outdoor_scenes,Stimuli/Experimental_stims/faces/justin-chen-J7Cf1Gch49E-unsplash.jpg,Stimuli/Experimental_stims/outdoor_scenes/henry-be-NLF6hTe4PAg-unsplash.jpg,0,0,1399,1,unchosen,3,20,outdoor_scenes,faces,2200,0,10,2
174,75229,0,175,3,3,0,no_gain3,gain2,B,D,6,37,outdoor_scenes,84,59,objects,Stimuli/Experimental_stims/outdoor_scenes/meng-ji-8BH_M-53CyA-unsplash.jpg,Stimuli/Experimental_stims/objects/alexander-andrews-VLGWE_SumrA-unsplash.jpg,0,0,832,1,unchosen,37,6,objects,outdoor_scenes,1200,0,10,2
175,75229,0,176,3,3,1,gain2,no_gain2,D,K,37,29,objects,59,83,body_parts,Stimuli/Experimental_stims/objects/alexander-andrews-VLGWE_SumrA-unsplash.jpg,Stimuli/Experimental_stims/body_parts/manuel-schinner-ZwjFuJ7ebpk-unsplash.jpg,0,0,1111,0,unchosen,29,37,body_parts,objects,1900,0,10,2
176,75229,0,177,3,3,0,no_gain6,gain5,A,C,40,28,objects,58,64,body_parts,Stimuli/Experimental_stims/objects/fabian-blank-pElSkGRA2NU-unsplash.jpg,Stimuli/Experimental_stims/body_parts/ira-vishnevskaya-8DQAvdCby1I-unsplash.jpg,0,0,905,1,chosen,28,40,body_parts,objects,2000,0,10,2
177,75229,0,178,3,3,1,gain6,no_gain1,F,I,32,27,body_parts,57,93,body_parts,Stimuli/Experimental_stims/body_parts/towfiqu-barbhuiya-3AsiVDsZnHg-unsplash.jpg,Stimuli/Experimental_stims/body_parts/heike-mintel-i_Gns0ELnLw-unsplash.jpg,0,0,384,0,chosen,27,32,body_parts,body_parts,1800,0,10,2
178,75229,0,179,3,3,0,no_gain1,gain2,I,D,27,14,body_parts,93,61,faces,Stimuli/Experimental_stims/body_parts/heike-mintel-i_Gns0ELnLw-unsplash.jpg,Stimuli/Experimental_stims/faces/david-siglin-UuW4psOb388-unsplash.jpg,0,0,1159,1,chosen,14,27,faces,body_parts,2200,0,10,2
179,75229,0,180,3,3,0,no_gain2,gain3,K,L,29,15,body_parts,83,40,faces,Stimuli/Experimental_stims/body_parts/manuel-schinner-ZwjFuJ7ebpk-unsplash.jpg,Stimuli/Experimental_stims/faces/erik-lucatero-d2MSDujJl2g-unsplash.jpg,0,0,9,1,unchosen,15,29,faces,body_parts,2300,0,10,2
180,75229,0,181,3,3,1,gain6,no_gain3,F,B,32,18,body_parts,57,47,faces,Stimuli/Experimental_stims/body_parts/towfiqu-barbhuiya-3AsiVDsZnHg-unsplash.jpg,Stimuli/Experimental_stims/faces/jessica-radanavong-mrYkTuAesKE-unsplash.jpg,1,NaN,,NaN,chosen,NaN,NaN,NaN,NaN,4300,1,10,2
181,75229,0,182,3,3,1,gain5,no_gain3,C,B,28,18,body_parts,64,47,faces,Stimuli/Experimental_stims/body_parts/ira-vishnevskaya-8DQAvdCby1I-unsplash.jpg,Stimuli/Experimental_stims/faces/jessica-radanavong-mrYkTuAesKE-unsplash.jpg,0,0,752,0,chosen,18,28,faces,body_parts,1600,0,10,2
182,75229,0,183,3,3,0,no_gain2,gain4,K,G,29,45,body_parts,83,58,objects,Stimuli/Experimental_stims/body_parts/manuel-schinner-ZwjFuJ7ebpk-unsplash.jpg,Stimuli/Experimental_stims/objects/leohoho-rngTKHXumy0-unsplash.jpg,0,0,859,1,unchosen,45,29,objects,body_parts,1600,0,10,2
183,75229,0,184,3,3,1,gain3,no_gain1,L,I,15,11,faces,40,80,outdoor_scenes,Stimuli/Experimental_stims/faces/erik-lucatero-d2MSDujJl2g-unsplash.jpg,Stimuli/Experimental_stims/outdoor_scenes/stephen-leonardi-gyIRjKPXupE-unsplash.jpg,0,0,1490,0,unchosen,11,15,outdoor_scenes,faces,1100,0,10,2
184,75229,0,185,3,3,1,gain6,no_gain6,F,A,32,40,body_parts,57,58,objects,Stimuli/Experimental_stims/body_parts/towfiqu-barbhuiya-3AsiVDsZnHg-unsplash.jpg,Stimuli/Experimental_stims/objects/fabian-blank-pElSkGRA2NU-unsplash.jpg,0,0,1053,0,chosen,40,32,objects,body_parts,1000,0,10,2
185,75229,0,186,3,3,0,no_gain1,gain5,I,C,27,28,body_parts,93,64,body_parts,Stimuli/Experimental_stims/body_parts/heike-mintel-i_Gns0ELnLw-unsplash.jpg,Stimuli/Experimental_stims/body_parts/ira-vishnevskaya-8DQAvdCby1I-unsplash.jpg,0,0,934,1,chosen,28,27,body_parts,body_parts,1000,0,10,2
186,75229,0,187,3,3,0,no_gain1,gain5,I,C,11,3,outdoor_scenes,80,78,outdoor_scenes,Stimuli/Experimental_stims/outdoor_scenes/stephen-leonardi-gyIRjKPXupE-unsplash.jpg,Stimuli/Experimental_stims/outdoor_scenes/henry-be-NLF6hTe4PAg-unsplash.jpg,0,0,867,1,unchosen,3,11,outdoor_scenes,outdoor_scenes,3000,1,10,2
187,75229,0,188,3,3,1,gain4,no_gain1,G,I,4,27,outdoor_scenes,75,93,body_parts,Stimuli/Experimental_stims/outdoor_scenes/jarrett-kow-1ZOyYPOBn7I-unsplash.jpg,Stimuli/Experimental_stims/body_parts/heike-mintel-i_Gns0ELnLw-unsplash.jpg,0,0,1282,0,chosen,27,4,body_parts,outdoor_scenes,1000,0,10,2
188,75229,0,189,3,3,1,gain3,no_gain3,L,B,31,18,body_parts,56,47,faces,Stimuli/Experimental_stims/body_parts/sincerely-media-VN6DbKajo5s-unsplash.jpg,Stimuli/Experimental_stims/faces/jessica-radanavong-mrYkTuAesKE-unsplash.jpg,0,0,1433,0,chosen,18,31,faces,body_parts,1600,0,10,2
189,75229,0,190,3,3,0,no_gain2,gain5,K,C,36,28,objects,68,64,body_parts,Stimuli/Experimental_stims/objects/alexander-andrews-JYGnB9gTCls-unsplash.jpg,Stimuli/Experimental_stims/body_parts/ira-vishnevskaya-8DQAvdCby1I-unsplash.jpg,0,0,828,1,chosen,28,36,body_parts,objects,1500,0,10,2
190,75229,0,191,3,3,0,no_gain1,gain6,I,F,11,21,outdoor_scenes,80,64,faces,Stimuli/Experimental_stims/outdoor_scenes/stephen-leonardi-gyIRjKPXupE-unsplash.jpg,Stimuli/Experimental_stims/faces/leilani-angel-K84vnnzxmTQ-unsplash.jpg,0,0,1255,1,unchosen,21,11,faces,outdoor_scenes,1700,0,10,2
191,75229,0,192,3,3,1,gain5,no_gain6,C,A,3,5,outdoor_scenes,78,68,outdoor_scenes,Stimuli/Experimental_stims/outdoor_scenes/henry-be-NLF6hTe4PAg-unsplash.jpg,Stimuli/Experimental_stims/outdoor_scenes/jeff-king-bJHWJeiHfHc-unsplash.jpg,0,0,1472,0,unchosen,5,3,outdoor_scenes,outdoor_scenes,1300,0,10,2
192,75229,0,193,3,3,0,no_gain5,gain4,E,G,47,45,objects,57,58,objects,Stimuli/Experimental_stims/objects/ronaldo-arthur-vidal-Cdz_lvnl37k-unsplash.jpg,Stimuli/Experimental_stims/objects/leohoho-rngTKHXumy0-unsplash.jpg,0,0,957,1,unchosen,45,47,objects,objects,1300,0,10,2
193,75229,0,194,3,3,1,gain1,no_gain5,J,E,39,33,objects,57,64,body_parts,Stimuli/Experimental_stims/objects/charlesdeluvio-1-nx1QR5dTE-unsplash.jpg,Stimuli/Experimental_stims/body_parts/tucker-good-36skLT5jZcc-unsplash.jpg,0,0,893,0,chosen,33,39,body_parts,objects,3600,1,10,2
194,75229,0,195,3,3,1,gain6,no_gain4,F,H,21,20,faces,64,62,faces,Stimuli/Experimental_stims/faces/leilani-angel-K84vnnzxmTQ-unsplash.jpg,Stimuli/Experimental_stims/faces/justin-chen-J7Cf1Gch49E-unsplash.jpg,0,0,672,0,unchosen,20,21,faces,faces,2100,0,10,2
195,75229,0,196,3,3,1,gain1,no_gain1,J,I,39,27,objects,57,93,body_parts,Stimuli/Experimental_stims/objects/charlesdeluvio-1-nx1QR5dTE-unsplash.jpg,Stimuli/Experimental_stims/body_parts/heike-mintel-i_Gns0ELnLw-unsplash.jpg,0,0,778,0,chosen,27,39,body_parts,objects,1600,0,10,2
196,75229,0,197,3,3,1,gain4,no_gain6,G,A,45,5,objects,58,68,outdoor_scenes,Stimuli/Experimental_stims/objects/leohoho-rngTKHXumy0-unsplash.jpg,Stimuli/Experimental_stims/outdoor_scenes/jeff-king-bJHWJeiHfHc-unsplash.jpg,0,0,1116,0,unchosen,5,45,outdoor_scenes,objects,1800,0,10,2
197,75229,0,198,3,3,1,gain3,no_gain6,L,A,15,5,faces,40,68,outdoor_scenes,Stimuli/Experimental_stims/faces/erik-lucatero-d2MSDujJl2g-unsplash.jpg,Stimuli/Experimental_stims/outdoor_scenes/jeff-king-bJHWJeiHfHc-unsplash.jpg,0,0,735,0,unchosen,5,15,outdoor_scenes,faces,1600,0,10,2
198,75229,0,199,3,3,1,gain1,no_gain3,J,B,39,18,objects,57,47,faces,Stimuli/Experimental_stims/objects/charlesdeluvio-1-nx1QR5dTE-unsplash.jpg,Stimuli/Experimental_stims/faces/jessica-radanavong-mrYkTuAesKE-unsplash.jpg,0,0,640,0,chosen,18,39,faces,objects,3100,1,10,2
199,75229,0,200,3,3,0,no_gain5,gain4,E,G,33,4,body_parts,64,75,outdoor_scenes,Stimuli/Experimental_stims/body_parts/tucker-good-36skLT5jZcc-unsplash.jpg,Stimuli/Experimental_stims/outdoor_scenes/jarrett-kow-1ZOyYPOBn7I-unsplash.jpg,0,1,1325,0,chosen,33,4,body_parts,outdoor_scenes,2500,0,10,2
200,75229,0,201,3,3,0,no_gain1,gain1,I,J,11,19,outdoor_scenes,80,79,faces,Stimuli/Experimental_stims/outdoor_scenes/stephen-leonardi-gyIRjKPXupE-unsplash.jpg,Stimuli/Experimental_stims/faces/joel-mott-LaK153ghdig-unsplash.jpg,0,0,1251,1,unchosen,19,11,faces,outdoor_scenes,2000,0,10,2
201,75229,0,202,3,3,0,no_gain4,gain4,H,G,9,4,outdoor_scenes,87,75,outdoor_scenes,Stimuli/Experimental_stims/outdoor_scenes/sergey-pesterev-y-b_FOmJXdg-unsplash.jpg,Stimuli/Experimental_stims/outdoor_scenes/jarrett-kow-1ZOyYPOBn7I-unsplash.jpg,0,0,857,1,chosen,4,9,outdoor_scenes,outdoor_scenes,2100,0,10,2
202,75229,0,203,3,3,1,gain3,no_gain5,L,E,31,33,body_parts,56,64,body_parts,Stimuli/Experimental_stims/body_parts/sincerely-media-VN6DbKajo5s-unsplash.jpg,Stimuli/Experimental_stims/body_parts/tucker-good-36skLT5jZcc-unsplash.jpg,0,0,1373,0,chosen,33,31,body_parts,body_parts,1200,0,10,2
203,75229,0,204,3,3,1,gain1,no_gain6,J,A,19,5,faces,79,68,outdoor_scenes,Stimuli/Experimental_stims/faces/joel-mott-LaK153ghdig-unsplash.jpg,Stimuli/Experimental_stims/outdoor_scenes/jeff-king-bJHWJeiHfHc-unsplash.jpg,0,0,1473,0,unchosen,5,19,outdoor_scenes,faces,3300,1,10,2
204,75229,0,205,3,3,1,gain3,no_gain2,L,K,31,36,body_parts,56,68,objects,Stimuli/Experimental_stims/body_parts/sincerely-media-VN6DbKajo5s-unsplash.jpg,Stimuli/Experimental_stims/objects/alexander-andrews-JYGnB9gTCls-unsplash.jpg,0,0,742,0,chosen,36,31,objects,body_parts,2100,0,10,2
205,75229,0,206,3,3,0,no_gain4,gain5,H,C,9,28,outdoor_scenes,87,64,body_parts,Stimuli/Experimental_stims/outdoor_scenes/sergey-pesterev-y-b_FOmJXdg-unsplash.jpg,Stimuli/Experimental_stims/body_parts/ira-vishnevskaya-8DQAvdCby1I-unsplash.jpg,0,0,885,1,chosen,28,9,body_parts,outdoor_scenes,2100,0,10,2
206,75229,0,207,3,3,1,gain2,no_gain6,D,A,14,40,faces,61,58,objects,Stimuli/Experimental_stims/faces/david-siglin-UuW4psOb388-unsplash.jpg,Stimuli/Experimental_stims/objects/fabian-blank-pElSkGRA2NU-unsplash.jpg,0,0,1358,0,chosen,40,14,objects,faces,2600,0,10,2
207,75229,0,208,3,3,1,gain1,no_gain2,J,K,19,29,faces,79,83,body_parts,Stimuli/Experimental_stims/faces/joel-mott-LaK153ghdig-unsplash.jpg,Stimuli/Experimental_stims/body_parts/manuel-schinner-ZwjFuJ7ebpk-unsplash.jpg,0,1,1241,1,unchosen,19,29,faces,body_parts,2800,0,10,2
208,75229,0,209,3,3,1,gain1,no_gain4,J,H,19,20,faces,79,62,faces,Stimuli/Experimental_stims/faces/joel-mott-LaK153ghdig-unsplash.jpg,Stimuli/Experimental_stims/faces/justin-chen-J7Cf1Gch49E-unsplash.jpg,0,0,751,0,unchosen,20,19,faces,faces,2100,0,10,2
209,75229,0,210,3,3,0,no_gain6,gain1,A,J,40,39,objects,58,57,objects,Stimuli/Experimental_stims/objects/fabian-blank-pElSkGRA2NU-unsplash.jpg,Stimuli/Experimental_stims/objects/charlesdeluvio-1-nx1QR5dTE-unsplash.jpg,0,0,1016,1,chosen,39,40,objects,objects,1300,0,10,2
210,75229,0,211,3,3,0,no_gain5,gain6,E,F,33,32,body_parts,64,57,body_parts,Stimuli/Experimental_stims/body_parts/tucker-good-36skLT5jZcc-unsplash.jpg,Stimuli/Experimental_stims/body_parts/towfiqu-barbhuiya-3AsiVDsZnHg-unsplash.jpg,0,0,1303,1,chosen,32,33,body_parts,body_parts,3900,1,10,2
211,75229,0,212,3,3,0,no_gain2,gain6,K,F,29,21,body_parts,83,64,faces,Stimuli/Experimental_stims/body_parts/manuel-schinner-ZwjFuJ7ebpk-unsplash.jpg,Stimuli/Experimental_stims/faces/leilani-angel-K84vnnzxmTQ-unsplash.jpg,1,NaN,,NaN,unchosen,NaN,NaN,NaN,NaN,1600,0,10,2
212,75229,0,213,3,3,1,gain4,no_gain2,G,K,4,36,outdoor_scenes,75,68,objects,Stimuli/Experimental_stims/outdoor_scenes/jarrett-kow-1ZOyYPOBn7I-unsplash.jpg,Stimuli/Experimental_stims/objects/alexander-andrews-JYGnB9gTCls-unsplash.jpg,1,NaN,,NaN,chosen,NaN,NaN,NaN,NaN,1300,0,10,2
213,75229,0,214,3,3,0,no_gain3,gain5,B,C,6,3,outdoor_scenes,84,78,outdoor_scenes,Stimuli/Experimental_stims/outdoor_scenes/meng-ji-8BH_M-53CyA-unsplash.jpg,Stimuli/Experimental_stims/outdoor_scenes/henry-be-NLF6hTe4PAg-unsplash.jpg,1,NaN,,NaN,unchosen,NaN,NaN,NaN,NaN,1700,0,10,2
214,75229,0,215,3,3,1,gain2,no_gain6,D,A,37,5,objects,59,68,outdoor_scenes,Stimuli/Experimental_stims/objects/alexander-andrews-VLGWE_SumrA-unsplash.jpg,Stimuli/Experimental_stims/outdoor_scenes/jeff-king-bJHWJeiHfHc-unsplash.jpg,0,0,872,0,unchosen,5,37,outdoor_scenes,objects,1600,0,10,2
215,75229,0,216,3,3,0,no_gain4,gain6,H,F,9,32,outdoor_scenes,87,57,body_parts,Stimuli/Experimental_stims/outdoor_scenes/sergey-pesterev-y-b_FOmJXdg-unsplash.jpg,Stimuli/Experimental_stims/body_parts/towfiqu-barbhuiya-3AsiVDsZnHg-unsplash.jpg,0,0,1143,1,chosen,32,9,body_parts,outdoor_scenes,3600,1,10,2
216,75229,0,217,3,3,1,gain5,no_gain5,C,E,3,47,outdoor_scenes,78,57,objects,Stimuli/Experimental_stims/outdoor_scenes/henry-be-NLF6hTe4PAg-unsplash.jpg,Stimuli/Experimental_stims/objects/ronaldo-arthur-vidal-Cdz_lvnl37k-unsplash.jpg,0,1,1342,1,unchosen,3,47,outdoor_scenes,objects,2700,0,10,2
217,75229,0,218,3,3,1,gain2,no_gain2,D,K,14,36,faces,61,68,objects,Stimuli/Experimental_stims/faces/david-siglin-UuW4psOb388-unsplash.jpg,Stimuli/Experimental_stims/objects/alexander-andrews-JYGnB9gTCls-unsplash.jpg,0,0,1296,0,chosen,36,14,objects,faces,2800,0,10,2
218,75229,0,219,3,3,0,no_gain6,gain6,A,F,5,21,outdoor_scenes,68,64,faces,Stimuli/Experimental_stims/outdoor_scenes/jeff-king-bJHWJeiHfHc-unsplash.jpg,Stimuli/Experimental_stims/faces/leilani-angel-K84vnnzxmTQ-unsplash.jpg,0,0,1282,1,unchosen,21,5,faces,outdoor_scenes,2800,0,10,2
219,75229,0,220,3,3,1,gain1,no_gain3,J,B,19,6,faces,79,84,outdoor_scenes,Stimuli/Experimental_stims/faces/joel-mott-LaK153ghdig-unsplash.jpg,Stimuli/Experimental_stims/outdoor_scenes/meng-ji-8BH_M-53CyA-unsplash.jpg,0,1,1225,1,unchosen,19,6,faces,outdoor_scenes,1100,0,10,2
220,75229,0,221,4,4,0,no_gain6,gain2,A,D,40,14,objects,58,61,faces,Stimuli/Experimental_stims/objects/fabian-blank-pElSkGRA2NU-unsplash.jpg,Stimuli/Experimental_stims/faces/david-siglin-UuW4psOb388-unsplash.jpg,1,NaN,,NaN,chosen,NaN,NaN,NaN,NaN,4200,1,9,2
221,75229,0,222,4,4,1,gain4,no_gain2,G,K,45,29,objects,58,83,body_parts,Stimuli/Experimental_stims/objects/leohoho-rngTKHXumy0-unsplash.jpg,Stimuli/Experimental_stims/body_parts/manuel-schinner-ZwjFuJ7ebpk-unsplash.jpg,0,0,861,0,unchosen,29,45,body_parts,objects,2400,0,9,2
222,75229,0,223,4,4,1,gain2,no_gain1,D,I,14,27,faces,61,93,body_parts,Stimuli/Experimental_stims/faces/david-siglin-UuW4psOb388-unsplash.jpg,Stimuli/Experimental_stims/body_parts/heike-mintel-i_Gns0ELnLw-unsplash.jpg,0,1,690,1,chosen,14,27,faces,body_parts,1200,0,9,2
223,75229,0,224,4,4,0,no_gain4,gain4,H,G,9,4,outdoor_scenes,87,75,outdoor_scenes,Stimuli/Experimental_stims/outdoor_scenes/sergey-pesterev-y-b_FOmJXdg-unsplash.jpg,Stimuli/Experimental_stims/outdoor_scenes/jarrett-kow-1ZOyYPOBn7I-unsplash.jpg,0,0,476,1,chosen,4,9,outdoor_scenes,outdoor_scenes,1400,0,9,2
224,75229,0,225,4,4,0,no_gain4,gain6,H,F,20,21,faces,62,64,faces,Stimuli/Experimental_stims/faces/justin-chen-J7Cf1Gch49E-unsplash.jpg,Stimuli/Experimental_stims/faces/leilani-angel-K84vnnzxmTQ-unsplash.jpg,0,1,1481,0,unchosen,20,21,faces,faces,1800,0,9,2
225,75229,0,226,4,4,0,no_gain4,gain5,H,C,20,3,faces,62,78,outdoor_scenes,Stimuli/Experimental_stims/faces/justin-chen-J7Cf1Gch49E-unsplash.jpg,Stimuli/Experimental_stims/outdoor_scenes/henry-be-NLF6hTe4PAg-unsplash.jpg,0,0,1227,1,unchosen,3,20,outdoor_scenes,faces,2200,0,9,2
226,75229,0,227,4,4,1,gain4,no_gain1,G,I,4,27,outdoor_scenes,75,93,body_parts,Stimuli/Experimental_stims/outdoor_scenes/jarrett-kow-1ZOyYPOBn7I-unsplash.jpg,Stimuli/Experimental_stims/body_parts/heike-mintel-i_Gns0ELnLw-unsplash.jpg,1,NaN,,NaN,chosen,NaN,NaN,NaN,NaN,4000,1,9,2
227,75229,0,228,4,4,1,gain3,no_gain2,L,K,31,36,body_parts,56,68,objects,Stimuli/Experimental_stims/body_parts/sincerely-media-VN6DbKajo5s-unsplash.jpg,Stimuli/Experimental_stims/objects/alexander-andrews-JYGnB9gTCls-unsplash.jpg,0,0,747,0,chosen,36,31,objects,body_parts,1900,0,9,2
228,75229,0,229,4,4,0,no_gain5,gain4,E,G,33,4,body_parts,64,75,outdoor_scenes,Stimuli/Experimental_stims/body_parts/tucker-good-36skLT5jZcc-unsplash.jpg,Stimuli/Experimental_stims/outdoor_scenes/jarrett-kow-1ZOyYPOBn7I-unsplash.jpg,0,0,832,1,chosen,4,33,outdoor_scenes,body_parts,1800,0,9,2
229,75229,0,230,4,4,0,no_gain4,gain3,H,L,20,15,faces,62,40,faces,Stimuli/Experimental_stims/faces/justin-chen-J7Cf1Gch49E-unsplash.jpg,Stimuli/Experimental_stims/faces/erik-lucatero-d2MSDujJl2g-unsplash.jpg,0,0,717,1,unchosen,15,20,faces,faces,1200,0,9,2
230,75229,0,231,4,4,0,no_gain3,gain5,B,C,6,3,outdoor_scenes,84,78,outdoor_scenes,Stimuli/Experimental_stims/outdoor_scenes/meng-ji-8BH_M-53CyA-unsplash.jpg,Stimuli/Experimental_stims/outdoor_scenes/henry-be-NLF6hTe4PAg-unsplash.jpg,0,0,856,1,unchosen,3,6,outdoor_scenes,outdoor_scenes,1700,0,9,2
231,75229,0,232,4,4,0,no_gain2,gain5,K,C,29,3,body_parts,83,78,outdoor_scenes,Stimuli/Experimental_stims/body_parts/manuel-schinner-ZwjFuJ7ebpk-unsplash.jpg,Stimuli/Experimental_stims/outdoor_scenes/henry-be-NLF6hTe4PAg-unsplash.jpg,0,0,310,1,unchosen,3,29,outdoor_scenes,body_parts,3500,1,9,2
232,75229,0,233,4,4,1,gain3,no_gain3,L,B,31,18,body_parts,56,47,faces,Stimuli/Experimental_stims/body_parts/sincerely-media-VN6DbKajo5s-unsplash.jpg,Stimuli/Experimental_stims/faces/jessica-radanavong-mrYkTuAesKE-unsplash.jpg,0,0,740,0,chosen,18,31,faces,body_parts,1700,0,9,2
233,75229,0,234,4,4,1,gain2,no_gain2,D,K,37,29,objects,59,83,body_parts,Stimuli/Experimental_stims/objects/alexander-andrews-VLGWE_SumrA-unsplash.jpg,Stimuli/Experimental_stims/body_parts/manuel-schinner-ZwjFuJ7ebpk-unsplash.jpg,0,0,781,0,unchosen,29,37,body_parts,objects,2000,0,9,2
234,75229,0,235,4,4,0,no_gain6,gain5,A,C,5,3,outdoor_scenes,68,78,outdoor_scenes,Stimuli/Experimental_stims/outdoor_scenes/jeff-king-bJHWJeiHfHc-unsplash.jpg,Stimuli/Experimental_stims/outdoor_scenes/henry-be-NLF6hTe4PAg-unsplash.jpg,0,0,909,1,unchosen,3,5,outdoor_scenes,outdoor_scenes,1300,0,9,2
235,75229,0,236,4,4,1,gain6,no_gain1,F,I,32,27,body_parts,57,93,body_parts,Stimuli/Experimental_stims/body_parts/towfiqu-barbhuiya-3AsiVDsZnHg-unsplash.jpg,Stimuli/Experimental_stims/body_parts/heike-mintel-i_Gns0ELnLw-unsplash.jpg,0,0,642,0,chosen,27,32,body_parts,body_parts,1400,0,9,2
236,75229,0,237,4,4,1,gain1,no_gain4,J,H,19,20,faces,79,62,faces,Stimuli/Experimental_stims/faces/joel-mott-LaK153ghdig-unsplash.jpg,Stimuli/Experimental_stims/faces/justin-chen-J7Cf1Gch49E-unsplash.jpg,0,0,698,0,unchosen,20,19,faces,faces,3600,1,9,2
237,75229,0,238,4,4,0,no_gain3,gain4,B,G,18,4,faces,47,75,outdoor_scenes,Stimuli/Experimental_stims/faces/jessica-radanavong-mrYkTuAesKE-unsplash.jpg,Stimuli/Experimental_stims/outdoor_scenes/jarrett-kow-1ZOyYPOBn7I-unsplash.jpg,0,0,827,1,chosen,4,18,outdoor_scenes,faces,2700,0,9,2
238,75229,0,239,4,4,0,no_gain5,gain1,E,J,47,19,objects,57,79,faces,Stimuli/Experimental_stims/objects/ronaldo-arthur-vidal-Cdz_lvnl37k-unsplash.jpg,Stimuli/Experimental_stims/faces/joel-mott-LaK153ghdig-unsplash.jpg,0,0,882,1,unchosen,19,47,faces,objects,1900,0,9,2
239,75229,0,240,4,4,0,no_gain1,gain3,I,L,11,15,outdoor_scenes,80,40,faces,Stimuli/Experimental_stims/outdoor_scenes/stephen-leonardi-gyIRjKPXupE-unsplash.jpg,Stimuli/Experimental_stims/faces/erik-lucatero-d2MSDujJl2g-unsplash.jpg,0,0,746,1,unchosen,15,11,faces,outdoor_scenes,1200,0,9,2
240,75229,0,241,4,4,0,no_gain2,gain1,K,J,29,19,body_parts,83,79,faces,Stimuli/Experimental_stims/body_parts/manuel-schinner-ZwjFuJ7ebpk-unsplash.jpg,Stimuli/Experimental_stims/faces/joel-mott-LaK153ghdig-unsplash.jpg,0,0,770,1,unchosen,19,29,faces,body_parts,1000,0,9,2
241,75229,0,242,4,4,1,gain3,no_gain4,L,H,31,9,body_parts,56,87,outdoor_scenes,Stimuli/Experimental_stims/body_parts/sincerely-media-VN6DbKajo5s-unsplash.jpg,Stimuli/Experimental_stims/outdoor_scenes/sergey-pesterev-y-b_FOmJXdg-unsplash.jpg,0,0,1082,0,chosen,9,31,outdoor_scenes,body_parts,3700,1,9,2
242,75229,0,243,4,4,0,no_gain4,gain1,H,J,9,39,outdoor_scenes,87,57,objects,Stimuli/Experimental_stims/outdoor_scenes/sergey-pesterev-y-b_FOmJXdg-unsplash.jpg,Stimuli/Experimental_stims/objects/charlesdeluvio-1-nx1QR5dTE-unsplash.jpg,0,0,743,1,chosen,39,9,objects,outdoor_scenes,1200,0,9,2
243,75229,0,244,4,4,1,gain2,no_gain3,D,B,37,6,objects,59,84,outdoor_scenes,Stimuli/Experimental_stims/objects/alexander-andrews-VLGWE_SumrA-unsplash.jpg,Stimuli/Experimental_stims/outdoor_scenes/meng-ji-8BH_M-53CyA-unsplash.jpg,0,1,905,1,unchosen,37,6,objects,outdoor_scenes,2600,0,9,2
244,75229,0,245,4,4,1,gain4,no_gain4,G,H,45,20,objects,58,62,faces,Stimuli/Experimental_stims/objects/leohoho-rngTKHXumy0-unsplash.jpg,Stimuli/Experimental_stims/faces/justin-chen-J7Cf1Gch49E-unsplash.jpg,0,0,677,0,unchosen,20,45,faces,objects,2400,0,9,2
245,75229,0,246,4,4,1,gain2,no_gain6,D,A,37,5,objects,59,68,outdoor_scenes,Stimuli/Experimental_stims/objects/alexander-andrews-VLGWE_SumrA-unsplash.jpg,Stimuli/Experimental_stims/outdoor_scenes/jeff-king-bJHWJeiHfHc-unsplash.jpg,0,0,841,0,unchosen,5,37,outdoor_scenes,objects,1200,0,9,2
246,75229,0,247,4,4,0,no_gain6,gain6,A,F,40,32,objects,58,57,body_parts,Stimuli/Experimental_stims/objects/fabian-blank-pElSkGRA2NU-unsplash.jpg,Stimuli/Experimental_stims/body_parts/towfiqu-barbhuiya-3AsiVDsZnHg-unsplash.jpg,0,0,789,1,chosen,32,40,body_parts,objects,2500,0,9,2
247,75229,0,248,4,4,1,gain2,no_gain5,D,E,37,47,objects,59,57,objects,Stimuli/Experimental_stims/objects/alexander-andrews-VLGWE_SumrA-unsplash.jpg,Stimuli/Experimental_stims/objects/ronaldo-arthur-vidal-Cdz_lvnl37k-unsplash.jpg,0,0,790,0,unchosen,47,37,objects,objects,2200,0,9,2
248,75229,0,249,4,4,0,no_gain1,gain3,I,L,27,31,body_parts,93,56,body_parts,Stimuli/Experimental_stims/body_parts/heike-mintel-i_Gns0ELnLw-unsplash.jpg,Stimuli/Experimental_stims/body_parts/sincerely-media-VN6DbKajo5s-unsplash.jpg,0,0,977,1,chosen,31,27,body_parts,body_parts,1100,0,9,2
249,75229,0,250,4,4,0,no_gain6,gain1,A,J,40,39,objects,58,57,objects,Stimuli/Experimental_stims/objects/fabian-blank-pElSkGRA2NU-unsplash.jpg,Stimuli/Experimental_stims/objects/charlesdeluvio-1-nx1QR5dTE-unsplash.jpg,0,1,975,0,chosen,40,39,objects,objects,1700,0,9,2
250,75229,0,251,4,4,0,no_gain1,gain2,I,D,11,37,outdoor_scenes,80,59,objects,Stimuli/Experimental_stims/outdoor_scenes/stephen-leonardi-gyIRjKPXupE-unsplash.jpg,Stimuli/Experimental_stims/objects/alexander-andrews-VLGWE_SumrA-unsplash.jpg,0,0,1003,1,unchosen,37,11,objects,outdoor_scenes,1100,0,9,2
251,75229,0,252,4,4,1,gain6,no_gain3,F,B,32,18,body_parts,57,47,faces,Stimuli/Experimental_stims/body_parts/towfiqu-barbhuiya-3AsiVDsZnHg-unsplash.jpg,Stimuli/Experimental_stims/faces/jessica-radanavong-mrYkTuAesKE-unsplash.jpg,0,0,848,0,chosen,18,32,faces,body_parts,1900,0,9,2
252,75229,0,253,4,4,1,gain4,no_gain1,G,I,45,11,objects,58,80,outdoor_scenes,Stimuli/Experimental_stims/objects/leohoho-rngTKHXumy0-unsplash.jpg,Stimuli/Experimental_stims/outdoor_scenes/stephen-leonardi-gyIRjKPXupE-unsplash.jpg,0,0,914,0,unchosen,11,45,outdoor_scenes,objects,1100,0,9,2
253,75229,0,254,4,4,1,gain4,no_gain5,G,E,45,47,objects,58,57,objects,Stimuli/Experimental_stims/objects/leohoho-rngTKHXumy0-unsplash.jpg,Stimuli/Experimental_stims/objects/ronaldo-arthur-vidal-Cdz_lvnl37k-unsplash.jpg,0,1,1089,1,unchosen,45,47,objects,objects,1000,0,9,2
254,75229,0,255,4,4,1,gain6,no_gain6,F,A,21,5,faces,64,68,outdoor_scenes,Stimuli/Experimental_stims/faces/leilani-angel-K84vnnzxmTQ-unsplash.jpg,Stimuli/Experimental_stims/outdoor_scenes/jeff-king-bJHWJeiHfHc-unsplash.jpg,0,0,869,0,unchosen,5,21,outdoor_scenes,faces,1600,0,9,2
255,75229,0,256,4,4,0,no_gain4,gain5,H,C,9,28,outdoor_scenes,87,64,body_parts,Stimuli/Experimental_stims/outdoor_scenes/sergey-pesterev-y-b_FOmJXdg-unsplash.jpg,Stimuli/Experimental_stims/body_parts/ira-vishnevskaya-8DQAvdCby1I-unsplash.jpg,0,0,849,1,chosen,28,9,body_parts,outdoor_scenes,2700,0,9,2
256,75229,0,257,4,4,1,gain4,no_gain6,G,A,45,5,objects,58,68,outdoor_scenes,Stimuli/Experimental_stims/objects/leohoho-rngTKHXumy0-unsplash.jpg,Stimuli/Experimental_stims/outdoor_scenes/jeff-king-bJHWJeiHfHc-unsplash.jpg,0,1,742,1,unchosen,45,5,objects,outdoor_scenes,3500,1,9,2
257,75229,0,258,4,4,0,no_gain2,gain6,K,F,29,21,body_parts,83,64,faces,Stimuli/Experimental_stims/body_parts/manuel-schinner-ZwjFuJ7ebpk-unsplash.jpg,Stimuli/Experimental_stims/faces/leilani-angel-K84vnnzxmTQ-unsplash.jpg,0,0,730,1,unchosen,21,29,faces,body_parts,1000,0,9,2
258,75229,0,259,4,4,0,no_gain2,gain3,K,L,29,15,body_parts,83,40,faces,Stimuli/Experimental_stims/body_parts/manuel-schinner-ZwjFuJ7ebpk-unsplash.jpg,Stimuli/Experimental_stims/faces/erik-lucatero-d2MSDujJl2g-unsplash.jpg,0,1,910,0,unchosen,29,15,body_parts,faces,1700,0,9,2
259,75229,0,260,4,4,1,gain2,no_gain5,D,E,14,33,faces,61,64,body_parts,Stimuli/Experimental_stims/faces/david-siglin-UuW4psOb388-unsplash.jpg,Stimuli/Experimental_stims/body_parts/tucker-good-36skLT5jZcc-unsplash.jpg,0,0,1158,0,chosen,33,14,body_parts,faces,1500,0,9,2
260,75229,0,261,4,4,1,gain3,no_gain5,L,E,31,33,body_parts,56,64,body_parts,Stimuli/Experimental_stims/body_parts/sincerely-media-VN6DbKajo5s-unsplash.jpg,Stimuli/Experimental_stims/body_parts/tucker-good-36skLT5jZcc-unsplash.jpg,0,0,999,0,chosen,33,31,body_parts,body_parts,1400,0,9,2
261,75229,0,262,4,4,1,gain5,no_gain3,C,B,28,18,body_parts,64,47,faces,Stimuli/Experimental_stims/body_parts/ira-vishnevskaya-8DQAvdCby1I-unsplash.jpg,Stimuli/Experimental_stims/faces/jessica-radanavong-mrYkTuAesKE-unsplash.jpg,0,0,734,0,chosen,18,28,faces,body_parts,1300,0,9,2
262,75229,0,263,4,4,1,gain5,no_gain5,C,E,3,47,outdoor_scenes,78,57,objects,Stimuli/Experimental_stims/outdoor_scenes/henry-be-NLF6hTe4PAg-unsplash.jpg,Stimuli/Experimental_stims/objects/ronaldo-arthur-vidal-Cdz_lvnl37k-unsplash.jpg,0,0,938,0,unchosen,47,3,objects,outdoor_scenes,4500,1,9,2
263,75229,0,264,4,4,0,no_gain5,gain6,E,F,47,21,objects,57,64,faces,Stimuli/Experimental_stims/objects/ronaldo-arthur-vidal-Cdz_lvnl37k-unsplash.jpg,Stimuli/Experimental_stims/faces/leilani-angel-K84vnnzxmTQ-unsplash.jpg,0,0,689,1,unchosen,21,47,faces,objects,1900,0,9,2
264,75229,0,265,4,4,0,no_gain6,gain1,A,J,5,19,outdoor_scenes,68,79,faces,Stimuli/Experimental_stims/outdoor_scenes/jeff-king-bJHWJeiHfHc-unsplash.jpg,Stimuli/Experimental_stims/faces/joel-mott-LaK153ghdig-unsplash.jpg,0,1,1389,0,unchosen,5,19,outdoor_scenes,faces,1900,0,9,2
265,75229,0,266,4,4,1,gain5,no_gain5,C,E,28,33,body_parts,64,64,body_parts,Stimuli/Experimental_stims/body_parts/ira-vishnevskaya-8DQAvdCby1I-unsplash.jpg,Stimuli/Experimental_stims/body_parts/tucker-good-36skLT5jZcc-unsplash.jpg,1,NaN,,NaN,chosen,NaN,NaN,NaN,NaN,1600,0,9,2
266,75229,0,267,4,4,0,no_gain2,gain4,K,G,36,4,objects,68,75,outdoor_scenes,Stimuli/Experimental_stims/objects/alexander-andrews-JYGnB9gTCls-unsplash.jpg,Stimuli/Experimental_stims/outdoor_scenes/jarrett-kow-1ZOyYPOBn7I-unsplash.jpg,0,0,736,1,chosen,4,36,outdoor_scenes,objects,2300,0,9,2
267,75229,0,268,4,4,1,gain6,no_gain2,F,K,32,36,body_parts,57,68,objects,Stimuli/Experimental_stims/body_parts/towfiqu-barbhuiya-3AsiVDsZnHg-unsplash.jpg,Stimuli/Experimental_stims/objects/alexander-andrews-JYGnB9gTCls-unsplash.jpg,0,0,829,0,chosen,36,32,objects,body_parts,3700,1,9,2
268,75229,0,269,4,4,0,no_gain3,gain3,B,L,6,15,outdoor_scenes,84,40,faces,Stimuli/Experimental_stims/outdoor_scenes/meng-ji-8BH_M-53CyA-unsplash.jpg,Stimuli/Experimental_stims/faces/erik-lucatero-d2MSDujJl2g-unsplash.jpg,1,NaN,,NaN,unchosen,NaN,NaN,NaN,NaN,1200,0,9,2
269,75229,0,270,4,4,1,gain4,no_gain3,G,B,45,6,objects,58,84,outdoor_scenes,Stimuli/Experimental_stims/objects/leohoho-rngTKHXumy0-unsplash.jpg,Stimuli/Experimental_stims/outdoor_scenes/meng-ji-8BH_M-53CyA-unsplash.jpg,1,NaN,,NaN,unchosen,NaN,NaN,NaN,NaN,1900,0,9,2
270,75229,0,271,4,4,0,no_gain3,gain1,B,J,6,19,outdoor_scenes,84,79,faces,Stimuli/Experimental_stims/outdoor_scenes/meng-ji-8BH_M-53CyA-unsplash.jpg,Stimuli/Experimental_stims/faces/joel-mott-LaK153ghdig-unsplash.jpg,1,NaN,,NaN,unchosen,NaN,NaN,NaN,NaN,2000,0,9,2
271,75229,0,272,4,4,1,gain1,no_gain3,J,B,39,18,objects,57,47,faces,Stimuli/Experimental_stims/objects/charlesdeluvio-1-nx1QR5dTE-unsplash.jpg,Stimuli/Experimental_stims/faces/jessica-radanavong-mrYkTuAesKE-unsplash.jpg,1,NaN,,NaN,chosen,NaN,NaN,NaN,NaN,2700,0,9,2
272,75229,0,273,4,4,1,gain6,no_gain5,F,E,32,33,body_parts,57,64,body_parts,Stimuli/Experimental_stims/body_parts/towfiqu-barbhuiya-3AsiVDsZnHg-unsplash.jpg,Stimuli/Experimental_stims/body_parts/tucker-good-36skLT5jZcc-unsplash.jpg,1,NaN,,NaN,chosen,NaN,NaN,NaN,NaN,1100,0,9,2
273,75229,0,274,4,4,0,no_gain2,gain1,K,J,36,39,objects,68,57,objects,Stimuli/Experimental_stims/objects/alexander-andrews-JYGnB9gTCls-unsplash.jpg,Stimuli/Experimental_stims/objects/charlesdeluvio-1-nx1QR5dTE-unsplash.jpg,1,NaN,,NaN,chosen,NaN,NaN,NaN,NaN,4200,1,9,2
274,75229,0,275,4,4,1,gain3,no_gain6,L,A,15,5,faces,40,68,outdoor_scenes,Stimuli/Experimental_stims/faces/erik-lucatero-d2MSDujJl2g-unsplash.jpg,Stimuli/Experimental_stims/outdoor_scenes/jeff-king-bJHWJeiHfHc-unsplash.jpg,1,NaN,,NaN,unchosen,NaN,NaN,NaN,NaN,1300,0,9,2
275,75229,0,276,4,4,1,gain1,no_gain5,J,E,39,33,objects,57,64,body_parts,Stimuli/Experimental_stims/objects/charlesdeluvio-1-nx1QR5dTE-unsplash.jpg,Stimuli/Experimental_stims/body_parts/tucker-good-36skLT5jZcc-unsplash.jpg,1,NaN,,NaN,chosen,NaN,NaN,NaN,NaN,2000,0,9,2
276,75229,0,277,4,4,0,no_gain3,gain2,B,D,18,14,faces,47,61,faces,Stimuli/Experimental_stims/faces/jessica-radanavong-mrYkTuAesKE-unsplash.jpg,Stimuli/Experimental_stims/faces/david-siglin-UuW4psOb388-unsplash.jpg,1,NaN,,NaN,chosen,NaN,NaN,NaN,NaN,1100,0,9,2
277,75229,0,278,4,4,1,gain5,no_gain1,C,I,3,11,outdoor_scenes,78,80,outdoor_scenes,Stimuli/Experimental_stims/outdoor_scenes/henry-be-NLF6hTe4PAg-unsplash.jpg,Stimuli/Experimental_stims/outdoor_scenes/stephen-leonardi-gyIRjKPXupE-unsplash.jpg,1,NaN,,NaN,unchosen,NaN,NaN,NaN,NaN,2300,0,9,2
278,75229,0,279,4,4,1,gain2,no_gain2,D,K,14,36,faces,61,68,objects,Stimuli/Experimental_stims/faces/david-siglin-UuW4psOb388-unsplash.jpg,Stimuli/Experimental_stims/objects/alexander-andrews-JYGnB9gTCls-unsplash.jpg,1,NaN,,NaN,chosen,NaN,NaN,NaN,NaN,2900,0,9,2
279,75229,0,280,4,4,0,no_gain2,gain5,K,C,36,28,objects,68,64,body_parts,Stimuli/Experimental_stims/objects/alexander-andrews-JYGnB9gTCls-unsplash.jpg,Stimuli/Experimental_stims/body_parts/ira-vishnevskaya-8DQAvdCby1I-unsplash.jpg,1,NaN,,NaN,chosen,NaN,NaN,NaN,NaN,1200,0,9,2
280,75229,0,281,4,4,1,gain5,no_gain6,C,A,28,40,body_parts,64,58,objects,Stimuli/Experimental_stims/body_parts/ira-vishnevskaya-8DQAvdCby1I-unsplash.jpg,Stimuli/Experimental_stims/objects/fabian-blank-pElSkGRA2NU-unsplash.jpg,1,NaN,,NaN,chosen,NaN,NaN,NaN,NaN,1500,0,9,2
281,75229,0,282,4,4,1,gain6,no_gain3,F,B,21,6,faces,64,84,outdoor_scenes,Stimuli/Experimental_stims/faces/leilani-angel-K84vnnzxmTQ-unsplash.jpg,Stimuli/Experimental_stims/outdoor_scenes/meng-ji-8BH_M-53CyA-unsplash.jpg,1,NaN,,NaN,unchosen,NaN,NaN,NaN,NaN,1100,0,9,2
282,75229,0,283,4,4,0,no_gain6,gain4,A,G,40,4,objects,58,75,outdoor_scenes,Stimuli/Experimental_stims/objects/fabian-blank-pElSkGRA2NU-unsplash.jpg,Stimuli/Experimental_stims/outdoor_scenes/jarrett-kow-1ZOyYPOBn7I-unsplash.jpg,1,NaN,,NaN,chosen,NaN,NaN,NaN,NaN,1200,0,9,2
283,75229,0,284,4,4,0,no_gain4,gain2,H,D,9,14,outdoor_scenes,87,61,faces,Stimuli/Experimental_stims/outdoor_scenes/sergey-pesterev-y-b_FOmJXdg-unsplash.jpg,Stimuli/Experimental_stims/faces/david-siglin-UuW4psOb388-unsplash.jpg,1,NaN,,NaN,chosen,NaN,NaN,NaN,NaN,1400,0,9,2
284,75229,0,285,4,4,1,gain2,no_gain4,D,H,37,20,objects,59,62,faces,Stimuli/Experimental_stims/objects/alexander-andrews-VLGWE_SumrA-unsplash.jpg,Stimuli/Experimental_stims/faces/justin-chen-J7Cf1Gch49E-unsplash.jpg,1,NaN,,NaN,unchosen,NaN,NaN,NaN,NaN,1100,0,9,2
285,75229,0,286,4,4,1,gain3,no_gain6,L,A,31,40,body_parts,56,58,objects,Stimuli/Experimental_stims/body_parts/sincerely-media-VN6DbKajo5s-unsplash.jpg,Stimuli/Experimental_stims/objects/fabian-blank-pElSkGRA2NU-unsplash.jpg,1,NaN,,NaN,chosen,NaN,NaN,NaN,NaN,2100,0,9,2
286,75229,0,287,4,4,0,no_gain1,gain1,I,J,11,19,outdoor_scenes,80,79,faces,Stimuli/Experimental_stims/outdoor_scenes/stephen-leonardi-gyIRjKPXupE-unsplash.jpg,Stimuli/Experimental_stims/faces/joel-mott-LaK153ghdig-unsplash.jpg,1,NaN,,NaN,unchosen,NaN,NaN,NaN,NaN,3300,1,9,2
287,75229,0,288,4,4,0,no_gain1,gain6,I,F,11,21,outdoor_scenes,80,64,faces,Stimuli/Experimental_stims/outdoor_scenes/stephen-leonardi-gyIRjKPXupE-unsplash.jpg,Stimuli/Experimental_stims/faces/leilani-angel-K84vnnzxmTQ-unsplash.jpg,1,NaN,,NaN,unchosen,NaN,NaN,NaN,NaN,1900,0,9,2
288,75229,0,289,4,4,0,no_gain1,gain5,I,C,27,28,body_parts,93,64,body_parts,Stimuli/Experimental_stims/body_parts/heike-mintel-i_Gns0ELnLw-unsplash.jpg,Stimuli/Experimental_stims/body_parts/ira-vishnevskaya-8DQAvdCby1I-unsplash.jpg,1,NaN,,NaN,chosen,NaN,NaN,NaN,NaN,2000,0,9,2
289,75229,0,290,4,4,0,no_gain4,gain6,H,F,9,32,outdoor_scenes,87,57,body_parts,Stimuli/Experimental_stims/outdoor_scenes/sergey-pesterev-y-b_FOmJXdg-unsplash.jpg,Stimuli/Experimental_stims/body_parts/towfiqu-barbhuiya-3AsiVDsZnHg-unsplash.jpg,1,NaN,,NaN,chosen,NaN,NaN,NaN,NaN,1100,0,9,2
290,75229,0,291,4,4,1,gain3,no_gain5,L,E,15,47,faces,40,57,objects,Stimuli/Experimental_stims/faces/erik-lucatero-d2MSDujJl2g-unsplash.jpg,Stimuli/Experimental_stims/objects/ronaldo-arthur-vidal-Cdz_lvnl37k-unsplash.jpg,1,NaN,,NaN,unchosen,NaN,NaN,NaN,NaN,1800,0,9,2
291,75229,0,292,4,4,0,no_gain1,gain1,I,J,27,39,body_parts,93,57,objects,Stimuli/Experimental_stims/body_parts/heike-mintel-i_Gns0ELnLw-unsplash.jpg,Stimuli/Experimental_stims/objects/charlesdeluvio-1-nx1QR5dTE-unsplash.jpg,1,NaN,,NaN,chosen,NaN,NaN,NaN,NaN,3200,1,9,2