,PID,practice,trial,block,run,gain_left,left_item_id,right_item_id,left_pair_id,right_pair_id,left_stimulus,right_stimulus,left_category,right_category,left_rating,right_rating,left_path,right_path,no_response,left_chosen,rt,higher_outcome_chosen,choice_type,chosen_stimulus,unchosen_stimulus,chosen_category,unchosen_category,iti,long_iti,simulation,version
0,51659,1,1,0,0,0,,,,,,,,,,,Stimuli/Practice_stims/Final_decisions/debby-hudson-FmCSSSGge-0-unsplash.jpg,Stimuli/Practice_stims/Final_decisions/yassine-khalfalli-adsQ9d_Cx0c-unsplash.jpg,0,0,546,1,,,,,,3000,0,5,4
1,51659,1,2,0,0,0,,,,,,,,,,,Stimuli/Practice_stims/Final_decisions/florian-wehde-iVW7mZPwd4g-unsplash.jpg,Stimuli/Practice_stims/Final_decisions/patrick-perkins-3wylDrjxH-E-unsplash.jpg,0,1,865,0,,,,,,1500,0,5,4
2,51659,1,3,0,0,0,,,,,,,,,,,Stimuli/Practice_stims/Final_decisions/debby-hudson-FmCSSSGge-0-unsplash.jpg,Stimuli/Practice_stims/Final_decisions/florian-wehde-iVW7mZPwd4g-unsplash.jpg,0,0,496,1,,,,,,2000,0,5,4
3,51659,1,4,0,0,0,,,,,,,,,,,Stimuli/Practice_stims/Final_decisions/yassine-khalfalli-adsQ9d_Cx0c-unsplash.jpg,Stimuli/Practice_stims/Final_decisions/debby-hudson-FmCSSSGge-0-unsplash.jpg,0,1,796,0,,,,,,1000,0,5,4
4,51659,0,5,1,1,0,no_gain2,gain4,C,G,9,6,outdoor_scenes,outdoor_scenes,81,71,Stimuli/Experimental_stims/outdoor_scenes/sergey-pesterev-y-b_FOmJXdg-unsplash.jpg,Stimuli/Experimental_stims/outdoor_scenes/meng-ji-8BH_M-53CyA-unsplash.jpg,0,0,998,1,chosen,6,9,outdoor_scenes,outdoor_scenes,5000,1,5,4
5,51659,0,6,1,1,0,no_gain1,gain4,L,G,23,41,faces,objects,90,41,Stimuli/Experimental_stims/faces/rikonavt-HQjfrvdTfak-unsplash.jpg,Stimuli/Experimental_stims/objects/insung-yoon-w2JtIQQXoRU-unsplash.jpg,0,1,860,0,unchosen,23,41,faces,objects,1700,0,5,4
6,51659,0,7,1,1,1,gain2,no_gain4,I,K,28,44,body_parts,objects,69,15,Stimuli/Experimental_stims/body_parts/ira-vishnevskaya-8DQAvdCby1I-unsplash.jpg,Stimuli/Experimental_stims/objects/kuiye-chen-NuOGFo4PudE-unsplash.jpg,0,0,1027,0,chosen,44,28,objects,body_parts,1600,0,5,4
7,51659,0,8,1,1,1,gain1,no_gain2,E,C,37,27,objects,body_parts,64,78,Stimuli/Experimental_stims/objects/alexander-andrews-VLGWE_SumrA-unsplash.jpg,Stimuli/Experimental_stims/body_parts/heike-mintel-i_Gns0ELnLw-unsplash.jpg,0,0,975,0,unchosen,27,37,body_parts,objects,1800,0,5,4
8,51659,0,9,1,1,0,no_gain6,gain6,F,A,14,2,faces,outdoor_scenes,77,39,Stimuli/Experimental_stims/faces/david-siglin-UuW4psOb388-unsplash.jpg,Stimuli/Experimental_stims/outdoor_scenes/bruno-van-der-kraan-qez8mNJ3ilU-unsplash.jpg,0,0,1256,1,unchosen,2,14,outdoor_scenes,faces,1300,0,5,4
9,51659,0,10,1,1,1,gain6,no_gain1,A,L,2,23,outdoor_scenes,faces,39,90,Stimuli/Experimental_stims/outdoor_scenes/bruno-van-der-kraan-qez8mNJ3ilU-unsplash.jpg,Stimuli/Experimental_stims/faces/rikonavt-HQjfrvdTfak-unsplash.jpg,1,NaN,,NaN,unchosen,NaN,NaN,NaN,NaN,1200,0,5,4
10,51659,0,11,1,1,0,no_gain4,gain5,K,B,44,3,objects,outdoor_scenes,15,77,Stimuli/Experimental_stims/objects/kuiye-chen-NuOGFo4PudE-unsplash.jpg,Stimuli/Experimental_stims/outdoor_scenes/henry-be-NLF6hTe4PAg-unsplash.jpg,0,0,1132,1,chosen,3,44,outdoor_scenes,objects,3800,1,5,4
11,51659,0,12,1,1,0,no_gain3,gain2,H,I,4,28,outdoor_scenes,body_parts,78,69,Stimuli/Experimental_stims/outdoor_scenes/jarrett-kow-1ZOyYPOBn7I-unsplash.jpg,Stimuli/Experimental_stims/body_parts/ira-vishnevskaya-8DQAvdCby1I-unsplash.jpg,0,0,1019,1,chosen,28,4,body_parts,outdoor_scenes,1100,0,5,4
12,51659,0,13,1,1,1,gain5,no_gain4,B,K,18,32,faces,body_parts,77,42,Stimuli/Experimental_stims/faces/jessica-radanavong-mrYkTuAesKE-unsplash.jpg,Stimuli/Experimental_stims/body_parts/towfiqu-barbhuiya-3AsiVDsZnHg-unsplash.jpg,0,0,1311,0,unchosen,32,18,body_parts,faces,2500,0,5,4
13,51659,0,14,1,1,0,no_gain3,gain3,H,J,4,38,outdoor_scenes,objects,78,61,Stimuli/Experimental_stims/outdoor_scenes/jarrett-kow-1ZOyYPOBn7I-unsplash.jpg,Stimuli/Experimental_stims/objects/art-lasovsky-8XddFc6NkBY-unsplash.jpg,0,0,645,1,chosen,38,4,objects,outdoor_scenes,1500,0,5,4
14,51659,0,15,1,1,0,no_gain6,gain1,F,E,14,37,faces,objects,77,64,Stimuli/Experimental_stims/faces/david-siglin-UuW4psOb388-unsplash.jpg,Stimuli/Experimental_stims/objects/alexander-andrews-VLGWE_SumrA-unsplash.jpg,0,0,919,1,unchosen,37,14,objects,faces,1400,0,5,4
15,51659,0,16,1,1,0,no_gain2,gain3,C,J,9,38,outdoor_scenes,objects,81,61,Stimuli/Experimental_stims/outdoor_scenes/sergey-pesterev-y-b_FOmJXdg-unsplash.jpg,Stimuli/Experimental_stims/objects/art-lasovsky-8XddFc6NkBY-unsplash.jpg,0,0,537,1,chosen,38,9,objects,outdoor_scenes,3300,1,5,4
16,51659,0,17,1,1,0,no_gain3,gain3,H,J,21,12,faces,faces,80,82,Stimuli/Experimental_stims/faces/leilani-angel-K84vnnzxmTQ-unsplash.jpg,Stimuli/Experimental_stims/faces/aiony-haust-jmATI5Q_YgY-unsplash.jpg,0,0,1147,1,unchosen,12,21,faces,faces,1800,0,5,4
17,51659,0,18,1,1,0,no_gain1,gain3,L,J,23,12,faces,faces,90,82,Stimuli/Experimental_stims/faces/rikonavt-HQjfrvdTfak-unsplash.jpg,Stimuli/Experimental_stims/faces/aiony-haust-jmATI5Q_YgY-unsplash.jpg,0,0,736,1,unchosen,12,23,faces,faces,1900,0,5,4
18,51659,0,19,1,1,0,no_gain6,gain4,F,G,14,41,faces,objects,77,41,Stimuli/Experimental_stims/faces/david-siglin-UuW4psOb388-unsplash.jpg,Stimuli/Experimental_stims/objects/insung-yoon-w2JtIQQXoRU-unsplash.jpg,0,0,950,1,unchosen,41,14,objects,faces,1100,0,5,4
19,51659,0,20,1,1,0,no_gain2,gain1,C,E,9,31,outdoor_scenes,body_parts,81,60,Stimuli/Experimental_stims/outdoor_scenes/sergey-pesterev-y-b_FOmJXdg-unsplash.jpg,Stimuli/Experimental_stims/body_parts/sincerely-media-VN6DbKajo5s-unsplash.jpg,0,0,742,1,chosen,31,9,body_parts,outdoor_scenes,1200,0,5,4
20,51659,0,21,1,1,1,gain4,no_gain4,G,K,41,32,objects,body_parts,41,42,Stimuli/Experimental_stims/objects/insung-yoon-w2JtIQQXoRU-unsplash.jpg,Stimuli/Experimental_stims/body_parts/towfiqu-barbhuiya-3AsiVDsZnHg-unsplash.jpg,0,0,841,0,unchosen,32,41,body_parts,objects,1400,0,5,4
21,51659,0,22,1,1,0,no_gain4,gain3,K,J,44,38,objects,objects,15,61,Stimuli/Experimental_stims/objects/kuiye-chen-NuOGFo4PudE-unsplash.jpg,Stimuli/Experimental_stims/objects/art-lasovsky-8XddFc6NkBY-unsplash.jpg,0,0,613,1,chosen,38,44,objects,objects,1100,0,5,4
22,51659,0,23,1,1,0,no_gain3,gain5,H,B,21,18,faces,faces,80,77,Stimuli/Experimental_stims/faces/leilani-angel-K84vnnzxmTQ-unsplash.jpg,Stimuli/Experimental_stims/faces/jessica-radanavong-mrYkTuAesKE-unsplash.jpg,0,0,974,1,unchosen,18,21,faces,faces,1500,0,5,4
23,51659,0,24,1,1,1,gain1,no_gain3,E,H,31,4,body_parts,outdoor_scenes,60,78,Stimuli/Experimental_stims/body_parts/sincerely-media-VN6DbKajo5s-unsplash.jpg,Stimuli/Experimental_stims/outdoor_scenes/jarrett-kow-1ZOyYPOBn7I-unsplash.jpg,0,1,752,1,chosen,31,4,body_parts,outdoor_scenes,1600,0,5,4
24,51659,0,25,1,1,1,gain2,no_gain1,I,L,5,23,outdoor_scenes,faces,64,90,Stimuli/Experimental_stims/outdoor_scenes/jeff-king-bJHWJeiHfHc-unsplash.jpg,Stimuli/Experimental_stims/faces/rikonavt-HQjfrvdTfak-unsplash.jpg,0,1,885,1,unchosen,5,23,outdoor_scenes,faces,3000,1,5,4
25,51659,0,26,1,1,1,gain6,no_gain4,A,K,42,44,objects,objects,30,15,Stimuli/Experimental_stims/objects/jess-bailey-nOeVi8DsN8U-unsplash.jpg,Stimuli/Experimental_stims/objects/kuiye-chen-NuOGFo4PudE-unsplash.jpg,0,1,946,1,chosen,42,44,objects,objects,1600,0,5,4
26,51659,0,27,1,1,0,no_gain1,gain1,L,E,23,37,faces,objects,90,64,Stimuli/Experimental_stims/faces/rikonavt-HQjfrvdTfak-unsplash.jpg,Stimuli/Experimental_stims/objects/alexander-andrews-VLGWE_SumrA-unsplash.jpg,0,0,957,1,unchosen,37,23,objects,faces,2900,0,5,4
27,51659,0,28,1,1,0,no_gain1,gain3,L,J,35,38,body_parts,objects,26,61,Stimuli/Experimental_stims/body_parts/wc-so-KH4AAPjb-tI-unsplash.jpg,Stimuli/Experimental_stims/objects/art-lasovsky-8XddFc6NkBY-unsplash.jpg,0,0,587,1,chosen,38,35,objects,body_parts,2700,0,5,4
28,51659,0,29,1,1,1,gain5,no_gain3,B,H,3,4,outdoor_scenes,outdoor_scenes,77,78,Stimuli/Experimental_stims/outdoor_scenes/henry-be-NLF6hTe4PAg-unsplash.jpg,Stimuli/Experimental_stims/outdoor_scenes/jarrett-kow-1ZOyYPOBn7I-unsplash.jpg,0,1,899,1,chosen,3,4,outdoor_scenes,outdoor_scenes,1800,0,5,4
29,51659,0,30,1,1,1,gain5,no_gain5,B,D,18,13,faces,faces,77,61,Stimuli/Experimental_stims/faces/jessica-radanavong-mrYkTuAesKE-unsplash.jpg,Stimuli/Experimental_stims/faces/daniel-rigdon-dXmXKPP2L4E-unsplash.jpg,0,0,1105,0,unchosen,13,18,faces,faces,2300,0,5,4
30,51659,0,31,1,1,0,no_gain1,gain4,L,G,35,6,body_parts,outdoor_scenes,26,71,Stimuli/Experimental_stims/body_parts/wc-so-KH4AAPjb-tI-unsplash.jpg,Stimuli/Experimental_stims/outdoor_scenes/meng-ji-8BH_M-53CyA-unsplash.jpg,0,0,677,1,chosen,6,35,outdoor_scenes,body_parts,2000,0,5,4
31,51659,0,32,1,1,1,gain6,no_gain2,A,C,42,9,objects,outdoor_scenes,30,81,Stimuli/Experimental_stims/objects/jess-bailey-nOeVi8DsN8U-unsplash.jpg,Stimuli/Experimental_stims/outdoor_scenes/sergey-pesterev-y-b_FOmJXdg-unsplash.jpg,0,1,601,1,chosen,42,9,objects,outdoor_scenes,2600,0,5,4
32,51659,0,33,1,1,1,gain4,no_gain3,G,H,41,21,objects,faces,41,80,Stimuli/Experimental_stims/objects/insung-yoon-w2JtIQQXoRU-unsplash.jpg,Stimuli/Experimental_stims/faces/leilani-angel-K84vnnzxmTQ-unsplash.jpg,0,1,1283,1,unchosen,41,21,objects,faces,3500,1,5,4
33,51659,0,34,1,1,1,gain4,no_gain5,G,D,41,13,objects,faces,41,61,Stimuli/Experimental_stims/objects/insung-yoon-w2JtIQQXoRU-unsplash.jpg,Stimuli/Experimental_stims/faces/daniel-rigdon-dXmXKPP2L4E-unsplash.jpg,0,1,1148,1,unchosen,41,13,objects,faces,1000,0,5,4
34,51659,0,35,1,1,0,no_gain5,gain6,D,A,36,42,objects,objects,44,30,Stimuli/Experimental_stims/objects/alexander-andrews-JYGnB9gTCls-unsplash.jpg,Stimuli/Experimental_stims/objects/jess-bailey-nOeVi8DsN8U-unsplash.jpg,0,0,863,1,chosen,42,36,objects,objects,1600,0,5,4
35,51659,0,36,1,1,1,gain1,no_gain5,E,D,31,36,body_parts,objects,60,44,Stimuli/Experimental_stims/body_parts/sincerely-media-VN6DbKajo5s-unsplash.jpg,Stimuli/Experimental_stims/objects/alexander-andrews-JYGnB9gTCls-unsplash.jpg,0,0,640,0,chosen,36,31,objects,body_parts,1200,0,5,4
36,51659,0,37,1,1,0,no_gain6,gain2,F,I,24,28,body_parts,body_parts,68,69,Stimuli/Experimental_stims/body_parts/clay-banks-LjqARJaJotc-unsplash.jpg,Stimuli/Experimental_stims/body_parts/ira-vishnevskaya-8DQAvdCby1I-unsplash.jpg,0,0,833,1,chosen,28,24,body_parts,body_parts,1500,0,5,4
37,51659,0,38,1,1,1,gain2,no_gain6,I,F,5,14,outdoor_scenes,faces,64,77,Stimuli/Experimental_stims/outdoor_scenes/jeff-king-bJHWJeiHfHc-unsplash.jpg,Stimuli/Experimental_stims/faces/david-siglin-UuW4psOb388-unsplash.jpg,1,NaN,,NaN,unchosen,NaN,NaN,NaN,NaN,4800,1,5,4
38,51659,0,39,1,1,1,gain2,no_gain2,I,C,28,9,body_parts,outdoor_scenes,69,81,Stimuli/Experimental_stims/body_parts/ira-vishnevskaya-8DQAvdCby1I-unsplash.jpg,Stimuli/Experimental_stims/outdoor_scenes/sergey-pesterev-y-b_FOmJXdg-unsplash.jpg,0,1,791,1,chosen,28,9,body_parts,outdoor_scenes,1500,0,5,4
39,51659,0,40,1,1,0,no_gain5,gain1,D,E,13,37,faces,objects,61,64,Stimuli/Experimental_stims/faces/daniel-rigdon-dXmXKPP2L4E-unsplash.jpg,Stimuli/Experimental_stims/objects/alexander-andrews-VLGWE_SumrA-unsplash.jpg,0,0,1038,1,unchosen,37,13,objects,faces,1700,0,5,4
40,51659,0,41,1,1,0,no_gain4,gain1,K,E,32,37,body_parts,objects,42,64,Stimuli/Experimental_stims/body_parts/towfiqu-barbhuiya-3AsiVDsZnHg-unsplash.jpg,Stimuli/Experimental_stims/objects/alexander-andrews-VLGWE_SumrA-unsplash.jpg,0,1,763,0,unchosen,32,37,body_parts,objects,1200,0,5,4
41,51659,0,42,1,1,1,gain5,no_gain2,B,C,18,27,faces,body_parts,77,78,Stimuli/Experimental_stims/faces/jessica-radanavong-mrYkTuAesKE-unsplash.jpg,Stimuli/Experimental_stims/body_parts/heike-mintel-i_Gns0ELnLw-unsplash.jpg,0,1,959,1,unchosen,18,27,faces,body_parts,1400,0,5,4
42,51659,0,43,1,1,1,gain6,no_gain6,A,F,42,24,objects,body_parts,30,68,Stimuli/Experimental_stims/objects/jess-bailey-nOeVi8DsN8U-unsplash.jpg,Stimuli/Experimental_stims/body_parts/clay-banks-LjqARJaJotc-unsplash.jpg,0,1,568,1,chosen,42,24,objects,body_parts,1800,0,5,4
43,51659,0,44,1,1,1,gain1,no_gain3,E,H,37,21,objects,faces,64,80,Stimuli/Experimental_stims/objects/alexander-andrews-VLGWE_SumrA-unsplash.jpg,Stimuli/Experimental_stims/faces/leilani-angel-K84vnnzxmTQ-unsplash.jpg,0,0,1080,0,unchosen,21,37,faces,objects,3600,1,5,4
44,51659,0,45,1,1,1,gain2,no_gain5,I,D,28,36,body_parts,objects,69,44,Stimuli/Experimental_stims/body_parts/ira-vishnevskaya-8DQAvdCby1I-unsplash.jpg,Stimuli/Experimental_stims/objects/alexander-andrews-JYGnB9gTCls-unsplash.jpg,0,1,940,1,chosen,28,36,body_parts,objects,1200,0,5,4
45,51659,0,46,1,1,0,no_gain2,gain5,C,B,9,3,outdoor_scenes,outdoor_scenes,81,77,Stimuli/Experimental_stims/outdoor_scenes/sergey-pesterev-y-b_FOmJXdg-unsplash.jpg,Stimuli/Experimental_stims/outdoor_scenes/henry-be-NLF6hTe4PAg-unsplash.jpg,0,0,926,1,chosen,3,9,outdoor_scenes,outdoor_scenes,2700,0,5,4
46,51659,0,47,1,1,0,no_gain4,gain3,K,J,32,12,body_parts,faces,42,82,Stimuli/Experimental_stims/body_parts/towfiqu-barbhuiya-3AsiVDsZnHg-unsplash.jpg,Stimuli/Experimental_stims/faces/aiony-haust-jmATI5Q_YgY-unsplash.jpg,0,0,807,1,unchosen,12,32,faces,body_parts,2100,0,5,4
47,51659,0,48,1,1,1,gain6,no_gain4,A,K,2,32,outdoor_scenes,body_parts,39,42,Stimuli/Experimental_stims/outdoor_scenes/bruno-van-der-kraan-qez8mNJ3ilU-unsplash.jpg,Stimuli/Experimental_stims/body_parts/towfiqu-barbhuiya-3AsiVDsZnHg-unsplash.jpg,0,0,668,0,unchosen,32,2,body_parts,outdoor_scenes,2500,0,5,4
48,51659,0,49,1,1,1,gain3,no_gain6,J,F,38,24,objects,body_parts,61,68,Stimuli/Experimental_stims/objects/art-lasovsky-8XddFc6NkBY-unsplash.jpg,Stimuli/Experimental_stims/body_parts/clay-banks-LjqARJaJotc-unsplash.jpg,0,1,627,1,chosen,38,24,objects,body_parts,1500,0,5,4
49,51659,0,50,1,1,1,gain2,no_gain1,I,L,28,35,body_parts,body_parts,69,26,Stimuli/Experimental_stims/body_parts/ira-vishnevskaya-8DQAvdCby1I-unsplash.jpg,Stimuli/Experimental_stims/body_parts/wc-so-KH4AAPjb-tI-unsplash.jpg,0,1,898,1,chosen,28,35,body_parts,body_parts,1300,0,5,4
50,51659,0,51,1,1,1,gain6,no_gain3,A,H,42,4,objects,outdoor_scenes,30,78,Stimuli/Experimental_stims/objects/jess-bailey-nOeVi8DsN8U-unsplash.jpg,Stimuli/Experimental_stims/outdoor_scenes/jarrett-kow-1ZOyYPOBn7I-unsplash.jpg,0,1,918,1,chosen,42,4,objects,outdoor_scenes,1000,0,5,4
51,51659,0,52,1,1,1,gain6,no_gain3,A,H,2,21,outdoor_scenes,faces,39,80,Stimuli/Experimental_stims/outdoor_scenes/bruno-van-der-kraan-qez8mNJ3ilU-unsplash.jpg,Stimuli/Experimental_stims/faces/leilani-angel-K84vnnzxmTQ-unsplash.jpg,0,0,1174,0,unchosen,21,2,faces,outdoor_scenes,1500,0,5,4
52,51659,0,53,1,1,0,no_gain6,gain3,F,J,14,12,faces,faces,77,82,Stimuli/Experimental_stims/faces/david-siglin-UuW4psOb388-unsplash.jpg,Stimuli/Experimental_stims/faces/aiony-haust-jmATI5Q_YgY-unsplash.jpg,0,0,891,1,unchosen,12,14,faces,faces,2200,0,5,4
53,51659,0,54,1,1,1,gain2,no_gain5,I,D,5,13,outdoor_scenes,faces,64,61,Stimuli/Experimental_stims/outdoor_scenes/jeff-king-bJHWJeiHfHc-unsplash.jpg,Stimuli/Experimental_stims/faces/daniel-rigdon-dXmXKPP2L4E-unsplash.jpg,0,0,1104,0,unchosen,13,5,faces,outdoor_scenes,1300,0,5,4
54,51659,0,55,1,1,1,gain4,no_gain6,G,F,6,24,outdoor_scenes,body_parts,71,68,Stimuli/Experimental_stims/outdoor_scenes/meng-ji-8BH_M-53CyA-unsplash.jpg,Stimuli/Experimental_stims/body_parts/clay-banks-LjqARJaJotc-unsplash.jpg,0,1,557,1,chosen,6,24,outdoor_scenes,body_parts,3000,1,5,4
55,51659,0,56,1,1,1,gain4,no_gain2,G,C,41,27,objects,body_parts,41,78,Stimuli/Experimental_stims/objects/insung-yoon-w2JtIQQXoRU-unsplash.jpg,Stimuli/Experimental_stims/body_parts/heike-mintel-i_Gns0ELnLw-unsplash.jpg,0,0,910,0,unchosen,27,41,body_parts,objects,1400,0,5,4
56,51659,0,57,1,1,1,gain3,no_gain2,J,C,12,27,faces,body_parts,82,78,Stimuli/Experimental_stims/faces/aiony-haust-jmATI5Q_YgY-unsplash.jpg,Stimuli/Experimental_stims/body_parts/heike-mintel-i_Gns0ELnLw-unsplash.jpg,0,1,1461,1,unchosen,12,27,faces,body_parts,1500,0,5,4
57,51659,0,58,1,1,0,no_gain4,gain1,K,E,44,31,objects,body_parts,15,60,Stimuli/Experimental_stims/objects/kuiye-chen-NuOGFo4PudE-unsplash.jpg,Stimuli/Experimental_stims/body_parts/sincerely-media-VN6DbKajo5s-unsplash.jpg,0,0,1076,1,chosen,31,44,body_parts,objects,1200,0,5,4
58,51659,0,59,1,1,0,no_gain2,gain2,C,I,27,5,body_parts,outdoor_scenes,78,64,Stimuli/Experimental_stims/body_parts/heike-mintel-i_Gns0ELnLw-unsplash.jpg,Stimuli/Experimental_stims/outdoor_scenes/jeff-king-bJHWJeiHfHc-unsplash.jpg,0,1,1248,0,unchosen,27,5,body_parts,outdoor_scenes,1600,0,5,4
59,51659,0,60,1,1,0,no_gain6,gain1,F,E,24,31,body_parts,body_parts,68,60,Stimuli/Experimental_stims/body_parts/clay-banks-LjqARJaJotc-unsplash.jpg,Stimuli/Experimental_stims/body_parts/sincerely-media-VN6DbKajo5s-unsplash.jpg,0,0,807,1,chosen,31,24,body_parts,body_parts,2300,0,5,4
60,51659,0,61,1,1,1,gain2,no_gain3,I,H,5,21,outdoor_scenes,faces,64,80,Stimuli/Experimental_stims/outdoor_scenes/jeff-king-bJHWJeiHfHc-unsplash.jpg,Stimuli/Experimental_stims/faces/leilani-angel-K84vnnzxmTQ-unsplash.jpg,0,0,982,0,unchosen,21,5,faces,outdoor_scenes,1400,0,5,4
61,51659,0,62,1,1,0,no_gain5,gain4,D,G,36,6,objects,outdoor_scenes,44,71,Stimuli/Experimental_stims/objects/alexander-andrews-JYGnB9gTCls-unsplash.jpg,Stimuli/Experimental_stims/outdoor_scenes/meng-ji-8BH_M-53CyA-unsplash.jpg,0,0,689,1,chosen,6,36,outdoor_scenes,objects,4400,1,5,4
62,51659,0,63,1,1,1,gain3,no_gain5,J,D,38,36,objects,objects,61,44,Stimuli/Experimental_stims/objects/art-lasovsky-8XddFc6NkBY-unsplash.jpg,Stimuli/Experimental_stims/objects/alexander-andrews-JYGnB9gTCls-unsplash.jpg,0,1,688,1,chosen,38,36,objects,objects,1900,0,5,4
63,51659,0,64,1,1,0,no_gain6,gain5,F,B,14,18,faces,faces,77,77,Stimuli/Experimental_stims/faces/david-siglin-UuW4psOb388-unsplash.jpg,Stimuli/Experimental_stims/faces/jessica-radanavong-mrYkTuAesKE-unsplash.jpg,1,NaN,,NaN,unchosen,NaN,NaN,NaN,NaN,2000,0,5,4
64,51659,0,65,1,1,0,no_gain5,gain6,D,A,13,2,faces,outdoor_scenes,61,39,Stimuli/Experimental_stims/faces/daniel-rigdon-dXmXKPP2L4E-unsplash.jpg,Stimuli/Experimental_stims/outdoor_scenes/bruno-van-der-kraan-qez8mNJ3ilU-unsplash.jpg,0,1,845,0,unchosen,13,2,faces,outdoor_scenes,1500,0,5,4
65,51659,0,66,1,1,1,gain5,no_gain6,B,F,3,24,outdoor_scenes,body_parts,77,68,Stimuli/Experimental_stims/outdoor_scenes/henry-be-NLF6hTe4PAg-unsplash.jpg,Stimuli/Experimental_stims/body_parts/clay-banks-LjqARJaJotc-unsplash.jpg,0,1,944,1,chosen,3,24,outdoor_scenes,body_parts,1600,0,5,4
66,51659,0,67,1,1,0,no_gain2,gain6,C,A,27,2,body_parts,outdoor_scenes,78,39,Stimuli/Experimental_stims/body_parts/heike-mintel-i_Gns0ELnLw-unsplash.jpg,Stimuli/Experimental_stims/outdoor_scenes/bruno-van-der-kraan-qez8mNJ3ilU-unsplash.jpg,0,0,803,1,unchosen,2,27,outdoor_scenes,body_parts,3000,1,5,4
67,51659,0,68,1,1,0,no_gain1,gain1,L,E,35,31,body_parts,body_parts,26,60,Stimuli/Experimental_stims/body_parts/wc-so-KH4AAPjb-tI-unsplash.jpg,Stimuli/Experimental_stims/body_parts/sincerely-media-VN6DbKajo5s-unsplash.jpg,0,0,683,1,chosen,31,35,body_parts,body_parts,1900,0,5,4
68,51659,0,69,1,1,0,no_gain4,gain2,K,I,32,5,body_parts,outdoor_scenes,42,64,Stimuli/Experimental_stims/body_parts/towfiqu-barbhuiya-3AsiVDsZnHg-unsplash.jpg,Stimuli/Experimental_stims/outdoor_scenes/jeff-king-bJHWJeiHfHc-unsplash.jpg,0,1,949,0,unchosen,32,5,body_parts,outdoor_scenes,1100,0,5,4
69,51659,0,70,1,1,1,gain4,no_gain3,G,H,6,4,outdoor_scenes,outdoor_scenes,71,78,Stimuli/Experimental_stims/outdoor_scenes/meng-ji-8BH_M-53CyA-unsplash.jpg,Stimuli/Experimental_stims/outdoor_scenes/jarrett-kow-1ZOyYPOBn7I-unsplash.jpg,0,1,1342,1,chosen,6,4,outdoor_scenes,outdoor_scenes,1300,0,5,4
70,51659,0,71,1,1,1,gain6,no_gain1,A,L,42,35,objects,body_parts,30,26,Stimuli/Experimental_stims/objects/jess-bailey-nOeVi8DsN8U-unsplash.jpg,Stimuli/Experimental_stims/body_parts/wc-so-KH4AAPjb-tI-unsplash.jpg,0,1,526,1,chosen,42,35,objects,body_parts,2600,0,5,4
71,51659,0,72,1,1,0,no_gain5,gain5,D,B,36,3,objects,outdoor_scenes,44,77,Stimuli/Experimental_stims/objects/alexander-andrews-JYGnB9gTCls-unsplash.jpg,Stimuli/Experimental_stims/outdoor_scenes/henry-be-NLF6hTe4PAg-unsplash.jpg,0,0,661,1,chosen,3,36,outdoor_scenes,objects,1100,0,5,4
72,51659,0,73,1,1,0,no_gain1,gain5,L,B,23,18,faces,faces,90,77,Stimuli/Experimental_stims/faces/rikonavt-HQjfrvdTfak-unsplash.jpg,Stimuli/Experimental_stims/faces/jessica-radanavong-mrYkTuAesKE-unsplash.jpg,0,0,1379,1,unchosen,18,23,faces,faces,2500,0,5,4
73,51659,0,74,1,1,1,gain4,no_gain4,G,K,6,44,outdoor_scenes,objects,71,15,Stimuli/Experimental_stims/outdoor_scenes/meng-ji-8BH_M-53CyA-unsplash.jpg,Stimuli/Experimental_stims/objects/kuiye-chen-NuOGFo4PudE-unsplash.jpg,0,1,883,1,chosen,6,44,outdoor_scenes,objects,2600,0,5,4
74,51659,0,75,1,1,0,no_gain1,gain5,L,B,35,3,body_parts,outdoor_scenes,26,77,Stimuli/Experimental_stims/body_parts/wc-so-KH4AAPjb-tI-unsplash.jpg,Stimuli/Experimental_stims/outdoor_scenes/henry-be-NLF6hTe4PAg-unsplash.jpg,0,0,574,1,chosen,3,35,outdoor_scenes,body_parts,1100,0,5,4
75,51659,0,76,1,1,1,gain3,no_gain5,J,D,12,13,faces,faces,82,61,Stimuli/Experimental_stims/faces/aiony-haust-jmATI5Q_YgY-unsplash.jpg,Stimuli/Experimental_stims/faces/daniel-rigdon-dXmXKPP2L4E-unsplash.jpg,0,0,1341,0,unchosen,13,12,faces,faces,4200,1,5,4
76,51659,0,77,2,2,1,gain4,no_gain6,G,F,41,14,objects,faces,41,77,Stimuli/Experimental_stims/objects/insung-yoon-w2JtIQQXoRU-unsplash.jpg,Stimuli/Experimental_stims/faces/david-siglin-UuW4psOb388-unsplash.jpg,0,1,731,1,unchosen,41,14,objects,faces,1200,0,8,4
77,51659,0,78,2,2,1,gain4,no_gain3,G,H,41,21,objects,faces,41,80,Stimuli/Experimental_stims/objects/insung-yoon-w2JtIQQXoRU-unsplash.jpg,Stimuli/Experimental_stims/faces/leilani-angel-K84vnnzxmTQ-unsplash.jpg,0,0,980,0,unchosen,21,41,faces,objects,1400,0,8,4
78,51659,0,79,2,2,1,gain5,no_gain2,B,C,18,27,faces,body_parts,77,78,Stimuli/Experimental_stims/faces/jessica-radanavong-mrYkTuAesKE-unsplash.jpg,Stimuli/Experimental_stims/body_parts/heike-mintel-i_Gns0ELnLw-unsplash.jpg,0,1,593,1,unchosen,18,27,faces,body_parts,2800,0,8,4
79,51659,0,80,2,2,0,no_gain3,gain1,H,E,4,31,outdoor_scenes,body_parts,78,60,Stimuli/Experimental_stims/outdoor_scenes/jarrett-kow-1ZOyYPOBn7I-unsplash.jpg,Stimuli/Experimental_stims/body_parts/sincerely-media-VN6DbKajo5s-unsplash.jpg,0,0,815,1,chosen,31,4,body_parts,outdoor_scenes,1700,0,8,4
80,51659,0,81,2,2,0,no_gain5,gain6,D,A,13,2,faces,outdoor_scenes,61,39,Stimuli/Experimental_stims/faces/daniel-rigdon-dXmXKPP2L4E-unsplash.jpg,Stimuli/Experimental_stims/outdoor_scenes/bruno-van-der-kraan-qez8mNJ3ilU-unsplash.jpg,0,1,833,0,unchosen,13,2,faces,outdoor_scenes,3700,1,8,4
81,51659,0,82,2,2,1,gain1,no_gain4,E,K,37,32,objects,body_parts,64,42,Stimuli/Experimental_stims/objects/alexander-andrews-VLGWE_SumrA-unsplash.jpg,Stimuli/Experimental_stims/body_parts/towfiqu-barbhuiya-3AsiVDsZnHg-unsplash.jpg,0,0,744,0,unchosen,32,37,body_parts,objects,2300,0,8,4
82,51659,0,83,2,2,0,no_gain1,gain1,L,E,35,31,body_parts,body_parts,26,60,Stimuli/Experimental_stims/body_parts/wc-so-KH4AAPjb-tI-unsplash.jpg,Stimuli/Experimental_stims/body_parts/sincerely-media-VN6DbKajo5s-unsplash.jpg,0,0,679,1,chosen,31,35,body_parts,body_parts,2900,0,8,4
83,51659,0,84,2,2,0,no_gain3,gain5,H,B,21,18,faces,faces,80,77,Stimuli/Experimental_stims/faces/leilani-angel-K84vnnzxmTQ-unsplash.jpg,Stimuli/Experimental_stims/faces/jessica-radanavong-mrYkTuAesKE-unsplash.jpg,0,0,787,1,unchosen,18,21,faces,faces,2300,0,8,4
84,51659,0,85,2,2,0,no_gain2,gain1,C,E,9,31,outdoor_scenes,body_parts,81,60,Stimuli/Experimental_stims/outdoor_scenes/sergey-pesterev-y-b_FOmJXdg-unsplash.jpg,Stimuli/Experimental_stims/body_parts/sincerely-media-VN6DbKajo5s-unsplash.jpg,0,0,913,1,chosen,31,9,body_parts,outdoor_scenes,1200,0,8,4
85,51659,0,86,2,2,0,no_gain1,gain1,L,E,23,37,faces,objects,90,64,Stimuli/Experimental_stims/faces/rikonavt-HQjfrvdTfak-unsplash.jpg,Stimuli/Experimental_stims/objects/alexander-andrews-VLGWE_SumrA-unsplash.jpg,1,NaN,,NaN,unchosen,NaN,NaN,NaN,NaN,3100,1,8,4
86,51659,0,87,2,2,0,no_gain2,gain4,C,G,9,6,outdoor_scenes,outdoor_scenes,81,71,Stimuli/Experimental_stims/outdoor_scenes/sergey-pesterev-y-b_FOmJXdg-unsplash.jpg,Stimuli/Experimental_stims/outdoor_scenes/meng-ji-8BH_M-53CyA-unsplash.jpg,0,0,758,1,chosen,6,9,outdoor_scenes,outdoor_scenes,1200,0,8,4
87,51659,0,88,2,2,0,no_gain5,gain2,D,I,13,5,faces,outdoor_scenes,61,64,Stimuli/Experimental_stims/faces/daniel-rigdon-dXmXKPP2L4E-unsplash.jpg,Stimuli/Experimental_stims/outdoor_scenes/jeff-king-bJHWJeiHfHc-unsplash.jpg,0,1,1201,0,unchosen,13,5,faces,outdoor_scenes,1900,0,8,4
88,51659,0,89,2,2,1,gain6,no_gain1,A,L,42,35,objects,body_parts,30,26,Stimuli/Experimental_stims/objects/jess-bailey-nOeVi8DsN8U-unsplash.jpg,Stimuli/Experimental_stims/body_parts/wc-so-KH4AAPjb-tI-unsplash.jpg,0,1,576,1,chosen,42,35,objects,body_parts,2800,0,8,4
89,51659,0,90,2,2,1,gain5,no_gain3,B,H,3,4,outdoor_scenes,outdoor_scenes,77,78,Stimuli/Experimental_stims/outdoor_scenes/henry-be-NLF6hTe4PAg-unsplash.jpg,Stimuli/Experimental_stims/outdoor_scenes/jarrett-kow-1ZOyYPOBn7I-unsplash.jpg,0,1,750,1,chosen,3,4,outdoor_scenes,outdoor_scenes,1200,0,8,4
90,51659,0,91,2,2,1,gain4,no_gain4,G,K,41,32,objects,body_parts,41,42,Stimuli/Experimental_stims/objects/insung-yoon-w2JtIQQXoRU-unsplash.jpg,Stimuli/Experimental_stims/body_parts/towfiqu-barbhuiya-3AsiVDsZnHg-unsplash.jpg,0,1,935,1,unchosen,41,32,objects,body_parts,3800,1,8,4
91,51659,0,92,2,2,0,no_gain1,gain2,L,I,23,5,faces,outdoor_scenes,90,64,Stimuli/Experimental_stims/faces/rikonavt-HQjfrvdTfak-unsplash.jpg,Stimuli/Experimental_stims/outdoor_scenes/jeff-king-bJHWJeiHfHc-unsplash.jpg,0,1,697,0,unchosen,23,5,faces,outdoor_scenes,1800,0,8,4
92,51659,0,93,2,2,0,no_gain3,gain4,H,G,4,6,outdoor_scenes,outdoor_scenes,78,71,Stimuli/Experimental_stims/outdoor_scenes/jarrett-kow-1ZOyYPOBn7I-unsplash.jpg,Stimuli/Experimental_stims/outdoor_scenes/meng-ji-8BH_M-53CyA-unsplash.jpg,0,0,705,1,chosen,6,4,outdoor_scenes,outdoor_scenes,2300,0,8,4
93,51659,0,94,2,2,1,gain5,no_gain1,B,L,3,35,outdoor_scenes,body_parts,77,26,Stimuli/Experimental_stims/outdoor_scenes/henry-be-NLF6hTe4PAg-unsplash.jpg,Stimuli/Experimental_stims/body_parts/wc-so-KH4AAPjb-tI-unsplash.jpg,0,1,846,1,chosen,3,35,outdoor_scenes,body_parts,1400,0,8,4
94,51659,0,95,2,2,0,no_gain5,gain4,D,G,13,41,faces,objects,61,41,Stimuli/Experimental_stims/faces/daniel-rigdon-dXmXKPP2L4E-unsplash.jpg,Stimuli/Experimental_stims/objects/insung-yoon-w2JtIQQXoRU-unsplash.jpg,0,1,1121,0,unchosen,13,41,faces,objects,1300,0,8,4
95,51659,0,96,2,2,1,gain4,no_gain5,G,D,6,36,outdoor_scenes,objects,71,44,Stimuli/Experimental_stims/outdoor_scenes/meng-ji-8BH_M-53CyA-unsplash.jpg,Stimuli/Experimental_stims/objects/alexander-andrews-JYGnB9gTCls-unsplash.jpg,0,1,1117,1,chosen,6,36,outdoor_scenes,objects,1700,0,8,4
96,51659,0,97,2,2,1,gain5,no_gain1,B,L,18,23,faces,faces,77,90,Stimuli/Experimental_stims/faces/jessica-radanavong-mrYkTuAesKE-unsplash.jpg,Stimuli/Experimental_stims/faces/rikonavt-HQjfrvdTfak-unsplash.jpg,0,1,1029,1,unchosen,18,23,faces,faces,3100,1,8,4
97,51659,0,98,2,2,1,gain1,no_gain6,E,F,31,24,body_parts,body_parts,60,68,Stimuli/Experimental_stims/body_parts/sincerely-media-VN6DbKajo5s-unsplash.jpg,Stimuli/Experimental_stims/body_parts/clay-banks-LjqARJaJotc-unsplash.jpg,0,1,916,1,chosen,31,24,body_parts,body_parts,1300,0,8,4
98,51659,0,99,2,2,0,no_gain2,gain1,C,E,27,37,body_parts,objects,78,64,Stimuli/Experimental_stims/body_parts/heike-mintel-i_Gns0ELnLw-unsplash.jpg,Stimuli/Experimental_stims/objects/alexander-andrews-VLGWE_SumrA-unsplash.jpg,0,0,1321,1,unchosen,37,27,objects,body_parts,2100,0,8,4
99,51659,0,100,2,2,1,gain2,no_gain3,I,H,28,4,body_parts,outdoor_scenes,69,78,Stimuli/Experimental_stims/body_parts/ira-vishnevskaya-8DQAvdCby1I-unsplash.jpg,Stimuli/Experimental_stims/outdoor_scenes/jarrett-kow-1ZOyYPOBn7I-unsplash.jpg,0,1,984,1,chosen,28,4,body_parts,outdoor_scenes,1000,0,8,4
100,51659,0,101,2,2,1,gain2,no_gain2,I,C,28,9,body_parts,outdoor_scenes,69,81,Stimuli/Experimental_stims/body_parts/ira-vishnevskaya-8DQAvdCby1I-unsplash.jpg,Stimuli/Experimental_stims/outdoor_scenes/sergey-pesterev-y-b_FOmJXdg-unsplash.jpg,0,1,679,1,chosen,28,9,body_parts,outdoor_scenes,1200,0,8,4
101,51659,0,102,2,2,1,gain3,no_gain1,J,L,38,35,objects,body_parts,61,26,Stimuli/Experimental_stims/objects/art-lasovsky-8XddFc6NkBY-unsplash.jpg,Stimuli/Experimental_stims/body_parts/wc-so-KH4AAPjb-tI-unsplash.jpg,0,1,744,1,chosen,38,35,objects,body_parts,1700,0,8,4
102,51659,0,103,2,2,0,no_gain5,gain5,D,B,13,18,faces,faces,61,77,Stimuli/Experimental_stims/faces/daniel-rigdon-dXmXKPP2L4E-unsplash.jpg,Stimuli/Experimental_stims/faces/jessica-radanavong-mrYkTuAesKE-unsplash.jpg,0,0,712,1,unchosen,18,13,faces,faces,1100,0,8,4
103,51659,0,104,2,2,0,no_gain6,gain5,F,B,24,3,body_parts,outdoor_scenes,68,77,Stimuli/Experimental_stims/body_parts/clay-banks-LjqARJaJotc-unsplash.jpg,Stimuli/Experimental_stims/outdoor_scenes/henry-be-NLF6hTe4PAg-unsplash.jpg,0,0,1363,1,chosen,3,24,outdoor_scenes,body_parts,1900,0,8,4
104,51659,0,105,2,2,0,no_gain2,gain3,C,J,9,38,outdoor_scenes,objects,81,61,Stimuli/Experimental_stims/outdoor_scenes/sergey-pesterev-y-b_FOmJXdg-unsplash.jpg,Stimuli/Experimental_stims/objects/art-lasovsky-8XddFc6NkBY-unsplash.jpg,0,0,662,1,chosen,38,9,objects,outdoor_scenes,4100,1,8,4
105,51659,0,106,2,2,0,no_gain1,gain4,L,G,23,41,faces,objects,90,41,Stimuli/Experimental_stims/faces/rikonavt-HQjfrvdTfak-unsplash.jpg,Stimuli/Experimental_stims/objects/insung-yoon-w2JtIQQXoRU-unsplash.jpg,0,1,1386,0,unchosen,23,41,faces,objects,1400,0,8,4
106,51659,0,107,2,2,0,no_gain4,gain2,K,I,32,5,body_parts,outdoor_scenes,42,64,Stimuli/Experimental_stims/body_parts/towfiqu-barbhuiya-3AsiVDsZnHg-unsplash.jpg,Stimuli/Experimental_stims/outdoor_scenes/jeff-king-bJHWJeiHfHc-unsplash.jpg,0,1,1063,0,unchosen,32,5,body_parts,outdoor_scenes,2400,0,8,4
107,51659,0,108,2,2,0,no_gain5,gain1,D,E,36,31,objects,body_parts,44,60,Stimuli/Experimental_stims/objects/alexander-andrews-JYGnB9gTCls-unsplash.jpg,Stimuli/Experimental_stims/body_parts/sincerely-media-VN6DbKajo5s-unsplash.jpg,0,0,641,1,chosen,31,36,body_parts,objects,1200,0,8,4
108,51659,0,109,2,2,1,gain6,no_gain1,A,L,2,23,outdoor_scenes,faces,39,90,Stimuli/Experimental_stims/outdoor_scenes/bruno-van-der-kraan-qez8mNJ3ilU-unsplash.jpg,Stimuli/Experimental_stims/faces/rikonavt-HQjfrvdTfak-unsplash.jpg,0,0,913,0,unchosen,23,2,faces,outdoor_scenes,1500,0,8,4
109,51659,0,110,2,2,1,gain1,no_gain6,E,F,37,14,objects,faces,64,77,Stimuli/Experimental_stims/objects/alexander-andrews-VLGWE_SumrA-unsplash.jpg,Stimuli/Experimental_stims/faces/david-siglin-UuW4psOb388-unsplash.jpg,0,1,1095,1,unchosen,37,14,objects,faces,3200,1,8,4
110,51659,0,111,2,2,0,no_gain5,gain2,D,I,36,28,objects,body_parts,44,69,Stimuli/Experimental_stims/objects/alexander-andrews-JYGnB9gTCls-unsplash.jpg,Stimuli/Experimental_stims/body_parts/ira-vishnevskaya-8DQAvdCby1I-unsplash.jpg,0,0,812,1,chosen,28,36,body_parts,objects,1800,0,8,4
111,51659,0,112,2,2,0,no_gain5,gain1,D,E,13,37,faces,objects,61,64,Stimuli/Experimental_stims/faces/daniel-rigdon-dXmXKPP2L4E-unsplash.jpg,Stimuli/Experimental_stims/objects/alexander-andrews-VLGWE_SumrA-unsplash.jpg,0,1,890,0,unchosen,13,37,faces,objects,1100,0,8,4
112,51659,0,113,2,2,1,gain2,no_gain6,I,F,5,14,outdoor_scenes,faces,64,77,Stimuli/Experimental_stims/outdoor_scenes/jeff-king-bJHWJeiHfHc-unsplash.jpg,Stimuli/Experimental_stims/faces/david-siglin-UuW4psOb388-unsplash.jpg,0,0,896,0,unchosen,14,5,faces,outdoor_scenes,1700,0,8,4
113,51659,0,114,2,2,1,gain6,no_gain4,A,K,42,44,objects,objects,30,15,Stimuli/Experimental_stims/objects/jess-bailey-nOeVi8DsN8U-unsplash.jpg,Stimuli/Experimental_stims/objects/kuiye-chen-NuOGFo4PudE-unsplash.jpg,0,1,669,1,chosen,42,44,objects,objects,2700,0,8,4
114,51659,0,115,2,2,1,gain6,no_gain3,A,H,2,21,outdoor_scenes,faces,39,80,Stimuli/Experimental_stims/outdoor_scenes/bruno-van-der-kraan-qez8mNJ3ilU-unsplash.jpg,Stimuli/Experimental_stims/faces/leilani-angel-K84vnnzxmTQ-unsplash.jpg,0,0,981,0,unchosen,21,2,faces,outdoor_scenes,1100,0,8,4
115,51659,0,116,2,2,0,no_gain6,gain4,F,G,24,6,body_parts,outdoor_scenes,68,71,Stimuli/Experimental_stims/body_parts/clay-banks-LjqARJaJotc-unsplash.jpg,Stimuli/Experimental_stims/outdoor_scenes/meng-ji-8BH_M-53CyA-unsplash.jpg,0,0,978,1,chosen,6,24,outdoor_scenes,body_parts,1100,0,8,4
116,51659,0,117,2,2,0,no_gain1,gain3,L,J,23,12,faces,faces,90,82,Stimuli/Experimental_stims/faces/rikonavt-HQjfrvdTfak-unsplash.jpg,Stimuli/Experimental_stims/faces/aiony-haust-jmATI5Q_YgY-unsplash.jpg,0,0,1300,1,unchosen,12,23,faces,faces,2400,0,8,4
117,51659,0,118,2,2,1,gain3,no_gain6,J,F,38,24,objects,body_parts,61,68,Stimuli/Experimental_stims/objects/art-lasovsky-8XddFc6NkBY-unsplash.jpg,Stimuli/Experimental_stims/body_parts/clay-banks-LjqARJaJotc-unsplash.jpg,0,1,554,1,chosen,38,24,objects,body_parts,3400,1,8,4
118,51659,0,119,2,2,1,gain3,no_gain3,J,H,38,4,objects,outdoor_scenes,61,78,Stimuli/Experimental_stims/objects/art-lasovsky-8XddFc6NkBY-unsplash.jpg,Stimuli/Experimental_stims/outdoor_scenes/jarrett-kow-1ZOyYPOBn7I-unsplash.jpg,0,1,770,1,chosen,38,4,objects,outdoor_scenes,2000,0,8,4
119,51659,0,120,2,2,0,no_gain6,gain3,F,J,14,12,faces,faces,77,82,Stimuli/Experimental_stims/faces/david-siglin-UuW4psOb388-unsplash.jpg,Stimuli/Experimental_stims/faces/aiony-haust-jmATI5Q_YgY-unsplash.jpg,0,1,1205,0,unchosen,14,12,faces,faces,2100,0,8,4
120,51659,0,121,2,2,0,no_gain2,gain6,C,A,27,2,body_parts,outdoor_scenes,78,39,Stimuli/Experimental_stims/body_parts/heike-mintel-i_Gns0ELnLw-unsplash.jpg,Stimuli/Experimental_stims/outdoor_scenes/bruno-van-der-kraan-qez8mNJ3ilU-unsplash.jpg,0,1,855,0,unchosen,27,2,body_parts,outdoor_scenes,2500,0,8,4
121,51659,0,122,2,2,1,gain5,no_gain4,B,K,18,32,faces,body_parts,77,42,Stimuli/Experimental_stims/faces/jessica-radanavong-mrYkTuAesKE-unsplash.jpg,Stimuli/Experimental_stims/body_parts/towfiqu-barbhuiya-3AsiVDsZnHg-unsplash.jpg,0,1,1000,1,unchosen,18,32,faces,body_parts,1600,0,8,4
122,51659,0,123,2,2,1,gain2,no_gain4,I,K,28,44,body_parts,objects,69,15,Stimuli/Experimental_stims/body_parts/ira-vishnevskaya-8DQAvdCby1I-unsplash.jpg,Stimuli/Experimental_stims/objects/kuiye-chen-NuOGFo4PudE-unsplash.jpg,0,1,722,1,chosen,28,44,body_parts,objects,2400,0,8,4
123,51659,0,124,2,2,1,gain4,no_gain1,G,L,6,35,outdoor_scenes,body_parts,71,26,Stimuli/Experimental_stims/outdoor_scenes/meng-ji-8BH_M-53CyA-unsplash.jpg,Stimuli/Experimental_stims/body_parts/wc-so-KH4AAPjb-tI-unsplash.jpg,0,1,711,1,chosen,6,35,outdoor_scenes,body_parts,1300,0,8,4
124,51659,0,125,2,2,1,gain3,no_gain4,J,K,12,32,faces,body_parts,82,42,Stimuli/Experimental_stims/faces/aiony-haust-jmATI5Q_YgY-unsplash.jpg,Stimuli/Experimental_stims/body_parts/towfiqu-barbhuiya-3AsiVDsZnHg-unsplash.jpg,0,0,1074,0,unchosen,32,12,body_parts,faces,1900,0,8,4
125,51659,0,126,2,2,1,gain2,no_gain1,I,L,28,35,body_parts,body_parts,69,26,Stimuli/Experimental_stims/body_parts/ira-vishnevskaya-8DQAvdCby1I-unsplash.jpg,Stimuli/Experimental_stims/body_parts/wc-so-KH4AAPjb-tI-unsplash.jpg,0,1,948,1,chosen,28,35,body_parts,body_parts,1600,0,8,4
126,51659,0,127,2,2,0,no_gain2,gain5,C,B,9,3,outdoor_scenes,outdoor_scenes,81,77,Stimuli/Experimental_stims/outdoor_scenes/sergey-pesterev-y-b_FOmJXdg-unsplash.jpg,Stimuli/Experimental_stims/outdoor_scenes/henry-be-NLF6hTe4PAg-unsplash.jpg,0,0,718,1,chosen,3,9,outdoor_scenes,outdoor_scenes,1100,0,8,4
127,51659,0,128,2,2,1,gain3,no_gain2,J,C,12,27,faces,body_parts,82,78,Stimuli/Experimental_stims/faces/aiony-haust-jmATI5Q_YgY-unsplash.jpg,Stimuli/Experimental_stims/body_parts/heike-mintel-i_Gns0ELnLw-unsplash.jpg,0,0,764,0,unchosen,27,12,body_parts,faces,1200,0,8,4
128,51659,0,129,2,2,1,gain3,no_gain3,J,H,12,21,faces,faces,82,80,Stimuli/Experimental_stims/faces/aiony-haust-jmATI5Q_YgY-unsplash.jpg,Stimuli/Experimental_stims/faces/leilani-angel-K84vnnzxmTQ-unsplash.jpg,0,1,993,1,unchosen,12,21,faces,faces,1300,0,8,4
129,51659,0,130,2,2,1,gain4,no_gain4,G,K,6,44,outdoor_scenes,objects,71,15,Stimuli/Experimental_stims/outdoor_scenes/meng-ji-8BH_M-53CyA-unsplash.jpg,Stimuli/Experimental_stims/objects/kuiye-chen-NuOGFo4PudE-unsplash.jpg,0,1,805,1,chosen,6,44,outdoor_scenes,objects,1000,0,8,4
130,51659,0,131,2,2,0,no_gain4,gain1,K,E,44,31,objects,body_parts,15,60,Stimuli/Experimental_stims/objects/kuiye-chen-NuOGFo4PudE-unsplash.jpg,Stimuli/Experimental_stims/body_parts/sincerely-media-VN6DbKajo5s-unsplash.jpg,0,0,967,1,chosen,31,44,body_parts,objects,2900,0,8,4
131,51659,0,132,2,2,0,no_gain2,gain6,C,A,9,42,outdoor_scenes,objects,81,30,Stimuli/Experimental_stims/outdoor_scenes/sergey-pesterev-y-b_FOmJXdg-unsplash.jpg,Stimuli/Experimental_stims/objects/jess-bailey-nOeVi8DsN8U-unsplash.jpg,0,0,673,1,chosen,42,9,objects,outdoor_scenes,2200,0,8,4
132,51659,0,133,2,2,0,no_gain3,gain2,H,I,21,5,faces,outdoor_scenes,80,64,Stimuli/Experimental_stims/faces/leilani-angel-K84vnnzxmTQ-unsplash.jpg,Stimuli/Experimental_stims/outdoor_scenes/jeff-king-bJHWJeiHfHc-unsplash.jpg,0,1,958,0,unchosen,21,5,faces,outdoor_scenes,3200,1,8,4
133,51659,0,134,2,2,1,gain1,no_gain3,E,H,37,21,objects,faces,64,80,Stimuli/Experimental_stims/objects/alexander-andrews-VLGWE_SumrA-unsplash.jpg,Stimuli/Experimental_stims/faces/leilani-angel-K84vnnzxmTQ-unsplash.jpg,0,0,938,0,unchosen,21,37,faces,objects,2600,0,8,4
134,51659,0,135,2,2,0,no_gain6,gain6,F,A,14,2,faces,outdoor_scenes,77,39,Stimuli/Experimental_stims/faces/david-siglin-UuW4psOb388-unsplash.jpg,Stimuli/Experimental_stims/outdoor_scenes/bruno-van-der-kraan-qez8mNJ3ilU-unsplash.jpg,0,1,791,0,unchosen,14,2,faces,outdoor_scenes,1200,0,8,4
135,51659,0,136,2,2,0,no_gain4,gain3,K,J,44,38,objects,objects,15,61,Stimuli/Experimental_stims/objects/kuiye-chen-NuOGFo4PudE-unsplash.jpg,Stimuli/Experimental_stims/objects/art-lasovsky-8XddFc6NkBY-unsplash.jpg,0,0,762,1,chosen,38,44,objects,objects,1100,0,8,4
136,51659,0,137,2,2,1,gain5,no_gain6,B,F,18,14,faces,faces,77,77,Stimuli/Experimental_stims/faces/jessica-radanavong-mrYkTuAesKE-unsplash.jpg,Stimuli/Experimental_stims/faces/david-siglin-UuW4psOb388-unsplash.jpg,0,1,644,1,unchosen,18,14,faces,faces,2000,0,8,4
137,51659,0,138,2,2,0,no_gain6,gain2,F,I,24,28,body_parts,body_parts,68,69,Stimuli/Experimental_stims/body_parts/clay-banks-LjqARJaJotc-unsplash.jpg,Stimuli/Experimental_stims/body_parts/ira-vishnevskaya-8DQAvdCby1I-unsplash.jpg,0,0,641,1,chosen,28,24,body_parts,body_parts,4100,1,8,4
138,51659,0,139,2,2,0,no_gain2,gain4,C,G,27,41,body_parts,objects,78,41,Stimuli/Experimental_stims/body_parts/heike-mintel-i_Gns0ELnLw-unsplash.jpg,Stimuli/Experimental_stims/objects/insung-yoon-w2JtIQQXoRU-unsplash.jpg,0,1,932,0,unchosen,27,41,body_parts,objects,1700,0,8,4
139,51659,0,140,2,2,0,no_gain2,gain2,C,I,27,5,body_parts,outdoor_scenes,78,64,Stimuli/Experimental_stims/body_parts/heike-mintel-i_Gns0ELnLw-unsplash.jpg,Stimuli/Experimental_stims/outdoor_scenes/jeff-king-bJHWJeiHfHc-unsplash.jpg,0,0,1450,1,unchosen,5,27,outdoor_scenes,body_parts,1200,0,8,4
140,51659,0,141,2,2,1,gain6,no_gain3,A,H,42,4,objects,outdoor_scenes,30,78,Stimuli/Experimental_stims/objects/jess-bailey-nOeVi8DsN8U-unsplash.jpg,Stimuli/Experimental_stims/outdoor_scenes/jarrett-kow-1ZOyYPOBn7I-unsplash.jpg,0,1,550,1,chosen,42,4,objects,outdoor_scenes,1000,0,8,4
141,51659,0,142,2,2,0,no_gain5,gain5,D,B,36,3,objects,outdoor_scenes,44,77,Stimuli/Experimental_stims/objects/alexander-andrews-JYGnB9gTCls-unsplash.jpg,Stimuli/Experimental_stims/outdoor_scenes/henry-be-NLF6hTe4PAg-unsplash.jpg,0,0,997,1,chosen,3,36,outdoor_scenes,objects,1800,0,8,4
142,51659,0,143,2,2,0,no_gain5,gain6,D,A,36,42,objects,objects,44,30,Stimuli/Experimental_stims/objects/alexander-andrews-JYGnB9gTCls-unsplash.jpg,Stimuli/Experimental_stims/objects/jess-bailey-nOeVi8DsN8U-unsplash.jpg,0,0,912,1,chosen,42,36,objects,objects,3500,1,8,4
143,51659,0,144,2,2,1,gain6,no_gain4,A,K,2,32,outdoor_scenes,body_parts,39,42,Stimuli/Experimental_stims/outdoor_scenes/bruno-van-der-kraan-qez8mNJ3ilU-unsplash.jpg,Stimuli/Experimental_stims/body_parts/towfiqu-barbhuiya-3AsiVDsZnHg-unsplash.jpg,0,0,1201,0,unchosen,32,2,body_parts,outdoor_scenes,2700,0,8,4
144,51659,0,145,2,2,1,gain6,no_gain6,A,F,42,24,objects,body_parts,30,68,Stimuli/Experimental_stims/objects/jess-bailey-nOeVi8DsN8U-unsplash.jpg,Stimuli/Experimental_stims/body_parts/clay-banks-LjqARJaJotc-unsplash.jpg,0,1,894,1,chosen,42,24,objects,body_parts,2400,0,8,4
145,51659,0,146,2,2,1,gain3,no_gain5,J,D,12,13,faces,faces,82,61,Stimuli/Experimental_stims/faces/aiony-haust-jmATI5Q_YgY-unsplash.jpg,Stimuli/Experimental_stims/faces/daniel-rigdon-dXmXKPP2L4E-unsplash.jpg,0,1,944,1,unchosen,12,13,faces,faces,1400,0,8,4
146,51659,0,147,2,2,1,gain5,no_gain4,B,K,3,44,outdoor_scenes,objects,77,15,Stimuli/Experimental_stims/outdoor_scenes/henry-be-NLF6hTe4PAg-unsplash.jpg,Stimuli/Experimental_stims/objects/kuiye-chen-NuOGFo4PudE-unsplash.jpg,0,1,1046,1,chosen,3,44,outdoor_scenes,objects,1200,0,8,4
147,51659,0,148,2,2,0,no_gain5,gain3,D,J,36,38,objects,objects,44,61,Stimuli/Experimental_stims/objects/alexander-andrews-JYGnB9gTCls-unsplash.jpg,Stimuli/Experimental_stims/objects/art-lasovsky-8XddFc6NkBY-unsplash.jpg,0,0,698,1,chosen,38,36,objects,objects,3300,1,8,4
148,51659,0,149,3,3,1,gain5,no_gain3,B,H,3,4,outdoor_scenes,outdoor_scenes,77,78,Stimuli/Experimental_stims/outdoor_scenes/henry-be-NLF6hTe4PAg-unsplash.jpg,Stimuli/Experimental_stims/outdoor_scenes/jarrett-kow-1ZOyYPOBn7I-unsplash.jpg,0,1,982,1,chosen,3,4,outdoor_scenes,outdoor_scenes,3900,1,7,4
149,51659,0,150,3,3,0,no_gain3,gain4,H,G,4,6,outdoor_scenes,outdoor_scenes,78,71,Stimuli/Experimental_stims/outdoor_scenes/jarrett-kow-1ZOyYPOBn7I-unsplash.jpg,Stimuli/Experimental_stims/outdoor_scenes/meng-ji-8BH_M-53CyA-unsplash.jpg,0,0,572,1,chosen,6,4,outdoor_scenes,outdoor_scenes,1200,0,7,4
150,51659,0,151,3,3,1,gain6,no_gain3,A,H,42,4,objects,outdoor_scenes,30,78,Stimuli/Experimental_stims/objects/jess-bailey-nOeVi8DsN8U-unsplash.jpg,Stimuli/Experimental_stims/outdoor_scenes/jarrett-kow-1ZOyYPOBn7I-unsplash.jpg,0,1,700,1,chosen,42,4,objects,outdoor_scenes,1500,0,7,4
151,51659,0,152,3,3,1,gain4,no_gain4,G,K,41,32,objects,body_parts,41,42,Stimuli/Experimental_stims/objects/insung-yoon-w2JtIQQXoRU-unsplash.jpg,Stimuli/Experimental_stims/body_parts/towfiqu-barbhuiya-3AsiVDsZnHg-unsplash.jpg,0,0,1279,0,unchosen,32,41,body_parts,objects,2700,0,7,4
152,51659,0,153,3,3,1,gain5,no_gain5,B,D,18,13,faces,faces,77,61,Stimuli/Experimental_stims/faces/jessica-radanavong-mrYkTuAesKE-unsplash.jpg,Stimuli/Experimental_stims/faces/daniel-rigdon-dXmXKPP2L4E-unsplash.jpg,0,1,696,1,unchosen,18,13,faces,faces,1300,0,7,4
153,51659,0,154,3,3,0,no_gain6,gain1,F,E,24,31,body_parts,body_parts,68,60,Stimuli/Experimental_stims/body_parts/clay-banks-LjqARJaJotc-unsplash.jpg,Stimuli/Experimental_stims/body_parts/sincerely-media-VN6DbKajo5s-unsplash.jpg,0,0,1201,1,chosen,31,24,body_parts,body_parts,1000,0,7,4
154,51659,0,155,3,3,1,gain1,no_gain3,E,H,31,4,body_parts,outdoor_scenes,60,78,Stimuli/Experimental_stims/body_parts/sincerely-media-VN6DbKajo5s-unsplash.jpg,Stimuli/Experimental_stims/outdoor_scenes/jarrett-kow-1ZOyYPOBn7I-unsplash.jpg,0,1,1275,1,chosen,31,4,body_parts,outdoor_scenes,3000,1,7,4
155,51659,0,156,3,3,0,no_gain2,gain3,C,J,27,12,body_parts,faces,78,82,Stimuli/Experimental_stims/body_parts/heike-mintel-i_Gns0ELnLw-unsplash.jpg,Stimuli/Experimental_stims/faces/aiony-haust-jmATI5Q_YgY-unsplash.jpg,0,0,787,1,unchosen,12,27,faces,body_parts,2800,0,7,4
156,51659,0,157,3,3,1,gain3,no_gain5,J,D,38,36,objects,objects,61,44,Stimuli/Experimental_stims/objects/art-lasovsky-8XddFc6NkBY-unsplash.jpg,Stimuli/Experimental_stims/objects/alexander-andrews-JYGnB9gTCls-unsplash.jpg,0,1,1147,1,chosen,38,36,objects,objects,1400,0,7,4
157,51659,0,158,3,3,1,gain1,no_gain1,E,L,31,35,body_parts,body_parts,60,26,Stimuli/Experimental_stims/body_parts/sincerely-media-VN6DbKajo5s-unsplash.jpg,Stimuli/Experimental_stims/body_parts/wc-so-KH4AAPjb-tI-unsplash.jpg,0,1,722,1,chosen,31,35,body_parts,body_parts,2500,0,7,4
158,51659,0,159,3,3,0,no_gain3,gain2,H,I,21,5,faces,outdoor_scenes,80,64,Stimuli/Experimental_stims/faces/leilani-angel-K84vnnzxmTQ-unsplash.jpg,Stimuli/Experimental_stims/outdoor_scenes/jeff-king-bJHWJeiHfHc-unsplash.jpg,0,1,846,0,unchosen,21,5,faces,outdoor_scenes,1600,0,7,4
159,51659,0,160,3,3,1,gain2,no_gain4,I,K,5,32,outdoor_scenes,body_parts,64,42,Stimuli/Experimental_stims/outdoor_scenes/jeff-king-bJHWJeiHfHc-unsplash.jpg,Stimuli/Experimental_stims/body_parts/towfiqu-barbhuiya-3AsiVDsZnHg-unsplash.jpg,0,0,688,0,unchosen,32,5,body_parts,outdoor_scenes,3600,1,7,4
160,51659,0,161,3,3,0,no_gain4,gain5,K,B,32,18,body_parts,faces,42,77,Stimuli/Experimental_stims/body_parts/towfiqu-barbhuiya-3AsiVDsZnHg-unsplash.jpg,Stimuli/Experimental_stims/faces/jessica-radanavong-mrYkTuAesKE-unsplash.jpg,0,0,696,1,unchosen,18,32,faces,body_parts,1200,0,7,4
161,51659,0,162,3,3,0,no_gain5,gain4,D,G,36,6,objects,outdoor_scenes,44,71,Stimuli/Experimental_stims/objects/alexander-andrews-JYGnB9gTCls-unsplash.jpg,Stimuli/Experimental_stims/outdoor_scenes/meng-ji-8BH_M-53CyA-unsplash.jpg,0,0,923,1,chosen,6,36,outdoor_scenes,objects,1800,0,7,4
162,51659,0,163,3,3,1,gain2,no_gain5,I,D,28,36,body_parts,objects,69,44,Stimuli/Experimental_stims/body_parts/ira-vishnevskaya-8DQAvdCby1I-unsplash.jpg,Stimuli/Experimental_stims/objects/alexander-andrews-JYGnB9gTCls-unsplash.jpg,0,1,644,1,chosen,28,36,body_parts,objects,2800,0,7,4
163,51659,0,164,3,3,1,gain5,no_gain6,B,F,18,14,faces,faces,77,77,Stimuli/Experimental_stims/faces/jessica-radanavong-mrYkTuAesKE-unsplash.jpg,Stimuli/Experimental_stims/faces/david-siglin-UuW4psOb388-unsplash.jpg,0,1,843,1,unchosen,18,14,faces,faces,2100,0,7,4
164,51659,0,165,3,3,0,no_gain4,gain3,K,J,44,38,objects,objects,15,61,Stimuli/Experimental_stims/objects/kuiye-chen-NuOGFo4PudE-unsplash.jpg,Stimuli/Experimental_stims/objects/art-lasovsky-8XddFc6NkBY-unsplash.jpg,1,NaN,,NaN,chosen,NaN,NaN,NaN,NaN,1500,0,7,4
165,51659,0,166,3,3,0,no_gain1,gain5,L,B,35,3,body_parts,outdoor_scenes,26,77,Stimuli/Experimental_stims/body_parts/wc-so-KH4AAPjb-tI-unsplash.jpg,Stimuli/Experimental_stims/outdoor_scenes/henry-be-NLF6hTe4PAg-unsplash.jpg,0,0,523,1,chosen,3,35,outdoor_scenes,body_parts,2100,0,7,4
166,51659,0,167,3,3,0,no_gain3,gain2,H,I,4,28,outdoor_scenes,body_parts,78,69,Stimuli/Experimental_stims/outdoor_scenes/jarrett-kow-1ZOyYPOBn7I-unsplash.jpg,Stimuli/Experimental_stims/body_parts/ira-vishnevskaya-8DQAvdCby1I-unsplash.jpg,0,0,847,1,chosen,28,4,body_parts,outdoor_scenes,3600,1,7,4
167,51659,0,168,3,3,1,gain6,no_gain4,A,K,2,32,outdoor_scenes,body_parts,39,42,Stimuli/Experimental_stims/outdoor_scenes/bruno-van-der-kraan-qez8mNJ3ilU-unsplash.jpg,Stimuli/Experimental_stims/body_parts/towfiqu-barbhuiya-3AsiVDsZnHg-unsplash.jpg,0,0,1092,0,unchosen,32,2,body_parts,outdoor_scenes,1300,0,7,4
168,51659,0,169,3,3,0,no_gain4,gain2,K,I,44,28,objects,body_parts,15,69,Stimuli/Experimental_stims/objects/kuiye-chen-NuOGFo4PudE-unsplash.jpg,Stimuli/Experimental_stims/body_parts/ira-vishnevskaya-8DQAvdCby1I-unsplash.jpg,0,0,1244,1,chosen,28,44,body_parts,objects,2700,0,7,4
169,51659,0,170,3,3,1,gain1,no_gain4,E,K,37,32,objects,body_parts,64,42,Stimuli/Experimental_stims/objects/alexander-andrews-VLGWE_SumrA-unsplash.jpg,Stimuli/Experimental_stims/body_parts/towfiqu-barbhuiya-3AsiVDsZnHg-unsplash.jpg,0,0,908,0,unchosen,32,37,body_parts,objects,1400,0,7,4
170,51659,0,171,3,3,0,no_gain2,gain4,C,G,27,41,body_parts,objects,78,41,Stimuli/Experimental_stims/body_parts/heike-mintel-i_Gns0ELnLw-unsplash.jpg,Stimuli/Experimental_stims/objects/insung-yoon-w2JtIQQXoRU-unsplash.jpg,0,0,1328,1,unchosen,41,27,objects,body_parts,2300,0,7,4
171,51659,0,172,3,3,0,no_gain1,gain1,L,E,23,37,faces,objects,90,64,Stimuli/Experimental_stims/faces/rikonavt-HQjfrvdTfak-unsplash.jpg,Stimuli/Experimental_stims/objects/alexander-andrews-VLGWE_SumrA-unsplash.jpg,0,0,925,1,unchosen,37,23,objects,faces,3400,1,7,4
172,51659,0,173,3,3,1,gain4,no_gain2,G,C,6,9,outdoor_scenes,outdoor_scenes,71,81,Stimuli/Experimental_stims/outdoor_scenes/meng-ji-8BH_M-53CyA-unsplash.jpg,Stimuli/Experimental_stims/outdoor_scenes/sergey-pesterev-y-b_FOmJXdg-unsplash.jpg,0,1,730,1,chosen,6,9,outdoor_scenes,outdoor_scenes,1200,0,7,4
173,51659,0,174,3,3,0,no_gain6,gain6,F,A,14,2,faces,outdoor_scenes,77,39,Stimuli/Experimental_stims/faces/david-siglin-UuW4psOb388-unsplash.jpg,Stimuli/Experimental_stims/outdoor_scenes/bruno-van-der-kraan-qez8mNJ3ilU-unsplash.jpg,0,1,952,0,unchosen,14,2,faces,outdoor_scenes,2500,0,7,4
174,51659,0,175,3,3,1,gain3,no_gain3,J,H,38,4,objects,outdoor_scenes,61,78,Stimuli/Experimental_stims/objects/art-lasovsky-8XddFc6NkBY-unsplash.jpg,Stimuli/Experimental_stims/outdoor_scenes/jarrett-kow-1ZOyYPOBn7I-unsplash.jpg,0,1,768,1,chosen,38,4,objects,outdoor_scenes,2600,0,7,4
175,51659,0,176,3,3,0,no_gain2,gain6,C,A,27,2,body_parts,outdoor_scenes,78,39,Stimuli/Experimental_stims/body_parts/heike-mintel-i_Gns0ELnLw-unsplash.jpg,Stimuli/Experimental_stims/outdoor_scenes/bruno-van-der-kraan-qez8mNJ3ilU-unsplash.jpg,0,1,658,0,unchosen,27,2,body_parts,outdoor_scenes,2100,0,7,4
176,51659,0,177,3,3,1,gain1,no_gain5,E,D,31,36,body_parts,objects,60,44,Stimuli/Experimental_stims/body_parts/sincerely-media-VN6DbKajo5s-unsplash.jpg,Stimuli/Experimental_stims/objects/alexander-andrews-JYGnB9gTCls-unsplash.jpg,0,1,747,1,chosen,31,36,body_parts,objects,3300,1,7,4
177,51659,0,178,3,3,0,no_gain1,gain5,L,B,23,18,faces,faces,90,77,Stimuli/Experimental_stims/faces/rikonavt-HQjfrvdTfak-unsplash.jpg,Stimuli/Experimental_stims/faces/jessica-radanavong-mrYkTuAesKE-unsplash.jpg,0,0,1091,1,unchosen,18,23,faces,faces,1200,0,7,4
178,51659,0,179,3,3,1,gain2,no_gain6,I,F,28,24,body_parts,body_parts,69,68,Stimuli/Experimental_stims/body_parts/ira-vishnevskaya-8DQAvdCby1I-unsplash.jpg,Stimuli/Experimental_stims/body_parts/clay-banks-LjqARJaJotc-unsplash.jpg,0,1,1189,1,chosen,28,24,body_parts,body_parts,1500,0,7,4
179,51659,0,180,3,3,1,gain3,no_gain6,J,F,12,14,faces,faces,82,77,Stimuli/Experimental_stims/faces/aiony-haust-jmATI5Q_YgY-unsplash.jpg,Stimuli/Experimental_stims/faces/david-siglin-UuW4psOb388-unsplash.jpg,0,1,1246,1,unchosen,12,14,faces,faces,1700,0,7,4
180,51659,0,181,3,3,0,no_gain5,gain1,D,E,13,37,faces,objects,61,64,Stimuli/Experimental_stims/faces/daniel-rigdon-dXmXKPP2L4E-unsplash.jpg,Stimuli/Experimental_stims/objects/alexander-andrews-VLGWE_SumrA-unsplash.jpg,0,1,959,0,unchosen,13,37,faces,objects,1500,0,7,4
181,51659,0,182,3,3,1,gain2,no_gain6,I,F,5,14,outdoor_scenes,faces,64,77,Stimuli/Experimental_stims/outdoor_scenes/jeff-king-bJHWJeiHfHc-unsplash.jpg,Stimuli/Experimental_stims/faces/david-siglin-UuW4psOb388-unsplash.jpg,0,0,1171,0,unchosen,14,5,faces,outdoor_scenes,1300,0,7,4
182,51659,0,183,3,3,1,gain1,no_gain4,E,K,31,44,body_parts,objects,60,15,Stimuli/Experimental_stims/body_parts/sincerely-media-VN6DbKajo5s-unsplash.jpg,Stimuli/Experimental_stims/objects/kuiye-chen-NuOGFo4PudE-unsplash.jpg,0,1,716,1,chosen,31,44,body_parts,objects,2000,0,7,4
183,51659,0,184,3,3,0,no_gain1,gain6,L,A,23,2,faces,outdoor_scenes,90,39,Stimuli/Experimental_stims/faces/rikonavt-HQjfrvdTfak-unsplash.jpg,Stimuli/Experimental_stims/outdoor_scenes/bruno-van-der-kraan-qez8mNJ3ilU-unsplash.jpg,0,1,866,0,unchosen,23,2,faces,outdoor_scenes,1500,0,7,4
184,51659,0,185,3,3,1,gain5,no_gain5,B,D,3,36,outdoor_scenes,objects,77,44,Stimuli/Experimental_stims/outdoor_scenes/henry-be-NLF6hTe4PAg-unsplash.jpg,Stimuli/Experimental_stims/objects/alexander-andrews-JYGnB9gTCls-unsplash.jpg,0,1,825,1,chosen,3,36,outdoor_scenes,objects,2200,0,7,4
185,51659,0,186,3,3,1,gain6,no_gain1,A,L,42,35,objects,body_parts,30,26,Stimuli/Experimental_stims/objects/jess-bailey-nOeVi8DsN8U-unsplash.jpg,Stimuli/Experimental_stims/body_parts/wc-so-KH4AAPjb-tI-unsplash.jpg,0,1,658,1,chosen,42,35,objects,body_parts,1300,0,7,4
186,51659,0,187,3,3,0,no_gain6,gain4,F,G,24,6,body_parts,outdoor_scenes,68,71,Stimuli/Experimental_stims/body_parts/clay-banks-LjqARJaJotc-unsplash.jpg,Stimuli/Experimental_stims/outdoor_scenes/meng-ji-8BH_M-53CyA-unsplash.jpg,0,0,1355,1,chosen,6,24,outdoor_scenes,body_parts,1000,0,7,4
187,51659,0,188,3,3,1,gain1,no_gain2,E,C,37,27,objects,body_parts,64,78,Stimuli/Experimental_stims/objects/alexander-andrews-VLGWE_SumrA-unsplash.jpg,Stimuli/Experimental_stims/body_parts/heike-mintel-i_Gns0ELnLw-unsplash.jpg,1,NaN,,NaN,unchosen,NaN,NaN,NaN,NaN,3000,1,7,4
188,51659,0,189,3,3,0,no_gain2,gain5,C,B,27,18,body_parts,faces,78,77,Stimuli/Experimental_stims/body_parts/heike-mintel-i_Gns0ELnLw-unsplash.jpg,Stimuli/Experimental_stims/faces/jessica-radanavong-mrYkTuAesKE-unsplash.jpg,0,0,710,1,unchosen,18,27,faces,body_parts,1300,0,7,4
189,51659,0,190,3,3,1,gain1,no_gain3,E,H,37,21,objects,faces,64,80,Stimuli/Experimental_stims/objects/alexander-andrews-VLGWE_SumrA-unsplash.jpg,Stimuli/Experimental_stims/faces/leilani-angel-K84vnnzxmTQ-unsplash.jpg,0,0,1462,0,unchosen,21,37,faces,objects,2200,0,7,4
190,51659,0,191,3,3,0,no_gain1,gain2,L,I,35,28,body_parts,body_parts,26,69,Stimuli/Experimental_stims/body_parts/wc-so-KH4AAPjb-tI-unsplash.jpg,Stimuli/Experimental_stims/body_parts/ira-vishnevskaya-8DQAvdCby1I-unsplash.jpg,0,0,1127,1,chosen,28,35,body_parts,body_parts,1100,0,7,4
191,51659,0,192,3,3,0,no_gain3,gain5,H,B,21,18,faces,faces,80,77,Stimuli/Experimental_stims/faces/leilani-angel-K84vnnzxmTQ-unsplash.jpg,Stimuli/Experimental_stims/faces/jessica-radanavong-mrYkTuAesKE-unsplash.jpg,0,0,917,1,unchosen,18,21,faces,faces,2100,0,7,4
192,51659,0,193,3,3,0,no_gain2,gain6,C,A,9,42,outdoor_scenes,objects,81,30,Stimuli/Experimental_stims/outdoor_scenes/sergey-pesterev-y-b_FOmJXdg-unsplash.jpg,Stimuli/Experimental_stims/objects/jess-bailey-nOeVi8DsN8U-unsplash.jpg,0,0,830,1,chosen,42,9,objects,outdoor_scenes,2300,0,7,4
193,51659,0,194,3,3,0,no_gain4,gain5,K,B,44,3,objects,outdoor_scenes,15,77,Stimuli/Experimental_stims/objects/kuiye-chen-NuOGFo4PudE-unsplash.jpg,Stimuli/Experimental_stims/outdoor_scenes/henry-be-NLF6hTe4PAg-unsplash.jpg,0,0,968,1,chosen,3,44,outdoor_scenes,objects,3900,1,7,4
194,51659,0,195,3,3,0,no_gain4,gain6,K,A,44,42,objects,objects,15,30,Stimuli/Experimental_stims/objects/kuiye-chen-NuOGFo4PudE-unsplash.jpg,Stimuli/Experimental_stims/objects/jess-bailey-nOeVi8DsN8U-unsplash.jpg,0,0,431,1,chosen,42,44,objects,objects,1700,0,7,4
195,51659,0,196,3,3,1,gain4,no_gain3,G,H,41,21,objects,faces,41,80,Stimuli/Experimental_stims/objects/insung-yoon-w2JtIQQXoRU-unsplash.jpg,Stimuli/Experimental_stims/faces/leilani-angel-K84vnnzxmTQ-unsplash.jpg,0,0,1086,0,unchosen,21,41,faces,objects,1200,0,7,4
196,51659,0,197,3,3,0,no_gain1,gain4,L,G,23,41,faces,objects,90,41,Stimuli/Experimental_stims/faces/rikonavt-HQjfrvdTfak-unsplash.jpg,Stimuli/Experimental_stims/objects/insung-yoon-w2JtIQQXoRU-unsplash.jpg,0,1,1264,0,unchosen,23,41,faces,objects,1200,0,7,4
197,51659,0,198,3,3,1,gain2,no_gain2,I,C,5,27,outdoor_scenes,body_parts,64,78,Stimuli/Experimental_stims/outdoor_scenes/jeff-king-bJHWJeiHfHc-unsplash.jpg,Stimuli/Experimental_stims/body_parts/heike-mintel-i_Gns0ELnLw-unsplash.jpg,1,NaN,,NaN,unchosen,NaN,NaN,NaN,NaN,1900,0,7,4
198,51659,0,199,3,3,0,no_gain6,gain3,F,J,24,38,body_parts,objects,68,61,Stimuli/Experimental_stims/body_parts/clay-banks-LjqARJaJotc-unsplash.jpg,Stimuli/Experimental_stims/objects/art-lasovsky-8XddFc6NkBY-unsplash.jpg,0,0,1018,1,chosen,38,24,objects,body_parts,1000,0,7,4
199,51659,0,200,3,3,0,no_gain4,gain4,K,G,44,6,objects,outdoor_scenes,15,71,Stimuli/Experimental_stims/objects/kuiye-chen-NuOGFo4PudE-unsplash.jpg,Stimuli/Experimental_stims/outdoor_scenes/meng-ji-8BH_M-53CyA-unsplash.jpg,0,0,663,1,chosen,6,44,outdoor_scenes,objects,3900,1,7,4
200,51659,0,201,3,3,0,no_gain6,gain5,F,B,24,3,body_parts,outdoor_scenes,68,77,Stimuli/Experimental_stims/body_parts/clay-banks-LjqARJaJotc-unsplash.jpg,Stimuli/Experimental_stims/outdoor_scenes/henry-be-NLF6hTe4PAg-unsplash.jpg,0,0,456,1,chosen,3,24,outdoor_scenes,body_parts,2100,0,7,4
201,51659,0,202,3,3,1,gain6,no_gain5,A,D,2,13,outdoor_scenes,faces,39,61,Stimuli/Experimental_stims/outdoor_scenes/bruno-van-der-kraan-qez8mNJ3ilU-unsplash.jpg,Stimuli/Experimental_stims/faces/daniel-rigdon-dXmXKPP2L4E-unsplash.jpg,0,0,1082,0,unchosen,13,2,faces,outdoor_scenes,1300,0,7,4
202,51659,0,203,3,3,0,no_gain2,gain5,C,B,9,3,outdoor_scenes,outdoor_scenes,81,77,Stimuli/Experimental_stims/outdoor_scenes/sergey-pesterev-y-b_FOmJXdg-unsplash.jpg,Stimuli/Experimental_stims/outdoor_scenes/henry-be-NLF6hTe4PAg-unsplash.jpg,0,0,1008,1,chosen,3,9,outdoor_scenes,outdoor_scenes,1800,0,7,4
203,51659,0,204,3,3,1,gain4,no_gain1,G,L,6,35,outdoor_scenes,body_parts,71,26,Stimuli/Experimental_stims/outdoor_scenes/meng-ji-8BH_M-53CyA-unsplash.jpg,Stimuli/Experimental_stims/body_parts/wc-so-KH4AAPjb-tI-unsplash.jpg,0,1,706,1,chosen,6,35,outdoor_scenes,body_parts,1900,0,7,4
204,51659,0,205,3,3,1,gain6,no_gain3,A,H,2,21,outdoor_scenes,faces,39,80,Stimuli/Experimental_stims/outdoor_scenes/bruno-van-der-kraan-qez8mNJ3ilU-unsplash.jpg,Stimuli/Experimental_stims/faces/leilani-angel-K84vnnzxmTQ-unsplash.jpg,0,0,941,0,unchosen,21,2,faces,outdoor_scenes,2600,0,7,4
205,51659,0,206,3,3,1,gain4,no_gain6,G,F,41,14,objects,faces,41,77,Stimuli/Experimental_stims/objects/insung-yoon-w2JtIQQXoRU-unsplash.jpg,Stimuli/Experimental_stims/faces/david-siglin-UuW4psOb388-unsplash.jpg,0,0,770,0,unchosen,14,41,faces,objects,2400,0,7,4
206,51659,0,207,3,3,0,no_gain5,gain4,D,G,13,41,faces,objects,61,41,Stimuli/Experimental_stims/faces/daniel-rigdon-dXmXKPP2L4E-unsplash.jpg,Stimuli/Experimental_stims/objects/insung-yoon-w2JtIQQXoRU-unsplash.jpg,0,1,799,0,unchosen,13,41,faces,objects,2500,0,7,4
207,51659,0,208,3,3,0,no_gain5,gain6,D,A,36,42,objects,objects,44,30,Stimuli/Experimental_stims/objects/alexander-andrews-JYGnB9gTCls-unsplash.jpg,Stimuli/Experimental_stims/objects/jess-bailey-nOeVi8DsN8U-unsplash.jpg,0,0,644,1,chosen,42,36,objects,objects,2900,1,7,4
208,51659,0,209,3,3,0,no_gain4,gain3,K,J,32,12,body_parts,faces,42,82,Stimuli/Experimental_stims/body_parts/towfiqu-barbhuiya-3AsiVDsZnHg-unsplash.jpg,Stimuli/Experimental_stims/faces/aiony-haust-jmATI5Q_YgY-unsplash.jpg,0,0,779,1,unchosen,12,32,faces,body_parts,1000,0,7,4
209,51659,0,210,3,3,0,no_gain1,gain3,L,J,35,38,body_parts,objects,26,61,Stimuli/Experimental_stims/body_parts/wc-so-KH4AAPjb-tI-unsplash.jpg,Stimuli/Experimental_stims/objects/art-lasovsky-8XddFc6NkBY-unsplash.jpg,0,0,789,1,chosen,38,35,objects,body_parts,1500,0,7,4
210,51659,0,211,3,3,1,gain3,no_gain3,J,H,12,21,faces,faces,82,80,Stimuli/Experimental_stims/faces/aiony-haust-jmATI5Q_YgY-unsplash.jpg,Stimuli/Experimental_stims/faces/leilani-angel-K84vnnzxmTQ-unsplash.jpg,0,1,1120,1,unchosen,12,21,faces,faces,2000,0,7,4
211,51659,0,212,3,3,1,gain1,no_gain6,E,F,37,14,objects,faces,64,77,Stimuli/Experimental_stims/objects/alexander-andrews-VLGWE_SumrA-unsplash.jpg,Stimuli/Experimental_stims/faces/david-siglin-UuW4psOb388-unsplash.jpg,0,0,1232,0,unchosen,14,37,faces,objects,1400,0,7,4
212,51659,0,213,3,3,0,no_gain5,gain2,D,I,13,5,faces,outdoor_scenes,61,64,Stimuli/Experimental_stims/faces/daniel-rigdon-dXmXKPP2L4E-unsplash.jpg,Stimuli/Experimental_stims/outdoor_scenes/jeff-king-bJHWJeiHfHc-unsplash.jpg,0,1,896,0,unchosen,13,5,faces,outdoor_scenes,1800,0,7,4
213,51659,0,214,3,3,1,gain6,no_gain6,A,F,42,24,objects,body_parts,30,68,Stimuli/Experimental_stims/objects/jess-bailey-nOeVi8DsN8U-unsplash.jpg,Stimuli/Experimental_stims/body_parts/clay-banks-LjqARJaJotc-unsplash.jpg,0,1,733,1,chosen,42,24,objects,body_parts,2500,0,7,4
214,51659,0,215,3,3,1,gain1,no_gain2,E,C,31,9,body_parts,outdoor_scenes,60,81,Stimuli/Experimental_stims/body_parts/sincerely-media-VN6DbKajo5s-unsplash.jpg,Stimuli/Experimental_stims/outdoor_scenes/sergey-pesterev-y-b_FOmJXdg-unsplash.jpg,0,1,959,1,chosen,31,9,body_parts,outdoor_scenes,1600,0,7,4
215,51659,0,216,3,3,0,no_gain1,gain2,L,I,23,5,faces,outdoor_scenes,90,64,Stimuli/Experimental_stims/faces/rikonavt-HQjfrvdTfak-unsplash.jpg,Stimuli/Experimental_stims/outdoor_scenes/jeff-king-bJHWJeiHfHc-unsplash.jpg,0,1,987,0,unchosen,23,5,faces,outdoor_scenes,3700,1,7,4
216,51659,0,217,3,3,0,no_gain5,gain3,D,J,13,12,faces,faces,61,82,Stimuli/Experimental_stims/faces/daniel-rigdon-dXmXKPP2L4E-unsplash.jpg,Stimuli/Experimental_stims/faces/aiony-haust-jmATI5Q_YgY-unsplash.jpg,0,0,583,1,unchosen,12,13,faces,faces,1200,0,7,4
217,51659,0,218,3,3,1,gain3,no_gain2,J,C,38,9,objects,outdoor_scenes,61,81,Stimuli/Experimental_stims/objects/art-lasovsky-8XddFc6NkBY-unsplash.jpg,Stimuli/Experimental_stims/outdoor_scenes/sergey-pesterev-y-b_FOmJXdg-unsplash.jpg,0,1,684,1,chosen,38,9,objects,outdoor_scenes,1200,0,7,4
218,51659,0,219,3,3,1,gain3,no_gain1,J,L,12,23,faces,faces,82,90,Stimuli/Experimental_stims/faces/aiony-haust-jmATI5Q_YgY-unsplash.jpg,Stimuli/Experimental_stims/faces/rikonavt-HQjfrvdTfak-unsplash.jpg,0,1,774,1,unchosen,12,23,faces,faces,1100,0,7,4
219,51659,0,220,3,3,1,gain2,no_gain2,I,C,28,9,body_parts,outdoor_scenes,69,81,Stimuli/Experimental_stims/body_parts/ira-vishnevskaya-8DQAvdCby1I-unsplash.jpg,Stimuli/Experimental_stims/outdoor_scenes/sergey-pesterev-y-b_FOmJXdg-unsplash.jpg,0,1,694,1,chosen,28,9,body_parts,outdoor_scenes,1100,0,7,4
220,51659,0,221,4,4,1,gain4,no_gain1,G,L,41,23,objects,faces,41,90,Stimuli/Experimental_stims/objects/insung-yoon-w2JtIQQXoRU-unsplash.jpg,Stimuli/Experimental_stims/faces/rikonavt-HQjfrvdTfak-unsplash.jpg,0,0,1000,0,unchosen,23,41,faces,objects,4000,1,8,4
221,51659,0,222,4,4,0,no_gain1,gain5,L,B,35,3,body_parts,outdoor_scenes,26,77,Stimuli/Experimental_stims/body_parts/wc-so-KH4AAPjb-tI-unsplash.jpg,Stimuli/Experimental_stims/outdoor_scenes/henry-be-NLF6hTe4PAg-unsplash.jpg,0,0,645,1,chosen,3,35,outdoor_scenes,body_parts,1900,0,8,4
222,51659,0,223,4,4,1,gain2,no_gain1,I,L,28,35,body_parts,body_parts,69,26,Stimuli/Experimental_stims/body_parts/ira-vishnevskaya-8DQAvdCby1I-unsplash.jpg,Stimuli/Experimental_stims/body_parts/wc-so-KH4AAPjb-tI-unsplash.jpg,0,1,957,1,chosen,28,35,body_parts,body_parts,1200,0,8,4
223,51659,0,224,4,4,1,gain4,no_gain6,G,F,41,14,objects,faces,41,77,Stimuli/Experimental_stims/objects/insung-yoon-w2JtIQQXoRU-unsplash.jpg,Stimuli/Experimental_stims/faces/david-siglin-UuW4psOb388-unsplash.jpg,0,0,742,0,unchosen,14,41,faces,objects,1200,0,8,4
224,51659,0,225,4,4,1,gain4,no_gain3,G,H,41,21,objects,faces,41,80,Stimuli/Experimental_stims/objects/insung-yoon-w2JtIQQXoRU-unsplash.jpg,Stimuli/Experimental_stims/faces/leilani-angel-K84vnnzxmTQ-unsplash.jpg,0,0,594,0,unchosen,21,41,faces,objects,2900,0,8,4
225,51659,0,226,4,4,1,gain2,no_gain3,I,H,5,21,outdoor_scenes,faces,64,80,Stimuli/Experimental_stims/outdoor_scenes/jeff-king-bJHWJeiHfHc-unsplash.jpg,Stimuli/Experimental_stims/faces/leilani-angel-K84vnnzxmTQ-unsplash.jpg,0,0,588,0,unchosen,21,5,faces,outdoor_scenes,1800,0,8,4
226,51659,0,227,4,4,1,gain1,no_gain3,E,H,31,4,body_parts,outdoor_scenes,60,78,Stimuli/Experimental_stims/body_parts/sincerely-media-VN6DbKajo5s-unsplash.jpg,Stimuli/Experimental_stims/outdoor_scenes/jarrett-kow-1ZOyYPOBn7I-unsplash.jpg,0,1,730,1,chosen,31,4,body_parts,outdoor_scenes,4700,1,8,4
227,51659,0,228,4,4,0,no_gain2,gain5,C,B,9,3,outdoor_scenes,outdoor_scenes,81,77,Stimuli/Experimental_stims/outdoor_scenes/sergey-pesterev-y-b_FOmJXdg-unsplash.jpg,Stimuli/Experimental_stims/outdoor_scenes/henry-be-NLF6hTe4PAg-unsplash.jpg,0,0,637,1,chosen,3,9,outdoor_scenes,outdoor_scenes,2800,0,8,4
228,51659,0,229,4,4,1,gain5,no_gain1,B,L,18,23,faces,faces,77,90,Stimuli/Experimental_stims/faces/jessica-radanavong-mrYkTuAesKE-unsplash.jpg,Stimuli/Experimental_stims/faces/rikonavt-HQjfrvdTfak-unsplash.jpg,0,0,702,0,unchosen,23,18,faces,faces,1100,0,8,4
229,51659,0,230,4,4,0,no_gain4,gain5,K,B,44,3,objects,outdoor_scenes,15,77,Stimuli/Experimental_stims/objects/kuiye-chen-NuOGFo4PudE-unsplash.jpg,Stimuli/Experimental_stims/outdoor_scenes/henry-be-NLF6hTe4PAg-unsplash.jpg,0,0,880,1,chosen,3,44,outdoor_scenes,objects,2200,0,8,4
230,51659,0,231,4,4,0,no_gain1,gain6,L,A,23,2,faces,outdoor_scenes,90,39,Stimuli/Experimental_stims/faces/rikonavt-HQjfrvdTfak-unsplash.jpg,Stimuli/Experimental_stims/outdoor_scenes/bruno-van-der-kraan-qez8mNJ3ilU-unsplash.jpg,0,1,758,0,unchosen,23,2,faces,outdoor_scenes,2000,0,8,4
231,51659,0,232,4,4,1,gain3,no_gain5,J,D,12,13,faces,faces,82,61,Stimuli/Experimental_stims/faces/aiony-haust-jmATI5Q_YgY-unsplash.jpg,Stimuli/Experimental_stims/faces/daniel-rigdon-dXmXKPP2L4E-unsplash.jpg,0,1,712,1,unchosen,12,13,faces,faces,1100,0,8,4
232,51659,0,233,4,4,0,no_gain6,gain1,F,E,14,37,faces,objects,77,64,Stimuli/Experimental_stims/faces/david-siglin-UuW4psOb388-unsplash.jpg,Stimuli/Experimental_stims/objects/alexander-andrews-VLGWE_SumrA-unsplash.jpg,0,1,1073,0,unchosen,14,37,faces,objects,3000,1,8,4
233,51659,0,234,4,4,1,gain3,no_gain5,J,D,38,36,objects,objects,61,44,Stimuli/Experimental_stims/objects/art-lasovsky-8XddFc6NkBY-unsplash.jpg,Stimuli/Experimental_stims/objects/alexander-andrews-JYGnB9gTCls-unsplash.jpg,0,1,588,1,chosen,38,36,objects,objects,1800,0,8,4
234,51659,0,235,4,4,0,no_gain3,gain1,H,E,21,37,faces,objects,80,64,Stimuli/Experimental_stims/faces/leilani-angel-K84vnnzxmTQ-unsplash.jpg,Stimuli/Experimental_stims/objects/alexander-andrews-VLGWE_SumrA-unsplash.jpg,0,1,887,0,unchosen,21,37,faces,objects,1700,0,8,4
235,51659,0,236,4,4,0,no_gain2,gain5,C,B,27,18,body_parts,faces,78,77,Stimuli/Experimental_stims/body_parts/heike-mintel-i_Gns0ELnLw-unsplash.jpg,Stimuli/Experimental_stims/faces/jessica-radanavong-mrYkTuAesKE-unsplash.jpg,1,NaN,,NaN,unchosen,NaN,NaN,NaN,NaN,1500,0,8,4
236,51659,0,237,4,4,0,no_gain2,gain1,C,E,27,37,body_parts,objects,78,64,Stimuli/Experimental_stims/body_parts/heike-mintel-i_Gns0ELnLw-unsplash.jpg,Stimuli/Experimental_stims/objects/alexander-andrews-VLGWE_SumrA-unsplash.jpg,0,0,715,1,unchosen,37,27,objects,body_parts,1400,0,8,4
237,51659,0,238,4,4,1,gain6,no_gain2,A,C,42,9,objects,outdoor_scenes,30,81,Stimuli/Experimental_stims/objects/jess-bailey-nOeVi8DsN8U-unsplash.jpg,Stimuli/Experimental_stims/outdoor_scenes/sergey-pesterev-y-b_FOmJXdg-unsplash.jpg,0,1,455,1,chosen,42,9,objects,outdoor_scenes,3000,1,8,4
238,51659,0,239,4,4,1,gain4,no_gain2,G,C,41,27,objects,body_parts,41,78,Stimuli/Experimental_stims/objects/insung-yoon-w2JtIQQXoRU-unsplash.jpg,Stimuli/Experimental_stims/body_parts/heike-mintel-i_Gns0ELnLw-unsplash.jpg,0,1,917,1,unchosen,41,27,objects,body_parts,1000,0,8,4
239,51659,0,240,4,4,0,no_gain1,gain2,L,I,23,5,faces,outdoor_scenes,90,64,Stimuli/Experimental_stims/faces/rikonavt-HQjfrvdTfak-unsplash.jpg,Stimuli/Experimental_stims/outdoor_scenes/jeff-king-bJHWJeiHfHc-unsplash.jpg,0,1,638,0,unchosen,23,5,faces,outdoor_scenes,1100,0,8,4
240,51659,0,241,4,4,0,no_gain4,gain3,K,J,32,12,body_parts,faces,42,82,Stimuli/Experimental_stims/body_parts/towfiqu-barbhuiya-3AsiVDsZnHg-unsplash.jpg,Stimuli/Experimental_stims/faces/aiony-haust-jmATI5Q_YgY-unsplash.jpg,0,0,891,1,unchosen,12,32,faces,body_parts,1600,0,8,4
241,51659,0,242,4,4,0,no_gain5,gain4,D,G,36,6,objects,outdoor_scenes,44,71,Stimuli/Experimental_stims/objects/alexander-andrews-JYGnB9gTCls-unsplash.jpg,Stimuli/Experimental_stims/outdoor_scenes/meng-ji-8BH_M-53CyA-unsplash.jpg,0,0,667,1,chosen,6,36,outdoor_scenes,objects,1100,0,8,4
242,51659,0,243,4,4,1,gain6,no_gain6,A,F,2,14,outdoor_scenes,faces,39,77,Stimuli/Experimental_stims/outdoor_scenes/bruno-van-der-kraan-qez8mNJ3ilU-unsplash.jpg,Stimuli/Experimental_stims/faces/david-siglin-UuW4psOb388-unsplash.jpg,0,0,705,0,unchosen,14,2,faces,outdoor_scenes,1100,0,8,4
243,51659,0,244,4,4,1,gain3,no_gain2,J,C,38,9,objects,outdoor_scenes,61,81,Stimuli/Experimental_stims/objects/art-lasovsky-8XddFc6NkBY-unsplash.jpg,Stimuli/Experimental_stims/outdoor_scenes/sergey-pesterev-y-b_FOmJXdg-unsplash.jpg,0,1,492,1,chosen,38,9,objects,outdoor_scenes,1800,0,8,4
244,51659,0,245,4,4,0,no_gain1,gain1,L,E,35,31,body_parts,body_parts,26,60,Stimuli/Experimental_stims/body_parts/wc-so-KH4AAPjb-tI-unsplash.jpg,Stimuli/Experimental_stims/body_parts/sincerely-media-VN6DbKajo5s-unsplash.jpg,0,0,889,1,chosen,31,35,body_parts,body_parts,1400,0,8,4
245,51659,0,246,4,4,0,no_gain4,gain5,K,B,32,18,body_parts,faces,42,77,Stimuli/Experimental_stims/body_parts/towfiqu-barbhuiya-3AsiVDsZnHg-unsplash.jpg,Stimuli/Experimental_stims/faces/jessica-radanavong-mrYkTuAesKE-unsplash.jpg,0,1,1337,0,unchosen,32,18,body_parts,faces,1600,0,8,4
246,51659,0,247,4,4,1,gain2,no_gain2,I,C,28,9,body_parts,outdoor_scenes,69,81,Stimuli/Experimental_stims/body_parts/ira-vishnevskaya-8DQAvdCby1I-unsplash.jpg,Stimuli/Experimental_stims/outdoor_scenes/sergey-pesterev-y-b_FOmJXdg-unsplash.jpg,0,1,935,1,chosen,28,9,body_parts,outdoor_scenes,2000,0,8,4
247,51659,0,248,4,4,0,no_gain1,gain3,L,J,23,12,faces,faces,90,82,Stimuli/Experimental_stims/faces/rikonavt-HQjfrvdTfak-unsplash.jpg,Stimuli/Experimental_stims/faces/aiony-haust-jmATI5Q_YgY-unsplash.jpg,0,1,830,0,unchosen,23,12,faces,faces,2200,0,8,4
248,51659,0,249,4,4,0,no_gain4,gain2,K,I,44,28,objects,body_parts,15,69,Stimuli/Experimental_stims/objects/kuiye-chen-NuOGFo4PudE-unsplash.jpg,Stimuli/Experimental_stims/body_parts/ira-vishnevskaya-8DQAvdCby1I-unsplash.jpg,0,0,727,1,chosen,28,44,body_parts,objects,2100,0,8,4
249,51659,0,250,4,4,0,no_gain3,gain2,H,I,4,28,outdoor_scenes,body_parts,78,69,Stimuli/Experimental_stims/outdoor_scenes/jarrett-kow-1ZOyYPOBn7I-unsplash.jpg,Stimuli/Experimental_stims/body_parts/ira-vishnevskaya-8DQAvdCby1I-unsplash.jpg,0,0,556,1,chosen,28,4,body_parts,outdoor_scenes,2900,0,8,4
250,51659,0,251,4,4,0,no_gain6,gain5,F,B,14,18,faces,faces,77,77,Stimuli/Experimental_stims/faces/david-siglin-UuW4psOb388-unsplash.jpg,Stimuli/Experimental_stims/faces/jessica-radanavong-mrYkTuAesKE-unsplash.jpg,0,0,701,1,unchosen,18,14,faces,faces,1600,0,8,4
251,51659,0,252,4,4,1,gain3,no_gain4,J,K,38,44,objects,objects,61,15,Stimuli/Experimental_stims/objects/art-lasovsky-8XddFc6NkBY-unsplash.jpg,Stimuli/Experimental_stims/objects/kuiye-chen-NuOGFo4PudE-unsplash.jpg,0,1,724,1,chosen,38,44,objects,objects,1600,0,8,4
252,51659,0,253,4,4,0,no_gain1,gain1,L,E,23,37,faces,objects,90,64,Stimuli/Experimental_stims/faces/rikonavt-HQjfrvdTfak-unsplash.jpg,Stimuli/Experimental_stims/objects/alexander-andrews-VLGWE_SumrA-unsplash.jpg,0,1,763,0,unchosen,23,37,faces,objects,4900,1,8,4
253,51659,0,254,4,4,0,no_gain5,gain1,D,E,13,37,faces,objects,61,64,Stimuli/Experimental_stims/faces/daniel-rigdon-dXmXKPP2L4E-unsplash.jpg,Stimuli/Experimental_stims/objects/alexander-andrews-VLGWE_SumrA-unsplash.jpg,0,1,860,0,unchosen,13,37,faces,objects,2600,0,8,4
254,51659,0,255,4,4,1,gain5,no_gain5,B,D,3,36,outdoor_scenes,objects,77,44,Stimuli/Experimental_stims/outdoor_scenes/henry-be-NLF6hTe4PAg-unsplash.jpg,Stimuli/Experimental_stims/objects/alexander-andrews-JYGnB9gTCls-unsplash.jpg,0,1,662,1,chosen,3,36,outdoor_scenes,objects,1800,0,8,4
255,51659,0,256,4,4,0,no_gain1,gain3,L,J,35,38,body_parts,objects,26,61,Stimuli/Experimental_stims/body_parts/wc-so-KH4AAPjb-tI-unsplash.jpg,Stimuli/Experimental_stims/objects/art-lasovsky-8XddFc6NkBY-unsplash.jpg,0,0,567,1,chosen,38,35,objects,body_parts,1500,0,8,4
256,51659,0,257,4,4,1,gain5,no_gain3,B,H,3,4,outdoor_scenes,outdoor_scenes,77,78,Stimuli/Experimental_stims/outdoor_scenes/henry-be-NLF6hTe4PAg-unsplash.jpg,Stimuli/Experimental_stims/outdoor_scenes/jarrett-kow-1ZOyYPOBn7I-unsplash.jpg,0,1,1037,1,chosen,3,4,outdoor_scenes,outdoor_scenes,1700,0,8,4
257,51659,0,258,4,4,1,gain2,no_gain4,I,K,5,32,outdoor_scenes,body_parts,64,42,Stimuli/Experimental_stims/outdoor_scenes/jeff-king-bJHWJeiHfHc-unsplash.jpg,Stimuli/Experimental_stims/body_parts/towfiqu-barbhuiya-3AsiVDsZnHg-unsplash.jpg,0,0,889,0,unchosen,32,5,body_parts,outdoor_scenes,3200,1,8,4
258,51659,0,259,4,4,1,gain3,no_gain3,J,H,38,4,objects,outdoor_scenes,61,78,Stimuli/Experimental_stims/objects/art-lasovsky-8XddFc6NkBY-unsplash.jpg,Stimuli/Experimental_stims/outdoor_scenes/jarrett-kow-1ZOyYPOBn7I-unsplash.jpg,0,1,651,1,chosen,38,4,objects,outdoor_scenes,2100,0,8,4
259,51659,0,260,4,4,0,no_gain6,gain1,F,E,24,31,body_parts,body_parts,68,60,Stimuli/Experimental_stims/body_parts/clay-banks-LjqARJaJotc-unsplash.jpg,Stimuli/Experimental_stims/body_parts/sincerely-media-VN6DbKajo5s-unsplash.jpg,0,0,907,1,chosen,31,24,body_parts,body_parts,1600,0,8,4
260,51659,0,261,4,4,0,no_gain2,gain3,C,J,27,12,body_parts,faces,78,82,Stimuli/Experimental_stims/body_parts/heike-mintel-i_Gns0ELnLw-unsplash.jpg,Stimuli/Experimental_stims/faces/aiony-haust-jmATI5Q_YgY-unsplash.jpg,0,0,1101,1,unchosen,12,27,faces,body_parts,1700,0,8,4
261,51659,0,262,4,4,0,no_gain4,gain4,K,G,44,6,objects,outdoor_scenes,15,71,Stimuli/Experimental_stims/objects/kuiye-chen-NuOGFo4PudE-unsplash.jpg,Stimuli/Experimental_stims/outdoor_scenes/meng-ji-8BH_M-53CyA-unsplash.jpg,0,1,1051,0,chosen,44,6,objects,outdoor_scenes,1300,0,8,4
262,51659,0,263,4,4,1,gain6,no_gain1,A,L,42,35,objects,body_parts,30,26,Stimuli/Experimental_stims/objects/jess-bailey-nOeVi8DsN8U-unsplash.jpg,Stimuli/Experimental_stims/body_parts/wc-so-KH4AAPjb-tI-unsplash.jpg,0,1,732,1,chosen,42,35,objects,body_parts,3700,1,8,4
263,51659,0,264,4,4,1,gain1,no_gain4,E,K,37,32,objects,body_parts,64,42,Stimuli/Experimental_stims/objects/alexander-andrews-VLGWE_SumrA-unsplash.jpg,Stimuli/Experimental_stims/body_parts/towfiqu-barbhuiya-3AsiVDsZnHg-unsplash.jpg,0,0,865,0,unchosen,32,37,body_parts,objects,1500,0,8,4
264,51659,0,265,4,4,1,gain4,no_gain1,G,L,6,35,outdoor_scenes,body_parts,71,26,Stimuli/Experimental_stims/outdoor_scenes/meng-ji-8BH_M-53CyA-unsplash.jpg,Stimuli/Experimental_stims/body_parts/wc-so-KH4AAPjb-tI-unsplash.jpg,0,1,623,1,chosen,6,35,outdoor_scenes,body_parts,1500,0,8,4
265,51659,0,266,4,4,1,gain2,no_gain5,I,D,5,13,outdoor_scenes,faces,64,61,Stimuli/Experimental_stims/outdoor_scenes/jeff-king-bJHWJeiHfHc-unsplash.jpg,Stimuli/Experimental_stims/faces/daniel-rigdon-dXmXKPP2L4E-unsplash.jpg,0,0,1104,0,unchosen,13,5,faces,outdoor_scenes,1400,0,8,4
266,51659,0,267,4,4,0,no_gain2,gain4,C,G,9,6,outdoor_scenes,outdoor_scenes,81,71,Stimuli/Experimental_stims/outdoor_scenes/sergey-pesterev-y-b_FOmJXdg-unsplash.jpg,Stimuli/Experimental_stims/outdoor_scenes/meng-ji-8BH_M-53CyA-unsplash.jpg,0,0,705,1,chosen,6,9,outdoor_scenes,outdoor_scenes,1700,0,8,4
267,51659,0,268,4,4,0,no_gain4,gain6,K,A,44,42,objects,objects,15,30,Stimuli/Experimental_stims/objects/kuiye-chen-NuOGFo4PudE-unsplash.jpg,Stimuli/Experimental_stims/objects/jess-bailey-nOeVi8DsN8U-unsplash.jpg,0,0,1102,1,chosen,42,44,objects,objects,2500,0,8,4
268,51659,0,269,4,4,0,no_gain6,gain6,F,A,24,42,body_parts,objects,68,30,Stimuli/Experimental_stims/body_parts/clay-banks-LjqARJaJotc-unsplash.jpg,Stimuli/Experimental_stims/objects/jess-bailey-nOeVi8DsN8U-unsplash.jpg,0,0,553,1,chosen,42,24,objects,body_parts,1800,0,8,4
269,51659,0,270,4,4,0,no_gain2,gain6,C,A,27,2,body_parts,outdoor_scenes,78,39,Stimuli/Experimental_stims/body_parts/heike-mintel-i_Gns0ELnLw-unsplash.jpg,Stimuli/Experimental_stims/outdoor_scenes/bruno-van-der-kraan-qez8mNJ3ilU-unsplash.jpg,0,0,1289,1,unchosen,2,27,outdoor_scenes,body_parts,2200,0,8,4
270,51659,0,271,4,4,0,no_gain5,gain6,D,A,13,2,faces,outdoor_scenes,61,39,Stimuli/Experimental_stims/faces/daniel-rigdon-dXmXKPP2L4E-unsplash.jpg,Stimuli/Experimental_stims/outdoor_scenes/bruno-van-der-kraan-qez8mNJ3ilU-unsplash.jpg,1,NaN,,NaN,unchosen,NaN,NaN,NaN,NaN,1400,0,8,4
271,51659,0,272,4,4,1,gain3,no_gain6,J,F,38,24,objects,body_parts,61,68,Stimuli/Experimental_stims/objects/art-lasovsky-8XddFc6NkBY-unsplash.jpg,Stimuli/Experimental_stims/body_parts/clay-banks-LjqARJaJotc-unsplash.jpg,0,1,739,1,chosen,38,24,objects,body_parts,4200,1,8,4
272,51659,0,273,4,4,1,gain5,no_gain5,B,D,18,13,faces,faces,77,61,Stimuli/Experimental_stims/faces/jessica-radanavong-mrYkTuAesKE-unsplash.jpg,Stimuli/Experimental_stims/faces/daniel-rigdon-dXmXKPP2L4E-unsplash.jpg,0,0,876,0,unchosen,13,18,faces,faces,2400,0,8,4
273,51659,0,274,4,4,0,no_gain4,gain6,K,A,32,2,body_parts,outdoor_scenes,42,39,Stimuli/Experimental_stims/body_parts/towfiqu-barbhuiya-3AsiVDsZnHg-unsplash.jpg,Stimuli/Experimental_stims/outdoor_scenes/bruno-van-der-kraan-qez8mNJ3ilU-unsplash.jpg,0,1,591,0,unchosen,32,2,body_parts,outdoor_scenes,1100,0,8,4
274,51659,0,275,4,4,0,no_gain2,gain1,C,E,9,31,outdoor_scenes,body_parts,81,60,Stimuli/Experimental_stims/outdoor_scenes/sergey-pesterev-y-b_FOmJXdg-unsplash.jpg,Stimuli/Experimental_stims/body_parts/sincerely-media-VN6DbKajo5s-unsplash.jpg,0,0,746,1,chosen,31,9,body_parts,outdoor_scenes,1400,0,8,4
275,51659,0,276,4,4,0,no_gain3,gain3,H,J,21,12,faces,faces,80,82,Stimuli/Experimental_stims/faces/leilani-angel-K84vnnzxmTQ-unsplash.jpg,Stimuli/Experimental_stims/faces/aiony-haust-jmATI5Q_YgY-unsplash.jpg,0,0,935,1,unchosen,12,21,faces,faces,1400,0,8,4
276,51659,0,277,4,4,1,gain5,no_gain6,B,F,3,24,outdoor_scenes,body_parts,77,68,Stimuli/Experimental_stims/outdoor_scenes/henry-be-NLF6hTe4PAg-unsplash.jpg,Stimuli/Experimental_stims/body_parts/clay-banks-LjqARJaJotc-unsplash.jpg,0,1,662,1,chosen,3,24,outdoor_scenes,body_parts,1000,0,8,4
277,51659,0,278,4,4,1,gain1,no_gain5,E,D,31,36,body_parts,objects,60,44,Stimuli/Experimental_stims/body_parts/sincerely-media-VN6DbKajo5s-unsplash.jpg,Stimuli/Experimental_stims/objects/alexander-andrews-JYGnB9gTCls-unsplash.jpg,0,1,923,1,chosen,31,36,body_parts,objects,1900,0,8,4
278,51659,0,279,4,4,1,gain2,no_gain6,I,F,5,14,outdoor_scenes,faces,64,77,Stimuli/Experimental_stims/outdoor_scenes/jeff-king-bJHWJeiHfHc-unsplash.jpg,Stimuli/Experimental_stims/faces/david-siglin-UuW4psOb388-unsplash.jpg,0,1,1081,1,unchosen,5,14,outdoor_scenes,faces,2100,0,8,4
279,51659,0,280,4,4,1,gain2,no_gain2,I,C,5,27,outdoor_scenes,body_parts,64,78,Stimuli/Experimental_stims/outdoor_scenes/jeff-king-bJHWJeiHfHc-unsplash.jpg,Stimuli/Experimental_stims/body_parts/heike-mintel-i_Gns0ELnLw-unsplash.jpg,0,0,678,0,unchosen,27,5,body_parts,outdoor_scenes,1100,0,8,4
280,51659,0,281,4,4,1,gain3,no_gain6,J,F,12,14,faces,faces,82,77,Stimuli/Experimental_stims/faces/aiony-haust-jmATI5Q_YgY-unsplash.jpg,Stimuli/Experimental_stims/faces/david-siglin-UuW4psOb388-unsplash.jpg,0,1,707,1,unchosen,12,14,faces,faces,3800,1,8,4
281,51659,0,282,4,4,0,no_gain6,gain2,F,I,24,28,body_parts,body_parts,68,69,Stimuli/Experimental_stims/body_parts/clay-banks-LjqARJaJotc-unsplash.jpg,Stimuli/Experimental_stims/body_parts/ira-vishnevskaya-8DQAvdCby1I-unsplash.jpg,0,0,715,1,chosen,28,24,body_parts,body_parts,1200,0,8,4
282,51659,0,283,4,4,0,no_gain3,gain4,H,G,4,6,outdoor_scenes,outdoor_scenes,78,71,Stimuli/Experimental_stims/outdoor_scenes/jarrett-kow-1ZOyYPOBn7I-unsplash.jpg,Stimuli/Experimental_stims/outdoor_scenes/meng-ji-8BH_M-53CyA-unsplash.jpg,0,0,710,1,chosen,6,4,outdoor_scenes,outdoor_scenes,2500,0,8,4
283,51659,0,284,4,4,0,no_gain6,gain4,F,G,24,6,body_parts,outdoor_scenes,68,71,Stimuli/Experimental_stims/body_parts/clay-banks-LjqARJaJotc-unsplash.jpg,Stimuli/Experimental_stims/outdoor_scenes/meng-ji-8BH_M-53CyA-unsplash.jpg,0,0,911,1,chosen,6,24,outdoor_scenes,body_parts,1200,0,8,4
284,51659,0,285,4,4,1,gain4,no_gain5,G,D,41,13,objects,faces,41,61,Stimuli/Experimental_stims/objects/insung-yoon-w2JtIQQXoRU-unsplash.jpg,Stimuli/Experimental_stims/faces/daniel-rigdon-dXmXKPP2L4E-unsplash.jpg,0,0,878,0,unchosen,13,41,faces,objects,1600,0,8,4
285,51659,0,286,4,4,1,gain6,no_gain5,A,D,42,36,objects,objects,30,44,Stimuli/Experimental_stims/objects/jess-bailey-nOeVi8DsN8U-unsplash.jpg,Stimuli/Experimental_stims/objects/alexander-andrews-JYGnB9gTCls-unsplash.jpg,0,1,390,1,chosen,42,36,objects,objects,1900,0,8,4
286,51659,0,287,4,4,1,gain2,no_gain5,I,D,28,36,body_parts,objects,69,44,Stimuli/Experimental_stims/body_parts/ira-vishnevskaya-8DQAvdCby1I-unsplash.jpg,Stimuli/Experimental_stims/objects/alexander-andrews-JYGnB9gTCls-unsplash.jpg,0,1,788,1,chosen,28,36,body_parts,objects,1000,0,8,4
287,51659,0,288,4,4,1,gain6,no_gain3,A,H,2,21,outdoor_scenes,faces,39,80,Stimuli/Experimental_stims/outdoor_scenes/bruno-van-der-kraan-qez8mNJ3ilU-unsplash.jpg,Stimuli/Experimental_stims/faces/leilani-angel-K84vnnzxmTQ-unsplash.jpg,0,0,768,0,unchosen,21,2,faces,outdoor_scenes,5000,1,8,4
288,51659,0,289,4,4,0,no_gain4,gain1,K,E,44,31,objects,body_parts,15,60,Stimuli/Experimental_stims/objects/kuiye-chen-NuOGFo4PudE-unsplash.jpg,Stimuli/Experimental_stims/body_parts/sincerely-media-VN6DbKajo5s-unsplash.jpg,0,0,766,1,chosen,31,44,body_parts,objects,2400,0,8,4
289,51659,0,290,4,4,0,no_gain3,gain5,H,B,21,18,faces,faces,80,77,Stimuli/Experimental_stims/faces/leilani-angel-K84vnnzxmTQ-unsplash.jpg,Stimuli/Experimental_stims/faces/jessica-radanavong-mrYkTuAesKE-unsplash.jpg,0,0,1063,1,unchosen,18,21,faces,faces,1500,0,8,4
290,51659,0,291,4,4,1,gain6,no_gain3,A,H,42,4,objects,outdoor_scenes,30,78,Stimuli/Experimental_stims/objects/jess-bailey-nOeVi8DsN8U-unsplash.jpg,Stimuli/Experimental_stims/outdoor_scenes/jarrett-kow-1ZOyYPOBn7I-unsplash.jpg,0,1,877,1,chosen,42,4,objects,outdoor_scenes,1500,0,8,4
291,51659,0,292,4,4,1,gain4,no_gain4,G,K,41,32,objects,body_parts,41,42,Stimuli/Experimental_stims/objects/insung-yoon-w2JtIQQXoRU-unsplash.jpg,Stimuli/Experimental_stims/body_parts/towfiqu-barbhuiya-3AsiVDsZnHg-unsplash.jpg,0,0,745,0,unchosen,32,41,body_parts,objects,1300,0,8,4