,PID,practice,trial,block,run,gain_left,left_item_id,right_item_id,left_pair_id,right_pair_id,left_stimulus,right_stimulus,left_category,left_rating,right_rating,right_category,left_path,right_path,no_response,left_chosen,rt,higher_outcome_chosen,choice_type,chosen_stimulus,unchosen_stimulus,chosen_category,unchosen_category,iti,long_iti,simulation,version
0,40201,1,1,0,0,0,,,,,,,,,,,Stimuli/Practice_stims/Final_decisions/debby-hudson-FmCSSSGge-0-unsplash.jpg,Stimuli/Practice_stims/Final_decisions/yassine-khalfalli-adsQ9d_Cx0c-unsplash.jpg,0,1,25,0,,,,,,3000,0,7,2
1,40201,1,2,0,0,0,,,,,,,,,,,Stimuli/Practice_stims/Final_decisions/florian-wehde-iVW7mZPwd4g-unsplash.jpg,Stimuli/Practice_stims/Final_decisions/patrick-perkins-3wylDrjxH-E-unsplash.jpg,0,1,269,0,,,,,,1500,0,7,2
2,40201,1,3,0,0,0,,,,,,,,,,,Stimuli/Practice_stims/Final_decisions/debby-hudson-FmCSSSGge-0-unsplash.jpg,Stimuli/Practice_stims/Final_decisions/florian-wehde-iVW7mZPwd4g-unsplash.jpg,0,1,288,0,,,,,,2000,0,7,2
3,40201,1,4,0,0,0,,,,,,,,,,,Stimuli/Practice_stims/Final_decisions/yassine-khalfalli-adsQ9d_Cx0c-unsplash.jpg,Stimuli/Practice_stims/Final_decisions/debby-hudson-FmCSSSGge-0-unsplash.jpg,0,1,205,0,,,,,,1000,0,7,2
4,40201,0,5,1,1,1,gain2,no_gain3,F,H,12,0,faces,73,82,outdoor_scenes,Stimuli/Experimental_stims/faces/aiony-haust-jmATI5Q_YgY-unsplash.jpg,Stimuli/Experimental_stims/outdoor_scenes/aleksandra-boguslawska-MS7KD9Ti7FQ-unsplash.jpg,1,NaN,,NaN,unchosen,NaN,NaN,NaN,NaN,4100,1,7,2
5,40201,0,6,1,1,1,gain3,no_gain5,C,E,27,30,body_parts,70,64,body_parts,Stimuli/Experimental_stims/body_parts/heike-mintel-i_Gns0ELnLw-unsplash.jpg,Stimuli/Experimental_stims/body_parts/mika-korhonen-Xodzxosar18-unsplash.jpg,0,1,36,1,chosen,27,30,body_parts,body_parts,1200,0,7,2
6,40201,0,7,1,1,1,gain1,no_gain3,D,H,15,23,faces,67,87,faces,Stimuli/Experimental_stims/faces/erik-lucatero-d2MSDujJl2g-unsplash.jpg,Stimuli/Experimental_stims/faces/rikonavt-HQjfrvdTfak-unsplash.jpg,0,1,96,1,chosen,15,23,faces,faces,2600,0,7,2
7,40201,0,8,1,1,1,gain2,no_gain4,F,I,26,28,body_parts,69,85,body_parts,Stimuli/Experimental_stims/body_parts/engin-akyurt-x_3gyC42btc-unsplash.jpg,Stimuli/Experimental_stims/body_parts/ira-vishnevskaya-8DQAvdCby1I-unsplash.jpg,0,0,92,0,chosen,28,26,body_parts,body_parts,2000,0,7,2
8,40201,0,9,1,1,0,no_gain5,gain1,E,D,38,42,objects,70,66,objects,Stimuli/Experimental_stims/objects/art-lasovsky-8XddFc6NkBY-unsplash.jpg,Stimuli/Experimental_stims/objects/jess-bailey-nOeVi8DsN8U-unsplash.jpg,0,1,161,0,unchosen,38,42,objects,objects,1200,0,7,2
9,40201,0,10,1,1,0,no_gain4,gain3,I,C,28,27,body_parts,85,70,body_parts,Stimuli/Experimental_stims/body_parts/ira-vishnevskaya-8DQAvdCby1I-unsplash.jpg,Stimuli/Experimental_stims/body_parts/heike-mintel-i_Gns0ELnLw-unsplash.jpg,0,1,215,0,chosen,28,27,body_parts,body_parts,3200,1,7,2
10,40201,0,11,1,1,0,no_gain1,gain3,L,C,14,27,faces,70,70,body_parts,Stimuli/Experimental_stims/faces/david-siglin-UuW4psOb388-unsplash.jpg,Stimuli/Experimental_stims/body_parts/heike-mintel-i_Gns0ELnLw-unsplash.jpg,0,0,96,1,chosen,27,14,body_parts,faces,1200,0,7,2
11,40201,0,12,1,1,0,no_gain2,gain1,G,D,8,15,outdoor_scenes,61,67,faces,Stimuli/Experimental_stims/outdoor_scenes/samsommer-vddccTqwal8-unsplash.jpg,Stimuli/Experimental_stims/faces/erik-lucatero-d2MSDujJl2g-unsplash.jpg,0,1,155,0,chosen,8,15,outdoor_scenes,faces,1800,0,7,2
12,40201,0,13,1,1,1,gain2,no_gain1,F,L,12,32,faces,73,66,body_parts,Stimuli/Experimental_stims/faces/aiony-haust-jmATI5Q_YgY-unsplash.jpg,Stimuli/Experimental_stims/body_parts/towfiqu-barbhuiya-3AsiVDsZnHg-unsplash.jpg,0,1,176,1,unchosen,12,32,faces,body_parts,1600,0,7,2
13,40201,0,14,1,1,0,no_gain6,gain6,B,A,11,44,outdoor_scenes,86,75,objects,Stimuli/Experimental_stims/outdoor_scenes/stephen-leonardi-gyIRjKPXupE-unsplash.jpg,Stimuli/Experimental_stims/objects/kuiye-chen-NuOGFo4PudE-unsplash.jpg,0,0,74,1,unchosen,44,11,objects,outdoor_scenes,1300,0,7,2
14,40201,0,15,1,1,0,no_gain1,gain5,L,J,32,43,body_parts,66,60,objects,Stimuli/Experimental_stims/body_parts/towfiqu-barbhuiya-3AsiVDsZnHg-unsplash.jpg,Stimuli/Experimental_stims/objects/jonathan-greenaway-Y4hGgeiFn3s-unsplash.jpg,0,1,86,0,unchosen,32,43,body_parts,objects,1900,0,7,2
15,40201,0,16,1,1,0,no_gain3,gain2,H,F,23,26,faces,87,69,body_parts,Stimuli/Experimental_stims/faces/rikonavt-HQjfrvdTfak-unsplash.jpg,Stimuli/Experimental_stims/body_parts/engin-akyurt-x_3gyC42btc-unsplash.jpg,0,1,287,0,chosen,23,26,faces,body_parts,4100,1,7,2
16,40201,0,17,1,1,1,gain4,no_gain2,K,G,39,36,objects,78,74,objects,Stimuli/Experimental_stims/objects/charlesdeluvio-1-nx1QR5dTE-unsplash.jpg,Stimuli/Experimental_stims/objects/alexander-andrews-JYGnB9gTCls-unsplash.jpg,0,0,27,0,unchosen,36,39,objects,objects,1100,0,7,2
17,40201,0,18,1,1,1,gain6,no_gain2,A,G,1,8,outdoor_scenes,61,61,outdoor_scenes,Stimuli/Experimental_stims/outdoor_scenes/ashim-d-silva-S2Q5mdOrrVc-unsplash.jpg,Stimuli/Experimental_stims/outdoor_scenes/samsommer-vddccTqwal8-unsplash.jpg,0,1,66,1,chosen,1,8,outdoor_scenes,outdoor_scenes,1200,0,7,2
18,40201,0,19,1,1,1,gain5,no_gain4,J,I,43,3,objects,60,72,outdoor_scenes,Stimuli/Experimental_stims/objects/jonathan-greenaway-Y4hGgeiFn3s-unsplash.jpg,Stimuli/Experimental_stims/outdoor_scenes/henry-be-NLF6hTe4PAg-unsplash.jpg,0,0,74,0,unchosen,3,43,outdoor_scenes,objects,1400,0,7,2
19,40201,0,20,1,1,0,no_gain4,gain1,I,D,28,15,body_parts,85,67,faces,Stimuli/Experimental_stims/body_parts/ira-vishnevskaya-8DQAvdCby1I-unsplash.jpg,Stimuli/Experimental_stims/faces/erik-lucatero-d2MSDujJl2g-unsplash.jpg,0,0,21,1,chosen,15,28,faces,body_parts,1300,0,7,2
20,40201,0,21,1,1,1,gain6,no_gain6,A,B,1,16,outdoor_scenes,61,68,faces,Stimuli/Experimental_stims/outdoor_scenes/ashim-d-silva-S2Q5mdOrrVc-unsplash.jpg,Stimuli/Experimental_stims/faces/freddy-kearney-o-ioeoATbIM-unsplash.jpg,0,0,229,0,chosen,16,1,faces,outdoor_scenes,4600,1,7,2
21,40201,0,22,1,1,0,no_gain1,gain3,L,C,32,5,body_parts,66,66,outdoor_scenes,Stimuli/Experimental_stims/body_parts/towfiqu-barbhuiya-3AsiVDsZnHg-unsplash.jpg,Stimuli/Experimental_stims/outdoor_scenes/jeff-king-bJHWJeiHfHc-unsplash.jpg,0,0,113,1,unchosen,5,32,outdoor_scenes,body_parts,1000,0,7,2
22,40201,0,23,1,1,1,gain4,no_gain4,K,I,34,28,body_parts,46,85,body_parts,Stimuli/Experimental_stims/body_parts/wagner-santos-mBWMvIuVnso-unsplash.jpg,Stimuli/Experimental_stims/body_parts/ira-vishnevskaya-8DQAvdCby1I-unsplash.jpg,0,0,126,0,chosen,28,34,body_parts,body_parts,1100,0,7,2
23,40201,0,24,1,1,0,no_gain1,gain4,L,K,32,39,body_parts,66,78,objects,Stimuli/Experimental_stims/body_parts/towfiqu-barbhuiya-3AsiVDsZnHg-unsplash.jpg,Stimuli/Experimental_stims/objects/charlesdeluvio-1-nx1QR5dTE-unsplash.jpg,0,0,7,1,unchosen,39,32,objects,body_parts,1700,0,7,2
24,40201,0,25,1,1,0,no_gain3,gain5,H,J,0,43,outdoor_scenes,82,60,objects,Stimuli/Experimental_stims/outdoor_scenes/aleksandra-boguslawska-MS7KD9Ti7FQ-unsplash.jpg,Stimuli/Experimental_stims/objects/jonathan-greenaway-Y4hGgeiFn3s-unsplash.jpg,0,1,50,0,unchosen,0,43,outdoor_scenes,objects,2800,0,7,2
25,40201,0,26,1,1,1,gain4,no_gain3,K,H,34,23,body_parts,46,87,faces,Stimuli/Experimental_stims/body_parts/wagner-santos-mBWMvIuVnso-unsplash.jpg,Stimuli/Experimental_stims/faces/rikonavt-HQjfrvdTfak-unsplash.jpg,0,1,127,1,chosen,34,23,body_parts,faces,3200,1,7,2
26,40201,0,27,1,1,1,gain5,no_gain6,J,B,17,16,faces,69,68,faces,Stimuli/Experimental_stims/faces/good-faces-xmSWVeGEnJw-unsplash.jpg,Stimuli/Experimental_stims/faces/freddy-kearney-o-ioeoATbIM-unsplash.jpg,0,0,180,0,chosen,16,17,faces,faces,2000,0,7,2
27,40201,0,28,1,1,0,no_gain3,gain3,H,C,0,5,outdoor_scenes,82,66,outdoor_scenes,Stimuli/Experimental_stims/outdoor_scenes/aleksandra-boguslawska-MS7KD9Ti7FQ-unsplash.jpg,Stimuli/Experimental_stims/outdoor_scenes/jeff-king-bJHWJeiHfHc-unsplash.jpg,0,1,115,0,unchosen,0,5,outdoor_scenes,outdoor_scenes,1600,0,7,2
28,40201,0,29,1,1,1,gain6,no_gain3,A,H,1,23,outdoor_scenes,61,87,faces,Stimuli/Experimental_stims/outdoor_scenes/ashim-d-silva-S2Q5mdOrrVc-unsplash.jpg,Stimuli/Experimental_stims/faces/rikonavt-HQjfrvdTfak-unsplash.jpg,0,0,183,0,chosen,23,1,faces,outdoor_scenes,1300,0,7,2
29,40201,0,30,1,1,1,gain5,no_gain5,J,E,43,38,objects,60,70,objects,Stimuli/Experimental_stims/objects/jonathan-greenaway-Y4hGgeiFn3s-unsplash.jpg,Stimuli/Experimental_stims/objects/art-lasovsky-8XddFc6NkBY-unsplash.jpg,0,0,131,0,unchosen,38,43,objects,objects,1200,0,7,2
30,40201,0,31,1,1,0,no_gain6,gain3,B,C,11,5,outdoor_scenes,86,66,outdoor_scenes,Stimuli/Experimental_stims/outdoor_scenes/stephen-leonardi-gyIRjKPXupE-unsplash.jpg,Stimuli/Experimental_stims/outdoor_scenes/jeff-king-bJHWJeiHfHc-unsplash.jpg,0,0,225,1,unchosen,5,11,outdoor_scenes,outdoor_scenes,3500,1,7,2
31,40201,0,32,1,1,0,no_gain1,gain1,L,D,14,15,faces,70,67,faces,Stimuli/Experimental_stims/faces/david-siglin-UuW4psOb388-unsplash.jpg,Stimuli/Experimental_stims/faces/erik-lucatero-d2MSDujJl2g-unsplash.jpg,0,1,42,0,chosen,14,15,faces,faces,1800,0,7,2
32,40201,0,33,1,1,0,no_gain5,gain6,E,A,38,44,objects,70,75,objects,Stimuli/Experimental_stims/objects/art-lasovsky-8XddFc6NkBY-unsplash.jpg,Stimuli/Experimental_stims/objects/kuiye-chen-NuOGFo4PudE-unsplash.jpg,0,1,23,0,unchosen,38,44,objects,objects,1600,0,7,2
33,40201,0,34,1,1,0,no_gain1,gain5,L,J,14,17,faces,70,69,faces,Stimuli/Experimental_stims/faces/david-siglin-UuW4psOb388-unsplash.jpg,Stimuli/Experimental_stims/faces/good-faces-xmSWVeGEnJw-unsplash.jpg,0,0,5,1,chosen,17,14,faces,faces,2000,0,7,2
34,40201,0,35,1,1,0,no_gain5,gain5,E,J,30,17,body_parts,64,69,faces,Stimuli/Experimental_stims/body_parts/mika-korhonen-Xodzxosar18-unsplash.jpg,Stimuli/Experimental_stims/faces/good-faces-xmSWVeGEnJw-unsplash.jpg,0,1,118,0,chosen,30,17,body_parts,faces,1100,0,7,2
35,40201,0,36,1,1,1,gain1,no_gain2,D,G,42,36,objects,66,74,objects,Stimuli/Experimental_stims/objects/jess-bailey-nOeVi8DsN8U-unsplash.jpg,Stimuli/Experimental_stims/objects/alexander-andrews-JYGnB9gTCls-unsplash.jpg,0,0,1,0,unchosen,36,42,objects,objects,2800,0,7,2
36,40201,0,37,1,1,0,no_gain2,gain5,G,J,8,17,outdoor_scenes,61,69,faces,Stimuli/Experimental_stims/outdoor_scenes/samsommer-vddccTqwal8-unsplash.jpg,Stimuli/Experimental_stims/faces/good-faces-xmSWVeGEnJw-unsplash.jpg,0,1,81,0,chosen,8,17,outdoor_scenes,faces,3100,1,7,2
37,40201,0,38,1,1,0,no_gain4,gain2,I,F,3,12,outdoor_scenes,72,73,faces,Stimuli/Experimental_stims/outdoor_scenes/henry-be-NLF6hTe4PAg-unsplash.jpg,Stimuli/Experimental_stims/faces/aiony-haust-jmATI5Q_YgY-unsplash.jpg,0,1,70,0,unchosen,3,12,outdoor_scenes,faces,1100,0,7,2
38,40201,0,39,1,1,0,no_gain4,gain1,I,D,3,42,outdoor_scenes,72,66,objects,Stimuli/Experimental_stims/outdoor_scenes/henry-be-NLF6hTe4PAg-unsplash.jpg,Stimuli/Experimental_stims/objects/jess-bailey-nOeVi8DsN8U-unsplash.jpg,0,1,245,0,unchosen,3,42,outdoor_scenes,objects,1100,0,7,2
39,40201,0,40,1,1,1,gain2,no_gain1,F,L,26,14,body_parts,69,70,faces,Stimuli/Experimental_stims/body_parts/engin-akyurt-x_3gyC42btc-unsplash.jpg,Stimuli/Experimental_stims/faces/david-siglin-UuW4psOb388-unsplash.jpg,0,1,263,1,chosen,26,14,body_parts,faces,1100,0,7,2
40,40201,0,41,1,1,1,gain2,no_gain5,F,E,12,38,faces,73,70,objects,Stimuli/Experimental_stims/faces/aiony-haust-jmATI5Q_YgY-unsplash.jpg,Stimuli/Experimental_stims/objects/art-lasovsky-8XddFc6NkBY-unsplash.jpg,0,1,183,1,unchosen,12,38,faces,objects,2300,0,7,2
41,40201,0,42,1,1,1,gain6,no_gain3,A,H,44,0,objects,75,82,outdoor_scenes,Stimuli/Experimental_stims/objects/kuiye-chen-NuOGFo4PudE-unsplash.jpg,Stimuli/Experimental_stims/outdoor_scenes/aleksandra-boguslawska-MS7KD9Ti7FQ-unsplash.jpg,0,0,289,0,unchosen,0,44,outdoor_scenes,objects,3700,1,7,2
42,40201,0,43,1,1,0,no_gain6,gain5,B,J,11,43,outdoor_scenes,86,60,objects,Stimuli/Experimental_stims/outdoor_scenes/stephen-leonardi-gyIRjKPXupE-unsplash.jpg,Stimuli/Experimental_stims/objects/jonathan-greenaway-Y4hGgeiFn3s-unsplash.jpg,0,0,216,1,unchosen,43,11,objects,outdoor_scenes,2400,0,7,2
43,40201,0,44,1,1,0,no_gain5,gain6,E,A,30,1,body_parts,64,61,outdoor_scenes,Stimuli/Experimental_stims/body_parts/mika-korhonen-Xodzxosar18-unsplash.jpg,Stimuli/Experimental_stims/outdoor_scenes/ashim-d-silva-S2Q5mdOrrVc-unsplash.jpg,0,0,236,1,chosen,1,30,outdoor_scenes,body_parts,1400,0,7,2
44,40201,0,45,1,1,0,no_gain2,gain6,G,A,36,44,objects,74,75,objects,Stimuli/Experimental_stims/objects/alexander-andrews-JYGnB9gTCls-unsplash.jpg,Stimuli/Experimental_stims/objects/kuiye-chen-NuOGFo4PudE-unsplash.jpg,0,1,171,0,unchosen,36,44,objects,objects,2500,0,7,2
45,40201,0,46,1,1,1,gain6,no_gain1,A,L,1,14,outdoor_scenes,61,70,faces,Stimuli/Experimental_stims/outdoor_scenes/ashim-d-silva-S2Q5mdOrrVc-unsplash.jpg,Stimuli/Experimental_stims/faces/david-siglin-UuW4psOb388-unsplash.jpg,0,0,49,0,chosen,14,1,faces,outdoor_scenes,2600,0,7,2
46,40201,0,47,1,1,1,gain2,no_gain2,F,G,26,8,body_parts,69,61,outdoor_scenes,Stimuli/Experimental_stims/body_parts/engin-akyurt-x_3gyC42btc-unsplash.jpg,Stimuli/Experimental_stims/outdoor_scenes/samsommer-vddccTqwal8-unsplash.jpg,0,1,150,1,chosen,26,8,body_parts,outdoor_scenes,1100,0,7,2
47,40201,0,48,1,1,0,no_gain6,gain1,B,D,11,42,outdoor_scenes,86,66,objects,Stimuli/Experimental_stims/outdoor_scenes/stephen-leonardi-gyIRjKPXupE-unsplash.jpg,Stimuli/Experimental_stims/objects/jess-bailey-nOeVi8DsN8U-unsplash.jpg,0,0,123,1,unchosen,42,11,objects,outdoor_scenes,4800,1,7,2
48,40201,0,49,1,1,1,gain4,no_gain3,K,H,39,0,objects,78,82,outdoor_scenes,Stimuli/Experimental_stims/objects/charlesdeluvio-1-nx1QR5dTE-unsplash.jpg,Stimuli/Experimental_stims/outdoor_scenes/aleksandra-boguslawska-MS7KD9Ti7FQ-unsplash.jpg,0,1,162,1,unchosen,39,0,objects,outdoor_scenes,1600,0,7,2
49,40201,0,50,1,1,1,gain6,no_gain4,A,I,1,28,outdoor_scenes,61,85,body_parts,Stimuli/Experimental_stims/outdoor_scenes/ashim-d-silva-S2Q5mdOrrVc-unsplash.jpg,Stimuli/Experimental_stims/body_parts/ira-vishnevskaya-8DQAvdCby1I-unsplash.jpg,0,1,177,1,chosen,1,28,outdoor_scenes,body_parts,2800,0,7,2
50,40201,0,51,1,1,1,gain1,no_gain3,D,H,42,0,objects,66,82,outdoor_scenes,Stimuli/Experimental_stims/objects/jess-bailey-nOeVi8DsN8U-unsplash.jpg,Stimuli/Experimental_stims/outdoor_scenes/aleksandra-boguslawska-MS7KD9Ti7FQ-unsplash.jpg,0,0,59,0,unchosen,0,42,outdoor_scenes,objects,2300,0,7,2
51,40201,0,52,1,1,1,gain3,no_gain5,C,E,5,38,outdoor_scenes,66,70,objects,Stimuli/Experimental_stims/outdoor_scenes/jeff-king-bJHWJeiHfHc-unsplash.jpg,Stimuli/Experimental_stims/objects/art-lasovsky-8XddFc6NkBY-unsplash.jpg,0,0,156,0,unchosen,38,5,objects,outdoor_scenes,2400,0,7,2
52,40201,0,53,1,1,1,gain4,no_gain4,K,I,39,3,objects,78,72,outdoor_scenes,Stimuli/Experimental_stims/objects/charlesdeluvio-1-nx1QR5dTE-unsplash.jpg,Stimuli/Experimental_stims/outdoor_scenes/henry-be-NLF6hTe4PAg-unsplash.jpg,0,1,5,1,unchosen,39,3,objects,outdoor_scenes,1800,0,7,2
53,40201,0,54,1,1,0,no_gain6,gain1,B,D,16,15,faces,68,67,faces,Stimuli/Experimental_stims/faces/freddy-kearney-o-ioeoATbIM-unsplash.jpg,Stimuli/Experimental_stims/faces/erik-lucatero-d2MSDujJl2g-unsplash.jpg,0,1,123,0,chosen,16,15,faces,faces,1500,0,7,2
54,40201,0,55,1,1,1,gain6,no_gain4,A,I,44,3,objects,75,72,outdoor_scenes,Stimuli/Experimental_stims/objects/kuiye-chen-NuOGFo4PudE-unsplash.jpg,Stimuli/Experimental_stims/outdoor_scenes/henry-be-NLF6hTe4PAg-unsplash.jpg,0,1,64,1,unchosen,44,3,objects,outdoor_scenes,1900,0,7,2
55,40201,0,56,1,1,1,gain3,no_gain2,C,G,5,36,outdoor_scenes,66,74,objects,Stimuli/Experimental_stims/outdoor_scenes/jeff-king-bJHWJeiHfHc-unsplash.jpg,Stimuli/Experimental_stims/objects/alexander-andrews-JYGnB9gTCls-unsplash.jpg,0,0,250,0,unchosen,36,5,objects,outdoor_scenes,1100,0,7,2
56,40201,0,57,1,1,0,no_gain2,gain2,G,F,36,12,objects,74,73,faces,Stimuli/Experimental_stims/objects/alexander-andrews-JYGnB9gTCls-unsplash.jpg,Stimuli/Experimental_stims/faces/aiony-haust-jmATI5Q_YgY-unsplash.jpg,0,1,50,0,unchosen,36,12,objects,faces,1700,0,7,2
57,40201,0,58,1,1,1,gain5,no_gain3,J,H,17,23,faces,69,87,faces,Stimuli/Experimental_stims/faces/good-faces-xmSWVeGEnJw-unsplash.jpg,Stimuli/Experimental_stims/faces/rikonavt-HQjfrvdTfak-unsplash.jpg,0,0,242,0,chosen,23,17,faces,faces,1600,0,7,2
58,40201,0,59,1,1,1,gain6,no_gain1,A,L,44,32,objects,75,66,body_parts,Stimuli/Experimental_stims/objects/kuiye-chen-NuOGFo4PudE-unsplash.jpg,Stimuli/Experimental_stims/body_parts/towfiqu-barbhuiya-3AsiVDsZnHg-unsplash.jpg,0,1,18,1,unchosen,44,32,objects,body_parts,1700,0,7,2
59,40201,0,60,1,1,0,no_gain5,gain4,E,K,30,34,body_parts,64,46,body_parts,Stimuli/Experimental_stims/body_parts/mika-korhonen-Xodzxosar18-unsplash.jpg,Stimuli/Experimental_stims/body_parts/wagner-santos-mBWMvIuVnso-unsplash.jpg,0,1,172,0,chosen,30,34,body_parts,body_parts,3000,0,7,2
60,40201,0,61,1,1,1,gain3,no_gain6,C,B,27,16,body_parts,70,68,faces,Stimuli/Experimental_stims/body_parts/heike-mintel-i_Gns0ELnLw-unsplash.jpg,Stimuli/Experimental_stims/faces/freddy-kearney-o-ioeoATbIM-unsplash.jpg,0,0,83,0,chosen,16,27,faces,body_parts,2100,0,7,2
61,40201,0,62,1,1,1,gain5,no_gain2,J,G,43,36,objects,60,74,objects,Stimuli/Experimental_stims/objects/jonathan-greenaway-Y4hGgeiFn3s-unsplash.jpg,Stimuli/Experimental_stims/objects/alexander-andrews-JYGnB9gTCls-unsplash.jpg,0,0,211,0,unchosen,36,43,objects,objects,3200,1,7,2
62,40201,0,63,1,1,1,gain1,no_gain5,D,E,15,30,faces,67,64,body_parts,Stimuli/Experimental_stims/faces/erik-lucatero-d2MSDujJl2g-unsplash.jpg,Stimuli/Experimental_stims/body_parts/mika-korhonen-Xodzxosar18-unsplash.jpg,1,NaN,,NaN,chosen,NaN,NaN,NaN,NaN,1600,0,7,2
63,40201,0,64,1,1,0,no_gain2,gain4,G,K,8,34,outdoor_scenes,61,46,body_parts,Stimuli/Experimental_stims/outdoor_scenes/samsommer-vddccTqwal8-unsplash.jpg,Stimuli/Experimental_stims/body_parts/wagner-santos-mBWMvIuVnso-unsplash.jpg,1,NaN,,NaN,chosen,NaN,NaN,NaN,NaN,1300,0,7,2
64,40201,0,65,1,1,0,no_gain1,gain1,L,D,32,42,body_parts,66,66,objects,Stimuli/Experimental_stims/body_parts/towfiqu-barbhuiya-3AsiVDsZnHg-unsplash.jpg,Stimuli/Experimental_stims/objects/jess-bailey-nOeVi8DsN8U-unsplash.jpg,1,NaN,,NaN,unchosen,NaN,NaN,NaN,NaN,1800,0,7,2
65,40201,0,66,1,1,0,no_gain1,gain4,L,K,14,34,faces,70,46,body_parts,Stimuli/Experimental_stims/faces/david-siglin-UuW4psOb388-unsplash.jpg,Stimuli/Experimental_stims/body_parts/wagner-santos-mBWMvIuVnso-unsplash.jpg,1,NaN,,NaN,chosen,NaN,NaN,NaN,NaN,1400,0,7,2
66,40201,0,67,1,1,0,no_gain3,gain3,H,C,23,27,faces,87,70,body_parts,Stimuli/Experimental_stims/faces/rikonavt-HQjfrvdTfak-unsplash.jpg,Stimuli/Experimental_stims/body_parts/heike-mintel-i_Gns0ELnLw-unsplash.jpg,1,NaN,,NaN,chosen,NaN,NaN,NaN,NaN,1500,0,7,2
67,40201,0,68,1,1,0,no_gain6,gain2,B,F,16,26,faces,68,69,body_parts,Stimuli/Experimental_stims/faces/freddy-kearney-o-ioeoATbIM-unsplash.jpg,Stimuli/Experimental_stims/body_parts/engin-akyurt-x_3gyC42btc-unsplash.jpg,1,NaN,,NaN,chosen,NaN,NaN,NaN,NaN,1100,0,7,2
68,40201,0,69,1,1,0,no_gain6,gain4,B,K,11,39,outdoor_scenes,86,78,objects,Stimuli/Experimental_stims/outdoor_scenes/stephen-leonardi-gyIRjKPXupE-unsplash.jpg,Stimuli/Experimental_stims/objects/charlesdeluvio-1-nx1QR5dTE-unsplash.jpg,0,1,148,0,unchosen,11,39,outdoor_scenes,objects,4300,1,7,2
69,40201,0,70,1,1,0,no_gain2,gain3,G,C,8,27,outdoor_scenes,61,70,body_parts,Stimuli/Experimental_stims/outdoor_scenes/samsommer-vddccTqwal8-unsplash.jpg,Stimuli/Experimental_stims/body_parts/heike-mintel-i_Gns0ELnLw-unsplash.jpg,0,0,152,1,chosen,27,8,body_parts,outdoor_scenes,1100,0,7,2
70,40201,0,71,1,1,1,gain2,no_gain5,F,E,26,30,body_parts,69,64,body_parts,Stimuli/Experimental_stims/body_parts/engin-akyurt-x_3gyC42btc-unsplash.jpg,Stimuli/Experimental_stims/body_parts/mika-korhonen-Xodzxosar18-unsplash.jpg,0,1,21,1,chosen,26,30,body_parts,body_parts,1300,0,7,2
71,40201,0,72,1,1,1,gain2,no_gain6,F,B,12,11,faces,73,86,outdoor_scenes,Stimuli/Experimental_stims/faces/aiony-haust-jmATI5Q_YgY-unsplash.jpg,Stimuli/Experimental_stims/outdoor_scenes/stephen-leonardi-gyIRjKPXupE-unsplash.jpg,0,0,61,0,unchosen,11,12,outdoor_scenes,faces,2000,0,7,2
72,40201,0,73,1,1,0,no_gain4,gain3,I,C,3,5,outdoor_scenes,72,66,outdoor_scenes,Stimuli/Experimental_stims/outdoor_scenes/henry-be-NLF6hTe4PAg-unsplash.jpg,Stimuli/Experimental_stims/outdoor_scenes/jeff-king-bJHWJeiHfHc-unsplash.jpg,0,0,120,1,unchosen,5,3,outdoor_scenes,outdoor_scenes,1900,0,7,2
73,40201,0,74,1,1,0,no_gain4,gain5,I,J,28,17,body_parts,85,69,faces,Stimuli/Experimental_stims/body_parts/ira-vishnevskaya-8DQAvdCby1I-unsplash.jpg,Stimuli/Experimental_stims/faces/good-faces-xmSWVeGEnJw-unsplash.jpg,0,0,432,1,chosen,17,28,faces,body_parts,2200,0,7,2
74,40201,0,75,1,1,1,gain4,no_gain6,K,B,34,16,body_parts,46,68,faces,Stimuli/Experimental_stims/body_parts/wagner-santos-mBWMvIuVnso-unsplash.jpg,Stimuli/Experimental_stims/faces/freddy-kearney-o-ioeoATbIM-unsplash.jpg,0,1,73,1,chosen,34,16,body_parts,faces,1000,0,7,2
75,40201,0,76,1,1,1,gain4,no_gain5,K,E,39,38,objects,78,70,objects,Stimuli/Experimental_stims/objects/charlesdeluvio-1-nx1QR5dTE-unsplash.jpg,Stimuli/Experimental_stims/objects/art-lasovsky-8XddFc6NkBY-unsplash.jpg,0,1,142,1,unchosen,39,38,objects,objects,1100,0,7,2
76,40201,0,77,2,2,1,gain6,no_gain3,A,H,44,0,objects,75,82,outdoor_scenes,Stimuli/Experimental_stims/objects/kuiye-chen-NuOGFo4PudE-unsplash.jpg,Stimuli/Experimental_stims/outdoor_scenes/aleksandra-boguslawska-MS7KD9Ti7FQ-unsplash.jpg,1,NaN,,NaN,unchosen,NaN,NaN,NaN,NaN,3800,1,10,2
77,40201,0,78,2,2,1,gain6,no_gain4,A,I,1,28,outdoor_scenes,61,85,body_parts,Stimuli/Experimental_stims/outdoor_scenes/ashim-d-silva-S2Q5mdOrrVc-unsplash.jpg,Stimuli/Experimental_stims/body_parts/ira-vishnevskaya-8DQAvdCby1I-unsplash.jpg,0,0,39,0,chosen,28,1,body_parts,outdoor_scenes,2000,0,10,2
78,40201,0,79,2,2,1,gain3,no_gain1,C,L,27,14,body_parts,70,70,faces,Stimuli/Experimental_stims/body_parts/heike-mintel-i_Gns0ELnLw-unsplash.jpg,Stimuli/Experimental_stims/faces/david-siglin-UuW4psOb388-unsplash.jpg,0,0,101,0,chosen,14,27,faces,body_parts,3000,0,10,2
79,40201,0,80,2,2,1,gain4,no_gain3,K,H,39,0,objects,78,82,outdoor_scenes,Stimuli/Experimental_stims/objects/charlesdeluvio-1-nx1QR5dTE-unsplash.jpg,Stimuli/Experimental_stims/outdoor_scenes/aleksandra-boguslawska-MS7KD9Ti7FQ-unsplash.jpg,0,0,216,0,unchosen,0,39,outdoor_scenes,objects,1400,0,10,2
80,40201,0,81,2,2,1,gain6,no_gain6,A,B,1,16,outdoor_scenes,61,68,faces,Stimuli/Experimental_stims/outdoor_scenes/ashim-d-silva-S2Q5mdOrrVc-unsplash.jpg,Stimuli/Experimental_stims/faces/freddy-kearney-o-ioeoATbIM-unsplash.jpg,0,0,155,0,chosen,16,1,faces,outdoor_scenes,2900,0,10,2
81,40201,0,82,2,2,1,gain2,no_gain1,F,L,26,14,body_parts,69,70,faces,Stimuli/Experimental_stims/body_parts/engin-akyurt-x_3gyC42btc-unsplash.jpg,Stimuli/Experimental_stims/faces/david-siglin-UuW4psOb388-unsplash.jpg,0,1,7,1,chosen,26,14,body_parts,faces,2000,0,10,2
82,40201,0,83,2,2,0,no_gain1,gain3,L,C,32,5,body_parts,66,66,outdoor_scenes,Stimuli/Experimental_stims/body_parts/towfiqu-barbhuiya-3AsiVDsZnHg-unsplash.jpg,Stimuli/Experimental_stims/outdoor_scenes/jeff-king-bJHWJeiHfHc-unsplash.jpg,0,0,238,1,unchosen,5,32,outdoor_scenes,body_parts,2700,0,10,2
83,40201,0,84,2,2,0,no_gain6,gain2,B,F,16,26,faces,68,69,body_parts,Stimuli/Experimental_stims/faces/freddy-kearney-o-ioeoATbIM-unsplash.jpg,Stimuli/Experimental_stims/body_parts/engin-akyurt-x_3gyC42btc-unsplash.jpg,0,1,5,0,chosen,16,26,faces,body_parts,3600,1,10,2
84,40201,0,85,2,2,0,no_gain3,gain2,H,F,0,12,outdoor_scenes,82,73,faces,Stimuli/Experimental_stims/outdoor_scenes/aleksandra-boguslawska-MS7KD9Ti7FQ-unsplash.jpg,Stimuli/Experimental_stims/faces/aiony-haust-jmATI5Q_YgY-unsplash.jpg,0,1,290,0,unchosen,0,12,outdoor_scenes,faces,1300,0,10,2
85,40201,0,86,2,2,1,gain6,no_gain1,A,L,44,32,objects,75,66,body_parts,Stimuli/Experimental_stims/objects/kuiye-chen-NuOGFo4PudE-unsplash.jpg,Stimuli/Experimental_stims/body_parts/towfiqu-barbhuiya-3AsiVDsZnHg-unsplash.jpg,0,1,82,1,unchosen,44,32,objects,body_parts,3000,0,10,2
86,40201,0,87,2,2,0,no_gain5,gain4,E,K,38,39,objects,70,78,objects,Stimuli/Experimental_stims/objects/art-lasovsky-8XddFc6NkBY-unsplash.jpg,Stimuli/Experimental_stims/objects/charlesdeluvio-1-nx1QR5dTE-unsplash.jpg,0,0,3,1,unchosen,39,38,objects,objects,2600,0,10,2
87,40201,0,88,2,2,0,no_gain2,gain3,G,C,8,27,outdoor_scenes,61,70,body_parts,Stimuli/Experimental_stims/outdoor_scenes/samsommer-vddccTqwal8-unsplash.jpg,Stimuli/Experimental_stims/body_parts/heike-mintel-i_Gns0ELnLw-unsplash.jpg,0,0,24,1,chosen,27,8,body_parts,outdoor_scenes,1100,0,10,2
88,40201,0,89,2,2,0,no_gain1,gain1,L,D,14,15,faces,70,67,faces,Stimuli/Experimental_stims/faces/david-siglin-UuW4psOb388-unsplash.jpg,Stimuli/Experimental_stims/faces/erik-lucatero-d2MSDujJl2g-unsplash.jpg,0,0,144,1,chosen,15,14,faces,faces,1400,0,10,2
89,40201,0,90,2,2,0,no_gain5,gain2,E,F,38,12,objects,70,73,faces,Stimuli/Experimental_stims/objects/art-lasovsky-8XddFc6NkBY-unsplash.jpg,Stimuli/Experimental_stims/faces/aiony-haust-jmATI5Q_YgY-unsplash.jpg,0,0,26,1,unchosen,12,38,faces,objects,1100,0,10,2
90,40201,0,91,2,2,1,gain3,no_gain3,C,H,5,0,outdoor_scenes,66,82,outdoor_scenes,Stimuli/Experimental_stims/outdoor_scenes/jeff-king-bJHWJeiHfHc-unsplash.jpg,Stimuli/Experimental_stims/outdoor_scenes/aleksandra-boguslawska-MS7KD9Ti7FQ-unsplash.jpg,0,1,19,1,unchosen,5,0,outdoor_scenes,outdoor_scenes,2900,0,10,2
91,40201,0,92,2,2,1,gain5,no_gain4,J,I,17,28,faces,69,85,body_parts,Stimuli/Experimental_stims/faces/good-faces-xmSWVeGEnJw-unsplash.jpg,Stimuli/Experimental_stims/body_parts/ira-vishnevskaya-8DQAvdCby1I-unsplash.jpg,0,0,271,0,chosen,28,17,body_parts,faces,1600,0,10,2
92,40201,0,93,2,2,1,gain2,no_gain6,F,B,12,11,faces,73,86,outdoor_scenes,Stimuli/Experimental_stims/faces/aiony-haust-jmATI5Q_YgY-unsplash.jpg,Stimuli/Experimental_stims/outdoor_scenes/stephen-leonardi-gyIRjKPXupE-unsplash.jpg,0,0,256,0,unchosen,11,12,outdoor_scenes,faces,1500,0,10,2
93,40201,0,94,2,2,0,no_gain5,gain6,E,A,38,44,objects,70,75,objects,Stimuli/Experimental_stims/objects/art-lasovsky-8XddFc6NkBY-unsplash.jpg,Stimuli/Experimental_stims/objects/kuiye-chen-NuOGFo4PudE-unsplash.jpg,0,0,1,1,unchosen,44,38,objects,objects,3800,1,10,2
94,40201,0,95,2,2,0,no_gain6,gain4,B,K,16,34,faces,68,46,body_parts,Stimuli/Experimental_stims/faces/freddy-kearney-o-ioeoATbIM-unsplash.jpg,Stimuli/Experimental_stims/body_parts/wagner-santos-mBWMvIuVnso-unsplash.jpg,0,0,174,1,chosen,34,16,body_parts,faces,1500,0,10,2
95,40201,0,96,2,2,1,gain5,no_gain2,J,G,43,36,objects,60,74,objects,Stimuli/Experimental_stims/objects/jonathan-greenaway-Y4hGgeiFn3s-unsplash.jpg,Stimuli/Experimental_stims/objects/alexander-andrews-JYGnB9gTCls-unsplash.jpg,0,0,169,0,unchosen,36,43,objects,objects,1000,0,10,2
96,40201,0,97,2,2,1,gain4,no_gain4,K,I,39,3,objects,78,72,outdoor_scenes,Stimuli/Experimental_stims/objects/charlesdeluvio-1-nx1QR5dTE-unsplash.jpg,Stimuli/Experimental_stims/outdoor_scenes/henry-be-NLF6hTe4PAg-unsplash.jpg,0,1,143,1,unchosen,39,3,objects,outdoor_scenes,1600,0,10,2
97,40201,0,98,2,2,0,no_gain5,gain3,E,C,30,27,body_parts,64,70,body_parts,Stimuli/Experimental_stims/body_parts/mika-korhonen-Xodzxosar18-unsplash.jpg,Stimuli/Experimental_stims/body_parts/heike-mintel-i_Gns0ELnLw-unsplash.jpg,0,1,437,0,chosen,30,27,body_parts,body_parts,1300,0,10,2
98,40201,0,99,2,2,1,gain2,no_gain4,F,I,26,28,body_parts,69,85,body_parts,Stimuli/Experimental_stims/body_parts/engin-akyurt-x_3gyC42btc-unsplash.jpg,Stimuli/Experimental_stims/body_parts/ira-vishnevskaya-8DQAvdCby1I-unsplash.jpg,0,0,41,0,chosen,28,26,body_parts,body_parts,3500,1,10,2
99,40201,0,100,2,2,0,no_gain2,gain4,G,K,8,34,outdoor_scenes,61,46,body_parts,Stimuli/Experimental_stims/outdoor_scenes/samsommer-vddccTqwal8-unsplash.jpg,Stimuli/Experimental_stims/body_parts/wagner-santos-mBWMvIuVnso-unsplash.jpg,1,NaN,,NaN,chosen,NaN,NaN,NaN,NaN,2500,0,10,2
100,40201,0,101,2,2,1,gain5,no_gain6,J,B,43,11,objects,60,86,outdoor_scenes,Stimuli/Experimental_stims/objects/jonathan-greenaway-Y4hGgeiFn3s-unsplash.jpg,Stimuli/Experimental_stims/outdoor_scenes/stephen-leonardi-gyIRjKPXupE-unsplash.jpg,0,1,415,1,unchosen,43,11,objects,outdoor_scenes,1100,0,10,2
101,40201,0,102,2,2,1,gain3,no_gain3,C,H,27,23,body_parts,70,87,faces,Stimuli/Experimental_stims/body_parts/heike-mintel-i_Gns0ELnLw-unsplash.jpg,Stimuli/Experimental_stims/faces/rikonavt-HQjfrvdTfak-unsplash.jpg,0,1,265,1,chosen,27,23,body_parts,faces,1000,0,10,2
102,40201,0,103,2,2,0,no_gain2,gain1,G,D,36,42,objects,74,66,objects,Stimuli/Experimental_stims/objects/alexander-andrews-JYGnB9gTCls-unsplash.jpg,Stimuli/Experimental_stims/objects/jess-bailey-nOeVi8DsN8U-unsplash.jpg,1,NaN,,NaN,unchosen,NaN,NaN,NaN,NaN,2100,0,10,2
103,40201,0,104,2,2,1,gain4,no_gain4,K,I,34,28,body_parts,46,85,body_parts,Stimuli/Experimental_stims/body_parts/wagner-santos-mBWMvIuVnso-unsplash.jpg,Stimuli/Experimental_stims/body_parts/ira-vishnevskaya-8DQAvdCby1I-unsplash.jpg,1,NaN,,NaN,chosen,NaN,NaN,NaN,NaN,1300,0,10,2
104,40201,0,105,2,2,0,no_gain2,gain4,G,K,36,39,objects,74,78,objects,Stimuli/Experimental_stims/objects/alexander-andrews-JYGnB9gTCls-unsplash.jpg,Stimuli/Experimental_stims/objects/charlesdeluvio-1-nx1QR5dTE-unsplash.jpg,0,0,427,1,unchosen,39,36,objects,objects,2000,0,10,2
105,40201,0,106,2,2,1,gain5,no_gain1,J,L,17,14,faces,69,70,faces,Stimuli/Experimental_stims/faces/good-faces-xmSWVeGEnJw-unsplash.jpg,Stimuli/Experimental_stims/faces/david-siglin-UuW4psOb388-unsplash.jpg,0,1,1016,1,chosen,17,14,faces,faces,3100,1,10,2
106,40201,0,107,2,2,0,no_gain6,gain3,B,C,11,5,outdoor_scenes,86,66,outdoor_scenes,Stimuli/Experimental_stims/outdoor_scenes/stephen-leonardi-gyIRjKPXupE-unsplash.jpg,Stimuli/Experimental_stims/outdoor_scenes/jeff-king-bJHWJeiHfHc-unsplash.jpg,0,1,780,0,unchosen,11,5,outdoor_scenes,outdoor_scenes,1400,0,10,2
107,40201,0,108,2,2,1,gain6,no_gain1,A,L,1,14,outdoor_scenes,61,70,faces,Stimuli/Experimental_stims/outdoor_scenes/ashim-d-silva-S2Q5mdOrrVc-unsplash.jpg,Stimuli/Experimental_stims/faces/david-siglin-UuW4psOb388-unsplash.jpg,0,0,907,0,chosen,14,1,faces,outdoor_scenes,1300,0,10,2
108,40201,0,109,2,2,0,no_gain2,gain5,G,J,8,17,outdoor_scenes,61,69,faces,Stimuli/Experimental_stims/outdoor_scenes/samsommer-vddccTqwal8-unsplash.jpg,Stimuli/Experimental_stims/faces/good-faces-xmSWVeGEnJw-unsplash.jpg,0,1,1014,0,chosen,8,17,outdoor_scenes,faces,1300,0,10,2
109,40201,0,110,2,2,0,no_gain5,gain5,E,J,38,43,objects,70,60,objects,Stimuli/Experimental_stims/objects/art-lasovsky-8XddFc6NkBY-unsplash.jpg,Stimuli/Experimental_stims/objects/jonathan-greenaway-Y4hGgeiFn3s-unsplash.jpg,1,NaN,,NaN,unchosen,NaN,NaN,NaN,NaN,1200,0,10,2
110,40201,0,111,2,2,0,no_gain5,gain1,E,D,38,42,objects,70,66,objects,Stimuli/Experimental_stims/objects/art-lasovsky-8XddFc6NkBY-unsplash.jpg,Stimuli/Experimental_stims/objects/jess-bailey-nOeVi8DsN8U-unsplash.jpg,0,0,89,1,unchosen,42,38,objects,objects,1300,0,10,2
111,40201,0,112,2,2,0,no_gain6,gain5,B,J,16,17,faces,68,69,faces,Stimuli/Experimental_stims/faces/freddy-kearney-o-ioeoATbIM-unsplash.jpg,Stimuli/Experimental_stims/faces/good-faces-xmSWVeGEnJw-unsplash.jpg,0,1,841,0,chosen,16,17,faces,faces,1100,0,10,2
112,40201,0,113,2,2,1,gain2,no_gain2,F,G,26,8,body_parts,69,61,outdoor_scenes,Stimuli/Experimental_stims/body_parts/engin-akyurt-x_3gyC42btc-unsplash.jpg,Stimuli/Experimental_stims/outdoor_scenes/samsommer-vddccTqwal8-unsplash.jpg,0,1,984,1,chosen,26,8,body_parts,outdoor_scenes,1900,0,10,2
113,40201,0,114,2,2,1,gain1,no_gain6,D,B,42,11,objects,66,86,outdoor_scenes,Stimuli/Experimental_stims/objects/jess-bailey-nOeVi8DsN8U-unsplash.jpg,Stimuli/Experimental_stims/outdoor_scenes/stephen-leonardi-gyIRjKPXupE-unsplash.jpg,0,1,597,1,unchosen,42,11,objects,outdoor_scenes,2100,0,10,2
114,40201,0,115,2,2,0,no_gain3,gain5,H,J,0,43,outdoor_scenes,82,60,objects,Stimuli/Experimental_stims/outdoor_scenes/aleksandra-boguslawska-MS7KD9Ti7FQ-unsplash.jpg,Stimuli/Experimental_stims/objects/jonathan-greenaway-Y4hGgeiFn3s-unsplash.jpg,0,0,655,1,unchosen,43,0,objects,outdoor_scenes,1400,0,10,2
115,40201,0,116,2,2,1,gain3,no_gain6,C,B,27,16,body_parts,70,68,faces,Stimuli/Experimental_stims/body_parts/heike-mintel-i_Gns0ELnLw-unsplash.jpg,Stimuli/Experimental_stims/faces/freddy-kearney-o-ioeoATbIM-unsplash.jpg,0,1,951,1,chosen,27,16,body_parts,faces,1100,0,10,2
116,40201,0,117,2,2,0,no_gain5,gain5,E,J,30,17,body_parts,64,69,faces,Stimuli/Experimental_stims/body_parts/mika-korhonen-Xodzxosar18-unsplash.jpg,Stimuli/Experimental_stims/faces/good-faces-xmSWVeGEnJw-unsplash.jpg,0,0,980,1,chosen,17,30,faces,body_parts,1600,0,10,2
117,40201,0,118,2,2,1,gain3,no_gain4,C,I,5,3,outdoor_scenes,66,72,outdoor_scenes,Stimuli/Experimental_stims/outdoor_scenes/jeff-king-bJHWJeiHfHc-unsplash.jpg,Stimuli/Experimental_stims/outdoor_scenes/henry-be-NLF6hTe4PAg-unsplash.jpg,0,1,805,1,unchosen,5,3,outdoor_scenes,outdoor_scenes,1300,0,10,2
118,40201,0,119,2,2,1,gain4,no_gain1,K,L,34,14,body_parts,46,70,faces,Stimuli/Experimental_stims/body_parts/wagner-santos-mBWMvIuVnso-unsplash.jpg,Stimuli/Experimental_stims/faces/david-siglin-UuW4psOb388-unsplash.jpg,0,0,802,0,chosen,14,34,faces,body_parts,2500,0,10,2
119,40201,0,120,2,2,0,no_gain4,gain2,I,F,3,12,outdoor_scenes,72,73,faces,Stimuli/Experimental_stims/outdoor_scenes/henry-be-NLF6hTe4PAg-unsplash.jpg,Stimuli/Experimental_stims/faces/aiony-haust-jmATI5Q_YgY-unsplash.jpg,0,1,751,0,unchosen,3,12,outdoor_scenes,faces,4300,1,10,2
120,40201,0,121,2,2,0,no_gain3,gain4,H,K,23,34,faces,87,46,body_parts,Stimuli/Experimental_stims/faces/rikonavt-HQjfrvdTfak-unsplash.jpg,Stimuli/Experimental_stims/body_parts/wagner-santos-mBWMvIuVnso-unsplash.jpg,0,1,1267,0,chosen,23,34,faces,body_parts,2400,0,10,2
121,40201,0,122,2,2,1,gain1,no_gain4,D,I,42,3,objects,66,72,outdoor_scenes,Stimuli/Experimental_stims/objects/jess-bailey-nOeVi8DsN8U-unsplash.jpg,Stimuli/Experimental_stims/outdoor_scenes/henry-be-NLF6hTe4PAg-unsplash.jpg,0,0,1470,0,unchosen,3,42,outdoor_scenes,objects,1800,0,10,2
122,40201,0,123,2,2,1,gain6,no_gain3,A,H,1,23,outdoor_scenes,61,87,faces,Stimuli/Experimental_stims/outdoor_scenes/ashim-d-silva-S2Q5mdOrrVc-unsplash.jpg,Stimuli/Experimental_stims/faces/rikonavt-HQjfrvdTfak-unsplash.jpg,0,1,888,1,chosen,1,23,outdoor_scenes,faces,1000,0,10,2
123,40201,0,124,2,2,1,gain5,no_gain1,J,L,43,32,objects,60,66,body_parts,Stimuli/Experimental_stims/objects/jonathan-greenaway-Y4hGgeiFn3s-unsplash.jpg,Stimuli/Experimental_stims/body_parts/towfiqu-barbhuiya-3AsiVDsZnHg-unsplash.jpg,0,0,1235,0,unchosen,32,43,body_parts,objects,2000,0,10,2
124,40201,0,125,2,2,1,gain3,no_gain2,C,G,5,36,outdoor_scenes,66,74,objects,Stimuli/Experimental_stims/outdoor_scenes/jeff-king-bJHWJeiHfHc-unsplash.jpg,Stimuli/Experimental_stims/objects/alexander-andrews-JYGnB9gTCls-unsplash.jpg,0,1,1004,1,unchosen,5,36,outdoor_scenes,objects,2700,0,10,2
125,40201,0,126,2,2,0,no_gain2,gain2,G,F,36,12,objects,74,73,faces,Stimuli/Experimental_stims/objects/alexander-andrews-JYGnB9gTCls-unsplash.jpg,Stimuli/Experimental_stims/faces/aiony-haust-jmATI5Q_YgY-unsplash.jpg,0,1,846,0,unchosen,36,12,objects,faces,2500,0,10,2
126,40201,0,127,2,2,0,no_gain4,gain1,I,D,28,15,body_parts,85,67,faces,Stimuli/Experimental_stims/body_parts/ira-vishnevskaya-8DQAvdCby1I-unsplash.jpg,Stimuli/Experimental_stims/faces/erik-lucatero-d2MSDujJl2g-unsplash.jpg,0,1,959,0,chosen,28,15,body_parts,faces,1800,0,10,2
127,40201,0,128,2,2,1,gain4,no_gain6,K,B,39,11,objects,78,86,outdoor_scenes,Stimuli/Experimental_stims/objects/charlesdeluvio-1-nx1QR5dTE-unsplash.jpg,Stimuli/Experimental_stims/outdoor_scenes/stephen-leonardi-gyIRjKPXupE-unsplash.jpg,0,0,1057,0,unchosen,11,39,outdoor_scenes,objects,1200,0,10,2
128,40201,0,129,2,2,0,no_gain1,gain2,L,F,32,12,body_parts,66,73,faces,Stimuli/Experimental_stims/body_parts/towfiqu-barbhuiya-3AsiVDsZnHg-unsplash.jpg,Stimuli/Experimental_stims/faces/aiony-haust-jmATI5Q_YgY-unsplash.jpg,0,1,1435,0,unchosen,32,12,body_parts,faces,3800,1,10,2
129,40201,0,130,2,2,1,gain1,no_gain6,D,B,15,16,faces,67,68,faces,Stimuli/Experimental_stims/faces/erik-lucatero-d2MSDujJl2g-unsplash.jpg,Stimuli/Experimental_stims/faces/freddy-kearney-o-ioeoATbIM-unsplash.jpg,0,1,554,1,chosen,15,16,faces,faces,1300,0,10,2
130,40201,0,131,2,2,1,gain6,no_gain4,A,I,44,3,objects,75,72,outdoor_scenes,Stimuli/Experimental_stims/objects/kuiye-chen-NuOGFo4PudE-unsplash.jpg,Stimuli/Experimental_stims/outdoor_scenes/henry-be-NLF6hTe4PAg-unsplash.jpg,0,1,1034,1,unchosen,44,3,objects,outdoor_scenes,2900,0,10,2
131,40201,0,132,2,2,0,no_gain5,gain2,E,F,30,26,body_parts,64,69,body_parts,Stimuli/Experimental_stims/body_parts/mika-korhonen-Xodzxosar18-unsplash.jpg,Stimuli/Experimental_stims/body_parts/engin-akyurt-x_3gyC42btc-unsplash.jpg,0,1,716,0,chosen,30,26,body_parts,body_parts,1200,0,10,2
132,40201,0,133,2,2,0,no_gain5,gain6,E,A,30,1,body_parts,64,61,outdoor_scenes,Stimuli/Experimental_stims/body_parts/mika-korhonen-Xodzxosar18-unsplash.jpg,Stimuli/Experimental_stims/outdoor_scenes/ashim-d-silva-S2Q5mdOrrVc-unsplash.jpg,1,NaN,,NaN,chosen,NaN,NaN,NaN,NaN,1300,0,10,2
133,40201,0,134,2,2,0,no_gain2,gain6,G,A,36,44,objects,74,75,objects,Stimuli/Experimental_stims/objects/alexander-andrews-JYGnB9gTCls-unsplash.jpg,Stimuli/Experimental_stims/objects/kuiye-chen-NuOGFo4PudE-unsplash.jpg,0,0,1229,1,unchosen,44,36,objects,objects,2500,0,10,2
134,40201,0,135,2,2,1,gain5,no_gain3,J,H,17,23,faces,69,87,faces,Stimuli/Experimental_stims/faces/good-faces-xmSWVeGEnJw-unsplash.jpg,Stimuli/Experimental_stims/faces/rikonavt-HQjfrvdTfak-unsplash.jpg,0,0,1295,0,chosen,23,17,faces,faces,3000,0,10,2
135,40201,0,136,2,2,1,gain4,no_gain5,K,E,34,30,body_parts,46,64,body_parts,Stimuli/Experimental_stims/body_parts/wagner-santos-mBWMvIuVnso-unsplash.jpg,Stimuli/Experimental_stims/body_parts/mika-korhonen-Xodzxosar18-unsplash.jpg,1,NaN,,NaN,chosen,NaN,NaN,NaN,NaN,4200,1,10,2
136,40201,0,137,2,2,0,no_gain6,gain6,B,A,11,44,outdoor_scenes,86,75,objects,Stimuli/Experimental_stims/outdoor_scenes/stephen-leonardi-gyIRjKPXupE-unsplash.jpg,Stimuli/Experimental_stims/objects/kuiye-chen-NuOGFo4PudE-unsplash.jpg,0,1,144,0,unchosen,11,44,outdoor_scenes,objects,1700,0,10,2
137,40201,0,138,2,2,0,no_gain3,gain1,H,D,23,15,faces,87,67,faces,Stimuli/Experimental_stims/faces/rikonavt-HQjfrvdTfak-unsplash.jpg,Stimuli/Experimental_stims/faces/erik-lucatero-d2MSDujJl2g-unsplash.jpg,0,0,34,1,chosen,15,23,faces,faces,1300,0,10,2
138,40201,0,139,2,2,0,no_gain2,gain1,G,D,8,15,outdoor_scenes,61,67,faces,Stimuli/Experimental_stims/outdoor_scenes/samsommer-vddccTqwal8-unsplash.jpg,Stimuli/Experimental_stims/faces/erik-lucatero-d2MSDujJl2g-unsplash.jpg,0,1,25,0,chosen,8,15,outdoor_scenes,faces,1100,0,10,2
139,40201,0,140,2,2,0,no_gain2,gain6,G,A,8,1,outdoor_scenes,61,61,outdoor_scenes,Stimuli/Experimental_stims/outdoor_scenes/samsommer-vddccTqwal8-unsplash.jpg,Stimuli/Experimental_stims/outdoor_scenes/ashim-d-silva-S2Q5mdOrrVc-unsplash.jpg,0,0,73,1,chosen,1,8,outdoor_scenes,outdoor_scenes,1300,0,10,2
140,40201,0,141,2,2,1,gain5,no_gain4,J,I,43,3,objects,60,72,outdoor_scenes,Stimuli/Experimental_stims/objects/jonathan-greenaway-Y4hGgeiFn3s-unsplash.jpg,Stimuli/Experimental_stims/outdoor_scenes/henry-be-NLF6hTe4PAg-unsplash.jpg,0,0,228,0,unchosen,3,43,outdoor_scenes,objects,1500,0,10,2
141,40201,0,142,2,2,0,no_gain5,gain1,E,D,30,15,body_parts,64,67,faces,Stimuli/Experimental_stims/body_parts/mika-korhonen-Xodzxosar18-unsplash.jpg,Stimuli/Experimental_stims/faces/erik-lucatero-d2MSDujJl2g-unsplash.jpg,0,0,181,1,chosen,15,30,faces,body_parts,1800,0,10,2
142,40201,0,143,2,2,0,no_gain1,gain4,L,K,32,39,body_parts,66,78,objects,Stimuli/Experimental_stims/body_parts/towfiqu-barbhuiya-3AsiVDsZnHg-unsplash.jpg,Stimuli/Experimental_stims/objects/charlesdeluvio-1-nx1QR5dTE-unsplash.jpg,0,0,78,1,unchosen,39,32,objects,body_parts,1400,0,10,2
143,40201,0,144,2,2,1,gain3,no_gain5,C,E,5,38,outdoor_scenes,66,70,objects,Stimuli/Experimental_stims/outdoor_scenes/jeff-king-bJHWJeiHfHc-unsplash.jpg,Stimuli/Experimental_stims/objects/art-lasovsky-8XddFc6NkBY-unsplash.jpg,0,0,91,0,unchosen,38,5,objects,outdoor_scenes,1400,0,10,2
144,40201,0,145,2,2,0,no_gain4,gain3,I,C,28,27,body_parts,85,70,body_parts,Stimuli/Experimental_stims/body_parts/ira-vishnevskaya-8DQAvdCby1I-unsplash.jpg,Stimuli/Experimental_stims/body_parts/heike-mintel-i_Gns0ELnLw-unsplash.jpg,0,0,119,1,chosen,27,28,body_parts,body_parts,1600,0,10,2
145,40201,0,146,2,2,1,gain1,no_gain3,D,H,42,0,objects,66,82,outdoor_scenes,Stimuli/Experimental_stims/objects/jess-bailey-nOeVi8DsN8U-unsplash.jpg,Stimuli/Experimental_stims/outdoor_scenes/aleksandra-boguslawska-MS7KD9Ti7FQ-unsplash.jpg,0,0,27,0,unchosen,0,42,outdoor_scenes,objects,2000,0,10,2
146,40201,0,147,2,2,0,no_gain1,gain1,L,D,32,42,body_parts,66,66,objects,Stimuli/Experimental_stims/body_parts/towfiqu-barbhuiya-3AsiVDsZnHg-unsplash.jpg,Stimuli/Experimental_stims/objects/jess-bailey-nOeVi8DsN8U-unsplash.jpg,0,0,3,1,unchosen,42,32,objects,body_parts,2500,0,10,2
147,40201,0,148,2,2,1,gain2,no_gain3,F,H,26,23,body_parts,69,87,faces,Stimuli/Experimental_stims/body_parts/engin-akyurt-x_3gyC42btc-unsplash.jpg,Stimuli/Experimental_stims/faces/rikonavt-HQjfrvdTfak-unsplash.jpg,0,1,229,1,chosen,26,23,body_parts,faces,3300,1,10,2
148,40201,0,149,3,3,0,no_gain1,gain2,L,F,32,12,body_parts,66,73,faces,Stimuli/Experimental_stims/body_parts/towfiqu-barbhuiya-3AsiVDsZnHg-unsplash.jpg,Stimuli/Experimental_stims/faces/aiony-haust-jmATI5Q_YgY-unsplash.jpg,1,NaN,,NaN,unchosen,NaN,NaN,NaN,NaN,2200,0,10,2
149,40201,0,150,3,3,1,gain2,no_gain4,F,I,12,3,faces,73,72,outdoor_scenes,Stimuli/Experimental_stims/faces/aiony-haust-jmATI5Q_YgY-unsplash.jpg,Stimuli/Experimental_stims/outdoor_scenes/henry-be-NLF6hTe4PAg-unsplash.jpg,0,1,48,1,unchosen,12,3,faces,outdoor_scenes,1200,0,10,2
150,40201,0,151,3,3,0,no_gain5,gain1,E,D,38,42,objects,70,66,objects,Stimuli/Experimental_stims/objects/art-lasovsky-8XddFc6NkBY-unsplash.jpg,Stimuli/Experimental_stims/objects/jess-bailey-nOeVi8DsN8U-unsplash.jpg,0,0,165,1,unchosen,42,38,objects,objects,1700,0,10,2
151,40201,0,152,3,3,0,no_gain6,gain4,B,K,16,34,faces,68,46,body_parts,Stimuli/Experimental_stims/faces/freddy-kearney-o-ioeoATbIM-unsplash.jpg,Stimuli/Experimental_stims/body_parts/wagner-santos-mBWMvIuVnso-unsplash.jpg,0,0,224,1,chosen,34,16,body_parts,faces,1100,0,10,2
152,40201,0,153,3,3,0,no_gain1,gain3,L,C,14,27,faces,70,70,body_parts,Stimuli/Experimental_stims/faces/david-siglin-UuW4psOb388-unsplash.jpg,Stimuli/Experimental_stims/body_parts/heike-mintel-i_Gns0ELnLw-unsplash.jpg,0,0,212,1,chosen,27,14,body_parts,faces,1000,0,10,2
153,40201,0,154,3,3,1,gain4,no_gain3,K,H,39,0,objects,78,82,outdoor_scenes,Stimuli/Experimental_stims/objects/charlesdeluvio-1-nx1QR5dTE-unsplash.jpg,Stimuli/Experimental_stims/outdoor_scenes/aleksandra-boguslawska-MS7KD9Ti7FQ-unsplash.jpg,0,0,149,0,unchosen,0,39,outdoor_scenes,objects,1900,0,10,2
154,40201,0,155,3,3,1,gain3,no_gain3,C,H,5,0,outdoor_scenes,66,82,outdoor_scenes,Stimuli/Experimental_stims/outdoor_scenes/jeff-king-bJHWJeiHfHc-unsplash.jpg,Stimuli/Experimental_stims/outdoor_scenes/aleksandra-boguslawska-MS7KD9Ti7FQ-unsplash.jpg,0,0,165,0,unchosen,0,5,outdoor_scenes,outdoor_scenes,4700,1,10,2
155,40201,0,156,3,3,1,gain5,no_gain5,J,E,17,30,faces,69,64,body_parts,Stimuli/Experimental_stims/faces/good-faces-xmSWVeGEnJw-unsplash.jpg,Stimuli/Experimental_stims/body_parts/mika-korhonen-Xodzxosar18-unsplash.jpg,0,0,131,0,chosen,30,17,body_parts,faces,2400,0,10,2
156,40201,0,157,3,3,1,gain6,no_gain3,A,H,44,0,objects,75,82,outdoor_scenes,Stimuli/Experimental_stims/objects/kuiye-chen-NuOGFo4PudE-unsplash.jpg,Stimuli/Experimental_stims/outdoor_scenes/aleksandra-boguslawska-MS7KD9Ti7FQ-unsplash.jpg,0,0,103,0,unchosen,0,44,outdoor_scenes,objects,1900,0,10,2
157,40201,0,158,3,3,1,gain1,no_gain4,D,I,15,28,faces,67,85,body_parts,Stimuli/Experimental_stims/faces/erik-lucatero-d2MSDujJl2g-unsplash.jpg,Stimuli/Experimental_stims/body_parts/ira-vishnevskaya-8DQAvdCby1I-unsplash.jpg,0,0,51,0,chosen,28,15,body_parts,faces,1000,0,10,2
158,40201,0,159,3,3,0,no_gain2,gain6,G,A,8,1,outdoor_scenes,61,61,outdoor_scenes,Stimuli/Experimental_stims/outdoor_scenes/samsommer-vddccTqwal8-unsplash.jpg,Stimuli/Experimental_stims/outdoor_scenes/ashim-d-silva-S2Q5mdOrrVc-unsplash.jpg,0,0,28,1,chosen,1,8,outdoor_scenes,outdoor_scenes,1800,0,10,2
159,40201,0,160,3,3,1,gain4,no_gain4,K,I,39,3,objects,78,72,outdoor_scenes,Stimuli/Experimental_stims/objects/charlesdeluvio-1-nx1QR5dTE-unsplash.jpg,Stimuli/Experimental_stims/outdoor_scenes/henry-be-NLF6hTe4PAg-unsplash.jpg,0,0,163,0,unchosen,3,39,outdoor_scenes,objects,1800,0,10,2
160,40201,0,161,3,3,0,no_gain4,gain3,I,C,3,5,outdoor_scenes,72,66,outdoor_scenes,Stimuli/Experimental_stims/outdoor_scenes/henry-be-NLF6hTe4PAg-unsplash.jpg,Stimuli/Experimental_stims/outdoor_scenes/jeff-king-bJHWJeiHfHc-unsplash.jpg,0,0,40,1,unchosen,5,3,outdoor_scenes,outdoor_scenes,4700,1,10,2
161,40201,0,162,3,3,0,no_gain1,gain4,L,K,32,39,body_parts,66,78,objects,Stimuli/Experimental_stims/body_parts/towfiqu-barbhuiya-3AsiVDsZnHg-unsplash.jpg,Stimuli/Experimental_stims/objects/charlesdeluvio-1-nx1QR5dTE-unsplash.jpg,0,0,186,1,unchosen,39,32,objects,body_parts,1300,0,10,2
162,40201,0,163,3,3,1,gain2,no_gain5,F,E,26,30,body_parts,69,64,body_parts,Stimuli/Experimental_stims/body_parts/engin-akyurt-x_3gyC42btc-unsplash.jpg,Stimuli/Experimental_stims/body_parts/mika-korhonen-Xodzxosar18-unsplash.jpg,0,0,94,0,chosen,30,26,body_parts,body_parts,1200,0,10,2
163,40201,0,164,3,3,0,no_gain3,gain4,H,K,23,34,faces,87,46,body_parts,Stimuli/Experimental_stims/faces/rikonavt-HQjfrvdTfak-unsplash.jpg,Stimuli/Experimental_stims/body_parts/wagner-santos-mBWMvIuVnso-unsplash.jpg,0,1,343,0,chosen,23,34,faces,body_parts,1600,0,10,2
164,40201,0,165,3,3,0,no_gain2,gain5,G,J,36,43,objects,74,60,objects,Stimuli/Experimental_stims/objects/alexander-andrews-JYGnB9gTCls-unsplash.jpg,Stimuli/Experimental_stims/objects/jonathan-greenaway-Y4hGgeiFn3s-unsplash.jpg,0,0,179,1,unchosen,43,36,objects,objects,1200,0,10,2
165,40201,0,166,3,3,1,gain6,no_gain5,A,E,44,38,objects,75,70,objects,Stimuli/Experimental_stims/objects/kuiye-chen-NuOGFo4PudE-unsplash.jpg,Stimuli/Experimental_stims/objects/art-lasovsky-8XddFc6NkBY-unsplash.jpg,0,0,1,0,unchosen,38,44,objects,objects,1100,0,10,2
166,40201,0,167,3,3,0,no_gain6,gain3,B,C,16,27,faces,68,70,body_parts,Stimuli/Experimental_stims/faces/freddy-kearney-o-ioeoATbIM-unsplash.jpg,Stimuli/Experimental_stims/body_parts/heike-mintel-i_Gns0ELnLw-unsplash.jpg,0,1,76,0,chosen,16,27,faces,body_parts,3100,1,10,2
167,40201,0,168,3,3,0,no_gain5,gain3,E,C,38,5,objects,70,66,outdoor_scenes,Stimuli/Experimental_stims/objects/art-lasovsky-8XddFc6NkBY-unsplash.jpg,Stimuli/Experimental_stims/outdoor_scenes/jeff-king-bJHWJeiHfHc-unsplash.jpg,0,0,30,1,unchosen,5,38,outdoor_scenes,objects,1500,0,10,2
168,40201,0,169,3,3,0,no_gain4,gain3,I,C,28,27,body_parts,85,70,body_parts,Stimuli/Experimental_stims/body_parts/ira-vishnevskaya-8DQAvdCby1I-unsplash.jpg,Stimuli/Experimental_stims/body_parts/heike-mintel-i_Gns0ELnLw-unsplash.jpg,0,1,29,0,chosen,28,27,body_parts,body_parts,1000,0,10,2
169,40201,0,170,3,3,0,no_gain5,gain2,E,F,38,12,objects,70,73,faces,Stimuli/Experimental_stims/objects/art-lasovsky-8XddFc6NkBY-unsplash.jpg,Stimuli/Experimental_stims/faces/aiony-haust-jmATI5Q_YgY-unsplash.jpg,0,1,20,0,unchosen,38,12,objects,faces,1500,0,10,2
170,40201,0,171,3,3,0,no_gain3,gain2,H,F,23,26,faces,87,69,body_parts,Stimuli/Experimental_stims/faces/rikonavt-HQjfrvdTfak-unsplash.jpg,Stimuli/Experimental_stims/body_parts/engin-akyurt-x_3gyC42btc-unsplash.jpg,0,1,1,0,chosen,23,26,faces,body_parts,1400,0,10,2
171,40201,0,172,3,3,1,gain1,no_gain2,D,G,15,8,faces,67,61,outdoor_scenes,Stimuli/Experimental_stims/faces/erik-lucatero-d2MSDujJl2g-unsplash.jpg,Stimuli/Experimental_stims/outdoor_scenes/samsommer-vddccTqwal8-unsplash.jpg,0,1,201,1,chosen,15,8,faces,outdoor_scenes,3500,1,10,2
172,40201,0,173,3,3,0,no_gain4,gain2,I,F,28,26,body_parts,85,69,body_parts,Stimuli/Experimental_stims/body_parts/ira-vishnevskaya-8DQAvdCby1I-unsplash.jpg,Stimuli/Experimental_stims/body_parts/engin-akyurt-x_3gyC42btc-unsplash.jpg,0,1,43,0,chosen,28,26,body_parts,body_parts,1600,0,10,2
173,40201,0,174,3,3,0,no_gain4,gain5,I,J,3,43,outdoor_scenes,72,60,objects,Stimuli/Experimental_stims/outdoor_scenes/henry-be-NLF6hTe4PAg-unsplash.jpg,Stimuli/Experimental_stims/objects/jonathan-greenaway-Y4hGgeiFn3s-unsplash.jpg,0,1,172,0,unchosen,3,43,outdoor_scenes,objects,2200,0,10,2
174,40201,0,175,3,3,0,no_gain3,gain2,H,F,0,12,outdoor_scenes,82,73,faces,Stimuli/Experimental_stims/outdoor_scenes/aleksandra-boguslawska-MS7KD9Ti7FQ-unsplash.jpg,Stimuli/Experimental_stims/faces/aiony-haust-jmATI5Q_YgY-unsplash.jpg,0,1,3,0,unchosen,0,12,outdoor_scenes,faces,1200,0,10,2
175,40201,0,176,3,3,1,gain2,no_gain2,F,G,12,36,faces,73,74,objects,Stimuli/Experimental_stims/faces/aiony-haust-jmATI5Q_YgY-unsplash.jpg,Stimuli/Experimental_stims/objects/alexander-andrews-JYGnB9gTCls-unsplash.jpg,0,0,103,0,unchosen,36,12,objects,faces,1900,0,10,2
176,40201,0,177,3,3,0,no_gain6,gain5,B,J,16,17,faces,68,69,faces,Stimuli/Experimental_stims/faces/freddy-kearney-o-ioeoATbIM-unsplash.jpg,Stimuli/Experimental_stims/faces/good-faces-xmSWVeGEnJw-unsplash.jpg,0,1,156,0,chosen,16,17,faces,faces,2000,0,10,2
177,40201,0,178,3,3,1,gain6,no_gain1,A,L,1,14,outdoor_scenes,61,70,faces,Stimuli/Experimental_stims/outdoor_scenes/ashim-d-silva-S2Q5mdOrrVc-unsplash.jpg,Stimuli/Experimental_stims/faces/david-siglin-UuW4psOb388-unsplash.jpg,0,0,115,0,chosen,14,1,faces,outdoor_scenes,1800,0,10,2
178,40201,0,179,3,3,0,no_gain1,gain2,L,F,14,26,faces,70,69,body_parts,Stimuli/Experimental_stims/faces/david-siglin-UuW4psOb388-unsplash.jpg,Stimuli/Experimental_stims/body_parts/engin-akyurt-x_3gyC42btc-unsplash.jpg,0,1,205,0,chosen,14,26,faces,body_parts,2200,0,10,2
179,40201,0,180,3,3,0,no_gain2,gain3,G,C,36,5,objects,74,66,outdoor_scenes,Stimuli/Experimental_stims/objects/alexander-andrews-JYGnB9gTCls-unsplash.jpg,Stimuli/Experimental_stims/outdoor_scenes/jeff-king-bJHWJeiHfHc-unsplash.jpg,0,0,154,1,unchosen,5,36,outdoor_scenes,objects,2300,0,10,2
180,40201,0,181,3,3,1,gain6,no_gain3,A,H,1,23,outdoor_scenes,61,87,faces,Stimuli/Experimental_stims/outdoor_scenes/ashim-d-silva-S2Q5mdOrrVc-unsplash.jpg,Stimuli/Experimental_stims/faces/rikonavt-HQjfrvdTfak-unsplash.jpg,0,0,81,0,chosen,23,1,faces,outdoor_scenes,4300,1,10,2
181,40201,0,182,3,3,1,gain5,no_gain3,J,H,17,23,faces,69,87,faces,Stimuli/Experimental_stims/faces/good-faces-xmSWVeGEnJw-unsplash.jpg,Stimuli/Experimental_stims/faces/rikonavt-HQjfrvdTfak-unsplash.jpg,0,0,255,0,chosen,23,17,faces,faces,1600,0,10,2
182,40201,0,183,3,3,0,no_gain2,gain4,G,K,36,39,objects,74,78,objects,Stimuli/Experimental_stims/objects/alexander-andrews-JYGnB9gTCls-unsplash.jpg,Stimuli/Experimental_stims/objects/charlesdeluvio-1-nx1QR5dTE-unsplash.jpg,0,0,6,1,unchosen,39,36,objects,objects,1600,0,10,2
183,40201,0,184,3,3,1,gain3,no_gain1,C,L,5,32,outdoor_scenes,66,66,body_parts,Stimuli/Experimental_stims/outdoor_scenes/jeff-king-bJHWJeiHfHc-unsplash.jpg,Stimuli/Experimental_stims/body_parts/towfiqu-barbhuiya-3AsiVDsZnHg-unsplash.jpg,0,0,91,0,unchosen,32,5,body_parts,outdoor_scenes,1100,0,10,2
184,40201,0,185,3,3,1,gain6,no_gain6,A,B,1,16,outdoor_scenes,61,68,faces,Stimuli/Experimental_stims/outdoor_scenes/ashim-d-silva-S2Q5mdOrrVc-unsplash.jpg,Stimuli/Experimental_stims/faces/freddy-kearney-o-ioeoATbIM-unsplash.jpg,0,0,43,0,chosen,16,1,faces,outdoor_scenes,1000,0,10,2
185,40201,0,186,3,3,0,no_gain1,gain5,L,J,14,17,faces,70,69,faces,Stimuli/Experimental_stims/faces/david-siglin-UuW4psOb388-unsplash.jpg,Stimuli/Experimental_stims/faces/good-faces-xmSWVeGEnJw-unsplash.jpg,0,0,155,1,chosen,17,14,faces,faces,1000,0,10,2
186,40201,0,187,3,3,0,no_gain1,gain5,L,J,32,43,body_parts,66,60,objects,Stimuli/Experimental_stims/body_parts/towfiqu-barbhuiya-3AsiVDsZnHg-unsplash.jpg,Stimuli/Experimental_stims/objects/jonathan-greenaway-Y4hGgeiFn3s-unsplash.jpg,0,0,86,1,unchosen,43,32,objects,body_parts,3000,1,10,2
187,40201,0,188,3,3,1,gain4,no_gain1,K,L,34,14,body_parts,46,70,faces,Stimuli/Experimental_stims/body_parts/wagner-santos-mBWMvIuVnso-unsplash.jpg,Stimuli/Experimental_stims/faces/david-siglin-UuW4psOb388-unsplash.jpg,0,0,155,0,chosen,14,34,faces,body_parts,1000,0,10,2
188,40201,0,189,3,3,1,gain3,no_gain3,C,H,27,23,body_parts,70,87,faces,Stimuli/Experimental_stims/body_parts/heike-mintel-i_Gns0ELnLw-unsplash.jpg,Stimuli/Experimental_stims/faces/rikonavt-HQjfrvdTfak-unsplash.jpg,0,1,184,1,chosen,27,23,body_parts,faces,1600,0,10,2
189,40201,0,190,3,3,0,no_gain2,gain5,G,J,8,17,outdoor_scenes,61,69,faces,Stimuli/Experimental_stims/outdoor_scenes/samsommer-vddccTqwal8-unsplash.jpg,Stimuli/Experimental_stims/faces/good-faces-xmSWVeGEnJw-unsplash.jpg,0,1,95,0,chosen,8,17,outdoor_scenes,faces,1500,0,10,2
190,40201,0,191,3,3,0,no_gain1,gain6,L,A,32,44,body_parts,66,75,objects,Stimuli/Experimental_stims/body_parts/towfiqu-barbhuiya-3AsiVDsZnHg-unsplash.jpg,Stimuli/Experimental_stims/objects/kuiye-chen-NuOGFo4PudE-unsplash.jpg,0,1,23,0,unchosen,32,44,body_parts,objects,1700,0,10,2
191,40201,0,192,3,3,1,gain5,no_gain6,J,B,43,11,objects,60,86,outdoor_scenes,Stimuli/Experimental_stims/objects/jonathan-greenaway-Y4hGgeiFn3s-unsplash.jpg,Stimuli/Experimental_stims/outdoor_scenes/stephen-leonardi-gyIRjKPXupE-unsplash.jpg,0,0,2,0,unchosen,11,43,outdoor_scenes,objects,1300,0,10,2
192,40201,0,193,3,3,0,no_gain5,gain4,E,K,38,39,objects,70,78,objects,Stimuli/Experimental_stims/objects/art-lasovsky-8XddFc6NkBY-unsplash.jpg,Stimuli/Experimental_stims/objects/charlesdeluvio-1-nx1QR5dTE-unsplash.jpg,0,1,13,0,unchosen,38,39,objects,objects,1300,0,10,2
193,40201,0,194,3,3,1,gain1,no_gain5,D,E,15,30,faces,67,64,body_parts,Stimuli/Experimental_stims/faces/erik-lucatero-d2MSDujJl2g-unsplash.jpg,Stimuli/Experimental_stims/body_parts/mika-korhonen-Xodzxosar18-unsplash.jpg,0,1,228,1,chosen,15,30,faces,body_parts,3600,1,10,2
194,40201,0,195,3,3,1,gain6,no_gain4,A,I,44,3,objects,75,72,outdoor_scenes,Stimuli/Experimental_stims/objects/kuiye-chen-NuOGFo4PudE-unsplash.jpg,Stimuli/Experimental_stims/outdoor_scenes/henry-be-NLF6hTe4PAg-unsplash.jpg,0,0,100,0,unchosen,3,44,outdoor_scenes,objects,2100,0,10,2
195,40201,0,196,3,3,1,gain1,no_gain1,D,L,15,14,faces,67,70,faces,Stimuli/Experimental_stims/faces/erik-lucatero-d2MSDujJl2g-unsplash.jpg,Stimuli/Experimental_stims/faces/david-siglin-UuW4psOb388-unsplash.jpg,0,0,18,0,chosen,14,15,faces,faces,1600,0,10,2
196,40201,0,197,3,3,1,gain4,no_gain6,K,B,39,11,objects,78,86,outdoor_scenes,Stimuli/Experimental_stims/objects/charlesdeluvio-1-nx1QR5dTE-unsplash.jpg,Stimuli/Experimental_stims/outdoor_scenes/stephen-leonardi-gyIRjKPXupE-unsplash.jpg,0,0,148,0,unchosen,11,39,outdoor_scenes,objects,1800,0,10,2
197,40201,0,198,3,3,1,gain3,no_gain6,C,B,5,11,outdoor_scenes,66,86,outdoor_scenes,Stimuli/Experimental_stims/outdoor_scenes/jeff-king-bJHWJeiHfHc-unsplash.jpg,Stimuli/Experimental_stims/outdoor_scenes/stephen-leonardi-gyIRjKPXupE-unsplash.jpg,0,1,59,1,unchosen,5,11,outdoor_scenes,outdoor_scenes,1600,0,10,2
198,40201,0,199,3,3,1,gain1,no_gain3,D,H,15,23,faces,67,87,faces,Stimuli/Experimental_stims/faces/erik-lucatero-d2MSDujJl2g-unsplash.jpg,Stimuli/Experimental_stims/faces/rikonavt-HQjfrvdTfak-unsplash.jpg,0,1,106,1,chosen,15,23,faces,faces,3100,1,10,2
199,40201,0,200,3,3,0,no_gain5,gain4,E,K,30,34,body_parts,64,46,body_parts,Stimuli/Experimental_stims/body_parts/mika-korhonen-Xodzxosar18-unsplash.jpg,Stimuli/Experimental_stims/body_parts/wagner-santos-mBWMvIuVnso-unsplash.jpg,0,0,107,1,chosen,34,30,body_parts,body_parts,2500,0,10,2
200,40201,0,201,3,3,0,no_gain1,gain1,L,D,32,42,body_parts,66,66,objects,Stimuli/Experimental_stims/body_parts/towfiqu-barbhuiya-3AsiVDsZnHg-unsplash.jpg,Stimuli/Experimental_stims/objects/jess-bailey-nOeVi8DsN8U-unsplash.jpg,0,0,2,1,unchosen,42,32,objects,body_parts,2000,0,10,2
201,40201,0,202,3,3,0,no_gain4,gain4,I,K,28,34,body_parts,85,46,body_parts,Stimuli/Experimental_stims/body_parts/ira-vishnevskaya-8DQAvdCby1I-unsplash.jpg,Stimuli/Experimental_stims/body_parts/wagner-santos-mBWMvIuVnso-unsplash.jpg,1,NaN,,NaN,chosen,NaN,NaN,NaN,NaN,2100,0,10,2
202,40201,0,203,3,3,1,gain3,no_gain5,C,E,27,30,body_parts,70,64,body_parts,Stimuli/Experimental_stims/body_parts/heike-mintel-i_Gns0ELnLw-unsplash.jpg,Stimuli/Experimental_stims/body_parts/mika-korhonen-Xodzxosar18-unsplash.jpg,0,0,229,0,chosen,30,27,body_parts,body_parts,1200,0,10,2
203,40201,0,204,3,3,1,gain1,no_gain6,D,B,42,11,objects,66,86,outdoor_scenes,Stimuli/Experimental_stims/objects/jess-bailey-nOeVi8DsN8U-unsplash.jpg,Stimuli/Experimental_stims/outdoor_scenes/stephen-leonardi-gyIRjKPXupE-unsplash.jpg,0,0,190,0,unchosen,11,42,outdoor_scenes,objects,3300,1,10,2
204,40201,0,205,3,3,1,gain3,no_gain2,C,G,27,8,body_parts,70,61,outdoor_scenes,Stimuli/Experimental_stims/body_parts/heike-mintel-i_Gns0ELnLw-unsplash.jpg,Stimuli/Experimental_stims/outdoor_scenes/samsommer-vddccTqwal8-unsplash.jpg,0,0,116,0,chosen,8,27,outdoor_scenes,body_parts,2100,0,10,2
205,40201,0,206,3,3,0,no_gain4,gain5,I,J,28,17,body_parts,85,69,faces,Stimuli/Experimental_stims/body_parts/ira-vishnevskaya-8DQAvdCby1I-unsplash.jpg,Stimuli/Experimental_stims/faces/good-faces-xmSWVeGEnJw-unsplash.jpg,0,0,28,1,chosen,17,28,faces,body_parts,2100,0,10,2
206,40201,0,207,3,3,1,gain2,no_gain6,F,B,26,16,body_parts,69,68,faces,Stimuli/Experimental_stims/body_parts/engin-akyurt-x_3gyC42btc-unsplash.jpg,Stimuli/Experimental_stims/faces/freddy-kearney-o-ioeoATbIM-unsplash.jpg,0,0,277,0,chosen,16,26,faces,body_parts,2600,0,10,2
207,40201,0,208,3,3,1,gain1,no_gain2,D,G,42,36,objects,66,74,objects,Stimuli/Experimental_stims/objects/jess-bailey-nOeVi8DsN8U-unsplash.jpg,Stimuli/Experimental_stims/objects/alexander-andrews-JYGnB9gTCls-unsplash.jpg,0,0,41,0,unchosen,36,42,objects,objects,2800,0,10,2
208,40201,0,209,3,3,1,gain1,no_gain4,D,I,42,3,objects,66,72,outdoor_scenes,Stimuli/Experimental_stims/objects/jess-bailey-nOeVi8DsN8U-unsplash.jpg,Stimuli/Experimental_stims/outdoor_scenes/henry-be-NLF6hTe4PAg-unsplash.jpg,0,0,29,0,unchosen,3,42,outdoor_scenes,objects,2100,0,10,2
209,40201,0,210,3,3,0,no_gain6,gain1,B,D,16,15,faces,68,67,faces,Stimuli/Experimental_stims/faces/freddy-kearney-o-ioeoATbIM-unsplash.jpg,Stimuli/Experimental_stims/faces/erik-lucatero-d2MSDujJl2g-unsplash.jpg,0,1,837,0,chosen,16,15,faces,faces,1300,0,10,2
210,40201,0,211,3,3,0,no_gain5,gain6,E,A,30,1,body_parts,64,61,outdoor_scenes,Stimuli/Experimental_stims/body_parts/mika-korhonen-Xodzxosar18-unsplash.jpg,Stimuli/Experimental_stims/outdoor_scenes/ashim-d-silva-S2Q5mdOrrVc-unsplash.jpg,0,1,56,0,chosen,30,1,body_parts,outdoor_scenes,3900,1,10,2
211,40201,0,212,3,3,0,no_gain2,gain6,G,A,36,44,objects,74,75,objects,Stimuli/Experimental_stims/objects/alexander-andrews-JYGnB9gTCls-unsplash.jpg,Stimuli/Experimental_stims/objects/kuiye-chen-NuOGFo4PudE-unsplash.jpg,0,1,134,0,unchosen,36,44,objects,objects,1600,0,10,2
212,40201,0,213,3,3,1,gain4,no_gain2,K,G,34,8,body_parts,46,61,outdoor_scenes,Stimuli/Experimental_stims/body_parts/wagner-santos-mBWMvIuVnso-unsplash.jpg,Stimuli/Experimental_stims/outdoor_scenes/samsommer-vddccTqwal8-unsplash.jpg,0,0,177,0,chosen,8,34,outdoor_scenes,body_parts,1300,0,10,2
213,40201,0,214,3,3,0,no_gain3,gain5,H,J,0,43,outdoor_scenes,82,60,objects,Stimuli/Experimental_stims/outdoor_scenes/aleksandra-boguslawska-MS7KD9Ti7FQ-unsplash.jpg,Stimuli/Experimental_stims/objects/jonathan-greenaway-Y4hGgeiFn3s-unsplash.jpg,0,1,42,0,unchosen,0,43,outdoor_scenes,objects,1700,0,10,2
214,40201,0,215,3,3,1,gain2,no_gain6,F,B,12,11,faces,73,86,outdoor_scenes,Stimuli/Experimental_stims/faces/aiony-haust-jmATI5Q_YgY-unsplash.jpg,Stimuli/Experimental_stims/outdoor_scenes/stephen-leonardi-gyIRjKPXupE-unsplash.jpg,0,0,15,0,unchosen,11,12,outdoor_scenes,faces,1600,0,10,2
215,40201,0,216,3,3,0,no_gain4,gain6,I,A,28,1,body_parts,85,61,outdoor_scenes,Stimuli/Experimental_stims/body_parts/ira-vishnevskaya-8DQAvdCby1I-unsplash.jpg,Stimuli/Experimental_stims/outdoor_scenes/ashim-d-silva-S2Q5mdOrrVc-unsplash.jpg,0,1,125,0,chosen,28,1,body_parts,outdoor_scenes,3600,1,10,2
216,40201,0,217,3,3,1,gain5,no_gain5,J,E,43,38,objects,60,70,objects,Stimuli/Experimental_stims/objects/jonathan-greenaway-Y4hGgeiFn3s-unsplash.jpg,Stimuli/Experimental_stims/objects/art-lasovsky-8XddFc6NkBY-unsplash.jpg,0,1,783,1,unchosen,43,38,objects,objects,2700,0,10,2
217,40201,0,218,3,3,1,gain2,no_gain2,F,G,26,8,body_parts,69,61,outdoor_scenes,Stimuli/Experimental_stims/body_parts/engin-akyurt-x_3gyC42btc-unsplash.jpg,Stimuli/Experimental_stims/outdoor_scenes/samsommer-vddccTqwal8-unsplash.jpg,0,1,441,1,chosen,26,8,body_parts,outdoor_scenes,2800,0,10,2
218,40201,0,219,3,3,0,no_gain6,gain6,B,A,11,44,outdoor_scenes,86,75,objects,Stimuli/Experimental_stims/outdoor_scenes/stephen-leonardi-gyIRjKPXupE-unsplash.jpg,Stimuli/Experimental_stims/objects/kuiye-chen-NuOGFo4PudE-unsplash.jpg,0,1,244,0,unchosen,11,44,outdoor_scenes,objects,2800,0,10,2
219,40201,0,220,3,3,1,gain1,no_gain3,D,H,42,0,objects,66,82,outdoor_scenes,Stimuli/Experimental_stims/objects/jess-bailey-nOeVi8DsN8U-unsplash.jpg,Stimuli/Experimental_stims/outdoor_scenes/aleksandra-boguslawska-MS7KD9Ti7FQ-unsplash.jpg,0,0,112,0,unchosen,0,42,outdoor_scenes,objects,1100,0,10,2
220,40201,0,221,4,4,0,no_gain6,gain2,B,F,16,26,faces,68,69,body_parts,Stimuli/Experimental_stims/faces/freddy-kearney-o-ioeoATbIM-unsplash.jpg,Stimuli/Experimental_stims/body_parts/engin-akyurt-x_3gyC42btc-unsplash.jpg,0,1,1137,0,chosen,16,26,faces,body_parts,4200,1,9,2
221,40201,0,222,4,4,1,gain4,no_gain2,K,G,39,36,objects,78,74,objects,Stimuli/Experimental_stims/objects/charlesdeluvio-1-nx1QR5dTE-unsplash.jpg,Stimuli/Experimental_stims/objects/alexander-andrews-JYGnB9gTCls-unsplash.jpg,0,1,0,1,unchosen,39,36,objects,objects,2400,0,9,2
222,40201,0,223,4,4,1,gain2,no_gain1,F,L,26,14,body_parts,69,70,faces,Stimuli/Experimental_stims/body_parts/engin-akyurt-x_3gyC42btc-unsplash.jpg,Stimuli/Experimental_stims/faces/david-siglin-UuW4psOb388-unsplash.jpg,0,0,269,0,chosen,14,26,faces,body_parts,1200,0,9,2
223,40201,0,224,4,4,0,no_gain4,gain4,I,K,28,34,body_parts,85,46,body_parts,Stimuli/Experimental_stims/body_parts/ira-vishnevskaya-8DQAvdCby1I-unsplash.jpg,Stimuli/Experimental_stims/body_parts/wagner-santos-mBWMvIuVnso-unsplash.jpg,0,0,4,1,chosen,34,28,body_parts,body_parts,1400,0,9,2
224,40201,0,225,4,4,0,no_gain4,gain6,I,A,3,44,outdoor_scenes,72,75,objects,Stimuli/Experimental_stims/outdoor_scenes/henry-be-NLF6hTe4PAg-unsplash.jpg,Stimuli/Experimental_stims/objects/kuiye-chen-NuOGFo4PudE-unsplash.jpg,0,0,93,1,unchosen,44,3,objects,outdoor_scenes,1800,0,9,2
225,40201,0,226,4,4,0,no_gain4,gain5,I,J,3,43,outdoor_scenes,72,60,objects,Stimuli/Experimental_stims/outdoor_scenes/henry-be-NLF6hTe4PAg-unsplash.jpg,Stimuli/Experimental_stims/objects/jonathan-greenaway-Y4hGgeiFn3s-unsplash.jpg,0,0,177,1,unchosen,43,3,objects,outdoor_scenes,2200,0,9,2
226,40201,0,227,4,4,1,gain4,no_gain1,K,L,34,14,body_parts,46,70,faces,Stimuli/Experimental_stims/body_parts/wagner-santos-mBWMvIuVnso-unsplash.jpg,Stimuli/Experimental_stims/faces/david-siglin-UuW4psOb388-unsplash.jpg,0,0,193,0,chosen,14,34,faces,body_parts,4000,1,9,2
227,40201,0,228,4,4,1,gain3,no_gain2,C,G,27,8,body_parts,70,61,outdoor_scenes,Stimuli/Experimental_stims/body_parts/heike-mintel-i_Gns0ELnLw-unsplash.jpg,Stimuli/Experimental_stims/outdoor_scenes/samsommer-vddccTqwal8-unsplash.jpg,0,0,124,0,chosen,8,27,outdoor_scenes,body_parts,1900,0,9,2
228,40201,0,229,4,4,0,no_gain5,gain4,E,K,30,34,body_parts,64,46,body_parts,Stimuli/Experimental_stims/body_parts/mika-korhonen-Xodzxosar18-unsplash.jpg,Stimuli/Experimental_stims/body_parts/wagner-santos-mBWMvIuVnso-unsplash.jpg,0,0,194,1,chosen,34,30,body_parts,body_parts,1800,0,9,2
229,40201,0,230,4,4,0,no_gain4,gain3,I,C,3,5,outdoor_scenes,72,66,outdoor_scenes,Stimuli/Experimental_stims/outdoor_scenes/henry-be-NLF6hTe4PAg-unsplash.jpg,Stimuli/Experimental_stims/outdoor_scenes/jeff-king-bJHWJeiHfHc-unsplash.jpg,0,0,70,1,unchosen,5,3,outdoor_scenes,outdoor_scenes,1200,0,9,2
230,40201,0,231,4,4,0,no_gain3,gain5,H,J,0,43,outdoor_scenes,82,60,objects,Stimuli/Experimental_stims/outdoor_scenes/aleksandra-boguslawska-MS7KD9Ti7FQ-unsplash.jpg,Stimuli/Experimental_stims/objects/jonathan-greenaway-Y4hGgeiFn3s-unsplash.jpg,0,0,2,1,unchosen,43,0,objects,outdoor_scenes,1700,0,9,2
231,40201,0,232,4,4,0,no_gain2,gain5,G,J,36,43,objects,74,60,objects,Stimuli/Experimental_stims/objects/alexander-andrews-JYGnB9gTCls-unsplash.jpg,Stimuli/Experimental_stims/objects/jonathan-greenaway-Y4hGgeiFn3s-unsplash.jpg,0,1,162,0,unchosen,36,43,objects,objects,3500,1,9,2
232,40201,0,233,4,4,1,gain3,no_gain3,C,H,27,23,body_parts,70,87,faces,Stimuli/Experimental_stims/body_parts/heike-mintel-i_Gns0ELnLw-unsplash.jpg,Stimuli/Experimental_stims/faces/rikonavt-HQjfrvdTfak-unsplash.jpg,0,1,94,1,chosen,27,23,body_parts,faces,1700,0,9,2
233,40201,0,234,4,4,1,gain2,no_gain2,F,G,12,36,faces,73,74,objects,Stimuli/Experimental_stims/faces/aiony-haust-jmATI5Q_YgY-unsplash.jpg,Stimuli/Experimental_stims/objects/alexander-andrews-JYGnB9gTCls-unsplash.jpg,0,0,70,0,unchosen,36,12,objects,faces,2000,0,9,2
234,40201,0,235,4,4,0,no_gain6,gain5,B,J,11,43,outdoor_scenes,86,60,objects,Stimuli/Experimental_stims/outdoor_scenes/stephen-leonardi-gyIRjKPXupE-unsplash.jpg,Stimuli/Experimental_stims/objects/jonathan-greenaway-Y4hGgeiFn3s-unsplash.jpg,0,1,197,0,unchosen,11,43,outdoor_scenes,objects,1300,0,9,2
235,40201,0,236,4,4,1,gain6,no_gain1,A,L,1,14,outdoor_scenes,61,70,faces,Stimuli/Experimental_stims/outdoor_scenes/ashim-d-silva-S2Q5mdOrrVc-unsplash.jpg,Stimuli/Experimental_stims/faces/david-siglin-UuW4psOb388-unsplash.jpg,1,NaN,,NaN,chosen,NaN,NaN,NaN,NaN,1400,0,9,2
236,40201,0,237,4,4,1,gain1,no_gain4,D,I,42,3,objects,66,72,outdoor_scenes,Stimuli/Experimental_stims/objects/jess-bailey-nOeVi8DsN8U-unsplash.jpg,Stimuli/Experimental_stims/outdoor_scenes/henry-be-NLF6hTe4PAg-unsplash.jpg,0,0,80,0,unchosen,3,42,outdoor_scenes,objects,3600,1,9,2
237,40201,0,238,4,4,0,no_gain3,gain4,H,K,23,34,faces,87,46,body_parts,Stimuli/Experimental_stims/faces/rikonavt-HQjfrvdTfak-unsplash.jpg,Stimuli/Experimental_stims/body_parts/wagner-santos-mBWMvIuVnso-unsplash.jpg,0,0,109,1,chosen,34,23,body_parts,faces,2700,0,9,2
238,40201,0,239,4,4,0,no_gain5,gain1,E,D,38,42,objects,70,66,objects,Stimuli/Experimental_stims/objects/art-lasovsky-8XddFc6NkBY-unsplash.jpg,Stimuli/Experimental_stims/objects/jess-bailey-nOeVi8DsN8U-unsplash.jpg,0,0,19,1,unchosen,42,38,objects,objects,1900,0,9,2
239,40201,0,240,4,4,0,no_gain1,gain3,L,C,32,5,body_parts,66,66,outdoor_scenes,Stimuli/Experimental_stims/body_parts/towfiqu-barbhuiya-3AsiVDsZnHg-unsplash.jpg,Stimuli/Experimental_stims/outdoor_scenes/jeff-king-bJHWJeiHfHc-unsplash.jpg,0,0,17,1,unchosen,5,32,outdoor_scenes,body_parts,1200,0,9,2
240,40201,0,241,4,4,0,no_gain2,gain1,G,D,36,42,objects,74,66,objects,Stimuli/Experimental_stims/objects/alexander-andrews-JYGnB9gTCls-unsplash.jpg,Stimuli/Experimental_stims/objects/jess-bailey-nOeVi8DsN8U-unsplash.jpg,0,0,19,1,unchosen,42,36,objects,objects,1000,0,9,2
241,40201,0,242,4,4,1,gain3,no_gain4,C,I,27,28,body_parts,70,85,body_parts,Stimuli/Experimental_stims/body_parts/heike-mintel-i_Gns0ELnLw-unsplash.jpg,Stimuli/Experimental_stims/body_parts/ira-vishnevskaya-8DQAvdCby1I-unsplash.jpg,0,1,63,1,chosen,27,28,body_parts,body_parts,3700,1,9,2
242,40201,0,243,4,4,0,no_gain4,gain1,I,D,28,15,body_parts,85,67,faces,Stimuli/Experimental_stims/body_parts/ira-vishnevskaya-8DQAvdCby1I-unsplash.jpg,Stimuli/Experimental_stims/faces/erik-lucatero-d2MSDujJl2g-unsplash.jpg,0,0,132,1,chosen,15,28,faces,body_parts,1200,0,9,2
243,40201,0,244,4,4,1,gain2,no_gain3,F,H,12,0,faces,73,82,outdoor_scenes,Stimuli/Experimental_stims/faces/aiony-haust-jmATI5Q_YgY-unsplash.jpg,Stimuli/Experimental_stims/outdoor_scenes/aleksandra-boguslawska-MS7KD9Ti7FQ-unsplash.jpg,0,0,77,0,unchosen,0,12,outdoor_scenes,faces,2600,0,9,2
244,40201,0,245,4,4,1,gain4,no_gain4,K,I,39,3,objects,78,72,outdoor_scenes,Stimuli/Experimental_stims/objects/charlesdeluvio-1-nx1QR5dTE-unsplash.jpg,Stimuli/Experimental_stims/outdoor_scenes/henry-be-NLF6hTe4PAg-unsplash.jpg,0,0,177,0,unchosen,3,39,outdoor_scenes,objects,2400,0,9,2
245,40201,0,246,4,4,1,gain2,no_gain6,F,B,12,11,faces,73,86,outdoor_scenes,Stimuli/Experimental_stims/faces/aiony-haust-jmATI5Q_YgY-unsplash.jpg,Stimuli/Experimental_stims/outdoor_scenes/stephen-leonardi-gyIRjKPXupE-unsplash.jpg,0,1,29,1,unchosen,12,11,faces,outdoor_scenes,1200,0,9,2
246,40201,0,247,4,4,0,no_gain6,gain6,B,A,16,1,faces,68,61,outdoor_scenes,Stimuli/Experimental_stims/faces/freddy-kearney-o-ioeoATbIM-unsplash.jpg,Stimuli/Experimental_stims/outdoor_scenes/ashim-d-silva-S2Q5mdOrrVc-unsplash.jpg,0,1,126,0,chosen,16,1,faces,outdoor_scenes,2500,0,9,2
247,40201,0,248,4,4,1,gain2,no_gain5,F,E,12,38,faces,73,70,objects,Stimuli/Experimental_stims/faces/aiony-haust-jmATI5Q_YgY-unsplash.jpg,Stimuli/Experimental_stims/objects/art-lasovsky-8XddFc6NkBY-unsplash.jpg,0,1,31,1,unchosen,12,38,faces,objects,2200,0,9,2
248,40201,0,249,4,4,0,no_gain1,gain3,L,C,14,27,faces,70,70,body_parts,Stimuli/Experimental_stims/faces/david-siglin-UuW4psOb388-unsplash.jpg,Stimuli/Experimental_stims/body_parts/heike-mintel-i_Gns0ELnLw-unsplash.jpg,0,1,44,0,chosen,14,27,faces,body_parts,1100,0,9,2
249,40201,0,250,4,4,0,no_gain6,gain1,B,D,16,15,faces,68,67,faces,Stimuli/Experimental_stims/faces/freddy-kearney-o-ioeoATbIM-unsplash.jpg,Stimuli/Experimental_stims/faces/erik-lucatero-d2MSDujJl2g-unsplash.jpg,0,1,167,0,chosen,16,15,faces,faces,1700,0,9,2
250,40201,0,251,4,4,0,no_gain1,gain2,L,F,32,12,body_parts,66,73,faces,Stimuli/Experimental_stims/body_parts/towfiqu-barbhuiya-3AsiVDsZnHg-unsplash.jpg,Stimuli/Experimental_stims/faces/aiony-haust-jmATI5Q_YgY-unsplash.jpg,0,1,24,0,unchosen,32,12,body_parts,faces,1100,0,9,2
251,40201,0,252,4,4,1,gain6,no_gain3,A,H,1,23,outdoor_scenes,61,87,faces,Stimuli/Experimental_stims/outdoor_scenes/ashim-d-silva-S2Q5mdOrrVc-unsplash.jpg,Stimuli/Experimental_stims/faces/rikonavt-HQjfrvdTfak-unsplash.jpg,0,1,162,1,chosen,1,23,outdoor_scenes,faces,1900,0,9,2
252,40201,0,253,4,4,1,gain4,no_gain1,K,L,39,32,objects,78,66,body_parts,Stimuli/Experimental_stims/objects/charlesdeluvio-1-nx1QR5dTE-unsplash.jpg,Stimuli/Experimental_stims/body_parts/towfiqu-barbhuiya-3AsiVDsZnHg-unsplash.jpg,0,1,82,1,unchosen,39,32,objects,body_parts,1100,0,9,2
253,40201,0,254,4,4,1,gain4,no_gain5,K,E,39,38,objects,78,70,objects,Stimuli/Experimental_stims/objects/charlesdeluvio-1-nx1QR5dTE-unsplash.jpg,Stimuli/Experimental_stims/objects/art-lasovsky-8XddFc6NkBY-unsplash.jpg,0,0,25,0,unchosen,38,39,objects,objects,1000,0,9,2
254,40201,0,255,4,4,1,gain6,no_gain6,A,B,44,11,objects,75,86,outdoor_scenes,Stimuli/Experimental_stims/objects/kuiye-chen-NuOGFo4PudE-unsplash.jpg,Stimuli/Experimental_stims/outdoor_scenes/stephen-leonardi-gyIRjKPXupE-unsplash.jpg,0,1,211,1,unchosen,44,11,objects,outdoor_scenes,1600,0,9,2
255,40201,0,256,4,4,0,no_gain4,gain5,I,J,28,17,body_parts,85,69,faces,Stimuli/Experimental_stims/body_parts/ira-vishnevskaya-8DQAvdCby1I-unsplash.jpg,Stimuli/Experimental_stims/faces/good-faces-xmSWVeGEnJw-unsplash.jpg,0,1,215,0,chosen,28,17,body_parts,faces,2700,0,9,2
256,40201,0,257,4,4,1,gain4,no_gain6,K,B,39,11,objects,78,86,outdoor_scenes,Stimuli/Experimental_stims/objects/charlesdeluvio-1-nx1QR5dTE-unsplash.jpg,Stimuli/Experimental_stims/outdoor_scenes/stephen-leonardi-gyIRjKPXupE-unsplash.jpg,0,0,241,0,unchosen,11,39,outdoor_scenes,objects,3500,1,9,2
257,40201,0,258,4,4,0,no_gain2,gain6,G,A,36,44,objects,74,75,objects,Stimuli/Experimental_stims/objects/alexander-andrews-JYGnB9gTCls-unsplash.jpg,Stimuli/Experimental_stims/objects/kuiye-chen-NuOGFo4PudE-unsplash.jpg,0,1,95,0,unchosen,36,44,objects,objects,1000,0,9,2
258,40201,0,259,4,4,0,no_gain2,gain3,G,C,36,5,objects,74,66,outdoor_scenes,Stimuli/Experimental_stims/objects/alexander-andrews-JYGnB9gTCls-unsplash.jpg,Stimuli/Experimental_stims/outdoor_scenes/jeff-king-bJHWJeiHfHc-unsplash.jpg,0,0,1,1,unchosen,5,36,outdoor_scenes,objects,1700,0,9,2
259,40201,0,260,4,4,1,gain2,no_gain5,F,E,26,30,body_parts,69,64,body_parts,Stimuli/Experimental_stims/body_parts/engin-akyurt-x_3gyC42btc-unsplash.jpg,Stimuli/Experimental_stims/body_parts/mika-korhonen-Xodzxosar18-unsplash.jpg,0,1,130,1,chosen,26,30,body_parts,body_parts,1500,0,9,2
260,40201,0,261,4,4,1,gain3,no_gain5,C,E,27,30,body_parts,70,64,body_parts,Stimuli/Experimental_stims/body_parts/heike-mintel-i_Gns0ELnLw-unsplash.jpg,Stimuli/Experimental_stims/body_parts/mika-korhonen-Xodzxosar18-unsplash.jpg,0,1,82,1,chosen,27,30,body_parts,body_parts,1400,0,9,2
261,40201,0,262,4,4,1,gain5,no_gain3,J,H,17,23,faces,69,87,faces,Stimuli/Experimental_stims/faces/good-faces-xmSWVeGEnJw-unsplash.jpg,Stimuli/Experimental_stims/faces/rikonavt-HQjfrvdTfak-unsplash.jpg,0,0,106,0,chosen,23,17,faces,faces,1300,0,9,2
262,40201,0,263,4,4,1,gain5,no_gain5,J,E,43,38,objects,60,70,objects,Stimuli/Experimental_stims/objects/jonathan-greenaway-Y4hGgeiFn3s-unsplash.jpg,Stimuli/Experimental_stims/objects/art-lasovsky-8XddFc6NkBY-unsplash.jpg,0,1,155,1,unchosen,43,38,objects,objects,4500,1,9,2
263,40201,0,264,4,4,0,no_gain5,gain6,E,A,38,44,objects,70,75,objects,Stimuli/Experimental_stims/objects/art-lasovsky-8XddFc6NkBY-unsplash.jpg,Stimuli/Experimental_stims/objects/kuiye-chen-NuOGFo4PudE-unsplash.jpg,0,1,89,0,unchosen,38,44,objects,objects,1900,0,9,2
264,40201,0,265,4,4,0,no_gain6,gain1,B,D,11,42,outdoor_scenes,86,66,objects,Stimuli/Experimental_stims/outdoor_scenes/stephen-leonardi-gyIRjKPXupE-unsplash.jpg,Stimuli/Experimental_stims/objects/jess-bailey-nOeVi8DsN8U-unsplash.jpg,0,1,234,0,unchosen,11,42,outdoor_scenes,objects,1900,0,9,2
265,40201,0,266,4,4,1,gain5,no_gain5,J,E,17,30,faces,69,64,body_parts,Stimuli/Experimental_stims/faces/good-faces-xmSWVeGEnJw-unsplash.jpg,Stimuli/Experimental_stims/body_parts/mika-korhonen-Xodzxosar18-unsplash.jpg,0,1,25,1,chosen,17,30,faces,body_parts,1600,0,9,2
266,40201,0,267,4,4,0,no_gain2,gain4,G,K,8,34,outdoor_scenes,61,46,body_parts,Stimuli/Experimental_stims/outdoor_scenes/samsommer-vddccTqwal8-unsplash.jpg,Stimuli/Experimental_stims/body_parts/wagner-santos-mBWMvIuVnso-unsplash.jpg,0,1,183,0,chosen,8,34,outdoor_scenes,body_parts,2300,0,9,2
267,40201,0,268,4,4,1,gain6,no_gain2,A,G,1,8,outdoor_scenes,61,61,outdoor_scenes,Stimuli/Experimental_stims/outdoor_scenes/ashim-d-silva-S2Q5mdOrrVc-unsplash.jpg,Stimuli/Experimental_stims/outdoor_scenes/samsommer-vddccTqwal8-unsplash.jpg,0,1,21,1,chosen,1,8,outdoor_scenes,outdoor_scenes,3700,1,9,2
268,40201,0,269,4,4,0,no_gain3,gain3,H,C,0,5,outdoor_scenes,82,66,outdoor_scenes,Stimuli/Experimental_stims/outdoor_scenes/aleksandra-boguslawska-MS7KD9Ti7FQ-unsplash.jpg,Stimuli/Experimental_stims/outdoor_scenes/jeff-king-bJHWJeiHfHc-unsplash.jpg,0,1,213,0,unchosen,0,5,outdoor_scenes,outdoor_scenes,1200,0,9,2
269,40201,0,270,4,4,1,gain4,no_gain3,K,H,39,0,objects,78,82,outdoor_scenes,Stimuli/Experimental_stims/objects/charlesdeluvio-1-nx1QR5dTE-unsplash.jpg,Stimuli/Experimental_stims/outdoor_scenes/aleksandra-boguslawska-MS7KD9Ti7FQ-unsplash.jpg,0,0,21,0,unchosen,0,39,outdoor_scenes,objects,1900,0,9,2
270,40201,0,271,4,4,0,no_gain3,gain1,H,D,0,42,outdoor_scenes,82,66,objects,Stimuli/Experimental_stims/outdoor_scenes/aleksandra-boguslawska-MS7KD9Ti7FQ-unsplash.jpg,Stimuli/Experimental_stims/objects/jess-bailey-nOeVi8DsN8U-unsplash.jpg,0,1,90,0,unchosen,0,42,outdoor_scenes,objects,2000,0,9,2
271,40201,0,272,4,4,1,gain1,no_gain3,D,H,15,23,faces,67,87,faces,Stimuli/Experimental_stims/faces/erik-lucatero-d2MSDujJl2g-unsplash.jpg,Stimuli/Experimental_stims/faces/rikonavt-HQjfrvdTfak-unsplash.jpg,0,1,112,1,chosen,15,23,faces,faces,2700,0,9,2
272,40201,0,273,4,4,1,gain6,no_gain5,A,E,1,30,outdoor_scenes,61,64,body_parts,Stimuli/Experimental_stims/outdoor_scenes/ashim-d-silva-S2Q5mdOrrVc-unsplash.jpg,Stimuli/Experimental_stims/body_parts/mika-korhonen-Xodzxosar18-unsplash.jpg,0,1,81,1,chosen,1,30,outdoor_scenes,body_parts,1100,0,9,2
273,40201,0,274,4,4,0,no_gain2,gain1,G,D,8,15,outdoor_scenes,61,67,faces,Stimuli/Experimental_stims/outdoor_scenes/samsommer-vddccTqwal8-unsplash.jpg,Stimuli/Experimental_stims/faces/erik-lucatero-d2MSDujJl2g-unsplash.jpg,0,1,51,0,chosen,8,15,outdoor_scenes,faces,4200,1,9,2
274,40201,0,275,4,4,1,gain3,no_gain6,C,B,5,11,outdoor_scenes,66,86,outdoor_scenes,Stimuli/Experimental_stims/outdoor_scenes/jeff-king-bJHWJeiHfHc-unsplash.jpg,Stimuli/Experimental_stims/outdoor_scenes/stephen-leonardi-gyIRjKPXupE-unsplash.jpg,0,1,165,1,unchosen,5,11,outdoor_scenes,outdoor_scenes,1300,0,9,2
275,40201,0,276,4,4,1,gain1,no_gain5,D,E,15,30,faces,67,64,body_parts,Stimuli/Experimental_stims/faces/erik-lucatero-d2MSDujJl2g-unsplash.jpg,Stimuli/Experimental_stims/body_parts/mika-korhonen-Xodzxosar18-unsplash.jpg,0,1,112,1,chosen,15,30,faces,body_parts,2000,0,9,2
276,40201,0,277,4,4,0,no_gain3,gain2,H,F,23,26,faces,87,69,body_parts,Stimuli/Experimental_stims/faces/rikonavt-HQjfrvdTfak-unsplash.jpg,Stimuli/Experimental_stims/body_parts/engin-akyurt-x_3gyC42btc-unsplash.jpg,0,1,81,0,chosen,23,26,faces,body_parts,1100,0,9,2
277,40201,0,278,4,4,1,gain5,no_gain1,J,L,43,32,objects,60,66,body_parts,Stimuli/Experimental_stims/objects/jonathan-greenaway-Y4hGgeiFn3s-unsplash.jpg,Stimuli/Experimental_stims/body_parts/towfiqu-barbhuiya-3AsiVDsZnHg-unsplash.jpg,0,1,131,1,unchosen,43,32,objects,body_parts,2300,0,9,2
278,40201,0,279,4,4,1,gain2,no_gain2,F,G,26,8,body_parts,69,61,outdoor_scenes,Stimuli/Experimental_stims/body_parts/engin-akyurt-x_3gyC42btc-unsplash.jpg,Stimuli/Experimental_stims/outdoor_scenes/samsommer-vddccTqwal8-unsplash.jpg,0,1,1,1,chosen,26,8,body_parts,outdoor_scenes,2900,0,9,2
279,40201,0,280,4,4,0,no_gain2,gain5,G,J,8,17,outdoor_scenes,61,69,faces,Stimuli/Experimental_stims/outdoor_scenes/samsommer-vddccTqwal8-unsplash.jpg,Stimuli/Experimental_stims/faces/good-faces-xmSWVeGEnJw-unsplash.jpg,0,1,307,0,chosen,8,17,outdoor_scenes,faces,1200,0,9,2
280,40201,0,281,4,4,1,gain5,no_gain6,J,B,17,16,faces,69,68,faces,Stimuli/Experimental_stims/faces/good-faces-xmSWVeGEnJw-unsplash.jpg,Stimuli/Experimental_stims/faces/freddy-kearney-o-ioeoATbIM-unsplash.jpg,0,0,12,0,chosen,16,17,faces,faces,1500,0,9,2
281,40201,0,282,4,4,1,gain6,no_gain3,A,H,44,0,objects,75,82,outdoor_scenes,Stimuli/Experimental_stims/objects/kuiye-chen-NuOGFo4PudE-unsplash.jpg,Stimuli/Experimental_stims/outdoor_scenes/aleksandra-boguslawska-MS7KD9Ti7FQ-unsplash.jpg,0,1,85,1,unchosen,44,0,objects,outdoor_scenes,1100,0,9,2
282,40201,0,283,4,4,0,no_gain6,gain4,B,K,16,34,faces,68,46,body_parts,Stimuli/Experimental_stims/faces/freddy-kearney-o-ioeoATbIM-unsplash.jpg,Stimuli/Experimental_stims/body_parts/wagner-santos-mBWMvIuVnso-unsplash.jpg,0,0,145,1,chosen,34,16,body_parts,faces,1200,0,9,2
283,40201,0,284,4,4,0,no_gain4,gain2,I,F,28,26,body_parts,85,69,body_parts,Stimuli/Experimental_stims/body_parts/ira-vishnevskaya-8DQAvdCby1I-unsplash.jpg,Stimuli/Experimental_stims/body_parts/engin-akyurt-x_3gyC42btc-unsplash.jpg,1,NaN,,NaN,chosen,NaN,NaN,NaN,NaN,1400,0,9,2
284,40201,0,285,4,4,1,gain2,no_gain4,F,I,12,3,faces,73,72,outdoor_scenes,Stimuli/Experimental_stims/faces/aiony-haust-jmATI5Q_YgY-unsplash.jpg,Stimuli/Experimental_stims/outdoor_scenes/henry-be-NLF6hTe4PAg-unsplash.jpg,1,NaN,,NaN,unchosen,NaN,NaN,NaN,NaN,1100,0,9,2
285,40201,0,286,4,4,1,gain3,no_gain6,C,B,27,16,body_parts,70,68,faces,Stimuli/Experimental_stims/body_parts/heike-mintel-i_Gns0ELnLw-unsplash.jpg,Stimuli/Experimental_stims/faces/freddy-kearney-o-ioeoATbIM-unsplash.jpg,1,NaN,,NaN,chosen,NaN,NaN,NaN,NaN,2100,0,9,2
286,40201,0,287,4,4,0,no_gain1,gain1,L,D,32,42,body_parts,66,66,objects,Stimuli/Experimental_stims/body_parts/towfiqu-barbhuiya-3AsiVDsZnHg-unsplash.jpg,Stimuli/Experimental_stims/objects/jess-bailey-nOeVi8DsN8U-unsplash.jpg,1,NaN,,NaN,unchosen,NaN,NaN,NaN,NaN,3300,1,9,2
287,40201,0,288,4,4,0,no_gain1,gain6,L,A,32,44,body_parts,66,75,objects,Stimuli/Experimental_stims/body_parts/towfiqu-barbhuiya-3AsiVDsZnHg-unsplash.jpg,Stimuli/Experimental_stims/objects/kuiye-chen-NuOGFo4PudE-unsplash.jpg,1,NaN,,NaN,unchosen,NaN,NaN,NaN,NaN,1900,0,9,2
288,40201,0,289,4,4,0,no_gain1,gain5,L,J,14,17,faces,70,69,faces,Stimuli/Experimental_stims/faces/david-siglin-UuW4psOb388-unsplash.jpg,Stimuli/Experimental_stims/faces/good-faces-xmSWVeGEnJw-unsplash.jpg,1,NaN,,NaN,chosen,NaN,NaN,NaN,NaN,2000,0,9,2
289,40201,0,290,4,4,0,no_gain4,gain6,I,A,28,1,body_parts,85,61,outdoor_scenes,Stimuli/Experimental_stims/body_parts/ira-vishnevskaya-8DQAvdCby1I-unsplash.jpg,Stimuli/Experimental_stims/outdoor_scenes/ashim-d-silva-S2Q5mdOrrVc-unsplash.jpg,0,0,63,1,chosen,1,28,outdoor_scenes,body_parts,1100,0,9,2
290,40201,0,291,4,4,1,gain3,no_gain5,C,E,5,38,outdoor_scenes,66,70,objects,Stimuli/Experimental_stims/outdoor_scenes/jeff-king-bJHWJeiHfHc-unsplash.jpg,Stimuli/Experimental_stims/objects/art-lasovsky-8XddFc6NkBY-unsplash.jpg,0,0,38,0,unchosen,38,5,objects,outdoor_scenes,1800,0,9,2
291,40201,0,292,4,4,0,no_gain1,gain1,L,D,14,15,faces,70,67,faces,Stimuli/Experimental_stims/faces/david-siglin-UuW4psOb388-unsplash.jpg,Stimuli/Experimental_stims/faces/erik-lucatero-d2MSDujJl2g-unsplash.jpg,0,0,128,1,chosen,15,14,faces,faces,3200,1,9,2