PID,practice,trial,run,task,stimulus_duration,iti,is_odd_ball,path,response,rt,version,no_response,acc
39781,1,1,0,NaN,400,300,0,Stimuli/Practice_stims/Localizer/annie-spratt-g9KFpAfQ5bc-unsplash.jpg,0,0,2,0,1
39781,1,2,0,NaN,400,300,0,Stimuli/Practice_stims/Localizer/becca-tapert-sY5RjMB1KkE-unsplash.jpg,0,66,2,0,1
39781,1,3,0,NaN,400,300,1,Stimuli/Practice_stims/Localizer/charl-durand-bsfXvI25iNg-unsplash.jpg,1,363,2,0,1
39781,1,4,0,NaN,400,300,0,Stimuli/Practice_stims/Localizer/nizar-albusaidy-B2r2SWAf5CE-unsplash.jpg,0,364,2,0,1
39781,1,5,0,NaN,400,300,1,Stimuli/Practice_stims/Localizer/randy-fath-epf1tdtIIkM-unsplash.jpg,1,383,2,0,1
39781,1,6,0,NaN,400,300,0,Stimuli/Practice_stims/Localizer/yassine-khalfalli-adsQ9d_Cx0c-unsplash.jpg,0,350,2,0,1
39781,0,7,1,body_parts,400,300,0,Stimuli/Experimental_stims/localizer/body_parts/igordoon-primus-CdyHqfrbGIs-unsplash.jpg,NaN,NaN,2,1,0
39781,0,8,1,body_parts,400,300,0,Stimuli/Experimental_stims/localizer/body_parts/jonathan-borba-hTwH8QFkPMs-unsplash.jpg,NaN,NaN,2,1,0
39781,0,9,1,body_parts,400,300,1,Stimuli/Experimental_stims/localizer/body_parts/marcel-fagin-OUYg0Q3ec-Y-unsplash.jpg,NaN,NaN,2,1,0
39781,0,10,1,body_parts,400,300,0,Stimuli/Experimental_stims/localizer/body_parts/anelya-okapova-V69kmOyZ3SU-unsplash.jpg,NaN,NaN,2,1,0
39781,0,11,1,body_parts,400,300,0,Stimuli/Experimental_stims/localizer/body_parts/jan-romero-DL4DDQb8yjc-unsplash.jpg,0,370,2,0,1
39781,0,12,1,body_parts,400,300,0,Stimuli/Experimental_stims/localizer/body_parts/pure-julia-9lVaya31sMk-unsplash.jpg,0,311,2,0,1
39781,0,13,1,body_parts,400,300,0,Stimuli/Experimental_stims/localizer/body_parts/jasper-garratt-Ng_Kl7K6V8Y-unsplash.jpg,0,300,2,0,1
39781,0,14,1,body_parts,400,300,0,Stimuli/Experimental_stims/localizer/body_parts/i-am_nah--S4OsO0c6Ts-unsplash.jpg,0,274,2,0,1
39781,0,15,1,body_parts,400,300,0,Stimuli/Experimental_stims/localizer/body_parts/femme-spirit-RGYBDUHYbyM-unsplash.jpg,0,279,2,0,1
39781,0,16,1,body_parts,400,300,0,Stimuli/Experimental_stims/localizer/body_parts/liv-bruce-M0oVPGsWk1E-unsplash.jpg,0,220,2,0,1
39781,0,17,1,body_parts,400,300,0,Stimuli/Experimental_stims/localizer/body_parts/bady-abbas-N-VEeMnm7gE-unsplash.jpg,0,227,2,0,1
39781,0,18,1,body_parts,400,300,0,Stimuli/Experimental_stims/localizer/body_parts/lucaxx-freire-CacZwMexYdk-unsplash.jpg,0,287,2,0,1
39781,0,19,1,body_parts,400,300,0,Stimuli/Experimental_stims/localizer/body_parts/hu-chen-tCbTGNwrFNM-unsplash.jpg,0,277,2,0,1
39781,0,20,1,body_parts,400,300,0,Stimuli/Experimental_stims/localizer/body_parts/megan-menegay-UojxG_BJxnI-unsplash.jpg,0,258,2,0,1
39781,0,21,1,body_parts,400,300,1,Stimuli/Experimental_stims/localizer/body_parts/toan-nguyen-VIeLuUFzesg-unsplash.jpg,1,392,2,0,1
39781,0,22,1,body_parts,400,300,0,Stimuli/Experimental_stims/localizer/body_parts/sippakorn-yamkasikorn-32_sJlJa5gA-unsplash.jpg,0,309,2,0,1
39781,0,23,1,body_parts,400,300,0,Stimuli/Experimental_stims/localizer/body_parts/louis-hansel-FjKTMRTQYAs-unsplash.jpg,0,338,2,0,1
39781,0,24,1,body_parts,400,300,0,Stimuli/Experimental_stims/localizer/body_parts/sydney-herron-b2W04fGuS70-unsplash.jpg,0,295,2,0,1
39781,0,25,1,body_parts,400,300,0,Stimuli/Experimental_stims/localizer/body_parts/danie-franco-jyyNiSEcCl4-unsplash.jpg,0,253,2,0,1
39781,0,26,1,body_parts,400,14000,0,Stimuli/Experimental_stims/localizer/body_parts/ramesh-iyer-CRhznMXoJlc-unsplash.jpg,0,266,2,0,1
39781,0,27,1,objects,400,300,0,Stimuli/Experimental_stims/localizer/objects/adriano-pucciarelli-BE7yaZnZX6o-unsplash.jpg,NaN,NaN,2,1,0
39781,0,28,1,objects,400,300,0,Stimuli/Experimental_stims/localizer/objects/petr-sidorov-3jm5TGqtULU-unsplash.jpg,0,50,2,0,1
39781,0,29,1,objects,400,300,0,Stimuli/Experimental_stims/localizer/objects/carlos-felipe-ramirez-mesa-HW7bfB3ERSQ-unsplash.jpg,0,8,2,0,1
39781,0,30,1,objects,400,300,1,Stimuli/Experimental_stims/localizer/objects/raimond-klavins-ZdvDPXVvcKs-unsplash.jpg,NaN,NaN,2,1,0
39781,0,31,1,objects,400,300,0,Stimuli/Experimental_stims/localizer/objects/adriano-pucciarelli-Jl3S1yM8gi8-unsplash.jpg,1,22,2,0,0
39781,0,32,1,objects,400,300,0,Stimuli/Experimental_stims/localizer/objects/engin-akyurt-bbbKzTmY2Gg-unsplash.jpg,NaN,NaN,2,1,0
39781,0,33,1,objects,400,300,0,Stimuli/Experimental_stims/localizer/objects/sam-moghadam-khamseh-kvmdsTrGOBM-unsplash.jpg,0,328,2,0,1
39781,0,34,1,objects,400,300,0,Stimuli/Experimental_stims/localizer/objects/jiangxulei1990-eIzzzwtkBjU-unsplash.jpg,0,271,2,0,1
39781,0,35,1,objects,400,300,0,Stimuli/Experimental_stims/localizer/objects/florian-klauer-nptLmg6jqDo-unsplash.jpg,0,324,2,0,1
39781,0,36,1,objects,400,300,0,Stimuli/Experimental_stims/localizer/objects/ignat-dolomanov-kFBDVnmskPA-unsplash.jpg,NaN,NaN,2,1,0
39781,0,37,1,objects,400,300,0,Stimuli/Experimental_stims/localizer/objects/andrew-petrov-TVJqDat4MAw-unsplash.jpg,0,280,2,0,1
39781,0,38,1,objects,400,300,0,Stimuli/Experimental_stims/localizer/objects/sam-moghadam-khamseh-L_7MQsHl_aU-unsplash.jpg,0,254,2,0,1
39781,0,39,1,objects,400,300,0,Stimuli/Experimental_stims/localizer/objects/ana-9GmAaEMMKho-unsplash.jpg,0,267,2,0,1
39781,0,40,1,objects,400,300,0,Stimuli/Experimental_stims/localizer/objects/mockup-graphics-U6ZMEefFGx8-unsplash.jpg,0,280,2,0,1
39781,0,41,1,objects,400,300,0,Stimuli/Experimental_stims/localizer/objects/kelly-jean-cKjbI0Y00X0-unsplash.jpg,0,262,2,0,1
39781,0,42,1,objects,400,300,0,Stimuli/Experimental_stims/localizer/objects/eugene-chystiakov-3neSwyntbQ8-unsplash.jpg,0,348,2,0,1
39781,0,43,1,objects,400,300,0,Stimuli/Experimental_stims/localizer/objects/lance-reis-v0FYj9iioQg-unsplash.jpg,0,281,2,0,1
39781,0,44,1,objects,400,300,0,Stimuli/Experimental_stims/localizer/objects/annie-spratt-fbAnIjhrOL4-unsplash.jpg,0,271,2,0,1
39781,0,45,1,objects,400,300,1,Stimuli/Experimental_stims/localizer/objects/mockup-graphics-Pj2PY-E-LfM-unsplash.jpg,0,236,2,0,0
39781,0,46,1,objects,400,14000,0,Stimuli/Experimental_stims/localizer/objects/dario-mendez-hnJ2VNZzbns-unsplash.jpg,0,330,2,0,1
39781,0,47,1,faces,400,300,1,Stimuli/Experimental_stims/localizer/faces/christian-ferrer-8vT-DgHZDG4-unsplash.jpg,NaN,NaN,2,1,0
39781,0,48,1,faces,400,300,0,Stimuli/Experimental_stims/localizer/faces/mathias-huysmans-U4JDjYmjn1g-unsplash.jpg,1,297,2,0,0
39781,0,49,1,faces,400,300,0,Stimuli/Experimental_stims/localizer/faces/filipe-almeida-mnEWC72eWDM-unsplash.jpg,0,366,2,0,1
39781,0,50,1,faces,400,300,0,Stimuli/Experimental_stims/localizer/faces/midas-hofstra-tidSLv-UaNs-unsplash.jpg,0,245,2,0,1
39781,0,51,1,faces,400,300,0,Stimuli/Experimental_stims/localizer/faces/darshan-patel-QJEVpydulGs-unsplash.jpg,0,220,2,0,1
39781,0,52,1,faces,400,300,0,Stimuli/Experimental_stims/localizer/faces/ivan-dodig-R21SyyJDFgc-unsplash.jpg,0,161,2,0,1
39781,0,53,1,faces,400,300,0,Stimuli/Experimental_stims/localizer/faces/austin-wade-X6Uj51n5CE8-unsplash.jpg,0,247,2,0,1
39781,0,54,1,faces,400,300,0,Stimuli/Experimental_stims/localizer/faces/linkedin-sales-solutions-pAtA8xe_iVM-unsplash.jpg,0,236,2,0,1
39781,0,55,1,faces,400,300,0,Stimuli/Experimental_stims/localizer/faces/pavel-anoshin-d0peGya6R5Y-unsplash.jpg,0,274,2,0,1
39781,0,56,1,faces,400,300,0,Stimuli/Experimental_stims/localizer/faces/jeffery-erhunse-vp9mRauo68c-unsplash.jpg,0,247,2,0,1
39781,0,57,1,faces,400,300,0,Stimuli/Experimental_stims/localizer/faces/aatik-tasneem-7omHUGhhmZ0-unsplash.jpg,0,268,2,0,1
39781,0,58,1,faces,400,300,0,Stimuli/Experimental_stims/localizer/faces/abstral-official-cyOKLSgkgCE-unsplash.jpg,0,257,2,0,1
39781,0,59,1,faces,400,300,0,Stimuli/Experimental_stims/localizer/faces/brooke-cagle-Nm70URdtf3c-unsplash (1).jpg,0,238,2,0,1
39781,0,60,1,faces,400,300,0,Stimuli/Experimental_stims/localizer/faces/icons8-team-6LZuSzSwso0-unsplash.jpg,0,242,2,0,1
39781,0,61,1,faces,400,300,0,Stimuli/Experimental_stims/localizer/faces/christina-wocintechchat-com-0Zx1bDv5BNY-unsplash.jpg,0,231,2,0,1
39781,0,62,1,faces,400,300,0,Stimuli/Experimental_stims/localizer/faces/juan-encalada-WC7KIHo13Fc-unsplash.jpg,0,220,2,0,1
39781,0,63,1,faces,400,300,0,Stimuli/Experimental_stims/localizer/faces/nick-karvounis-JyO_szjGvUw-unsplash.jpg,0,281,2,0,1
39781,0,64,1,faces,400,300,0,Stimuli/Experimental_stims/localizer/faces/carlos-vaz-KP4bxnxAilU-unsplash.jpg,0,256,2,0,1
39781,0,65,1,faces,400,300,1,Stimuli/Experimental_stims/localizer/faces/tyler-nix-ZGa9d1a_4tA-unsplash.jpg,0,277,2,0,0
39781,0,66,1,faces,400,14000,0,Stimuli/Experimental_stims/localizer/faces/samuel-dixon--fQ5XNOcqFQ-unsplash.jpg,0,291,2,0,1
39781,0,67,1,body_parts,400,300,1,Stimuli/Experimental_stims/localizer/body_parts/nihal-karkala-LlOfbQD-IJ0-unsplash.jpg,NaN,NaN,2,1,0
39781,0,68,1,body_parts,400,300,0,Stimuli/Experimental_stims/localizer/body_parts/nick-page-WTNmgJtwzGI-unsplash.jpg,0,322,2,0,1
39781,0,69,1,body_parts,400,300,0,Stimuli/Experimental_stims/localizer/body_parts/sina-rezakhani-d1gQi0Jl05U-unsplash (1).jpg,0,304,2,0,1
39781,0,70,1,body_parts,400,300,0,Stimuli/Experimental_stims/localizer/body_parts/meghan-thompson-U1b8OB0QpIo-unsplash.jpg,0,269,2,0,1
39781,0,71,1,body_parts,400,300,0,Stimuli/Experimental_stims/localizer/body_parts/davidcohen-qghuLqyh3nE-unsplash.jpg,0,218,2,0,1
39781,0,72,1,body_parts,400,300,0,Stimuli/Experimental_stims/localizer/body_parts/sincerely-media-QyzlAZjm0r0-unsplash.jpg,0,183,2,0,1
39781,0,73,1,body_parts,400,300,0,Stimuli/Experimental_stims/localizer/body_parts/juja-han-Z8-6EI2tYtw-unsplash.jpg,0,148,2,0,1
39781,0,74,1,body_parts,400,300,0,Stimuli/Experimental_stims/localizer/body_parts/natalie-grainger-8uB5kFKWWkk-unsplash.jpg,0,192,2,0,1
39781,0,75,1,body_parts,400,300,0,Stimuli/Experimental_stims/localizer/body_parts/debby-hudson--B_757qSA4k-unsplash.jpg,0,361,2,0,1
39781,0,76,1,body_parts,400,300,0,Stimuli/Experimental_stims/localizer/body_parts/pure-julia-E9Q4bqYHtIM-unsplash.jpg,0,278,2,0,1
39781,0,77,1,body_parts,400,300,0,Stimuli/Experimental_stims/localizer/body_parts/charles-etoroma-1fo0biloDOc-unsplash.jpg,0,268,2,0,1
39781,0,78,1,body_parts,400,300,0,Stimuli/Experimental_stims/localizer/body_parts/david-fanuel-qnV8X7OViNY-unsplash.jpg,0,273,2,0,1
39781,0,79,1,body_parts,400,300,0,Stimuli/Experimental_stims/localizer/body_parts/diana-polekhina-SwWjCbIIoFE-unsplash.jpg,0,255,2,0,1
39781,0,80,1,body_parts,400,300,0,Stimuli/Experimental_stims/localizer/body_parts/ant-rozetsky-bXQd8JXx0vs-unsplash.jpg,NaN,NaN,2,1,0
39781,0,81,1,body_parts,400,300,0,Stimuli/Experimental_stims/localizer/body_parts/callum-skelton-3KLMq7y46nA-unsplash.jpg,0,293,2,0,1
39781,0,82,1,body_parts,400,300,0,Stimuli/Experimental_stims/localizer/body_parts/freestocks-qw9LFf5T790-unsplash.jpg,0,275,2,0,1
39781,0,83,1,body_parts,400,300,0,Stimuli/Experimental_stims/localizer/body_parts/carlos-henrique-NAOJKwZswbs-unsplash.jpg,0,265,2,0,1
39781,0,84,1,body_parts,400,300,1,Stimuli/Experimental_stims/localizer/body_parts/boyd-christiansen-uVj7kewrZ-o-unsplash.jpg,NaN,NaN,2,1,0
39781,0,85,1,body_parts,400,300,0,Stimuli/Experimental_stims/localizer/body_parts/nick-page-jAGdpOGvLAA-unsplash.jpg,0,251,2,0,1
39781,0,86,1,body_parts,400,14000,0,Stimuli/Experimental_stims/localizer/body_parts/lilartsy-1KkhQ8uL28g-unsplash.jpg,0,224,2,0,1
39781,0,87,1,objects,400,300,1,Stimuli/Experimental_stims/localizer/objects/yossy-made-yulian-WaEqwDSIeTY-unsplash.jpg,0,370,2,0,0
39781,0,88,1,objects,400,300,0,Stimuli/Experimental_stims/localizer/objects/namroud-gorguis-FZWivbri0Xk-unsplash.jpg,NaN,NaN,2,1,0
39781,0,89,1,objects,400,300,0,Stimuli/Experimental_stims/localizer/objects/muhammad-toqeer-NRJ9ipvz2iE-unsplash.jpg,NaN,NaN,2,1,0
39781,0,90,1,objects,400,300,0,Stimuli/Experimental_stims/localizer/objects/chris-briggs-x9TCnxNBofE-unsplash.jpg,0,342,2,0,1
39781,0,91,1,objects,400,300,0,Stimuli/Experimental_stims/localizer/objects/collab-media-eddtBBbaw0Y-unsplash.jpg,0,307,2,0,1
39781,0,92,1,objects,400,300,0,Stimuli/Experimental_stims/localizer/objects/nordwood-themes-E9tFH39iRPE-unsplash.jpg,NaN,NaN,2,1,0
39781,0,93,1,objects,400,300,0,Stimuli/Experimental_stims/localizer/objects/oriento-maVIpNNtmlQ-unsplash.jpg,0,277,2,0,1
39781,0,94,1,objects,400,300,0,Stimuli/Experimental_stims/localizer/objects/alex-lvrs-2zDw14yCYqk-unsplash.jpg,0,235,2,0,1
39781,0,95,1,objects,400,300,0,Stimuli/Experimental_stims/localizer/objects/quaritsch-photography-lZ8onQ1wuY8-unsplash.jpg,0,233,2,0,1
39781,0,96,1,objects,400,300,0,Stimuli/Experimental_stims/localizer/objects/saif71-com-VIKdvmGUhq8-unsplash.jpg,0,174,2,0,1
39781,0,97,1,objects,400,300,0,Stimuli/Experimental_stims/localizer/objects/yoann-siloine-_T4w3JDm6ug-unsplash.jpg,0,274,2,0,1
39781,0,98,1,objects,400,300,0,Stimuli/Experimental_stims/localizer/objects/nicolas-hippert-kfr_eSrR08M-unsplash.jpg,0,296,2,0,1
39781,0,99,1,objects,400,300,0,Stimuli/Experimental_stims/localizer/objects/designecologist-hvgd0ygXuQQ-unsplash.jpg,0,198,2,0,1
39781,0,100,1,objects,400,300,0,Stimuli/Experimental_stims/localizer/objects/dario-mendez-WmF_XLF4-Rs-unsplash.jpg,0,284,2,0,1
39781,0,101,1,objects,400,300,0,Stimuli/Experimental_stims/localizer/objects/quino-al-4SNUcHPiC8c-unsplash.jpg,0,248,2,0,1
39781,0,102,1,objects,400,300,0,Stimuli/Experimental_stims/localizer/objects/hipster-mum-XookgCxFw6Q-unsplash.jpg,0,229,2,0,1
39781,0,103,1,objects,400,300,0,Stimuli/Experimental_stims/localizer/objects/ryunosuke-kikuno-viEzuL1ouDs-unsplash.jpg,0,282,2,0,1
39781,0,104,1,objects,400,300,1,Stimuli/Experimental_stims/localizer/objects/mae-mu-yl2d0CKW130-unsplash.jpg,1,392,2,0,1
39781,0,105,1,objects,400,300,0,Stimuli/Experimental_stims/localizer/objects/jonny-caspari-wsvCC6UyKjs-unsplash.jpg,0,373,2,0,1
39781,0,106,1,objects,400,14000,0,Stimuli/Experimental_stims/localizer/objects/mulyadi-tWp0VSlSdMI-unsplash.jpg,NaN,NaN,2,1,0
39781,0,107,1,outdoor_scenes,400,300,1,Stimuli/Experimental_stims/localizer/outdoor_scenes/johny-goerend-U_diPCXCBxU-unsplash.jpg,1,351,2,0,1
39781,0,108,1,outdoor_scenes,400,300,0,Stimuli/Experimental_stims/localizer/outdoor_scenes/jordan-heath-4z_SYrG5mgA-unsplash.jpg,0,316,2,0,1
39781,0,109,1,outdoor_scenes,400,300,0,Stimuli/Experimental_stims/localizer/outdoor_scenes/nicolas-jehly-LzVB84KkZOE-unsplash.jpg,0,274,2,0,1
39781,0,110,1,outdoor_scenes,400,300,0,Stimuli/Experimental_stims/localizer/outdoor_scenes/kenneth-thewissen-D76DklsG-5U-unsplash.jpg,0,223,2,0,1
39781,0,111,1,outdoor_scenes,400,300,0,Stimuli/Experimental_stims/localizer/outdoor_scenes/ryan-schroeder-Gg7uKdHFb_c-unsplash.jpg,0,228,2,0,1
39781,0,112,1,outdoor_scenes,400,300,0,Stimuli/Experimental_stims/localizer/outdoor_scenes/kalen-emsley-Bkci_8qcdvQ-unsplash.jpg,0,273,2,0,1
39781,0,113,1,outdoor_scenes,400,300,0,Stimuli/Experimental_stims/localizer/outdoor_scenes/fabian-quintero-UWQP2mh5YJI-unsplash.jpg,0,293,2,0,1
39781,0,114,1,outdoor_scenes,400,300,0,Stimuli/Experimental_stims/localizer/outdoor_scenes/quentin-zwzeorQPepo-unsplash.jpg,0,252,2,0,1
39781,0,115,1,outdoor_scenes,400,300,0,Stimuli/Experimental_stims/localizer/outdoor_scenes/tomasz-filipek-CUWC-6MRcNg-unsplash.jpg,0,232,2,0,1
39781,0,116,1,outdoor_scenes,400,300,0,Stimuli/Experimental_stims/localizer/outdoor_scenes/bruno-van-der-kraan-qez8mNJ3ilU-unsplash.jpg,0,277,2,0,1
39781,0,117,1,outdoor_scenes,400,300,0,Stimuli/Experimental_stims/localizer/outdoor_scenes/sabeer-darr-Upz-tnx2v2s-unsplash.jpg,0,227,2,0,1
39781,0,118,1,outdoor_scenes,400,300,0,Stimuli/Experimental_stims/localizer/outdoor_scenes/andres-sanz-uILhNE1VcwA-unsplash.jpg,0,160,2,0,1
39781,0,119,1,outdoor_scenes,400,300,0,Stimuli/Experimental_stims/localizer/outdoor_scenes/nikola-majksner-hXNGeAFOgT4-unsplash.jpg,0,222,2,0,1
39781,0,120,1,outdoor_scenes,400,300,1,Stimuli/Experimental_stims/localizer/outdoor_scenes/wai-siew-mTFyV8oNDzU-unsplash.jpg,0,187,2,0,0
39781,0,121,1,outdoor_scenes,400,300,0,Stimuli/Experimental_stims/localizer/outdoor_scenes/benjamin-davies-Zm2n2O7Fph4-unsplash.jpg,0,328,2,0,1
39781,0,122,1,outdoor_scenes,400,300,0,Stimuli/Experimental_stims/localizer/outdoor_scenes/quino-al-vmZ2DehWQ3Q-unsplash.jpg,0,318,2,0,1
39781,0,123,1,outdoor_scenes,400,300,0,Stimuli/Experimental_stims/localizer/outdoor_scenes/ricardo-gomez-angel-dTSaC-S-7fs-unsplash.jpg,0,316,2,0,1
39781,0,124,1,outdoor_scenes,400,300,0,Stimuli/Experimental_stims/localizer/outdoor_scenes/jack-millard-zjyP-UYI-ko-unsplash.jpg,0,249,2,0,1
39781,0,125,1,outdoor_scenes,400,300,0,Stimuli/Experimental_stims/localizer/outdoor_scenes/dave-hoefler-lsoogGC_5dg-unsplash.jpg,0,238,2,0,1
39781,0,126,1,outdoor_scenes,400,14000,0,Stimuli/Experimental_stims/localizer/outdoor_scenes/eberhard-grossgasteiger-y2azHvupCVo-unsplash.jpg,0,219,2,0,1
39781,0,127,1,faces,400,300,0,Stimuli/Experimental_stims/localizer/faces/ian-dooley-d1UPkiFd04A-unsplash.jpg,NaN,NaN,2,1,0
39781,0,128,1,faces,400,300,0,Stimuli/Experimental_stims/localizer/faces/chanvre-quebec-mXu1SpzHq6w-unsplash.jpg,0,253,2,0,1
39781,0,129,1,faces,400,300,0,Stimuli/Experimental_stims/localizer/faces/jurica-koletic-7YVZYZeITc8-unsplash.jpg,0,219,2,0,1
39781,0,130,1,faces,400,300,0,Stimuli/Experimental_stims/localizer/faces/katsiaryna-endruszkiewicz-BteCp6aq4GI-unsplash.jpg,0,262,2,0,1
39781,0,131,1,faces,400,300,0,Stimuli/Experimental_stims/localizer/faces/jeffery-erhunse-BQMZ5ligqps-unsplash.jpg,0,226,2,0,1
39781,0,132,1,faces,400,300,0,Stimuli/Experimental_stims/localizer/faces/ethan-haddox-__ng3cRXmFE-unsplash.jpg,0,175,2,0,1
39781,0,133,1,faces,400,300,1,Stimuli/Experimental_stims/localizer/faces/rui-silvestre-hAMJpesMeDE-unsplash.jpg,0,315,2,0,0
39781,0,134,1,faces,400,300,0,Stimuli/Experimental_stims/localizer/faces/sean-kong--1B_y4wGs-s-unsplash.jpg,0,305,2,0,1
39781,0,135,1,faces,400,300,0,Stimuli/Experimental_stims/localizer/faces/elijah-hiett-umfpFoKxIVg-unsplash.jpg,0,359,2,0,1
39781,0,136,1,faces,400,300,0,Stimuli/Experimental_stims/localizer/faces/art-hauntington-jzY0KRJopEI-unsplash.jpg,0,316,2,0,1
39781,0,137,1,faces,400,300,0,Stimuli/Experimental_stims/localizer/faces/matheus-ferrero-W7b3eDUb_2I-unsplash.jpg,0,290,2,0,1
39781,0,138,1,faces,400,300,0,Stimuli/Experimental_stims/localizer/faces/imansyah-muhamad-putera-n4KewLKFOZw-unsplash.jpg,0,294,2,0,1
39781,0,139,1,faces,400,300,0,Stimuli/Experimental_stims/localizer/faces/philip-martin-5aGUyCW_PJw-unsplash.jpg,0,324,2,0,1
39781,0,140,1,faces,400,300,0,Stimuli/Experimental_stims/localizer/faces/foto-sushi-6anudmpILw4-unsplash.jpg,0,335,2,0,1
39781,0,141,1,faces,400,300,0,Stimuli/Experimental_stims/localizer/faces/jimmy-fermin-bqe0J0b26RQ-unsplash.jpg,0,348,2,0,1
39781,0,142,1,faces,400,300,0,Stimuli/Experimental_stims/localizer/faces/joseph-gonzalez-iFgRcqHznqg-unsplash.jpg,0,329,2,0,1
39781,0,143,1,faces,400,300,1,Stimuli/Experimental_stims/localizer/faces/prince-akachi-LWkFHEGpleE-unsplash.jpg,1,399,2,0,1
39781,0,144,1,faces,400,300,0,Stimuli/Experimental_stims/localizer/faces/binh-ly-k_4A59MzZTY-unsplash.jpg,0,364,2,0,1
39781,0,145,1,faces,400,300,0,Stimuli/Experimental_stims/localizer/faces/ben-scott-tWb7IsL9CnY-unsplash.jpg,0,345,2,0,1
39781,0,146,1,faces,400,14000,0,Stimuli/Experimental_stims/localizer/faces/hassan-khan-EGVccebWodM-unsplash.jpg,0,294,2,0,1
39781,0,147,1,outdoor_scenes,400,300,0,Stimuli/Experimental_stims/localizer/outdoor_scenes/wil-stewart-pHANr-CpbYM-unsplash.jpg,NaN,NaN,2,1,0
39781,0,148,1,outdoor_scenes,400,300,0,Stimuli/Experimental_stims/localizer/outdoor_scenes/mark-harpur-K2s_YE031CA-unsplash.jpg,0,324,2,0,1
39781,0,149,1,outdoor_scenes,400,300,1,Stimuli/Experimental_stims/localizer/outdoor_scenes/kace-rodriguez-p3OzJuT_Dks-unsplash.jpg,0,226,2,0,0
39781,0,150,1,outdoor_scenes,400,300,0,Stimuli/Experimental_stims/localizer/outdoor_scenes/solotravelgoals-7kLufxYoqWk-unsplash.jpg,0,247,2,0,1
39781,0,151,1,outdoor_scenes,400,300,0,Stimuli/Experimental_stims/localizer/outdoor_scenes/marcelo-quinan-u0ZgqJD55pE-unsplash.jpg,0,229,2,0,1
39781,0,152,1,outdoor_scenes,400,300,0,Stimuli/Experimental_stims/localizer/outdoor_scenes/jaanus-jagomagi-FddgewYQF2M-unsplash.jpg,0,281,2,0,1
39781,0,153,1,outdoor_scenes,400,300,0,Stimuli/Experimental_stims/localizer/outdoor_scenes/tim-swaan-eOpewngf68w-unsplash (1).jpg,0,277,2,0,1
39781,0,154,1,outdoor_scenes,400,300,0,Stimuli/Experimental_stims/localizer/outdoor_scenes/alice-donovan-rouse-pZ61ZA8QgcY-unsplash.jpg,0,267,2,0,1
39781,0,155,1,outdoor_scenes,400,300,0,Stimuli/Experimental_stims/localizer/outdoor_scenes/jeremy-cai-ucYWe5mzTMU-unsplash.jpg,0,320,2,0,1
39781,0,156,1,outdoor_scenes,400,300,0,Stimuli/Experimental_stims/localizer/outdoor_scenes/julien-lavallee-X2DE1VmN7x4-unsplash.jpg,0,285,2,0,1
39781,0,157,1,outdoor_scenes,400,300,0,Stimuli/Experimental_stims/localizer/outdoor_scenes/daniel-roe-lpjb_UMOyx8-unsplash.jpg,0,267,2,0,1
39781,0,158,1,outdoor_scenes,400,300,0,Stimuli/Experimental_stims/localizer/outdoor_scenes/luca-micheli-ruWkmt3nU58-unsplash.jpg,0,303,2,0,1
39781,0,159,1,outdoor_scenes,400,300,0,Stimuli/Experimental_stims/localizer/outdoor_scenes/federico-beccari-kRnkqSKZODQ-unsplash.jpg,0,316,2,0,1
39781,0,160,1,outdoor_scenes,400,300,0,Stimuli/Experimental_stims/localizer/outdoor_scenes/v2osk-1Z2niiBPg5A-unsplash.jpg,0,313,2,0,1
39781,0,161,1,outdoor_scenes,400,300,0,Stimuli/Experimental_stims/localizer/outdoor_scenes/erol-ahmed-d3pTF3r_hwY-unsplash.jpg,0,358,2,0,1
39781,0,162,1,outdoor_scenes,400,300,0,Stimuli/Experimental_stims/localizer/outdoor_scenes/quino-al-mBQIfKlvowM-unsplash.jpg,0,331,2,0,1
39781,0,163,1,outdoor_scenes,400,300,0,Stimuli/Experimental_stims/localizer/outdoor_scenes/damian-patkowski-T-LfvX-7IVg-unsplash.jpg,0,345,2,0,1
39781,0,164,1,outdoor_scenes,400,300,0,Stimuli/Experimental_stims/localizer/outdoor_scenes/chang-qing-2YQoKbyGvDc-unsplash.jpg,0,366,2,0,1
39781,0,165,1,outdoor_scenes,400,300,1,Stimuli/Experimental_stims/localizer/outdoor_scenes/derek-mack-CcRZ4k3c6gA-unsplash.jpg,NaN,NaN,2,1,0
39781,0,166,1,outdoor_scenes,400,14000,0,Stimuli/Experimental_stims/localizer/outdoor_scenes/samsommer-vddccTqwal8-unsplash.jpg,NaN,NaN,2,1,0
39781,0,167,1,body_parts,400,300,0,Stimuli/Experimental_stims/localizer/body_parts/sincerely-media-3DZHTq_i7Qk-unsplash.jpg,NaN,NaN,2,1,0
39781,0,168,1,body_parts,400,300,1,Stimuli/Experimental_stims/localizer/body_parts/niu-niu-5HzOtV-FSlw-unsplash.jpg,NaN,NaN,2,1,0
39781,0,169,1,body_parts,400,300,0,Stimuli/Experimental_stims/localizer/body_parts/deborah-diem-ieVxpPjl1e0-unsplash.jpg,0,360,2,0,1
39781,0,170,1,body_parts,400,300,0,Stimuli/Experimental_stims/localizer/body_parts/matthew-wheeler-2_UxqsaDMmo-unsplash.jpg,0,326,2,0,1
39781,0,171,1,body_parts,400,300,0,Stimuli/Experimental_stims/localizer/body_parts/sincerely-media-pdynOoM7xmA-unsplash.jpg,0,316,2,0,1
39781,0,172,1,body_parts,400,300,0,Stimuli/Experimental_stims/localizer/body_parts/sincerely-media-9Zf6yh7RYbQ-unsplash.jpg,0,273,2,0,1
39781,0,173,1,body_parts,400,300,0,Stimuli/Experimental_stims/localizer/body_parts/adrien-king-XzBluXxBoyQ-unsplash.jpg,0,295,2,0,1
39781,0,174,1,body_parts,400,300,0,Stimuli/Experimental_stims/localizer/body_parts/jeremy-yap-TfJEi17kA0w-unsplash.jpg,0,309,2,0,1
39781,0,175,1,body_parts,400,300,0,Stimuli/Experimental_stims/localizer/body_parts/manki-kim-ZtwwncrD4A0-unsplash.jpg,0,371,2,0,1
39781,0,176,1,body_parts,400,300,0,Stimuli/Experimental_stims/localizer/body_parts/priscilla-du-preez-e6fcNpur53A-unsplash.jpg,NaN,NaN,2,1,0
39781,0,177,1,body_parts,400,300,0,Stimuli/Experimental_stims/localizer/body_parts/sincerely-media-Q7qRyaurQfo-unsplash.jpg,0,285,2,0,1
39781,0,178,1,body_parts,400,300,0,Stimuli/Experimental_stims/localizer/body_parts/ignacio-campo-tC9boyqy_40-unsplash.jpg,0,227,2,0,1
39781,0,179,1,body_parts,400,300,0,Stimuli/Experimental_stims/localizer/body_parts/louisa-potter-zd29nBmLuig-unsplash.jpg,0,272,2,0,1
39781,0,180,1,body_parts,400,300,1,Stimuli/Experimental_stims/localizer/body_parts/matheus-frade-eyzdb1C3JDM-unsplash.jpg,1,341,2,0,1
39781,0,181,1,body_parts,400,300,0,Stimuli/Experimental_stims/localizer/body_parts/xavier-foucrier-dLZUNHsT8vo-unsplash.jpg,0,242,2,0,1
39781,0,182,1,body_parts,400,300,0,Stimuli/Experimental_stims/localizer/body_parts/bady-abbas-pIySu25o0bM-unsplash.jpg,0,295,2,0,1
39781,0,183,1,body_parts,400,300,0,Stimuli/Experimental_stims/localizer/body_parts/ben-hartley-RbrsejLGVZ8-unsplash.jpg,0,245,2,0,1
39781,0,184,1,body_parts,400,300,0,Stimuli/Experimental_stims/localizer/body_parts/betzy-arosemena-YHdgnygtVCQ-unsplash.jpg,0,266,2,0,1
39781,0,185,1,body_parts,400,300,0,Stimuli/Experimental_stims/localizer/body_parts/apostolos-vamvouras-g5wKHRu2QW0-unsplash.jpg,0,256,2,0,1
39781,0,186,1,body_parts,400,14000,0,Stimuli/Experimental_stims/localizer/body_parts/nadine-shaabana-ypyaaEf2ntM-unsplash.jpg,0,213,2,0,1
39781,0,187,1,faces,400,300,0,Stimuli/Experimental_stims/localizer/faces/olena-sergienko-0TSd6uCKTKc-unsplash.jpg,NaN,NaN,2,1,0
39781,0,188,1,faces,400,300,0,Stimuli/Experimental_stims/localizer/faces/jakob-owens-lkMJcGDZLVs-unsplash.jpg,0,397,2,0,1
39781,0,189,1,faces,400,300,1,Stimuli/Experimental_stims/localizer/faces/hisu-lee-2qvxIr_DXGo-unsplash.jpg,1,394,2,0,1
39781,0,190,1,faces,400,300,0,Stimuli/Experimental_stims/localizer/faces/cdc-ddKBuWekZr0-unsplash.jpg,0,275,2,0,1
39781,0,191,1,faces,400,300,0,Stimuli/Experimental_stims/localizer/faces/aiony-haust-K0DxxljcRv0-unsplash.jpg,0,280,2,0,1
39781,0,192,1,faces,400,300,0,Stimuli/Experimental_stims/localizer/faces/drew-hays-agGIKYs4mYs-unsplash.jpg,0,261,2,0,1
39781,0,193,1,faces,400,300,0,Stimuli/Experimental_stims/localizer/faces/ayo-ogunseinde-sibVwORYqs0-unsplash.jpg,0,273,2,0,1
39781,0,194,1,faces,400,300,0,Stimuli/Experimental_stims/localizer/faces/stephanie-nakagawa-ADSKIn0ScDg-unsplash.jpg,0,279,2,0,1
39781,0,195,1,faces,400,300,0,Stimuli/Experimental_stims/localizer/faces/james-marty-h1BuNJZzpC8-unsplash.jpg,0,300,2,0,1
39781,0,196,1,faces,400,300,0,Stimuli/Experimental_stims/localizer/faces/aleksandar-popovski-Jy4ELSGPHTc-unsplash.jpg,0,266,2,0,1
39781,0,197,1,faces,400,300,0,Stimuli/Experimental_stims/localizer/faces/christian-buehner-DItYlc26zVI-unsplash.jpg,0,288,2,0,1
39781,0,198,1,faces,400,300,0,Stimuli/Experimental_stims/localizer/faces/etty-fidele-nF8eo2nX374-unsplash.jpg,0,292,2,0,1
39781,0,199,1,faces,400,300,0,Stimuli/Experimental_stims/localizer/faces/ayo-ogunseinde-6W4F62sN_yI-unsplash.jpg,0,323,2,0,1
39781,0,200,1,faces,400,300,0,Stimuli/Experimental_stims/localizer/faces/mubariz-mehdizadeh-Py8F6-hRn5o-unsplash.jpg,0,305,2,0,1
39781,0,201,1,faces,400,300,0,Stimuli/Experimental_stims/localizer/faces/jake-nackos-IF9TK5Uy-KI-unsplash.jpg,0,335,2,0,1
39781,0,202,1,faces,400,300,1,Stimuli/Experimental_stims/localizer/faces/janaya-dasiuk-_A2LZdUqHgA-unsplash.jpg,1,340,2,0,1
39781,0,203,1,faces,400,300,0,Stimuli/Experimental_stims/localizer/faces/vince-fleming-j3lf-Jn6deo-unsplash.jpg,0,273,2,0,1
39781,0,204,1,faces,400,300,0,Stimuli/Experimental_stims/localizer/faces/toa-heftiba-O3ymvT7Wf9U-unsplash.jpg,0,246,2,0,1
39781,0,205,1,faces,400,300,0,Stimuli/Experimental_stims/localizer/faces/toa-heftiba-2O1EUSTRBrY-unsplash.jpg,0,259,2,0,1
39781,0,206,1,faces,400,14000,0,Stimuli/Experimental_stims/localizer/faces/mubariz-mehdizadeh-o-wlIFT4zE4-unsplash.jpg,0,240,2,0,1
39781,0,207,1,outdoor_scenes,400,300,0,Stimuli/Experimental_stims/localizer/outdoor_scenes/pietro-de-grandi-T7K4aEPoGGk-unsplash.jpg,NaN,NaN,2,1,0
39781,0,208,1,outdoor_scenes,400,300,0,Stimuli/Experimental_stims/localizer/outdoor_scenes/niko-photos-tGTVxeOr_Rs-unsplash.jpg,0,336,2,0,1
39781,0,209,1,outdoor_scenes,400,300,0,Stimuli/Experimental_stims/localizer/outdoor_scenes/gabriel-garcia-marengo-ht9aLtovtSo-unsplash.jpg,0,301,2,0,1
39781,0,210,1,outdoor_scenes,400,300,1,Stimuli/Experimental_stims/localizer/outdoor_scenes/simon-berger-UqCnDyc_3vA-unsplash.jpg,1,370,2,0,1
39781,0,211,1,outdoor_scenes,400,300,0,Stimuli/Experimental_stims/localizer/outdoor_scenes/michael-martinelli-mFbrMEVKCkc-unsplash.jpg,0,255,2,0,1
39781,0,212,1,outdoor_scenes,400,300,0,Stimuli/Experimental_stims/localizer/outdoor_scenes/alessio-furlan-Vw3a0HgE7AM-unsplash.jpg,0,276,2,0,1
39781,0,213,1,outdoor_scenes,400,300,0,Stimuli/Experimental_stims/localizer/outdoor_scenes/john-fowler-aaIN3y2zcMQ-unsplash.jpg,0,242,2,0,1
39781,0,214,1,outdoor_scenes,400,300,0,Stimuli/Experimental_stims/localizer/outdoor_scenes/samuel-ferrara-IEHPDNk2-8w-unsplash.jpg,0,151,2,0,1
39781,0,215,1,outdoor_scenes,400,300,0,Stimuli/Experimental_stims/localizer/outdoor_scenes/willian-justen-de-vasconcellos-T_Qe4QlMIvQ-unsplash.jpg,0,260,2,0,1
39781,0,216,1,outdoor_scenes,400,300,0,Stimuli/Experimental_stims/localizer/outdoor_scenes/sebastian-unrau-v4e3JI7DDHI-unsplash.jpg,0,305,2,0,1
39781,0,217,1,outdoor_scenes,400,300,0,Stimuli/Experimental_stims/localizer/outdoor_scenes/ken-cheung-KonWFWUaAuk-unsplash.jpg,0,303,2,0,1
39781,0,218,1,outdoor_scenes,400,300,0,Stimuli/Experimental_stims/localizer/outdoor_scenes/dawid-zawila--G3rw6Y02D0-unsplash.jpg,0,364,2,0,1
39781,0,219,1,outdoor_scenes,400,300,0,Stimuli/Experimental_stims/localizer/outdoor_scenes/damian-denis-D8R_txR_0PE-unsplash.jpg,0,361,2,0,1
39781,0,220,1,outdoor_scenes,400,300,0,Stimuli/Experimental_stims/localizer/outdoor_scenes/ales-krivec-hsX9KpLLsIE-unsplash.jpg,NaN,NaN,2,1,0
39781,0,221,1,outdoor_scenes,400,300,0,Stimuli/Experimental_stims/localizer/outdoor_scenes/sean-oulashin-KMn4VEeEPR8-unsplash.jpg,0,390,2,0,1
39781,0,222,1,outdoor_scenes,400,300,0,Stimuli/Experimental_stims/localizer/outdoor_scenes/pascal-debrunner-1WQ5RZuH9xo-unsplash.jpg,0,341,2,0,1
39781,0,223,1,outdoor_scenes,400,300,0,Stimuli/Experimental_stims/localizer/outdoor_scenes/cayetano-gil-rguHxZmOF5U-unsplash.jpg,0,337,2,0,1
39781,0,224,1,outdoor_scenes,400,300,0,Stimuli/Experimental_stims/localizer/outdoor_scenes/adam-kool-ndN00KmbJ1c-unsplash.jpg,0,332,2,0,1
39781,0,225,1,outdoor_scenes,400,300,0,Stimuli/Experimental_stims/localizer/outdoor_scenes/john-mark-arnold-XNIjmb6Ax04-unsplash.jpg,0,304,2,0,1
39781,0,226,1,outdoor_scenes,400,14000,1,Stimuli/Experimental_stims/localizer/outdoor_scenes/neom-THlO6Mkf5uI-unsplash.jpg,1,391,2,0,1
39781,0,227,1,objects,400,300,0,Stimuli/Experimental_stims/localizer/objects/mockup-graphics-v_a3DWpOFc0-unsplash.jpg,NaN,NaN,2,1,0
39781,0,228,1,objects,400,300,0,Stimuli/Experimental_stims/localizer/objects/ales-krivec-ZMZHcvIVgbg-unsplash.jpg,NaN,NaN,2,1,0
39781,0,229,1,objects,400,300,0,Stimuli/Experimental_stims/localizer/objects/barrett-ward-0lMpQaXfOCg-unsplash.jpg,0,352,2,0,1
39781,0,230,1,objects,400,300,1,Stimuli/Experimental_stims/localizer/objects/nicolas-hippert-SVgX47QIUlc-unsplash.jpg,1,374,2,0,1
39781,0,231,1,objects,400,300,0,Stimuli/Experimental_stims/localizer/objects/girl-with-red-hat-Xxg-r574pLE-unsplash.jpg,0,275,2,0,1
39781,0,232,1,objects,400,300,0,Stimuli/Experimental_stims/localizer/objects/maria-lupan-Rlakka_pZMU-unsplash.jpg,0,224,2,0,1
39781,0,233,1,objects,400,300,0,Stimuli/Experimental_stims/localizer/objects/girl-with-red-hat-oJG9HOVKGMs-unsplash.jpg,NaN,NaN,2,1,0
39781,0,234,1,objects,400,300,0,Stimuli/Experimental_stims/localizer/objects/sam-moghadam-khamseh-xej3GOtAQ-o-unsplash.jpg,0,306,2,0,1
39781,0,235,1,objects,400,300,0,Stimuli/Experimental_stims/localizer/objects/chris-briggs-FobzAZJGM9M-unsplash.jpg,0,247,2,0,1
39781,0,236,1,objects,400,300,0,Stimuli/Experimental_stims/localizer/objects/miti-MZPdB1DU4a4-unsplash.jpg,0,308,2,0,1
39781,0,237,1,objects,400,300,0,Stimuli/Experimental_stims/localizer/objects/quino-al-8gWEAAXJjtI-unsplash.jpg,0,272,2,0,1
39781,0,238,1,objects,400,300,0,Stimuli/Experimental_stims/localizer/objects/florian-klauer-mk7D-4UCfmg-unsplash.jpg,0,334,2,0,1
39781,0,239,1,objects,400,300,0,Stimuli/Experimental_stims/localizer/objects/recha-oktaviani-t__61ap00Mc-unsplash.jpg,0,331,2,0,1
39781,0,240,1,objects,400,300,0,Stimuli/Experimental_stims/localizer/objects/nordwood-themes-nDd3dIkkOLo-unsplash.jpg,0,336,2,0,1
39781,0,241,1,objects,400,300,0,Stimuli/Experimental_stims/localizer/objects/ian-talmacs-ugqU0a4P18U-unsplash.jpg,0,310,2,0,1
39781,0,242,1,objects,400,300,0,Stimuli/Experimental_stims/localizer/objects/dan-cristian-padure-ezoshbcxWrM-unsplash.jpg,0,314,2,0,1
39781,0,243,1,objects,400,300,0,Stimuli/Experimental_stims/localizer/objects/markus-spiske-ANrVtttbNss-unsplash.jpg,0,328,2,0,1
39781,0,244,1,objects,400,300,0,Stimuli/Experimental_stims/localizer/objects/carlos-felipe-ramirez-mesa-x9g65MOXsPY-unsplash.jpg,0,374,2,0,1
39781,0,245,1,objects,400,300,0,Stimuli/Experimental_stims/localizer/objects/mockup-graphics-aUkYaG12Dgs-unsplash.jpg,0,290,2,0,1
39781,0,246,1,objects,400,14000,1,Stimuli/Experimental_stims/localizer/objects/charlesdeluvio-RDjZh9dqlP4-unsplash.jpg,1,383,2,0,1