PID,practice,trial,run,task,stimulus_duration,iti,is_odd_ball,path,response,rt,version,no_response,acc
36236,1,1,0,NaN,400,300,0,Stimuli/Practice_stims/Localizer/annie-spratt-g9KFpAfQ5bc-unsplash.jpg,0,76,1,0,1
36236,1,2,0,NaN,400,300,0,Stimuli/Practice_stims/Localizer/becca-tapert-sY5RjMB1KkE-unsplash.jpg,0,21,1,0,1
36236,1,3,0,NaN,400,300,1,Stimuli/Practice_stims/Localizer/charl-durand-bsfXvI25iNg-unsplash.jpg,1,125,1,0,1
36236,1,4,0,NaN,400,300,0,Stimuli/Practice_stims/Localizer/nizar-albusaidy-B2r2SWAf5CE-unsplash.jpg,0,87,1,0,1
36236,1,5,0,NaN,400,300,1,Stimuli/Practice_stims/Localizer/randy-fath-epf1tdtIIkM-unsplash.jpg,0,1,1,0,0
36236,1,6,0,NaN,400,300,0,Stimuli/Practice_stims/Localizer/yassine-khalfalli-adsQ9d_Cx0c-unsplash.jpg,1,88,1,0,0
36236,0,7,1,faces,400,300,0,Stimuli/Experimental_stims/localizer/faces/christina-wocintechchat-com-0Zx1bDv5BNY-unsplash.jpg,NaN,NaN,1,1,0
36236,0,8,1,faces,400,300,0,Stimuli/Experimental_stims/localizer/faces/jeffery-erhunse-BQMZ5ligqps-unsplash.jpg,0,193,1,0,1
36236,0,9,1,faces,400,300,0,Stimuli/Experimental_stims/localizer/faces/matheus-ferrero-W7b3eDUb_2I-unsplash.jpg,1,6,1,0,0
36236,0,10,1,faces,400,300,1,Stimuli/Experimental_stims/localizer/faces/jurica-koletic-7YVZYZeITc8-unsplash.jpg,0,238,1,0,0
36236,0,11,1,faces,400,300,0,Stimuli/Experimental_stims/localizer/faces/drew-hays-agGIKYs4mYs-unsplash.jpg,1,279,1,0,0
36236,0,12,1,faces,400,300,0,Stimuli/Experimental_stims/localizer/faces/rui-silvestre-hAMJpesMeDE-unsplash.jpg,0,109,1,0,1
36236,0,13,1,faces,400,300,0,Stimuli/Experimental_stims/localizer/faces/sean-kong--1B_y4wGs-s-unsplash.jpg,0,88,1,0,1
36236,0,14,1,faces,400,300,0,Stimuli/Experimental_stims/localizer/faces/vince-fleming-j3lf-Jn6deo-unsplash.jpg,0,2,1,0,1
36236,0,15,1,faces,400,300,0,Stimuli/Experimental_stims/localizer/faces/tyler-nix-ZGa9d1a_4tA-unsplash.jpg,NaN,NaN,1,1,0
36236,0,16,1,faces,400,300,0,Stimuli/Experimental_stims/localizer/faces/abstral-official-cyOKLSgkgCE-unsplash.jpg,1,287,1,0,0
36236,0,17,1,faces,400,300,0,Stimuli/Experimental_stims/localizer/faces/ethan-haddox-__ng3cRXmFE-unsplash.jpg,0,168,1,0,1
36236,0,18,1,faces,400,300,0,Stimuli/Experimental_stims/localizer/faces/foto-sushi-6anudmpILw4-unsplash.jpg,NaN,NaN,1,1,0
36236,0,19,1,faces,400,300,0,Stimuli/Experimental_stims/localizer/faces/christian-ferrer-8vT-DgHZDG4-unsplash.jpg,NaN,NaN,1,1,0
36236,0,20,1,faces,400,300,0,Stimuli/Experimental_stims/localizer/faces/stephanie-nakagawa-ADSKIn0ScDg-unsplash.jpg,NaN,NaN,1,1,0
36236,0,21,1,faces,400,300,1,Stimuli/Experimental_stims/localizer/faces/toa-heftiba-2O1EUSTRBrY-unsplash.jpg,NaN,NaN,1,1,0
36236,0,22,1,faces,400,300,0,Stimuli/Experimental_stims/localizer/faces/darshan-patel-QJEVpydulGs-unsplash.jpg,1,302,1,0,0
36236,0,23,1,faces,400,300,0,Stimuli/Experimental_stims/localizer/faces/mubariz-mehdizadeh-o-wlIFT4zE4-unsplash.jpg,1,34,1,0,0
36236,0,24,1,faces,400,300,0,Stimuli/Experimental_stims/localizer/faces/midas-hofstra-tidSLv-UaNs-unsplash.jpg,0,28,1,0,1
36236,0,25,1,faces,400,300,0,Stimuli/Experimental_stims/localizer/faces/toa-heftiba-O3ymvT7Wf9U-unsplash.jpg,1,66,1,0,0
36236,0,26,1,faces,400,14000,0,Stimuli/Experimental_stims/localizer/faces/katsiaryna-endruszkiewicz-BteCp6aq4GI-unsplash.jpg,1,10,1,0,0
36236,0,27,1,outdoor_scenes,400,300,0,Stimuli/Experimental_stims/localizer/outdoor_scenes/jaanus-jagomagi-FddgewYQF2M-unsplash.jpg,1,125,1,0,0
36236,0,28,1,outdoor_scenes,400,300,1,Stimuli/Experimental_stims/localizer/outdoor_scenes/v2osk-1Z2niiBPg5A-unsplash.jpg,0,67,1,0,0
36236,0,29,1,outdoor_scenes,400,300,0,Stimuli/Experimental_stims/localizer/outdoor_scenes/wai-siew-mTFyV8oNDzU-unsplash.jpg,1,299,1,0,0
36236,0,30,1,outdoor_scenes,400,300,0,Stimuli/Experimental_stims/localizer/outdoor_scenes/jay-cai-F_laX9E8CUo-unsplash.jpg,1,134,1,0,0
36236,0,31,1,outdoor_scenes,400,300,0,Stimuli/Experimental_stims/localizer/outdoor_scenes/jeremy-cai-ucYWe5mzTMU-unsplash.jpg,0,77,1,0,1
36236,0,32,1,outdoor_scenes,400,300,0,Stimuli/Experimental_stims/localizer/outdoor_scenes/erol-ahmed-d3pTF3r_hwY-unsplash.jpg,0,198,1,0,1
36236,0,33,1,outdoor_scenes,400,300,0,Stimuli/Experimental_stims/localizer/outdoor_scenes/quino-al-vmZ2DehWQ3Q-unsplash.jpg,0,235,1,0,1
36236,0,34,1,outdoor_scenes,400,300,0,Stimuli/Experimental_stims/localizer/outdoor_scenes/kenneth-thewissen-D76DklsG-5U-unsplash.jpg,0,277,1,0,1
36236,0,35,1,outdoor_scenes,400,300,0,Stimuli/Experimental_stims/localizer/outdoor_scenes/johny-goerend-U_diPCXCBxU-unsplash.jpg,1,141,1,0,0
36236,0,36,1,outdoor_scenes,400,300,0,Stimuli/Experimental_stims/localizer/outdoor_scenes/ken-cheung-KonWFWUaAuk-unsplash.jpg,1,323,1,0,0
36236,0,37,1,outdoor_scenes,400,300,0,Stimuli/Experimental_stims/localizer/outdoor_scenes/alessio-furlan-Vw3a0HgE7AM-unsplash.jpg,0,11,1,0,1
36236,0,38,1,outdoor_scenes,400,300,0,Stimuli/Experimental_stims/localizer/outdoor_scenes/ricardo-gomez-angel-dTSaC-S-7fs-unsplash.jpg,0,114,1,0,1
36236,0,39,1,outdoor_scenes,400,300,0,Stimuli/Experimental_stims/localizer/outdoor_scenes/samuel-ferrara-IEHPDNk2-8w-unsplash.jpg,0,43,1,0,1
36236,0,40,1,outdoor_scenes,400,300,0,Stimuli/Experimental_stims/localizer/outdoor_scenes/pietro-de-grandi-T7K4aEPoGGk-unsplash.jpg,0,146,1,0,1
36236,0,41,1,outdoor_scenes,400,300,0,Stimuli/Experimental_stims/localizer/outdoor_scenes/tomasz-filipek-CUWC-6MRcNg-unsplash.jpg,1,76,1,0,0
36236,0,42,1,outdoor_scenes,400,300,0,Stimuli/Experimental_stims/localizer/outdoor_scenes/cayetano-gil-rguHxZmOF5U-unsplash.jpg,1,3,1,0,0
36236,0,43,1,outdoor_scenes,400,300,0,Stimuli/Experimental_stims/localizer/outdoor_scenes/nikola-majksner-hXNGeAFOgT4-unsplash.jpg,1,56,1,0,0
36236,0,44,1,outdoor_scenes,400,300,1,Stimuli/Experimental_stims/localizer/outdoor_scenes/wil-stewart-pHANr-CpbYM-unsplash.jpg,1,2,1,0,1
36236,0,45,1,outdoor_scenes,400,300,0,Stimuli/Experimental_stims/localizer/outdoor_scenes/chang-qing-2YQoKbyGvDc-unsplash.jpg,1,122,1,0,0
36236,0,46,1,outdoor_scenes,400,14000,0,Stimuli/Experimental_stims/localizer/outdoor_scenes/solotravelgoals-7kLufxYoqWk-unsplash.jpg,1,111,1,0,0
36236,0,47,1,body_parts,400,300,0,Stimuli/Experimental_stims/localizer/body_parts/jeremy-bishop-mLd3hAaH2ns-unsplash.jpg,1,150,1,0,0
36236,0,48,1,body_parts,400,300,0,Stimuli/Experimental_stims/localizer/body_parts/lilartsy-1KkhQ8uL28g-unsplash.jpg,0,1,1,0,1
36236,0,49,1,body_parts,400,300,0,Stimuli/Experimental_stims/localizer/body_parts/toa-heftiba-qxvWnfHb3-M-unsplash.jpg,0,180,1,0,1
36236,0,50,1,body_parts,400,300,1,Stimuli/Experimental_stims/localizer/body_parts/callum-skelton-3KLMq7y46nA-unsplash.jpg,0,108,1,0,0
36236,0,51,1,body_parts,400,300,0,Stimuli/Experimental_stims/localizer/body_parts/ant-rozetsky-bXQd8JXx0vs-unsplash.jpg,0,37,1,0,1
36236,0,52,1,body_parts,400,300,0,Stimuli/Experimental_stims/localizer/body_parts/boyd-christiansen-uVj7kewrZ-o-unsplash.jpg,0,154,1,0,1
36236,0,53,1,body_parts,400,300,0,Stimuli/Experimental_stims/localizer/body_parts/helen-ast-l2iY5Sh0mTg-unsplash.jpg,1,66,1,0,0
36236,0,54,1,body_parts,400,300,0,Stimuli/Experimental_stims/localizer/body_parts/pure-julia-E9Q4bqYHtIM-unsplash.jpg,0,105,1,0,1
36236,0,55,1,body_parts,400,300,0,Stimuli/Experimental_stims/localizer/body_parts/sina-rezakhani-d1gQi0Jl05U-unsplash (1).jpg,0,226,1,0,1
36236,0,56,1,body_parts,400,300,0,Stimuli/Experimental_stims/localizer/body_parts/megan-menegay-UojxG_BJxnI-unsplash.jpg,0,100,1,0,1
36236,0,57,1,body_parts,400,300,0,Stimuli/Experimental_stims/localizer/body_parts/sincerely-media-7TBFwUQA6Xk-unsplash.jpg,0,170,1,0,1
36236,0,58,1,body_parts,400,300,0,Stimuli/Experimental_stims/localizer/body_parts/sincerely-media-pdynOoM7xmA-unsplash.jpg,0,66,1,0,1
36236,0,59,1,body_parts,400,300,0,Stimuli/Experimental_stims/localizer/body_parts/adrien-king-XzBluXxBoyQ-unsplash.jpg,0,169,1,0,1
36236,0,60,1,body_parts,400,300,1,Stimuli/Experimental_stims/localizer/body_parts/nattalia-nunez-MB9sdDfZMSg-unsplash.jpg,0,28,1,0,0
36236,0,61,1,body_parts,400,300,0,Stimuli/Experimental_stims/localizer/body_parts/louis-hansel-FjKTMRTQYAs-unsplash.jpg,0,96,1,0,1
36236,0,62,1,body_parts,400,300,0,Stimuli/Experimental_stims/localizer/body_parts/jonathan-borba-hTwH8QFkPMs-unsplash.jpg,0,89,1,0,1
36236,0,63,1,body_parts,400,300,0,Stimuli/Experimental_stims/localizer/body_parts/hu-chen-tCbTGNwrFNM-unsplash.jpg,0,100,1,0,1
36236,0,64,1,body_parts,400,300,0,Stimuli/Experimental_stims/localizer/body_parts/danie-franco-jyyNiSEcCl4-unsplash.jpg,0,124,1,0,1
36236,0,65,1,body_parts,400,300,0,Stimuli/Experimental_stims/localizer/body_parts/natalie-grainger-8uB5kFKWWkk-unsplash.jpg,0,1,1,0,1
36236,0,66,1,body_parts,400,14000,0,Stimuli/Experimental_stims/localizer/body_parts/apostolos-vamvouras-g5wKHRu2QW0-unsplash.jpg,0,137,1,0,1
36236,0,67,1,objects,400,300,1,Stimuli/Experimental_stims/localizer/objects/quaritsch-photography-lZ8onQ1wuY8-unsplash.jpg,0,204,1,0,0
36236,0,68,1,objects,400,300,0,Stimuli/Experimental_stims/localizer/objects/ana-9GmAaEMMKho-unsplash.jpg,0,33,1,0,1
36236,0,69,1,objects,400,300,0,Stimuli/Experimental_stims/localizer/objects/nordwood-themes-nDd3dIkkOLo-unsplash.jpg,1,120,1,0,0
36236,0,70,1,objects,400,300,0,Stimuli/Experimental_stims/localizer/objects/kelly-jean-cKjbI0Y00X0-unsplash.jpg,1,109,1,0,0
36236,0,71,1,objects,400,300,0,Stimuli/Experimental_stims/localizer/objects/florian-klauer-nptLmg6jqDo-unsplash.jpg,0,149,1,0,1
36236,0,72,1,objects,400,300,0,Stimuli/Experimental_stims/localizer/objects/nicolas-hippert-SVgX47QIUlc-unsplash.jpg,0,9,1,0,1
36236,0,73,1,objects,400,300,0,Stimuli/Experimental_stims/localizer/objects/florian-klauer-mk7D-4UCfmg-unsplash.jpg,0,95,1,0,1
36236,0,74,1,objects,400,300,0,Stimuli/Experimental_stims/localizer/objects/alex-lvrs-2zDw14yCYqk-unsplash.jpg,0,6,1,0,1
36236,0,75,1,objects,400,300,0,Stimuli/Experimental_stims/localizer/objects/hipster-mum-XookgCxFw6Q-unsplash.jpg,0,207,1,0,1
36236,0,76,1,objects,400,300,0,Stimuli/Experimental_stims/localizer/objects/ian-talmacs-ugqU0a4P18U-unsplash.jpg,0,107,1,0,1
36236,0,77,1,objects,400,300,0,Stimuli/Experimental_stims/localizer/objects/chris-briggs-FobzAZJGM9M-unsplash.jpg,0,43,1,0,1
36236,0,78,1,objects,400,300,0,Stimuli/Experimental_stims/localizer/objects/recha-oktaviani-t__61ap00Mc-unsplash.jpg,0,178,1,0,1
36236,0,79,1,objects,400,300,0,Stimuli/Experimental_stims/localizer/objects/jonny-caspari-wsvCC6UyKjs-unsplash.jpg,0,57,1,0,1
36236,0,80,1,objects,400,300,0,Stimuli/Experimental_stims/localizer/objects/markus-spiske-ANrVtttbNss-unsplash.jpg,0,145,1,0,1
36236,0,81,1,objects,400,300,0,Stimuli/Experimental_stims/localizer/objects/ignat-dolomanov-kFBDVnmskPA-unsplash.jpg,0,42,1,0,1
36236,0,82,1,objects,400,300,0,Stimuli/Experimental_stims/localizer/objects/mockup-graphics-Pj2PY-E-LfM-unsplash.jpg,0,115,1,0,1
36236,0,83,1,objects,400,300,0,Stimuli/Experimental_stims/localizer/objects/lance-reis-v0FYj9iioQg-unsplash.jpg,0,172,1,0,1
36236,0,84,1,objects,400,300,0,Stimuli/Experimental_stims/localizer/objects/mockup-graphics-U6ZMEefFGx8-unsplash.jpg,0,21,1,0,1
36236,0,85,1,objects,400,300,1,Stimuli/Experimental_stims/localizer/objects/engin-akyurt-bbbKzTmY2Gg-unsplash.jpg,0,78,1,0,0
36236,0,86,1,objects,400,14000,0,Stimuli/Experimental_stims/localizer/objects/eugene-chystiakov-3neSwyntbQ8-unsplash.jpg,0,146,1,0,1
36236,0,87,1,body_parts,400,300,0,Stimuli/Experimental_stims/localizer/body_parts/bady-abbas-N-VEeMnm7gE-unsplash.jpg,1,102,1,0,0
36236,0,88,1,body_parts,400,300,1,Stimuli/Experimental_stims/localizer/body_parts/sincerely-media-QyzlAZjm0r0-unsplash.jpg,0,46,1,0,0
36236,0,89,1,body_parts,400,300,0,Stimuli/Experimental_stims/localizer/body_parts/jeremy-yap-TfJEi17kA0w-unsplash.jpg,1,87,1,0,0
36236,0,90,1,body_parts,400,300,0,Stimuli/Experimental_stims/localizer/body_parts/matheus-frade-eyzdb1C3JDM-unsplash.jpg,0,32,1,0,1
36236,0,91,1,body_parts,400,300,0,Stimuli/Experimental_stims/localizer/body_parts/priscilla-du-preez-e6fcNpur53A-unsplash.jpg,0,170,1,0,1
36236,0,92,1,body_parts,400,300,0,Stimuli/Experimental_stims/localizer/body_parts/nihal-karkala-LlOfbQD-IJ0-unsplash.jpg,0,1,1,0,1
36236,0,93,1,body_parts,400,300,0,Stimuli/Experimental_stims/localizer/body_parts/niu-niu-5HzOtV-FSlw-unsplash.jpg,0,70,1,0,1
36236,0,94,1,body_parts,400,300,0,Stimuli/Experimental_stims/localizer/body_parts/igordoon-primus-CdyHqfrbGIs-unsplash.jpg,0,93,1,0,1
36236,0,95,1,body_parts,400,300,0,Stimuli/Experimental_stims/localizer/body_parts/carlos-henrique-NAOJKwZswbs-unsplash.jpg,0,85,1,0,1
36236,0,96,1,body_parts,400,300,0,Stimuli/Experimental_stims/localizer/body_parts/liv-bruce-M0oVPGsWk1E-unsplash.jpg,0,141,1,0,1
36236,0,97,1,body_parts,400,300,0,Stimuli/Experimental_stims/localizer/body_parts/sincerely-media-9Zf6yh7RYbQ-unsplash.jpg,0,86,1,0,1
36236,0,98,1,body_parts,400,300,0,Stimuli/Experimental_stims/localizer/body_parts/debby-hudson--B_757qSA4k-unsplash.jpg,0,111,1,0,1
36236,0,99,1,body_parts,400,300,0,Stimuli/Experimental_stims/localizer/body_parts/betzy-arosemena-YHdgnygtVCQ-unsplash.jpg,0,53,1,0,1
36236,0,100,1,body_parts,400,300,1,Stimuli/Experimental_stims/localizer/body_parts/sincerely-media-Q7qRyaurQfo-unsplash.jpg,0,31,1,0,0
36236,0,101,1,body_parts,400,300,0,Stimuli/Experimental_stims/localizer/body_parts/deborah-diem-ieVxpPjl1e0-unsplash.jpg,0,5,1,0,1
36236,0,102,1,body_parts,400,300,0,Stimuli/Experimental_stims/localizer/body_parts/jasper-garratt-Ng_Kl7K6V8Y-unsplash.jpg,0,88,1,0,1
36236,0,103,1,body_parts,400,300,0,Stimuli/Experimental_stims/localizer/body_parts/jan-romero-DL4DDQb8yjc-unsplash.jpg,0,82,1,0,1
36236,0,104,1,body_parts,400,300,0,Stimuli/Experimental_stims/localizer/body_parts/i-am_nah--S4OsO0c6Ts-unsplash.jpg,0,139,1,0,1
36236,0,105,1,body_parts,400,300,0,Stimuli/Experimental_stims/localizer/body_parts/semen-zhuravlev-_XxH_mV8dnk-unsplash (1).jpg,0,116,1,0,1
36236,0,106,1,body_parts,400,14000,0,Stimuli/Experimental_stims/localizer/body_parts/sippakorn-yamkasikorn-32_sJlJa5gA-unsplash.jpg,0,78,1,0,1
36236,0,107,1,objects,400,300,1,Stimuli/Experimental_stims/localizer/objects/quino-al-8gWEAAXJjtI-unsplash.jpg,0,1,1,0,0
36236,0,108,1,objects,400,300,0,Stimuli/Experimental_stims/localizer/objects/oriento-maVIpNNtmlQ-unsplash.jpg,0,26,1,0,1
36236,0,109,1,objects,400,300,0,Stimuli/Experimental_stims/localizer/objects/chris-briggs-x9TCnxNBofE-unsplash.jpg,1,50,1,0,0
36236,0,110,1,objects,400,300,0,Stimuli/Experimental_stims/localizer/objects/saif71-com-VIKdvmGUhq8-unsplash.jpg,1,26,1,0,0
36236,0,111,1,objects,400,300,0,Stimuli/Experimental_stims/localizer/objects/nicolas-hippert-kfr_eSrR08M-unsplash.jpg,0,100,1,0,1
36236,0,112,1,objects,400,300,0,Stimuli/Experimental_stims/localizer/objects/adriano-pucciarelli-BE7yaZnZX6o-unsplash.jpg,0,125,1,0,1
36236,0,113,1,objects,400,300,0,Stimuli/Experimental_stims/localizer/objects/girl-with-red-hat-Xxg-r574pLE-unsplash.jpg,0,162,1,0,1
36236,0,114,1,objects,400,300,0,Stimuli/Experimental_stims/localizer/objects/mulyadi-tWp0VSlSdMI-unsplash.jpg,0,136,1,0,1
36236,0,115,1,objects,400,300,0,Stimuli/Experimental_stims/localizer/objects/yoann-siloine-_T4w3JDm6ug-unsplash.jpg,0,51,1,0,1
36236,0,116,1,objects,400,300,0,Stimuli/Experimental_stims/localizer/objects/designecologist-hvgd0ygXuQQ-unsplash.jpg,0,122,1,0,1
36236,0,117,1,objects,400,300,0,Stimuli/Experimental_stims/localizer/objects/namroud-gorguis-FZWivbri0Xk-unsplash.jpg,0,21,1,0,1
36236,0,118,1,objects,400,300,0,Stimuli/Experimental_stims/localizer/objects/andrew-petrov-TVJqDat4MAw-unsplash.jpg,0,92,1,0,1
36236,0,119,1,objects,400,300,0,Stimuli/Experimental_stims/localizer/objects/mockup-graphics-v_a3DWpOFc0-unsplash.jpg,0,6,1,0,1
36236,0,120,1,objects,400,300,0,Stimuli/Experimental_stims/localizer/objects/carlos-felipe-ramirez-mesa-HW7bfB3ERSQ-unsplash.jpg,0,169,1,0,1
36236,0,121,1,objects,400,300,0,Stimuli/Experimental_stims/localizer/objects/dario-mendez-hnJ2VNZzbns-unsplash.jpg,0,84,1,0,1
36236,0,122,1,objects,400,300,0,Stimuli/Experimental_stims/localizer/objects/mockup-graphics-aUkYaG12Dgs-unsplash.jpg,0,0,1,0,1
36236,0,123,1,objects,400,300,0,Stimuli/Experimental_stims/localizer/objects/sam-moghadam-khamseh-kvmdsTrGOBM-unsplash.jpg,0,129,1,0,1
36236,0,124,1,objects,400,300,0,Stimuli/Experimental_stims/localizer/objects/sam-moghadam-khamseh-L_7MQsHl_aU-unsplash.jpg,0,87,1,0,1
36236,0,125,1,objects,400,300,0,Stimuli/Experimental_stims/localizer/objects/adriano-pucciarelli-Jl3S1yM8gi8-unsplash.jpg,0,1,1,0,1
36236,0,126,1,objects,400,14000,1,Stimuli/Experimental_stims/localizer/objects/dario-mendez-WmF_XLF4-Rs-unsplash.jpg,0,185,1,0,0
36236,0,127,1,outdoor_scenes,400,300,0,Stimuli/Experimental_stims/localizer/outdoor_scenes/andres-sanz-uILhNE1VcwA-unsplash.jpg,0,43,1,0,1
36236,0,128,1,outdoor_scenes,400,300,0,Stimuli/Experimental_stims/localizer/outdoor_scenes/pascal-debrunner-1WQ5RZuH9xo-unsplash.jpg,0,83,1,0,1
36236,0,129,1,outdoor_scenes,400,300,0,Stimuli/Experimental_stims/localizer/outdoor_scenes/chris-holgersson-zshyCr6HGw0-unsplash.jpg,1,125,1,0,0
36236,0,130,1,outdoor_scenes,400,300,1,Stimuli/Experimental_stims/localizer/outdoor_scenes/antoine-beauvillain-qrPqGP-SG8w-unsplash.jpg,0,21,1,0,0
36236,0,131,1,outdoor_scenes,400,300,0,Stimuli/Experimental_stims/localizer/outdoor_scenes/neom-THlO6Mkf5uI-unsplash.jpg,0,28,1,0,1
36236,0,132,1,outdoor_scenes,400,300,0,Stimuli/Experimental_stims/localizer/outdoor_scenes/john-lee-oMneOBYhJxY-unsplash.jpg,1,3,1,0,0
36236,0,133,1,outdoor_scenes,400,300,0,Stimuli/Experimental_stims/localizer/outdoor_scenes/darrell-cassell-hoCXpPUMCoE-unsplash.jpg,0,25,1,0,1
36236,0,134,1,outdoor_scenes,400,300,0,Stimuli/Experimental_stims/localizer/outdoor_scenes/jack-millard-zjyP-UYI-ko-unsplash.jpg,0,95,1,0,1
36236,0,135,1,outdoor_scenes,400,300,0,Stimuli/Experimental_stims/localizer/outdoor_scenes/simon-berger-UqCnDyc_3vA-unsplash.jpg,0,151,1,0,1
36236,0,136,1,outdoor_scenes,400,300,0,Stimuli/Experimental_stims/localizer/outdoor_scenes/michael-martinelli-mFbrMEVKCkc-unsplash.jpg,0,80,1,0,1
36236,0,137,1,outdoor_scenes,400,300,0,Stimuli/Experimental_stims/localizer/outdoor_scenes/derek-mack-CcRZ4k3c6gA-unsplash.jpg,0,42,1,0,1
36236,0,138,1,outdoor_scenes,400,300,0,Stimuli/Experimental_stims/localizer/outdoor_scenes/ales-krivec-hsX9KpLLsIE-unsplash.jpg,0,2,1,0,1
36236,0,139,1,outdoor_scenes,400,300,0,Stimuli/Experimental_stims/localizer/outdoor_scenes/marcelo-quinan-u0ZgqJD55pE-unsplash.jpg,0,184,1,0,1
36236,0,140,1,outdoor_scenes,400,300,0,Stimuli/Experimental_stims/localizer/outdoor_scenes/dawid-zawila--G3rw6Y02D0-unsplash.jpg,0,97,1,0,1
36236,0,141,1,outdoor_scenes,400,300,1,Stimuli/Experimental_stims/localizer/outdoor_scenes/luca-bravo-VowIFDxogG4-unsplash.jpg,0,249,1,0,0
36236,0,142,1,outdoor_scenes,400,300,0,Stimuli/Experimental_stims/localizer/outdoor_scenes/redd-f-Lm5rkxzgiFQ-unsplash.jpg,0,176,1,0,1
36236,0,143,1,outdoor_scenes,400,300,0,Stimuli/Experimental_stims/localizer/outdoor_scenes/john-mark-arnold-XNIjmb6Ax04-unsplash.jpg,0,7,1,0,1
36236,0,144,1,outdoor_scenes,400,300,0,Stimuli/Experimental_stims/localizer/outdoor_scenes/kalen-emsley-_LuLiJc1cdo-unsplash.jpg,0,193,1,0,1
36236,0,145,1,outdoor_scenes,400,300,0,Stimuli/Experimental_stims/localizer/outdoor_scenes/jordan-heath-4z_SYrG5mgA-unsplash.jpg,0,39,1,0,1
36236,0,146,1,outdoor_scenes,400,14000,0,Stimuli/Experimental_stims/localizer/outdoor_scenes/simon-berger-twukN12EN7c-unsplash.jpg,0,29,1,0,1
36236,0,147,1,faces,400,300,0,Stimuli/Experimental_stims/localizer/faces/nick-karvounis-JyO_szjGvUw-unsplash.jpg,1,51,1,0,0
36236,0,148,1,faces,400,300,1,Stimuli/Experimental_stims/localizer/faces/philip-martin-5aGUyCW_PJw-unsplash.jpg,1,74,1,0,1
36236,0,149,1,faces,400,300,0,Stimuli/Experimental_stims/localizer/faces/ayo-ogunseinde-6W4F62sN_yI-unsplash.jpg,1,111,1,0,0
36236,0,150,1,faces,400,300,0,Stimuli/Experimental_stims/localizer/faces/joseph-gonzalez-iFgRcqHznqg-unsplash.jpg,1,87,1,0,0
36236,0,151,1,faces,400,300,0,Stimuli/Experimental_stims/localizer/faces/ian-dooley-d1UPkiFd04A-unsplash.jpg,1,12,1,0,0
36236,0,152,1,faces,400,300,0,Stimuli/Experimental_stims/localizer/faces/ayo-ogunseinde-sibVwORYqs0-unsplash.jpg,1,87,1,0,0
36236,0,153,1,faces,400,300,0,Stimuli/Experimental_stims/localizer/faces/christopher-campbell-rDEOVtE7vOs-unsplash.jpg,1,161,1,0,0
36236,0,154,1,faces,400,300,0,Stimuli/Experimental_stims/localizer/faces/etty-fidele-nF8eo2nX374-unsplash.jpg,NaN,NaN,1,1,0
36236,0,155,1,faces,400,300,0,Stimuli/Experimental_stims/localizer/faces/carlos-vaz-KP4bxnxAilU-unsplash.jpg,0,63,1,0,1
36236,0,156,1,faces,400,300,0,Stimuli/Experimental_stims/localizer/faces/elijah-hiett-umfpFoKxIVg-unsplash.jpg,0,22,1,0,1
36236,0,157,1,faces,400,300,0,Stimuli/Experimental_stims/localizer/faces/imansyah-muhamad-putera-n4KewLKFOZw-unsplash.jpg,0,1,1,0,1
36236,0,158,1,faces,400,300,0,Stimuli/Experimental_stims/localizer/faces/ivan-dodig-R21SyyJDFgc-unsplash.jpg,0,51,1,0,1
36236,0,159,1,faces,400,300,0,Stimuli/Experimental_stims/localizer/faces/gabriel-silverio-u3WmDyKGsrY-unsplash.jpg,0,364,1,0,1
36236,0,160,1,faces,400,300,0,Stimuli/Experimental_stims/localizer/faces/rafaella-mendes-diniz-et_78QkMMQs-unsplash.jpg,0,129,1,0,1
36236,0,161,1,faces,400,300,0,Stimuli/Experimental_stims/localizer/faces/icons8-team-6LZuSzSwso0-unsplash.jpg,0,58,1,0,1
36236,0,162,1,faces,400,300,0,Stimuli/Experimental_stims/localizer/faces/olena-sergienko-0TSd6uCKTKc-unsplash.jpg,0,116,1,0,1
36236,0,163,1,faces,400,300,0,Stimuli/Experimental_stims/localizer/faces/janaya-dasiuk-_A2LZdUqHgA-unsplash.jpg,0,44,1,0,1
36236,0,164,1,faces,400,300,0,Stimuli/Experimental_stims/localizer/faces/allef-vinicius-C_1jjFJioWg-unsplash.jpg,0,134,1,0,1
36236,0,165,1,faces,400,300,1,Stimuli/Experimental_stims/localizer/faces/christian-buehner-DItYlc26zVI-unsplash.jpg,0,92,1,0,0
36236,0,166,1,faces,400,14000,0,Stimuli/Experimental_stims/localizer/faces/james-marty-h1BuNJZzpC8-unsplash.jpg,0,18,1,0,1
36236,0,167,1,objects,400,300,0,Stimuli/Experimental_stims/localizer/objects/raimond-klavins-ZdvDPXVvcKs-unsplash.jpg,NaN,NaN,1,1,0
36236,0,168,1,objects,400,300,0,Stimuli/Experimental_stims/localizer/objects/jiangxulei1990-eIzzzwtkBjU-unsplash.jpg,0,63,1,0,1
36236,0,169,1,objects,400,300,0,Stimuli/Experimental_stims/localizer/objects/nordwood-themes-E9tFH39iRPE-unsplash.jpg,0,263,1,0,1
36236,0,170,1,objects,400,300,0,Stimuli/Experimental_stims/localizer/objects/yossy-made-yulian-WaEqwDSIeTY-unsplash.jpg,0,336,1,0,1
36236,0,171,1,objects,400,300,0,Stimuli/Experimental_stims/localizer/objects/annie-spratt-fbAnIjhrOL4-unsplash.jpg,0,55,1,0,1
36236,0,172,1,objects,400,300,0,Stimuli/Experimental_stims/localizer/objects/mae-mu-yl2d0CKW130-unsplash.jpg,0,176,1,0,1
36236,0,173,1,objects,400,300,1,Stimuli/Experimental_stims/localizer/objects/carlos-felipe-ramirez-mesa-x9g65MOXsPY-unsplash.jpg,0,104,1,0,0
36236,0,174,1,objects,400,300,0,Stimuli/Experimental_stims/localizer/objects/muhammad-toqeer-NRJ9ipvz2iE-unsplash.jpg,0,78,1,0,1
36236,0,175,1,objects,400,300,0,Stimuli/Experimental_stims/localizer/objects/ryunosuke-kikuno-viEzuL1ouDs-unsplash.jpg,0,85,1,0,1
36236,0,176,1,objects,400,300,0,Stimuli/Experimental_stims/localizer/objects/girl-with-red-hat-oJG9HOVKGMs-unsplash.jpg,0,345,1,0,1
36236,0,177,1,objects,400,300,0,Stimuli/Experimental_stims/localizer/objects/miti-MZPdB1DU4a4-unsplash.jpg,0,18,1,0,1
36236,0,178,1,objects,400,300,0,Stimuli/Experimental_stims/localizer/objects/charlesdeluvio-RDjZh9dqlP4-unsplash.jpg,0,30,1,0,1
36236,0,179,1,objects,400,300,0,Stimuli/Experimental_stims/localizer/objects/petr-sidorov-3jm5TGqtULU-unsplash.jpg,0,19,1,0,1
36236,0,180,1,objects,400,300,0,Stimuli/Experimental_stims/localizer/objects/collab-media-eddtBBbaw0Y-unsplash.jpg,0,347,1,0,1
36236,0,181,1,objects,400,300,0,Stimuli/Experimental_stims/localizer/objects/barrett-ward-0lMpQaXfOCg-unsplash.jpg,0,277,1,0,1
36236,0,182,1,objects,400,300,0,Stimuli/Experimental_stims/localizer/objects/maria-lupan-Rlakka_pZMU-unsplash.jpg,0,235,1,0,1
36236,0,183,1,objects,400,300,0,Stimuli/Experimental_stims/localizer/objects/ales-krivec-ZMZHcvIVgbg-unsplash.jpg,0,198,1,0,1
36236,0,184,1,objects,400,300,1,Stimuli/Experimental_stims/localizer/objects/dan-cristian-padure-ezoshbcxWrM-unsplash.jpg,0,156,1,0,0
36236,0,185,1,objects,400,300,0,Stimuli/Experimental_stims/localizer/objects/quino-al-4SNUcHPiC8c-unsplash.jpg,0,35,1,0,1
36236,0,186,1,objects,400,14000,0,Stimuli/Experimental_stims/localizer/objects/sam-moghadam-khamseh-xej3GOtAQ-o-unsplash.jpg,0,153,1,0,1
36236,0,187,1,faces,400,300,0,Stimuli/Experimental_stims/localizer/faces/mathias-huysmans-U4JDjYmjn1g-unsplash.jpg,0,1,1,0,1
36236,0,188,1,faces,400,300,0,Stimuli/Experimental_stims/localizer/faces/brooke-cagle-Nm70URdtf3c-unsplash (1).jpg,0,150,1,0,1
36236,0,189,1,faces,400,300,1,Stimuli/Experimental_stims/localizer/faces/jakob-owens-lkMJcGDZLVs-unsplash.jpg,0,127,1,0,0
36236,0,190,1,faces,400,300,0,Stimuli/Experimental_stims/localizer/faces/art-hauntington-jzY0KRJopEI-unsplash.jpg,0,151,1,0,1
36236,0,191,1,faces,400,300,0,Stimuli/Experimental_stims/localizer/faces/juan-encalada-WC7KIHo13Fc-unsplash.jpg,0,127,1,0,1
36236,0,192,1,faces,400,300,0,Stimuli/Experimental_stims/localizer/faces/aatik-tasneem-7omHUGhhmZ0-unsplash.jpg,0,136,1,0,1
36236,0,193,1,faces,400,300,0,Stimuli/Experimental_stims/localizer/faces/prince-akachi-LWkFHEGpleE-unsplash.jpg,0,113,1,0,1
36236,0,194,1,faces,400,300,0,Stimuli/Experimental_stims/localizer/faces/whereslugo-zl_fPgiwduo-unsplash.jpg,0,57,1,0,1
36236,0,195,1,faces,400,300,0,Stimuli/Experimental_stims/localizer/faces/austin-wade-X6Uj51n5CE8-unsplash.jpg,0,13,1,0,1
36236,0,196,1,faces,400,300,0,Stimuli/Experimental_stims/localizer/faces/aiony-haust-K0DxxljcRv0-unsplash.jpg,0,7,1,0,1
36236,0,197,1,faces,400,300,0,Stimuli/Experimental_stims/localizer/faces/alexis-chloe-TYDkKEgc0Fg-unsplash.jpg,0,96,1,0,1
36236,0,198,1,faces,400,300,0,Stimuli/Experimental_stims/localizer/faces/linkedin-sales-solutions-pAtA8xe_iVM-unsplash.jpg,0,200,1,0,1
36236,0,199,1,faces,400,300,0,Stimuli/Experimental_stims/localizer/faces/cdc-ddKBuWekZr0-unsplash.jpg,0,77,1,0,1
36236,0,200,1,faces,400,300,0,Stimuli/Experimental_stims/localizer/faces/ben-scott-tWb7IsL9CnY-unsplash.jpg,0,165,1,0,1
36236,0,201,1,faces,400,300,1,Stimuli/Experimental_stims/localizer/faces/binh-ly-k_4A59MzZTY-unsplash.jpg,0,64,1,0,0
36236,0,202,1,faces,400,300,0,Stimuli/Experimental_stims/localizer/faces/jimmy-fermin-bqe0J0b26RQ-unsplash.jpg,0,180,1,0,1
36236,0,203,1,faces,400,300,0,Stimuli/Experimental_stims/localizer/faces/mubariz-mehdizadeh-Py8F6-hRn5o-unsplash.jpg,0,29,1,0,1
36236,0,204,1,faces,400,300,0,Stimuli/Experimental_stims/localizer/faces/samuel-dixon--fQ5XNOcqFQ-unsplash.jpg,0,82,1,0,1
36236,0,205,1,faces,400,300,0,Stimuli/Experimental_stims/localizer/faces/ihor-saveliev-3POm-bxWIN8-unsplash.jpg,0,70,1,0,1
36236,0,206,1,faces,400,14000,0,Stimuli/Experimental_stims/localizer/faces/aleksandar-popovski-Jy4ELSGPHTc-unsplash.jpg,0,28,1,0,1
36236,0,207,1,outdoor_scenes,400,300,0,Stimuli/Experimental_stims/localizer/outdoor_scenes/quino-al-mBQIfKlvowM-unsplash.jpg,0,194,1,0,1
36236,0,208,1,outdoor_scenes,400,300,0,Stimuli/Experimental_stims/localizer/outdoor_scenes/ryan-schroeder-Gg7uKdHFb_c-unsplash.jpg,0,120,1,0,1
36236,0,209,1,outdoor_scenes,400,300,0,Stimuli/Experimental_stims/localizer/outdoor_scenes/niko-photos-tGTVxeOr_Rs-unsplash.jpg,0,109,1,0,1
36236,0,210,1,outdoor_scenes,400,300,1,Stimuli/Experimental_stims/localizer/outdoor_scenes/tim-swaan-eOpewngf68w-unsplash (1).jpg,0,103,1,0,0
36236,0,211,1,outdoor_scenes,400,300,0,Stimuli/Experimental_stims/localizer/outdoor_scenes/quentin-zwzeorQPepo-unsplash.jpg,0,92,1,0,1
36236,0,212,1,outdoor_scenes,400,300,0,Stimuli/Experimental_stims/localizer/outdoor_scenes/sean-oulashin-KMn4VEeEPR8-unsplash.jpg,0,195,1,0,1
36236,0,213,1,outdoor_scenes,400,300,0,Stimuli/Experimental_stims/localizer/outdoor_scenes/rod-sot-X_vbB7wfv5k-unsplash.jpg,0,185,1,0,1
36236,0,214,1,outdoor_scenes,400,300,0,Stimuli/Experimental_stims/localizer/outdoor_scenes/willian-justen-de-vasconcellos-T_Qe4QlMIvQ-unsplash.jpg,0,94,1,0,1
36236,0,215,1,outdoor_scenes,400,300,0,Stimuli/Experimental_stims/localizer/outdoor_scenes/daniel-roe-lpjb_UMOyx8-unsplash.jpg,0,186,1,0,1
36236,0,216,1,outdoor_scenes,400,300,0,Stimuli/Experimental_stims/localizer/outdoor_scenes/hendrik-cornelissen--qrcOR33ErA-unsplash.jpg,0,110,1,0,1
36236,0,217,1,outdoor_scenes,400,300,0,Stimuli/Experimental_stims/localizer/outdoor_scenes/benjamin-davies-Zm2n2O7Fph4-unsplash.jpg,0,22,1,0,1
36236,0,218,1,outdoor_scenes,400,300,0,Stimuli/Experimental_stims/localizer/outdoor_scenes/john-fowler-aaIN3y2zcMQ-unsplash.jpg,0,364,1,0,1
36236,0,219,1,outdoor_scenes,400,300,0,Stimuli/Experimental_stims/localizer/outdoor_scenes/luca-micheli-ruWkmt3nU58-unsplash.jpg,0,31,1,0,1
36236,0,220,1,outdoor_scenes,400,300,0,Stimuli/Experimental_stims/localizer/outdoor_scenes/sabeer-darr-Upz-tnx2v2s-unsplash.jpg,0,22,1,0,1
36236,0,221,1,outdoor_scenes,400,300,0,Stimuli/Experimental_stims/localizer/outdoor_scenes/damian-denis-D8R_txR_0PE-unsplash.jpg,0,129,1,0,1
36236,0,222,1,outdoor_scenes,400,300,0,Stimuli/Experimental_stims/localizer/outdoor_scenes/keith-hardy-PP8Escz15d8-unsplash.jpg,0,35,1,0,1
36236,0,223,1,outdoor_scenes,400,300,1,Stimuli/Experimental_stims/localizer/outdoor_scenes/sebastian-unrau-v4e3JI7DDHI-unsplash.jpg,0,121,1,0,0
36236,0,224,1,outdoor_scenes,400,300,0,Stimuli/Experimental_stims/localizer/outdoor_scenes/mark-harpur-K2s_YE031CA-unsplash.jpg,0,52,1,0,1
36236,0,225,1,outdoor_scenes,400,300,0,Stimuli/Experimental_stims/localizer/outdoor_scenes/fabian-quintero-UWQP2mh5YJI-unsplash.jpg,0,184,1,0,1
36236,0,226,1,outdoor_scenes,400,14000,0,Stimuli/Experimental_stims/localizer/outdoor_scenes/adam-kool-ndN00KmbJ1c-unsplash.jpg,0,191,1,0,1
36236,0,227,1,body_parts,400,300,0,Stimuli/Experimental_stims/localizer/body_parts/charles-etoroma-1fo0biloDOc-unsplash.jpg,0,34,1,0,1
36236,0,228,1,body_parts,400,300,0,Stimuli/Experimental_stims/localizer/body_parts/nadine-shaabana-ypyaaEf2ntM-unsplash.jpg,0,89,1,0,1
36236,0,229,1,body_parts,400,300,0,Stimuli/Experimental_stims/localizer/body_parts/lucaxx-freire-CacZwMexYdk-unsplash.jpg,0,227,1,0,1
36236,0,230,1,body_parts,400,300,0,Stimuli/Experimental_stims/localizer/body_parts/juja-han-Z8-6EI2tYtw-unsplash.jpg,0,269,1,0,1
36236,0,231,1,body_parts,400,300,0,Stimuli/Experimental_stims/localizer/body_parts/billie-5OXE3KjDEfI-unsplash.jpg,0,164,1,0,1
36236,0,232,1,body_parts,400,300,0,Stimuli/Experimental_stims/localizer/body_parts/sincerely-media-3DZHTq_i7Qk-unsplash.jpg,0,93,1,0,1
36236,0,233,1,body_parts,400,300,1,Stimuli/Experimental_stims/localizer/body_parts/diana-polekhina-SwWjCbIIoFE-unsplash.jpg,0,132,1,0,0
36236,0,234,1,body_parts,400,300,0,Stimuli/Experimental_stims/localizer/body_parts/meghan-thompson-U1b8OB0QpIo-unsplash.jpg,0,189,1,0,1
36236,0,235,1,body_parts,400,300,0,Stimuli/Experimental_stims/localizer/body_parts/nick-page-jAGdpOGvLAA-unsplash.jpg,0,228,1,0,1
36236,0,236,1,body_parts,400,300,0,Stimuli/Experimental_stims/localizer/body_parts/luisa-denu-o5EU_lUB1rg-unsplash.jpg,0,77,1,0,1
36236,0,237,1,body_parts,400,300,0,Stimuli/Experimental_stims/localizer/body_parts/manki-kim-ZtwwncrD4A0-unsplash.jpg,0,118,1,0,1
36236,0,238,1,body_parts,400,300,0,Stimuli/Experimental_stims/localizer/body_parts/sandra-seitamaa-YCc_YAAhY3I-unsplash.jpg,0,41,1,0,1
36236,0,239,1,body_parts,400,300,0,Stimuli/Experimental_stims/localizer/body_parts/anelya-okapova-V69kmOyZ3SU-unsplash.jpg,0,210,1,0,1
36236,0,240,1,body_parts,400,300,0,Stimuli/Experimental_stims/localizer/body_parts/sydney-herron-b2W04fGuS70-unsplash.jpg,0,27,1,0,1
36236,0,241,1,body_parts,400,300,0,Stimuli/Experimental_stims/localizer/body_parts/bady-abbas-pIySu25o0bM-unsplash.jpg,0,258,1,0,1
36236,0,242,1,body_parts,400,300,0,Stimuli/Experimental_stims/localizer/body_parts/femme-spirit-RGYBDUHYbyM-unsplash.jpg,0,0,1,0,1
36236,0,243,1,body_parts,400,300,0,Stimuli/Experimental_stims/localizer/body_parts/ramesh-iyer-CRhznMXoJlc-unsplash.jpg,0,111,1,0,1
36236,0,244,1,body_parts,400,300,0,Stimuli/Experimental_stims/localizer/body_parts/matthew-wheeler-2_UxqsaDMmo-unsplash.jpg,0,71,1,0,1
36236,0,245,1,body_parts,400,300,0,Stimuli/Experimental_stims/localizer/body_parts/ben-hartley-RbrsejLGVZ8-unsplash.jpg,0,127,1,0,1
36236,0,246,1,body_parts,400,14000,1,Stimuli/Experimental_stims/localizer/body_parts/xavier-foucrier-dLZUNHsT8vo-unsplash.jpg,0,136,1,0,0