PID,practice,trial,run,task,stimulus_duration,iti,is_odd_ball,path,response,rt,version,no_response,acc
32234,1,1,0,NaN,400,300,0,Stimuli/Practice_stims/Localizer/annie-spratt-g9KFpAfQ5bc-unsplash.jpg,0,21,3,0,1
32234,1,2,0,NaN,400,300,0,Stimuli/Practice_stims/Localizer/becca-tapert-sY5RjMB1KkE-unsplash.jpg,1,66,3,0,0
32234,1,3,0,NaN,400,300,1,Stimuli/Practice_stims/Localizer/charl-durand-bsfXvI25iNg-unsplash.jpg,0,212,3,0,0
32234,1,4,0,NaN,400,300,0,Stimuli/Practice_stims/Localizer/nizar-albusaidy-B2r2SWAf5CE-unsplash.jpg,1,24,3,0,0
32234,1,5,0,NaN,400,300,1,Stimuli/Practice_stims/Localizer/randy-fath-epf1tdtIIkM-unsplash.jpg,1,21,3,0,1
32234,1,6,0,NaN,400,300,0,Stimuli/Practice_stims/Localizer/yassine-khalfalli-adsQ9d_Cx0c-unsplash.jpg,1,198,3,0,0
32234,0,7,1,objects,400,300,0,Stimuli/Experimental_stims/localizer/objects/jonny-caspari-wsvCC6UyKjs-unsplash.jpg,NaN,NaN,3,1,0
32234,0,8,1,objects,400,300,0,Stimuli/Experimental_stims/localizer/objects/charlesdeluvio-RDjZh9dqlP4-unsplash.jpg,NaN,NaN,3,1,0
32234,0,9,1,objects,400,300,0,Stimuli/Experimental_stims/localizer/objects/adriano-pucciarelli-Jl3S1yM8gi8-unsplash.jpg,NaN,NaN,3,1,0
32234,0,10,1,objects,400,300,0,Stimuli/Experimental_stims/localizer/objects/mockup-graphics-Pj2PY-E-LfM-unsplash.jpg,NaN,NaN,3,1,0
32234,0,11,1,objects,400,300,0,Stimuli/Experimental_stims/localizer/objects/chris-briggs-x9TCnxNBofE-unsplash.jpg,1,200,3,0,0
32234,0,12,1,objects,400,300,1,Stimuli/Experimental_stims/localizer/objects/ignat-dolomanov-kFBDVnmskPA-unsplash.jpg,0,161,3,0,0
32234,0,13,1,objects,400,300,0,Stimuli/Experimental_stims/localizer/objects/adriano-pucciarelli-BE7yaZnZX6o-unsplash.jpg,1,35,3,0,0
32234,0,14,1,objects,400,300,0,Stimuli/Experimental_stims/localizer/objects/eugene-chystiakov-3neSwyntbQ8-unsplash.jpg,0,134,3,0,1
32234,0,15,1,objects,400,300,0,Stimuli/Experimental_stims/localizer/objects/girl-with-red-hat-Xxg-r574pLE-unsplash.jpg,0,106,3,0,1
32234,0,16,1,objects,400,300,0,Stimuli/Experimental_stims/localizer/objects/hipster-mum-XookgCxFw6Q-unsplash.jpg,0,196,3,0,1
32234,0,17,1,objects,400,300,0,Stimuli/Experimental_stims/localizer/objects/quino-al-8gWEAAXJjtI-unsplash.jpg,0,76,3,0,1
32234,0,18,1,objects,400,300,0,Stimuli/Experimental_stims/localizer/objects/florian-klauer-mk7D-4UCfmg-unsplash.jpg,0,99,3,0,1
32234,0,19,1,objects,400,300,0,Stimuli/Experimental_stims/localizer/objects/andrew-petrov-TVJqDat4MAw-unsplash.jpg,1,104,3,0,0
32234,0,20,1,objects,400,300,0,Stimuli/Experimental_stims/localizer/objects/carlos-felipe-ramirez-mesa-HW7bfB3ERSQ-unsplash.jpg,1,28,3,0,0
32234,0,21,1,objects,400,300,1,Stimuli/Experimental_stims/localizer/objects/yoann-siloine-_T4w3JDm6ug-unsplash.jpg,1,1,3,0,1
32234,0,22,1,objects,400,300,0,Stimuli/Experimental_stims/localizer/objects/ales-krivec-ZMZHcvIVgbg-unsplash.jpg,1,59,3,0,0
32234,0,23,1,objects,400,300,0,Stimuli/Experimental_stims/localizer/objects/designecologist-hvgd0ygXuQQ-unsplash.jpg,0,284,3,0,1
32234,0,24,1,objects,400,300,0,Stimuli/Experimental_stims/localizer/objects/dario-mendez-hnJ2VNZzbns-unsplash.jpg,0,85,3,0,1
32234,0,25,1,objects,400,300,0,Stimuli/Experimental_stims/localizer/objects/muhammad-toqeer-NRJ9ipvz2iE-unsplash.jpg,NaN,NaN,3,1,0
32234,0,26,1,objects,400,14000,0,Stimuli/Experimental_stims/localizer/objects/markus-spiske-ANrVtttbNss-unsplash.jpg,1,297,3,0,0
32234,0,27,1,body_parts,400,300,0,Stimuli/Experimental_stims/localizer/body_parts/jan-romero-DL4DDQb8yjc-unsplash.jpg,NaN,NaN,3,1,0
32234,0,28,1,body_parts,400,300,0,Stimuli/Experimental_stims/localizer/body_parts/juja-han-Z8-6EI2tYtw-unsplash.jpg,NaN,NaN,3,1,0
32234,0,29,1,body_parts,400,300,1,Stimuli/Experimental_stims/localizer/body_parts/kai-wenzel-zYDJOxjaZrQ-unsplash.jpg,NaN,NaN,3,1,0
32234,0,30,1,body_parts,400,300,0,Stimuli/Experimental_stims/localizer/body_parts/igordoon-primus-CdyHqfrbGIs-unsplash.jpg,1,203,3,0,0
32234,0,31,1,body_parts,400,300,0,Stimuli/Experimental_stims/localizer/body_parts/nick-page-WTNmgJtwzGI-unsplash.jpg,1,291,3,0,0
32234,0,32,1,body_parts,400,300,0,Stimuli/Experimental_stims/localizer/body_parts/callum-skelton-3KLMq7y46nA-unsplash.jpg,0,14,3,0,1
32234,0,33,1,body_parts,400,300,0,Stimuli/Experimental_stims/localizer/body_parts/anelya-okapova-V69kmOyZ3SU-unsplash.jpg,1,115,3,0,0
32234,0,34,1,body_parts,400,300,0,Stimuli/Experimental_stims/localizer/body_parts/jeremy-yap-TfJEi17kA0w-unsplash.jpg,0,20,3,0,1
32234,0,35,1,body_parts,400,300,0,Stimuli/Experimental_stims/localizer/body_parts/debby-hudson--B_757qSA4k-unsplash.jpg,1,20,3,0,0
32234,0,36,1,body_parts,400,300,0,Stimuli/Experimental_stims/localizer/body_parts/danie-franco-jyyNiSEcCl4-unsplash.jpg,1,68,3,0,0
32234,0,37,1,body_parts,400,300,0,Stimuli/Experimental_stims/localizer/body_parts/toan-nguyen-VIeLuUFzesg-unsplash.jpg,0,8,3,0,1
32234,0,38,1,body_parts,400,300,0,Stimuli/Experimental_stims/localizer/body_parts/femme-spirit-RGYBDUHYbyM-unsplash.jpg,0,69,3,0,1
32234,0,39,1,body_parts,400,300,0,Stimuli/Experimental_stims/localizer/body_parts/sincerely-media-QyzlAZjm0r0-unsplash.jpg,1,124,3,0,0
32234,0,40,1,body_parts,400,300,0,Stimuli/Experimental_stims/localizer/body_parts/betzy-arosemena-YHdgnygtVCQ-unsplash.jpg,0,319,3,0,1
32234,0,41,1,body_parts,400,300,0,Stimuli/Experimental_stims/localizer/body_parts/nihal-karkala-LlOfbQD-IJ0-unsplash.jpg,1,70,3,0,0
32234,0,42,1,body_parts,400,300,0,Stimuli/Experimental_stims/localizer/body_parts/nattalia-nunez-MB9sdDfZMSg-unsplash.jpg,1,23,3,0,0
32234,0,43,1,body_parts,400,300,0,Stimuli/Experimental_stims/localizer/body_parts/xavier-foucrier-dLZUNHsT8vo-unsplash.jpg,1,13,3,0,0
32234,0,44,1,body_parts,400,300,0,Stimuli/Experimental_stims/localizer/body_parts/i-am_nah--S4OsO0c6Ts-unsplash.jpg,1,249,3,0,0
32234,0,45,1,body_parts,400,300,0,Stimuli/Experimental_stims/localizer/body_parts/megan-menegay-UojxG_BJxnI-unsplash.jpg,0,146,3,0,1
32234,0,46,1,body_parts,400,14000,1,Stimuli/Experimental_stims/localizer/body_parts/priscilla-du-preez-e6fcNpur53A-unsplash.jpg,0,147,3,0,0
32234,0,47,1,faces,400,300,0,Stimuli/Experimental_stims/localizer/faces/jake-nackos-IF9TK5Uy-KI-unsplash.jpg,NaN,NaN,3,1,0
32234,0,48,1,faces,400,300,0,Stimuli/Experimental_stims/localizer/faces/ethan-haddox-__ng3cRXmFE-unsplash.jpg,NaN,NaN,3,1,0
32234,0,49,1,faces,400,300,1,Stimuli/Experimental_stims/localizer/faces/samuel-dixon--fQ5XNOcqFQ-unsplash.jpg,NaN,NaN,3,1,0
32234,0,50,1,faces,400,300,0,Stimuli/Experimental_stims/localizer/faces/jakob-owens-lkMJcGDZLVs-unsplash.jpg,NaN,NaN,3,1,0
32234,0,51,1,faces,400,300,0,Stimuli/Experimental_stims/localizer/faces/joseph-gonzalez-iFgRcqHznqg-unsplash.jpg,NaN,NaN,3,1,0
32234,0,52,1,faces,400,300,0,Stimuli/Experimental_stims/localizer/faces/tyler-nix-ZGa9d1a_4tA-unsplash.jpg,1,229,3,0,0
32234,0,53,1,faces,400,300,0,Stimuli/Experimental_stims/localizer/faces/allef-vinicius-C_1jjFJioWg-unsplash.jpg,NaN,NaN,3,1,0
32234,0,54,1,faces,400,300,0,Stimuli/Experimental_stims/localizer/faces/midas-hofstra-tidSLv-UaNs-unsplash.jpg,NaN,NaN,3,1,0
32234,0,55,1,faces,400,300,0,Stimuli/Experimental_stims/localizer/faces/elijah-hiett-umfpFoKxIVg-unsplash.jpg,1,185,3,0,0
32234,0,56,1,faces,400,300,0,Stimuli/Experimental_stims/localizer/faces/austin-wade-X6Uj51n5CE8-unsplash.jpg,1,366,3,0,0
32234,0,57,1,faces,400,300,0,Stimuli/Experimental_stims/localizer/faces/mathias-huysmans-U4JDjYmjn1g-unsplash.jpg,0,201,3,0,1
32234,0,58,1,faces,400,300,0,Stimuli/Experimental_stims/localizer/faces/ian-dooley-d1UPkiFd04A-unsplash.jpg,0,8,3,0,1
32234,0,59,1,faces,400,300,0,Stimuli/Experimental_stims/localizer/faces/icons8-team-6LZuSzSwso0-unsplash.jpg,1,34,3,0,0
32234,0,60,1,faces,400,300,0,Stimuli/Experimental_stims/localizer/faces/alexis-chloe-TYDkKEgc0Fg-unsplash.jpg,0,15,3,0,1
32234,0,61,1,faces,400,300,0,Stimuli/Experimental_stims/localizer/faces/prince-akachi-LWkFHEGpleE-unsplash.jpg,1,55,3,0,0
32234,0,62,1,faces,400,300,1,Stimuli/Experimental_stims/localizer/faces/katsiaryna-endruszkiewicz-BteCp6aq4GI-unsplash.jpg,0,280,3,0,0
32234,0,63,1,faces,400,300,0,Stimuli/Experimental_stims/localizer/faces/hassan-khan-EGVccebWodM-unsplash.jpg,1,70,3,0,0
32234,0,64,1,faces,400,300,0,Stimuli/Experimental_stims/localizer/faces/linkedin-sales-solutions-pAtA8xe_iVM-unsplash.jpg,0,38,3,0,1
32234,0,65,1,faces,400,300,0,Stimuli/Experimental_stims/localizer/faces/philip-martin-5aGUyCW_PJw-unsplash.jpg,1,50,3,0,0
32234,0,66,1,faces,400,14000,0,Stimuli/Experimental_stims/localizer/faces/christina-wocintechchat-com-0Zx1bDv5BNY-unsplash.jpg,0,138,3,0,1
32234,0,67,1,body_parts,400,300,0,Stimuli/Experimental_stims/localizer/body_parts/bady-abbas-N-VEeMnm7gE-unsplash.jpg,NaN,NaN,3,1,0
32234,0,68,1,body_parts,400,300,0,Stimuli/Experimental_stims/localizer/body_parts/hu-chen-tCbTGNwrFNM-unsplash.jpg,NaN,NaN,3,1,0
32234,0,69,1,body_parts,400,300,0,Stimuli/Experimental_stims/localizer/body_parts/toa-heftiba-qxvWnfHb3-M-unsplash.jpg,NaN,NaN,3,1,0
32234,0,70,1,body_parts,400,300,0,Stimuli/Experimental_stims/localizer/body_parts/matthew-wheeler-2_UxqsaDMmo-unsplash.jpg,NaN,NaN,3,1,0
32234,0,71,1,body_parts,400,300,0,Stimuli/Experimental_stims/localizer/body_parts/billie-5OXE3KjDEfI-unsplash.jpg,NaN,NaN,3,1,0
32234,0,72,1,body_parts,400,300,1,Stimuli/Experimental_stims/localizer/body_parts/lilartsy-1KkhQ8uL28g-unsplash.jpg,NaN,NaN,3,1,0
32234,0,73,1,body_parts,400,300,0,Stimuli/Experimental_stims/localizer/body_parts/sincerely-media-Q7qRyaurQfo-unsplash.jpg,NaN,NaN,3,1,0
32234,0,74,1,body_parts,400,300,0,Stimuli/Experimental_stims/localizer/body_parts/semen-zhuravlev-_XxH_mV8dnk-unsplash (1).jpg,NaN,NaN,3,1,0
32234,0,75,1,body_parts,400,300,0,Stimuli/Experimental_stims/localizer/body_parts/sincerely-media-7TBFwUQA6Xk-unsplash.jpg,NaN,NaN,3,1,0
32234,0,76,1,body_parts,400,300,0,Stimuli/Experimental_stims/localizer/body_parts/liv-bruce-M0oVPGsWk1E-unsplash.jpg,1,73,3,0,0
32234,0,77,1,body_parts,400,300,0,Stimuli/Experimental_stims/localizer/body_parts/louis-hansel-FjKTMRTQYAs-unsplash.jpg,1,100,3,0,0
32234,0,78,1,body_parts,400,300,0,Stimuli/Experimental_stims/localizer/body_parts/lucaxx-freire-CacZwMexYdk-unsplash.jpg,0,10,3,0,1
32234,0,79,1,body_parts,400,300,0,Stimuli/Experimental_stims/localizer/body_parts/sippakorn-yamkasikorn-32_sJlJa5gA-unsplash.jpg,0,5,3,0,1
32234,0,80,1,body_parts,400,300,0,Stimuli/Experimental_stims/localizer/body_parts/charles-etoroma-1fo0biloDOc-unsplash.jpg,0,204,3,0,1
32234,0,81,1,body_parts,400,300,0,Stimuli/Experimental_stims/localizer/body_parts/nadine-shaabana-ypyaaEf2ntM-unsplash.jpg,NaN,NaN,3,1,0
32234,0,82,1,body_parts,400,300,1,Stimuli/Experimental_stims/localizer/body_parts/diana-polekhina-SwWjCbIIoFE-unsplash.jpg,1,34,3,0,1
32234,0,83,1,body_parts,400,300,0,Stimuli/Experimental_stims/localizer/body_parts/deborah-diem-ieVxpPjl1e0-unsplash.jpg,1,52,3,0,0
32234,0,84,1,body_parts,400,300,0,Stimuli/Experimental_stims/localizer/body_parts/sincerely-media-pdynOoM7xmA-unsplash.jpg,0,105,3,0,1
32234,0,85,1,body_parts,400,300,0,Stimuli/Experimental_stims/localizer/body_parts/ben-hartley-RbrsejLGVZ8-unsplash.jpg,0,91,3,0,1
32234,0,86,1,body_parts,400,14000,0,Stimuli/Experimental_stims/localizer/body_parts/apostolos-vamvouras-g5wKHRu2QW0-unsplash.jpg,0,2,3,0,1
32234,0,87,1,objects,400,300,1,Stimuli/Experimental_stims/localizer/objects/kelly-jean-cKjbI0Y00X0-unsplash.jpg,0,306,3,0,0
32234,0,88,1,objects,400,300,0,Stimuli/Experimental_stims/localizer/objects/sam-moghadam-khamseh-L_7MQsHl_aU-unsplash.jpg,1,177,3,0,0
32234,0,89,1,objects,400,300,0,Stimuli/Experimental_stims/localizer/objects/lance-reis-v0FYj9iioQg-unsplash.jpg,1,138,3,0,0
32234,0,90,1,objects,400,300,0,Stimuli/Experimental_stims/localizer/objects/ryunosuke-kikuno-viEzuL1ouDs-unsplash.jpg,1,58,3,0,0
32234,0,91,1,objects,400,300,0,Stimuli/Experimental_stims/localizer/objects/carlos-felipe-ramirez-mesa-x9g65MOXsPY-unsplash.jpg,1,127,3,0,0
32234,0,92,1,objects,400,300,0,Stimuli/Experimental_stims/localizer/objects/saif71-com-VIKdvmGUhq8-unsplash.jpg,1,45,3,0,0
32234,0,93,1,objects,400,300,0,Stimuli/Experimental_stims/localizer/objects/barrett-ward-0lMpQaXfOCg-unsplash.jpg,1,26,3,0,0
32234,0,94,1,objects,400,300,0,Stimuli/Experimental_stims/localizer/objects/namroud-gorguis-FZWivbri0Xk-unsplash.jpg,0,182,3,0,1
32234,0,95,1,objects,400,300,0,Stimuli/Experimental_stims/localizer/objects/collab-media-eddtBBbaw0Y-unsplash.jpg,0,178,3,0,1
32234,0,96,1,objects,400,300,0,Stimuli/Experimental_stims/localizer/objects/dan-cristian-padure-ezoshbcxWrM-unsplash.jpg,0,275,3,0,1
32234,0,97,1,objects,400,300,0,Stimuli/Experimental_stims/localizer/objects/florian-klauer-nptLmg6jqDo-unsplash.jpg,0,20,3,0,1
32234,0,98,1,objects,400,300,0,Stimuli/Experimental_stims/localizer/objects/nordwood-themes-E9tFH39iRPE-unsplash.jpg,1,351,3,0,0
32234,0,99,1,objects,400,300,0,Stimuli/Experimental_stims/localizer/objects/quaritsch-photography-lZ8onQ1wuY8-unsplash.jpg,0,258,3,0,1
32234,0,100,1,objects,400,300,0,Stimuli/Experimental_stims/localizer/objects/ana-9GmAaEMMKho-unsplash.jpg,1,221,3,0,0
32234,0,101,1,objects,400,300,0,Stimuli/Experimental_stims/localizer/objects/sam-moghadam-khamseh-kvmdsTrGOBM-unsplash.jpg,1,95,3,0,0
32234,0,102,1,objects,400,300,0,Stimuli/Experimental_stims/localizer/objects/petr-sidorov-3jm5TGqtULU-unsplash.jpg,0,2,3,0,1
32234,0,103,1,objects,400,300,1,Stimuli/Experimental_stims/localizer/objects/maria-lupan-Rlakka_pZMU-unsplash.jpg,0,141,3,0,0
32234,0,104,1,objects,400,300,0,Stimuli/Experimental_stims/localizer/objects/raimond-klavins-ZdvDPXVvcKs-unsplash.jpg,1,111,3,0,0
32234,0,105,1,objects,400,300,0,Stimuli/Experimental_stims/localizer/objects/chris-briggs-FobzAZJGM9M-unsplash.jpg,0,98,3,0,1
32234,0,106,1,objects,400,14000,0,Stimuli/Experimental_stims/localizer/objects/recha-oktaviani-t__61ap00Mc-unsplash.jpg,1,316,3,0,0
32234,0,107,1,faces,400,300,0,Stimuli/Experimental_stims/localizer/faces/ivana-cajina-_7LbC5J-jw4-unsplash.jpg,0,90,3,0,1
32234,0,108,1,faces,400,300,0,Stimuli/Experimental_stims/localizer/faces/foto-sushi-6anudmpILw4-unsplash.jpg,0,104,3,0,1
32234,0,109,1,faces,400,300,0,Stimuli/Experimental_stims/localizer/faces/olena-sergienko-0TSd6uCKTKc-unsplash.jpg,0,151,3,0,1
32234,0,110,1,faces,400,300,0,Stimuli/Experimental_stims/localizer/faces/brooke-cagle-Nm70URdtf3c-unsplash (1).jpg,1,115,3,0,0
32234,0,111,1,faces,400,300,0,Stimuli/Experimental_stims/localizer/faces/imansyah-muhamad-putera-n4KewLKFOZw-unsplash.jpg,0,109,3,0,1
32234,0,112,1,faces,400,300,1,Stimuli/Experimental_stims/localizer/faces/jeffery-erhunse-vp9mRauo68c-unsplash.jpg,0,283,3,0,0
32234,0,113,1,faces,400,300,0,Stimuli/Experimental_stims/localizer/faces/nick-karvounis-JyO_szjGvUw-unsplash.jpg,1,2,3,0,0
32234,0,114,1,faces,400,300,0,Stimuli/Experimental_stims/localizer/faces/jurica-koletic-7YVZYZeITc8-unsplash.jpg,1,176,3,0,0
32234,0,115,1,faces,400,300,0,Stimuli/Experimental_stims/localizer/faces/whereslugo-zl_fPgiwduo-unsplash.jpg,1,11,3,0,0
32234,0,116,1,faces,400,300,0,Stimuli/Experimental_stims/localizer/faces/christian-buehner-DItYlc26zVI-unsplash.jpg,0,98,3,0,1
32234,0,117,1,faces,400,300,0,Stimuli/Experimental_stims/localizer/faces/pavel-anoshin-d0peGya6R5Y-unsplash.jpg,1,102,3,0,0
32234,0,118,1,faces,400,300,0,Stimuli/Experimental_stims/localizer/faces/jimmy-fermin-bqe0J0b26RQ-unsplash.jpg,0,62,3,0,1
32234,0,119,1,faces,400,300,0,Stimuli/Experimental_stims/localizer/faces/christian-ferrer-8vT-DgHZDG4-unsplash.jpg,1,26,3,0,0
32234,0,120,1,faces,400,300,0,Stimuli/Experimental_stims/localizer/faces/jeffery-erhunse-BQMZ5ligqps-unsplash.jpg,0,439,3,0,1
32234,0,121,1,faces,400,300,0,Stimuli/Experimental_stims/localizer/faces/christopher-campbell-rDEOVtE7vOs-unsplash.jpg,0,67,3,0,1
32234,0,122,1,faces,400,300,0,Stimuli/Experimental_stims/localizer/faces/chanvre-quebec-mXu1SpzHq6w-unsplash.jpg,NaN,NaN,3,1,0
32234,0,123,1,faces,400,300,0,Stimuli/Experimental_stims/localizer/faces/gabriel-silverio-u3WmDyKGsrY-unsplash.jpg,1,86,3,0,0
32234,0,124,1,faces,400,300,0,Stimuli/Experimental_stims/localizer/faces/aleksandar-popovski-Jy4ELSGPHTc-unsplash.jpg,0,26,3,0,1
32234,0,125,1,faces,400,300,0,Stimuli/Experimental_stims/localizer/faces/ivan-dodig-R21SyyJDFgc-unsplash.jpg,1,4,3,0,0
32234,0,126,1,faces,400,14000,1,Stimuli/Experimental_stims/localizer/faces/hisu-lee-2qvxIr_DXGo-unsplash.jpg,0,406,3,0,0
32234,0,127,1,body_parts,400,300,0,Stimuli/Experimental_stims/localizer/body_parts/davidcohen-qghuLqyh3nE-unsplash.jpg,1,100,3,0,0
32234,0,128,1,body_parts,400,300,1,Stimuli/Experimental_stims/localizer/body_parts/jeremy-bishop-mLd3hAaH2ns-unsplash.jpg,0,108,3,0,0
32234,0,129,1,body_parts,400,300,0,Stimuli/Experimental_stims/localizer/body_parts/david-fanuel-qnV8X7OViNY-unsplash.jpg,0,3,3,0,1
32234,0,130,1,body_parts,400,300,0,Stimuli/Experimental_stims/localizer/body_parts/helen-ast-l2iY5Sh0mTg-unsplash.jpg,1,57,3,0,0
32234,0,131,1,body_parts,400,300,0,Stimuli/Experimental_stims/localizer/body_parts/boyd-christiansen-uVj7kewrZ-o-unsplash.jpg,0,226,3,0,1
32234,0,132,1,body_parts,400,300,0,Stimuli/Experimental_stims/localizer/body_parts/freestocks-qw9LFf5T790-unsplash.jpg,0,29,3,0,1
32234,0,133,1,body_parts,400,300,0,Stimuli/Experimental_stims/localizer/body_parts/marcel-fagin-OUYg0Q3ec-Y-unsplash.jpg,1,106,3,0,0
32234,0,134,1,body_parts,400,300,0,Stimuli/Experimental_stims/localizer/body_parts/ramesh-iyer-CRhznMXoJlc-unsplash.jpg,0,132,3,0,1
32234,0,135,1,body_parts,400,300,0,Stimuli/Experimental_stims/localizer/body_parts/sandra-seitamaa-YCc_YAAhY3I-unsplash.jpg,0,91,3,0,1
32234,0,136,1,body_parts,400,300,0,Stimuli/Experimental_stims/localizer/body_parts/meghan-thompson-U1b8OB0QpIo-unsplash.jpg,0,184,3,0,1
32234,0,137,1,body_parts,400,300,0,Stimuli/Experimental_stims/localizer/body_parts/louisa-potter-zd29nBmLuig-unsplash.jpg,0,35,3,0,1
32234,0,138,1,body_parts,400,300,0,Stimuli/Experimental_stims/localizer/body_parts/pure-julia-9lVaya31sMk-unsplash.jpg,0,52,3,0,1
32234,0,139,1,body_parts,400,300,0,Stimuli/Experimental_stims/localizer/body_parts/pure-julia-E9Q4bqYHtIM-unsplash.jpg,0,144,3,0,1
32234,0,140,1,body_parts,400,300,0,Stimuli/Experimental_stims/localizer/body_parts/niu-niu-5HzOtV-FSlw-unsplash.jpg,1,67,3,0,0
32234,0,141,1,body_parts,400,300,1,Stimuli/Experimental_stims/localizer/body_parts/sincerely-media-3DZHTq_i7Qk-unsplash.jpg,0,29,3,0,0
32234,0,142,1,body_parts,400,300,0,Stimuli/Experimental_stims/localizer/body_parts/sina-rezakhani-d1gQi0Jl05U-unsplash (1).jpg,0,211,3,0,1
32234,0,143,1,body_parts,400,300,0,Stimuli/Experimental_stims/localizer/body_parts/natalie-grainger-8uB5kFKWWkk-unsplash.jpg,0,3,3,0,1
32234,0,144,1,body_parts,400,300,0,Stimuli/Experimental_stims/localizer/body_parts/ignacio-campo-tC9boyqy_40-unsplash.jpg,1,218,3,0,0
32234,0,145,1,body_parts,400,300,0,Stimuli/Experimental_stims/localizer/body_parts/jasper-garratt-Ng_Kl7K6V8Y-unsplash.jpg,0,212,3,0,1
32234,0,146,1,body_parts,400,14000,0,Stimuli/Experimental_stims/localizer/body_parts/matheus-frade-eyzdb1C3JDM-unsplash.jpg,1,136,3,0,0
32234,0,147,1,outdoor_scenes,400,300,0,Stimuli/Experimental_stims/localizer/outdoor_scenes/keith-hardy-UVyavSwslOg-unsplash.jpg,0,40,3,0,1
32234,0,148,1,outdoor_scenes,400,300,0,Stimuli/Experimental_stims/localizer/outdoor_scenes/simon-berger-UqCnDyc_3vA-unsplash.jpg,1,3,3,0,0
32234,0,149,1,outdoor_scenes,400,300,1,Stimuli/Experimental_stims/localizer/outdoor_scenes/quentin-zwzeorQPepo-unsplash.jpg,0,33,3,0,0
32234,0,150,1,outdoor_scenes,400,300,0,Stimuli/Experimental_stims/localizer/outdoor_scenes/derek-mack-CcRZ4k3c6gA-unsplash.jpg,0,169,3,0,1
32234,0,151,1,outdoor_scenes,400,300,0,Stimuli/Experimental_stims/localizer/outdoor_scenes/solotravelgoals-7kLufxYoqWk-unsplash.jpg,1,154,3,0,0
32234,0,152,1,outdoor_scenes,400,300,0,Stimuli/Experimental_stims/localizer/outdoor_scenes/ales-krivec-hsX9KpLLsIE-unsplash.jpg,0,23,3,0,1
32234,0,153,1,outdoor_scenes,400,300,0,Stimuli/Experimental_stims/localizer/outdoor_scenes/kalen-emsley-_LuLiJc1cdo-unsplash.jpg,0,52,3,0,1
32234,0,154,1,outdoor_scenes,400,300,0,Stimuli/Experimental_stims/localizer/outdoor_scenes/tim-swaan-eOpewngf68w-unsplash (1).jpg,0,223,3,0,1
32234,0,155,1,outdoor_scenes,400,300,0,Stimuli/Experimental_stims/localizer/outdoor_scenes/jack-millard-zjyP-UYI-ko-unsplash.jpg,0,1,3,0,1
32234,0,156,1,outdoor_scenes,400,300,0,Stimuli/Experimental_stims/localizer/outdoor_scenes/sebastian-unrau-v4e3JI7DDHI-unsplash.jpg,NaN,NaN,3,1,0
32234,0,157,1,outdoor_scenes,400,300,0,Stimuli/Experimental_stims/localizer/outdoor_scenes/luca-micheli-ruWkmt3nU58-unsplash.jpg,NaN,NaN,3,1,0
32234,0,158,1,outdoor_scenes,400,300,0,Stimuli/Experimental_stims/localizer/outdoor_scenes/cosmic-timetraveler-pYyOZ8q7AII-unsplash.jpg,0,152,3,0,1
32234,0,159,1,outdoor_scenes,400,300,0,Stimuli/Experimental_stims/localizer/outdoor_scenes/chris-holgersson-zshyCr6HGw0-unsplash.jpg,0,46,3,0,1
32234,0,160,1,outdoor_scenes,400,300,1,Stimuli/Experimental_stims/localizer/outdoor_scenes/daniel-roe-lpjb_UMOyx8-unsplash.jpg,1,58,3,0,1
32234,0,161,1,outdoor_scenes,400,300,0,Stimuli/Experimental_stims/localizer/outdoor_scenes/michael-martinelli-mFbrMEVKCkc-unsplash.jpg,0,37,3,0,1
32234,0,162,1,outdoor_scenes,400,300,0,Stimuli/Experimental_stims/localizer/outdoor_scenes/damian-patkowski-T-LfvX-7IVg-unsplash.jpg,1,115,3,0,0
32234,0,163,1,outdoor_scenes,400,300,0,Stimuli/Experimental_stims/localizer/outdoor_scenes/wai-siew-mTFyV8oNDzU-unsplash.jpg,0,147,3,0,1
32234,0,164,1,outdoor_scenes,400,300,0,Stimuli/Experimental_stims/localizer/outdoor_scenes/redd-f-Lm5rkxzgiFQ-unsplash.jpg,1,20,3,0,0
32234,0,165,1,outdoor_scenes,400,300,0,Stimuli/Experimental_stims/localizer/outdoor_scenes/keith-hardy-PP8Escz15d8-unsplash.jpg,0,86,3,0,1
32234,0,166,1,outdoor_scenes,400,14000,0,Stimuli/Experimental_stims/localizer/outdoor_scenes/antoine-beauvillain-qrPqGP-SG8w-unsplash.jpg,1,165,3,0,0
32234,0,167,1,objects,400,300,0,Stimuli/Experimental_stims/localizer/objects/nordwood-themes-nDd3dIkkOLo-unsplash.jpg,1,22,3,0,0
32234,0,168,1,objects,400,300,0,Stimuli/Experimental_stims/localizer/objects/alex-lvrs-2zDw14yCYqk-unsplash.jpg,1,28,3,0,0
32234,0,169,1,objects,400,300,0,Stimuli/Experimental_stims/localizer/objects/mulyadi-tWp0VSlSdMI-unsplash.jpg,0,5,3,0,1
32234,0,170,1,objects,400,300,0,Stimuli/Experimental_stims/localizer/objects/yossy-made-yulian-WaEqwDSIeTY-unsplash.jpg,1,82,3,0,0
32234,0,171,1,objects,400,300,0,Stimuli/Experimental_stims/localizer/objects/engin-akyurt-bbbKzTmY2Gg-unsplash.jpg,0,29,3,0,1
32234,0,172,1,objects,400,300,0,Stimuli/Experimental_stims/localizer/objects/mockup-graphics-aUkYaG12Dgs-unsplash.jpg,1,222,3,0,0
32234,0,173,1,objects,400,300,1,Stimuli/Experimental_stims/localizer/objects/quino-al-4SNUcHPiC8c-unsplash.jpg,1,75,3,0,1
32234,0,174,1,objects,400,300,0,Stimuli/Experimental_stims/localizer/objects/ian-talmacs-ugqU0a4P18U-unsplash.jpg,0,19,3,0,1
32234,0,175,1,objects,400,300,0,Stimuli/Experimental_stims/localizer/objects/nicolas-hippert-kfr_eSrR08M-unsplash.jpg,0,14,3,0,1
32234,0,176,1,objects,400,300,0,Stimuli/Experimental_stims/localizer/objects/jiangxulei1990-eIzzzwtkBjU-unsplash.jpg,0,3,3,0,1
32234,0,177,1,objects,400,300,0,Stimuli/Experimental_stims/localizer/objects/miti-MZPdB1DU4a4-unsplash.jpg,0,34,3,0,1
32234,0,178,1,objects,400,300,0,Stimuli/Experimental_stims/localizer/objects/mockup-graphics-v_a3DWpOFc0-unsplash.jpg,0,5,3,0,1
32234,0,179,1,objects,400,300,0,Stimuli/Experimental_stims/localizer/objects/oriento-maVIpNNtmlQ-unsplash.jpg,0,133,3,0,1
32234,0,180,1,objects,400,300,0,Stimuli/Experimental_stims/localizer/objects/annie-spratt-fbAnIjhrOL4-unsplash.jpg,1,16,3,0,0
32234,0,181,1,objects,400,300,0,Stimuli/Experimental_stims/localizer/objects/mockup-graphics-U6ZMEefFGx8-unsplash.jpg,1,83,3,0,0
32234,0,182,1,objects,400,300,0,Stimuli/Experimental_stims/localizer/objects/girl-with-red-hat-oJG9HOVKGMs-unsplash.jpg,0,108,3,0,1
32234,0,183,1,objects,400,300,1,Stimuli/Experimental_stims/localizer/objects/mae-mu-yl2d0CKW130-unsplash.jpg,0,180,3,0,0
32234,0,184,1,objects,400,300,0,Stimuli/Experimental_stims/localizer/objects/sam-moghadam-khamseh-xej3GOtAQ-o-unsplash.jpg,1,213,3,0,0
32234,0,185,1,objects,400,300,0,Stimuli/Experimental_stims/localizer/objects/nicolas-hippert-SVgX47QIUlc-unsplash.jpg,0,198,3,0,1
32234,0,186,1,objects,400,14000,0,Stimuli/Experimental_stims/localizer/objects/dario-mendez-WmF_XLF4-Rs-unsplash.jpg,1,133,3,0,0
32234,0,187,1,outdoor_scenes,400,300,0,Stimuli/Experimental_stims/localizer/outdoor_scenes/quino-al-vmZ2DehWQ3Q-unsplash.jpg,0,284,3,0,1
32234,0,188,1,outdoor_scenes,400,300,0,Stimuli/Experimental_stims/localizer/outdoor_scenes/jordan-heath-4z_SYrG5mgA-unsplash.jpg,0,129,3,0,1
32234,0,189,1,outdoor_scenes,400,300,0,Stimuli/Experimental_stims/localizer/outdoor_scenes/niko-photos-tGTVxeOr_Rs-unsplash.jpg,0,214,3,0,1
32234,0,190,1,outdoor_scenes,400,300,1,Stimuli/Experimental_stims/localizer/outdoor_scenes/willian-justen-de-vasconcellos-T_Qe4QlMIvQ-unsplash.jpg,0,197,3,0,0
32234,0,191,1,outdoor_scenes,400,300,0,Stimuli/Experimental_stims/localizer/outdoor_scenes/pascal-debrunner-1WQ5RZuH9xo-unsplash.jpg,0,7,3,0,1
32234,0,192,1,outdoor_scenes,400,300,0,Stimuli/Experimental_stims/localizer/outdoor_scenes/luca-bravo-VowIFDxogG4-unsplash.jpg,0,154,3,0,1
32234,0,193,1,outdoor_scenes,400,300,0,Stimuli/Experimental_stims/localizer/outdoor_scenes/kenneth-thewissen-D76DklsG-5U-unsplash.jpg,0,47,3,0,1
32234,0,194,1,outdoor_scenes,400,300,0,Stimuli/Experimental_stims/localizer/outdoor_scenes/marcelo-quinan-u0ZgqJD55pE-unsplash.jpg,0,358,3,0,1
32234,0,195,1,outdoor_scenes,400,300,0,Stimuli/Experimental_stims/localizer/outdoor_scenes/kace-rodriguez-p3OzJuT_Dks-unsplash.jpg,1,37,3,0,0
32234,0,196,1,outdoor_scenes,400,300,0,Stimuli/Experimental_stims/localizer/outdoor_scenes/ryan-schroeder-Gg7uKdHFb_c-unsplash.jpg,0,152,3,0,1
32234,0,197,1,outdoor_scenes,400,300,0,Stimuli/Experimental_stims/localizer/outdoor_scenes/sabeer-darr-Upz-tnx2v2s-unsplash.jpg,1,252,3,0,0
32234,0,198,1,outdoor_scenes,400,300,0,Stimuli/Experimental_stims/localizer/outdoor_scenes/dave-hoefler-lsoogGC_5dg-unsplash.jpg,0,24,3,0,1
32234,0,199,1,outdoor_scenes,400,300,0,Stimuli/Experimental_stims/localizer/outdoor_scenes/pietro-de-grandi-T7K4aEPoGGk-unsplash.jpg,0,256,3,0,1
32234,0,200,1,outdoor_scenes,400,300,0,Stimuli/Experimental_stims/localizer/outdoor_scenes/quino-al-mBQIfKlvowM-unsplash.jpg,1,204,3,0,0
32234,0,201,1,outdoor_scenes,400,300,1,Stimuli/Experimental_stims/localizer/outdoor_scenes/ken-cheung-KonWFWUaAuk-unsplash.jpg,0,21,3,0,0
32234,0,202,1,outdoor_scenes,400,300,0,Stimuli/Experimental_stims/localizer/outdoor_scenes/chang-qing-2YQoKbyGvDc-unsplash.jpg,1,45,3,0,0
32234,0,203,1,outdoor_scenes,400,300,0,Stimuli/Experimental_stims/localizer/outdoor_scenes/rod-sot-X_vbB7wfv5k-unsplash.jpg,0,192,3,0,1
32234,0,204,1,outdoor_scenes,400,300,0,Stimuli/Experimental_stims/localizer/outdoor_scenes/jaanus-jagomagi-FddgewYQF2M-unsplash.jpg,0,85,3,0,1
32234,0,205,1,outdoor_scenes,400,300,0,Stimuli/Experimental_stims/localizer/outdoor_scenes/v2osk-1Z2niiBPg5A-unsplash.jpg,0,6,3,0,1
32234,0,206,1,outdoor_scenes,400,14000,0,Stimuli/Experimental_stims/localizer/outdoor_scenes/mark-harpur-K2s_YE031CA-unsplash.jpg,0,30,3,0,1
32234,0,207,1,faces,400,300,0,Stimuli/Experimental_stims/localizer/faces/stephanie-nakagawa-ADSKIn0ScDg-unsplash.jpg,1,4,3,0,0
32234,0,208,1,faces,400,300,0,Stimuli/Experimental_stims/localizer/faces/juan-encalada-WC7KIHo13Fc-unsplash.jpg,0,125,3,0,1
32234,0,209,1,faces,400,300,0,Stimuli/Experimental_stims/localizer/faces/matheus-ferrero-W7b3eDUb_2I-unsplash.jpg,0,253,3,0,1
32234,0,210,1,faces,400,300,0,Stimuli/Experimental_stims/localizer/faces/mubariz-mehdizadeh-o-wlIFT4zE4-unsplash.jpg,0,310,3,0,1
32234,0,211,1,faces,400,300,0,Stimuli/Experimental_stims/localizer/faces/ayo-ogunseinde-sibVwORYqs0-unsplash.jpg,0,128,3,0,1
32234,0,212,1,faces,400,300,1,Stimuli/Experimental_stims/localizer/faces/mubariz-mehdizadeh-Py8F6-hRn5o-unsplash.jpg,NaN,NaN,3,1,0
32234,0,213,1,faces,400,300,0,Stimuli/Experimental_stims/localizer/faces/abstral-official-cyOKLSgkgCE-unsplash.jpg,0,58,3,0,1
32234,0,214,1,faces,400,300,0,Stimuli/Experimental_stims/localizer/faces/carlos-vaz-KP4bxnxAilU-unsplash.jpg,0,344,3,0,1
32234,0,215,1,faces,400,300,0,Stimuli/Experimental_stims/localizer/faces/etty-fidele-nF8eo2nX374-unsplash.jpg,0,167,3,0,1
32234,0,216,1,faces,400,300,0,Stimuli/Experimental_stims/localizer/faces/cdc-ddKBuWekZr0-unsplash.jpg,1,2,3,0,0
32234,0,217,1,faces,400,300,0,Stimuli/Experimental_stims/localizer/faces/binh-ly-k_4A59MzZTY-unsplash.jpg,0,48,3,0,1
32234,0,218,1,faces,400,300,0,Stimuli/Experimental_stims/localizer/faces/ben-scott-tWb7IsL9CnY-unsplash.jpg,1,16,3,0,0
32234,0,219,1,faces,400,300,0,Stimuli/Experimental_stims/localizer/faces/drew-hays-agGIKYs4mYs-unsplash.jpg,0,53,3,0,1
32234,0,220,1,faces,400,300,0,Stimuli/Experimental_stims/localizer/faces/toa-heftiba-2O1EUSTRBrY-unsplash.jpg,NaN,NaN,3,1,0
32234,0,221,1,faces,400,300,0,Stimuli/Experimental_stims/localizer/faces/vince-fleming-j3lf-Jn6deo-unsplash.jpg,NaN,NaN,3,1,0
32234,0,222,1,faces,400,300,0,Stimuli/Experimental_stims/localizer/faces/james-marty-h1BuNJZzpC8-unsplash.jpg,0,180,3,0,1
32234,0,223,1,faces,400,300,0,Stimuli/Experimental_stims/localizer/faces/ihor-saveliev-3POm-bxWIN8-unsplash.jpg,1,0,3,0,0
32234,0,224,1,faces,400,300,0,Stimuli/Experimental_stims/localizer/faces/rui-silvestre-hAMJpesMeDE-unsplash.jpg,0,19,3,0,1
32234,0,225,1,faces,400,300,0,Stimuli/Experimental_stims/localizer/faces/filipe-almeida-mnEWC72eWDM-unsplash.jpg,0,252,3,0,1
32234,0,226,1,faces,400,14000,1,Stimuli/Experimental_stims/localizer/faces/ayo-ogunseinde-6W4F62sN_yI-unsplash.jpg,1,21,3,0,1
32234,0,227,1,outdoor_scenes,400,300,0,Stimuli/Experimental_stims/localizer/outdoor_scenes/federico-beccari-kRnkqSKZODQ-unsplash.jpg,0,101,3,0,1
32234,0,228,1,outdoor_scenes,400,300,1,Stimuli/Experimental_stims/localizer/outdoor_scenes/alessio-furlan-Vw3a0HgE7AM-unsplash.jpg,1,17,3,0,1
32234,0,229,1,outdoor_scenes,400,300,0,Stimuli/Experimental_stims/localizer/outdoor_scenes/fabian-quintero-UWQP2mh5YJI-unsplash.jpg,0,81,3,0,1
32234,0,230,1,outdoor_scenes,400,300,0,Stimuli/Experimental_stims/localizer/outdoor_scenes/benjamin-davies-Zm2n2O7Fph4-unsplash.jpg,0,3,3,0,1
32234,0,231,1,outdoor_scenes,400,300,0,Stimuli/Experimental_stims/localizer/outdoor_scenes/nikola-majksner-hXNGeAFOgT4-unsplash.jpg,0,48,3,0,1
32234,0,232,1,outdoor_scenes,400,300,0,Stimuli/Experimental_stims/localizer/outdoor_scenes/kalen-emsley-Bkci_8qcdvQ-unsplash.jpg,NaN,NaN,3,1,0
32234,0,233,1,outdoor_scenes,400,300,0,Stimuli/Experimental_stims/localizer/outdoor_scenes/adam-kool-ndN00KmbJ1c-unsplash.jpg,NaN,NaN,3,1,0
32234,0,234,1,outdoor_scenes,400,300,0,Stimuli/Experimental_stims/localizer/outdoor_scenes/gabriel-garcia-marengo-ht9aLtovtSo-unsplash.jpg,NaN,NaN,3,1,0
32234,0,235,1,outdoor_scenes,400,300,0,Stimuli/Experimental_stims/localizer/outdoor_scenes/hendrik-cornelissen--qrcOR33ErA-unsplash.jpg,NaN,NaN,3,1,0
32234,0,236,1,outdoor_scenes,400,300,0,Stimuli/Experimental_stims/localizer/outdoor_scenes/alice-donovan-rouse-pZ61ZA8QgcY-unsplash.jpg,NaN,NaN,3,1,0
32234,0,237,1,outdoor_scenes,400,300,0,Stimuli/Experimental_stims/localizer/outdoor_scenes/andres-sanz-uILhNE1VcwA-unsplash.jpg,NaN,NaN,3,1,0
32234,0,238,1,outdoor_scenes,400,300,0,Stimuli/Experimental_stims/localizer/outdoor_scenes/tomasz-filipek-CUWC-6MRcNg-unsplash.jpg,NaN,NaN,3,1,0
32234,0,239,1,outdoor_scenes,400,300,0,Stimuli/Experimental_stims/localizer/outdoor_scenes/eberhard-grossgasteiger-y2azHvupCVo-unsplash.jpg,NaN,NaN,3,1,0
32234,0,240,1,outdoor_scenes,400,300,0,Stimuli/Experimental_stims/localizer/outdoor_scenes/ricardo-gomez-angel-dTSaC-S-7fs-unsplash.jpg,NaN,NaN,3,1,0
32234,0,241,1,outdoor_scenes,400,300,1,Stimuli/Experimental_stims/localizer/outdoor_scenes/bruno-van-der-kraan-qez8mNJ3ilU-unsplash.jpg,NaN,NaN,3,1,0
32234,0,242,1,outdoor_scenes,400,300,0,Stimuli/Experimental_stims/localizer/outdoor_scenes/john-lee-oMneOBYhJxY-unsplash.jpg,NaN,NaN,3,1,0
32234,0,243,1,outdoor_scenes,400,300,0,Stimuli/Experimental_stims/localizer/outdoor_scenes/neom-THlO6Mkf5uI-unsplash.jpg,NaN,NaN,3,1,0
32234,0,244,1,outdoor_scenes,400,300,0,Stimuli/Experimental_stims/localizer/outdoor_scenes/john-mark-arnold-XNIjmb6Ax04-unsplash.jpg,1,144,3,0,0
32234,0,245,1,outdoor_scenes,400,300,0,Stimuli/Experimental_stims/localizer/outdoor_scenes/sean-oulashin-KMn4VEeEPR8-unsplash.jpg,1,67,3,0,0
32234,0,246,1,outdoor_scenes,400,14000,0,Stimuli/Experimental_stims/localizer/outdoor_scenes/john-fowler-aaIN3y2zcMQ-unsplash.jpg,NaN,NaN,3,1,0