PID,practice,trial,run,task,stimulus_duration,iti,is_odd_ball,path,response,rt,version,no_response,acc
37104,1,1,0,NaN,400,300,0,Stimuli/Practice_stims/Localizer/annie-spratt-g9KFpAfQ5bc-unsplash.jpg,0,192,1,0,1
37104,1,2,0,NaN,400,300,0,Stimuli/Practice_stims/Localizer/becca-tapert-sY5RjMB1KkE-unsplash.jpg,0,302,1,0,1
37104,1,3,0,NaN,400,300,1,Stimuli/Practice_stims/Localizer/charl-durand-bsfXvI25iNg-unsplash.jpg,1,382,1,0,1
37104,1,4,0,NaN,400,300,0,Stimuli/Practice_stims/Localizer/nizar-albusaidy-B2r2SWAf5CE-unsplash.jpg,0,342,1,0,1
37104,1,5,0,NaN,400,300,1,Stimuli/Practice_stims/Localizer/randy-fath-epf1tdtIIkM-unsplash.jpg,1,397,1,0,1
37104,1,6,0,NaN,400,300,0,Stimuli/Practice_stims/Localizer/yassine-khalfalli-adsQ9d_Cx0c-unsplash.jpg,0,372,1,0,1
37104,0,7,1,faces,400,300,0,Stimuli/Experimental_stims/localizer/faces/christina-wocintechchat-com-0Zx1bDv5BNY-unsplash.jpg,NaN,NaN,1,1,0
37104,0,8,1,faces,400,300,0,Stimuli/Experimental_stims/localizer/faces/jeffery-erhunse-BQMZ5ligqps-unsplash.jpg,0,353,1,0,1
37104,0,9,1,faces,400,300,0,Stimuli/Experimental_stims/localizer/faces/matheus-ferrero-W7b3eDUb_2I-unsplash.jpg,0,357,1,0,1
37104,0,10,1,faces,400,300,1,Stimuli/Experimental_stims/localizer/faces/jurica-koletic-7YVZYZeITc8-unsplash.jpg,1,339,1,0,1
37104,0,11,1,faces,400,300,0,Stimuli/Experimental_stims/localizer/faces/drew-hays-agGIKYs4mYs-unsplash.jpg,0,380,1,0,1
37104,0,12,1,faces,400,300,0,Stimuli/Experimental_stims/localizer/faces/rui-silvestre-hAMJpesMeDE-unsplash.jpg,NaN,NaN,1,1,0
37104,0,13,1,faces,400,300,0,Stimuli/Experimental_stims/localizer/faces/sean-kong--1B_y4wGs-s-unsplash.jpg,0,380,1,0,1
37104,0,14,1,faces,400,300,0,Stimuli/Experimental_stims/localizer/faces/vince-fleming-j3lf-Jn6deo-unsplash.jpg,0,380,1,0,1
37104,0,15,1,faces,400,300,0,Stimuli/Experimental_stims/localizer/faces/tyler-nix-ZGa9d1a_4tA-unsplash.jpg,0,382,1,0,1
37104,0,16,1,faces,400,300,0,Stimuli/Experimental_stims/localizer/faces/abstral-official-cyOKLSgkgCE-unsplash.jpg,0,349,1,0,1
37104,0,17,1,faces,400,300,0,Stimuli/Experimental_stims/localizer/faces/ethan-haddox-__ng3cRXmFE-unsplash.jpg,0,365,1,0,1
37104,0,18,1,faces,400,300,0,Stimuli/Experimental_stims/localizer/faces/foto-sushi-6anudmpILw4-unsplash.jpg,0,371,1,0,1
37104,0,19,1,faces,400,300,0,Stimuli/Experimental_stims/localizer/faces/christian-ferrer-8vT-DgHZDG4-unsplash.jpg,0,348,1,0,1
37104,0,20,1,faces,400,300,0,Stimuli/Experimental_stims/localizer/faces/stephanie-nakagawa-ADSKIn0ScDg-unsplash.jpg,0,367,1,0,1
37104,0,21,1,faces,400,300,1,Stimuli/Experimental_stims/localizer/faces/toa-heftiba-2O1EUSTRBrY-unsplash.jpg,NaN,NaN,1,1,0
37104,0,22,1,faces,400,300,0,Stimuli/Experimental_stims/localizer/faces/darshan-patel-QJEVpydulGs-unsplash.jpg,NaN,NaN,1,1,0
37104,0,23,1,faces,400,300,0,Stimuli/Experimental_stims/localizer/faces/mubariz-mehdizadeh-o-wlIFT4zE4-unsplash.jpg,0,393,1,0,1
37104,0,24,1,faces,400,300,0,Stimuli/Experimental_stims/localizer/faces/midas-hofstra-tidSLv-UaNs-unsplash.jpg,0,348,1,0,1
37104,0,25,1,faces,400,300,0,Stimuli/Experimental_stims/localizer/faces/toa-heftiba-O3ymvT7Wf9U-unsplash.jpg,0,355,1,0,1
37104,0,26,1,faces,400,14000,0,Stimuli/Experimental_stims/localizer/faces/katsiaryna-endruszkiewicz-BteCp6aq4GI-unsplash.jpg,NaN,NaN,1,1,0
37104,0,27,1,outdoor_scenes,400,300,0,Stimuli/Experimental_stims/localizer/outdoor_scenes/jaanus-jagomagi-FddgewYQF2M-unsplash.jpg,NaN,NaN,1,1,0
37104,0,28,1,outdoor_scenes,400,300,1,Stimuli/Experimental_stims/localizer/outdoor_scenes/v2osk-1Z2niiBPg5A-unsplash.jpg,0,343,1,0,0
37104,0,29,1,outdoor_scenes,400,300,0,Stimuli/Experimental_stims/localizer/outdoor_scenes/wai-siew-mTFyV8oNDzU-unsplash.jpg,0,351,1,0,1
37104,0,30,1,outdoor_scenes,400,300,0,Stimuli/Experimental_stims/localizer/outdoor_scenes/jay-cai-F_laX9E8CUo-unsplash.jpg,NaN,NaN,1,1,0
37104,0,31,1,outdoor_scenes,400,300,0,Stimuli/Experimental_stims/localizer/outdoor_scenes/jeremy-cai-ucYWe5mzTMU-unsplash.jpg,0,376,1,0,1
37104,0,32,1,outdoor_scenes,400,300,0,Stimuli/Experimental_stims/localizer/outdoor_scenes/erol-ahmed-d3pTF3r_hwY-unsplash.jpg,0,343,1,0,1
37104,0,33,1,outdoor_scenes,400,300,0,Stimuli/Experimental_stims/localizer/outdoor_scenes/quino-al-vmZ2DehWQ3Q-unsplash.jpg,0,352,1,0,1
37104,0,34,1,outdoor_scenes,400,300,0,Stimuli/Experimental_stims/localizer/outdoor_scenes/kenneth-thewissen-D76DklsG-5U-unsplash.jpg,0,357,1,0,1
37104,0,35,1,outdoor_scenes,400,300,0,Stimuli/Experimental_stims/localizer/outdoor_scenes/johny-goerend-U_diPCXCBxU-unsplash.jpg,0,362,1,0,1
37104,0,36,1,outdoor_scenes,400,300,0,Stimuli/Experimental_stims/localizer/outdoor_scenes/ken-cheung-KonWFWUaAuk-unsplash.jpg,0,347,1,0,1
37104,0,37,1,outdoor_scenes,400,300,0,Stimuli/Experimental_stims/localizer/outdoor_scenes/alessio-furlan-Vw3a0HgE7AM-unsplash.jpg,0,373,1,0,1
37104,0,38,1,outdoor_scenes,400,300,0,Stimuli/Experimental_stims/localizer/outdoor_scenes/ricardo-gomez-angel-dTSaC-S-7fs-unsplash.jpg,NaN,NaN,1,1,0
37104,0,39,1,outdoor_scenes,400,300,0,Stimuli/Experimental_stims/localizer/outdoor_scenes/samuel-ferrara-IEHPDNk2-8w-unsplash.jpg,0,278,1,0,1
37104,0,40,1,outdoor_scenes,400,300,0,Stimuli/Experimental_stims/localizer/outdoor_scenes/pietro-de-grandi-T7K4aEPoGGk-unsplash.jpg,0,190,1,0,1
37104,0,41,1,outdoor_scenes,400,300,0,Stimuli/Experimental_stims/localizer/outdoor_scenes/tomasz-filipek-CUWC-6MRcNg-unsplash.jpg,0,280,1,0,1
37104,0,42,1,outdoor_scenes,400,300,0,Stimuli/Experimental_stims/localizer/outdoor_scenes/cayetano-gil-rguHxZmOF5U-unsplash.jpg,0,368,1,0,1
37104,0,43,1,outdoor_scenes,400,300,0,Stimuli/Experimental_stims/localizer/outdoor_scenes/nikola-majksner-hXNGeAFOgT4-unsplash.jpg,0,346,1,0,1
37104,0,44,1,outdoor_scenes,400,300,1,Stimuli/Experimental_stims/localizer/outdoor_scenes/wil-stewart-pHANr-CpbYM-unsplash.jpg,0,362,1,0,0
37104,0,45,1,outdoor_scenes,400,300,0,Stimuli/Experimental_stims/localizer/outdoor_scenes/chang-qing-2YQoKbyGvDc-unsplash.jpg,NaN,NaN,1,1,0
37104,0,46,1,outdoor_scenes,400,14000,0,Stimuli/Experimental_stims/localizer/outdoor_scenes/solotravelgoals-7kLufxYoqWk-unsplash.jpg,0,300,1,0,1
37104,0,47,1,body_parts,400,300,0,Stimuli/Experimental_stims/localizer/body_parts/jeremy-bishop-mLd3hAaH2ns-unsplash.jpg,0,370,1,0,1
37104,0,48,1,body_parts,400,300,0,Stimuli/Experimental_stims/localizer/body_parts/lilartsy-1KkhQ8uL28g-unsplash.jpg,0,338,1,0,1
37104,0,49,1,body_parts,400,300,0,Stimuli/Experimental_stims/localizer/body_parts/toa-heftiba-qxvWnfHb3-M-unsplash.jpg,0,402,1,0,1
37104,0,50,1,body_parts,400,300,1,Stimuli/Experimental_stims/localizer/body_parts/callum-skelton-3KLMq7y46nA-unsplash.jpg,1,400,1,0,1
37104,0,51,1,body_parts,400,300,0,Stimuli/Experimental_stims/localizer/body_parts/ant-rozetsky-bXQd8JXx0vs-unsplash.jpg,NaN,NaN,1,1,0
37104,0,52,1,body_parts,400,300,0,Stimuli/Experimental_stims/localizer/body_parts/boyd-christiansen-uVj7kewrZ-o-unsplash.jpg,0,359,1,0,1
37104,0,53,1,body_parts,400,300,0,Stimuli/Experimental_stims/localizer/body_parts/helen-ast-l2iY5Sh0mTg-unsplash.jpg,0,295,1,0,1
37104,0,54,1,body_parts,400,300,0,Stimuli/Experimental_stims/localizer/body_parts/pure-julia-E9Q4bqYHtIM-unsplash.jpg,0,303,1,0,1
37104,0,55,1,body_parts,400,300,0,Stimuli/Experimental_stims/localizer/body_parts/sina-rezakhani-d1gQi0Jl05U-unsplash (1).jpg,0,248,1,0,1
37104,0,56,1,body_parts,400,300,0,Stimuli/Experimental_stims/localizer/body_parts/megan-menegay-UojxG_BJxnI-unsplash.jpg,0,212,1,0,1
37104,0,57,1,body_parts,400,300,0,Stimuli/Experimental_stims/localizer/body_parts/sincerely-media-7TBFwUQA6Xk-unsplash.jpg,0,346,1,0,1
37104,0,58,1,body_parts,400,300,0,Stimuli/Experimental_stims/localizer/body_parts/sincerely-media-pdynOoM7xmA-unsplash.jpg,0,348,1,0,1
37104,0,59,1,body_parts,400,300,0,Stimuli/Experimental_stims/localizer/body_parts/adrien-king-XzBluXxBoyQ-unsplash.jpg,0,369,1,0,1
37104,0,60,1,body_parts,400,300,1,Stimuli/Experimental_stims/localizer/body_parts/nattalia-nunez-MB9sdDfZMSg-unsplash.jpg,0,361,1,0,0
37104,0,61,1,body_parts,400,300,0,Stimuli/Experimental_stims/localizer/body_parts/louis-hansel-FjKTMRTQYAs-unsplash.jpg,0,344,1,0,1
37104,0,62,1,body_parts,400,300,0,Stimuli/Experimental_stims/localizer/body_parts/jonathan-borba-hTwH8QFkPMs-unsplash.jpg,1,385,1,0,0
37104,0,63,1,body_parts,400,300,0,Stimuli/Experimental_stims/localizer/body_parts/hu-chen-tCbTGNwrFNM-unsplash.jpg,0,329,1,0,1
37104,0,64,1,body_parts,400,300,0,Stimuli/Experimental_stims/localizer/body_parts/danie-franco-jyyNiSEcCl4-unsplash.jpg,0,314,1,0,1
37104,0,65,1,body_parts,400,300,0,Stimuli/Experimental_stims/localizer/body_parts/natalie-grainger-8uB5kFKWWkk-unsplash.jpg,0,322,1,0,1
37104,0,66,1,body_parts,400,14000,0,Stimuli/Experimental_stims/localizer/body_parts/apostolos-vamvouras-g5wKHRu2QW0-unsplash.jpg,NaN,NaN,1,1,0
37104,0,67,1,objects,400,300,1,Stimuli/Experimental_stims/localizer/objects/quaritsch-photography-lZ8onQ1wuY8-unsplash.jpg,0,304,1,0,0
37104,0,68,1,objects,400,300,0,Stimuli/Experimental_stims/localizer/objects/ana-9GmAaEMMKho-unsplash.jpg,0,320,1,0,1
37104,0,69,1,objects,400,300,0,Stimuli/Experimental_stims/localizer/objects/nordwood-themes-nDd3dIkkOLo-unsplash.jpg,0,329,1,0,1
37104,0,70,1,objects,400,300,0,Stimuli/Experimental_stims/localizer/objects/kelly-jean-cKjbI0Y00X0-unsplash.jpg,0,354,1,0,1
37104,0,71,1,objects,400,300,0,Stimuli/Experimental_stims/localizer/objects/florian-klauer-nptLmg6jqDo-unsplash.jpg,0,299,1,0,1
37104,0,72,1,objects,400,300,0,Stimuli/Experimental_stims/localizer/objects/nicolas-hippert-SVgX47QIUlc-unsplash.jpg,0,340,1,0,1
37104,0,73,1,objects,400,300,0,Stimuli/Experimental_stims/localizer/objects/florian-klauer-mk7D-4UCfmg-unsplash.jpg,0,396,1,0,1
37104,0,74,1,objects,400,300,0,Stimuli/Experimental_stims/localizer/objects/alex-lvrs-2zDw14yCYqk-unsplash.jpg,0,309,1,0,1
37104,0,75,1,objects,400,300,0,Stimuli/Experimental_stims/localizer/objects/hipster-mum-XookgCxFw6Q-unsplash.jpg,0,310,1,0,1
37104,0,76,1,objects,400,300,0,Stimuli/Experimental_stims/localizer/objects/ian-talmacs-ugqU0a4P18U-unsplash.jpg,0,364,1,0,1
37104,0,77,1,objects,400,300,0,Stimuli/Experimental_stims/localizer/objects/chris-briggs-FobzAZJGM9M-unsplash.jpg,0,339,1,0,1
37104,0,78,1,objects,400,300,0,Stimuli/Experimental_stims/localizer/objects/recha-oktaviani-t__61ap00Mc-unsplash.jpg,0,356,1,0,1
37104,0,79,1,objects,400,300,0,Stimuli/Experimental_stims/localizer/objects/jonny-caspari-wsvCC6UyKjs-unsplash.jpg,0,340,1,0,1
37104,0,80,1,objects,400,300,0,Stimuli/Experimental_stims/localizer/objects/markus-spiske-ANrVtttbNss-unsplash.jpg,NaN,NaN,1,1,0
37104,0,81,1,objects,400,300,0,Stimuli/Experimental_stims/localizer/objects/ignat-dolomanov-kFBDVnmskPA-unsplash.jpg,NaN,NaN,1,1,0
37104,0,82,1,objects,400,300,0,Stimuli/Experimental_stims/localizer/objects/mockup-graphics-Pj2PY-E-LfM-unsplash.jpg,0,308,1,0,1
37104,0,83,1,objects,400,300,0,Stimuli/Experimental_stims/localizer/objects/lance-reis-v0FYj9iioQg-unsplash.jpg,0,323,1,0,1
37104,0,84,1,objects,400,300,0,Stimuli/Experimental_stims/localizer/objects/mockup-graphics-U6ZMEefFGx8-unsplash.jpg,0,380,1,0,1
37104,0,85,1,objects,400,300,1,Stimuli/Experimental_stims/localizer/objects/engin-akyurt-bbbKzTmY2Gg-unsplash.jpg,NaN,NaN,1,1,0
37104,0,86,1,objects,400,14000,0,Stimuli/Experimental_stims/localizer/objects/eugene-chystiakov-3neSwyntbQ8-unsplash.jpg,0,357,1,0,1
37104,0,87,1,body_parts,400,300,0,Stimuli/Experimental_stims/localizer/body_parts/bady-abbas-N-VEeMnm7gE-unsplash.jpg,0,336,1,0,1
37104,0,88,1,body_parts,400,300,1,Stimuli/Experimental_stims/localizer/body_parts/sincerely-media-QyzlAZjm0r0-unsplash.jpg,0,316,1,0,0
37104,0,89,1,body_parts,400,300,0,Stimuli/Experimental_stims/localizer/body_parts/jeremy-yap-TfJEi17kA0w-unsplash.jpg,0,298,1,0,1
37104,0,90,1,body_parts,400,300,0,Stimuli/Experimental_stims/localizer/body_parts/matheus-frade-eyzdb1C3JDM-unsplash.jpg,0,321,1,0,1
37104,0,91,1,body_parts,400,300,0,Stimuli/Experimental_stims/localizer/body_parts/priscilla-du-preez-e6fcNpur53A-unsplash.jpg,0,314,1,0,1
37104,0,92,1,body_parts,400,300,0,Stimuli/Experimental_stims/localizer/body_parts/nihal-karkala-LlOfbQD-IJ0-unsplash.jpg,0,331,1,0,1
37104,0,93,1,body_parts,400,300,0,Stimuli/Experimental_stims/localizer/body_parts/niu-niu-5HzOtV-FSlw-unsplash.jpg,0,348,1,0,1
37104,0,94,1,body_parts,400,300,0,Stimuli/Experimental_stims/localizer/body_parts/igordoon-primus-CdyHqfrbGIs-unsplash.jpg,0,315,1,0,1
37104,0,95,1,body_parts,400,300,0,Stimuli/Experimental_stims/localizer/body_parts/carlos-henrique-NAOJKwZswbs-unsplash.jpg,0,336,1,0,1
37104,0,96,1,body_parts,400,300,0,Stimuli/Experimental_stims/localizer/body_parts/liv-bruce-M0oVPGsWk1E-unsplash.jpg,0,345,1,0,1
37104,0,97,1,body_parts,400,300,0,Stimuli/Experimental_stims/localizer/body_parts/sincerely-media-9Zf6yh7RYbQ-unsplash.jpg,0,396,1,0,1
37104,0,98,1,body_parts,400,300,0,Stimuli/Experimental_stims/localizer/body_parts/debby-hudson--B_757qSA4k-unsplash.jpg,0,380,1,0,1
37104,0,99,1,body_parts,400,300,0,Stimuli/Experimental_stims/localizer/body_parts/betzy-arosemena-YHdgnygtVCQ-unsplash.jpg,0,342,1,0,1
37104,0,100,1,body_parts,400,300,1,Stimuli/Experimental_stims/localizer/body_parts/sincerely-media-Q7qRyaurQfo-unsplash.jpg,NaN,NaN,1,1,0
37104,0,101,1,body_parts,400,300,0,Stimuli/Experimental_stims/localizer/body_parts/deborah-diem-ieVxpPjl1e0-unsplash.jpg,0,366,1,0,1
37104,0,102,1,body_parts,400,300,0,Stimuli/Experimental_stims/localizer/body_parts/jasper-garratt-Ng_Kl7K6V8Y-unsplash.jpg,0,358,1,0,1
37104,0,103,1,body_parts,400,300,0,Stimuli/Experimental_stims/localizer/body_parts/jan-romero-DL4DDQb8yjc-unsplash.jpg,0,344,1,0,1
37104,0,104,1,body_parts,400,300,0,Stimuli/Experimental_stims/localizer/body_parts/i-am_nah--S4OsO0c6Ts-unsplash.jpg,0,359,1,0,1
37104,0,105,1,body_parts,400,300,0,Stimuli/Experimental_stims/localizer/body_parts/semen-zhuravlev-_XxH_mV8dnk-unsplash (1).jpg,0,361,1,0,1
37104,0,106,1,body_parts,400,14000,0,Stimuli/Experimental_stims/localizer/body_parts/sippakorn-yamkasikorn-32_sJlJa5gA-unsplash.jpg,0,367,1,0,1
37104,0,107,1,objects,400,300,1,Stimuli/Experimental_stims/localizer/objects/quino-al-8gWEAAXJjtI-unsplash.jpg,0,347,1,0,0
37104,0,108,1,objects,400,300,0,Stimuli/Experimental_stims/localizer/objects/oriento-maVIpNNtmlQ-unsplash.jpg,0,301,1,0,1
37104,0,109,1,objects,400,300,0,Stimuli/Experimental_stims/localizer/objects/chris-briggs-x9TCnxNBofE-unsplash.jpg,0,341,1,0,1
37104,0,110,1,objects,400,300,0,Stimuli/Experimental_stims/localizer/objects/saif71-com-VIKdvmGUhq8-unsplash.jpg,0,356,1,0,1
37104,0,111,1,objects,400,300,0,Stimuli/Experimental_stims/localizer/objects/nicolas-hippert-kfr_eSrR08M-unsplash.jpg,0,347,1,0,1
37104,0,112,1,objects,400,300,0,Stimuli/Experimental_stims/localizer/objects/adriano-pucciarelli-BE7yaZnZX6o-unsplash.jpg,0,347,1,0,1
37104,0,113,1,objects,400,300,0,Stimuli/Experimental_stims/localizer/objects/girl-with-red-hat-Xxg-r574pLE-unsplash.jpg,0,378,1,0,1
37104,0,114,1,objects,400,300,0,Stimuli/Experimental_stims/localizer/objects/mulyadi-tWp0VSlSdMI-unsplash.jpg,0,372,1,0,1
37104,0,115,1,objects,400,300,0,Stimuli/Experimental_stims/localizer/objects/yoann-siloine-_T4w3JDm6ug-unsplash.jpg,0,373,1,0,1
37104,0,116,1,objects,400,300,0,Stimuli/Experimental_stims/localizer/objects/designecologist-hvgd0ygXuQQ-unsplash.jpg,0,348,1,0,1
37104,0,117,1,objects,400,300,0,Stimuli/Experimental_stims/localizer/objects/namroud-gorguis-FZWivbri0Xk-unsplash.jpg,0,347,1,0,1
37104,0,118,1,objects,400,300,0,Stimuli/Experimental_stims/localizer/objects/andrew-petrov-TVJqDat4MAw-unsplash.jpg,0,330,1,0,1
37104,0,119,1,objects,400,300,0,Stimuli/Experimental_stims/localizer/objects/mockup-graphics-v_a3DWpOFc0-unsplash.jpg,0,330,1,0,1
37104,0,120,1,objects,400,300,0,Stimuli/Experimental_stims/localizer/objects/carlos-felipe-ramirez-mesa-HW7bfB3ERSQ-unsplash.jpg,0,366,1,0,1
37104,0,121,1,objects,400,300,0,Stimuli/Experimental_stims/localizer/objects/dario-mendez-hnJ2VNZzbns-unsplash.jpg,0,370,1,0,1
37104,0,122,1,objects,400,300,0,Stimuli/Experimental_stims/localizer/objects/mockup-graphics-aUkYaG12Dgs-unsplash.jpg,0,395,1,0,1
37104,0,123,1,objects,400,300,0,Stimuli/Experimental_stims/localizer/objects/sam-moghadam-khamseh-kvmdsTrGOBM-unsplash.jpg,0,384,1,0,1
37104,0,124,1,objects,400,300,0,Stimuli/Experimental_stims/localizer/objects/sam-moghadam-khamseh-L_7MQsHl_aU-unsplash.jpg,0,391,1,0,1
37104,0,125,1,objects,400,300,0,Stimuli/Experimental_stims/localizer/objects/adriano-pucciarelli-Jl3S1yM8gi8-unsplash.jpg,NaN,NaN,1,1,0
37104,0,126,1,objects,400,14000,1,Stimuli/Experimental_stims/localizer/objects/dario-mendez-WmF_XLF4-Rs-unsplash.jpg,1,386,1,0,1
37104,0,127,1,outdoor_scenes,400,300,0,Stimuli/Experimental_stims/localizer/outdoor_scenes/andres-sanz-uILhNE1VcwA-unsplash.jpg,0,350,1,0,1
37104,0,128,1,outdoor_scenes,400,300,0,Stimuli/Experimental_stims/localizer/outdoor_scenes/pascal-debrunner-1WQ5RZuH9xo-unsplash.jpg,0,351,1,0,1
37104,0,129,1,outdoor_scenes,400,300,0,Stimuli/Experimental_stims/localizer/outdoor_scenes/chris-holgersson-zshyCr6HGw0-unsplash.jpg,0,339,1,0,1
37104,0,130,1,outdoor_scenes,400,300,1,Stimuli/Experimental_stims/localizer/outdoor_scenes/antoine-beauvillain-qrPqGP-SG8w-unsplash.jpg,1,380,1,0,1
37104,0,131,1,outdoor_scenes,400,300,0,Stimuli/Experimental_stims/localizer/outdoor_scenes/neom-THlO6Mkf5uI-unsplash.jpg,0,365,1,0,1
37104,0,132,1,outdoor_scenes,400,300,0,Stimuli/Experimental_stims/localizer/outdoor_scenes/john-lee-oMneOBYhJxY-unsplash.jpg,0,356,1,0,1
37104,0,133,1,outdoor_scenes,400,300,0,Stimuli/Experimental_stims/localizer/outdoor_scenes/darrell-cassell-hoCXpPUMCoE-unsplash.jpg,0,348,1,0,1
37104,0,134,1,outdoor_scenes,400,300,0,Stimuli/Experimental_stims/localizer/outdoor_scenes/jack-millard-zjyP-UYI-ko-unsplash.jpg,0,392,1,0,1
37104,0,135,1,outdoor_scenes,400,300,0,Stimuli/Experimental_stims/localizer/outdoor_scenes/simon-berger-UqCnDyc_3vA-unsplash.jpg,NaN,NaN,1,1,0
37104,0,136,1,outdoor_scenes,400,300,0,Stimuli/Experimental_stims/localizer/outdoor_scenes/michael-martinelli-mFbrMEVKCkc-unsplash.jpg,0,360,1,0,1
37104,0,137,1,outdoor_scenes,400,300,0,Stimuli/Experimental_stims/localizer/outdoor_scenes/derek-mack-CcRZ4k3c6gA-unsplash.jpg,0,368,1,0,1
37104,0,138,1,outdoor_scenes,400,300,0,Stimuli/Experimental_stims/localizer/outdoor_scenes/ales-krivec-hsX9KpLLsIE-unsplash.jpg,0,342,1,0,1
37104,0,139,1,outdoor_scenes,400,300,0,Stimuli/Experimental_stims/localizer/outdoor_scenes/marcelo-quinan-u0ZgqJD55pE-unsplash.jpg,0,354,1,0,1
37104,0,140,1,outdoor_scenes,400,300,0,Stimuli/Experimental_stims/localizer/outdoor_scenes/dawid-zawila--G3rw6Y02D0-unsplash.jpg,0,363,1,0,1
37104,0,141,1,outdoor_scenes,400,300,1,Stimuli/Experimental_stims/localizer/outdoor_scenes/luca-bravo-VowIFDxogG4-unsplash.jpg,1,355,1,0,1
37104,0,142,1,outdoor_scenes,400,300,0,Stimuli/Experimental_stims/localizer/outdoor_scenes/redd-f-Lm5rkxzgiFQ-unsplash.jpg,0,436,1,0,1
37104,0,143,1,outdoor_scenes,400,300,0,Stimuli/Experimental_stims/localizer/outdoor_scenes/john-mark-arnold-XNIjmb6Ax04-unsplash.jpg,0,366,1,0,1
37104,0,144,1,outdoor_scenes,400,300,0,Stimuli/Experimental_stims/localizer/outdoor_scenes/kalen-emsley-_LuLiJc1cdo-unsplash.jpg,0,368,1,0,1
37104,0,145,1,outdoor_scenes,400,300,0,Stimuli/Experimental_stims/localizer/outdoor_scenes/jordan-heath-4z_SYrG5mgA-unsplash.jpg,0,347,1,0,1
37104,0,146,1,outdoor_scenes,400,14000,0,Stimuli/Experimental_stims/localizer/outdoor_scenes/simon-berger-twukN12EN7c-unsplash.jpg,0,333,1,0,1
37104,0,147,1,faces,400,300,0,Stimuli/Experimental_stims/localizer/faces/nick-karvounis-JyO_szjGvUw-unsplash.jpg,0,385,1,0,1
37104,0,148,1,faces,400,300,1,Stimuli/Experimental_stims/localizer/faces/philip-martin-5aGUyCW_PJw-unsplash.jpg,1,392,1,0,1
37104,0,149,1,faces,400,300,0,Stimuli/Experimental_stims/localizer/faces/ayo-ogunseinde-6W4F62sN_yI-unsplash.jpg,0,304,1,0,1
37104,0,150,1,faces,400,300,0,Stimuli/Experimental_stims/localizer/faces/joseph-gonzalez-iFgRcqHznqg-unsplash.jpg,0,334,1,0,1
37104,0,151,1,faces,400,300,0,Stimuli/Experimental_stims/localizer/faces/ian-dooley-d1UPkiFd04A-unsplash.jpg,0,320,1,0,1
37104,0,152,1,faces,400,300,0,Stimuli/Experimental_stims/localizer/faces/ayo-ogunseinde-sibVwORYqs0-unsplash.jpg,0,305,1,0,1
37104,0,153,1,faces,400,300,0,Stimuli/Experimental_stims/localizer/faces/christopher-campbell-rDEOVtE7vOs-unsplash.jpg,0,321,1,0,1
37104,0,154,1,faces,400,300,0,Stimuli/Experimental_stims/localizer/faces/etty-fidele-nF8eo2nX374-unsplash.jpg,0,326,1,0,1
37104,0,155,1,faces,400,300,0,Stimuli/Experimental_stims/localizer/faces/carlos-vaz-KP4bxnxAilU-unsplash.jpg,0,332,1,0,1
37104,0,156,1,faces,400,300,0,Stimuli/Experimental_stims/localizer/faces/elijah-hiett-umfpFoKxIVg-unsplash.jpg,0,349,1,0,1
37104,0,157,1,faces,400,300,0,Stimuli/Experimental_stims/localizer/faces/imansyah-muhamad-putera-n4KewLKFOZw-unsplash.jpg,0,363,1,0,1
37104,0,158,1,faces,400,300,0,Stimuli/Experimental_stims/localizer/faces/ivan-dodig-R21SyyJDFgc-unsplash.jpg,0,363,1,0,1
37104,0,159,1,faces,400,300,0,Stimuli/Experimental_stims/localizer/faces/gabriel-silverio-u3WmDyKGsrY-unsplash.jpg,0,339,1,0,1
37104,0,160,1,faces,400,300,0,Stimuli/Experimental_stims/localizer/faces/rafaella-mendes-diniz-et_78QkMMQs-unsplash.jpg,0,355,1,0,1
37104,0,161,1,faces,400,300,0,Stimuli/Experimental_stims/localizer/faces/icons8-team-6LZuSzSwso0-unsplash.jpg,0,382,1,0,1
37104,0,162,1,faces,400,300,0,Stimuli/Experimental_stims/localizer/faces/olena-sergienko-0TSd6uCKTKc-unsplash.jpg,0,388,1,0,1
37104,0,163,1,faces,400,300,0,Stimuli/Experimental_stims/localizer/faces/janaya-dasiuk-_A2LZdUqHgA-unsplash.jpg,0,382,1,0,1
37104,0,164,1,faces,400,300,0,Stimuli/Experimental_stims/localizer/faces/allef-vinicius-C_1jjFJioWg-unsplash.jpg,0,399,1,0,1
37104,0,165,1,faces,400,300,1,Stimuli/Experimental_stims/localizer/faces/christian-buehner-DItYlc26zVI-unsplash.jpg,1,400,1,0,1
37104,0,166,1,faces,400,14000,0,Stimuli/Experimental_stims/localizer/faces/james-marty-h1BuNJZzpC8-unsplash.jpg,0,303,1,0,1
37104,0,167,1,objects,400,300,0,Stimuli/Experimental_stims/localizer/objects/raimond-klavins-ZdvDPXVvcKs-unsplash.jpg,0,378,1,0,1
37104,0,168,1,objects,400,300,0,Stimuli/Experimental_stims/localizer/objects/jiangxulei1990-eIzzzwtkBjU-unsplash.jpg,NaN,NaN,1,1,0
37104,0,169,1,objects,400,300,0,Stimuli/Experimental_stims/localizer/objects/nordwood-themes-E9tFH39iRPE-unsplash.jpg,NaN,NaN,1,1,0
37104,0,170,1,objects,400,300,0,Stimuli/Experimental_stims/localizer/objects/yossy-made-yulian-WaEqwDSIeTY-unsplash.jpg,0,300,1,0,1
37104,0,171,1,objects,400,300,0,Stimuli/Experimental_stims/localizer/objects/annie-spratt-fbAnIjhrOL4-unsplash.jpg,0,316,1,0,1
37104,0,172,1,objects,400,300,0,Stimuli/Experimental_stims/localizer/objects/mae-mu-yl2d0CKW130-unsplash.jpg,0,379,1,0,1
37104,0,173,1,objects,400,300,1,Stimuli/Experimental_stims/localizer/objects/carlos-felipe-ramirez-mesa-x9g65MOXsPY-unsplash.jpg,0,416,1,0,0
37104,0,174,1,objects,400,300,0,Stimuli/Experimental_stims/localizer/objects/muhammad-toqeer-NRJ9ipvz2iE-unsplash.jpg,0,291,1,0,1
37104,0,175,1,objects,400,300,0,Stimuli/Experimental_stims/localizer/objects/ryunosuke-kikuno-viEzuL1ouDs-unsplash.jpg,0,306,1,0,1
37104,0,176,1,objects,400,300,0,Stimuli/Experimental_stims/localizer/objects/girl-with-red-hat-oJG9HOVKGMs-unsplash.jpg,NaN,NaN,1,1,0
37104,0,177,1,objects,400,300,0,Stimuli/Experimental_stims/localizer/objects/miti-MZPdB1DU4a4-unsplash.jpg,NaN,NaN,1,1,0
37104,0,178,1,objects,400,300,0,Stimuli/Experimental_stims/localizer/objects/charlesdeluvio-RDjZh9dqlP4-unsplash.jpg,0,321,1,0,1
37104,0,179,1,objects,400,300,0,Stimuli/Experimental_stims/localizer/objects/petr-sidorov-3jm5TGqtULU-unsplash.jpg,0,321,1,0,1
37104,0,180,1,objects,400,300,0,Stimuli/Experimental_stims/localizer/objects/collab-media-eddtBBbaw0Y-unsplash.jpg,0,322,1,0,1
37104,0,181,1,objects,400,300,0,Stimuli/Experimental_stims/localizer/objects/barrett-ward-0lMpQaXfOCg-unsplash.jpg,0,330,1,0,1
37104,0,182,1,objects,400,300,0,Stimuli/Experimental_stims/localizer/objects/maria-lupan-Rlakka_pZMU-unsplash.jpg,0,339,1,0,1
37104,0,183,1,objects,400,300,0,Stimuli/Experimental_stims/localizer/objects/ales-krivec-ZMZHcvIVgbg-unsplash.jpg,0,378,1,0,1
37104,0,184,1,objects,400,300,1,Stimuli/Experimental_stims/localizer/objects/dan-cristian-padure-ezoshbcxWrM-unsplash.jpg,NaN,NaN,1,1,0
37104,0,185,1,objects,400,300,0,Stimuli/Experimental_stims/localizer/objects/quino-al-4SNUcHPiC8c-unsplash.jpg,0,399,1,0,1
37104,0,186,1,objects,400,14000,0,Stimuli/Experimental_stims/localizer/objects/sam-moghadam-khamseh-xej3GOtAQ-o-unsplash.jpg,0,370,1,0,1
37104,0,187,1,faces,400,300,0,Stimuli/Experimental_stims/localizer/faces/mathias-huysmans-U4JDjYmjn1g-unsplash.jpg,0,332,1,0,1
37104,0,188,1,faces,400,300,0,Stimuli/Experimental_stims/localizer/faces/brooke-cagle-Nm70URdtf3c-unsplash (1).jpg,0,309,1,0,1
37104,0,189,1,faces,400,300,1,Stimuli/Experimental_stims/localizer/faces/jakob-owens-lkMJcGDZLVs-unsplash.jpg,1,366,1,0,1
37104,0,190,1,faces,400,300,0,Stimuli/Experimental_stims/localizer/faces/art-hauntington-jzY0KRJopEI-unsplash.jpg,0,351,1,0,1
37104,0,191,1,faces,400,300,0,Stimuli/Experimental_stims/localizer/faces/juan-encalada-WC7KIHo13Fc-unsplash.jpg,0,304,1,0,1
37104,0,192,1,faces,400,300,0,Stimuli/Experimental_stims/localizer/faces/aatik-tasneem-7omHUGhhmZ0-unsplash.jpg,0,296,1,0,1
37104,0,193,1,faces,400,300,0,Stimuli/Experimental_stims/localizer/faces/prince-akachi-LWkFHEGpleE-unsplash.jpg,0,327,1,0,1
37104,0,194,1,faces,400,300,0,Stimuli/Experimental_stims/localizer/faces/whereslugo-zl_fPgiwduo-unsplash.jpg,0,345,1,0,1
37104,0,195,1,faces,400,300,0,Stimuli/Experimental_stims/localizer/faces/austin-wade-X6Uj51n5CE8-unsplash.jpg,0,353,1,0,1
37104,0,196,1,faces,400,300,0,Stimuli/Experimental_stims/localizer/faces/aiony-haust-K0DxxljcRv0-unsplash.jpg,0,357,1,0,1
37104,0,197,1,faces,400,300,0,Stimuli/Experimental_stims/localizer/faces/alexis-chloe-TYDkKEgc0Fg-unsplash.jpg,0,337,1,0,1
37104,0,198,1,faces,400,300,0,Stimuli/Experimental_stims/localizer/faces/linkedin-sales-solutions-pAtA8xe_iVM-unsplash.jpg,0,343,1,0,1
37104,0,199,1,faces,400,300,0,Stimuli/Experimental_stims/localizer/faces/cdc-ddKBuWekZr0-unsplash.jpg,0,328,1,0,1
37104,0,200,1,faces,400,300,0,Stimuli/Experimental_stims/localizer/faces/ben-scott-tWb7IsL9CnY-unsplash.jpg,0,352,1,0,1
37104,0,201,1,faces,400,300,1,Stimuli/Experimental_stims/localizer/faces/binh-ly-k_4A59MzZTY-unsplash.jpg,1,377,1,0,1
37104,0,202,1,faces,400,300,0,Stimuli/Experimental_stims/localizer/faces/jimmy-fermin-bqe0J0b26RQ-unsplash.jpg,0,296,1,0,1
37104,0,203,1,faces,400,300,0,Stimuli/Experimental_stims/localizer/faces/mubariz-mehdizadeh-Py8F6-hRn5o-unsplash.jpg,0,411,1,0,1
37104,0,204,1,faces,400,300,0,Stimuli/Experimental_stims/localizer/faces/samuel-dixon--fQ5XNOcqFQ-unsplash.jpg,0,302,1,0,1
37104,0,205,1,faces,400,300,0,Stimuli/Experimental_stims/localizer/faces/ihor-saveliev-3POm-bxWIN8-unsplash.jpg,0,286,1,0,1
37104,0,206,1,faces,400,14000,0,Stimuli/Experimental_stims/localizer/faces/aleksandar-popovski-Jy4ELSGPHTc-unsplash.jpg,0,334,1,0,1
37104,0,207,1,outdoor_scenes,400,300,0,Stimuli/Experimental_stims/localizer/outdoor_scenes/quino-al-mBQIfKlvowM-unsplash.jpg,0,369,1,0,1
37104,0,208,1,outdoor_scenes,400,300,0,Stimuli/Experimental_stims/localizer/outdoor_scenes/ryan-schroeder-Gg7uKdHFb_c-unsplash.jpg,0,332,1,0,1
37104,0,209,1,outdoor_scenes,400,300,0,Stimuli/Experimental_stims/localizer/outdoor_scenes/niko-photos-tGTVxeOr_Rs-unsplash.jpg,0,317,1,0,1
37104,0,210,1,outdoor_scenes,400,300,1,Stimuli/Experimental_stims/localizer/outdoor_scenes/tim-swaan-eOpewngf68w-unsplash (1).jpg,NaN,NaN,1,1,0
37104,0,211,1,outdoor_scenes,400,300,0,Stimuli/Experimental_stims/localizer/outdoor_scenes/quentin-zwzeorQPepo-unsplash.jpg,0,321,1,0,1
37104,0,212,1,outdoor_scenes,400,300,0,Stimuli/Experimental_stims/localizer/outdoor_scenes/sean-oulashin-KMn4VEeEPR8-unsplash.jpg,0,266,1,0,1
37104,0,213,1,outdoor_scenes,400,300,0,Stimuli/Experimental_stims/localizer/outdoor_scenes/rod-sot-X_vbB7wfv5k-unsplash.jpg,0,178,1,0,1
37104,0,214,1,outdoor_scenes,400,300,0,Stimuli/Experimental_stims/localizer/outdoor_scenes/willian-justen-de-vasconcellos-T_Qe4QlMIvQ-unsplash.jpg,0,169,1,0,1
37104,0,215,1,outdoor_scenes,400,300,0,Stimuli/Experimental_stims/localizer/outdoor_scenes/daniel-roe-lpjb_UMOyx8-unsplash.jpg,0,129,1,0,1
37104,0,216,1,outdoor_scenes,400,300,0,Stimuli/Experimental_stims/localizer/outdoor_scenes/hendrik-cornelissen--qrcOR33ErA-unsplash.jpg,0,114,1,0,1
37104,0,217,1,outdoor_scenes,400,300,0,Stimuli/Experimental_stims/localizer/outdoor_scenes/benjamin-davies-Zm2n2O7Fph4-unsplash.jpg,0,170,1,0,1
37104,0,218,1,outdoor_scenes,400,300,0,Stimuli/Experimental_stims/localizer/outdoor_scenes/john-fowler-aaIN3y2zcMQ-unsplash.jpg,0,289,1,0,1
37104,0,219,1,outdoor_scenes,400,300,0,Stimuli/Experimental_stims/localizer/outdoor_scenes/luca-micheli-ruWkmt3nU58-unsplash.jpg,0,336,1,0,1
37104,0,220,1,outdoor_scenes,400,300,0,Stimuli/Experimental_stims/localizer/outdoor_scenes/sabeer-darr-Upz-tnx2v2s-unsplash.jpg,0,294,1,0,1
37104,0,221,1,outdoor_scenes,400,300,0,Stimuli/Experimental_stims/localizer/outdoor_scenes/damian-denis-D8R_txR_0PE-unsplash.jpg,0,396,1,0,1
37104,0,222,1,outdoor_scenes,400,300,0,Stimuli/Experimental_stims/localizer/outdoor_scenes/keith-hardy-PP8Escz15d8-unsplash.jpg,0,316,1,0,1
37104,0,223,1,outdoor_scenes,400,300,1,Stimuli/Experimental_stims/localizer/outdoor_scenes/sebastian-unrau-v4e3JI7DDHI-unsplash.jpg,0,349,1,0,0
37104,0,224,1,outdoor_scenes,400,300,0,Stimuli/Experimental_stims/localizer/outdoor_scenes/mark-harpur-K2s_YE031CA-unsplash.jpg,0,270,1,0,1
37104,0,225,1,outdoor_scenes,400,300,0,Stimuli/Experimental_stims/localizer/outdoor_scenes/fabian-quintero-UWQP2mh5YJI-unsplash.jpg,0,294,1,0,1
37104,0,226,1,outdoor_scenes,400,14000,0,Stimuli/Experimental_stims/localizer/outdoor_scenes/adam-kool-ndN00KmbJ1c-unsplash.jpg,0,300,1,0,1
37104,0,227,1,body_parts,400,300,0,Stimuli/Experimental_stims/localizer/body_parts/charles-etoroma-1fo0biloDOc-unsplash.jpg,0,380,1,0,1
37104,0,228,1,body_parts,400,300,0,Stimuli/Experimental_stims/localizer/body_parts/nadine-shaabana-ypyaaEf2ntM-unsplash.jpg,0,329,1,0,1
37104,0,229,1,body_parts,400,300,0,Stimuli/Experimental_stims/localizer/body_parts/lucaxx-freire-CacZwMexYdk-unsplash.jpg,0,321,1,0,1
37104,0,230,1,body_parts,400,300,0,Stimuli/Experimental_stims/localizer/body_parts/juja-han-Z8-6EI2tYtw-unsplash.jpg,0,311,1,0,1
37104,0,231,1,body_parts,400,300,0,Stimuli/Experimental_stims/localizer/body_parts/billie-5OXE3KjDEfI-unsplash.jpg,0,399,1,0,1
37104,0,232,1,body_parts,400,300,0,Stimuli/Experimental_stims/localizer/body_parts/sincerely-media-3DZHTq_i7Qk-unsplash.jpg,0,304,1,0,1
37104,0,233,1,body_parts,400,300,1,Stimuli/Experimental_stims/localizer/body_parts/diana-polekhina-SwWjCbIIoFE-unsplash.jpg,NaN,NaN,1,1,0
37104,0,234,1,body_parts,400,300,0,Stimuli/Experimental_stims/localizer/body_parts/meghan-thompson-U1b8OB0QpIo-unsplash.jpg,0,278,1,0,1
37104,0,235,1,body_parts,400,300,0,Stimuli/Experimental_stims/localizer/body_parts/nick-page-jAGdpOGvLAA-unsplash.jpg,0,283,1,0,1
37104,0,236,1,body_parts,400,300,0,Stimuli/Experimental_stims/localizer/body_parts/luisa-denu-o5EU_lUB1rg-unsplash.jpg,0,300,1,0,1
37104,0,237,1,body_parts,400,300,0,Stimuli/Experimental_stims/localizer/body_parts/manki-kim-ZtwwncrD4A0-unsplash.jpg,0,249,1,0,1
37104,0,238,1,body_parts,400,300,0,Stimuli/Experimental_stims/localizer/body_parts/sandra-seitamaa-YCc_YAAhY3I-unsplash.jpg,0,286,1,0,1
37104,0,239,1,body_parts,400,300,0,Stimuli/Experimental_stims/localizer/body_parts/anelya-okapova-V69kmOyZ3SU-unsplash.jpg,0,246,1,0,1
37104,0,240,1,body_parts,400,300,0,Stimuli/Experimental_stims/localizer/body_parts/sydney-herron-b2W04fGuS70-unsplash.jpg,0,264,1,0,1
37104,0,241,1,body_parts,400,300,0,Stimuli/Experimental_stims/localizer/body_parts/bady-abbas-pIySu25o0bM-unsplash.jpg,0,335,1,0,1
37104,0,242,1,body_parts,400,300,0,Stimuli/Experimental_stims/localizer/body_parts/femme-spirit-RGYBDUHYbyM-unsplash.jpg,0,343,1,0,1
37104,0,243,1,body_parts,400,300,0,Stimuli/Experimental_stims/localizer/body_parts/ramesh-iyer-CRhznMXoJlc-unsplash.jpg,0,365,1,0,1
37104,0,244,1,body_parts,400,300,0,Stimuli/Experimental_stims/localizer/body_parts/matthew-wheeler-2_UxqsaDMmo-unsplash.jpg,0,310,1,0,1
37104,0,245,1,body_parts,400,300,0,Stimuli/Experimental_stims/localizer/body_parts/ben-hartley-RbrsejLGVZ8-unsplash.jpg,NaN,NaN,1,1,0
37104,0,246,1,body_parts,400,14000,1,Stimuli/Experimental_stims/localizer/body_parts/xavier-foucrier-dLZUNHsT8vo-unsplash.jpg,NaN,NaN,1,1,0