"success","ttype","start_time","trial_type","trial_index","time_elapsed","internal_node_id","age","PID","gender","rt","responses","view_history","repeat_instructions","key_press","response","index","stimulus_index","path"
"true","full_screen","d06292023hr1529","fullscreen","0","1917","0.0-0.0-0.0","NaN","64925","","","","","","","","","",""
"","get_id","","survey-text","1","4575","0.0-0.0-1.0","NaN","64925","","2653","{""Q0"":""q"",""Q1"":""q""}","","","","","","",""
"","ratings_instructions","","instructions","2","6006","0.0-1.0-0.0-0.0","NaN","64925","","1388","","[{""page_index"":0,""viewing_time"":1008},{""page_index"":1,""viewing_time"":380}]","","","","","",""
"","rating_comprehension_check","","survey-multi-choice","3","8444","0.0-1.0-0.0-1.0","NaN","64925","","2432","{""Q0"":""True"",""Q1"":""Mouse""}","","0","","","","",""
"","","","html-keyboard-response","4","9429","0.0-1.0-1.0","NaN","64925","","981","","","","68","","","",""
"","rating","","html-slider-response","5","11000","0.0-1.0-2.0","NaN","64925","","1566","","","","","50","0","28","Stimuli/Experimental_stims/body_parts/ira-vishnevskaya-8DQAvdCby1I-unsplash.jpg"
"","rating","","html-slider-response","6","11159","0.0-1.0-3.0","NaN","64925","","154","","","","","50","1","4","Stimuli/Experimental_stims/outdoor_scenes/jarrett-kow-1ZOyYPOBn7I-unsplash.jpg"
"","rating","","html-slider-response","7","11342","0.0-1.0-4.0","NaN","64925","","176","","","","","50","2","35","Stimuli/Experimental_stims/body_parts/wc-so-KH4AAPjb-tI-unsplash.jpg"
"","rating","","html-slider-response","8","11599","0.0-1.0-5.0","NaN","64925","","254","","","","","50","3","47","Stimuli/Experimental_stims/objects/ronaldo-arthur-vidal-Cdz_lvnl37k-unsplash.jpg"
"","rating","","html-slider-response","9","11751","0.0-1.0-6.0","NaN","64925","","148","","","","","50","4","9","Stimuli/Experimental_stims/outdoor_scenes/sergey-pesterev-y-b_FOmJXdg-unsplash.jpg"
"","rating","","html-slider-response","10","11913","0.0-1.0-7.0","NaN","64925","","158","","","","","50","5","31","Stimuli/Experimental_stims/body_parts/sincerely-media-VN6DbKajo5s-unsplash.jpg"
"","rating","","html-slider-response","11","12085","0.0-1.0-8.0","NaN","64925","","166","","","","","50","6","5","Stimuli/Experimental_stims/outdoor_scenes/jeff-king-bJHWJeiHfHc-unsplash.jpg"
"","rating","","html-slider-response","12","12270","0.0-1.0-9.0","NaN","64925","","179","","","","","50","7","27","Stimuli/Experimental_stims/body_parts/heike-mintel-i_Gns0ELnLw-unsplash.jpg"
"","rating","","html-slider-response","13","12429","0.0-1.0-10.0","NaN","64925","","155","","","","","50","8","37","Stimuli/Experimental_stims/objects/alexander-andrews-VLGWE_SumrA-unsplash.jpg"
"","rating","","html-slider-response","14","12600","0.0-1.0-11.0","NaN","64925","","164","","","","","50","9","19","Stimuli/Experimental_stims/faces/joel-mott-LaK153ghdig-unsplash.jpg"
"","rating","","html-slider-response","15","12762","0.0-1.0-12.0","NaN","64925","","157","","","","","50","10","34","Stimuli/Experimental_stims/body_parts/wagner-santos-mBWMvIuVnso-unsplash.jpg"
"","rating","","html-slider-response","16","12931","0.0-1.0-13.0","NaN","64925","","164","","","","","50","11","22","Stimuli/Experimental_stims/faces/ravi-patel-VMGAbeeJTKo-unsplash.jpg"
"","rating","","html-slider-response","17","13104","0.0-1.0-14.0","NaN","64925","","166","","","","","50","12","1","Stimuli/Experimental_stims/outdoor_scenes/ashim-d-silva-S2Q5mdOrrVc-unsplash.jpg"
"","rating","","html-slider-response","18","13273","0.0-1.0-15.0","NaN","64925","","165","","","","","50","13","15","Stimuli/Experimental_stims/faces/erik-lucatero-d2MSDujJl2g-unsplash.jpg"
"","rating","","html-slider-response","19","13447","0.0-1.0-16.0","NaN","64925","","168","","","","","50","14","17","Stimuli/Experimental_stims/faces/good-faces-xmSWVeGEnJw-unsplash.jpg"
"","rating","","html-slider-response","20","13629","0.0-1.0-17.0","NaN","64925","","176","","","","","50","15","12","Stimuli/Experimental_stims/faces/aiony-haust-jmATI5Q_YgY-unsplash.jpg"
"","rating","","html-slider-response","21","13802","0.0-1.0-18.0","NaN","64925","","167","","","","","50","16","0","Stimuli/Experimental_stims/outdoor_scenes/aleksandra-boguslawska-MS7KD9Ti7FQ-unsplash.jpg"
"","rating","","html-slider-response","22","13974","0.0-1.0-19.0","NaN","64925","","166","","","","","50","17","41","Stimuli/Experimental_stims/objects/insung-yoon-w2JtIQQXoRU-unsplash.jpg"
"","rating","","html-slider-response","23","14145","0.0-1.0-20.0","NaN","64925","","166","","","","","50","18","18","Stimuli/Experimental_stims/faces/jessica-radanavong-mrYkTuAesKE-unsplash.jpg"
"","rating","","html-slider-response","24","14316","0.0-1.0-21.0","NaN","64925","","165","","","","","50","19","11","Stimuli/Experimental_stims/outdoor_scenes/stephen-leonardi-gyIRjKPXupE-unsplash.jpg"
"","rating","","html-slider-response","25","14496","0.0-1.0-22.0","NaN","64925","","176","","","","","50","20","20","Stimuli/Experimental_stims/faces/justin-chen-J7Cf1Gch49E-unsplash.jpg"
"","rating","","html-slider-response","26","14669","0.0-1.0-23.0","NaN","64925","","168","","","","","50","21","23","Stimuli/Experimental_stims/faces/rikonavt-HQjfrvdTfak-unsplash.jpg"
"","rating","","html-slider-response","27","14843","0.0-1.0-24.0","NaN","64925","","170","","","","","50","22","25","Stimuli/Experimental_stims/body_parts/engin-akyurt-Q2rfH3GW39c-unsplash.jpg"
"","rating","","html-slider-response","28","15025","0.0-1.0-25.0","NaN","64925","","177","","","","","50","23","33","Stimuli/Experimental_stims/body_parts/tucker-good-36skLT5jZcc-unsplash.jpg"
"","rating","","html-slider-response","29","15198","0.0-1.0-26.0","NaN","64925","","168","","","","","50","24","32","Stimuli/Experimental_stims/body_parts/towfiqu-barbhuiya-3AsiVDsZnHg-unsplash.jpg"
"","rating","","html-slider-response","30","15369","0.0-1.0-27.0","NaN","64925","","167","","","","","50","25","30","Stimuli/Experimental_stims/body_parts/mika-korhonen-Xodzxosar18-unsplash.jpg"
"","rating","","html-slider-response","31","15552","0.0-1.0-28.0","NaN","64925","","177","","","","","50","26","16","Stimuli/Experimental_stims/faces/freddy-kearney-o-ioeoATbIM-unsplash.jpg"
"","rating","","html-slider-response","32","15732","0.0-1.0-29.0","NaN","64925","","176","","","","","50","27","14","Stimuli/Experimental_stims/faces/david-siglin-UuW4psOb388-unsplash.jpg"
"","rating","","html-slider-response","33","15904","0.0-1.0-30.0","NaN","64925","","168","","","","","50","28","36","Stimuli/Experimental_stims/objects/alexander-andrews-JYGnB9gTCls-unsplash.jpg"
"","rating","","html-slider-response","34","16088","0.0-1.0-31.0","NaN","64925","","180","","","","","50","29","3","Stimuli/Experimental_stims/outdoor_scenes/henry-be-NLF6hTe4PAg-unsplash.jpg"
"","rating","","html-slider-response","35","16258","0.0-1.0-32.0","NaN","64925","","166","","","","","50","30","29","Stimuli/Experimental_stims/body_parts/manuel-schinner-ZwjFuJ7ebpk-unsplash.jpg"
"","rating","","html-slider-response","36","16419","0.0-1.0-33.0","NaN","64925","","156","","","","","50","31","43","Stimuli/Experimental_stims/objects/jonathan-greenaway-Y4hGgeiFn3s-unsplash.jpg"
"","rating","","html-slider-response","37","16594","0.0-1.0-34.0","NaN","64925","","169","","","","","50","32","40","Stimuli/Experimental_stims/objects/fabian-blank-pElSkGRA2NU-unsplash.jpg"
"","rating","","html-slider-response","38","16766","0.0-1.0-35.0","NaN","64925","","167","","","","","50","33","2","Stimuli/Experimental_stims/outdoor_scenes/bruno-van-der-kraan-qez8mNJ3ilU-unsplash.jpg"
"","rating","","html-slider-response","39","16935","0.0-1.0-36.0","NaN","64925","","164","","","","","50","34","26","Stimuli/Experimental_stims/body_parts/engin-akyurt-x_3gyC42btc-unsplash.jpg"
"","rating","","html-slider-response","40","17093","0.0-1.0-37.0","NaN","64925","","154","","","","","50","35","45","Stimuli/Experimental_stims/objects/leohoho-rngTKHXumy0-unsplash.jpg"
"","rating","","html-slider-response","41","17277","0.0-1.0-38.0","NaN","64925","","180","","","","","50","36","6","Stimuli/Experimental_stims/outdoor_scenes/meng-ji-8BH_M-53CyA-unsplash.jpg"
"","rating","","html-slider-response","42","17451","0.0-1.0-39.0","NaN","64925","","169","","","","","50","37","13","Stimuli/Experimental_stims/faces/daniel-rigdon-dXmXKPP2L4E-unsplash.jpg"
"","rating","","html-slider-response","43","17632","0.0-1.0-40.0","NaN","64925","","176","","","","","50","38","44","Stimuli/Experimental_stims/objects/kuiye-chen-NuOGFo4PudE-unsplash.jpg"
"","rating","","html-slider-response","44","17818","0.0-1.0-41.0","NaN","64925","","181","","","","","50","39","42","Stimuli/Experimental_stims/objects/jess-bailey-nOeVi8DsN8U-unsplash.jpg"
"","rating","","html-slider-response","45","18012","0.0-1.0-42.0","NaN","64925","","189","","","","","50","40","24","Stimuli/Experimental_stims/body_parts/clay-banks-LjqARJaJotc-unsplash.jpg"
"","rating","","html-slider-response","46","18172","0.0-1.0-43.0","NaN","64925","","155","","","","","50","41","21","Stimuli/Experimental_stims/faces/leilani-angel-K84vnnzxmTQ-unsplash.jpg"
"","rating","","html-slider-response","47","18344","0.0-1.0-44.0","NaN","64925","","166","","","","","50","42","7","Stimuli/Experimental_stims/outdoor_scenes/petr-vysohlid-9fqwGqGLUxc-unsplash.jpg"
"","rating","","html-slider-response","48","18515","0.0-1.0-45.0","NaN","64925","","167","","","","","50","43","46","Stimuli/Experimental_stims/objects/mockup-graphics-PNsj6RiHAF4-unsplash.jpg"
"","rating","","html-slider-response","49","18688","0.0-1.0-46.0","NaN","64925","","167","","","","","50","44","38","Stimuli/Experimental_stims/objects/art-lasovsky-8XddFc6NkBY-unsplash.jpg"
"","rating","","html-slider-response","50","18858","0.0-1.0-47.0","NaN","64925","","165","","","","","50","45","8","Stimuli/Experimental_stims/outdoor_scenes/samsommer-vddccTqwal8-unsplash.jpg"
"","rating","","html-slider-response","51","19053","0.0-1.0-48.0","NaN","64925","","191","","","","","50","46","10","Stimuli/Experimental_stims/outdoor_scenes/shannon-kunkle-dM8INmkyDas-unsplash.jpg"
"","rating","","html-slider-response","52","19224","0.0-1.0-49.0","NaN","64925","","166","","","","","50","47","39","Stimuli/Experimental_stims/objects/charlesdeluvio-1-nx1QR5dTE-unsplash.jpg"
