success,ttype,start_time,trial_type,trial_index,time_elapsed,internal_node_id,age,PID,gender,rt,responses,view_history,repeat_instructions,key_press,response,index,stimulus_index,path,missed_checkup,start_time_elapsed,run,task,isi,is_odd_ball,no_response,acc,duration,onset,duration_time_elapsed,onset_time_elapsed,trial_duration,left_chosen,chosen_stimulus,unchosen_stimulus,chosen_category,unchosen_category,chosen_rating,unchosen_rating,chosen_path,unchosen_path,pair_id,practice,scramble_screen_time,scramble_instructed_side,stim_type,iti,block,left_stimulus,right_stimulus,left_category,right_category,left_path,right_path,left_rating,right_rating,scramble_acc,scramble_no_response,warning,stimulus_id,item_id,outcome,response_rt,deliberation_reward_tally,choice_type,gain_left,left_item_id,right_item_id,higher_outcome_chosen,chosen_left,old_pair,pair_type,old_response,pair_acc,reward_type,outcome_response,outcome_rt,outcome_acc,category,choice,deliberated_stim,old_rating,new_rating,total_reward_tally
TRUE,full_screen,d08142023hr1729,fullscreen,0,1940,0.0-0.0-0.0,333,53286,f,,,,,,,,,,,,,,,,,,,,,,,,,,,,,,,,,,,,,,,,,,,,,,,,,,,,,,,,,,,,,,,,,,,,,,,,,,
,get_id,,survey-text,1,5219,0.0-0.0-1.0,333,53286,f,3274,"{""Q0"":""333"",""Q1"":""2""}",,,,,,,,,,,,,,,,,,,,,,,,,,,,,,,,,,,,,,,,,,,,,,,,,,,,,,,,,,,,,,,,,,,,,,,,
,ratings_instructions,,instructions,2,6360,0.0-1.0-0.0-0.0,333,53286,f,958,,"[{""page_index"":0,""viewing_time"":790},{""page_index"":1,""viewing_time"":168}]",,,,,,,,,,,,,,,,,,,,,,,,,,,,,,,,,,,,,,,,,,,,,,,,,,,,,,,,,,,,,,,,,,,,,,,
,rating_comprehension_check,,survey-multi-choice,3,8884,0.0-1.0-0.0-1.0,333,53286,f,2519,"{""Q0"":""True"",""Q1"":""Mouse""}",,0,,,,,,,,,,,,,,,,,,,,,,,,,,,,,,,,,,,,,,,,,,,,,,,,,,,,,,,,,,,,,,,,,,,,,,
,,,html-keyboard-response,4,9756,0.0-1.0-1.0,333,53286,f,868,,,,68,,,,,,,,,,,,,,,,,,,,,,,,,,,,,,,,,,,,,,,,,,,,,,,,,,,,,,,,,,,,,,,,,,,,,
,rating,,html-slider-response,5,10704,0.0-1.0-2.0,333,53286,f,944,,,,,50,0,11,Stimuli/Experimental_stims/outdoor_scenes/stephen-leonardi-gyIRjKPXupE-unsplash.jpg,,,,,,,,,,,,,,,,,,,,,,,,,,,,,,,,,,,,,,,,,,,,,,,,,,,,,,,,,,,,,,,,,
,rating,,html-slider-response,6,10883,0.0-1.0-3.0,333,53286,f,175,,,,,50,1,37,Stimuli/Experimental_stims/objects/alexander-andrews-VLGWE_SumrA-unsplash.jpg,,,,,,,,,,,,,,,,,,,,,,,,,,,,,,,,,,,,,,,,,,,,,,,,,,,,,,,,,,,,,,,,,
,rating,,html-slider-response,7,11095,0.0-1.0-4.0,333,53286,f,208,,,,,50,2,43,Stimuli/Experimental_stims/objects/jonathan-greenaway-Y4hGgeiFn3s-unsplash.jpg,,,,,,,,,,,,,,,,,,,,,,,,,,,,,,,,,,,,,,,,,,,,,,,,,,,,,,,,,,,,,,,,,
,rating,,html-slider-response,8,11274,0.0-1.0-5.0,333,53286,f,174,,,,,50,3,45,Stimuli/Experimental_stims/objects/leohoho-rngTKHXumy0-unsplash.jpg,,,,,,,,,,,,,,,,,,,,,,,,,,,,,,,,,,,,,,,,,,,,,,,,,,,,,,,,,,,,,,,,,
,rating,,html-slider-response,9,11442,0.0-1.0-6.0,333,53286,f,163,,,,,50,4,1,Stimuli/Experimental_stims/outdoor_scenes/ashim-d-silva-S2Q5mdOrrVc-unsplash.jpg,,,,,,,,,,,,,,,,,,,,,,,,,,,,,,,,,,,,,,,,,,,,,,,,,,,,,,,,,,,,,,,,,
,rating,,html-slider-response,10,11597,0.0-1.0-7.0,333,53286,f,152,,,,,50,5,4,Stimuli/Experimental_stims/outdoor_scenes/jarrett-kow-1ZOyYPOBn7I-unsplash.jpg,,,,,,,,,,,,,,,,,,,,,,,,,,,,,,,,,,,,,,,,,,,,,,,,,,,,,,,,,,,,,,,,,
,rating,,html-slider-response,11,11776,0.0-1.0-8.0,333,53286,f,174,,,,,50,6,35,Stimuli/Experimental_stims/body_parts/wc-so-KH4AAPjb-tI-unsplash.jpg,,,,,,,,,,,,,,,,,,,,,,,,,,,,,,,,,,,,,,,,,,,,,,,,,,,,,,,,,,,,,,,,,
,rating,,html-slider-response,12,11943,0.0-1.0-9.0,333,53286,f,163,,,,,50,7,24,Stimuli/Experimental_stims/body_parts/clay-banks-LjqARJaJotc-unsplash.jpg,,,,,,,,,,,,,,,,,,,,,,,,,,,,,,,,,,,,,,,,,,,,,,,,,,,,,,,,,,,,,,,,,
,rating,,html-slider-response,13,12112,0.0-1.0-10.0,333,53286,f,164,,,,,50,8,6,Stimuli/Experimental_stims/outdoor_scenes/meng-ji-8BH_M-53CyA-unsplash.jpg,,,,,,,,,,,,,,,,,,,,,,,,,,,,,,,,,,,,,,,,,,,,,,,,,,,,,,,,,,,,,,,,,
,rating,,html-slider-response,14,12280,0.0-1.0-11.0,333,53286,f,164,,,,,50,9,3,Stimuli/Experimental_stims/outdoor_scenes/henry-be-NLF6hTe4PAg-unsplash.jpg,,,,,,,,,,,,,,,,,,,,,,,,,,,,,,,,,,,,,,,,,,,,,,,,,,,,,,,,,,,,,,,,,
,rating,,html-slider-response,15,12457,0.0-1.0-12.0,333,53286,f,173,,,,,50,10,5,Stimuli/Experimental_stims/outdoor_scenes/jeff-king-bJHWJeiHfHc-unsplash.jpg,,,,,,,,,,,,,,,,,,,,,,,,,,,,,,,,,,,,,,,,,,,,,,,,,,,,,,,,,,,,,,,,,
,rating,,html-slider-response,16,12626,0.0-1.0-13.0,333,53286,f,164,,,,,50,11,25,Stimuli/Experimental_stims/body_parts/engin-akyurt-Q2rfH3GW39c-unsplash.jpg,,,,,,,,,,,,,,,,,,,,,,,,,,,,,,,,,,,,,,,,,,,,,,,,,,,,,,,,,,,,,,,,,
,rating,,html-slider-response,17,12781,0.0-1.0-14.0,333,53286,f,152,,,,,50,12,21,Stimuli/Experimental_stims/faces/leilani-angel-K84vnnzxmTQ-unsplash.jpg,,,,,,,,,,,,,,,,,,,,,,,,,,,,,,,,,,,,,,,,,,,,,,,,,,,,,,,,,,,,,,,,,
,rating,,html-slider-response,18,12949,0.0-1.0-15.0,333,53286,f,164,,,,,50,13,40,Stimuli/Experimental_stims/objects/fabian-blank-pElSkGRA2NU-unsplash.jpg,,,,,,,,,,,,,,,,,,,,,,,,,,,,,,,,,,,,,,,,,,,,,,,,,,,,,,,,,,,,,,,,,
,rating,,html-slider-response,19,13118,0.0-1.0-16.0,333,53286,f,164,,,,,50,14,46,Stimuli/Experimental_stims/objects/mockup-graphics-PNsj6RiHAF4-unsplash.jpg,,,,,,,,,,,,,,,,,,,,,,,,,,,,,,,,,,,,,,,,,,,,,,,,,,,,,,,,,,,,,,,,,
,rating,,html-slider-response,20,13283,0.0-1.0-17.0,333,53286,f,162,,,,,50,15,34,Stimuli/Experimental_stims/body_parts/wagner-santos-mBWMvIuVnso-unsplash.jpg,,,,,,,,,,,,,,,,,,,,,,,,,,,,,,,,,,,,,,,,,,,,,,,,,,,,,,,,,,,,,,,,,
,rating,,html-slider-response,21,13452,0.0-1.0-18.0,333,53286,f,165,,,,,50,16,32,Stimuli/Experimental_stims/body_parts/towfiqu-barbhuiya-3AsiVDsZnHg-unsplash.jpg,,,,,,,,,,,,,,,,,,,,,,,,,,,,,,,,,,,,,,,,,,,,,,,,,,,,,,,,,,,,,,,,,
,rating,,html-slider-response,22,13632,0.0-1.0-19.0,333,53286,f,176,,,,,50,17,18,Stimuli/Experimental_stims/faces/jessica-radanavong-mrYkTuAesKE-unsplash.jpg,,,,,,,,,,,,,,,,,,,,,,,,,,,,,,,,,,,,,,,,,,,,,,,,,,,,,,,,,,,,,,,,,
,rating,,html-slider-response,23,13809,0.0-1.0-20.0,333,53286,f,173,,,,,50,18,22,Stimuli/Experimental_stims/faces/ravi-patel-VMGAbeeJTKo-unsplash.jpg,,,,,,,,,,,,,,,,,,,,,,,,,,,,,,,,,,,,,,,,,,,,,,,,,,,,,,,,,,,,,,,,,
,rating,,html-slider-response,24,13978,0.0-1.0-21.0,333,53286,f,164,,,,,50,19,33,Stimuli/Experimental_stims/body_parts/tucker-good-36skLT5jZcc-unsplash.jpg,,,,,,,,,,,,,,,,,,,,,,,,,,,,,,,,,,,,,,,,,,,,,,,,,,,,,,,,,,,,,,,,,
,rating,,html-slider-response,25,14168,0.0-1.0-22.0,333,53286,f,185,,,,,50,20,47,Stimuli/Experimental_stims/objects/ronaldo-arthur-vidal-Cdz_lvnl37k-unsplash.jpg,,,,,,,,,,,,,,,,,,,,,,,,,,,,,,,,,,,,,,,,,,,,,,,,,,,,,,,,,,,,,,,,,
,rating,,html-slider-response,26,14335,0.0-1.0-23.0,333,53286,f,163,,,,,50,21,20,Stimuli/Experimental_stims/faces/justin-chen-J7Cf1Gch49E-unsplash.jpg,,,,,,,,,,,,,,,,,,,,,,,,,,,,,,,,,,,,,,,,,,,,,,,,,,,,,,,,,,,,,,,,,
,rating,,html-slider-response,27,14513,0.0-1.0-24.0,333,53286,f,174,,,,,50,22,19,Stimuli/Experimental_stims/faces/joel-mott-LaK153ghdig-unsplash.jpg,,,,,,,,,,,,,,,,,,,,,,,,,,,,,,,,,,,,,,,,,,,,,,,,,,,,,,,,,,,,,,,,,
,rating,,html-slider-response,28,14692,0.0-1.0-25.0,333,53286,f,174,,,,,50,23,42,Stimuli/Experimental_stims/objects/jess-bailey-nOeVi8DsN8U-unsplash.jpg,,,,,,,,,,,,,,,,,,,,,,,,,,,,,,,,,,,,,,,,,,,,,,,,,,,,,,,,,,,,,,,,,
,rating,,html-slider-response,29,14872,0.0-1.0-26.0,333,53286,f,177,,,,,50,24,26,Stimuli/Experimental_stims/body_parts/engin-akyurt-x_3gyC42btc-unsplash.jpg,,,,,,,,,,,,,,,,,,,,,,,,,,,,,,,,,,,,,,,,,,,,,,,,,,,,,,,,,,,,,,,,,
,rating,,html-slider-response,30,15060,0.0-1.0-27.0,333,53286,f,183,,,,,50,25,36,Stimuli/Experimental_stims/objects/alexander-andrews-JYGnB9gTCls-unsplash.jpg,,,,,,,,,,,,,,,,,,,,,,,,,,,,,,,,,,,,,,,,,,,,,,,,,,,,,,,,,,,,,,,,,
,rating,,html-slider-response,31,15239,0.0-1.0-28.0,333,53286,f,175,,,,,50,26,41,Stimuli/Experimental_stims/objects/insung-yoon-w2JtIQQXoRU-unsplash.jpg,,,,,,,,,,,,,,,,,,,,,,,,,,,,,,,,,,,,,,,,,,,,,,,,,,,,,,,,,,,,,,,,,
,rating,,html-slider-response,32,15418,0.0-1.0-29.0,333,53286,f,174,,,,,50,27,0,Stimuli/Experimental_stims/outdoor_scenes/aleksandra-boguslawska-MS7KD9Ti7FQ-unsplash.jpg,,,,,,,,,,,,,,,,,,,,,,,,,,,,,,,,,,,,,,,,,,,,,,,,,,,,,,,,,,,,,,,,,
,rating,,html-slider-response,33,15601,0.0-1.0-30.0,333,53286,f,176,,,,,50,28,29,Stimuli/Experimental_stims/body_parts/manuel-schinner-ZwjFuJ7ebpk-unsplash.jpg,,,,,,,,,,,,,,,,,,,,,,,,,,,,,,,,,,,,,,,,,,,,,,,,,,,,,,,,,,,,,,,,,
,rating,,html-slider-response,34,15787,0.0-1.0-31.0,333,53286,f,182,,,,,50,29,39,Stimuli/Experimental_stims/objects/charlesdeluvio-1-nx1QR5dTE-unsplash.jpg,,,,,,,,,,,,,,,,,,,,,,,,,,,,,,,,,,,,,,,,,,,,,,,,,,,,,,,,,,,,,,,,,
,rating,,html-slider-response,35,15975,0.0-1.0-32.0,333,53286,f,184,,,,,50,30,27,Stimuli/Experimental_stims/body_parts/heike-mintel-i_Gns0ELnLw-unsplash.jpg,,,,,,,,,,,,,,,,,,,,,,,,,,,,,,,,,,,,,,,,,,,,,,,,,,,,,,,,,,,,,,,,,
,rating,,html-slider-response,36,16155,0.0-1.0-33.0,333,53286,f,176,,,,,50,31,16,Stimuli/Experimental_stims/faces/freddy-kearney-o-ioeoATbIM-unsplash.jpg,,,,,,,,,,,,,,,,,,,,,,,,,,,,,,,,,,,,,,,,,,,,,,,,,,,,,,,,,,,,,,,,,
,rating,,html-slider-response,37,16334,0.0-1.0-34.0,333,53286,f,174,,,,,50,32,8,Stimuli/Experimental_stims/outdoor_scenes/samsommer-vddccTqwal8-unsplash.jpg,,,,,,,,,,,,,,,,,,,,,,,,,,,,,,,,,,,,,,,,,,,,,,,,,,,,,,,,,,,,,,,,,
,rating,,html-slider-response,38,16513,0.0-1.0-35.0,333,53286,f,175,,,,,50,33,38,Stimuli/Experimental_stims/objects/art-lasovsky-8XddFc6NkBY-unsplash.jpg,,,,,,,,,,,,,,,,,,,,,,,,,,,,,,,,,,,,,,,,,,,,,,,,,,,,,,,,,,,,,,,,,
,rating,,html-slider-response,39,16714,0.0-1.0-36.0,333,53286,f,196,,,,,50,34,30,Stimuli/Experimental_stims/body_parts/mika-korhonen-Xodzxosar18-unsplash.jpg,,,,,,,,,,,,,,,,,,,,,,,,,,,,,,,,,,,,,,,,,,,,,,,,,,,,,,,,,,,,,,,,,
,rating,,html-slider-response,40,16892,0.0-1.0-37.0,333,53286,f,173,,,,,50,35,23,Stimuli/Experimental_stims/faces/rikonavt-HQjfrvdTfak-unsplash.jpg,,,,,,,,,,,,,,,,,,,,,,,,,,,,,,,,,,,,,,,,,,,,,,,,,,,,,,,,,,,,,,,,,
,rating,,html-slider-response,41,17082,0.0-1.0-38.0,333,53286,f,186,,,,,50,36,10,Stimuli/Experimental_stims/outdoor_scenes/shannon-kunkle-dM8INmkyDas-unsplash.jpg,,,,,,,,,,,,,,,,,,,,,,,,,,,,,,,,,,,,,,,,,,,,,,,,,,,,,,,,,,,,,,,,,
,rating,,html-slider-response,42,17284,0.0-1.0-39.0,333,53286,f,198,,,,,50,37,12,Stimuli/Experimental_stims/faces/aiony-haust-jmATI5Q_YgY-unsplash.jpg,,,,,,,,,,,,,,,,,,,,,,,,,,,,,,,,,,,,,,,,,,,,,,,,,,,,,,,,,,,,,,,,,
,rating,,html-slider-response,43,17474,0.0-1.0-40.0,333,53286,f,186,,,,,50,38,31,Stimuli/Experimental_stims/body_parts/sincerely-media-VN6DbKajo5s-unsplash.jpg,,,,,,,,,,,,,,,,,,,,,,,,,,,,,,,,,,,,,,,,,,,,,,,,,,,,,,,,,,,,,,,,,
,rating,,html-slider-response,44,17652,0.0-1.0-41.0,333,53286,f,175,,,,,50,39,7,Stimuli/Experimental_stims/outdoor_scenes/petr-vysohlid-9fqwGqGLUxc-unsplash.jpg,,,,,,,,,,,,,,,,,,,,,,,,,,,,,,,,,,,,,,,,,,,,,,,,,,,,,,,,,,,,,,,,,
,rating,,html-slider-response,45,17831,0.0-1.0-42.0,333,53286,f,175,,,,,50,40,15,Stimuli/Experimental_stims/faces/erik-lucatero-d2MSDujJl2g-unsplash.jpg,,,,,,,,,,,,,,,,,,,,,,,,,,,,,,,,,,,,,,,,,,,,,,,,,,,,,,,,,,,,,,,,,
,rating,,html-slider-response,46,18009,0.0-1.0-43.0,333,53286,f,174,,,,,50,41,28,Stimuli/Experimental_stims/body_parts/ira-vishnevskaya-8DQAvdCby1I-unsplash.jpg,,,,,,,,,,,,,,,,,,,,,,,,,,,,,,,,,,,,,,,,,,,,,,,,,,,,,,,,,,,,,,,,,
,rating,,html-slider-response,47,18187,0.0-1.0-44.0,333,53286,f,174,,,,,50,42,9,Stimuli/Experimental_stims/outdoor_scenes/sergey-pesterev-y-b_FOmJXdg-unsplash.jpg,,,,,,,,,,,,,,,,,,,,,,,,,,,,,,,,,,,,,,,,,,,,,,,,,,,,,,,,,,,,,,,,,
,rating,,html-slider-response,48,18402,0.0-1.0-45.0,333,53286,f,210,,,,,50,43,2,Stimuli/Experimental_stims/outdoor_scenes/bruno-van-der-kraan-qez8mNJ3ilU-unsplash.jpg,,,,,,,,,,,,,,,,,,,,,,,,,,,,,,,,,,,,,,,,,,,,,,,,,,,,,,,,,,,,,,,,,
,rating,,html-slider-response,49,18580,0.0-1.0-46.0,333,53286,f,174,,,,,50,44,17,Stimuli/Experimental_stims/faces/good-faces-xmSWVeGEnJw-unsplash.jpg,,,,,,,,,,,,,,,,,,,,,,,,,,,,,,,,,,,,,,,,,,,,,,,,,,,,,,,,,,,,,,,,,
,rating,,html-slider-response,50,18757,0.0-1.0-47.0,333,53286,f,174,,,,,50,45,44,Stimuli/Experimental_stims/objects/kuiye-chen-NuOGFo4PudE-unsplash.jpg,,,,,,,,,,,,,,,,,,,,,,,,,,,,,,,,,,,,,,,,,,,,,,,,,,,,,,,,,,,,,,,,,
,rating,,html-slider-response,51,18960,0.0-1.0-48.0,333,53286,f,198,,,,,50,46,13,Stimuli/Experimental_stims/faces/daniel-rigdon-dXmXKPP2L4E-unsplash.jpg,,,,,,,,,,,,,,,,,,,,,,,,,,,,,,,,,,,,,,,,,,,,,,,,,,,,,,,,,,,,,,,,,
,rating,,html-slider-response,52,19150,0.0-1.0-49.0,333,53286,f,186,,,,,50,47,14,Stimuli/Experimental_stims/faces/david-siglin-UuW4psOb388-unsplash.jpg,,,,,,,,,,,,,,,,,,,,,,,,,,,,,,,,,,,,,,,,,,,,,,,,,,,,,,,,,,,,,,,,,
,localizer_instructions,,instructions,53,20936,0.0-2.0-0.0-0.0,333,53286,f,1740,,"[{""page_index"":0,""viewing_time"":1349},{""page_index"":1,""viewing_time"":190},{""page_index"":2,""viewing_time"":200}]",,,,,,,,,,,,,,,,,,,,,,,,,,,,,,,,,,,,,,,,,,,,,,,,,,,,,,,,,,,,,,,,,,,,,,,
,localizer_comprehension_check,,survey-multi-choice,54,25940,0.0-2.0-0.0-1.0,333,53286,f,5000,"{""Q0"":""True"",""Q1"":""D"",""Q2"":""K""}",,1,,,,,,,,,,,,,,,,,,,,,,,,,,,,,,,,,,,,,,,,,,,,,,,,,,,,,,,,,,,,,,,,,,,,,,
,missed_instruction_checkup,,html-keyboard-response,55,27534,0.0-2.0-0.0-2.0-0.0,333,53286,f,1587,,,,68,,,,,1,,,,,,,,,,,,,,,,,,,,,,,,,,,,,,,,,,,,,,,,,,,,,,,,,,,,,,,,,,,,,,,,
,localizer_instructions,,instructions,56,29100,0.0-2.0-0.1-0.1,333,53286,f,1563,,"[{""page_index"":0,""viewing_time"":1229},{""page_index"":1,""viewing_time"":178},{""page_index"":2,""viewing_time"":156}]",,,,,,,,,,,,,,,,,,,,,,,,,,,,,,,,,,,,,,,,,,,,,,,,,,,,,,,,,,,,,,,,,,,,,,,
,localizer_comprehension_check,,survey-multi-choice,57,32920,0.0-2.0-0.1-1.1,333,53286,f,3816,"{""Q0"":""True"",""Q1"":""K"",""Q2"":""D""}",,0,,,,,,,,,,,,,,,,,,,,,,,,,,,,,,,,,,,,,,,,,,,,,,,,,,,,,,,,,,,,,,,,,,,,,,
,,,html-keyboard-response,58,34181,0.0-2.0-1.0,333,53286,f,1256,,,,68,,,,,,,,,,,,,,,,,,,,,,,,,,,,,,,,,,,,,,,,,,,,,,,,,,,,,,,,,,,,,,,,,,,,,
,localizer,,html-keyboard-response,59,34586,0.0-2.0-2.0-0.0,333,53286,f,NaN,,,,null,NaN,0,,Stimuli/Practice_stims/Localizer/annie-spratt-g9KFpAfQ5bc-unsplash.jpg,,34181,0,NaN,,0,1,0,400,0,405,0,,,,,,,,,,,,,,,,,,,,,,,,,,,,,,,,,,,,,,,,,,,,,,,,,,,,,
,iti_localizer,,html-keyboard-response,60,34895,0.0-2.0-2.0-1.0,333,53286,f,null,,,,null,,0,,,,34586,0,,,,,,300,400,309,405,300,,,,,,,,,,,,,,,,,,,,,,,,,,,,,,,,,,,,,,,,,,,,,,,,,,,,
,localizer,,html-keyboard-response,61,35312,0.0-2.0-2.1-0.1,333,53286,f,NaN,,,,null,NaN,0,,Stimuli/Practice_stims/Localizer/annie-spratt-g9KFpAfQ5bc-unsplash.jpg,,34895,0,NaN,,0,1,0,400,700,417,714,,,,,,,,,,,,,,,,,,,,,,,,,,,,,,,,,,,,,,,,,,,,,,,,,,,,,
,iti_localizer,,html-keyboard-response,62,35622,0.0-2.0-2.1-1.1,333,53286,f,null,,,,null,,0,,,,35312,0,,,,,,300,1100,310,1131,300,,,,,,,,,,,,,,,,,,,,,,,,,,,,,,,,,,,,,,,,,,,,,,,,,,,,
,localizer,,html-keyboard-response,63,36040,0.0-2.0-2.2-0.2,333,53286,f,92,,,,68,0,0,,Stimuli/Practice_stims/Localizer/annie-spratt-g9KFpAfQ5bc-unsplash.jpg,,35622,0,NaN,,0,0,1,400,1400,418,1441,,,,,,,,,,,,,,,,,,,,,,,,,,,,,,,,,,,,,,,,,,,,,,,,,,,,,
,iti_localizer,,html-keyboard-response,64,36348,0.0-2.0-2.2-1.2,333,53286,f,null,,,,null,,0,,,,36040,0,,,,,,300,1800,308,1859,300,,,,,,,,,,,,,,,,,,,,,,,,,,,,,,,,,,,,,,,,,,,,,,,,,,,,
,localizer,,html-keyboard-response,65,36757,0.0-2.0-3.0-0.0,333,53286,f,86,,,,68,0,1,,Stimuli/Practice_stims/Localizer/becca-tapert-sY5RjMB1KkE-unsplash.jpg,,36348,0,NaN,,0,0,1,400,2100,409,2167,,,,,,,,,,,,,,,,,,,,,,,,,,,,,,,,,,,,,,,,,,,,,,,,,,,,,
,iti_localizer,,html-keyboard-response,66,37069,0.0-2.0-3.0-1.0,333,53286,f,null,,,,null,,1,,,,36757,0,,,,,,300,2500,312,2576,300,,,,,,,,,,,,,,,,,,,,,,,,,,,,,,,,,,,,,,,,,,,,,,,,,,,,
,localizer,,html-keyboard-response,67,37486,0.0-2.0-4.0-0.0,333,53286,f,62,,,,68,0,2,,Stimuli/Practice_stims/Localizer/charl-durand-bsfXvI25iNg-unsplash.jpg,,37069,0,NaN,,1,0,0,400,2800,417,2888,,,,,,,,,,,,,,,,,,,,,,,,,,,,,,,,,,,,,,,,,,,,,,,,,,,,,
,iti_localizer,,html-keyboard-response,68,37797,0.0-2.0-4.0-1.0,333,53286,f,null,,,,null,,2,,,,37486,0,,,,,,300,3200,311,3305,300,,,,,,,,,,,,,,,,,,,,,,,,,,,,,,,,,,,,,,,,,,,,,,,,,,,,
,localizer,,html-keyboard-response,69,38207,0.0-2.0-5.0-0.0,333,53286,f,405,,,,68,0,3,,Stimuli/Practice_stims/Localizer/nizar-albusaidy-B2r2SWAf5CE-unsplash.jpg,,37797,0,NaN,,0,0,1,400,3500,410,3616,,,,,,,,,,,,,,,,,,,,,,,,,,,,,,,,,,,,,,,,,,,,,,,,,,,,,
,iti_localizer,,html-keyboard-response,70,38515,0.0-2.0-5.0-1.0,333,53286,f,null,,,,null,,3,,,,38207,0,,,,,,300,3900,308,4026,300,,,,,,,,,,,,,,,,,,,,,,,,,,,,,,,,,,,,,,,,,,,,,,,,,,,,
,localizer,,html-keyboard-response,71,38922,0.0-2.0-6.0-0.0,333,53286,f,349,,,,68,0,4,,Stimuli/Practice_stims/Localizer/randy-fath-epf1tdtIIkM-unsplash.jpg,,38515,0,NaN,,1,0,0,400,4200,407,4334,,,,,,,,,,,,,,,,,,,,,,,,,,,,,,,,,,,,,,,,,,,,,,,,,,,,,
,iti_localizer,,html-keyboard-response,72,39237,0.0-2.0-6.0-1.0,333,53286,f,null,,,,null,,4,,,,38922,0,,,,,,300,4600,315,4741,300,,,,,,,,,,,,,,,,,,,,,,,,,,,,,,,,,,,,,,,,,,,,,,,,,,,,
,localizer,,html-keyboard-response,73,39646,0.0-2.0-7.0-0.0,333,53286,f,99,,,,68,0,5,,Stimuli/Practice_stims/Localizer/yassine-khalfalli-adsQ9d_Cx0c-unsplash.jpg,,39237,0,NaN,,0,0,1,400,4900,409,5056,,,,,,,,,,,,,,,,,,,,,,,,,,,,,,,,,,,,,,,,,,,,,,,,,,,,,
,iti_localizer,,html-keyboard-response,74,39958,0.0-2.0-7.0-1.0,333,53286,f,null,,,,null,,5,,,,39646,0,,,,,,300,5300,312,5465,300,,,,,,,,,,,,,,,,,,,,,,,,,,,,,,,,,,,,,,,,,,,,,,,,,,,,
,practice_over,,html-keyboard-response,75,39997,0.0-2.0-7.0-2.0-0.0,333,53286,f,36,,,,68,,,,,,,,,,,,,,,,,,,,,,,,,,,,,,,,,,,,,,,,,,,,,,,,,,,,,,,,,,,,,,,,,,,,,
,start_run,,html-keyboard-response,76,41033,0.0-2.0-7.0-2.0-1.0,333,53286,f,1031,,,,84,,,,,,,,,,,,,,,,,,,,,,,,,,,,,,,,,,,,,,,,,,,,,,,,,,,,,,,,,,,,,,,,,,,,,
,localizer,,html-keyboard-response,77,41445,0.0-2.0-8.0-0.0,333,53286,f,NaN,,,,null,NaN,6,,Stimuli/Experimental_stims/localizer/objects/jonny-caspari-wsvCC6UyKjs-unsplash.jpg,,41033,1,objects,,0,1,0,400,0,412,0,,,,,,,,,,,,,,,,,,,,,,,,,,,,,,,,,,,,,,,,,,,,,,,,,,,,,
,iti_localizer,,html-keyboard-response,78,41759,0.0-2.0-8.0-1.0,333,53286,f,null,,,,null,,6,,,,41445,1,,,,,,300,400,314,412,300,,,,,,,,,,,,,,,,,,,,,,,,,,,,,,,,,,,,,,,,,,,,,,,,,,,,
,localizer,,html-keyboard-response,79,42174,0.0-2.0-9.0-0.0,333,53286,f,NaN,,,,null,NaN,7,,Stimuli/Experimental_stims/localizer/objects/charlesdeluvio-RDjZh9dqlP4-unsplash.jpg,,41759,1,objects,,0,1,0,400,700,415,726,,,,,,,,,,,,,,,,,,,,,,,,,,,,,,,,,,,,,,,,,,,,,,,,,,,,,
,iti_localizer,,html-keyboard-response,80,42487,0.0-2.0-9.0-1.0,333,53286,f,null,,,,null,,7,,,,42174,1,,,,,,300,1100,313,1141,300,,,,,,,,,,,,,,,,,,,,,,,,,,,,,,,,,,,,,,,,,,,,,,,,,,,,
,localizer,,html-keyboard-response,81,42899,0.0-2.0-10.0-0.0,333,53286,f,260,,,,68,0,8,,Stimuli/Experimental_stims/localizer/objects/adriano-pucciarelli-Jl3S1yM8gi8-unsplash.jpg,,42487,1,objects,,0,0,1,400,1400,412,1454,,,,,,,,,,,,,,,,,,,,,,,,,,,,,,,,,,,,,,,,,,,,,,,,,,,,,
,iti_localizer,,html-keyboard-response,82,43211,0.0-2.0-10.0-1.0,333,53286,f,null,,,,null,,8,,,,42899,1,,,,,,300,1800,312,1866,300,,,,,,,,,,,,,,,,,,,,,,,,,,,,,,,,,,,,,,,,,,,,,,,,,,,,
,localizer,,html-keyboard-response,83,43620,0.0-2.0-11.0-0.0,333,53286,f,293,,,,68,0,9,,Stimuli/Experimental_stims/localizer/objects/mockup-graphics-Pj2PY-E-LfM-unsplash.jpg,,43211,1,objects,,0,0,1,400,2100,409,2178,,,,,,,,,,,,,,,,,,,,,,,,,,,,,,,,,,,,,,,,,,,,,,,,,,,,,
,iti_localizer,,html-keyboard-response,84,43936,0.0-2.0-11.0-1.0,333,53286,f,null,,,,null,,9,,,,43620,1,,,,,,300,2500,316,2587,300,,,,,,,,,,,,,,,,,,,,,,,,,,,,,,,,,,,,,,,,,,,,,,,,,,,,
,localizer,,html-keyboard-response,85,44349,0.0-2.0-12.0-0.0,333,53286,f,211,,,,75,1,10,,Stimuli/Experimental_stims/localizer/objects/chris-briggs-x9TCnxNBofE-unsplash.jpg,,43936,1,objects,,0,0,0,400,2800,413,2903,,,,,,,,,,,,,,,,,,,,,,,,,,,,,,,,,,,,,,,,,,,,,,,,,,,,,
,iti_localizer,,html-keyboard-response,86,44662,0.0-2.0-12.0-1.0,333,53286,f,null,,,,null,,10,,,,44349,1,,,,,,300,3200,313,3316,300,,,,,,,,,,,,,,,,,,,,,,,,,,,,,,,,,,,,,,,,,,,,,,,,,,,,
,localizer,,html-keyboard-response,87,45078,0.0-2.0-13.0-0.0,333,53286,f,317,,,,75,1,11,,Stimuli/Experimental_stims/localizer/objects/ignat-dolomanov-kFBDVnmskPA-unsplash.jpg,,44662,1,objects,,1,0,1,400,3500,416,3629,,,,,,,,,,,,,,,,,,,,,,,,,,,,,,,,,,,,,,,,,,,,,,,,,,,,,
,iti_localizer,,html-keyboard-response,88,45388,0.0-2.0-13.0-1.0,333,53286,f,null,,,,null,,11,,,,45078,1,,,,,,300,3900,310,4045,300,,,,,,,,,,,,,,,,,,,,,,,,,,,,,,,,,,,,,,,,,,,,,,,,,,,,
,localizer,,html-keyboard-response,89,45798,0.0-2.0-14.0-0.0,333,53286,f,NaN,,,,null,NaN,12,,Stimuli/Experimental_stims/localizer/objects/adriano-pucciarelli-BE7yaZnZX6o-unsplash.jpg,,45388,1,objects,,0,1,0,400,4200,410,4355,,,,,,,,,,,,,,,,,,,,,,,,,,,,,,,,,,,,,,,,,,,,,,,,,,,,,
,iti_localizer,,html-keyboard-response,90,46111,0.0-2.0-14.0-1.0,333,53286,f,null,,,,null,,12,,,,45798,1,,,,,,300,4600,313,4765,300,,,,,,,,,,,,,,,,,,,,,,,,,,,,,,,,,,,,,,,,,,,,,,,,,,,,
,localizer,,html-keyboard-response,91,46517,0.0-2.0-15.0-0.0,333,53286,f,106,,,,75,1,13,,Stimuli/Experimental_stims/localizer/objects/eugene-chystiakov-3neSwyntbQ8-unsplash.jpg,,46111,1,objects,,0,0,0,400,4900,406,5078,,,,,,,,,,,,,,,,,,,,,,,,,,,,,,,,,,,,,,,,,,,,,,,,,,,,,
,iti_localizer,,html-keyboard-response,92,46831,0.0-2.0-15.0-1.0,333,53286,f,null,,,,null,,13,,,,46517,1,,,,,,300,5300,314,5484,300,,,,,,,,,,,,,,,,,,,,,,,,,,,,,,,,,,,,,,,,,,,,,,,,,,,,
,localizer,,html-keyboard-response,93,47244,0.0-2.0-16.0-0.0,333,53286,f,NaN,,,,null,NaN,14,,Stimuli/Experimental_stims/localizer/objects/girl-with-red-hat-Xxg-r574pLE-unsplash.jpg,,46831,1,objects,,0,1,0,400,5600,413,5798,,,,,,,,,,,,,,,,,,,,,,,,,,,,,,,,,,,,,,,,,,,,,,,,,,,,,
,iti_localizer,,html-keyboard-response,94,47558,0.0-2.0-16.0-1.0,333,53286,f,null,,,,null,,14,,,,47244,1,,,,,,300,6000,314,6211,300,,,,,,,,,,,,,,,,,,,,,,,,,,,,,,,,,,,,,,,,,,,,,,,,,,,,
,localizer,,html-keyboard-response,95,48166,0.0-2.0-17.0-0.0,333,53286,f,NaN,,,,null,NaN,15,,Stimuli/Experimental_stims/localizer/objects/hipster-mum-XookgCxFw6Q-unsplash.jpg,,47558,1,objects,,0,1,0,400,6300,608,6525,,,,,,,,,,,,,,,,,,,,,,,,,,,,,,,,,,,,,,,,,,,,,,,,,,,,,
,iti_localizer,,html-keyboard-response,96,48477,0.0-2.0-17.0-1.0,333,53286,f,null,,,,null,,15,,,,48166,1,,,,,,300,6700,311,7133,300,,,,,,,,,,,,,,,,,,,,,,,,,,,,,,,,,,,,,,,,,,,,,,,,,,,,
,localizer,,html-keyboard-response,97,48897,0.0-2.0-18.0-0.0,333,53286,f,NaN,,,,null,NaN,16,,Stimuli/Experimental_stims/localizer/objects/quino-al-8gWEAAXJjtI-unsplash.jpg,,48477,1,objects,,0,1,0,400,7000,420,7444,,,,,,,,,,,,,,,,,,,,,,,,,,,,,,,,,,,,,,,,,,,,,,,,,,,,,
,iti_localizer,,html-keyboard-response,98,49204,0.0-2.0-18.0-1.0,333,53286,f,null,,,,null,,16,,,,48897,1,,,,,,300,7400,307,7864,300,,,,,,,,,,,,,,,,,,,,,,,,,,,,,,,,,,,,,,,,,,,,,,,,,,,,
,localizer,,html-keyboard-response,99,49613,0.0-2.0-19.0-0.0,333,53286,f,NaN,,,,null,NaN,17,,Stimuli/Experimental_stims/localizer/objects/florian-klauer-mk7D-4UCfmg-unsplash.jpg,,49204,1,objects,,0,1,0,400,7700,409,8171,,,,,,,,,,,,,,,,,,,,,,,,,,,,,,,,,,,,,,,,,,,,,,,,,,,,,
,iti_localizer,,html-keyboard-response,100,49922,0.0-2.0-19.0-1.0,333,53286,f,null,,,,null,,17,,,,49613,1,,,,,,300,8100,309,8580,300,,,,,,,,,,,,,,,,,,,,,,,,,,,,,,,,,,,,,,,,,,,,,,,,,,,,
,localizer,,html-keyboard-response,101,50333,0.0-2.0-20.0-0.0,333,53286,f,NaN,,,,null,NaN,18,,Stimuli/Experimental_stims/localizer/objects/andrew-petrov-TVJqDat4MAw-unsplash.jpg,,49922,1,objects,,0,1,0,400,8400,411,8889,,,,,,,,,,,,,,,,,,,,,,,,,,,,,,,,,,,,,,,,,,,,,,,,,,,,,
,iti_localizer,,html-keyboard-response,102,50648,0.0-2.0-20.0-1.0,333,53286,f,null,,,,null,,18,,,,50333,1,,,,,,300,8800,315,9300,300,,,,,,,,,,,,,,,,,,,,,,,,,,,,,,,,,,,,,,,,,,,,,,,,,,,,
,localizer,,html-keyboard-response,103,51191,0.0-2.0-21.0-0.0,333,53286,f,NaN,,,,null,NaN,19,,Stimuli/Experimental_stims/localizer/objects/carlos-felipe-ramirez-mesa-HW7bfB3ERSQ-unsplash.jpg,,50648,1,objects,,0,1,0,400,9100,543,9615,,,,,,,,,,,,,,,,,,,,,,,,,,,,,,,,,,,,,,,,,,,,,,,,,,,,,
,iti_localizer,,html-keyboard-response,104,51503,0.0-2.0-21.0-1.0,333,53286,f,null,,,,null,,19,,,,51191,1,,,,,,300,9500,312,10158,300,,,,,,,,,,,,,,,,,,,,,,,,,,,,,,,,,,,,,,,,,,,,,,,,,,,,
,localizer,,html-keyboard-response,105,51915,0.0-2.0-22.0-0.0,333,53286,f,NaN,,,,null,NaN,20,,Stimuli/Experimental_stims/localizer/objects/yoann-siloine-_T4w3JDm6ug-unsplash.jpg,,51503,1,objects,,1,1,0,400,9800,412,10470,,,,,,,,,,,,,,,,,,,,,,,,,,,,,,,,,,,,,,,,,,,,,,,,,,,,,
,iti_localizer,,html-keyboard-response,106,52232,0.0-2.0-22.0-1.0,333,53286,f,null,,,,null,,20,,,,51915,1,,,,,,300,10200,317,10882,300,,,,,,,,,,,,,,,,,,,,,,,,,,,,,,,,,,,,,,,,,,,,,,,,,,,,
,localizer,,html-keyboard-response,107,52647,0.0-2.0-23.0-0.0,333,53286,f,NaN,,,,null,NaN,21,,Stimuli/Experimental_stims/localizer/objects/ales-krivec-ZMZHcvIVgbg-unsplash.jpg,,52232,1,objects,,0,1,0,400,10500,415,11199,,,,,,,,,,,,,,,,,,,,,,,,,,,,,,,,,,,,,,,,,,,,,,,,,,,,,
,iti_localizer,,html-keyboard-response,108,52962,0.0-2.0-23.0-1.0,333,53286,f,null,,,,null,,21,,,,52647,1,,,,,,300,10900,315,11614,300,,,,,,,,,,,,,,,,,,,,,,,,,,,,,,,,,,,,,,,,,,,,,,,,,,,,
,localizer,,html-keyboard-response,109,53376,0.0-2.0-24.0-0.0,333,53286,f,NaN,,,,null,NaN,22,,Stimuli/Experimental_stims/localizer/objects/designecologist-hvgd0ygXuQQ-unsplash.jpg,,52962,1,objects,,0,1,0,400,11200,414,11929,,,,,,,,,,,,,,,,,,,,,,,,,,,,,,,,,,,,,,,,,,,,,,,,,,,,,
,iti_localizer,,html-keyboard-response,110,53690,0.0-2.0-24.0-1.0,333,53286,f,null,,,,null,,22,,,,53376,1,,,,,,300,11600,314,12343,300,,,,,,,,,,,,,,,,,,,,,,,,,,,,,,,,,,,,,,,,,,,,,,,,,,,,
,localizer,,html-keyboard-response,111,54104,0.0-2.0-25.0-0.0,333,53286,f,NaN,,,,null,NaN,23,,Stimuli/Experimental_stims/localizer/objects/dario-mendez-hnJ2VNZzbns-unsplash.jpg,,53690,1,objects,,0,1,0,400,11900,414,12657,,,,,,,,,,,,,,,,,,,,,,,,,,,,,,,,,,,,,,,,,,,,,,,,,,,,,
,iti_localizer,,html-keyboard-response,112,54413,0.0-2.0-25.0-1.0,333,53286,f,null,,,,null,,23,,,,54104,1,,,,,,300,12300,309,13071,300,,,,,,,,,,,,,,,,,,,,,,,,,,,,,,,,,,,,,,,,,,,,,,,,,,,,
,localizer,,html-keyboard-response,113,54822,0.0-2.0-26.0-0.0,333,53286,f,NaN,,,,null,NaN,24,,Stimuli/Experimental_stims/localizer/objects/muhammad-toqeer-NRJ9ipvz2iE-unsplash.jpg,,54413,1,objects,,0,1,0,400,12600,409,13380,,,,,,,,,,,,,,,,,,,,,,,,,,,,,,,,,,,,,,,,,,,,,,,,,,,,,
,iti_localizer,,html-keyboard-response,114,55134,0.0-2.0-26.0-1.0,333,53286,f,null,,,,null,,24,,,,54822,1,,,,,,300,13000,312,13789,300,,,,,,,,,,,,,,,,,,,,,,,,,,,,,,,,,,,,,,,,,,,,,,,,,,,,
,localizer,,html-keyboard-response,115,55551,0.0-2.0-27.0-0.0,333,53286,f,NaN,,,,null,NaN,25,,Stimuli/Experimental_stims/localizer/objects/markus-spiske-ANrVtttbNss-unsplash.jpg,,55134,1,objects,,0,1,0,400,13300,417,14101,,,,,,,,,,,,,,,,,,,,,,,,,,,,,,,,,,,,,,,,,,,,,,,,,,,,,
,iti_localizer,,html-keyboard-response,116,69567,0.0-2.0-27.0-1.0,333,53286,f,null,,,,null,,25,,,,55551,1,,,,,,14000,13700,14016,14518,14000,,,,,,,,,,,,,,,,,,,,,,,,,,,,,,,,,,,,,,,,,,,,,,,,,,,,
,localizer,,html-keyboard-response,117,69982,0.0-2.0-28.0-0.0,333,53286,f,NaN,,,,null,NaN,26,,Stimuli/Experimental_stims/localizer/body_parts/jan-romero-DL4DDQb8yjc-unsplash.jpg,,69567,1,body_parts,,0,1,0,400,27700,415,28534,,,,,,,,,,,,,,,,,,,,,,,,,,,,,,,,,,,,,,,,,,,,,,,,,,,,,
,iti_localizer,,html-keyboard-response,118,70295,0.0-2.0-28.0-1.0,333,53286,f,null,,,,null,,26,,,,69982,1,,,,,,300,28100,313,28949,300,,,,,,,,,,,,,,,,,,,,,,,,,,,,,,,,,,,,,,,,,,,,,,,,,,,,
,localizer,,html-keyboard-response,119,70712,0.0-2.0-29.0-0.0,333,53286,f,NaN,,,,null,NaN,27,,Stimuli/Experimental_stims/localizer/body_parts/juja-han-Z8-6EI2tYtw-unsplash.jpg,,70295,1,body_parts,,0,1,0,400,28400,417,29262,,,,,,,,,,,,,,,,,,,,,,,,,,,,,,,,,,,,,,,,,,,,,,,,,,,,,
,iti_localizer,,html-keyboard-response,120,71024,0.0-2.0-29.0-1.0,333,53286,f,null,,,,null,,27,,,,70712,1,,,,,,300,28800,312,29679,300,,,,,,,,,,,,,,,,,,,,,,,,,,,,,,,,,,,,,,,,,,,,,,,,,,,,
,localizer,,html-keyboard-response,121,71438,0.0-2.0-30.0-0.0,333,53286,f,NaN,,,,null,NaN,28,,Stimuli/Experimental_stims/localizer/body_parts/kai-wenzel-zYDJOxjaZrQ-unsplash.jpg,,71024,1,body_parts,,1,1,0,400,29100,414,29991,,,,,,,,,,,,,,,,,,,,,,,,,,,,,,,,,,,,,,,,,,,,,,,,,,,,,
,iti_localizer,,html-keyboard-response,122,71750,0.0-2.0-30.0-1.0,333,53286,f,null,,,,null,,28,,,,71438,1,,,,,,300,29500,312,30405,300,,,,,,,,,,,,,,,,,,,,,,,,,,,,,,,,,,,,,,,,,,,,,,,,,,,,
,localizer,,html-keyboard-response,123,72165,0.0-2.0-31.0-0.0,333,53286,f,NaN,,,,null,NaN,29,,Stimuli/Experimental_stims/localizer/body_parts/igordoon-primus-CdyHqfrbGIs-unsplash.jpg,,71750,1,body_parts,,0,1,0,400,29800,415,30717,,,,,,,,,,,,,,,,,,,,,,,,,,,,,,,,,,,,,,,,,,,,,,,,,,,,,
,iti_localizer,,html-keyboard-response,124,72478,0.0-2.0-31.0-1.0,333,53286,f,null,,,,null,,29,,,,72165,1,,,,,,300,30200,313,31132,300,,,,,,,,,,,,,,,,,,,,,,,,,,,,,,,,,,,,,,,,,,,,,,,,,,,,
,localizer,,html-keyboard-response,125,72893,0.0-2.0-32.0-0.0,333,53286,f,NaN,,,,null,NaN,30,,Stimuli/Experimental_stims/localizer/body_parts/nick-page-WTNmgJtwzGI-unsplash.jpg,,72478,1,body_parts,,0,1,0,400,30500,415,31445,,,,,,,,,,,,,,,,,,,,,,,,,,,,,,,,,,,,,,,,,,,,,,,,,,,,,
,iti_localizer,,html-keyboard-response,126,73205,0.0-2.0-32.0-1.0,333,53286,f,null,,,,null,,30,,,,72893,1,,,,,,300,30900,312,31860,300,,,,,,,,,,,,,,,,,,,,,,,,,,,,,,,,,,,,,,,,,,,,,,,,,,,,
,localizer,,html-keyboard-response,127,73612,0.0-2.0-33.0-0.0,333,53286,f,NaN,,,,null,NaN,31,,Stimuli/Experimental_stims/localizer/body_parts/callum-skelton-3KLMq7y46nA-unsplash.jpg,,73205,1,body_parts,,0,1,0,400,31200,407,32172,,,,,,,,,,,,,,,,,,,,,,,,,,,,,,,,,,,,,,,,,,,,,,,,,,,,,
,iti_localizer,,html-keyboard-response,128,73928,0.0-2.0-33.0-1.0,333,53286,f,null,,,,null,,31,,,,73612,1,,,,,,300,31600,316,32579,300,,,,,,,,,,,,,,,,,,,,,,,,,,,,,,,,,,,,,,,,,,,,,,,,,,,,
,localizer,,html-keyboard-response,129,74343,0.0-2.0-34.0-0.0,333,53286,f,NaN,,,,null,NaN,32,,Stimuli/Experimental_stims/localizer/body_parts/anelya-okapova-V69kmOyZ3SU-unsplash.jpg,,73928,1,body_parts,,0,1,0,400,31900,415,32895,,,,,,,,,,,,,,,,,,,,,,,,,,,,,,,,,,,,,,,,,,,,,,,,,,,,,
,iti_localizer,,html-keyboard-response,130,74655,0.0-2.0-34.0-1.0,333,53286,f,null,,,,null,,32,,,,74343,1,,,,,,300,32300,312,33310,300,,,,,,,,,,,,,,,,,,,,,,,,,,,,,,,,,,,,,,,,,,,,,,,,,,,,
,localizer,,html-keyboard-response,131,75069,0.0-2.0-35.0-0.0,333,53286,f,NaN,,,,null,NaN,33,,Stimuli/Experimental_stims/localizer/body_parts/jeremy-yap-TfJEi17kA0w-unsplash.jpg,,74655,1,body_parts,,0,1,0,400,32600,414,33622,,,,,,,,,,,,,,,,,,,,,,,,,,,,,,,,,,,,,,,,,,,,,,,,,,,,,
,iti_localizer,,html-keyboard-response,132,75381,0.0-2.0-35.0-1.0,333,53286,f,null,,,,null,,33,,,,75069,1,,,,,,300,33000,312,34036,300,,,,,,,,,,,,,,,,,,,,,,,,,,,,,,,,,,,,,,,,,,,,,,,,,,,,
,localizer,,html-keyboard-response,133,75799,0.0-2.0-36.0-0.0,333,53286,f,NaN,,,,null,NaN,34,,Stimuli/Experimental_stims/localizer/body_parts/debby-hudson--B_757qSA4k-unsplash.jpg,,75381,1,body_parts,,0,1,0,400,33300,418,34348,,,,,,,,,,,,,,,,,,,,,,,,,,,,,,,,,,,,,,,,,,,,,,,,,,,,,
,iti_localizer,,html-keyboard-response,134,76114,0.0-2.0-36.0-1.0,333,53286,f,null,,,,null,,34,,,,75799,1,,,,,,300,33700,315,34766,300,,,,,,,,,,,,,,,,,,,,,,,,,,,,,,,,,,,,,,,,,,,,,,,,,,,,
,localizer,,html-keyboard-response,135,76526,0.0-2.0-37.0-0.0,333,53286,f,NaN,,,,null,NaN,35,,Stimuli/Experimental_stims/localizer/body_parts/danie-franco-jyyNiSEcCl4-unsplash.jpg,,76114,1,body_parts,,0,1,0,400,34000,412,35081,,,,,,,,,,,,,,,,,,,,,,,,,,,,,,,,,,,,,,,,,,,,,,,,,,,,,
,iti_localizer,,html-keyboard-response,136,76837,0.0-2.0-37.0-1.0,333,53286,f,null,,,,null,,35,,,,76526,1,,,,,,300,34400,311,35493,300,,,,,,,,,,,,,,,,,,,,,,,,,,,,,,,,,,,,,,,,,,,,,,,,,,,,
,localizer,,html-keyboard-response,137,77250,0.0-2.0-38.0-0.0,333,53286,f,NaN,,,,null,NaN,36,,Stimuli/Experimental_stims/localizer/body_parts/toan-nguyen-VIeLuUFzesg-unsplash.jpg,,76837,1,body_parts,,0,1,0,400,34700,413,35804,,,,,,,,,,,,,,,,,,,,,,,,,,,,,,,,,,,,,,,,,,,,,,,,,,,,,
,iti_localizer,,html-keyboard-response,138,77559,0.0-2.0-38.0-1.0,333,53286,f,null,,,,null,,36,,,,77250,1,,,,,,300,35100,309,36217,300,,,,,,,,,,,,,,,,,,,,,,,,,,,,,,,,,,,,,,,,,,,,,,,,,,,,
,localizer,,html-keyboard-response,139,77972,0.0-2.0-39.0-0.0,333,53286,f,NaN,,,,null,NaN,37,,Stimuli/Experimental_stims/localizer/body_parts/femme-spirit-RGYBDUHYbyM-unsplash.jpg,,77559,1,body_parts,,0,1,0,400,35400,413,36526,,,,,,,,,,,,,,,,,,,,,,,,,,,,,,,,,,,,,,,,,,,,,,,,,,,,,
,iti_localizer,,html-keyboard-response,140,78286,0.0-2.0-39.0-1.0,333,53286,f,null,,,,null,,37,,,,77972,1,,,,,,300,35800,314,36939,300,,,,,,,,,,,,,,,,,,,,,,,,,,,,,,,,,,,,,,,,,,,,,,,,,,,,
,localizer,,html-keyboard-response,141,78704,0.0-2.0-40.0-0.0,333,53286,f,NaN,,,,null,NaN,38,,Stimuli/Experimental_stims/localizer/body_parts/sincerely-media-QyzlAZjm0r0-unsplash.jpg,,78286,1,body_parts,,0,1,0,400,36100,418,37253,,,,,,,,,,,,,,,,,,,,,,,,,,,,,,,,,,,,,,,,,,,,,,,,,,,,,
,iti_localizer,,html-keyboard-response,142,79013,0.0-2.0-40.0-1.0,333,53286,f,null,,,,null,,38,,,,78704,1,,,,,,300,36500,309,37671,300,,,,,,,,,,,,,,,,,,,,,,,,,,,,,,,,,,,,,,,,,,,,,,,,,,,,
,localizer,,html-keyboard-response,143,79421,0.0-2.0-41.0-0.0,333,53286,f,NaN,,,,null,NaN,39,,Stimuli/Experimental_stims/localizer/body_parts/betzy-arosemena-YHdgnygtVCQ-unsplash.jpg,,79013,1,body_parts,,0,1,0,400,36800,408,37980,,,,,,,,,,,,,,,,,,,,,,,,,,,,,,,,,,,,,,,,,,,,,,,,,,,,,
,iti_localizer,,html-keyboard-response,144,79732,0.0-2.0-41.0-1.0,333,53286,f,null,,,,null,,39,,,,79421,1,,,,,,300,37200,311,38388,300,,,,,,,,,,,,,,,,,,,,,,,,,,,,,,,,,,,,,,,,,,,,,,,,,,,,
,localizer,,html-keyboard-response,145,80139,0.0-2.0-42.0-0.0,333,53286,f,NaN,,,,null,NaN,40,,Stimuli/Experimental_stims/localizer/body_parts/nihal-karkala-LlOfbQD-IJ0-unsplash.jpg,,79732,1,body_parts,,0,1,0,400,37500,407,38699,,,,,,,,,,,,,,,,,,,,,,,,,,,,,,,,,,,,,,,,,,,,,,,,,,,,,
,iti_localizer,,html-keyboard-response,146,80453,0.0-2.0-42.0-1.0,333,53286,f,null,,,,null,,40,,,,80139,1,,,,,,300,37900,314,39106,300,,,,,,,,,,,,,,,,,,,,,,,,,,,,,,,,,,,,,,,,,,,,,,,,,,,,
,localizer,,html-keyboard-response,147,80862,0.0-2.0-43.0-0.0,333,53286,f,NaN,,,,null,NaN,41,,Stimuli/Experimental_stims/localizer/body_parts/nattalia-nunez-MB9sdDfZMSg-unsplash.jpg,,80453,1,body_parts,,0,1,0,400,38200,409,39420,,,,,,,,,,,,,,,,,,,,,,,,,,,,,,,,,,,,,,,,,,,,,,,,,,,,,
,iti_localizer,,html-keyboard-response,148,81174,0.0-2.0-43.0-1.0,333,53286,f,null,,,,null,,41,,,,80862,1,,,,,,300,38600,312,39829,300,,,,,,,,,,,,,,,,,,,,,,,,,,,,,,,,,,,,,,,,,,,,,,,,,,,,
,localizer,,html-keyboard-response,149,81584,0.0-2.0-44.0-0.0,333,53286,f,NaN,,,,null,NaN,42,,Stimuli/Experimental_stims/localizer/body_parts/xavier-foucrier-dLZUNHsT8vo-unsplash.jpg,,81174,1,body_parts,,0,1,0,400,38900,410,40141,,,,,,,,,,,,,,,,,,,,,,,,,,,,,,,,,,,,,,,,,,,,,,,,,,,,,
,iti_localizer,,html-keyboard-response,150,81895,0.0-2.0-44.0-1.0,333,53286,f,null,,,,null,,42,,,,81584,1,,,,,,300,39300,311,40551,300,,,,,,,,,,,,,,,,,,,,,,,,,,,,,,,,,,,,,,,,,,,,,,,,,,,,
,localizer,,html-keyboard-response,151,82312,0.0-2.0-45.0-0.0,333,53286,f,NaN,,,,null,NaN,43,,Stimuli/Experimental_stims/localizer/body_parts/i-am_nah--S4OsO0c6Ts-unsplash.jpg,,81895,1,body_parts,,0,1,0,400,39600,417,40862,,,,,,,,,,,,,,,,,,,,,,,,,,,,,,,,,,,,,,,,,,,,,,,,,,,,,
,iti_localizer,,html-keyboard-response,152,82621,0.0-2.0-45.0-1.0,333,53286,f,null,,,,null,,43,,,,82312,1,,,,,,300,40000,309,41279,300,,,,,,,,,,,,,,,,,,,,,,,,,,,,,,,,,,,,,,,,,,,,,,,,,,,,
,localizer,,html-keyboard-response,153,83029,0.0-2.0-46.0-0.0,333,53286,f,NaN,,,,null,NaN,44,,Stimuli/Experimental_stims/localizer/body_parts/megan-menegay-UojxG_BJxnI-unsplash.jpg,,82621,1,body_parts,,0,1,0,400,40300,408,41588,,,,,,,,,,,,,,,,,,,,,,,,,,,,,,,,,,,,,,,,,,,,,,,,,,,,,
,iti_localizer,,html-keyboard-response,154,83343,0.0-2.0-46.0-1.0,333,53286,f,null,,,,null,,44,,,,83029,1,,,,,,300,40700,314,41996,300,,,,,,,,,,,,,,,,,,,,,,,,,,,,,,,,,,,,,,,,,,,,,,,,,,,,
,localizer,,html-keyboard-response,155,83756,0.0-2.0-47.0-0.0,333,53286,f,NaN,,,,null,NaN,45,,Stimuli/Experimental_stims/localizer/body_parts/priscilla-du-preez-e6fcNpur53A-unsplash.jpg,,83343,1,body_parts,,1,1,0,400,41000,413,42310,,,,,,,,,,,,,,,,,,,,,,,,,,,,,,,,,,,,,,,,,,,,,,,,,,,,,
,iti_localizer,,html-keyboard-response,156,97766,0.0-2.0-47.0-1.0,333,53286,f,null,,,,null,,45,,,,83756,1,,,,,,14000,41400,14010,42723,14000,,,,,,,,,,,,,,,,,,,,,,,,,,,,,,,,,,,,,,,,,,,,,,,,,,,,
,localizer,,html-keyboard-response,157,98184,0.0-2.0-48.0-0.0,333,53286,f,NaN,,,,null,NaN,46,,Stimuli/Experimental_stims/localizer/faces/jake-nackos-IF9TK5Uy-KI-unsplash.jpg,,97766,1,faces,,0,1,0,400,55400,418,56733,,,,,,,,,,,,,,,,,,,,,,,,,,,,,,,,,,,,,,,,,,,,,,,,,,,,,
,iti_localizer,,html-keyboard-response,158,98494,0.0-2.0-48.0-1.0,333,53286,f,null,,,,null,,46,,,,98184,1,,,,,,300,55800,310,57151,300,,,,,,,,,,,,,,,,,,,,,,,,,,,,,,,,,,,,,,,,,,,,,,,,,,,,
,localizer,,html-keyboard-response,159,98912,0.0-2.0-49.0-0.0,333,53286,f,NaN,,,,null,NaN,47,,Stimuli/Experimental_stims/localizer/faces/ethan-haddox-__ng3cRXmFE-unsplash.jpg,,98494,1,faces,,0,1,0,400,56100,418,57461,,,,,,,,,,,,,,,,,,,,,,,,,,,,,,,,,,,,,,,,,,,,,,,,,,,,,
,iti_localizer,,html-keyboard-response,160,99223,0.0-2.0-49.0-1.0,333,53286,f,null,,,,null,,47,,,,98912,1,,,,,,300,56500,311,57879,300,,,,,,,,,,,,,,,,,,,,,,,,,,,,,,,,,,,,,,,,,,,,,,,,,,,,
,localizer,,html-keyboard-response,161,99640,0.0-2.0-50.0-0.0,333,53286,f,NaN,,,,null,NaN,48,,Stimuli/Experimental_stims/localizer/faces/samuel-dixon--fQ5XNOcqFQ-unsplash.jpg,,99223,1,faces,,1,1,0,400,56800,417,58190,,,,,,,,,,,,,,,,,,,,,,,,,,,,,,,,,,,,,,,,,,,,,,,,,,,,,
,iti_localizer,,html-keyboard-response,162,99950,0.0-2.0-50.0-1.0,333,53286,f,null,,,,null,,48,,,,99640,1,,,,,,300,57200,310,58607,300,,,,,,,,,,,,,,,,,,,,,,,,,,,,,,,,,,,,,,,,,,,,,,,,,,,,
,localizer,,html-keyboard-response,163,100359,0.0-2.0-51.0-0.0,333,53286,f,NaN,,,,null,NaN,49,,Stimuli/Experimental_stims/localizer/faces/jakob-owens-lkMJcGDZLVs-unsplash.jpg,,99950,1,faces,,0,1,0,400,57500,409,58917,,,,,,,,,,,,,,,,,,,,,,,,,,,,,,,,,,,,,,,,,,,,,,,,,,,,,
,iti_localizer,,html-keyboard-response,164,100671,0.0-2.0-51.0-1.0,333,53286,f,null,,,,null,,49,,,,100359,1,,,,,,300,57900,312,59326,300,,,,,,,,,,,,,,,,,,,,,,,,,,,,,,,,,,,,,,,,,,,,,,,,,,,,
,localizer,,html-keyboard-response,165,101087,0.0-2.0-52.0-0.0,333,53286,f,NaN,,,,null,NaN,50,,Stimuli/Experimental_stims/localizer/faces/joseph-gonzalez-iFgRcqHznqg-unsplash.jpg,,100671,1,faces,,0,1,0,400,58200,416,59638,,,,,,,,,,,,,,,,,,,,,,,,,,,,,,,,,,,,,,,,,,,,,,,,,,,,,
,iti_localizer,,html-keyboard-response,166,101399,0.0-2.0-52.0-1.0,333,53286,f,null,,,,null,,50,,,,101087,1,,,,,,300,58600,312,60054,300,,,,,,,,,,,,,,,,,,,,,,,,,,,,,,,,,,,,,,,,,,,,,,,,,,,,
,localizer,,html-keyboard-response,167,101812,0.0-2.0-53.0-0.0,333,53286,f,NaN,,,,null,NaN,51,,Stimuli/Experimental_stims/localizer/faces/tyler-nix-ZGa9d1a_4tA-unsplash.jpg,,101399,1,faces,,0,1,0,400,58900,413,60366,,,,,,,,,,,,,,,,,,,,,,,,,,,,,,,,,,,,,,,,,,,,,,,,,,,,,
,iti_localizer,,html-keyboard-response,168,102124,0.0-2.0-53.0-1.0,333,53286,f,null,,,,null,,51,,,,101812,1,,,,,,300,59300,312,60779,300,,,,,,,,,,,,,,,,,,,,,,,,,,,,,,,,,,,,,,,,,,,,,,,,,,,,
,localizer,,html-keyboard-response,169,102532,0.0-2.0-54.0-0.0,333,53286,f,NaN,,,,null,NaN,52,,Stimuli/Experimental_stims/localizer/faces/allef-vinicius-C_1jjFJioWg-unsplash.jpg,,102124,1,faces,,0,1,0,400,59600,408,61091,,,,,,,,,,,,,,,,,,,,,,,,,,,,,,,,,,,,,,,,,,,,,,,,,,,,,
,iti_localizer,,html-keyboard-response,170,102846,0.0-2.0-54.0-1.0,333,53286,f,null,,,,null,,52,,,,102532,1,,,,,,300,60000,314,61499,300,,,,,,,,,,,,,,,,,,,,,,,,,,,,,,,,,,,,,,,,,,,,,,,,,,,,
,localizer,,html-keyboard-response,171,103256,0.0-2.0-55.0-0.0,333,53286,f,NaN,,,,null,NaN,53,,Stimuli/Experimental_stims/localizer/faces/midas-hofstra-tidSLv-UaNs-unsplash.jpg,,102846,1,faces,,0,1,0,400,60300,410,61813,,,,,,,,,,,,,,,,,,,,,,,,,,,,,,,,,,,,,,,,,,,,,,,,,,,,,
,iti_localizer,,html-keyboard-response,172,103563,0.0-2.0-55.0-1.0,333,53286,f,null,,,,null,,53,,,,103256,1,,,,,,300,60700,307,62223,300,,,,,,,,,,,,,,,,,,,,,,,,,,,,,,,,,,,,,,,,,,,,,,,,,,,,
,localizer,,html-keyboard-response,173,103978,0.0-2.0-56.0-0.0,333,53286,f,NaN,,,,null,NaN,54,,Stimuli/Experimental_stims/localizer/faces/elijah-hiett-umfpFoKxIVg-unsplash.jpg,,103563,1,faces,,0,1,0,400,61000,415,62530,,,,,,,,,,,,,,,,,,,,,,,,,,,,,,,,,,,,,,,,,,,,,,,,,,,,,
,iti_localizer,,html-keyboard-response,174,104287,0.0-2.0-56.0-1.0,333,53286,f,null,,,,null,,54,,,,103978,1,,,,,,300,61400,309,62945,300,,,,,,,,,,,,,,,,,,,,,,,,,,,,,,,,,,,,,,,,,,,,,,,,,,,,
,localizer,,html-keyboard-response,175,104706,0.0-2.0-57.0-0.0,333,53286,f,NaN,,,,null,NaN,55,,Stimuli/Experimental_stims/localizer/faces/austin-wade-X6Uj51n5CE8-unsplash.jpg,,104287,1,faces,,0,1,0,400,61700,419,63254,,,,,,,,,,,,,,,,,,,,,,,,,,,,,,,,,,,,,,,,,,,,,,,,,,,,,
,iti_localizer,,html-keyboard-response,176,105014,0.0-2.0-57.0-1.0,333,53286,f,null,,,,null,,55,,,,104706,1,,,,,,300,62100,308,63673,300,,,,,,,,,,,,,,,,,,,,,,,,,,,,,,,,,,,,,,,,,,,,,,,,,,,,
,localizer,,html-keyboard-response,177,105429,0.0-2.0-58.0-0.0,333,53286,f,NaN,,,,null,NaN,56,,Stimuli/Experimental_stims/localizer/faces/mathias-huysmans-U4JDjYmjn1g-unsplash.jpg,,105014,1,faces,,0,1,0,400,62400,415,63981,,,,,,,,,,,,,,,,,,,,,,,,,,,,,,,,,,,,,,,,,,,,,,,,,,,,,
,iti_localizer,,html-keyboard-response,178,105741,0.0-2.0-58.0-1.0,333,53286,f,null,,,,null,,56,,,,105429,1,,,,,,300,62800,312,64396,300,,,,,,,,,,,,,,,,,,,,,,,,,,,,,,,,,,,,,,,,,,,,,,,,,,,,
,localizer,,html-keyboard-response,179,106151,0.0-2.0-59.0-0.0,333,53286,f,NaN,,,,null,NaN,57,,Stimuli/Experimental_stims/localizer/faces/ian-dooley-d1UPkiFd04A-unsplash.jpg,,105741,1,faces,,0,1,0,400,63100,410,64708,,,,,,,,,,,,,,,,,,,,,,,,,,,,,,,,,,,,,,,,,,,,,,,,,,,,,
,iti_localizer,,html-keyboard-response,180,106463,0.0-2.0-59.0-1.0,333,53286,f,null,,,,null,,57,,,,106151,1,,,,,,300,63500,312,65118,300,,,,,,,,,,,,,,,,,,,,,,,,,,,,,,,,,,,,,,,,,,,,,,,,,,,,
,localizer,,html-keyboard-response,181,106880,0.0-2.0-60.0-0.0,333,53286,f,NaN,,,,null,NaN,58,,Stimuli/Experimental_stims/localizer/faces/icons8-team-6LZuSzSwso0-unsplash.jpg,,106463,1,faces,,0,1,0,400,63800,417,65430,,,,,,,,,,,,,,,,,,,,,,,,,,,,,,,,,,,,,,,,,,,,,,,,,,,,,
,iti_localizer,,html-keyboard-response,182,107193,0.0-2.0-60.0-1.0,333,53286,f,null,,,,null,,58,,,,106880,1,,,,,,300,64200,313,65847,300,,,,,,,,,,,,,,,,,,,,,,,,,,,,,,,,,,,,,,,,,,,,,,,,,,,,
,localizer,,html-keyboard-response,183,107609,0.0-2.0-61.0-0.0,333,53286,f,NaN,,,,null,NaN,59,,Stimuli/Experimental_stims/localizer/faces/alexis-chloe-TYDkKEgc0Fg-unsplash.jpg,,107193,1,faces,,0,1,0,400,64500,416,66160,,,,,,,,,,,,,,,,,,,,,,,,,,,,,,,,,,,,,,,,,,,,,,,,,,,,,
,iti_localizer,,html-keyboard-response,184,107921,0.0-2.0-61.0-1.0,333,53286,f,null,,,,null,,59,,,,107609,1,,,,,,300,64900,312,66576,300,,,,,,,,,,,,,,,,,,,,,,,,,,,,,,,,,,,,,,,,,,,,,,,,,,,,
,localizer,,html-keyboard-response,185,108338,0.0-2.0-62.0-0.0,333,53286,f,NaN,,,,null,NaN,60,,Stimuli/Experimental_stims/localizer/faces/prince-akachi-LWkFHEGpleE-unsplash.jpg,,107921,1,faces,,0,1,0,400,65200,417,66888,,,,,,,,,,,,,,,,,,,,,,,,,,,,,,,,,,,,,,,,,,,,,,,,,,,,,
,iti_localizer,,html-keyboard-response,186,108643,0.0-2.0-62.0-1.0,333,53286,f,null,,,,null,,60,,,,108338,1,,,,,,300,65600,305,67305,300,,,,,,,,,,,,,,,,,,,,,,,,,,,,,,,,,,,,,,,,,,,,,,,,,,,,
,localizer,,html-keyboard-response,187,109055,0.0-2.0-63.0-0.0,333,53286,f,NaN,,,,null,NaN,61,,Stimuli/Experimental_stims/localizer/faces/katsiaryna-endruszkiewicz-BteCp6aq4GI-unsplash.jpg,,108643,1,faces,,1,1,0,400,65900,412,67610,,,,,,,,,,,,,,,,,,,,,,,,,,,,,,,,,,,,,,,,,,,,,,,,,,,,,
,iti_localizer,,html-keyboard-response,188,109368,0.0-2.0-63.0-1.0,333,53286,f,null,,,,null,,61,,,,109055,1,,,,,,300,66300,313,68022,300,,,,,,,,,,,,,,,,,,,,,,,,,,,,,,,,,,,,,,,,,,,,,,,,,,,,
,localizer,,html-keyboard-response,189,109784,0.0-2.0-64.0-0.0,333,53286,f,NaN,,,,null,NaN,62,,Stimuli/Experimental_stims/localizer/faces/hassan-khan-EGVccebWodM-unsplash.jpg,,109368,1,faces,,0,1,0,400,66600,416,68335,,,,,,,,,,,,,,,,,,,,,,,,,,,,,,,,,,,,,,,,,,,,,,,,,,,,,
,iti_localizer,,html-keyboard-response,190,110096,0.0-2.0-64.0-1.0,333,53286,f,null,,,,null,,62,,,,109784,1,,,,,,300,67000,312,68751,300,,,,,,,,,,,,,,,,,,,,,,,,,,,,,,,,,,,,,,,,,,,,,,,,,,,,
,localizer,,html-keyboard-response,191,110513,0.0-2.0-65.0-0.0,333,53286,f,NaN,,,,null,NaN,63,,Stimuli/Experimental_stims/localizer/faces/linkedin-sales-solutions-pAtA8xe_iVM-unsplash.jpg,,110096,1,faces,,0,1,0,400,67300,417,69063,,,,,,,,,,,,,,,,,,,,,,,,,,,,,,,,,,,,,,,,,,,,,,,,,,,,,
,iti_localizer,,html-keyboard-response,192,110823,0.0-2.0-65.0-1.0,333,53286,f,null,,,,null,,63,,,,110513,1,,,,,,300,67700,310,69480,300,,,,,,,,,,,,,,,,,,,,,,,,,,,,,,,,,,,,,,,,,,,,,,,,,,,,
,localizer,,html-keyboard-response,193,111238,0.0-2.0-66.0-0.0,333,53286,f,NaN,,,,null,NaN,64,,Stimuli/Experimental_stims/localizer/faces/philip-martin-5aGUyCW_PJw-unsplash.jpg,,110823,1,faces,,0,1,0,400,68000,415,69790,,,,,,,,,,,,,,,,,,,,,,,,,,,,,,,,,,,,,,,,,,,,,,,,,,,,,
,iti_localizer,,html-keyboard-response,194,111548,0.0-2.0-66.0-1.0,333,53286,f,null,,,,null,,64,,,,111238,1,,,,,,300,68400,310,70205,300,,,,,,,,,,,,,,,,,,,,,,,,,,,,,,,,,,,,,,,,,,,,,,,,,,,,
,localizer,,html-keyboard-response,195,111958,0.0-2.0-67.0-0.0,333,53286,f,NaN,,,,null,NaN,65,,Stimuli/Experimental_stims/localizer/faces/christina-wocintechchat-com-0Zx1bDv5BNY-unsplash.jpg,,111548,1,faces,,0,1,0,400,68700,410,70515,,,,,,,,,,,,,,,,,,,,,,,,,,,,,,,,,,,,,,,,,,,,,,,,,,,,,
,iti_localizer,,html-keyboard-response,196,125968,0.0-2.0-67.0-1.0,333,53286,f,null,,,,null,,65,,,,111958,1,,,,,,14000,69100,14010,70925,14000,,,,,,,,,,,,,,,,,,,,,,,,,,,,,,,,,,,,,,,,,,,,,,,,,,,,
,localizer,,html-keyboard-response,197,126385,0.0-2.0-68.0-0.0,333,53286,f,NaN,,,,null,NaN,66,,Stimuli/Experimental_stims/localizer/body_parts/bady-abbas-N-VEeMnm7gE-unsplash.jpg,,125968,1,body_parts,,0,1,0,400,83100,417,84935,,,,,,,,,,,,,,,,,,,,,,,,,,,,,,,,,,,,,,,,,,,,,,,,,,,,,
,iti_localizer,,html-keyboard-response,198,126694,0.0-2.0-68.0-1.0,333,53286,f,null,,,,null,,66,,,,126385,1,,,,,,300,83500,309,85352,300,,,,,,,,,,,,,,,,,,,,,,,,,,,,,,,,,,,,,,,,,,,,,,,,,,,,
,localizer,,html-keyboard-response,199,127105,0.0-2.0-69.0-0.0,333,53286,f,NaN,,,,null,NaN,67,,Stimuli/Experimental_stims/localizer/body_parts/hu-chen-tCbTGNwrFNM-unsplash.jpg,,126694,1,body_parts,,0,1,0,400,83800,411,85661,,,,,,,,,,,,,,,,,,,,,,,,,,,,,,,,,,,,,,,,,,,,,,,,,,,,,
,iti_localizer,,html-keyboard-response,200,127416,0.0-2.0-69.0-1.0,333,53286,f,null,,,,null,,67,,,,127105,1,,,,,,300,84200,311,86072,300,,,,,,,,,,,,,,,,,,,,,,,,,,,,,,,,,,,,,,,,,,,,,,,,,,,,
,localizer,,html-keyboard-response,201,127830,0.0-2.0-70.0-0.0,333,53286,f,NaN,,,,null,NaN,68,,Stimuli/Experimental_stims/localizer/body_parts/toa-heftiba-qxvWnfHb3-M-unsplash.jpg,,127416,1,body_parts,,0,1,0,400,84500,414,86383,,,,,,,,,,,,,,,,,,,,,,,,,,,,,,,,,,,,,,,,,,,,,,,,,,,,,
,iti_localizer,,html-keyboard-response,202,128145,0.0-2.0-70.0-1.0,333,53286,f,null,,,,null,,68,,,,127830,1,,,,,,300,84900,315,86797,300,,,,,,,,,,,,,,,,,,,,,,,,,,,,,,,,,,,,,,,,,,,,,,,,,,,,
,localizer,,html-keyboard-response,203,128559,0.0-2.0-71.0-0.0,333,53286,f,NaN,,,,null,NaN,69,,Stimuli/Experimental_stims/localizer/body_parts/matthew-wheeler-2_UxqsaDMmo-unsplash.jpg,,128145,1,body_parts,,0,1,0,400,85200,414,87112,,,,,,,,,,,,,,,,,,,,,,,,,,,,,,,,,,,,,,,,,,,,,,,,,,,,,
,iti_localizer,,html-keyboard-response,204,128872,0.0-2.0-71.0-1.0,333,53286,f,null,,,,null,,69,,,,128559,1,,,,,,300,85600,313,87526,300,,,,,,,,,,,,,,,,,,,,,,,,,,,,,,,,,,,,,,,,,,,,,,,,,,,,
,localizer,,html-keyboard-response,205,129288,0.0-2.0-72.0-0.0,333,53286,f,NaN,,,,null,NaN,70,,Stimuli/Experimental_stims/localizer/body_parts/billie-5OXE3KjDEfI-unsplash.jpg,,128872,1,body_parts,,0,1,0,400,85900,416,87839,,,,,,,,,,,,,,,,,,,,,,,,,,,,,,,,,,,,,,,,,,,,,,,,,,,,,
,iti_localizer,,html-keyboard-response,206,129598,0.0-2.0-72.0-1.0,333,53286,f,null,,,,null,,70,,,,129288,1,,,,,,300,86300,310,88255,300,,,,,,,,,,,,,,,,,,,,,,,,,,,,,,,,,,,,,,,,,,,,,,,,,,,,
,localizer,,html-keyboard-response,207,130006,0.0-2.0-73.0-0.0,333,53286,f,NaN,,,,null,NaN,71,,Stimuli/Experimental_stims/localizer/body_parts/lilartsy-1KkhQ8uL28g-unsplash.jpg,,129598,1,body_parts,,1,1,0,400,86600,408,88565,,,,,,,,,,,,,,,,,,,,,,,,,,,,,,,,,,,,,,,,,,,,,,,,,,,,,
,iti_localizer,,html-keyboard-response,208,130322,0.0-2.0-73.0-1.0,333,53286,f,null,,,,null,,71,,,,130006,1,,,,,,300,87000,316,88973,300,,,,,,,,,,,,,,,,,,,,,,,,,,,,,,,,,,,,,,,,,,,,,,,,,,,,
,localizer,,html-keyboard-response,209,130736,0.0-2.0-74.0-0.0,333,53286,f,NaN,,,,null,NaN,72,,Stimuli/Experimental_stims/localizer/body_parts/sincerely-media-Q7qRyaurQfo-unsplash.jpg,,130322,1,body_parts,,0,1,0,400,87300,414,89289,,,,,,,,,,,,,,,,,,,,,,,,,,,,,,,,,,,,,,,,,,,,,,,,,,,,,
,iti_localizer,,html-keyboard-response,210,131046,0.0-2.0-74.0-1.0,333,53286,f,null,,,,null,,72,,,,130736,1,,,,,,300,87700,310,89703,300,,,,,,,,,,,,,,,,,,,,,,,,,,,,,,,,,,,,,,,,,,,,,,,,,,,,
,localizer,,html-keyboard-response,211,131457,0.0-2.0-75.0-0.0,333,53286,f,NaN,,,,null,NaN,73,,Stimuli/Experimental_stims/localizer/body_parts/semen-zhuravlev-_XxH_mV8dnk-unsplash (1).jpg,,131046,1,body_parts,,0,1,0,400,88000,411,90013,,,,,,,,,,,,,,,,,,,,,,,,,,,,,,,,,,,,,,,,,,,,,,,,,,,,,
,iti_localizer,,html-keyboard-response,212,131765,0.0-2.0-75.0-1.0,333,53286,f,null,,,,null,,73,,,,131457,1,,,,,,300,88400,308,90424,300,,,,,,,,,,,,,,,,,,,,,,,,,,,,,,,,,,,,,,,,,,,,,,,,,,,,
,localizer,,html-keyboard-response,213,132174,0.0-2.0-76.0-0.0,333,53286,f,NaN,,,,null,NaN,74,,Stimuli/Experimental_stims/localizer/body_parts/sincerely-media-7TBFwUQA6Xk-unsplash.jpg,,131765,1,body_parts,,0,1,0,400,88700,409,90732,,,,,,,,,,,,,,,,,,,,,,,,,,,,,,,,,,,,,,,,,,,,,,,,,,,,,
,iti_localizer,,html-keyboard-response,214,132486,0.0-2.0-76.0-1.0,333,53286,f,null,,,,null,,74,,,,132174,1,,,,,,300,89100,312,91141,300,,,,,,,,,,,,,,,,,,,,,,,,,,,,,,,,,,,,,,,,,,,,,,,,,,,,
,localizer,,html-keyboard-response,215,132893,0.0-2.0-77.0-0.0,333,53286,f,NaN,,,,null,NaN,75,,Stimuli/Experimental_stims/localizer/body_parts/liv-bruce-M0oVPGsWk1E-unsplash.jpg,,132486,1,body_parts,,0,1,0,400,89400,407,91453,,,,,,,,,,,,,,,,,,,,,,,,,,,,,,,,,,,,,,,,,,,,,,,,,,,,,
,iti_localizer,,html-keyboard-response,216,133206,0.0-2.0-77.0-1.0,333,53286,f,null,,,,null,,75,,,,132893,1,,,,,,300,89800,313,91860,300,,,,,,,,,,,,,,,,,,,,,,,,,,,,,,,,,,,,,,,,,,,,,,,,,,,,
,localizer,,html-keyboard-response,217,133619,0.0-2.0-78.0-0.0,333,53286,f,NaN,,,,null,NaN,76,,Stimuli/Experimental_stims/localizer/body_parts/louis-hansel-FjKTMRTQYAs-unsplash.jpg,,133206,1,body_parts,,0,1,0,400,90100,413,92173,,,,,,,,,,,,,,,,,,,,,,,,,,,,,,,,,,,,,,,,,,,,,,,,,,,,,
,iti_localizer,,html-keyboard-response,218,133935,0.0-2.0-78.0-1.0,333,53286,f,null,,,,null,,76,,,,133619,1,,,,,,300,90500,316,92586,300,,,,,,,,,,,,,,,,,,,,,,,,,,,,,,,,,,,,,,,,,,,,,,,,,,,,
,localizer,,html-keyboard-response,219,134348,0.0-2.0-79.0-0.0,333,53286,f,NaN,,,,null,NaN,77,,Stimuli/Experimental_stims/localizer/body_parts/lucaxx-freire-CacZwMexYdk-unsplash.jpg,,133935,1,body_parts,,0,1,0,400,90800,413,92902,,,,,,,,,,,,,,,,,,,,,,,,,,,,,,,,,,,,,,,,,,,,,,,,,,,,,
,iti_localizer,,html-keyboard-response,220,134667,0.0-2.0-79.0-1.0,333,53286,f,null,,,,null,,77,,,,134348,1,,,,,,300,91200,319,93315,300,,,,,,,,,,,,,,,,,,,,,,,,,,,,,,,,,,,,,,,,,,,,,,,,,,,,
,localizer,,html-keyboard-response,221,135081,0.0-2.0-80.0-0.0,333,53286,f,NaN,,,,null,NaN,78,,Stimuli/Experimental_stims/localizer/body_parts/sippakorn-yamkasikorn-32_sJlJa5gA-unsplash.jpg,,134667,1,body_parts,,0,1,0,400,91500,414,93634,,,,,,,,,,,,,,,,,,,,,,,,,,,,,,,,,,,,,,,,,,,,,,,,,,,,,
,iti_localizer,,html-keyboard-response,222,135389,0.0-2.0-80.0-1.0,333,53286,f,null,,,,null,,78,,,,135081,1,,,,,,300,91900,308,94048,300,,,,,,,,,,,,,,,,,,,,,,,,,,,,,,,,,,,,,,,,,,,,,,,,,,,,
,localizer,,html-keyboard-response,223,135796,0.0-2.0-81.0-0.0,333,53286,f,NaN,,,,null,NaN,79,,Stimuli/Experimental_stims/localizer/body_parts/charles-etoroma-1fo0biloDOc-unsplash.jpg,,135389,1,body_parts,,0,1,0,400,92200,407,94356,,,,,,,,,,,,,,,,,,,,,,,,,,,,,,,,,,,,,,,,,,,,,,,,,,,,,
,iti_localizer,,html-keyboard-response,224,136114,0.0-2.0-81.0-1.0,333,53286,f,null,,,,null,,79,,,,135796,1,,,,,,300,92600,318,94763,300,,,,,,,,,,,,,,,,,,,,,,,,,,,,,,,,,,,,,,,,,,,,,,,,,,,,
,localizer,,html-keyboard-response,225,136525,0.0-2.0-82.0-0.0,333,53286,f,NaN,,,,null,NaN,80,,Stimuli/Experimental_stims/localizer/body_parts/nadine-shaabana-ypyaaEf2ntM-unsplash.jpg,,136114,1,body_parts,,0,1,0,400,92900,411,95081,,,,,,,,,,,,,,,,,,,,,,,,,,,,,,,,,,,,,,,,,,,,,,,,,,,,,
,iti_localizer,,html-keyboard-response,226,136839,0.0-2.0-82.0-1.0,333,53286,f,null,,,,null,,80,,,,136525,1,,,,,,300,93300,314,95492,300,,,,,,,,,,,,,,,,,,,,,,,,,,,,,,,,,,,,,,,,,,,,,,,,,,,,
,localizer,,html-keyboard-response,227,137256,0.0-2.0-83.0-0.0,333,53286,f,NaN,,,,null,NaN,81,,Stimuli/Experimental_stims/localizer/body_parts/diana-polekhina-SwWjCbIIoFE-unsplash.jpg,,136839,1,body_parts,,1,1,0,400,93600,417,95806,,,,,,,,,,,,,,,,,,,,,,,,,,,,,,,,,,,,,,,,,,,,,,,,,,,,,
,iti_localizer,,html-keyboard-response,228,137566,0.0-2.0-83.0-1.0,333,53286,f,null,,,,null,,81,,,,137256,1,,,,,,300,94000,310,96223,300,,,,,,,,,,,,,,,,,,,,,,,,,,,,,,,,,,,,,,,,,,,,,,,,,,,,
,localizer,,html-keyboard-response,229,137975,0.0-2.0-84.0-0.0,333,53286,f,NaN,,,,null,NaN,82,,Stimuli/Experimental_stims/localizer/body_parts/deborah-diem-ieVxpPjl1e0-unsplash.jpg,,137566,1,body_parts,,0,1,0,400,94300,409,96533,,,,,,,,,,,,,,,,,,,,,,,,,,,,,,,,,,,,,,,,,,,,,,,,,,,,,
,iti_localizer,,html-keyboard-response,230,138288,0.0-2.0-84.0-1.0,333,53286,f,null,,,,null,,82,,,,137975,1,,,,,,300,94700,313,96942,300,,,,,,,,,,,,,,,,,,,,,,,,,,,,,,,,,,,,,,,,,,,,,,,,,,,,
,localizer,,html-keyboard-response,231,138701,0.0-2.0-85.0-0.0,333,53286,f,NaN,,,,null,NaN,83,,Stimuli/Experimental_stims/localizer/body_parts/sincerely-media-pdynOoM7xmA-unsplash.jpg,,138288,1,body_parts,,0,1,0,400,95000,413,97255,,,,,,,,,,,,,,,,,,,,,,,,,,,,,,,,,,,,,,,,,,,,,,,,,,,,,
,iti_localizer,,html-keyboard-response,232,139016,0.0-2.0-85.0-1.0,333,53286,f,null,,,,null,,83,,,,138701,1,,,,,,300,95400,315,97668,300,,,,,,,,,,,,,,,,,,,,,,,,,,,,,,,,,,,,,,,,,,,,,,,,,,,,
,localizer,,html-keyboard-response,233,139429,0.0-2.0-86.0-0.0,333,53286,f,NaN,,,,null,NaN,84,,Stimuli/Experimental_stims/localizer/body_parts/ben-hartley-RbrsejLGVZ8-unsplash.jpg,,139016,1,body_parts,,0,1,0,400,95700,413,97983,,,,,,,,,,,,,,,,,,,,,,,,,,,,,,,,,,,,,,,,,,,,,,,,,,,,,
,iti_localizer,,html-keyboard-response,234,139740,0.0-2.0-86.0-1.0,333,53286,f,null,,,,null,,84,,,,139429,1,,,,,,300,96100,311,98396,300,,,,,,,,,,,,,,,,,,,,,,,,,,,,,,,,,,,,,,,,,,,,,,,,,,,,
,localizer,,html-keyboard-response,235,140154,0.0-2.0-87.0-0.0,333,53286,f,NaN,,,,null,NaN,85,,Stimuli/Experimental_stims/localizer/body_parts/apostolos-vamvouras-g5wKHRu2QW0-unsplash.jpg,,139740,1,body_parts,,0,1,0,400,96400,414,98707,,,,,,,,,,,,,,,,,,,,,,,,,,,,,,,,,,,,,,,,,,,,,,,,,,,,,
,iti_localizer,,html-keyboard-response,236,154167,0.0-2.0-87.0-1.0,333,53286,f,null,,,,null,,85,,,,140154,1,,,,,,14000,96800,14013,99121,14000,,,,,,,,,,,,,,,,,,,,,,,,,,,,,,,,,,,,,,,,,,,,,,,,,,,,
,localizer,,html-keyboard-response,237,154584,0.0-2.0-88.0-0.0,333,53286,f,NaN,,,,null,NaN,86,,Stimuli/Experimental_stims/localizer/objects/kelly-jean-cKjbI0Y00X0-unsplash.jpg,,154167,1,objects,,1,1,0,400,110800,417,113134,,,,,,,,,,,,,,,,,,,,,,,,,,,,,,,,,,,,,,,,,,,,,,,,,,,,,
,iti_localizer,,html-keyboard-response,238,154897,0.0-2.0-88.0-1.0,333,53286,f,null,,,,null,,86,,,,154584,1,,,,,,300,111200,313,113551,300,,,,,,,,,,,,,,,,,,,,,,,,,,,,,,,,,,,,,,,,,,,,,,,,,,,,
,localizer,,html-keyboard-response,239,155312,0.0-2.0-89.0-0.0,333,53286,f,NaN,,,,null,NaN,87,,Stimuli/Experimental_stims/localizer/objects/sam-moghadam-khamseh-L_7MQsHl_aU-unsplash.jpg,,154897,1,objects,,0,1,0,400,111500,415,113864,,,,,,,,,,,,,,,,,,,,,,,,,,,,,,,,,,,,,,,,,,,,,,,,,,,,,
,iti_localizer,,html-keyboard-response,240,155623,0.0-2.0-89.0-1.0,333,53286,f,null,,,,null,,87,,,,155312,1,,,,,,300,111900,311,114279,300,,,,,,,,,,,,,,,,,,,,,,,,,,,,,,,,,,,,,,,,,,,,,,,,,,,,
,localizer,,html-keyboard-response,241,156038,0.0-2.0-90.0-0.0,333,53286,f,NaN,,,,null,NaN,88,,Stimuli/Experimental_stims/localizer/objects/lance-reis-v0FYj9iioQg-unsplash.jpg,,155623,1,objects,,0,1,0,400,112200,415,114590,,,,,,,,,,,,,,,,,,,,,,,,,,,,,,,,,,,,,,,,,,,,,,,,,,,,,
,iti_localizer,,html-keyboard-response,242,156352,0.0-2.0-90.0-1.0,333,53286,f,null,,,,null,,88,,,,156038,1,,,,,,300,112600,314,115005,300,,,,,,,,,,,,,,,,,,,,,,,,,,,,,,,,,,,,,,,,,,,,,,,,,,,,
,localizer,,html-keyboard-response,243,156769,0.0-2.0-91.0-0.0,333,53286,f,NaN,,,,null,NaN,89,,Stimuli/Experimental_stims/localizer/objects/ryunosuke-kikuno-viEzuL1ouDs-unsplash.jpg,,156352,1,objects,,0,1,0,400,112900,417,115319,,,,,,,,,,,,,,,,,,,,,,,,,,,,,,,,,,,,,,,,,,,,,,,,,,,,,
,iti_localizer,,html-keyboard-response,244,157079,0.0-2.0-91.0-1.0,333,53286,f,null,,,,null,,89,,,,156769,1,,,,,,300,113300,310,115736,300,,,,,,,,,,,,,,,,,,,,,,,,,,,,,,,,,,,,,,,,,,,,,,,,,,,,
,localizer,,html-keyboard-response,245,157500,0.0-2.0-92.0-0.0,333,53286,f,NaN,,,,null,NaN,90,,Stimuli/Experimental_stims/localizer/objects/carlos-felipe-ramirez-mesa-x9g65MOXsPY-unsplash.jpg,,157079,1,objects,,0,1,0,400,113600,421,116046,,,,,,,,,,,,,,,,,,,,,,,,,,,,,,,,,,,,,,,,,,,,,,,,,,,,,
,iti_localizer,,html-keyboard-response,246,157814,0.0-2.0-92.0-1.0,333,53286,f,null,,,,null,,90,,,,157500,1,,,,,,300,114000,314,116467,300,,,,,,,,,,,,,,,,,,,,,,,,,,,,,,,,,,,,,,,,,,,,,,,,,,,,
,localizer,,html-keyboard-response,247,158221,0.0-2.0-93.0-0.0,333,53286,f,NaN,,,,null,NaN,91,,Stimuli/Experimental_stims/localizer/objects/saif71-com-VIKdvmGUhq8-unsplash.jpg,,157814,1,objects,,0,1,0,400,114300,407,116781,,,,,,,,,,,,,,,,,,,,,,,,,,,,,,,,,,,,,,,,,,,,,,,,,,,,,
,iti_localizer,,html-keyboard-response,248,158537,0.0-2.0-93.0-1.0,333,53286,f,null,,,,null,,91,,,,158221,1,,,,,,300,114700,316,117188,300,,,,,,,,,,,,,,,,,,,,,,,,,,,,,,,,,,,,,,,,,,,,,,,,,,,,
,localizer,,html-keyboard-response,249,158953,0.0-2.0-94.0-0.0,333,53286,f,NaN,,,,null,NaN,92,,Stimuli/Experimental_stims/localizer/objects/barrett-ward-0lMpQaXfOCg-unsplash.jpg,,158537,1,objects,,0,1,0,400,115000,416,117504,,,,,,,,,,,,,,,,,,,,,,,,,,,,,,,,,,,,,,,,,,,,,,,,,,,,,
,iti_localizer,,html-keyboard-response,250,159264,0.0-2.0-94.0-1.0,333,53286,f,null,,,,null,,92,,,,158953,1,,,,,,300,115400,311,117920,300,,,,,,,,,,,,,,,,,,,,,,,,,,,,,,,,,,,,,,,,,,,,,,,,,,,,
,localizer,,html-keyboard-response,251,159681,0.0-2.0-95.0-0.0,333,53286,f,NaN,,,,null,NaN,93,,Stimuli/Experimental_stims/localizer/objects/namroud-gorguis-FZWivbri0Xk-unsplash.jpg,,159264,1,objects,,0,1,0,400,115700,417,118231,,,,,,,,,,,,,,,,,,,,,,,,,,,,,,,,,,,,,,,,,,,,,,,,,,,,,
,iti_localizer,,html-keyboard-response,252,159992,0.0-2.0-95.0-1.0,333,53286,f,null,,,,null,,93,,,,159681,1,,,,,,300,116100,311,118648,300,,,,,,,,,,,,,,,,,,,,,,,,,,,,,,,,,,,,,,,,,,,,,,,,,,,,
,localizer,,html-keyboard-response,253,160408,0.0-2.0-96.0-0.0,333,53286,f,NaN,,,,null,NaN,94,,Stimuli/Experimental_stims/localizer/objects/collab-media-eddtBBbaw0Y-unsplash.jpg,,159992,1,objects,,0,1,0,400,116400,416,118959,,,,,,,,,,,,,,,,,,,,,,,,,,,,,,,,,,,,,,,,,,,,,,,,,,,,,
,iti_localizer,,html-keyboard-response,254,160719,0.0-2.0-96.0-1.0,333,53286,f,null,,,,null,,94,,,,160408,1,,,,,,300,116800,311,119375,300,,,,,,,,,,,,,,,,,,,,,,,,,,,,,,,,,,,,,,,,,,,,,,,,,,,,
,localizer,,html-keyboard-response,255,161137,0.0-2.0-97.0-0.0,333,53286,f,NaN,,,,null,NaN,95,,Stimuli/Experimental_stims/localizer/objects/dan-cristian-padure-ezoshbcxWrM-unsplash.jpg,,160719,1,objects,,0,1,0,400,117100,418,119686,,,,,,,,,,,,,,,,,,,,,,,,,,,,,,,,,,,,,,,,,,,,,,,,,,,,,
,iti_localizer,,html-keyboard-response,256,161446,0.0-2.0-97.0-1.0,333,53286,f,null,,,,null,,95,,,,161137,1,,,,,,300,117500,309,120104,300,,,,,,,,,,,,,,,,,,,,,,,,,,,,,,,,,,,,,,,,,,,,,,,,,,,,
,localizer,,html-keyboard-response,257,161855,0.0-2.0-98.0-0.0,333,53286,f,NaN,,,,null,NaN,96,,Stimuli/Experimental_stims/localizer/objects/florian-klauer-nptLmg6jqDo-unsplash.jpg,,161446,1,objects,,0,1,0,400,117800,409,120413,,,,,,,,,,,,,,,,,,,,,,,,,,,,,,,,,,,,,,,,,,,,,,,,,,,,,
,iti_localizer,,html-keyboard-response,258,162169,0.0-2.0-98.0-1.0,333,53286,f,null,,,,null,,96,,,,161855,1,,,,,,300,118200,314,120822,300,,,,,,,,,,,,,,,,,,,,,,,,,,,,,,,,,,,,,,,,,,,,,,,,,,,,
,localizer,,html-keyboard-response,259,162586,0.0-2.0-99.0-0.0,333,53286,f,NaN,,,,null,NaN,97,,Stimuli/Experimental_stims/localizer/objects/nordwood-themes-E9tFH39iRPE-unsplash.jpg,,162169,1,objects,,0,1,0,400,118500,417,121136,,,,,,,,,,,,,,,,,,,,,,,,,,,,,,,,,,,,,,,,,,,,,,,,,,,,,
,iti_localizer,,html-keyboard-response,260,162896,0.0-2.0-99.0-1.0,333,53286,f,null,,,,null,,97,,,,162586,1,,,,,,300,118900,310,121553,300,,,,,,,,,,,,,,,,,,,,,,,,,,,,,,,,,,,,,,,,,,,,,,,,,,,,
,localizer,,html-keyboard-response,261,163310,0.0-2.0-100.0-0.0,333,53286,f,NaN,,,,null,NaN,98,,Stimuli/Experimental_stims/localizer/objects/quaritsch-photography-lZ8onQ1wuY8-unsplash.jpg,,162896,1,objects,,0,1,0,400,119200,414,121863,,,,,,,,,,,,,,,,,,,,,,,,,,,,,,,,,,,,,,,,,,,,,,,,,,,,,
,iti_localizer,,html-keyboard-response,262,163624,0.0-2.0-100.0-1.0,333,53286,f,null,,,,null,,98,,,,163310,1,,,,,,300,119600,314,122277,300,,,,,,,,,,,,,,,,,,,,,,,,,,,,,,,,,,,,,,,,,,,,,,,,,,,,
,localizer,,html-keyboard-response,263,164040,0.0-2.0-101.0-0.0,333,53286,f,NaN,,,,null,NaN,99,,Stimuli/Experimental_stims/localizer/objects/ana-9GmAaEMMKho-unsplash.jpg,,163624,1,objects,,0,1,0,400,119900,416,122591,,,,,,,,,,,,,,,,,,,,,,,,,,,,,,,,,,,,,,,,,,,,,,,,,,,,,
,iti_localizer,,html-keyboard-response,264,164351,0.0-2.0-101.0-1.0,333,53286,f,null,,,,null,,99,,,,164040,1,,,,,,300,120300,311,123007,300,,,,,,,,,,,,,,,,,,,,,,,,,,,,,,,,,,,,,,,,,,,,,,,,,,,,
,localizer,,html-keyboard-response,265,164765,0.0-2.0-102.0-0.0,333,53286,f,NaN,,,,null,NaN,100,,Stimuli/Experimental_stims/localizer/objects/sam-moghadam-khamseh-kvmdsTrGOBM-unsplash.jpg,,164351,1,objects,,0,1,0,400,120600,414,123318,,,,,,,,,,,,,,,,,,,,,,,,,,,,,,,,,,,,,,,,,,,,,,,,,,,,,
,iti_localizer,,html-keyboard-response,266,165079,0.0-2.0-102.0-1.0,333,53286,f,null,,,,null,,100,,,,164765,1,,,,,,300,121000,314,123732,300,,,,,,,,,,,,,,,,,,,,,,,,,,,,,,,,,,,,,,,,,,,,,,,,,,,,
,localizer,,html-keyboard-response,267,165496,0.0-2.0-103.0-0.0,333,53286,f,NaN,,,,null,NaN,101,,Stimuli/Experimental_stims/localizer/objects/petr-sidorov-3jm5TGqtULU-unsplash.jpg,,165079,1,objects,,0,1,0,400,121300,417,124046,,,,,,,,,,,,,,,,,,,,,,,,,,,,,,,,,,,,,,,,,,,,,,,,,,,,,
,iti_localizer,,html-keyboard-response,268,165805,0.0-2.0-103.0-1.0,333,53286,f,null,,,,null,,101,,,,165496,1,,,,,,300,121700,309,124463,300,,,,,,,,,,,,,,,,,,,,,,,,,,,,,,,,,,,,,,,,,,,,,,,,,,,,
,localizer,,html-keyboard-response,269,166215,0.0-2.0-104.0-0.0,333,53286,f,NaN,,,,null,NaN,102,,Stimuli/Experimental_stims/localizer/objects/maria-lupan-Rlakka_pZMU-unsplash.jpg,,165805,1,objects,,1,1,0,400,122000,410,124772,,,,,,,,,,,,,,,,,,,,,,,,,,,,,,,,,,,,,,,,,,,,,,,,,,,,,
,iti_localizer,,html-keyboard-response,270,166531,0.0-2.0-104.0-1.0,333,53286,f,null,,,,null,,102,,,,166215,1,,,,,,300,122400,316,125182,300,,,,,,,,,,,,,,,,,,,,,,,,,,,,,,,,,,,,,,,,,,,,,,,,,,,,
,localizer,,html-keyboard-response,271,166945,0.0-2.0-105.0-0.0,333,53286,f,NaN,,,,null,NaN,103,,Stimuli/Experimental_stims/localizer/objects/raimond-klavins-ZdvDPXVvcKs-unsplash.jpg,,166531,1,objects,,0,1,0,400,122700,414,125498,,,,,,,,,,,,,,,,,,,,,,,,,,,,,,,,,,,,,,,,,,,,,,,,,,,,,
,iti_localizer,,html-keyboard-response,272,167257,0.0-2.0-105.0-1.0,333,53286,f,null,,,,null,,103,,,,166945,1,,,,,,300,123100,312,125912,300,,,,,,,,,,,,,,,,,,,,,,,,,,,,,,,,,,,,,,,,,,,,,,,,,,,,
,localizer,,html-keyboard-response,273,167669,0.0-2.0-106.0-0.0,333,53286,f,NaN,,,,null,NaN,104,,Stimuli/Experimental_stims/localizer/objects/chris-briggs-FobzAZJGM9M-unsplash.jpg,,167257,1,objects,,0,1,0,400,123400,412,126224,,,,,,,,,,,,,,,,,,,,,,,,,,,,,,,,,,,,,,,,,,,,,,,,,,,,,
,iti_localizer,,html-keyboard-response,274,167986,0.0-2.0-106.0-1.0,333,53286,f,null,,,,null,,104,,,,167669,1,,,,,,300,123800,317,126636,300,,,,,,,,,,,,,,,,,,,,,,,,,,,,,,,,,,,,,,,,,,,,,,,,,,,,
,localizer,,html-keyboard-response,275,168397,0.0-2.0-107.0-0.0,333,53286,f,NaN,,,,null,NaN,105,,Stimuli/Experimental_stims/localizer/objects/recha-oktaviani-t__61ap00Mc-unsplash.jpg,,167986,1,objects,,0,1,0,400,124100,411,126953,,,,,,,,,,,,,,,,,,,,,,,,,,,,,,,,,,,,,,,,,,,,,,,,,,,,,
,iti_localizer,,html-keyboard-response,276,182413,0.0-2.0-107.0-1.0,333,53286,f,null,,,,null,,105,,,,168397,1,,,,,,14000,124500,14016,127364,14000,,,,,,,,,,,,,,,,,,,,,,,,,,,,,,,,,,,,,,,,,,,,,,,,,,,,
,localizer,,html-keyboard-response,277,182822,0.0-2.0-108.0-0.0,333,53286,f,NaN,,,,null,NaN,106,,Stimuli/Experimental_stims/localizer/faces/ivana-cajina-_7LbC5J-jw4-unsplash.jpg,,182413,1,faces,,0,1,0,400,138500,409,141380,,,,,,,,,,,,,,,,,,,,,,,,,,,,,,,,,,,,,,,,,,,,,,,,,,,,,
,iti_localizer,,html-keyboard-response,278,183137,0.0-2.0-108.0-1.0,333,53286,f,null,,,,null,,106,,,,182822,1,,,,,,300,138900,315,141789,300,,,,,,,,,,,,,,,,,,,,,,,,,,,,,,,,,,,,,,,,,,,,,,,,,,,,
,localizer,,html-keyboard-response,279,183553,0.0-2.0-109.0-0.0,333,53286,f,NaN,,,,null,NaN,107,,Stimuli/Experimental_stims/localizer/faces/foto-sushi-6anudmpILw4-unsplash.jpg,,183137,1,faces,,0,1,0,400,139200,416,142104,,,,,,,,,,,,,,,,,,,,,,,,,,,,,,,,,,,,,,,,,,,,,,,,,,,,,
,iti_localizer,,html-keyboard-response,280,183862,0.0-2.0-109.0-1.0,333,53286,f,null,,,,null,,107,,,,183553,1,,,,,,300,139600,309,142520,300,,,,,,,,,,,,,,,,,,,,,,,,,,,,,,,,,,,,,,,,,,,,,,,,,,,,
,localizer,,html-keyboard-response,281,184271,0.0-2.0-110.0-0.0,333,53286,f,NaN,,,,null,NaN,108,,Stimuli/Experimental_stims/localizer/faces/olena-sergienko-0TSd6uCKTKc-unsplash.jpg,,183862,1,faces,,0,1,0,400,139900,409,142829,,,,,,,,,,,,,,,,,,,,,,,,,,,,,,,,,,,,,,,,,,,,,,,,,,,,,
,iti_localizer,,html-keyboard-response,282,184583,0.0-2.0-110.0-1.0,333,53286,f,null,,,,null,,108,,,,184271,1,,,,,,300,140300,312,143238,300,,,,,,,,,,,,,,,,,,,,,,,,,,,,,,,,,,,,,,,,,,,,,,,,,,,,
,localizer,,html-keyboard-response,283,184989,0.0-2.0-111.0-0.0,333,53286,f,NaN,,,,null,NaN,109,,Stimuli/Experimental_stims/localizer/faces/brooke-cagle-Nm70URdtf3c-unsplash (1).jpg,,184583,1,faces,,0,1,0,400,140600,406,143550,,,,,,,,,,,,,,,,,,,,,,,,,,,,,,,,,,,,,,,,,,,,,,,,,,,,,
,iti_localizer,,html-keyboard-response,284,185305,0.0-2.0-111.0-1.0,333,53286,f,null,,,,null,,109,,,,184989,1,,,,,,300,141000,316,143956,300,,,,,,,,,,,,,,,,,,,,,,,,,,,,,,,,,,,,,,,,,,,,,,,,,,,,
,localizer,,html-keyboard-response,285,185721,0.0-2.0-112.0-0.0,333,53286,f,NaN,,,,null,NaN,110,,Stimuli/Experimental_stims/localizer/faces/imansyah-muhamad-putera-n4KewLKFOZw-unsplash.jpg,,185305,1,faces,,0,1,0,400,141300,416,144272,,,,,,,,,,,,,,,,,,,,,,,,,,,,,,,,,,,,,,,,,,,,,,,,,,,,,
,iti_localizer,,html-keyboard-response,286,186032,0.0-2.0-112.0-1.0,333,53286,f,null,,,,null,,110,,,,185721,1,,,,,,300,141700,311,144688,300,,,,,,,,,,,,,,,,,,,,,,,,,,,,,,,,,,,,,,,,,,,,,,,,,,,,
,localizer,,html-keyboard-response,287,186445,0.0-2.0-113.0-0.0,333,53286,f,NaN,,,,null,NaN,111,,Stimuli/Experimental_stims/localizer/faces/jeffery-erhunse-vp9mRauo68c-unsplash.jpg,,186032,1,faces,,1,1,0,400,142000,413,144999,,,,,,,,,,,,,,,,,,,,,,,,,,,,,,,,,,,,,,,,,,,,,,,,,,,,,
,iti_localizer,,html-keyboard-response,288,186761,0.0-2.0-113.0-1.0,333,53286,f,null,,,,null,,111,,,,186445,1,,,,,,300,142400,316,145412,300,,,,,,,,,,,,,,,,,,,,,,,,,,,,,,,,,,,,,,,,,,,,,,,,,,,,
,localizer,,html-keyboard-response,289,187174,0.0-2.0-114.0-0.0,333,53286,f,NaN,,,,null,NaN,112,,Stimuli/Experimental_stims/localizer/faces/nick-karvounis-JyO_szjGvUw-unsplash.jpg,,186761,1,faces,,0,1,0,400,142700,413,145728,,,,,,,,,,,,,,,,,,,,,,,,,,,,,,,,,,,,,,,,,,,,,,,,,,,,,
,iti_localizer,,html-keyboard-response,290,187487,0.0-2.0-114.0-1.0,333,53286,f,null,,,,null,,112,,,,187174,1,,,,,,300,143100,313,146141,300,,,,,,,,,,,,,,,,,,,,,,,,,,,,,,,,,,,,,,,,,,,,,,,,,,,,
,localizer,,html-keyboard-response,291,187897,0.0-2.0-115.0-0.0,333,53286,f,NaN,,,,null,NaN,113,,Stimuli/Experimental_stims/localizer/faces/jurica-koletic-7YVZYZeITc8-unsplash.jpg,,187487,1,faces,,0,1,0,400,143400,410,146454,,,,,,,,,,,,,,,,,,,,,,,,,,,,,,,,,,,,,,,,,,,,,,,,,,,,,
,iti_localizer,,html-keyboard-response,292,188208,0.0-2.0-115.0-1.0,333,53286,f,null,,,,null,,113,,,,187897,1,,,,,,300,143800,311,146864,300,,,,,,,,,,,,,,,,,,,,,,,,,,,,,,,,,,,,,,,,,,,,,,,,,,,,
,localizer,,html-keyboard-response,293,188623,0.0-2.0-116.0-0.0,333,53286,f,NaN,,,,null,NaN,114,,Stimuli/Experimental_stims/localizer/faces/whereslugo-zl_fPgiwduo-unsplash.jpg,,188208,1,faces,,0,1,0,400,144100,415,147175,,,,,,,,,,,,,,,,,,,,,,,,,,,,,,,,,,,,,,,,,,,,,,,,,,,,,
,iti_localizer,,html-keyboard-response,294,188938,0.0-2.0-116.0-1.0,333,53286,f,null,,,,null,,114,,,,188623,1,,,,,,300,144500,315,147590,300,,,,,,,,,,,,,,,,,,,,,,,,,,,,,,,,,,,,,,,,,,,,,,,,,,,,
,localizer,,html-keyboard-response,295,189352,0.0-2.0-117.0-0.0,333,53286,f,NaN,,,,null,NaN,115,,Stimuli/Experimental_stims/localizer/faces/christian-buehner-DItYlc26zVI-unsplash.jpg,,188938,1,faces,,0,1,0,400,144800,414,147905,,,,,,,,,,,,,,,,,,,,,,,,,,,,,,,,,,,,,,,,,,,,,,,,,,,,,
,iti_localizer,,html-keyboard-response,296,189665,0.0-2.0-117.0-1.0,333,53286,f,null,,,,null,,115,,,,189352,1,,,,,,300,145200,313,148319,300,,,,,,,,,,,,,,,,,,,,,,,,,,,,,,,,,,,,,,,,,,,,,,,,,,,,
,localizer,,html-keyboard-response,297,190079,0.0-2.0-118.0-0.0,333,53286,f,NaN,,,,null,NaN,116,,Stimuli/Experimental_stims/localizer/faces/pavel-anoshin-d0peGya6R5Y-unsplash.jpg,,189665,1,faces,,0,1,0,400,145500,414,148632,,,,,,,,,,,,,,,,,,,,,,,,,,,,,,,,,,,,,,,,,,,,,,,,,,,,,
,iti_localizer,,html-keyboard-response,298,190390,0.0-2.0-118.0-1.0,333,53286,f,null,,,,null,,116,,,,190079,1,,,,,,300,145900,311,149046,300,,,,,,,,,,,,,,,,,,,,,,,,,,,,,,,,,,,,,,,,,,,,,,,,,,,,
,localizer,,html-keyboard-response,299,190799,0.0-2.0-119.0-0.0,333,53286,f,NaN,,,,null,NaN,117,,Stimuli/Experimental_stims/localizer/faces/jimmy-fermin-bqe0J0b26RQ-unsplash.jpg,,190390,1,faces,,0,1,0,400,146200,409,149357,,,,,,,,,,,,,,,,,,,,,,,,,,,,,,,,,,,,,,,,,,,,,,,,,,,,,
,iti_localizer,,html-keyboard-response,300,191109,0.0-2.0-119.0-1.0,333,53286,f,null,,,,null,,117,,,,190799,1,,,,,,300,146600,310,149766,300,,,,,,,,,,,,,,,,,,,,,,,,,,,,,,,,,,,,,,,,,,,,,,,,,,,,
,localizer,,html-keyboard-response,301,191519,0.0-2.0-120.0-0.0,333,53286,f,NaN,,,,null,NaN,118,,Stimuli/Experimental_stims/localizer/faces/christian-ferrer-8vT-DgHZDG4-unsplash.jpg,,191109,1,faces,,0,1,0,400,146900,410,150076,,,,,,,,,,,,,,,,,,,,,,,,,,,,,,,,,,,,,,,,,,,,,,,,,,,,,
,iti_localizer,,html-keyboard-response,302,191833,0.0-2.0-120.0-1.0,333,53286,f,null,,,,null,,118,,,,191519,1,,,,,,300,147300,314,150486,300,,,,,,,,,,,,,,,,,,,,,,,,,,,,,,,,,,,,,,,,,,,,,,,,,,,,
,localizer,,html-keyboard-response,303,192245,0.0-2.0-121.0-0.0,333,53286,f,NaN,,,,null,NaN,119,,Stimuli/Experimental_stims/localizer/faces/jeffery-erhunse-BQMZ5ligqps-unsplash.jpg,,191833,1,faces,,0,1,0,400,147600,412,150800,,,,,,,,,,,,,,,,,,,,,,,,,,,,,,,,,,,,,,,,,,,,,,,,,,,,,
,iti_localizer,,html-keyboard-response,304,192561,0.0-2.0-121.0-1.0,333,53286,f,null,,,,null,,119,,,,192245,1,,,,,,300,148000,316,151212,300,,,,,,,,,,,,,,,,,,,,,,,,,,,,,,,,,,,,,,,,,,,,,,,,,,,,
,localizer,,html-keyboard-response,305,192976,0.0-2.0-122.0-0.0,333,53286,f,NaN,,,,null,NaN,120,,Stimuli/Experimental_stims/localizer/faces/christopher-campbell-rDEOVtE7vOs-unsplash.jpg,,192561,1,faces,,0,1,0,400,148300,415,151528,,,,,,,,,,,,,,,,,,,,,,,,,,,,,,,,,,,,,,,,,,,,,,,,,,,,,
,iti_localizer,,html-keyboard-response,306,193288,0.0-2.0-122.0-1.0,333,53286,f,null,,,,null,,120,,,,192976,1,,,,,,300,148700,312,151943,300,,,,,,,,,,,,,,,,,,,,,,,,,,,,,,,,,,,,,,,,,,,,,,,,,,,,
,localizer,,html-keyboard-response,307,193704,0.0-2.0-123.0-0.0,333,53286,f,NaN,,,,null,NaN,121,,Stimuli/Experimental_stims/localizer/faces/chanvre-quebec-mXu1SpzHq6w-unsplash.jpg,,193288,1,faces,,0,1,0,400,149000,416,152255,,,,,,,,,,,,,,,,,,,,,,,,,,,,,,,,,,,,,,,,,,,,,,,,,,,,,
,iti_localizer,,html-keyboard-response,308,194013,0.0-2.0-123.0-1.0,333,53286,f,null,,,,null,,121,,,,193704,1,,,,,,300,149400,309,152671,300,,,,,,,,,,,,,,,,,,,,,,,,,,,,,,,,,,,,,,,,,,,,,,,,,,,,
,localizer,,html-keyboard-response,309,194425,0.0-2.0-124.0-0.0,333,53286,f,NaN,,,,null,NaN,122,,Stimuli/Experimental_stims/localizer/faces/gabriel-silverio-u3WmDyKGsrY-unsplash.jpg,,194013,1,faces,,0,1,0,400,149700,412,152980,,,,,,,,,,,,,,,,,,,,,,,,,,,,,,,,,,,,,,,,,,,,,,,,,,,,,
,iti_localizer,,html-keyboard-response,310,194736,0.0-2.0-124.0-1.0,333,53286,f,null,,,,null,,122,,,,194425,1,,,,,,300,150100,311,153392,300,,,,,,,,,,,,,,,,,,,,,,,,,,,,,,,,,,,,,,,,,,,,,,,,,,,,
,localizer,,html-keyboard-response,311,195151,0.0-2.0-125.0-0.0,333,53286,f,NaN,,,,null,NaN,123,,Stimuli/Experimental_stims/localizer/faces/aleksandar-popovski-Jy4ELSGPHTc-unsplash.jpg,,194736,1,faces,,0,1,0,400,150400,415,153703,,,,,,,,,,,,,,,,,,,,,,,,,,,,,,,,,,,,,,,,,,,,,,,,,,,,,
,iti_localizer,,html-keyboard-response,312,195464,0.0-2.0-125.0-1.0,333,53286,f,null,,,,null,,123,,,,195151,1,,,,,,300,150800,313,154118,300,,,,,,,,,,,,,,,,,,,,,,,,,,,,,,,,,,,,,,,,,,,,,,,,,,,,
,localizer,,html-keyboard-response,313,195882,0.0-2.0-126.0-0.0,333,53286,f,NaN,,,,null,NaN,124,,Stimuli/Experimental_stims/localizer/faces/ivan-dodig-R21SyyJDFgc-unsplash.jpg,,195464,1,faces,,0,1,0,400,151100,418,154431,,,,,,,,,,,,,,,,,,,,,,,,,,,,,,,,,,,,,,,,,,,,,,,,,,,,,
,iti_localizer,,html-keyboard-response,314,196195,0.0-2.0-126.0-1.0,333,53286,f,null,,,,null,,124,,,,195882,1,,,,,,300,151500,313,154849,300,,,,,,,,,,,,,,,,,,,,,,,,,,,,,,,,,,,,,,,,,,,,,,,,,,,,
,localizer,,html-keyboard-response,315,196605,0.0-2.0-127.0-0.0,333,53286,f,NaN,,,,null,NaN,125,,Stimuli/Experimental_stims/localizer/faces/hisu-lee-2qvxIr_DXGo-unsplash.jpg,,196195,1,faces,,1,1,0,400,151800,410,155162,,,,,,,,,,,,,,,,,,,,,,,,,,,,,,,,,,,,,,,,,,,,,,,,,,,,,
,iti_localizer,,html-keyboard-response,316,210616,0.0-2.0-127.0-1.0,333,53286,f,null,,,,null,,125,,,,196605,1,,,,,,14000,152200,14011,155572,14000,,,,,,,,,,,,,,,,,,,,,,,,,,,,,,,,,,,,,,,,,,,,,,,,,,,,
,localizer,,html-keyboard-response,317,211034,0.0-2.0-128.0-0.0,333,53286,f,NaN,,,,null,NaN,126,,Stimuli/Experimental_stims/localizer/body_parts/davidcohen-qghuLqyh3nE-unsplash.jpg,,210616,1,body_parts,,0,1,0,400,166200,418,169583,,,,,,,,,,,,,,,,,,,,,,,,,,,,,,,,,,,,,,,,,,,,,,,,,,,,,
,iti_localizer,,html-keyboard-response,318,211343,0.0-2.0-128.0-1.0,333,53286,f,null,,,,null,,126,,,,211034,1,,,,,,300,166600,309,170001,300,,,,,,,,,,,,,,,,,,,,,,,,,,,,,,,,,,,,,,,,,,,,,,,,,,,,
,localizer,,html-keyboard-response,319,211755,0.0-2.0-129.0-0.0,333,53286,f,NaN,,,,null,NaN,127,,Stimuli/Experimental_stims/localizer/body_parts/jeremy-bishop-mLd3hAaH2ns-unsplash.jpg,,211343,1,body_parts,,1,1,0,400,166900,412,170310,,,,,,,,,,,,,,,,,,,,,,,,,,,,,,,,,,,,,,,,,,,,,,,,,,,,,
,iti_localizer,,html-keyboard-response,320,212064,0.0-2.0-129.0-1.0,333,53286,f,null,,,,null,,127,,,,211755,1,,,,,,300,167300,309,170722,300,,,,,,,,,,,,,,,,,,,,,,,,,,,,,,,,,,,,,,,,,,,,,,,,,,,,
,localizer,,html-keyboard-response,321,212480,0.0-2.0-130.0-0.0,333,53286,f,NaN,,,,null,NaN,128,,Stimuli/Experimental_stims/localizer/body_parts/david-fanuel-qnV8X7OViNY-unsplash.jpg,,212064,1,body_parts,,0,1,0,400,167600,416,171031,,,,,,,,,,,,,,,,,,,,,,,,,,,,,,,,,,,,,,,,,,,,,,,,,,,,,
,iti_localizer,,html-keyboard-response,322,212796,0.0-2.0-130.0-1.0,333,53286,f,null,,,,null,,128,,,,212480,1,,,,,,300,168000,316,171447,300,,,,,,,,,,,,,,,,,,,,,,,,,,,,,,,,,,,,,,,,,,,,,,,,,,,,
,localizer,,html-keyboard-response,323,213209,0.0-2.0-131.0-0.0,333,53286,f,NaN,,,,null,NaN,129,,Stimuli/Experimental_stims/localizer/body_parts/helen-ast-l2iY5Sh0mTg-unsplash.jpg,,212796,1,body_parts,,0,1,0,400,168300,413,171763,,,,,,,,,,,,,,,,,,,,,,,,,,,,,,,,,,,,,,,,,,,,,,,,,,,,,
,iti_localizer,,html-keyboard-response,324,213523,0.0-2.0-131.0-1.0,333,53286,f,null,,,,null,,129,,,,213209,1,,,,,,300,168700,314,172176,300,,,,,,,,,,,,,,,,,,,,,,,,,,,,,,,,,,,,,,,,,,,,,,,,,,,,
,localizer,,html-keyboard-response,325,213937,0.0-2.0-132.0-0.0,333,53286,f,NaN,,,,null,NaN,130,,Stimuli/Experimental_stims/localizer/body_parts/boyd-christiansen-uVj7kewrZ-o-unsplash.jpg,,213523,1,body_parts,,0,1,0,400,169000,414,172490,,,,,,,,,,,,,,,,,,,,,,,,,,,,,,,,,,,,,,,,,,,,,,,,,,,,,
,iti_localizer,,html-keyboard-response,326,214250,0.0-2.0-132.0-1.0,333,53286,f,null,,,,null,,130,,,,213937,1,,,,,,300,169400,313,172904,300,,,,,,,,,,,,,,,,,,,,,,,,,,,,,,,,,,,,,,,,,,,,,,,,,,,,
,localizer,,html-keyboard-response,327,214664,0.0-2.0-133.0-0.0,333,53286,f,NaN,,,,null,NaN,131,,Stimuli/Experimental_stims/localizer/body_parts/freestocks-qw9LFf5T790-unsplash.jpg,,214250,1,body_parts,,0,1,0,400,169700,414,173217,,,,,,,,,,,,,,,,,,,,,,,,,,,,,,,,,,,,,,,,,,,,,,,,,,,,,
,iti_localizer,,html-keyboard-response,328,214976,0.0-2.0-133.0-1.0,333,53286,f,null,,,,null,,131,,,,214664,1,,,,,,300,170100,312,173631,300,,,,,,,,,,,,,,,,,,,,,,,,,,,,,,,,,,,,,,,,,,,,,,,,,,,,
,localizer,,html-keyboard-response,329,215390,0.0-2.0-134.0-0.0,333,53286,f,NaN,,,,null,NaN,132,,Stimuli/Experimental_stims/localizer/body_parts/marcel-fagin-OUYg0Q3ec-Y-unsplash.jpg,,214976,1,body_parts,,0,1,0,400,170400,414,173943,,,,,,,,,,,,,,,,,,,,,,,,,,,,,,,,,,,,,,,,,,,,,,,,,,,,,
,iti_localizer,,html-keyboard-response,330,215703,0.0-2.0-134.0-1.0,333,53286,f,null,,,,null,,132,,,,215390,1,,,,,,300,170800,313,174357,300,,,,,,,,,,,,,,,,,,,,,,,,,,,,,,,,,,,,,,,,,,,,,,,,,,,,
,localizer,,html-keyboard-response,331,216113,0.0-2.0-135.0-0.0,333,53286,f,NaN,,,,null,NaN,133,,Stimuli/Experimental_stims/localizer/body_parts/ramesh-iyer-CRhznMXoJlc-unsplash.jpg,,215703,1,body_parts,,0,1,0,400,171100,410,174670,,,,,,,,,,,,,,,,,,,,,,,,,,,,,,,,,,,,,,,,,,,,,,,,,,,,,
,iti_localizer,,html-keyboard-response,332,216424,0.0-2.0-135.0-1.0,333,53286,f,null,,,,null,,133,,,,216113,1,,,,,,300,171500,311,175080,300,,,,,,,,,,,,,,,,,,,,,,,,,,,,,,,,,,,,,,,,,,,,,,,,,,,,
,localizer,,html-keyboard-response,333,216841,0.0-2.0-136.0-0.0,333,53286,f,NaN,,,,null,NaN,134,,Stimuli/Experimental_stims/localizer/body_parts/sandra-seitamaa-YCc_YAAhY3I-unsplash.jpg,,216424,1,body_parts,,0,1,0,400,171800,417,175391,,,,,,,,,,,,,,,,,,,,,,,,,,,,,,,,,,,,,,,,,,,,,,,,,,,,,
,iti_localizer,,html-keyboard-response,334,217152,0.0-2.0-136.0-1.0,333,53286,f,null,,,,null,,134,,,,216841,1,,,,,,300,172200,311,175808,300,,,,,,,,,,,,,,,,,,,,,,,,,,,,,,,,,,,,,,,,,,,,,,,,,,,,
,localizer,,html-keyboard-response,335,217569,0.0-2.0-137.0-0.0,333,53286,f,NaN,,,,null,NaN,135,,Stimuli/Experimental_stims/localizer/body_parts/meghan-thompson-U1b8OB0QpIo-unsplash.jpg,,217152,1,body_parts,,0,1,0,400,172500,417,176119,,,,,,,,,,,,,,,,,,,,,,,,,,,,,,,,,,,,,,,,,,,,,,,,,,,,,
,iti_localizer,,html-keyboard-response,336,217882,0.0-2.0-137.0-1.0,333,53286,f,null,,,,null,,135,,,,217569,1,,,,,,300,172900,313,176536,300,,,,,,,,,,,,,,,,,,,,,,,,,,,,,,,,,,,,,,,,,,,,,,,,,,,,
,localizer,,html-keyboard-response,337,218296,0.0-2.0-138.0-0.0,333,53286,f,NaN,,,,null,NaN,136,,Stimuli/Experimental_stims/localizer/body_parts/louisa-potter-zd29nBmLuig-unsplash.jpg,,217882,1,body_parts,,0,1,0,400,173200,414,176849,,,,,,,,,,,,,,,,,,,,,,,,,,,,,,,,,,,,,,,,,,,,,,,,,,,,,
,iti_localizer,,html-keyboard-response,338,218607,0.0-2.0-138.0-1.0,333,53286,f,null,,,,null,,136,,,,218296,1,,,,,,300,173600,311,177263,300,,,,,,,,,,,,,,,,,,,,,,,,,,,,,,,,,,,,,,,,,,,,,,,,,,,,
,localizer,,html-keyboard-response,339,219019,0.0-2.0-139.0-0.0,333,53286,f,NaN,,,,null,NaN,137,,Stimuli/Experimental_stims/localizer/body_parts/pure-julia-9lVaya31sMk-unsplash.jpg,,218607,1,body_parts,,0,1,0,400,173900,412,177574,,,,,,,,,,,,,,,,,,,,,,,,,,,,,,,,,,,,,,,,,,,,,,,,,,,,,
,iti_localizer,,html-keyboard-response,340,219330,0.0-2.0-139.0-1.0,333,53286,f,null,,,,null,,137,,,,219019,1,,,,,,300,174300,311,177986,300,,,,,,,,,,,,,,,,,,,,,,,,,,,,,,,,,,,,,,,,,,,,,,,,,,,,
,localizer,,html-keyboard-response,341,219746,0.0-2.0-140.0-0.0,333,53286,f,NaN,,,,null,NaN,138,,Stimuli/Experimental_stims/localizer/body_parts/pure-julia-E9Q4bqYHtIM-unsplash.jpg,,219330,1,body_parts,,0,1,0,400,174600,416,178297,,,,,,,,,,,,,,,,,,,,,,,,,,,,,,,,,,,,,,,,,,,,,,,,,,,,,
,iti_localizer,,html-keyboard-response,342,220057,0.0-2.0-140.0-1.0,333,53286,f,null,,,,null,,138,,,,219746,1,,,,,,300,175000,311,178713,300,,,,,,,,,,,,,,,,,,,,,,,,,,,,,,,,,,,,,,,,,,,,,,,,,,,,
,localizer,,html-keyboard-response,343,220472,0.0-2.0-141.0-0.0,333,53286,f,NaN,,,,null,NaN,139,,Stimuli/Experimental_stims/localizer/body_parts/niu-niu-5HzOtV-FSlw-unsplash.jpg,,220057,1,body_parts,,0,1,0,400,175300,415,179024,,,,,,,,,,,,,,,,,,,,,,,,,,,,,,,,,,,,,,,,,,,,,,,,,,,,,
,iti_localizer,,html-keyboard-response,344,220782,0.0-2.0-141.0-1.0,333,53286,f,null,,,,null,,139,,,,220472,1,,,,,,300,175700,310,179439,300,,,,,,,,,,,,,,,,,,,,,,,,,,,,,,,,,,,,,,,,,,,,,,,,,,,,
,localizer,,html-keyboard-response,345,221196,0.0-2.0-142.0-0.0,333,53286,f,NaN,,,,null,NaN,140,,Stimuli/Experimental_stims/localizer/body_parts/sincerely-media-3DZHTq_i7Qk-unsplash.jpg,,220782,1,body_parts,,1,1,0,400,176000,414,179749,,,,,,,,,,,,,,,,,,,,,,,,,,,,,,,,,,,,,,,,,,,,,,,,,,,,,
,iti_localizer,,html-keyboard-response,346,221513,0.0-2.0-142.0-1.0,333,53286,f,null,,,,null,,140,,,,221196,1,,,,,,300,176400,317,180163,300,,,,,,,,,,,,,,,,,,,,,,,,,,,,,,,,,,,,,,,,,,,,,,,,,,,,
,localizer,,html-keyboard-response,347,221930,0.0-2.0-143.0-0.0,333,53286,f,NaN,,,,null,NaN,141,,Stimuli/Experimental_stims/localizer/body_parts/sina-rezakhani-d1gQi0Jl05U-unsplash (1).jpg,,221513,1,body_parts,,0,1,0,400,176700,417,180480,,,,,,,,,,,,,,,,,,,,,,,,,,,,,,,,,,,,,,,,,,,,,,,,,,,,,
,iti_localizer,,html-keyboard-response,348,222239,0.0-2.0-143.0-1.0,333,53286,f,null,,,,null,,141,,,,221930,1,,,,,,300,177100,309,180897,300,,,,,,,,,,,,,,,,,,,,,,,,,,,,,,,,,,,,,,,,,,,,,,,,,,,,
,localizer,,html-keyboard-response,349,222650,0.0-2.0-144.0-0.0,333,53286,f,NaN,,,,null,NaN,142,,Stimuli/Experimental_stims/localizer/body_parts/natalie-grainger-8uB5kFKWWkk-unsplash.jpg,,222239,1,body_parts,,0,1,0,400,177400,411,181206,,,,,,,,,,,,,,,,,,,,,,,,,,,,,,,,,,,,,,,,,,,,,,,,,,,,,
,iti_localizer,,html-keyboard-response,350,222960,0.0-2.0-144.0-1.0,333,53286,f,null,,,,null,,142,,,,222650,1,,,,,,300,177800,310,181617,300,,,,,,,,,,,,,,,,,,,,,,,,,,,,,,,,,,,,,,,,,,,,,,,,,,,,
,localizer,,html-keyboard-response,351,223376,0.0-2.0-145.0-0.0,333,53286,f,NaN,,,,null,NaN,143,,Stimuli/Experimental_stims/localizer/body_parts/ignacio-campo-tC9boyqy_40-unsplash.jpg,,222960,1,body_parts,,0,1,0,400,178100,416,181927,,,,,,,,,,,,,,,,,,,,,,,,,,,,,,,,,,,,,,,,,,,,,,,,,,,,,
,iti_localizer,,html-keyboard-response,352,223688,0.0-2.0-145.0-1.0,333,53286,f,null,,,,null,,143,,,,223376,1,,,,,,300,178500,312,182343,300,,,,,,,,,,,,,,,,,,,,,,,,,,,,,,,,,,,,,,,,,,,,,,,,,,,,
,localizer,,html-keyboard-response,353,224107,0.0-2.0-146.0-0.0,333,53286,f,NaN,,,,null,NaN,144,,Stimuli/Experimental_stims/localizer/body_parts/jasper-garratt-Ng_Kl7K6V8Y-unsplash.jpg,,223688,1,body_parts,,0,1,0,400,178800,419,182655,,,,,,,,,,,,,,,,,,,,,,,,,,,,,,,,,,,,,,,,,,,,,,,,,,,,,
,iti_localizer,,html-keyboard-response,354,224413,0.0-2.0-146.0-1.0,333,53286,f,null,,,,null,,144,,,,224107,1,,,,,,300,179200,306,183074,300,,,,,,,,,,,,,,,,,,,,,,,,,,,,,,,,,,,,,,,,,,,,,,,,,,,,
,localizer,,html-keyboard-response,355,224827,0.0-2.0-147.0-0.0,333,53286,f,NaN,,,,null,NaN,145,,Stimuli/Experimental_stims/localizer/body_parts/matheus-frade-eyzdb1C3JDM-unsplash.jpg,,224413,1,body_parts,,0,1,0,400,179500,414,183380,,,,,,,,,,,,,,,,,,,,,,,,,,,,,,,,,,,,,,,,,,,,,,,,,,,,,
,iti_localizer,,html-keyboard-response,356,238842,0.0-2.0-147.0-1.0,333,53286,f,null,,,,null,,145,,,,224827,1,,,,,,14000,179900,14015,183794,14000,,,,,,,,,,,,,,,,,,,,,,,,,,,,,,,,,,,,,,,,,,,,,,,,,,,,
,localizer,,html-keyboard-response,357,239254,0.0-2.0-148.0-0.0,333,53286,f,NaN,,,,null,NaN,146,,Stimuli/Experimental_stims/localizer/outdoor_scenes/keith-hardy-UVyavSwslOg-unsplash.jpg,,238842,1,outdoor_scenes,,0,1,0,400,193900,412,197809,,,,,,,,,,,,,,,,,,,,,,,,,,,,,,,,,,,,,,,,,,,,,,,,,,,,,
,iti_localizer,,html-keyboard-response,358,239571,0.0-2.0-148.0-1.0,333,53286,f,null,,,,null,,146,,,,239254,1,,,,,,300,194300,317,198221,300,,,,,,,,,,,,,,,,,,,,,,,,,,,,,,,,,,,,,,,,,,,,,,,,,,,,
,localizer,,html-keyboard-response,359,239982,0.0-2.0-149.0-0.0,333,53286,f,NaN,,,,null,NaN,147,,Stimuli/Experimental_stims/localizer/outdoor_scenes/simon-berger-UqCnDyc_3vA-unsplash.jpg,,239571,1,outdoor_scenes,,0,1,0,400,194600,411,198538,,,,,,,,,,,,,,,,,,,,,,,,,,,,,,,,,,,,,,,,,,,,,,,,,,,,,
,iti_localizer,,html-keyboard-response,360,240295,0.0-2.0-149.0-1.0,333,53286,f,null,,,,null,,147,,,,239982,1,,,,,,300,195000,313,198949,300,,,,,,,,,,,,,,,,,,,,,,,,,,,,,,,,,,,,,,,,,,,,,,,,,,,,
,localizer,,html-keyboard-response,361,240707,0.0-2.0-150.0-0.0,333,53286,f,NaN,,,,null,NaN,148,,Stimuli/Experimental_stims/localizer/outdoor_scenes/quentin-zwzeorQPepo-unsplash.jpg,,240295,1,outdoor_scenes,,1,1,0,400,195300,412,199262,,,,,,,,,,,,,,,,,,,,,,,,,,,,,,,,,,,,,,,,,,,,,,,,,,,,,
,iti_localizer,,html-keyboard-response,362,241016,0.0-2.0-150.0-1.0,333,53286,f,null,,,,null,,148,,,,240707,1,,,,,,300,195700,309,199674,300,,,,,,,,,,,,,,,,,,,,,,,,,,,,,,,,,,,,,,,,,,,,,,,,,,,,
,localizer,,html-keyboard-response,363,241430,0.0-2.0-151.0-0.0,333,53286,f,NaN,,,,null,NaN,149,,Stimuli/Experimental_stims/localizer/outdoor_scenes/derek-mack-CcRZ4k3c6gA-unsplash.jpg,,241016,1,outdoor_scenes,,0,1,0,400,196000,414,199983,,,,,,,,,,,,,,,,,,,,,,,,,,,,,,,,,,,,,,,,,,,,,,,,,,,,,
,iti_localizer,,html-keyboard-response,364,241742,0.0-2.0-151.0-1.0,333,53286,f,null,,,,null,,149,,,,241430,1,,,,,,300,196400,312,200397,300,,,,,,,,,,,,,,,,,,,,,,,,,,,,,,,,,,,,,,,,,,,,,,,,,,,,
,localizer,,html-keyboard-response,365,242151,0.0-2.0-152.0-0.0,333,53286,f,NaN,,,,null,NaN,150,,Stimuli/Experimental_stims/localizer/outdoor_scenes/solotravelgoals-7kLufxYoqWk-unsplash.jpg,,241742,1,outdoor_scenes,,0,1,0,400,196700,409,200709,,,,,,,,,,,,,,,,,,,,,,,,,,,,,,,,,,,,,,,,,,,,,,,,,,,,,
,iti_localizer,,html-keyboard-response,366,242464,0.0-2.0-152.0-1.0,333,53286,f,null,,,,null,,150,,,,242151,1,,,,,,300,197100,313,201118,300,,,,,,,,,,,,,,,,,,,,,,,,,,,,,,,,,,,,,,,,,,,,,,,,,,,,
,localizer,,html-keyboard-response,367,242882,0.0-2.0-153.0-0.0,333,53286,f,NaN,,,,null,NaN,151,,Stimuli/Experimental_stims/localizer/outdoor_scenes/ales-krivec-hsX9KpLLsIE-unsplash.jpg,,242464,1,outdoor_scenes,,0,1,0,400,197400,418,201431,,,,,,,,,,,,,,,,,,,,,,,,,,,,,,,,,,,,,,,,,,,,,,,,,,,,,
,iti_localizer,,html-keyboard-response,368,243191,0.0-2.0-153.0-1.0,333,53286,f,null,,,,null,,151,,,,242882,1,,,,,,300,197800,309,201849,300,,,,,,,,,,,,,,,,,,,,,,,,,,,,,,,,,,,,,,,,,,,,,,,,,,,,
,localizer,,html-keyboard-response,369,243601,0.0-2.0-154.0-0.0,333,53286,f,NaN,,,,null,NaN,152,,Stimuli/Experimental_stims/localizer/outdoor_scenes/kalen-emsley-_LuLiJc1cdo-unsplash.jpg,,243191,1,outdoor_scenes,,0,1,0,400,198100,410,202158,,,,,,,,,,,,,,,,,,,,,,,,,,,,,,,,,,,,,,,,,,,,,,,,,,,,,
,iti_localizer,,html-keyboard-response,370,243910,0.0-2.0-154.0-1.0,333,53286,f,null,,,,null,,152,,,,243601,1,,,,,,300,198500,309,202568,300,,,,,,,,,,,,,,,,,,,,,,,,,,,,,,,,,,,,,,,,,,,,,,,,,,,,
,localizer,,html-keyboard-response,371,244321,0.0-2.0-155.0-0.0,333,53286,f,NaN,,,,null,NaN,153,,Stimuli/Experimental_stims/localizer/outdoor_scenes/tim-swaan-eOpewngf68w-unsplash (1).jpg,,243910,1,outdoor_scenes,,0,1,0,400,198800,411,202877,,,,,,,,,,,,,,,,,,,,,,,,,,,,,,,,,,,,,,,,,,,,,,,,,,,,,
,iti_localizer,,html-keyboard-response,372,244630,0.0-2.0-155.0-1.0,333,53286,f,null,,,,null,,153,,,,244321,1,,,,,,300,199200,309,203288,300,,,,,,,,,,,,,,,,,,,,,,,,,,,,,,,,,,,,,,,,,,,,,,,,,,,,
,localizer,,html-keyboard-response,373,245037,0.0-2.0-156.0-0.0,333,53286,f,NaN,,,,null,NaN,154,,Stimuli/Experimental_stims/localizer/outdoor_scenes/jack-millard-zjyP-UYI-ko-unsplash.jpg,,244630,1,outdoor_scenes,,0,1,0,400,199500,407,203597,,,,,,,,,,,,,,,,,,,,,,,,,,,,,,,,,,,,,,,,,,,,,,,,,,,,,
,iti_localizer,,html-keyboard-response,374,245354,0.0-2.0-156.0-1.0,333,53286,f,null,,,,null,,154,,,,245037,1,,,,,,300,199900,317,204004,300,,,,,,,,,,,,,,,,,,,,,,,,,,,,,,,,,,,,,,,,,,,,,,,,,,,,
,localizer,,html-keyboard-response,375,245765,0.0-2.0-157.0-0.0,333,53286,f,NaN,,,,null,NaN,155,,Stimuli/Experimental_stims/localizer/outdoor_scenes/sebastian-unrau-v4e3JI7DDHI-unsplash.jpg,,245354,1,outdoor_scenes,,0,1,0,400,200200,411,204321,,,,,,,,,,,,,,,,,,,,,,,,,,,,,,,,,,,,,,,,,,,,,,,,,,,,,
,iti_localizer,,html-keyboard-response,376,246079,0.0-2.0-157.0-1.0,333,53286,f,null,,,,null,,155,,,,245765,1,,,,,,300,200600,314,204732,300,,,,,,,,,,,,,,,,,,,,,,,,,,,,,,,,,,,,,,,,,,,,,,,,,,,,
,localizer,,html-keyboard-response,377,246488,0.0-2.0-158.0-0.0,333,53286,f,NaN,,,,null,NaN,156,,Stimuli/Experimental_stims/localizer/outdoor_scenes/luca-micheli-ruWkmt3nU58-unsplash.jpg,,246079,1,outdoor_scenes,,0,1,0,400,200900,409,205046,,,,,,,,,,,,,,,,,,,,,,,,,,,,,,,,,,,,,,,,,,,,,,,,,,,,,
,iti_localizer,,html-keyboard-response,378,246800,0.0-2.0-158.0-1.0,333,53286,f,null,,,,null,,156,,,,246488,1,,,,,,300,201300,312,205455,300,,,,,,,,,,,,,,,,,,,,,,,,,,,,,,,,,,,,,,,,,,,,,,,,,,,,
,localizer,,html-keyboard-response,379,247218,0.0-2.0-159.0-0.0,333,53286,f,NaN,,,,null,NaN,157,,Stimuli/Experimental_stims/localizer/outdoor_scenes/cosmic-timetraveler-pYyOZ8q7AII-unsplash.jpg,,246800,1,outdoor_scenes,,0,1,0,400,201600,418,205767,,,,,,,,,,,,,,,,,,,,,,,,,,,,,,,,,,,,,,,,,,,,,,,,,,,,,
,iti_localizer,,html-keyboard-response,380,247528,0.0-2.0-159.0-1.0,333,53286,f,null,,,,null,,157,,,,247218,1,,,,,,300,202000,310,206185,300,,,,,,,,,,,,,,,,,,,,,,,,,,,,,,,,,,,,,,,,,,,,,,,,,,,,
,localizer,,html-keyboard-response,381,247943,0.0-2.0-160.0-0.0,333,53286,f,NaN,,,,null,NaN,158,,Stimuli/Experimental_stims/localizer/outdoor_scenes/chris-holgersson-zshyCr6HGw0-unsplash.jpg,,247528,1,outdoor_scenes,,0,1,0,400,202300,415,206495,,,,,,,,,,,,,,,,,,,,,,,,,,,,,,,,,,,,,,,,,,,,,,,,,,,,,
,iti_localizer,,html-keyboard-response,382,248259,0.0-2.0-160.0-1.0,333,53286,f,null,,,,null,,158,,,,247943,1,,,,,,300,202700,316,206910,300,,,,,,,,,,,,,,,,,,,,,,,,,,,,,,,,,,,,,,,,,,,,,,,,,,,,
,localizer,,html-keyboard-response,383,248671,0.0-2.0-161.0-0.0,333,53286,f,NaN,,,,null,NaN,159,,Stimuli/Experimental_stims/localizer/outdoor_scenes/daniel-roe-lpjb_UMOyx8-unsplash.jpg,,248259,1,outdoor_scenes,,1,1,0,400,203000,412,207226,,,,,,,,,,,,,,,,,,,,,,,,,,,,,,,,,,,,,,,,,,,,,,,,,,,,,
,iti_localizer,,html-keyboard-response,384,248985,0.0-2.0-161.0-1.0,333,53286,f,null,,,,null,,159,,,,248671,1,,,,,,300,203400,314,207638,300,,,,,,,,,,,,,,,,,,,,,,,,,,,,,,,,,,,,,,,,,,,,,,,,,,,,
,localizer,,html-keyboard-response,385,249403,0.0-2.0-162.0-0.0,333,53286,f,NaN,,,,null,NaN,160,,Stimuli/Experimental_stims/localizer/outdoor_scenes/michael-martinelli-mFbrMEVKCkc-unsplash.jpg,,248985,1,outdoor_scenes,,0,1,0,400,203700,418,207952,,,,,,,,,,,,,,,,,,,,,,,,,,,,,,,,,,,,,,,,,,,,,,,,,,,,,
,iti_localizer,,html-keyboard-response,386,249715,0.0-2.0-162.0-1.0,333,53286,f,null,,,,null,,160,,,,249403,1,,,,,,300,204100,312,208370,300,,,,,,,,,,,,,,,,,,,,,,,,,,,,,,,,,,,,,,,,,,,,,,,,,,,,
,localizer,,html-keyboard-response,387,250129,0.0-2.0-163.0-0.0,333,53286,f,NaN,,,,null,NaN,161,,Stimuli/Experimental_stims/localizer/outdoor_scenes/damian-patkowski-T-LfvX-7IVg-unsplash.jpg,,249715,1,outdoor_scenes,,0,1,0,400,204400,414,208682,,,,,,,,,,,,,,,,,,,,,,,,,,,,,,,,,,,,,,,,,,,,,,,,,,,,,
,iti_localizer,,html-keyboard-response,388,250439,0.0-2.0-163.0-1.0,333,53286,f,null,,,,null,,161,,,,250129,1,,,,,,300,204800,310,209096,300,,,,,,,,,,,,,,,,,,,,,,,,,,,,,,,,,,,,,,,,,,,,,,,,,,,,
,localizer,,html-keyboard-response,389,250849,0.0-2.0-164.0-0.0,333,53286,f,NaN,,,,null,NaN,162,,Stimuli/Experimental_stims/localizer/outdoor_scenes/wai-siew-mTFyV8oNDzU-unsplash.jpg,,250439,1,outdoor_scenes,,0,1,0,400,205100,410,209406,,,,,,,,,,,,,,,,,,,,,,,,,,,,,,,,,,,,,,,,,,,,,,,,,,,,,
,iti_localizer,,html-keyboard-response,390,251163,0.0-2.0-164.0-1.0,333,53286,f,null,,,,null,,162,,,,250849,1,,,,,,300,205500,314,209816,300,,,,,,,,,,,,,,,,,,,,,,,,,,,,,,,,,,,,,,,,,,,,,,,,,,,,
,localizer,,html-keyboard-response,391,251577,0.0-2.0-165.0-0.0,333,53286,f,NaN,,,,null,NaN,163,,Stimuli/Experimental_stims/localizer/outdoor_scenes/redd-f-Lm5rkxzgiFQ-unsplash.jpg,,251163,1,outdoor_scenes,,0,1,0,400,205800,414,210130,,,,,,,,,,,,,,,,,,,,,,,,,,,,,,,,,,,,,,,,,,,,,,,,,,,,,
,iti_localizer,,html-keyboard-response,392,251891,0.0-2.0-165.0-1.0,333,53286,f,null,,,,null,,163,,,,251577,1,,,,,,300,206200,314,210544,300,,,,,,,,,,,,,,,,,,,,,,,,,,,,,,,,,,,,,,,,,,,,,,,,,,,,
,localizer,,html-keyboard-response,393,252306,0.0-2.0-166.0-0.0,333,53286,f,NaN,,,,null,NaN,164,,Stimuli/Experimental_stims/localizer/outdoor_scenes/keith-hardy-PP8Escz15d8-unsplash.jpg,,251891,1,outdoor_scenes,,0,1,0,400,206500,415,210858,,,,,,,,,,,,,,,,,,,,,,,,,,,,,,,,,,,,,,,,,,,,,,,,,,,,,
,iti_localizer,,html-keyboard-response,394,252615,0.0-2.0-166.0-1.0,333,53286,f,null,,,,null,,164,,,,252306,1,,,,,,300,206900,309,211273,300,,,,,,,,,,,,,,,,,,,,,,,,,,,,,,,,,,,,,,,,,,,,,,,,,,,,
,localizer,,html-keyboard-response,395,253025,0.0-2.0-167.0-0.0,333,53286,f,NaN,,,,null,NaN,165,,Stimuli/Experimental_stims/localizer/outdoor_scenes/antoine-beauvillain-qrPqGP-SG8w-unsplash.jpg,,252615,1,outdoor_scenes,,0,1,0,400,207200,410,211582,,,,,,,,,,,,,,,,,,,,,,,,,,,,,,,,,,,,,,,,,,,,,,,,,,,,,
,iti_localizer,,html-keyboard-response,396,267043,0.0-2.0-167.0-1.0,333,53286,f,null,,,,null,,165,,,,253025,1,,,,,,14000,207600,14018,211992,14000,,,,,,,,,,,,,,,,,,,,,,,,,,,,,,,,,,,,,,,,,,,,,,,,,,,,
,localizer,,html-keyboard-response,397,267458,0.0-2.0-168.0-0.0,333,53286,f,NaN,,,,null,NaN,166,,Stimuli/Experimental_stims/localizer/objects/nordwood-themes-nDd3dIkkOLo-unsplash.jpg,,267043,1,objects,,0,1,0,400,221600,415,226010,,,,,,,,,,,,,,,,,,,,,,,,,,,,,,,,,,,,,,,,,,,,,,,,,,,,,
,iti_localizer,,html-keyboard-response,398,267770,0.0-2.0-168.0-1.0,333,53286,f,null,,,,null,,166,,,,267458,1,,,,,,300,222000,312,226425,300,,,,,,,,,,,,,,,,,,,,,,,,,,,,,,,,,,,,,,,,,,,,,,,,,,,,
,localizer,,html-keyboard-response,399,268187,0.0-2.0-169.0-0.0,333,53286,f,NaN,,,,null,NaN,167,,Stimuli/Experimental_stims/localizer/objects/alex-lvrs-2zDw14yCYqk-unsplash.jpg,,267770,1,objects,,0,1,0,400,222300,417,226737,,,,,,,,,,,,,,,,,,,,,,,,,,,,,,,,,,,,,,,,,,,,,,,,,,,,,
,iti_localizer,,html-keyboard-response,400,268498,0.0-2.0-169.0-1.0,333,53286,f,null,,,,null,,167,,,,268187,1,,,,,,300,222700,311,227154,300,,,,,,,,,,,,,,,,,,,,,,,,,,,,,,,,,,,,,,,,,,,,,,,,,,,,
,localizer,,html-keyboard-response,401,268912,0.0-2.0-170.0-0.0,333,53286,f,NaN,,,,null,NaN,168,,Stimuli/Experimental_stims/localizer/objects/mulyadi-tWp0VSlSdMI-unsplash.jpg,,268498,1,objects,,0,1,0,400,223000,414,227465,,,,,,,,,,,,,,,,,,,,,,,,,,,,,,,,,,,,,,,,,,,,,,,,,,,,,
,iti_localizer,,html-keyboard-response,402,269225,0.0-2.0-170.0-1.0,333,53286,f,null,,,,null,,168,,,,268912,1,,,,,,300,223400,313,227879,300,,,,,,,,,,,,,,,,,,,,,,,,,,,,,,,,,,,,,,,,,,,,,,,,,,,,
,localizer,,html-keyboard-response,403,269643,0.0-2.0-171.0-0.0,333,53286,f,NaN,,,,null,NaN,169,,Stimuli/Experimental_stims/localizer/objects/yossy-made-yulian-WaEqwDSIeTY-unsplash.jpg,,269225,1,objects,,0,1,0,400,223700,418,228192,,,,,,,,,,,,,,,,,,,,,,,,,,,,,,,,,,,,,,,,,,,,,,,,,,,,,
,iti_localizer,,html-keyboard-response,404,269953,0.0-2.0-171.0-1.0,333,53286,f,null,,,,null,,169,,,,269643,1,,,,,,300,224100,310,228610,300,,,,,,,,,,,,,,,,,,,,,,,,,,,,,,,,,,,,,,,,,,,,,,,,,,,,
,localizer,,html-keyboard-response,405,270369,0.0-2.0-172.0-0.0,333,53286,f,NaN,,,,null,NaN,170,,Stimuli/Experimental_stims/localizer/objects/engin-akyurt-bbbKzTmY2Gg-unsplash.jpg,,269953,1,objects,,0,1,0,400,224400,416,228920,,,,,,,,,,,,,,,,,,,,,,,,,,,,,,,,,,,,,,,,,,,,,,,,,,,,,
,iti_localizer,,html-keyboard-response,406,270682,0.0-2.0-172.0-1.0,333,53286,f,null,,,,null,,170,,,,270369,1,,,,,,300,224800,313,229336,300,,,,,,,,,,,,,,,,,,,,,,,,,,,,,,,,,,,,,,,,,,,,,,,,,,,,
,localizer,,html-keyboard-response,407,271088,0.0-2.0-173.0-0.0,333,53286,f,NaN,,,,null,NaN,171,,Stimuli/Experimental_stims/localizer/objects/mockup-graphics-aUkYaG12Dgs-unsplash.jpg,,270682,1,objects,,0,1,0,400,225100,406,229649,,,,,,,,,,,,,,,,,,,,,,,,,,,,,,,,,,,,,,,,,,,,,,,,,,,,,
,iti_localizer,,html-keyboard-response,408,271401,0.0-2.0-173.0-1.0,333,53286,f,null,,,,null,,171,,,,271088,1,,,,,,300,225500,313,230055,300,,,,,,,,,,,,,,,,,,,,,,,,,,,,,,,,,,,,,,,,,,,,,,,,,,,,
,localizer,,html-keyboard-response,409,271818,0.0-2.0-174.0-0.0,333,53286,f,NaN,,,,null,NaN,172,,Stimuli/Experimental_stims/localizer/objects/quino-al-4SNUcHPiC8c-unsplash.jpg,,271401,1,objects,,1,1,0,400,225800,417,230368,,,,,,,,,,,,,,,,,,,,,,,,,,,,,,,,,,,,,,,,,,,,,,,,,,,,,
,iti_localizer,,html-keyboard-response,410,272127,0.0-2.0-174.0-1.0,333,53286,f,null,,,,null,,172,,,,271818,1,,,,,,300,226200,309,230785,300,,,,,,,,,,,,,,,,,,,,,,,,,,,,,,,,,,,,,,,,,,,,,,,,,,,,
,localizer,,html-keyboard-response,411,272537,0.0-2.0-175.0-0.0,333,53286,f,NaN,,,,null,NaN,173,,Stimuli/Experimental_stims/localizer/objects/ian-talmacs-ugqU0a4P18U-unsplash.jpg,,272127,1,objects,,0,1,0,400,226500,410,231094,,,,,,,,,,,,,,,,,,,,,,,,,,,,,,,,,,,,,,,,,,,,,,,,,,,,,
,iti_localizer,,html-keyboard-response,412,272848,0.0-2.0-175.0-1.0,333,53286,f,null,,,,null,,173,,,,272537,1,,,,,,300,226900,311,231504,300,,,,,,,,,,,,,,,,,,,,,,,,,,,,,,,,,,,,,,,,,,,,,,,,,,,,
,localizer,,html-keyboard-response,413,273261,0.0-2.0-176.0-0.0,333,53286,f,NaN,,,,null,NaN,174,,Stimuli/Experimental_stims/localizer/objects/nicolas-hippert-kfr_eSrR08M-unsplash.jpg,,272848,1,objects,,0,1,0,400,227200,413,231815,,,,,,,,,,,,,,,,,,,,,,,,,,,,,,,,,,,,,,,,,,,,,,,,,,,,,
,iti_localizer,,html-keyboard-response,414,273576,0.0-2.0-176.0-1.0,333,53286,f,null,,,,null,,174,,,,273261,1,,,,,,300,227600,315,232228,300,,,,,,,,,,,,,,,,,,,,,,,,,,,,,,,,,,,,,,,,,,,,,,,,,,,,
,localizer,,html-keyboard-response,415,273982,0.0-2.0-177.0-0.0,333,53286,f,NaN,,,,null,NaN,175,,Stimuli/Experimental_stims/localizer/objects/jiangxulei1990-eIzzzwtkBjU-unsplash.jpg,,273576,1,objects,,0,1,0,400,227900,406,232543,,,,,,,,,,,,,,,,,,,,,,,,,,,,,,,,,,,,,,,,,,,,,,,,,,,,,
,iti_localizer,,html-keyboard-response,416,274293,0.0-2.0-177.0-1.0,333,53286,f,null,,,,null,,175,,,,273982,1,,,,,,300,228300,311,232949,300,,,,,,,,,,,,,,,,,,,,,,,,,,,,,,,,,,,,,,,,,,,,,,,,,,,,
,localizer,,html-keyboard-response,417,274702,0.0-2.0-178.0-0.0,333,53286,f,NaN,,,,null,NaN,176,,Stimuli/Experimental_stims/localizer/objects/miti-MZPdB1DU4a4-unsplash.jpg,,274293,1,objects,,0,1,0,400,228600,409,233260,,,,,,,,,,,,,,,,,,,,,,,,,,,,,,,,,,,,,,,,,,,,,,,,,,,,,
,iti_localizer,,html-keyboard-response,418,275015,0.0-2.0-178.0-1.0,333,53286,f,null,,,,null,,176,,,,274702,1,,,,,,300,229000,313,233669,300,,,,,,,,,,,,,,,,,,,,,,,,,,,,,,,,,,,,,,,,,,,,,,,,,,,,
,localizer,,html-keyboard-response,419,275425,0.0-2.0-179.0-0.0,333,53286,f,NaN,,,,null,NaN,177,,Stimuli/Experimental_stims/localizer/objects/mockup-graphics-v_a3DWpOFc0-unsplash.jpg,,275015,1,objects,,0,1,0,400,229300,410,233982,,,,,,,,,,,,,,,,,,,,,,,,,,,,,,,,,,,,,,,,,,,,,,,,,,,,,
,iti_localizer,,html-keyboard-response,420,275738,0.0-2.0-179.0-1.0,333,53286,f,null,,,,null,,177,,,,275425,1,,,,,,300,229700,313,234392,300,,,,,,,,,,,,,,,,,,,,,,,,,,,,,,,,,,,,,,,,,,,,,,,,,,,,
,localizer,,html-keyboard-response,421,276153,0.0-2.0-180.0-0.0,333,53286,f,NaN,,,,null,NaN,178,,Stimuli/Experimental_stims/localizer/objects/oriento-maVIpNNtmlQ-unsplash.jpg,,275738,1,objects,,0,1,0,400,230000,415,234705,,,,,,,,,,,,,,,,,,,,,,,,,,,,,,,,,,,,,,,,,,,,,,,,,,,,,
,iti_localizer,,html-keyboard-response,422,276463,0.0-2.0-180.0-1.0,333,53286,f,null,,,,null,,178,,,,276153,1,,,,,,300,230400,310,235120,300,,,,,,,,,,,,,,,,,,,,,,,,,,,,,,,,,,,,,,,,,,,,,,,,,,,,
,localizer,,html-keyboard-response,423,276875,0.0-2.0-181.0-0.0,333,53286,f,NaN,,,,null,NaN,179,,Stimuli/Experimental_stims/localizer/objects/annie-spratt-fbAnIjhrOL4-unsplash.jpg,,276463,1,objects,,0,1,0,400,230700,412,235430,,,,,,,,,,,,,,,,,,,,,,,,,,,,,,,,,,,,,,,,,,,,,,,,,,,,,
