"success","ttype","start_time","trial_type","trial_index","time_elapsed","internal_node_id","age","PID","gender","rt","responses","view_history","repeat_instructions","key_press","response","index","stimulus_index","path"
"true","full_screen","d08112023hr1410","fullscreen","0","2352","0.0-0.0-0.0","11","78802","1","","","","","","","","",""
"","get_id","","survey-text","1","5059","0.0-0.0-1.0","11","78802","1","2702","{""Q0"":""11"",""Q1"":""1""}","","","","","","",""
"","ratings_instructions","","instructions","2","6159","0.0-1.0-0.0-0.0","11","78802","1","1056","","[{""page_index"":0,""viewing_time"":879},{""page_index"":1,""viewing_time"":177}]","","","","","",""
"","rating_comprehension_check","","survey-multi-choice","3","9202","0.0-1.0-0.0-1.0","11","78802","1","3038","{""Q0"":""True"",""Q1"":""Mouse""}","","0","","","","",""
"","","","html-keyboard-response","4","9759","0.0-1.0-1.0","11","78802","1","553","","","","68","","","",""
"","rating","","html-slider-response","5","11173","0.0-1.0-2.0","11","78802","1","1410","","","","","50","0","11","Stimuli/Experimental_stims/outdoor_scenes/stephen-leonardi-gyIRjKPXupE-unsplash.jpg"
"","rating","","html-slider-response","6","11318","0.0-1.0-3.0","11","78802","1","140","","","","","50","1","37","Stimuli/Experimental_stims/objects/alexander-andrews-VLGWE_SumrA-unsplash.jpg"
"","rating","","html-slider-response","7","11471","0.0-1.0-4.0","11","78802","1","148","","","","","50","2","43","Stimuli/Experimental_stims/objects/jonathan-greenaway-Y4hGgeiFn3s-unsplash.jpg"
"","rating","","html-slider-response","8","11696","0.0-1.0-5.0","11","78802","1","221","","","","","50","3","45","Stimuli/Experimental_stims/objects/leohoho-rngTKHXumy0-unsplash.jpg"
"","rating","","html-slider-response","9","11871","0.0-1.0-6.0","11","78802","1","169","","","","","50","4","1","Stimuli/Experimental_stims/outdoor_scenes/ashim-d-silva-S2Q5mdOrrVc-unsplash.jpg"
"","rating","","html-slider-response","10","12023","0.0-1.0-7.0","11","78802","1","147","","","","","50","5","4","Stimuli/Experimental_stims/outdoor_scenes/jarrett-kow-1ZOyYPOBn7I-unsplash.jpg"
"","rating","","html-slider-response","11","12186","0.0-1.0-8.0","11","78802","1","158","","","","","50","6","35","Stimuli/Experimental_stims/body_parts/wc-so-KH4AAPjb-tI-unsplash.jpg"
"","rating","","html-slider-response","12","12342","0.0-1.0-9.0","11","78802","1","150","","","","","50","7","24","Stimuli/Experimental_stims/body_parts/clay-banks-LjqARJaJotc-unsplash.jpg"
"","rating","","html-slider-response","13","12492","0.0-1.0-10.0","11","78802","1","144","","","","","50","8","6","Stimuli/Experimental_stims/outdoor_scenes/meng-ji-8BH_M-53CyA-unsplash.jpg"
"","rating","","html-slider-response","14","12664","0.0-1.0-11.0","11","78802","1","166","","","","","50","9","3","Stimuli/Experimental_stims/outdoor_scenes/henry-be-NLF6hTe4PAg-unsplash.jpg"
"","rating","","html-slider-response","15","12834","0.0-1.0-12.0","11","78802","1","165","","","","","50","10","5","Stimuli/Experimental_stims/outdoor_scenes/jeff-king-bJHWJeiHfHc-unsplash.jpg"
"","rating","","html-slider-response","16","12989","0.0-1.0-13.0","11","78802","1","150","","","","","50","11","25","Stimuli/Experimental_stims/body_parts/engin-akyurt-Q2rfH3GW39c-unsplash.jpg"
"","rating","","html-slider-response","17","13145","0.0-1.0-14.0","11","78802","1","150","","","","","50","12","21","Stimuli/Experimental_stims/faces/leilani-angel-K84vnnzxmTQ-unsplash.jpg"
"","rating","","html-slider-response","18","13308","0.0-1.0-15.0","11","78802","1","159","","","","","50","13","40","Stimuli/Experimental_stims/objects/fabian-blank-pElSkGRA2NU-unsplash.jpg"
"","rating","","html-slider-response","19","13479","0.0-1.0-16.0","11","78802","1","166","","","","","50","14","46","Stimuli/Experimental_stims/objects/mockup-graphics-PNsj6RiHAF4-unsplash.jpg"
"","rating","","html-slider-response","20","13644","0.0-1.0-17.0","11","78802","1","160","","","","","50","15","34","Stimuli/Experimental_stims/body_parts/wagner-santos-mBWMvIuVnso-unsplash.jpg"
"","rating","","html-slider-response","21","13811","0.0-1.0-18.0","11","78802","1","162","","","","","50","16","32","Stimuli/Experimental_stims/body_parts/towfiqu-barbhuiya-3AsiVDsZnHg-unsplash.jpg"
"","rating","","html-slider-response","22","13988","0.0-1.0-19.0","11","78802","1","173","","","","","50","17","18","Stimuli/Experimental_stims/faces/jessica-radanavong-mrYkTuAesKE-unsplash.jpg"
"","rating","","html-slider-response","23","14149","0.0-1.0-20.0","11","78802","1","157","","","","","50","18","22","Stimuli/Experimental_stims/faces/ravi-patel-VMGAbeeJTKo-unsplash.jpg"
"","rating","","html-slider-response","24","14310","0.0-1.0-21.0","11","78802","1","155","","","","","50","19","33","Stimuli/Experimental_stims/body_parts/tucker-good-36skLT5jZcc-unsplash.jpg"
"","rating","","html-slider-response","25","14479","0.0-1.0-22.0","11","78802","1","163","","","","","50","20","47","Stimuli/Experimental_stims/objects/ronaldo-arthur-vidal-Cdz_lvnl37k-unsplash.jpg"
"","rating","","html-slider-response","26","14640","0.0-1.0-23.0","11","78802","1","156","","","","","50","21","20","Stimuli/Experimental_stims/faces/justin-chen-J7Cf1Gch49E-unsplash.jpg"
"","rating","","html-slider-response","27","14824","0.0-1.0-24.0","11","78802","1","179","","","","","50","22","19","Stimuli/Experimental_stims/faces/joel-mott-LaK153ghdig-unsplash.jpg"
"","rating","","html-slider-response","28","15000","0.0-1.0-25.0","11","78802","1","172","","","","","50","23","42","Stimuli/Experimental_stims/objects/jess-bailey-nOeVi8DsN8U-unsplash.jpg"
"","rating","","html-slider-response","29","15169","0.0-1.0-26.0","11","78802","1","166","","","","","50","24","26","Stimuli/Experimental_stims/body_parts/engin-akyurt-x_3gyC42btc-unsplash.jpg"
"","rating","","html-slider-response","30","15333","0.0-1.0-27.0","11","78802","1","160","","","","","50","25","36","Stimuli/Experimental_stims/objects/alexander-andrews-JYGnB9gTCls-unsplash.jpg"
"","rating","","html-slider-response","31","15509","0.0-1.0-28.0","11","78802","1","172","","","","","50","26","41","Stimuli/Experimental_stims/objects/insung-yoon-w2JtIQQXoRU-unsplash.jpg"
"","rating","","html-slider-response","32","15678","0.0-1.0-29.0","11","78802","1","164","","","","","50","27","0","Stimuli/Experimental_stims/outdoor_scenes/aleksandra-boguslawska-MS7KD9Ti7FQ-unsplash.jpg"
"","rating","","html-slider-response","33","15856","0.0-1.0-30.0","11","78802","1","176","","","","","50","28","29","Stimuli/Experimental_stims/body_parts/manuel-schinner-ZwjFuJ7ebpk-unsplash.jpg"
"","rating","","html-slider-response","34","16036","0.0-1.0-31.0","11","78802","1","176","","","","","50","29","39","Stimuli/Experimental_stims/objects/charlesdeluvio-1-nx1QR5dTE-unsplash.jpg"
"","rating","","html-slider-response","35","16222","0.0-1.0-32.0","11","78802","1","182","","","","","50","30","27","Stimuli/Experimental_stims/body_parts/heike-mintel-i_Gns0ELnLw-unsplash.jpg"
"","rating","","html-slider-response","36","16408","0.0-1.0-33.0","11","78802","1","182","","","","","50","31","16","Stimuli/Experimental_stims/faces/freddy-kearney-o-ioeoATbIM-unsplash.jpg"
"","rating","","html-slider-response","37","16594","0.0-1.0-34.0","11","78802","1","182","","","","","50","32","8","Stimuli/Experimental_stims/outdoor_scenes/samsommer-vddccTqwal8-unsplash.jpg"
"","rating","","html-slider-response","38","16813","0.0-1.0-35.0","11","78802","1","216","","","","","50","33","38","Stimuli/Experimental_stims/objects/art-lasovsky-8XddFc6NkBY-unsplash.jpg"
"","rating","","html-slider-response","39","17048","0.0-1.0-36.0","11","78802","1","231","","","","","50","34","30","Stimuli/Experimental_stims/body_parts/mika-korhonen-Xodzxosar18-unsplash.jpg"
"","rating","","html-slider-response","40","17267","0.0-1.0-37.0","11","78802","1","216","","","","","50","35","23","Stimuli/Experimental_stims/faces/rikonavt-HQjfrvdTfak-unsplash.jpg"
"","rating","","html-slider-response","41","17452","0.0-1.0-38.0","11","78802","1","183","","","","","50","36","10","Stimuli/Experimental_stims/outdoor_scenes/shannon-kunkle-dM8INmkyDas-unsplash.jpg"
"","rating","","html-slider-response","42","17638","0.0-1.0-39.0","11","78802","1","183","","","","","50","37","12","Stimuli/Experimental_stims/faces/aiony-haust-jmATI5Q_YgY-unsplash.jpg"
"","rating","","html-slider-response","43","17874","0.0-1.0-40.0","11","78802","1","232","","","","","50","38","31","Stimuli/Experimental_stims/body_parts/sincerely-media-VN6DbKajo5s-unsplash.jpg"
"","rating","","html-slider-response","44","18068","0.0-1.0-41.0","11","78802","1","191","","","","","50","39","7","Stimuli/Experimental_stims/outdoor_scenes/petr-vysohlid-9fqwGqGLUxc-unsplash.jpg"
"","rating","","html-slider-response","45","18271","0.0-1.0-42.0","11","78802","1","199","","","","","50","40","15","Stimuli/Experimental_stims/faces/erik-lucatero-d2MSDujJl2g-unsplash.jpg"
"","rating","","html-slider-response","46","18513","0.0-1.0-43.0","11","78802","1","238","","","","","50","41","28","Stimuli/Experimental_stims/body_parts/ira-vishnevskaya-8DQAvdCby1I-unsplash.jpg"
"","rating","","html-slider-response","47","18724","0.0-1.0-44.0","11","78802","1","207","","","","","50","42","9","Stimuli/Experimental_stims/outdoor_scenes/sergey-pesterev-y-b_FOmJXdg-unsplash.jpg"
"","rating","","html-slider-response","48","19096","0.0-1.0-45.0","11","78802","1","370","","","","","50","43","2","Stimuli/Experimental_stims/outdoor_scenes/bruno-van-der-kraan-qez8mNJ3ilU-unsplash.jpg"
"","rating","","html-slider-response","49","19331","0.0-1.0-46.0","11","78802","1","231","","","","","50","44","17","Stimuli/Experimental_stims/faces/good-faces-xmSWVeGEnJw-unsplash.jpg"
"","rating","","html-slider-response","50","19582","0.0-1.0-47.0","11","78802","1","247","","","","","50","45","44","Stimuli/Experimental_stims/objects/kuiye-chen-NuOGFo4PudE-unsplash.jpg"
"","rating","","html-slider-response","51","19777","0.0-1.0-48.0","11","78802","1","191","","","","","50","46","13","Stimuli/Experimental_stims/faces/daniel-rigdon-dXmXKPP2L4E-unsplash.jpg"
"","rating","","html-slider-response","52","20045","0.0-1.0-49.0","11","78802","1","263","","","","","50","47","14","Stimuli/Experimental_stims/faces/david-siglin-UuW4psOb388-unsplash.jpg"
