"success","ttype","start_time","trial_type","trial_index","time_elapsed","internal_node_id","age","PID","gender","rt","responses","view_history","repeat_instructions","key_press","response","index","stimulus_index","path","run","task","isi","is_odd_ball","no_response","acc","duration","onset"
"true","full_screen","d06282023hr1557","fullscreen","0","2313","0.0-0.0-0.0","1","98260","","","","","","","","","","","","","","","","","",""
"","get_id","","survey-text","1","6539","0.0-0.0-1.0","1","98260","","4221","{""Q0"":""1"",""Q1"":""1""}","","","","","","","","","","","","","","",""
"","ratings_instructions","","instructions","2","8586","0.0-1.0-0.0-0.0","1","98260","","1652","","[{""page_index"":0,""viewing_time"":1206},{""page_index"":1,""viewing_time"":446}]","","","","","","","","","","","","","",""
"","rating_comprehension_check","","survey-multi-choice","3","11459","0.0-1.0-0.0-1.0","1","98260","","2864","{""Q0"":""True"",""Q1"":""Mouse""}","","0","","","","","","","","","","","","",""
"","","","html-keyboard-response","4","12664","0.0-1.0-1.0","1","98260","","1200","","","","68","","","","","","","","","","","",""
"","rating","","html-slider-response","5","13699","0.0-1.0-2.0","1","98260","","1029","","","","","50","0","38","Stimuli/Experimental_stims/objects/art-lasovsky-8XddFc6NkBY-unsplash.jpg","","","","","","","",""
"","rating","","html-slider-response","6","13846","0.0-1.0-3.0","1","98260","","142","","","","","50","1","24","Stimuli/Experimental_stims/body_parts/clay-banks-LjqARJaJotc-unsplash.jpg","","","","","","","",""
"","rating","","html-slider-response","7","13990","0.0-1.0-4.0","1","98260","","139","","","","","50","2","13","Stimuli/Experimental_stims/faces/daniel-rigdon-dXmXKPP2L4E-unsplash.jpg","","","","","","","",""
"","rating","","html-slider-response","8","14202","0.0-1.0-5.0","1","98260","","207","","","","","50","3","2","Stimuli/Experimental_stims/outdoor_scenes/bruno-van-der-kraan-qez8mNJ3ilU-unsplash.jpg","","","","","","","",""
"","rating","","html-slider-response","9","14382","0.0-1.0-6.0","1","98260","","175","","","","","50","4","36","Stimuli/Experimental_stims/objects/alexander-andrews-JYGnB9gTCls-unsplash.jpg","","","","","","","",""
"","rating","","html-slider-response","10","14550","0.0-1.0-7.0","1","98260","","163","","","","","50","5","7","Stimuli/Experimental_stims/outdoor_scenes/petr-vysohlid-9fqwGqGLUxc-unsplash.jpg","","","","","","","",""
"","rating","","html-slider-response","11","14716","0.0-1.0-8.0","1","98260","","161","","","","","50","6","28","Stimuli/Experimental_stims/body_parts/ira-vishnevskaya-8DQAvdCby1I-unsplash.jpg","","","","","","","",""
"","rating","","html-slider-response","12","14884","0.0-1.0-9.0","1","98260","","163","","","","","50","7","14","Stimuli/Experimental_stims/faces/david-siglin-UuW4psOb388-unsplash.jpg","","","","","","","",""
"","rating","","html-slider-response","13","15052","0.0-1.0-10.0","1","98260","","163","","","","","50","8","23","Stimuli/Experimental_stims/faces/rikonavt-HQjfrvdTfak-unsplash.jpg","","","","","","","",""
"","rating","","html-slider-response","14","15220","0.0-1.0-11.0","1","98260","","163","","","","","50","9","39","Stimuli/Experimental_stims/objects/charlesdeluvio-1-nx1QR5dTE-unsplash.jpg","","","","","","","",""
"","rating","","html-slider-response","15","15398","0.0-1.0-12.0","1","98260","","173","","","","","50","10","11","Stimuli/Experimental_stims/outdoor_scenes/stephen-leonardi-gyIRjKPXupE-unsplash.jpg","","","","","","","",""
"","rating","","html-slider-response","16","15588","0.0-1.0-13.0","1","98260","","185","","","","","50","11","16","Stimuli/Experimental_stims/faces/freddy-kearney-o-ioeoATbIM-unsplash.jpg","","","","","","","",""
"","rating","","html-slider-response","17","15756","0.0-1.0-14.0","1","98260","","163","","","","","50","12","46","Stimuli/Experimental_stims/objects/mockup-graphics-PNsj6RiHAF4-unsplash.jpg","","","","","","","",""
"","rating","","html-slider-response","18","15932","0.0-1.0-15.0","1","98260","","171","","","","","50","13","20","Stimuli/Experimental_stims/faces/justin-chen-J7Cf1Gch49E-unsplash.jpg","","","","","","","",""
"","rating","","html-slider-response","19","16112","0.0-1.0-16.0","1","98260","","175","","","","","50","14","18","Stimuli/Experimental_stims/faces/jessica-radanavong-mrYkTuAesKE-unsplash.jpg","","","","","","","",""
"","rating","","html-slider-response","20","16277","0.0-1.0-17.0","1","98260","","160","","","","","50","15","42","Stimuli/Experimental_stims/objects/jess-bailey-nOeVi8DsN8U-unsplash.jpg","","","","","","","",""
"","rating","","html-slider-response","21","16470","0.0-1.0-18.0","1","98260","","188","","","","","50","16","5","Stimuli/Experimental_stims/outdoor_scenes/jeff-king-bJHWJeiHfHc-unsplash.jpg","","","","","","","",""
"","rating","","html-slider-response","22","16646","0.0-1.0-19.0","1","98260","","172","","","","","50","17","25","Stimuli/Experimental_stims/body_parts/engin-akyurt-Q2rfH3GW39c-unsplash.jpg","","","","","","","",""
"","rating","","html-slider-response","23","16823","0.0-1.0-20.0","1","98260","","173","","","","","50","18","29","Stimuli/Experimental_stims/body_parts/manuel-schinner-ZwjFuJ7ebpk-unsplash.jpg","","","","","","","",""
"","rating","","html-slider-response","24","16994","0.0-1.0-21.0","1","98260","","167","","","","","50","19","47","Stimuli/Experimental_stims/objects/ronaldo-arthur-vidal-Cdz_lvnl37k-unsplash.jpg","","","","","","","",""
"","rating","","html-slider-response","25","17172","0.0-1.0-22.0","1","98260","","173","","","","","50","20","4","Stimuli/Experimental_stims/outdoor_scenes/jarrett-kow-1ZOyYPOBn7I-unsplash.jpg","","","","","","","",""
"","rating","","html-slider-response","26","17340","0.0-1.0-23.0","1","98260","","163","","","","","50","21","31","Stimuli/Experimental_stims/body_parts/sincerely-media-VN6DbKajo5s-unsplash.jpg","","","","","","","",""
"","rating","","html-slider-response","27","17520","0.0-1.0-24.0","1","98260","","175","","","","","50","22","44","Stimuli/Experimental_stims/objects/kuiye-chen-NuOGFo4PudE-unsplash.jpg","","","","","","","",""
"","rating","","html-slider-response","28","17693","0.0-1.0-25.0","1","98260","","169","","","","","50","23","37","Stimuli/Experimental_stims/objects/alexander-andrews-VLGWE_SumrA-unsplash.jpg","","","","","","","",""
"","rating","","html-slider-response","29","17866","0.0-1.0-26.0","1","98260","","168","","","","","50","24","10","Stimuli/Experimental_stims/outdoor_scenes/shannon-kunkle-dM8INmkyDas-unsplash.jpg","","","","","","","",""
"","rating","","html-slider-response","30","18044","0.0-1.0-27.0","1","98260","","173","","","","","50","25","40","Stimuli/Experimental_stims/objects/fabian-blank-pElSkGRA2NU-unsplash.jpg","","","","","","","",""
"","rating","","html-slider-response","31","18212","0.0-1.0-28.0","1","98260","","163","","","","","50","26","9","Stimuli/Experimental_stims/outdoor_scenes/sergey-pesterev-y-b_FOmJXdg-unsplash.jpg","","","","","","","",""
"","rating","","html-slider-response","32","18568","0.0-1.0-29.0","1","98260","","350","","","","","50","27","41","Stimuli/Experimental_stims/objects/insung-yoon-w2JtIQQXoRU-unsplash.jpg","","","","","","","",""
"","rating","","html-slider-response","33","18748","0.0-1.0-30.0","1","98260","","175","","","","","50","28","8","Stimuli/Experimental_stims/outdoor_scenes/samsommer-vddccTqwal8-unsplash.jpg","","","","","","","",""
"","rating","","html-slider-response","34","18926","0.0-1.0-31.0","1","98260","","172","","","","","50","29","3","Stimuli/Experimental_stims/outdoor_scenes/henry-be-NLF6hTe4PAg-unsplash.jpg","","","","","","","",""
"","rating","","html-slider-response","35","19116","0.0-1.0-32.0","1","98260","","185","","","","","50","30","27","Stimuli/Experimental_stims/body_parts/heike-mintel-i_Gns0ELnLw-unsplash.jpg","","","","","","","",""
"","rating","","html-slider-response","36","19294","0.0-1.0-33.0","1","98260","","173","","","","","50","31","19","Stimuli/Experimental_stims/faces/joel-mott-LaK153ghdig-unsplash.jpg","","","","","","","",""
"","rating","","html-slider-response","37","19484","0.0-1.0-34.0","1","98260","","184","","","","","50","32","45","Stimuli/Experimental_stims/objects/leohoho-rngTKHXumy0-unsplash.jpg","","","","","","","",""
"","rating","","html-slider-response","38","19674","0.0-1.0-35.0","1","98260","","185","","","","","50","33","30","Stimuli/Experimental_stims/body_parts/mika-korhonen-Xodzxosar18-unsplash.jpg","","","","","","","",""
"","rating","","html-slider-response","39","19854","0.0-1.0-36.0","1","98260","","174","","","","","50","34","21","Stimuli/Experimental_stims/faces/leilani-angel-K84vnnzxmTQ-unsplash.jpg","","","","","","","",""
"","rating","","html-slider-response","40","20042","0.0-1.0-37.0","1","98260","","183","","","","","50","35","34","Stimuli/Experimental_stims/body_parts/wagner-santos-mBWMvIuVnso-unsplash.jpg","","","","","","","",""
"","rating","","html-slider-response","41","20222","0.0-1.0-38.0","1","98260","","174","","","","","50","36","35","Stimuli/Experimental_stims/body_parts/wc-so-KH4AAPjb-tI-unsplash.jpg","","","","","","","",""
"","rating","","html-slider-response","42","20422","0.0-1.0-39.0","1","98260","","195","","","","","50","37","15","Stimuli/Experimental_stims/faces/erik-lucatero-d2MSDujJl2g-unsplash.jpg","","","","","","","",""
"","rating","","html-slider-response","43","20600","0.0-1.0-40.0","1","98260","","173","","","","","50","38","1","Stimuli/Experimental_stims/outdoor_scenes/ashim-d-silva-S2Q5mdOrrVc-unsplash.jpg","","","","","","","",""
"","rating","","html-slider-response","44","20790","0.0-1.0-41.0","1","98260","","184","","","","","50","39","22","Stimuli/Experimental_stims/faces/ravi-patel-VMGAbeeJTKo-unsplash.jpg","","","","","","","",""
"","rating","","html-slider-response","45","20957","0.0-1.0-42.0","1","98260","","162","","","","","50","40","26","Stimuli/Experimental_stims/body_parts/engin-akyurt-x_3gyC42btc-unsplash.jpg","","","","","","","",""
"","rating","","html-slider-response","46","21148","0.0-1.0-43.0","1","98260","","186","","","","","50","41","0","Stimuli/Experimental_stims/outdoor_scenes/aleksandra-boguslawska-MS7KD9Ti7FQ-unsplash.jpg","","","","","","","",""
"","rating","","html-slider-response","47","21326","0.0-1.0-44.0","1","98260","","173","","","","","50","42","43","Stimuli/Experimental_stims/objects/jonathan-greenaway-Y4hGgeiFn3s-unsplash.jpg","","","","","","","",""
"","rating","","html-slider-response","48","21515","0.0-1.0-45.0","1","98260","","185","","","","","50","43","32","Stimuli/Experimental_stims/body_parts/towfiqu-barbhuiya-3AsiVDsZnHg-unsplash.jpg","","","","","","","",""
"","rating","","html-slider-response","49","21696","0.0-1.0-46.0","1","98260","","176","","","","","50","44","17","Stimuli/Experimental_stims/faces/good-faces-xmSWVeGEnJw-unsplash.jpg","","","","","","","",""
"","rating","","html-slider-response","50","21884","0.0-1.0-47.0","1","98260","","183","","","","","50","45","6","Stimuli/Experimental_stims/outdoor_scenes/meng-ji-8BH_M-53CyA-unsplash.jpg","","","","","","","",""
"","rating","","html-slider-response","51","22076","0.0-1.0-48.0","1","98260","","187","","","","","50","46","33","Stimuli/Experimental_stims/body_parts/tucker-good-36skLT5jZcc-unsplash.jpg","","","","","","","",""
"","rating","","html-slider-response","52","22254","0.0-1.0-49.0","1","98260","","172","","","","","50","47","12","Stimuli/Experimental_stims/faces/aiony-haust-jmATI5Q_YgY-unsplash.jpg","","","","","","","",""
"","localizer_instructions","","instructions","53","25034","0.0-2.0-0.0-0.0","1","98260","","2745","","[{""page_index"":0,""viewing_time"":1582},{""page_index"":1,""viewing_time"":605},{""page_index"":2,""viewing_time"":558}]","","","","","","","","","","","","","",""
"","localizer_comprehension_check","","survey-multi-choice","54","31933","0.0-2.0-0.0-1.0","1","98260","","6893","{""Q0"":""True"",""Q1"":""K"",""Q2"":""D""}","","0","","","","","","","","","","","","",""
"","","","html-keyboard-response","55","33880","0.0-2.0-1.0","1","98260","","1942","","","","68","","","","","","","","","","","",""
"","localizer","","html-keyboard-response","56","34292","0.0-2.0-2.0-0.0","1","98260","","NaN","","","","null","NaN","0","","Stimuli/Practice_stims/Localizer/annie-spratt-g9KFpAfQ5bc-unsplash.jpg","0","NaN","","0","1","0","0.4","0"
"","iti_localizer","","html-keyboard-response","57","34604","0.0-2.0-2.0-1.0","1","98260","","null","","","","null","","0","","","0","","","","","","0.3","0.4"
"","localizer","","html-keyboard-response","58","35016","0.0-2.0-2.1-0.1","1","98260","","26","","","","68","0","0","","Stimuli/Practice_stims/Localizer/annie-spratt-g9KFpAfQ5bc-unsplash.jpg","0","NaN","","0","0","1","0.4","0.7"
"","iti_localizer","","html-keyboard-response","59","35332","0.0-2.0-2.1-1.1","1","98260","","null","","","","null","","0","","","0","","","","","","0.3","1.1"
"","localizer","","html-keyboard-response","60","35746","0.0-2.0-3.0-0.0","1","98260","","135","","","","68","0","1","","Stimuli/Practice_stims/Localizer/becca-tapert-sY5RjMB1KkE-unsplash.jpg","0","NaN","","0","0","1","0.4","1.4000000000000001"
"","iti_localizer","","html-keyboard-response","61","36058","0.0-2.0-3.0-1.0","1","98260","","null","","","","null","","1","","","0","","","","","","0.3","1.8000000000000003"
"","localizer","","html-keyboard-response","62","36473","0.0-2.0-4.0-0.0","1","98260","","104","","","","68","0","2","","Stimuli/Practice_stims/Localizer/charl-durand-bsfXvI25iNg-unsplash.jpg","0","NaN","","1","0","0","0.4","2.1"
"","iti_localizer","","html-keyboard-response","63","36785","0.0-2.0-4.0-1.0","1","98260","","null","","","","null","","2","","","0","","","","","","0.3","2.5"
"","localizer","","html-keyboard-response","64","37192","0.0-2.0-5.0-0.0","1","98260","","82","","","","68","0","3","","Stimuli/Practice_stims/Localizer/nizar-albusaidy-B2r2SWAf5CE-unsplash.jpg","0","NaN","","0","0","1","0.4","2.8"
"","iti_localizer","","html-keyboard-response","65","37507","0.0-2.0-5.0-1.0","1","98260","","null","","","","null","","3","","","0","","","","","","0.3","3.1999999999999997"
"","localizer","","html-keyboard-response","66","37922","0.0-2.0-6.0-0.0","1","98260","","77","","","","68","0","4","","Stimuli/Practice_stims/Localizer/randy-fath-epf1tdtIIkM-unsplash.jpg","0","NaN","","1","0","0","0.4","3.4999999999999996"
"","iti_localizer","","html-keyboard-response","67","38237","0.0-2.0-6.0-1.0","1","98260","","null","","","","null","","4","","","0","","","","","","0.3","3.8999999999999995"
"","localizer","","html-keyboard-response","68","38650","0.0-2.0-7.0-0.0","1","98260","","110","","","","68","0","5","","Stimuli/Practice_stims/Localizer/yassine-khalfalli-adsQ9d_Cx0c-unsplash.jpg","0","NaN","","0","0","1","0.4","4.199999999999999"
"","iti_localizer","","html-keyboard-response","69","38954","0.0-2.0-7.0-1.0","1","98260","","null","","","","null","","5","","","0","","","","","","0.3","4.6"
"","practice_over","","html-keyboard-response","70","38997","0.0-2.0-7.0-2.0-0.0","1","98260","","39","","","","68","","","","","","","","","","","",""
"","start_run","","html-keyboard-response","71","40376","0.0-2.0-7.0-2.0-1.0","1","98260","","1375","","","","84","","","","","","","","","","","",""
"","localizer","","html-keyboard-response","72","40785","0.0-2.0-8.0-0.0","1","98260","","NaN","","","","null","NaN","6","","Stimuli/Experimental_stims/localizer/outdoor_scenes/mark-harpur-K2s_YE031CA-unsplash.jpg","1","outdoor_scenes","","0","1","0","0.4","0"
"","iti_localizer","","html-keyboard-response","73","41099","0.0-2.0-8.0-1.0","1","98260","","null","","","","null","","6","","","1","","","","","","0.3","0.4"
"","localizer","","html-keyboard-response","74","41518","0.0-2.0-9.0-0.0","1","98260","","NaN","","","","null","NaN","7","","Stimuli/Experimental_stims/localizer/outdoor_scenes/johny-goerend-U_diPCXCBxU-unsplash.jpg","1","outdoor_scenes","","0","1","0","0.4","0.7"
"","iti_localizer","","html-keyboard-response","75","41825","0.0-2.0-9.0-1.0","1","98260","","null","","","","null","","7","","","1","","","","","","0.3","1.1"
"","localizer","","html-keyboard-response","76","42237","0.0-2.0-10.0-0.0","1","98260","","NaN","","","","null","NaN","8","","Stimuli/Experimental_stims/localizer/outdoor_scenes/derek-mack-CcRZ4k3c6gA-unsplash.jpg","1","outdoor_scenes","","0","1","0","0.4","1.4000000000000001"
"","iti_localizer","","html-keyboard-response","77","42546","0.0-2.0-10.0-1.0","1","98260","","null","","","","null","","8","","","1","","","","","","0.3","1.8000000000000003"
"","localizer","","html-keyboard-response","78","42965","0.0-2.0-11.0-0.0","1","98260","","NaN","","","","null","NaN","9","","Stimuli/Experimental_stims/localizer/outdoor_scenes/neom-THlO6Mkf5uI-unsplash.jpg","1","outdoor_scenes","","0","1","0","0.4","2.1"
"","iti_localizer","","html-keyboard-response","79","43273","0.0-2.0-11.0-1.0","1","98260","","null","","","","null","","9","","","1","","","","","","0.3","2.5"
"","localizer","","html-keyboard-response","80","43685","0.0-2.0-12.0-0.0","1","98260","","NaN","","","","null","NaN","10","","Stimuli/Experimental_stims/localizer/outdoor_scenes/kace-rodriguez-p3OzJuT_Dks-unsplash.jpg","1","outdoor_scenes","","0","1","0","0.4","2.8"
"","iti_localizer","","html-keyboard-response","81","43996","0.0-2.0-12.0-1.0","1","98260","","null","","","","null","","10","","","1","","","","","","0.3","3.1999999999999997"
"","localizer","","html-keyboard-response","82","44409","0.0-2.0-13.0-0.0","1","98260","","NaN","","","","null","NaN","11","","Stimuli/Experimental_stims/localizer/outdoor_scenes/jay-cai-F_laX9E8CUo-unsplash.jpg","1","outdoor_scenes","","0","1","0","0.4","3.4999999999999996"
"","iti_localizer","","html-keyboard-response","83","44723","0.0-2.0-13.0-1.0","1","98260","","null","","","","null","","11","","","1","","","","","","0.3","3.8999999999999995"
"","localizer","","html-keyboard-response","84","45139","0.0-2.0-14.0-0.0","1","98260","","NaN","","","","null","NaN","12","","Stimuli/Experimental_stims/localizer/outdoor_scenes/john-mark-arnold-XNIjmb6Ax04-unsplash.jpg","1","outdoor_scenes","","0","1","0","0.4","4.199999999999999"
"","iti_localizer","","html-keyboard-response","85","45450","0.0-2.0-14.0-1.0","1","98260","","null","","","","null","","12","","","1","","","","","","0.3","4.6"
"","localizer","","html-keyboard-response","86","45869","0.0-2.0-15.0-0.0","1","98260","","NaN","","","","null","NaN","13","","Stimuli/Experimental_stims/localizer/outdoor_scenes/dawid-zawila--G3rw6Y02D0-unsplash.jpg","1","outdoor_scenes","","0","1","0","0.4","4.8999999999999995"
"","iti_localizer","","html-keyboard-response","87","46182","0.0-2.0-15.0-1.0","1","98260","","null","","","","null","","13","","","1","","","","","","0.3","5.3"
"","localizer","","html-keyboard-response","88","46597","0.0-2.0-16.0-0.0","1","98260","","NaN","","","","null","NaN","14","","Stimuli/Experimental_stims/localizer/outdoor_scenes/darrell-cassell-hoCXpPUMCoE-unsplash.jpg","1","outdoor_scenes","","0","1","0","0.4","5.6"
"","iti_localizer","","html-keyboard-response","89","46906","0.0-2.0-16.0-1.0","1","98260","","null","","","","null","","14","","","1","","","","","","0.3","6"
"","localizer","","html-keyboard-response","90","47317","0.0-2.0-17.0-0.0","1","98260","","NaN","","","","null","NaN","15","","Stimuli/Experimental_stims/localizer/outdoor_scenes/kenneth-thewissen-D76DklsG-5U-unsplash.jpg","1","outdoor_scenes","","0","1","0","0.4","6.3"
"","iti_localizer","","html-keyboard-response","91","47627","0.0-2.0-17.0-1.0","1","98260","","null","","","","null","","15","","","1","","","","","","0.3","6.7"
"","localizer","","html-keyboard-response","92","48043","0.0-2.0-18.0-0.0","1","98260","","NaN","","","","null","NaN","16","","Stimuli/Experimental_stims/localizer/outdoor_scenes/andres-sanz-uILhNE1VcwA-unsplash.jpg","1","outdoor_scenes","","0","1","0","0.4","7"
"","iti_localizer","","html-keyboard-response","93","48355","0.0-2.0-18.0-1.0","1","98260","","null","","","","null","","16","","","1","","","","","","0.3","7.4"
"","localizer","","html-keyboard-response","94","48774","0.0-2.0-19.0-0.0","1","98260","","NaN","","","","null","NaN","17","","Stimuli/Experimental_stims/localizer/outdoor_scenes/keith-hardy-UVyavSwslOg-unsplash.jpg","1","outdoor_scenes","","1","1","0","0.4","7.7"
"","iti_localizer","","html-keyboard-response","95","49082","0.0-2.0-19.0-1.0","1","98260","","null","","","","null","","17","","","1","","","","","","0.3","8.1"
"","localizer","","html-keyboard-response","96","49491","0.0-2.0-20.0-0.0","1","98260","","NaN","","","","null","NaN","18","","Stimuli/Experimental_stims/localizer/outdoor_scenes/pascal-debrunner-1WQ5RZuH9xo-unsplash.jpg","1","outdoor_scenes","","0","1","0","0.4","8.4"
"","iti_localizer","","html-keyboard-response","97","49804","0.0-2.0-20.0-1.0","1","98260","","null","","","","null","","18","","","1","","","","","","0.3","8.8"
"","localizer","","html-keyboard-response","98","50221","0.0-2.0-21.0-0.0","1","98260","","NaN","","","","null","NaN","19","","Stimuli/Experimental_stims/localizer/outdoor_scenes/jeremy-cai-ucYWe5mzTMU-unsplash.jpg","1","outdoor_scenes","","0","1","0","0.4","9.100000000000001"
"","iti_localizer","","html-keyboard-response","99","50532","0.0-2.0-21.0-1.0","1","98260","","null","","","","null","","19","","","1","","","","","","0.3","9.500000000000002"
"","localizer","","html-keyboard-response","100","50945","0.0-2.0-22.0-0.0","1","98260","","NaN","","","","null","NaN","20","","Stimuli/Experimental_stims/localizer/outdoor_scenes/michael-martinelli-mFbrMEVKCkc-unsplash.jpg","1","outdoor_scenes","","0","1","0","0.4","9.800000000000002"
"","iti_localizer","","html-keyboard-response","101","51261","0.0-2.0-22.0-1.0","1","98260","","null","","","","null","","20","","","1","","","","","","0.3","10.200000000000003"
"","localizer","","html-keyboard-response","102","51673","0.0-2.0-23.0-0.0","1","98260","","NaN","","","","null","NaN","21","","Stimuli/Experimental_stims/localizer/outdoor_scenes/luca-bravo-VowIFDxogG4-unsplash.jpg","1","outdoor_scenes","","1","1","0","0.4","10.500000000000004"
"","iti_localizer","","html-keyboard-response","103","51988","0.0-2.0-23.0-1.0","1","98260","","null","","","","null","","21","","","1","","","","","","0.3","10.900000000000004"
"","localizer","","html-keyboard-response","104","52406","0.0-2.0-24.0-0.0","1","98260","","NaN","","","","null","NaN","22","","Stimuli/Experimental_stims/localizer/outdoor_scenes/quino-al-vmZ2DehWQ3Q-unsplash.jpg","1","outdoor_scenes","","0","1","0","0.4","11.200000000000005"
"","iti_localizer","","html-keyboard-response","105","52715","0.0-2.0-24.0-1.0","1","98260","","null","","","","null","","22","","","1","","","","","","0.3","11.600000000000005"
"","localizer","","html-keyboard-response","106","53132","0.0-2.0-25.0-0.0","1","98260","","NaN","","","","null","NaN","23","","Stimuli/Experimental_stims/localizer/outdoor_scenes/ken-cheung-KonWFWUaAuk-unsplash.jpg","1","outdoor_scenes","","0","1","0","0.4","11.900000000000006"
"","iti_localizer","","html-keyboard-response","107","53441","0.0-2.0-25.0-1.0","1","98260","","null","","","","null","","23","","","1","","","","","","0.3","12.300000000000006"
"","localizer","","html-keyboard-response","108","53854","0.0-2.0-26.0-0.0","1","98260","","NaN","","","","null","NaN","24","","Stimuli/Experimental_stims/localizer/outdoor_scenes/damian-denis-D8R_txR_0PE-unsplash.jpg","1","outdoor_scenes","","0","1","0","0.4","12.600000000000007"
"","iti_localizer","","html-keyboard-response","109","54161","0.0-2.0-26.0-1.0","1","98260","","null","","","","null","","24","","","1","","","","","","0.3","13.000000000000007"
"","localizer","","html-keyboard-response","110","54573","0.0-2.0-27.0-0.0","1","98260","","NaN","","","","null","NaN","25","","Stimuli/Experimental_stims/localizer/outdoor_scenes/damian-patkowski-T-LfvX-7IVg-unsplash.jpg","1","outdoor_scenes","","0","1","0","0.4","13.300000000000008"
"","iti_localizer","","html-keyboard-response","111","54882","0.0-2.0-27.0-1.0","1","98260","","null","","","","null","","25","","","1","","","","","","14","13.700000000000008"
"","localizer","","html-keyboard-response","112","55289","0.0-2.0-28.0-0.0","1","98260","","NaN","","","","null","NaN","26","","Stimuli/Experimental_stims/localizer/objects/ian-talmacs-ugqU0a4P18U-unsplash.jpg","1","objects","","0","1","0","0.4","27.70000000000001"
"","iti_localizer","","html-keyboard-response","113","55599","0.0-2.0-28.0-1.0","1","98260","","null","","","","null","","26","","","1","","","","","","0.3","28.10000000000001"
"","localizer","","html-keyboard-response","114","56009","0.0-2.0-29.0-0.0","1","98260","","NaN","","","","null","NaN","27","","Stimuli/Experimental_stims/localizer/objects/lance-reis-v0FYj9iioQg-unsplash.jpg","1","objects","","0","1","0","0.4","28.40000000000001"
"","iti_localizer","","html-keyboard-response","115","56324","0.0-2.0-29.0-1.0","1","98260","","null","","","","null","","27","","","1","","","","","","0.3","28.800000000000008"
"","localizer","","html-keyboard-response","116","56739","0.0-2.0-30.0-0.0","1","98260","","NaN","","","","null","NaN","28","","Stimuli/Experimental_stims/localizer/objects/saif71-com-VIKdvmGUhq8-unsplash.jpg","1","objects","","0","1","0","0.4","29.10000000000001"
"","iti_localizer","","html-keyboard-response","117","57052","0.0-2.0-30.0-1.0","1","98260","","null","","","","null","","28","","","1","","","","","","0.3","29.500000000000007"
"","localizer","","html-keyboard-response","118","57465","0.0-2.0-31.0-0.0","1","98260","","NaN","","","","null","NaN","29","","Stimuli/Experimental_stims/localizer/objects/quino-al-8gWEAAXJjtI-unsplash.jpg","1","objects","","1","1","0","0.4","29.800000000000008"
"","iti_localizer","","html-keyboard-response","119","57780","0.0-2.0-31.0-1.0","1","98260","","null","","","","null","","29","","","1","","","","","","0.3","30.200000000000006"
"","localizer","","html-keyboard-response","120","58194","0.0-2.0-32.0-0.0","1","98260","","NaN","","","","null","NaN","30","","Stimuli/Experimental_stims/localizer/objects/dario-mendez-WmF_XLF4-Rs-unsplash.jpg","1","objects","","0","1","0","0.4","30.500000000000007"
"","iti_localizer","","html-keyboard-response","121","58507","0.0-2.0-32.0-1.0","1","98260","","null","","","","null","","30","","","1","","","","","","0.3","30.900000000000006"
"","localizer","","html-keyboard-response","122","58922","0.0-2.0-33.0-0.0","1","98260","","NaN","","","","null","NaN","31","","Stimuli/Experimental_stims/localizer/objects/charlesdeluvio-RDjZh9dqlP4-unsplash.jpg","1","objects","","0","1","0","0.4","31.200000000000006"
"","iti_localizer","","html-keyboard-response","123","59237","0.0-2.0-33.0-1.0","1","98260","","null","","","","null","","31","","","1","","","","","","0.3","31.600000000000005"
"","localizer","","html-keyboard-response","124","59654","0.0-2.0-34.0-0.0","1","98260","","NaN","","","","null","NaN","32","","Stimuli/Experimental_stims/localizer/objects/quino-al-4SNUcHPiC8c-unsplash.jpg","1","objects","","0","1","0","0.4","31.900000000000006"
"","iti_localizer","","html-keyboard-response","125","59960","0.0-2.0-34.0-1.0","1","98260","","null","","","","null","","32","","","1","","","","","","0.3","32.300000000000004"
"","localizer","","html-keyboard-response","126","60372","0.0-2.0-35.0-0.0","1","98260","","NaN","","","","null","NaN","33","","Stimuli/Experimental_stims/localizer/objects/mulyadi-tWp0VSlSdMI-unsplash.jpg","1","objects","","0","1","0","0.4","32.6"
"","iti_localizer","","html-keyboard-response","127","60685","0.0-2.0-35.0-1.0","1","98260","","null","","","","null","","33","","","1","","","","","","0.3","33"
"","localizer","","html-keyboard-response","128","61095","0.0-2.0-36.0-0.0","1","98260","","NaN","","","","null","NaN","34","","Stimuli/Experimental_stims/localizer/objects/recha-oktaviani-t__61ap00Mc-unsplash.jpg","1","objects","","0","1","0","0.4","33.3"
"","iti_localizer","","html-keyboard-response","129","61400","0.0-2.0-36.0-1.0","1","98260","","null","","","","null","","34","","","1","","","","","","0.3","33.699999999999996"
"","localizer","","html-keyboard-response","130","61814","0.0-2.0-37.0-0.0","1","98260","","NaN","","","","null","NaN","35","","Stimuli/Experimental_stims/localizer/objects/sam-moghadam-khamseh-L_7MQsHl_aU-unsplash.jpg","1","objects","","1","1","0","0.4","33.99999999999999"
"","iti_localizer","","html-keyboard-response","131","62123","0.0-2.0-37.0-1.0","1","98260","","null","","","","null","","35","","","1","","","","","","0.3","34.39999999999999"
"","localizer","","html-keyboard-response","132","62540","0.0-2.0-38.0-0.0","1","98260","","NaN","","","","null","NaN","36","","Stimuli/Experimental_stims/localizer/objects/ana-9GmAaEMMKho-unsplash.jpg","1","objects","","0","1","0","0.4","34.69999999999999"
"","iti_localizer","","html-keyboard-response","133","62849","0.0-2.0-38.0-1.0","1","98260","","null","","","","null","","36","","","1","","","","","","0.3","35.09999999999999"
"","localizer","","html-keyboard-response","134","63260","0.0-2.0-39.0-0.0","1","98260","","NaN","","","","null","NaN","37","","Stimuli/Experimental_stims/localizer/objects/dan-cristian-padure-ezoshbcxWrM-unsplash.jpg","1","objects","","0","1","0","0.4","35.399999999999984"
"","iti_localizer","","html-keyboard-response","135","63573","0.0-2.0-39.0-1.0","1","98260","","null","","","","null","","37","","","1","","","","","","0.3","35.79999999999998"
"","localizer","","html-keyboard-response","136","63989","0.0-2.0-40.0-0.0","1","98260","","NaN","","","","null","NaN","38","","Stimuli/Experimental_stims/localizer/objects/mockup-graphics-Pj2PY-E-LfM-unsplash.jpg","1","objects","","0","1","0","0.4","36.09999999999998"
"","iti_localizer","","html-keyboard-response","137","64297","0.0-2.0-40.0-1.0","1","98260","","null","","","","null","","38","","","1","","","","","","0.3","36.49999999999998"
"","localizer","","html-keyboard-response","138","64705","0.0-2.0-41.0-0.0","1","98260","","NaN","","","","null","NaN","39","","Stimuli/Experimental_stims/localizer/objects/oriento-maVIpNNtmlQ-unsplash.jpg","1","objects","","0","1","0","0.4","36.799999999999976"
"","iti_localizer","","html-keyboard-response","139","65018","0.0-2.0-41.0-1.0","1","98260","","null","","","","null","","39","","","1","","","","","","0.3","37.199999999999974"
"","localizer","","html-keyboard-response","140","65427","0.0-2.0-42.0-0.0","1","98260","","NaN","","","","null","NaN","40","","Stimuli/Experimental_stims/localizer/objects/yoann-siloine-_T4w3JDm6ug-unsplash.jpg","1","objects","","0","1","0","0.4","37.49999999999997"
"","iti_localizer","","html-keyboard-response","141","65739","0.0-2.0-42.0-1.0","1","98260","","null","","","","null","","40","","","1","","","","","","0.3","37.89999999999997"
"","localizer","","html-keyboard-response","142","66158","0.0-2.0-43.0-0.0","1","98260","","NaN","","","","null","NaN","41","","Stimuli/Experimental_stims/localizer/objects/quaritsch-photography-lZ8onQ1wuY8-unsplash.jpg","1","objects","","0","1","0","0.4","38.19999999999997"
"","iti_localizer","","html-keyboard-response","143","66468","0.0-2.0-43.0-1.0","1","98260","","null","","","","null","","41","","","1","","","","","","0.3","38.599999999999966"
"","localizer","","html-keyboard-response","144","66885","0.0-2.0-44.0-0.0","1","98260","","NaN","","","","null","NaN","42","","Stimuli/Experimental_stims/localizer/objects/ales-krivec-ZMZHcvIVgbg-unsplash.jpg","1","objects","","0","1","0","0.4","38.89999999999996"
"","iti_localizer","","html-keyboard-response","145","67198","0.0-2.0-44.0-1.0","1","98260","","null","","","","null","","42","","","1","","","","","","0.3","39.29999999999996"
"","localizer","","html-keyboard-response","146","67610","0.0-2.0-45.0-0.0","1","98260","","NaN","","","","null","NaN","43","","Stimuli/Experimental_stims/localizer/objects/carlos-felipe-ramirez-mesa-HW7bfB3ERSQ-unsplash.jpg","1","objects","","0","1","0","0.4","39.59999999999996"
"","iti_localizer","","html-keyboard-response","147","67923","0.0-2.0-45.0-1.0","1","98260","","null","","","","null","","43","","","1","","","","","","0.3","39.99999999999996"
"","localizer","","html-keyboard-response","148","68332","0.0-2.0-46.0-0.0","1","98260","","NaN","","","","null","NaN","44","","Stimuli/Experimental_stims/localizer/objects/nordwood-themes-nDd3dIkkOLo-unsplash.jpg","1","objects","","0","1","0","0.4","40.299999999999955"
"","iti_localizer","","html-keyboard-response","149","68640","0.0-2.0-46.0-1.0","1","98260","","null","","","","null","","44","","","1","","","","","","0.3","40.69999999999995"
"","localizer","","html-keyboard-response","150","69054","0.0-2.0-47.0-0.0","1","98260","","NaN","","","","null","NaN","45","","Stimuli/Experimental_stims/localizer/objects/jonny-caspari-wsvCC6UyKjs-unsplash.jpg","1","objects","","0","1","0","0.4","40.99999999999995"
"","iti_localizer","","html-keyboard-response","151","69366","0.0-2.0-47.0-1.0","1","98260","","null","","","","null","","45","","","1","","","","","","14","41.39999999999995"
"","localizer","","html-keyboard-response","152","69782","0.0-2.0-48.0-0.0","1","98260","","NaN","","","","null","NaN","46","","Stimuli/Experimental_stims/localizer/body_parts/femme-spirit-RGYBDUHYbyM-unsplash.jpg","1","body_parts","","1","1","0","0.4","55.39999999999995"
"","iti_localizer","","html-keyboard-response","153","70093","0.0-2.0-48.0-1.0","1","98260","","null","","","","null","","46","","","1","","","","","","0.3","55.79999999999995"
"","localizer","","html-keyboard-response","154","70507","0.0-2.0-49.0-0.0","1","98260","","NaN","","","","null","NaN","47","","Stimuli/Experimental_stims/localizer/body_parts/danie-franco-jyyNiSEcCl4-unsplash.jpg","1","body_parts","","0","1","0","0.4","56.099999999999945"
"","iti_localizer","","html-keyboard-response","155","70819","0.0-2.0-49.0-1.0","1","98260","","null","","","","null","","47","","","1","","","","","","0.3","56.49999999999994"
"","localizer","","html-keyboard-response","156","71234","0.0-2.0-50.0-0.0","1","98260","","NaN","","","","null","NaN","48","","Stimuli/Experimental_stims/localizer/body_parts/nadine-shaabana-ypyaaEf2ntM-unsplash.jpg","1","body_parts","","0","1","0","0.4","56.79999999999994"
"","iti_localizer","","html-keyboard-response","157","71546","0.0-2.0-50.0-1.0","1","98260","","null","","","","null","","48","","","1","","","","","","0.3","57.19999999999994"
"","localizer","","html-keyboard-response","158","71956","0.0-2.0-51.0-0.0","1","98260","","NaN","","","","null","NaN","49","","Stimuli/Experimental_stims/localizer/body_parts/helen-ast-l2iY5Sh0mTg-unsplash.jpg","1","body_parts","","0","1","0","0.4","57.499999999999936"
"","iti_localizer","","html-keyboard-response","159","72270","0.0-2.0-51.0-1.0","1","98260","","null","","","","null","","49","","","1","","","","","","0.3","57.899999999999935"
"","localizer","","html-keyboard-response","160","72686","0.0-2.0-52.0-0.0","1","98260","","NaN","","","","null","NaN","50","","Stimuli/Experimental_stims/localizer/body_parts/sincerely-media-Q7qRyaurQfo-unsplash.jpg","1","body_parts","","0","1","0","0.4","58.19999999999993"
"","iti_localizer","","html-keyboard-response","161","72999","0.0-2.0-52.0-1.0","1","98260","","null","","","","null","","50","","","1","","","","","","0.3","58.59999999999993"
"","localizer","","html-keyboard-response","162","73409","0.0-2.0-53.0-0.0","1","98260","","NaN","","","","null","NaN","51","","Stimuli/Experimental_stims/localizer/body_parts/sandra-seitamaa-YCc_YAAhY3I-unsplash.jpg","1","body_parts","","0","1","0","0.4","58.89999999999993"
"","iti_localizer","","html-keyboard-response","163","73722","0.0-2.0-53.0-1.0","1","98260","","null","","","","null","","51","","","1","","","","","","0.3","59.299999999999926"
"","localizer","","html-keyboard-response","164","74130","0.0-2.0-54.0-0.0","1","98260","","NaN","","","","null","NaN","52","","Stimuli/Experimental_stims/localizer/body_parts/i-am_nah--S4OsO0c6Ts-unsplash.jpg","1","body_parts","","0","1","0","0.4","59.59999999999992"
"","iti_localizer","","html-keyboard-response","165","74446","0.0-2.0-54.0-1.0","1","98260","","null","","","","null","","52","","","1","","","","","","0.3","59.99999999999992"
"","localizer","","html-keyboard-response","166","74861","0.0-2.0-55.0-0.0","1","98260","","NaN","","","","null","NaN","53","","Stimuli/Experimental_stims/localizer/body_parts/nick-page-WTNmgJtwzGI-unsplash.jpg","1","body_parts","","0","1","0","0.4","60.29999999999992"
"","iti_localizer","","html-keyboard-response","167","75175","0.0-2.0-55.0-1.0","1","98260","","null","","","","null","","53","","","1","","","","","","0.3","60.69999999999992"
"","localizer","","html-keyboard-response","168","75588","0.0-2.0-56.0-0.0","1","98260","","NaN","","","","null","NaN","54","","Stimuli/Experimental_stims/localizer/body_parts/sina-rezakhani-d1gQi0Jl05U-unsplash (1).jpg","1","body_parts","","0","1","0","0.4","60.999999999999915"
"","iti_localizer","","html-keyboard-response","169","75897","0.0-2.0-56.0-1.0","1","98260","","null","","","","null","","54","","","1","","","","","","0.3","61.39999999999991"
"","localizer","","html-keyboard-response","170","76305","0.0-2.0-57.0-0.0","1","98260","","NaN","","","","null","NaN","55","","Stimuli/Experimental_stims/localizer/body_parts/lucaxx-freire-CacZwMexYdk-unsplash.jpg","1","body_parts","","0","1","0","0.4","61.69999999999991"
"","iti_localizer","","html-keyboard-response","171","76621","0.0-2.0-57.0-1.0","1","98260","","null","","","","null","","55","","","1","","","","","","0.3","62.09999999999991"
"","localizer","","html-keyboard-response","172","77033","0.0-2.0-58.0-0.0","1","98260","","NaN","","","","null","NaN","56","","Stimuli/Experimental_stims/localizer/body_parts/toan-nguyen-VIeLuUFzesg-unsplash.jpg","1","body_parts","","0","1","0","0.4","62.399999999999906"
"","iti_localizer","","html-keyboard-response","173","77349","0.0-2.0-58.0-1.0","1","98260","","null","","","","null","","56","","","1","","","","","","0.3","62.799999999999905"
"","localizer","","html-keyboard-response","174","77761","0.0-2.0-59.0-0.0","1","98260","","NaN","","","","null","NaN","57","","Stimuli/Experimental_stims/localizer/body_parts/billie-5OXE3KjDEfI-unsplash.jpg","1","body_parts","","0","1","0","0.4","63.0999999999999"
"","iti_localizer","","html-keyboard-response","175","78074","0.0-2.0-59.0-1.0","1","98260","","null","","","","null","","57","","","1","","","","","","0.3","63.4999999999999"
"","localizer","","html-keyboard-response","176","78485","0.0-2.0-60.0-0.0","1","98260","","NaN","","","","null","NaN","58","","Stimuli/Experimental_stims/localizer/body_parts/nihal-karkala-LlOfbQD-IJ0-unsplash.jpg","1","body_parts","","0","1","0","0.4","63.7999999999999"
"","iti_localizer","","html-keyboard-response","177","78792","0.0-2.0-60.0-1.0","1","98260","","null","","","","null","","58","","","1","","","","","","0.3","64.1999999999999"
"","localizer","","html-keyboard-response","178","79204","0.0-2.0-61.0-0.0","1","98260","","NaN","","","","null","NaN","59","","Stimuli/Experimental_stims/localizer/body_parts/callum-skelton-3KLMq7y46nA-unsplash.jpg","1","body_parts","","0","1","0","0.4","64.4999999999999"
"","iti_localizer","","html-keyboard-response","179","79516","0.0-2.0-61.0-1.0","1","98260","","null","","","","null","","59","","","1","","","","","","0.3","64.8999999999999"
"","localizer","","html-keyboard-response","180","79932","0.0-2.0-62.0-0.0","1","98260","","NaN","","","","null","NaN","60","","Stimuli/Experimental_stims/localizer/body_parts/jasper-garratt-Ng_Kl7K6V8Y-unsplash.jpg","1","body_parts","","0","1","0","0.4","65.1999999999999"
"","iti_localizer","","html-keyboard-response","181","80244","0.0-2.0-62.0-1.0","1","98260","","null","","","","null","","60","","","1","","","","","","0.3","65.59999999999991"
"","localizer","","html-keyboard-response","182","80658","0.0-2.0-63.0-0.0","1","98260","","NaN","","","","null","NaN","61","","Stimuli/Experimental_stims/localizer/body_parts/megan-menegay-UojxG_BJxnI-unsplash.jpg","1","body_parts","","0","1","0","0.4","65.8999999999999"
"","iti_localizer","","html-keyboard-response","183","80973","0.0-2.0-63.0-1.0","1","98260","","null","","","","null","","61","","","1","","","","","","0.3","66.29999999999991"
"","localizer","","html-keyboard-response","184","81391","0.0-2.0-64.0-0.0","1","98260","","NaN","","","","null","NaN","62","","Stimuli/Experimental_stims/localizer/body_parts/louis-hansel-FjKTMRTQYAs-unsplash.jpg","1","body_parts","","0","1","0","0.4","66.59999999999991"
"","iti_localizer","","html-keyboard-response","185","81697","0.0-2.0-64.0-1.0","1","98260","","null","","","","null","","62","","","1","","","","","","0.3","66.99999999999991"
"","localizer","","html-keyboard-response","186","82110","0.0-2.0-65.0-0.0","1","98260","","NaN","","","","null","NaN","63","","Stimuli/Experimental_stims/localizer/body_parts/xavier-foucrier-dLZUNHsT8vo-unsplash.jpg","1","body_parts","","0","1","0","0.4","67.29999999999991"
"","iti_localizer","","html-keyboard-response","187","82421","0.0-2.0-65.0-1.0","1","98260","","null","","","","null","","63","","","1","","","","","","0.3","67.69999999999992"
"","localizer","","html-keyboard-response","188","82839","0.0-2.0-66.0-0.0","1","98260","","NaN","","","","null","NaN","64","","Stimuli/Experimental_stims/localizer/body_parts/debby-hudson--B_757qSA4k-unsplash.jpg","1","body_parts","","0","1","0","0.4","67.99999999999991"
"","iti_localizer","","html-keyboard-response","189","83147","0.0-2.0-66.0-1.0","1","98260","","null","","","","null","","64","","","1","","","","","","0.3","68.39999999999992"
"","localizer","","html-keyboard-response","190","83555","0.0-2.0-67.0-0.0","1","98260","","NaN","","","","null","NaN","65","","Stimuli/Experimental_stims/localizer/body_parts/freestocks-qw9LFf5T790-unsplash.jpg","1","body_parts","","1","1","0","0.4","68.69999999999992"
"","iti_localizer","","html-keyboard-response","191","83869","0.0-2.0-67.0-1.0","1","98260","","null","","","","null","","65","","","1","","","","","","14","69.09999999999992"
"","localizer","","html-keyboard-response","192","84285","0.0-2.0-68.0-0.0","1","98260","","NaN","","","","null","NaN","66","","Stimuli/Experimental_stims/localizer/faces/aleksandar-popovski-Jy4ELSGPHTc-unsplash.jpg","1","faces","","0","1","0","0.4","83.09999999999992"
"","iti_localizer","","html-keyboard-response","193","84595","0.0-2.0-68.0-1.0","1","98260","","null","","","","null","","66","","","1","","","","","","0.3","83.49999999999993"
"","localizer","","html-keyboard-response","194","85005","0.0-2.0-69.0-0.0","1","98260","","NaN","","","","null","NaN","67","","Stimuli/Experimental_stims/localizer/faces/whereslugo-zl_fPgiwduo-unsplash.jpg","1","faces","","0","1","0","0.4","83.79999999999993"
"","iti_localizer","","html-keyboard-response","195","85314","0.0-2.0-69.0-1.0","1","98260","","null","","","","null","","67","","","1","","","","","","0.3","84.19999999999993"
"","localizer","","html-keyboard-response","196","85724","0.0-2.0-70.0-0.0","1","98260","","NaN","","","","null","NaN","68","","Stimuli/Experimental_stims/localizer/faces/jurica-koletic-7YVZYZeITc8-unsplash.jpg","1","faces","","0","1","0","0.4","84.49999999999993"
"","iti_localizer","","html-keyboard-response","197","86038","0.0-2.0-70.0-1.0","1","98260","","null","","","","null","","68","","","1","","","","","","0.3","84.89999999999993"
"","localizer","","html-keyboard-response","198","86451","0.0-2.0-71.0-0.0","1","98260","","NaN","","","","null","NaN","69","","Stimuli/Experimental_stims/localizer/faces/midas-hofstra-tidSLv-UaNs-unsplash.jpg","1","faces","","0","1","0","0.4","85.19999999999993"
"","iti_localizer","","html-keyboard-response","199","86766","0.0-2.0-71.0-1.0","1","98260","","null","","","","null","","69","","","1","","","","","","0.3","85.59999999999994"
"","localizer","","html-keyboard-response","200","87181","0.0-2.0-72.0-0.0","1","98260","","NaN","","","","null","NaN","70","","Stimuli/Experimental_stims/localizer/faces/olena-sergienko-0TSd6uCKTKc-unsplash.jpg","1","faces","","0","1","0","0.4","85.89999999999993"
"","iti_localizer","","html-keyboard-response","201","87495","0.0-2.0-72.0-1.0","1","98260","","null","","","","null","","70","","","1","","","","","","0.3","86.29999999999994"
"","localizer","","html-keyboard-response","202","87908","0.0-2.0-73.0-0.0","1","98260","","NaN","","","","null","NaN","71","","Stimuli/Experimental_stims/localizer/faces/binh-ly-k_4A59MzZTY-unsplash.jpg","1","faces","","0","1","0","0.4","86.59999999999994"
"","iti_localizer","","html-keyboard-response","203","88221","0.0-2.0-73.0-1.0","1","98260","","null","","","","null","","71","","","1","","","","","","0.3","86.99999999999994"
"","localizer","","html-keyboard-response","204","88637","0.0-2.0-74.0-0.0","1","98260","","NaN","","","","null","NaN","72","","Stimuli/Experimental_stims/localizer/faces/pavel-anoshin-d0peGya6R5Y-unsplash.jpg","1","faces","","0","1","0","0.4","87.29999999999994"
"","iti_localizer","","html-keyboard-response","205","88950","0.0-2.0-74.0-1.0","1","98260","","null","","","","null","","72","","","1","","","","","","0.3","87.69999999999995"
"","localizer","","html-keyboard-response","206","89362","0.0-2.0-75.0-0.0","1","98260","","NaN","","","","null","NaN","73","","Stimuli/Experimental_stims/localizer/faces/jake-nackos-IF9TK5Uy-KI-unsplash.jpg","1","faces","","0","1","0","0.4","87.99999999999994"
"","iti_localizer","","html-keyboard-response","207","89674","0.0-2.0-75.0-1.0","1","98260","","null","","","","null","","73","","","1","","","","","","0.3","88.39999999999995"
"","localizer","","html-keyboard-response","208","90086","0.0-2.0-76.0-0.0","1","98260","","NaN","","","","null","NaN","74","","Stimuli/Experimental_stims/localizer/faces/rafaella-mendes-diniz-et_78QkMMQs-unsplash.jpg","1","faces","","0","1","0","0.4","88.69999999999995"
"","iti_localizer","","html-keyboard-response","209","90398","0.0-2.0-76.0-1.0","1","98260","","null","","","","null","","74","","","1","","","","","","0.3","89.09999999999995"
"","localizer","","html-keyboard-response","210","91054","0.0-2.0-77.0-0.0","1","98260","","NaN","","","","null","NaN","75","","Stimuli/Experimental_stims/localizer/faces/rui-silvestre-hAMJpesMeDE-unsplash.jpg","1","faces","","1","1","0","0.4","89.39999999999995"
"","iti_localizer","","html-keyboard-response","211","91365","0.0-2.0-77.0-1.0","1","98260","","null","","","","null","","75","","","1","","","","","","0.3","89.79999999999995"
"","localizer","","html-keyboard-response","212","91773","0.0-2.0-78.0-0.0","1","98260","","NaN","","","","null","NaN","76","","Stimuli/Experimental_stims/localizer/faces/jeffery-erhunse-BQMZ5ligqps-unsplash.jpg","1","faces","","0","1","0","0.4","90.09999999999995"
"","iti_localizer","","html-keyboard-response","213","92105","0.0-2.0-78.0-1.0","1","98260","","null","","","","null","","76","","","1","","","","","","0.3","90.49999999999996"
"","localizer","","html-keyboard-response","214","92518","0.0-2.0-79.0-0.0","1","98260","","NaN","","","","null","NaN","77","","Stimuli/Experimental_stims/localizer/faces/joseph-gonzalez-iFgRcqHznqg-unsplash.jpg","1","faces","","0","1","0","0.4","90.79999999999995"
"","iti_localizer","","html-keyboard-response","215","92826","0.0-2.0-79.0-1.0","1","98260","","null","","","","null","","77","","","1","","","","","","0.3","91.19999999999996"
"","localizer","","html-keyboard-response","216","93231","0.0-2.0-80.0-0.0","1","98260","","NaN","","","","null","NaN","78","","Stimuli/Experimental_stims/localizer/faces/alexis-chloe-TYDkKEgc0Fg-unsplash.jpg","1","faces","","0","1","0","0.4","91.49999999999996"
"","iti_localizer","","html-keyboard-response","217","93541","0.0-2.0-80.0-1.0","1","98260","","null","","","","null","","78","","","1","","","","","","0.3","91.89999999999996"
"","localizer","","html-keyboard-response","218","93957","0.0-2.0-81.0-0.0","1","98260","","NaN","","","","null","NaN","79","","Stimuli/Experimental_stims/localizer/faces/jeffery-erhunse-vp9mRauo68c-unsplash.jpg","1","faces","","0","1","0","0.4","92.19999999999996"
"","iti_localizer","","html-keyboard-response","219","94270","0.0-2.0-81.0-1.0","1","98260","","null","","","","null","","79","","","1","","","","","","0.3","92.59999999999997"
"","localizer","","html-keyboard-response","220","94682","0.0-2.0-82.0-0.0","1","98260","","NaN","","","","null","NaN","80","","Stimuli/Experimental_stims/localizer/faces/christian-ferrer-8vT-DgHZDG4-unsplash.jpg","1","faces","","0","1","0","0.4","92.89999999999996"
"","iti_localizer","","html-keyboard-response","221","95207","0.0-2.0-82.0-1.0","1","98260","","null","","","","null","","80","","","1","","","","","","0.3","93.29999999999997"
"","localizer","","html-keyboard-response","222","95642","0.0-2.0-83.0-0.0","1","98260","","NaN","","","","null","NaN","81","","Stimuli/Experimental_stims/localizer/faces/ethan-haddox-__ng3cRXmFE-unsplash.jpg","1","faces","","0","1","0","0.4","93.59999999999997"
"","iti_localizer","","html-keyboard-response","223","95955","0.0-2.0-83.0-1.0","1","98260","","null","","","","null","","81","","","1","","","","","","0.3","93.99999999999997"
"","localizer","","html-keyboard-response","224","96367","0.0-2.0-84.0-0.0","1","98260","","NaN","","","","null","NaN","82","","Stimuli/Experimental_stims/localizer/faces/prince-akachi-LWkFHEGpleE-unsplash.jpg","1","faces","","0","1","0","0.4","94.29999999999997"
"","iti_localizer","","html-keyboard-response","225","96677","0.0-2.0-84.0-1.0","1","98260","","null","","","","null","","82","","","1","","","","","","0.3","94.69999999999997"
"","localizer","","html-keyboard-response","226","97089","0.0-2.0-85.0-0.0","1","98260","","NaN","","","","null","NaN","83","","Stimuli/Experimental_stims/localizer/faces/philip-martin-5aGUyCW_PJw-unsplash.jpg","1","faces","","0","1","0","0.4","94.99999999999997"
"","iti_localizer","","html-keyboard-response","227","97406","0.0-2.0-85.0-1.0","1","98260","","null","","","","null","","83","","","1","","","","","","0.3","95.39999999999998"
"","localizer","","html-keyboard-response","228","97819","0.0-2.0-86.0-0.0","1","98260","","NaN","","","","null","NaN","84","","Stimuli/Experimental_stims/localizer/faces/janaya-dasiuk-_A2LZdUqHgA-unsplash.jpg","1","faces","","0","1","0","0.4","95.69999999999997"
"","iti_localizer","","html-keyboard-response","229","98131","0.0-2.0-86.0-1.0","1","98260","","null","","","","null","","84","","","1","","","","","","0.3","96.09999999999998"
"","localizer","","html-keyboard-response","230","98537","0.0-2.0-87.0-0.0","1","98260","","NaN","","","","null","NaN","85","","Stimuli/Experimental_stims/localizer/faces/christian-buehner-DItYlc26zVI-unsplash.jpg","1","faces","","1","1","0","0.4","96.39999999999998"
"","iti_localizer","","html-keyboard-response","231","98846","0.0-2.0-87.0-1.0","1","98260","","null","","","","null","","85","","","1","","","","","","14","96.79999999999998"
"","localizer","","html-keyboard-response","232","99259","0.0-2.0-88.0-0.0","1","98260","","NaN","","","","null","NaN","86","","Stimuli/Experimental_stims/localizer/outdoor_scenes/nikola-majksner-hXNGeAFOgT4-unsplash.jpg","1","outdoor_scenes","","0","1","0","0.4","110.79999999999998"
"","iti_localizer","","html-keyboard-response","233","99573","0.0-2.0-88.0-1.0","1","98260","","null","","","","null","","86","","","1","","","","","","0.3","111.19999999999999"
"","localizer","","html-keyboard-response","234","99980","0.0-2.0-89.0-0.0","1","98260","","NaN","","","","null","NaN","87","","Stimuli/Experimental_stims/localizer/outdoor_scenes/simon-berger-twukN12EN7c-unsplash.jpg","1","outdoor_scenes","","0","1","0","0.4","111.49999999999999"
"","iti_localizer","","html-keyboard-response","235","100293","0.0-2.0-89.0-1.0","1","98260","","null","","","","null","","87","","","1","","","","","","0.3","111.89999999999999"
"","localizer","","html-keyboard-response","236","100706","0.0-2.0-90.0-0.0","1","98260","","NaN","","","","null","NaN","88","","Stimuli/Experimental_stims/localizer/outdoor_scenes/benjamin-davies-Zm2n2O7Fph4-unsplash.jpg","1","outdoor_scenes","","0","1","0","0.4","112.19999999999999"
"","iti_localizer","","html-keyboard-response","237","101016","0.0-2.0-90.0-1.0","1","98260","","null","","","","null","","88","","","1","","","","","","0.3","112.6"
"","localizer","","html-keyboard-response","238","101427","0.0-2.0-91.0-0.0","1","98260","","NaN","","","","null","NaN","89","","Stimuli/Experimental_stims/localizer/outdoor_scenes/alessio-furlan-Vw3a0HgE7AM-unsplash.jpg","1","outdoor_scenes","","0","1","0","0.4","112.89999999999999"
"","iti_localizer","","html-keyboard-response","239","101741","0.0-2.0-91.0-1.0","1","98260","","null","","","","null","","89","","","1","","","","","","0.3","113.3"
"","localizer","","html-keyboard-response","240","102159","0.0-2.0-92.0-0.0","1","98260","","NaN","","","","null","NaN","90","","Stimuli/Experimental_stims/localizer/outdoor_scenes/v2osk-1Z2niiBPg5A-unsplash.jpg","1","outdoor_scenes","","0","1","0","0.4","113.6"
"","iti_localizer","","html-keyboard-response","241","102468","0.0-2.0-92.0-1.0","1","98260","","null","","","","null","","90","","","1","","","","","","0.3","114"
"","localizer","","html-keyboard-response","242","102886","0.0-2.0-93.0-0.0","1","98260","","NaN","","","","null","NaN","91","","Stimuli/Experimental_stims/localizer/outdoor_scenes/samuel-ferrara-IEHPDNk2-8w-unsplash.jpg","1","outdoor_scenes","","0","1","0","0.4","114.3"
"","iti_localizer","","html-keyboard-response","243","103199","0.0-2.0-93.0-1.0","1","98260","","null","","","","null","","91","","","1","","","","","","0.3","114.7"
"","localizer","","html-keyboard-response","244","103615","0.0-2.0-94.0-0.0","1","98260","","NaN","","","","null","NaN","92","","Stimuli/Experimental_stims/localizer/outdoor_scenes/eberhard-grossgasteiger-y2azHvupCVo-unsplash.jpg","1","outdoor_scenes","","0","1","0","0.4","115"
"","iti_localizer","","html-keyboard-response","245","103924","0.0-2.0-94.0-1.0","1","98260","","null","","","","null","","92","","","1","","","","","","0.3","115.4"
"","localizer","","html-keyboard-response","246","104333","0.0-2.0-95.0-0.0","1","98260","","NaN","","","","null","NaN","93","","Stimuli/Experimental_stims/localizer/outdoor_scenes/julien-lavallee-X2DE1VmN7x4-unsplash.jpg","1","outdoor_scenes","","1","1","0","0.4","115.7"
"","iti_localizer","","html-keyboard-response","247","104642","0.0-2.0-95.0-1.0","1","98260","","null","","","","null","","93","","","1","","","","","","0.3","116.10000000000001"
"","localizer","","html-keyboard-response","248","105050","0.0-2.0-96.0-0.0","1","98260","","NaN","","","","null","NaN","94","","Stimuli/Experimental_stims/localizer/outdoor_scenes/quentin-zwzeorQPepo-unsplash.jpg","1","outdoor_scenes","","0","1","0","0.4","116.4"
"","iti_localizer","","html-keyboard-response","249","105364","0.0-2.0-96.0-1.0","1","98260","","null","","","","null","","94","","","1","","","","","","0.3","116.80000000000001"
"","localizer","","html-keyboard-response","250","105782","0.0-2.0-97.0-0.0","1","98260","","NaN","","","","null","NaN","95","","Stimuli/Experimental_stims/localizer/outdoor_scenes/tim-swaan-eOpewngf68w-unsplash (1).jpg","1","outdoor_scenes","","0","1","0","0.4","117.10000000000001"
"","iti_localizer","","html-keyboard-response","251","106090","0.0-2.0-97.0-1.0","1","98260","","null","","","","null","","95","","","1","","","","","","0.3","117.50000000000001"
"","localizer","","html-keyboard-response","252","106502","0.0-2.0-98.0-0.0","1","98260","","NaN","","","","null","NaN","96","","Stimuli/Experimental_stims/localizer/outdoor_scenes/erol-ahmed-d3pTF3r_hwY-unsplash.jpg","1","outdoor_scenes","","0","1","0","0.4","117.80000000000001"
"","iti_localizer","","html-keyboard-response","253","106811","0.0-2.0-98.0-1.0","1","98260","","null","","","","null","","96","","","1","","","","","","0.3","118.20000000000002"
"","localizer","","html-keyboard-response","254","107224","0.0-2.0-99.0-0.0","1","98260","","NaN","","","","null","NaN","97","","Stimuli/Experimental_stims/localizer/outdoor_scenes/solotravelgoals-7kLufxYoqWk-unsplash.jpg","1","outdoor_scenes","","0","1","0","0.4","118.50000000000001"
"","iti_localizer","","html-keyboard-response","255","107534","0.0-2.0-99.0-1.0","1","98260","","null","","","","null","","97","","","1","","","","","","0.3","118.90000000000002"
"","localizer","","html-keyboard-response","256","107949","0.0-2.0-100.0-0.0","1","98260","","NaN","","","","null","NaN","98","","Stimuli/Experimental_stims/localizer/outdoor_scenes/jack-millard-zjyP-UYI-ko-unsplash.jpg","1","outdoor_scenes","","0","1","0","0.4","119.20000000000002"
"","iti_localizer","","html-keyboard-response","257","108259","0.0-2.0-100.0-1.0","1","98260","","null","","","","null","","98","","","1","","","","","","0.3","119.60000000000002"
"","localizer","","html-keyboard-response","258","108670","0.0-2.0-101.0-0.0","1","98260","","NaN","","","","null","NaN","99","","Stimuli/Experimental_stims/localizer/outdoor_scenes/john-lee-oMneOBYhJxY-unsplash.jpg","1","outdoor_scenes","","1","1","0","0.4","119.90000000000002"
"","iti_localizer","","html-keyboard-response","259","108978","0.0-2.0-101.0-1.0","1","98260","","null","","","","null","","99","","","1","","","","","","0.3","120.30000000000003"
"","localizer","","html-keyboard-response","260","109390","0.0-2.0-102.0-0.0","1","98260","","NaN","","","","null","NaN","100","","Stimuli/Experimental_stims/localizer/outdoor_scenes/jordan-heath-4z_SYrG5mgA-unsplash.jpg","1","outdoor_scenes","","0","1","0","0.4","120.60000000000002"
"","iti_localizer","","html-keyboard-response","261","109697","0.0-2.0-102.0-1.0","1","98260","","null","","","","null","","100","","","1","","","","","","0.3","121.00000000000003"
"","localizer","","html-keyboard-response","262","110110","0.0-2.0-103.0-0.0","1","98260","","NaN","","","","null","NaN","101","","Stimuli/Experimental_stims/localizer/outdoor_scenes/pietro-de-grandi-T7K4aEPoGGk-unsplash.jpg","1","outdoor_scenes","","0","1","0","0.4","121.30000000000003"
"","iti_localizer","","html-keyboard-response","263","110423","0.0-2.0-103.0-1.0","1","98260","","null","","","","null","","101","","","1","","","","","","0.3","121.70000000000003"
"","localizer","","html-keyboard-response","264","110835","0.0-2.0-104.0-0.0","1","98260","","NaN","","","","null","NaN","102","","Stimuli/Experimental_stims/localizer/outdoor_scenes/sebastian-unrau-v4e3JI7DDHI-unsplash.jpg","1","outdoor_scenes","","0","1","0","0.4","122.00000000000003"
"","iti_localizer","","html-keyboard-response","265","111148","0.0-2.0-104.0-1.0","1","98260","","null","","","","null","","102","","","1","","","","","","0.3","122.40000000000003"
"","localizer","","html-keyboard-response","266","111559","0.0-2.0-105.0-0.0","1","98260","","NaN","","","","null","NaN","103","","Stimuli/Experimental_stims/localizer/outdoor_scenes/bruno-van-der-kraan-qez8mNJ3ilU-unsplash.jpg","1","outdoor_scenes","","0","1","0","0.4","122.70000000000003"
"","iti_localizer","","html-keyboard-response","267","111867","0.0-2.0-105.0-1.0","1","98260","","null","","","","null","","103","","","1","","","","","","0.3","123.10000000000004"
"","localizer","","html-keyboard-response","268","112276","0.0-2.0-106.0-0.0","1","98260","","NaN","","","","null","NaN","104","","Stimuli/Experimental_stims/localizer/outdoor_scenes/john-fowler-aaIN3y2zcMQ-unsplash.jpg","1","outdoor_scenes","","0","1","0","0.4","123.40000000000003"
"","iti_localizer","","html-keyboard-response","269","112586","0.0-2.0-106.0-1.0","1","98260","","null","","","","null","","104","","","1","","","","","","0.3","123.80000000000004"
"","localizer","","html-keyboard-response","270","112997","0.0-2.0-107.0-0.0","1","98260","","NaN","","","","null","NaN","105","","Stimuli/Experimental_stims/localizer/outdoor_scenes/cosmic-timetraveler-pYyOZ8q7AII-unsplash.jpg","1","outdoor_scenes","","0","1","0","0.4","124.10000000000004"
"","iti_localizer","","html-keyboard-response","271","113306","0.0-2.0-107.0-1.0","1","98260","","null","","","","null","","105","","","1","","","","","","14","124.50000000000004"
"","localizer","","html-keyboard-response","272","113714","0.0-2.0-108.0-0.0","1","98260","","NaN","","","","null","NaN","106","","Stimuli/Experimental_stims/localizer/objects/girl-with-red-hat-Xxg-r574pLE-unsplash.jpg","1","objects","","0","1","0","0.4","138.50000000000006"
"","iti_localizer","","html-keyboard-response","273","114029","0.0-2.0-108.0-1.0","1","98260","","null","","","","null","","106","","","1","","","","","","0.3","138.90000000000006"
"","localizer","","html-keyboard-response","274","114444","0.0-2.0-109.0-0.0","1","98260","","NaN","","","","null","NaN","107","","Stimuli/Experimental_stims/localizer/objects/collab-media-eddtBBbaw0Y-unsplash.jpg","1","objects","","1","1","0","0.4","139.20000000000007"
"","iti_localizer","","html-keyboard-response","275","114759","0.0-2.0-109.0-1.0","1","98260","","null","","","","null","","107","","","1","","","","","","0.3","139.60000000000008"
"","localizer","","html-keyboard-response","276","115169","0.0-2.0-110.0-0.0","1","98260","","NaN","","","","null","NaN","108","","Stimuli/Experimental_stims/localizer/objects/maria-lupan-Rlakka_pZMU-unsplash.jpg","1","objects","","0","1","0","0.4","139.9000000000001"
"","iti_localizer","","html-keyboard-response","277","115482","0.0-2.0-110.0-1.0","1","98260","","null","","","","null","","108","","","1","","","","","","0.3","140.3000000000001"
"","localizer","","html-keyboard-response","278","115893","0.0-2.0-111.0-0.0","1","98260","","NaN","","","","null","NaN","109","","Stimuli/Experimental_stims/localizer/objects/mockup-graphics-U6ZMEefFGx8-unsplash.jpg","1","objects","","0","1","0","0.4","140.6000000000001"
"","iti_localizer","","html-keyboard-response","279","116205","0.0-2.0-111.0-1.0","1","98260","","null","","","","null","","109","","","1","","","","","","0.3","141.0000000000001"
"","localizer","","html-keyboard-response","280","116617","0.0-2.0-112.0-0.0","1","98260","","NaN","","","","null","NaN","110","","Stimuli/Experimental_stims/localizer/objects/adriano-pucciarelli-BE7yaZnZX6o-unsplash.jpg","1","objects","","0","1","0","0.4","141.30000000000013"
"","iti_localizer","","html-keyboard-response","281","116932","0.0-2.0-112.0-1.0","1","98260","","null","","","","null","","110","","","1","","","","","","0.3","141.70000000000013"
"","localizer","","html-keyboard-response","282","117349","0.0-2.0-113.0-0.0","1","98260","","NaN","","","","null","NaN","111","","Stimuli/Experimental_stims/localizer/objects/adriano-pucciarelli-Jl3S1yM8gi8-unsplash.jpg","1","objects","","0","1","0","0.4","142.00000000000014"
"","iti_localizer","","html-keyboard-response","283","117657","0.0-2.0-113.0-1.0","1","98260","","null","","","","null","","111","","","1","","","","","","0.3","142.40000000000015"
"","localizer","","html-keyboard-response","284","118065","0.0-2.0-114.0-0.0","1","98260","","NaN","","","","null","NaN","112","","Stimuli/Experimental_stims/localizer/objects/chris-briggs-x9TCnxNBofE-unsplash.jpg","1","objects","","1","1","0","0.4","142.70000000000016"
"","iti_localizer","","html-keyboard-response","285","118376","0.0-2.0-114.0-1.0","1","98260","","null","","","","null","","112","","","1","","","","","","0.3","143.10000000000016"
"","localizer","","html-keyboard-response","286","118791","0.0-2.0-115.0-0.0","1","98260","","NaN","","","","null","NaN","113","","Stimuli/Experimental_stims/localizer/objects/miti-MZPdB1DU4a4-unsplash.jpg","1","objects","","0","1","0","0.4","143.40000000000018"
"","iti_localizer","","html-keyboard-response","287","119103","0.0-2.0-115.0-1.0","1","98260","","null","","","","null","","113","","","1","","","","","","0.3","143.80000000000018"
"","localizer","","html-keyboard-response","288","119518","0.0-2.0-116.0-0.0","1","98260","","NaN","","","","null","NaN","114","","Stimuli/Experimental_stims/localizer/objects/girl-with-red-hat-oJG9HOVKGMs-unsplash.jpg","1","objects","","0","1","0","0.4","144.1000000000002"
"","iti_localizer","","html-keyboard-response","289","119826","0.0-2.0-116.0-1.0","1","98260","","null","","","","null","","114","","","1","","","","","","0.3","144.5000000000002"
"","localizer","","html-keyboard-response","290","120237","0.0-2.0-117.0-0.0","1","98260","","NaN","","","","null","NaN","115","","Stimuli/Experimental_stims/localizer/objects/annie-spratt-fbAnIjhrOL4-unsplash.jpg","1","objects","","0","1","0","0.4","144.8000000000002"
"","iti_localizer","","html-keyboard-response","291","120545","0.0-2.0-117.0-1.0","1","98260","","null","","","","null","","115","","","1","","","","","","0.3","145.20000000000022"
"","localizer","","html-keyboard-response","292","120954","0.0-2.0-118.0-0.0","1","98260","","NaN","","","","null","NaN","116","","Stimuli/Experimental_stims/localizer/objects/chris-briggs-FobzAZJGM9M-unsplash.jpg","1","objects","","0","1","0","0.4","145.50000000000023"
"","iti_localizer","","html-keyboard-response","293","121271","0.0-2.0-118.0-1.0","1","98260","","null","","","","null","","116","","","1","","","","","","0.3","145.90000000000023"
"","localizer","","html-keyboard-response","294","121684","0.0-2.0-119.0-0.0","1","98260","","NaN","","","","null","NaN","117","","Stimuli/Experimental_stims/localizer/objects/mae-mu-yl2d0CKW130-unsplash.jpg","1","objects","","0","1","0","0.4","146.20000000000024"
"","iti_localizer","","html-keyboard-response","295","121996","0.0-2.0-119.0-1.0","1","98260","","null","","","","null","","117","","","1","","","","","","0.3","146.60000000000025"
"","localizer","","html-keyboard-response","296","122406","0.0-2.0-120.0-0.0","1","98260","","NaN","","","","null","NaN","118","","Stimuli/Experimental_stims/localizer/objects/sam-moghadam-khamseh-kvmdsTrGOBM-unsplash.jpg","1","objects","","0","1","0","0.4","146.90000000000026"
"","iti_localizer","","html-keyboard-response","297","122714","0.0-2.0-120.0-1.0","1","98260","","null","","","","null","","118","","","1","","","","","","0.3","147.30000000000027"
"","localizer","","html-keyboard-response","298","123126","0.0-2.0-121.0-0.0","1","98260","","NaN","","","","null","NaN","119","","Stimuli/Experimental_stims/localizer/objects/sam-moghadam-khamseh-xej3GOtAQ-o-unsplash.jpg","1","objects","","0","1","0","0.4","147.60000000000028"
"","iti_localizer","","html-keyboard-response","299","123438","0.0-2.0-121.0-1.0","1","98260","","null","","","","null","","119","","","1","","","","","","0.3","148.00000000000028"
"","localizer","","html-keyboard-response","300","123853","0.0-2.0-122.0-0.0","1","98260","","NaN","","","","null","NaN","120","","Stimuli/Experimental_stims/localizer/objects/hipster-mum-XookgCxFw6Q-unsplash.jpg","1","objects","","0","1","0","0.4","148.3000000000003"
"","iti_localizer","","html-keyboard-response","301","124162","0.0-2.0-122.0-1.0","1","98260","","null","","","","null","","120","","","1","","","","","","0.3","148.7000000000003"
"","localizer","","html-keyboard-response","302","124572","0.0-2.0-123.0-0.0","1","98260","","NaN","","","","null","NaN","121","","Stimuli/Experimental_stims/localizer/objects/nicolas-hippert-SVgX47QIUlc-unsplash.jpg","1","objects","","0","1","0","0.4","149.0000000000003"
"","iti_localizer","","html-keyboard-response","303","124882","0.0-2.0-123.0-1.0","1","98260","","null","","","","null","","121","","","1","","","","","","0.3","149.40000000000032"
"","localizer","","html-keyboard-response","304","125292","0.0-2.0-124.0-0.0","1","98260","","NaN","","","","null","NaN","122","","Stimuli/Experimental_stims/localizer/objects/raimond-klavins-ZdvDPXVvcKs-unsplash.jpg","1","objects","","0","1","0","0.4","149.70000000000033"
"","iti_localizer","","html-keyboard-response","305","125605","0.0-2.0-124.0-1.0","1","98260","","null","","","","null","","122","","","1","","","","","","0.3","150.10000000000034"
"","localizer","","html-keyboard-response","306","126019","0.0-2.0-125.0-0.0","1","98260","","NaN","","","","null","NaN","123","","Stimuli/Experimental_stims/localizer/objects/mockup-graphics-aUkYaG12Dgs-unsplash.jpg","1","objects","","0","1","0","0.4","150.40000000000035"
"","iti_localizer","","html-keyboard-response","307","126331","0.0-2.0-125.0-1.0","1","98260","","null","","","","null","","123","","","1","","","","","","0.3","150.80000000000035"
"","localizer","","html-keyboard-response","308","126740","0.0-2.0-126.0-0.0","1","98260","","NaN","","","","null","NaN","124","","Stimuli/Experimental_stims/localizer/objects/petr-sidorov-3jm5TGqtULU-unsplash.jpg","1","objects","","0","1","0","0.4","151.10000000000036"
"","iti_localizer","","html-keyboard-response","309","127055","0.0-2.0-126.0-1.0","1","98260","","null","","","","null","","124","","","1","","","","","","0.3","151.50000000000037"
"","localizer","","html-keyboard-response","310","127467","0.0-2.0-127.0-0.0","1","98260","","NaN","","","","null","NaN","125","","Stimuli/Experimental_stims/localizer/objects/namroud-gorguis-FZWivbri0Xk-unsplash.jpg","1","objects","","0","1","0","0.4","151.80000000000038"
"","iti_localizer","","html-keyboard-response","311","127782","0.0-2.0-127.0-1.0","1","98260","","null","","","","null","","125","","","1","","","","","","14","152.2000000000004"
"","localizer","","html-keyboard-response","312","128196","0.0-2.0-128.0-0.0","1","98260","","NaN","","","","null","NaN","126","","Stimuli/Experimental_stims/localizer/faces/hisu-lee-2qvxIr_DXGo-unsplash.jpg","1","faces","","0","1","0","0.4","166.2000000000004"
"","iti_localizer","","html-keyboard-response","313","128511","0.0-2.0-128.0-1.0","1","98260","","null","","","","null","","126","","","1","","","","","","0.3","166.6000000000004"
"","localizer","","html-keyboard-response","314","128927","0.0-2.0-129.0-0.0","1","98260","","NaN","","","","null","NaN","127","","Stimuli/Experimental_stims/localizer/faces/abstral-official-cyOKLSgkgCE-unsplash.jpg","1","faces","","0","1","0","0.4","166.9000000000004"
"","iti_localizer","","html-keyboard-response","315","129236","0.0-2.0-129.0-1.0","1","98260","","null","","","","null","","127","","","1","","","","","","0.3","167.3000000000004"
"","localizer","","html-keyboard-response","316","129647","0.0-2.0-130.0-0.0","1","98260","","NaN","","","","null","NaN","128","","Stimuli/Experimental_stims/localizer/faces/brooke-cagle-Nm70URdtf3c-unsplash (1).jpg","1","faces","","0","1","0","0.4","167.60000000000042"
"","iti_localizer","","html-keyboard-response","317","129957","0.0-2.0-130.0-1.0","1","98260","","null","","","","null","","128","","","1","","","","","","0.3","168.00000000000043"
"","localizer","","html-keyboard-response","318","130376","0.0-2.0-131.0-0.0","1","98260","","NaN","","","","null","NaN","129","","Stimuli/Experimental_stims/localizer/faces/ihor-saveliev-3POm-bxWIN8-unsplash.jpg","1","faces","","1","1","0","0.4","168.30000000000044"
"","iti_localizer","","html-keyboard-response","319","130685","0.0-2.0-131.0-1.0","1","98260","","null","","","","null","","129","","","1","","","","","","0.3","168.70000000000044"
"","localizer","","html-keyboard-response","320","131095","0.0-2.0-132.0-0.0","1","98260","","NaN","","","","null","NaN","130","","Stimuli/Experimental_stims/localizer/faces/jakob-owens-lkMJcGDZLVs-unsplash.jpg","1","faces","","0","1","0","0.4","169.00000000000045"
"","iti_localizer","","html-keyboard-response","321","131407","0.0-2.0-132.0-1.0","1","98260","","null","","","","null","","130","","","1","","","","","","0.3","169.40000000000046"
"","localizer","","html-keyboard-response","322","131820","0.0-2.0-133.0-0.0","1","98260","","NaN","","","","null","NaN","131","","Stimuli/Experimental_stims/localizer/faces/stephanie-nakagawa-ADSKIn0ScDg-unsplash.jpg","1","faces","","0","1","0","0.4","169.70000000000047"
"","iti_localizer","","html-keyboard-response","323","132133","0.0-2.0-133.0-1.0","1","98260","","null","","","","null","","131","","","1","","","","","","0.3","170.10000000000048"
"","localizer","","html-keyboard-response","324","132540","0.0-2.0-134.0-0.0","1","98260","","NaN","","","","null","NaN","132","","Stimuli/Experimental_stims/localizer/faces/james-marty-h1BuNJZzpC8-unsplash.jpg","1","faces","","0","1","0","0.4","170.4000000000005"
"","iti_localizer","","html-keyboard-response","325","132853","0.0-2.0-134.0-1.0","1","98260","","null","","","","null","","132","","","1","","","","","","0.3","170.8000000000005"
"","localizer","","html-keyboard-response","326","133270","0.0-2.0-135.0-0.0","1","98260","","NaN","","","","null","NaN","133","","Stimuli/Experimental_stims/localizer/faces/aatik-tasneem-7omHUGhhmZ0-unsplash.jpg","1","faces","","0","1","0","0.4","171.1000000000005"
"","iti_localizer","","html-keyboard-response","327","133582","0.0-2.0-135.0-1.0","1","98260","","null","","","","null","","133","","","1","","","","","","0.3","171.5000000000005"
"","localizer","","html-keyboard-response","328","133998","0.0-2.0-136.0-0.0","1","98260","","NaN","","","","null","NaN","134","","Stimuli/Experimental_stims/localizer/faces/austin-wade-X6Uj51n5CE8-unsplash.jpg","1","faces","","0","1","0","0.4","171.80000000000052"
"","iti_localizer","","html-keyboard-response","329","134308","0.0-2.0-136.0-1.0","1","98260","","null","","","","null","","134","","","1","","","","","","0.3","172.20000000000053"
"","localizer","","html-keyboard-response","330","134720","0.0-2.0-137.0-0.0","1","98260","","NaN","","","","null","NaN","135","","Stimuli/Experimental_stims/localizer/faces/art-hauntington-jzY0KRJopEI-unsplash.jpg","1","faces","","0","1","0","0.4","172.50000000000054"
"","iti_localizer","","html-keyboard-response","331","135029","0.0-2.0-137.0-1.0","1","98260","","null","","","","null","","135","","","1","","","","","","0.3","172.90000000000055"
"","localizer","","html-keyboard-response","332","135445","0.0-2.0-138.0-0.0","1","98260","","NaN","","","","null","NaN","136","","Stimuli/Experimental_stims/localizer/faces/carlos-vaz-KP4bxnxAilU-unsplash.jpg","1","faces","","0","1","0","0.4","173.20000000000056"
"","iti_localizer","","html-keyboard-response","333","135755","0.0-2.0-138.0-1.0","1","98260","","null","","","","null","","136","","","1","","","","","","0.3","173.60000000000056"
"","localizer","","html-keyboard-response","334","136166","0.0-2.0-139.0-0.0","1","98260","","NaN","","","","null","NaN","137","","Stimuli/Experimental_stims/localizer/faces/sean-kong--1B_y4wGs-s-unsplash.jpg","1","faces","","1","1","0","0.4","173.90000000000057"
"","iti_localizer","","html-keyboard-response","335","136479","0.0-2.0-139.0-1.0","1","98260","","null","","","","null","","137","","","1","","","","","","0.3","174.30000000000058"
"","localizer","","html-keyboard-response","336","136890","0.0-2.0-140.0-0.0","1","98260","","NaN","","","","null","NaN","138","","Stimuli/Experimental_stims/localizer/faces/katsiaryna-endruszkiewicz-BteCp6aq4GI-unsplash.jpg","1","faces","","0","1","0","0.4","174.6000000000006"
"","iti_localizer","","html-keyboard-response","337","137204","0.0-2.0-140.0-1.0","1","98260","","null","","","","null","","138","","","1","","","","","","0.3","175.0000000000006"
"","localizer","","html-keyboard-response","338","137617","0.0-2.0-141.0-0.0","1","98260","","NaN","","","","null","NaN","139","","Stimuli/Experimental_stims/localizer/faces/foto-sushi-6anudmpILw4-unsplash.jpg","1","faces","","0","1","0","0.4","175.3000000000006"
"","iti_localizer","","html-keyboard-response","339","137925","0.0-2.0-141.0-1.0","1","98260","","null","","","","null","","139","","","1","","","","","","0.3","175.7000000000006"
"","localizer","","html-keyboard-response","340","138340","0.0-2.0-142.0-0.0","1","98260","","NaN","","","","null","NaN","140","","Stimuli/Experimental_stims/localizer/faces/chanvre-quebec-mXu1SpzHq6w-unsplash.jpg","1","faces","","0","1","0","0.4","176.00000000000063"
"","iti_localizer","","html-keyboard-response","341","138654","0.0-2.0-142.0-1.0","1","98260","","null","","","","null","","140","","","1","","","","","","0.3","176.40000000000063"
"","localizer","","html-keyboard-response","342","139068","0.0-2.0-143.0-0.0","1","98260","","NaN","","","","null","NaN","141","","Stimuli/Experimental_stims/localizer/faces/toa-heftiba-2O1EUSTRBrY-unsplash.jpg","1","faces","","0","1","0","0.4","176.70000000000064"
"","iti_localizer","","html-keyboard-response","343","139382","0.0-2.0-143.0-1.0","1","98260","","null","","","","null","","141","","","1","","","","","","0.3","177.10000000000065"
"","localizer","","html-keyboard-response","344","139795","0.0-2.0-144.0-0.0","1","98260","","NaN","","","","null","NaN","142","","Stimuli/Experimental_stims/localizer/faces/hassan-khan-EGVccebWodM-unsplash.jpg","1","faces","","0","1","0","0.4","177.40000000000066"
"","iti_localizer","","html-keyboard-response","345","140111","0.0-2.0-144.0-1.0","1","98260","","null","","","","null","","142","","","1","","","","","","0.3","177.80000000000067"
"","localizer","","html-keyboard-response","346","140522","0.0-2.0-145.0-0.0","1","98260","","NaN","","","","null","NaN","143","","Stimuli/Experimental_stims/localizer/faces/christopher-campbell-rDEOVtE7vOs-unsplash.jpg","1","faces","","0","1","0","0.4","178.10000000000068"
"","iti_localizer","","html-keyboard-response","347","140834","0.0-2.0-145.0-1.0","1","98260","","null","","","","null","","143","","","1","","","","","","0.3","178.50000000000068"
"","localizer","","html-keyboard-response","348","141246","0.0-2.0-146.0-0.0","1","98260","","NaN","","","","null","NaN","144","","Stimuli/Experimental_stims/localizer/faces/ivan-dodig-R21SyyJDFgc-unsplash.jpg","1","faces","","0","1","0","0.4","178.8000000000007"
"","iti_localizer","","html-keyboard-response","349","141557","0.0-2.0-146.0-1.0","1","98260","","null","","","","null","","144","","","1","","","","","","0.3","179.2000000000007"
"","localizer","","html-keyboard-response","350","141975","0.0-2.0-147.0-0.0","1","98260","","NaN","","","","null","NaN","145","","Stimuli/Experimental_stims/localizer/faces/etty-fidele-nF8eo2nX374-unsplash.jpg","1","faces","","0","1","0","0.4","179.5000000000007"
"","iti_localizer","","html-keyboard-response","351","142282","0.0-2.0-147.0-1.0","1","98260","","null","","","","null","","145","","","1","","","","","","14","179.90000000000072"
"","localizer","","html-keyboard-response","352","142690","0.0-2.0-148.0-0.0","1","98260","","NaN","","","","null","NaN","146","","Stimuli/Experimental_stims/localizer/body_parts/toa-heftiba-qxvWnfHb3-M-unsplash.jpg","1","body_parts","","0","1","0","0.4","193.90000000000072"
"","iti_localizer","","html-keyboard-response","353","143007","0.0-2.0-148.0-1.0","1","98260","","null","","","","null","","146","","","1","","","","","","0.3","194.30000000000072"
"","localizer","","html-keyboard-response","354","143418","0.0-2.0-149.0-0.0","1","98260","","NaN","","","","null","NaN","147","","Stimuli/Experimental_stims/localizer/body_parts/matthew-wheeler-2_UxqsaDMmo-unsplash.jpg","1","body_parts","","0","1","0","0.4","194.60000000000073"
"","iti_localizer","","html-keyboard-response","355","143731","0.0-2.0-149.0-1.0","1","98260","","null","","","","null","","147","","","1","","","","","","0.3","195.00000000000074"
"","localizer","","html-keyboard-response","356","144141","0.0-2.0-150.0-0.0","1","98260","","NaN","","","","null","NaN","148","","Stimuli/Experimental_stims/localizer/body_parts/sydney-herron-b2W04fGuS70-unsplash.jpg","1","body_parts","","0","1","0","0.4","195.30000000000075"
"","iti_localizer","","html-keyboard-response","357","144458","0.0-2.0-150.0-1.0","1","98260","","null","","","","null","","148","","","1","","","","","","0.3","195.70000000000076"
"","localizer","","html-keyboard-response","358","144867","0.0-2.0-151.0-0.0","1","98260","","NaN","","","","null","NaN","149","","Stimuli/Experimental_stims/localizer/body_parts/jeremy-yap-TfJEi17kA0w-unsplash.jpg","1","body_parts","","0","1","0","0.4","196.00000000000077"
"","iti_localizer","","html-keyboard-response","359","145183","0.0-2.0-151.0-1.0","1","98260","","null","","","","null","","149","","","1","","","","","","0.3","196.40000000000077"
"","localizer","","html-keyboard-response","360","145599","0.0-2.0-152.0-0.0","1","98260","","NaN","","","","null","NaN","150","","Stimuli/Experimental_stims/localizer/body_parts/carlos-henrique-NAOJKwZswbs-unsplash.jpg","1","body_parts","","0","1","0","0.4","196.70000000000078"
"","iti_localizer","","html-keyboard-response","361","145908","0.0-2.0-152.0-1.0","1","98260","","null","","","","null","","150","","","1","","","","","","0.3","197.1000000000008"
"","localizer","","html-keyboard-response","362","146319","0.0-2.0-153.0-0.0","1","98260","","NaN","","","","null","NaN","151","","Stimuli/Experimental_stims/localizer/body_parts/marcel-fagin-OUYg0Q3ec-Y-unsplash.jpg","1","body_parts","","0","1","0","0.4","197.4000000000008"
"","iti_localizer","","html-keyboard-response","363","146629","0.0-2.0-153.0-1.0","1","98260","","null","","","","null","","151","","","1","","","","","","0.3","197.8000000000008"
"","localizer","","html-keyboard-response","364","147048","0.0-2.0-154.0-0.0","1","98260","","NaN","","","","null","NaN","152","","Stimuli/Experimental_stims/localizer/body_parts/luisa-denu-o5EU_lUB1rg-unsplash.jpg","1","body_parts","","0","1","0","0.4","198.10000000000082"
"","iti_localizer","","html-keyboard-response","365","147360","0.0-2.0-154.0-1.0","1","98260","","null","","","","null","","152","","","1","","","","","","0.3","198.50000000000082"
"","localizer","","html-keyboard-response","366","147774","0.0-2.0-155.0-0.0","1","98260","","NaN","","","","null","NaN","153","","Stimuli/Experimental_stims/localizer/body_parts/anelya-okapova-V69kmOyZ3SU-unsplash.jpg","1","body_parts","","0","1","0","0.4","198.80000000000084"
"","iti_localizer","","html-keyboard-response","367","148085","0.0-2.0-155.0-1.0","1","98260","","null","","","","null","","153","","","1","","","","","","0.3","199.20000000000084"
"","localizer","","html-keyboard-response","368","148491","0.0-2.0-156.0-0.0","1","98260","","NaN","","","","null","NaN","154","","Stimuli/Experimental_stims/localizer/body_parts/natalie-grainger-8uB5kFKWWkk-unsplash.jpg","1","body_parts","","0","1","0","0.4","199.50000000000085"
"","iti_localizer","","html-keyboard-response","369","148808","0.0-2.0-156.0-1.0","1","98260","","null","","","","null","","154","","","1","","","","","","0.3","199.90000000000086"
"","localizer","","html-keyboard-response","370","149221","0.0-2.0-157.0-0.0","1","98260","","NaN","","","","null","NaN","155","","Stimuli/Experimental_stims/localizer/body_parts/jan-romero-DL4DDQb8yjc-unsplash.jpg","1","body_parts","","0","1","0","0.4","200.20000000000087"
"","iti_localizer","","html-keyboard-response","371","149535","0.0-2.0-157.0-1.0","1","98260","","null","","","","null","","155","","","1","","","","","","0.3","200.60000000000088"
"","localizer","","html-keyboard-response","372","149950","0.0-2.0-158.0-0.0","1","98260","","NaN","","","","null","NaN","156","","Stimuli/Experimental_stims/localizer/body_parts/diana-polekhina-SwWjCbIIoFE-unsplash.jpg","1","body_parts","","1","1","0","0.4","200.9000000000009"
"","iti_localizer","","html-keyboard-response","373","150260","0.0-2.0-158.0-1.0","1","98260","","null","","","","null","","156","","","1","","","","","","0.3","201.3000000000009"
"","localizer","","html-keyboard-response","374","150669","0.0-2.0-159.0-0.0","1","98260","","NaN","","","","null","NaN","157","","Stimuli/Experimental_stims/localizer/body_parts/nick-page-jAGdpOGvLAA-unsplash.jpg","1","body_parts","","0","1","0","0.4","201.6000000000009"
"","iti_localizer","","html-keyboard-response","375","150983","0.0-2.0-159.0-1.0","1","98260","","null","","","","null","","157","","","1","","","","","","0.3","202.0000000000009"
"","localizer","","html-keyboard-response","376","151397","0.0-2.0-160.0-0.0","1","98260","","NaN","","","","null","NaN","158","","Stimuli/Experimental_stims/localizer/body_parts/meghan-thompson-U1b8OB0QpIo-unsplash.jpg","1","body_parts","","0","1","0","0.4","202.30000000000092"
"","iti_localizer","","html-keyboard-response","377","151708","0.0-2.0-160.0-1.0","1","98260","","null","","","","null","","158","","","1","","","","","","0.3","202.70000000000093"
"","localizer","","html-keyboard-response","378","152117","0.0-2.0-161.0-0.0","1","98260","","NaN","","","","null","NaN","159","","Stimuli/Experimental_stims/localizer/body_parts/jonathan-borba-hTwH8QFkPMs-unsplash.jpg","1","body_parts","","0","1","0","0.4","203.00000000000094"
"","iti_localizer","","html-keyboard-response","379","152428","0.0-2.0-161.0-1.0","1","98260","","null","","","","null","","159","","","1","","","","","","0.3","203.40000000000094"
"","localizer","","html-keyboard-response","380","152837","0.0-2.0-162.0-0.0","1","98260","","NaN","","","","null","NaN","160","","Stimuli/Experimental_stims/localizer/body_parts/juja-han-Z8-6EI2tYtw-unsplash.jpg","1","body_parts","","0","1","0","0.4","203.70000000000095"
"","iti_localizer","","html-keyboard-response","381","153152","0.0-2.0-162.0-1.0","1","98260","","null","","","","null","","160","","","1","","","","","","0.3","204.10000000000096"
"","localizer","","html-keyboard-response","382","153566","0.0-2.0-163.0-0.0","1","98260","","NaN","","","","null","NaN","161","","Stimuli/Experimental_stims/localizer/body_parts/pure-julia-9lVaya31sMk-unsplash.jpg","1","body_parts","","0","1","0","0.4","204.40000000000097"
"","iti_localizer","","html-keyboard-response","383","153876","0.0-2.0-163.0-1.0","1","98260","","null","","","","null","","161","","","1","","","","","","0.3","204.80000000000098"
"","localizer","","html-keyboard-response","384","154285","0.0-2.0-164.0-0.0","1","98260","","NaN","","","","null","NaN","162","","Stimuli/Experimental_stims/localizer/body_parts/ben-hartley-RbrsejLGVZ8-unsplash.jpg","1","body_parts","","0","1","0","0.4","205.100000000001"
"","iti_localizer","","html-keyboard-response","385","154599","0.0-2.0-164.0-1.0","1","98260","","null","","","","null","","162","","","1","","","","","","0.3","205.500000000001"
"","localizer","","html-keyboard-response","386","155011","0.0-2.0-165.0-0.0","1","98260","","NaN","","","","null","NaN","163","","Stimuli/Experimental_stims/localizer/body_parts/kai-wenzel-zYDJOxjaZrQ-unsplash.jpg","1","body_parts","","0","1","0","0.4","205.800000000001"
"","iti_localizer","","html-keyboard-response","387","155327","0.0-2.0-165.0-1.0","1","98260","","null","","","","null","","163","","","1","","","","","","0.3","206.200000000001"
"","localizer","","html-keyboard-response","388","155740","0.0-2.0-166.0-0.0","1","98260","","NaN","","","","null","NaN","164","","Stimuli/Experimental_stims/localizer/body_parts/deborah-diem-ieVxpPjl1e0-unsplash.jpg","1","body_parts","","1","1","0","0.4","206.50000000000102"
"","iti_localizer","","html-keyboard-response","389","156053","0.0-2.0-166.0-1.0","1","98260","","null","","","","null","","164","","","1","","","","","","0.3","206.90000000000103"
"","localizer","","html-keyboard-response","390","156462","0.0-2.0-167.0-0.0","1","98260","","NaN","","","","null","NaN","165","","Stimuli/Experimental_stims/localizer/body_parts/louisa-potter-zd29nBmLuig-unsplash.jpg","1","body_parts","","0","1","0","0.4","207.20000000000104"
"","iti_localizer","","html-keyboard-response","391","156776","0.0-2.0-167.0-1.0","1","98260","","null","","","","null","","165","","","1","","","","","","14","207.60000000000105"
"","localizer","","html-keyboard-response","392","157192","0.0-2.0-168.0-0.0","1","98260","","NaN","","","","null","NaN","166","","Stimuli/Experimental_stims/localizer/faces/samuel-dixon--fQ5XNOcqFQ-unsplash.jpg","1","faces","","0","1","0","0.4","221.60000000000105"
"","iti_localizer","","html-keyboard-response","393","157503","0.0-2.0-168.0-1.0","1","98260","","null","","","","null","","166","","","1","","","","","","0.3","222.00000000000105"
"","localizer","","html-keyboard-response","394","157918","0.0-2.0-169.0-0.0","1","98260","","NaN","","","","null","NaN","167","","Stimuli/Experimental_stims/localizer/faces/gabriel-silverio-u3WmDyKGsrY-unsplash.jpg","1","faces","","0","1","0","0.4","222.30000000000106"
"","iti_localizer","","html-keyboard-response","395","158231","0.0-2.0-169.0-1.0","1","98260","","null","","","","null","","167","","","1","","","","","","0.3","222.70000000000107"
"","localizer","","html-keyboard-response","396","158644","0.0-2.0-170.0-0.0","1","98260","","NaN","","","","null","NaN","168","","Stimuli/Experimental_stims/localizer/faces/jimmy-fermin-bqe0J0b26RQ-unsplash.jpg","1","faces","","0","1","0","0.4","223.00000000000108"
"","iti_localizer","","html-keyboard-response","397","158958","0.0-2.0-170.0-1.0","1","98260","","null","","","","null","","168","","","1","","","","","","0.3","223.40000000000109"
"","localizer","","html-keyboard-response","398","159377","0.0-2.0-171.0-0.0","1","98260","","NaN","","","","null","NaN","169","","Stimuli/Experimental_stims/localizer/faces/icons8-team-6LZuSzSwso0-unsplash.jpg","1","faces","","0","1","0","0.4","223.7000000000011"
"","iti_localizer","","html-keyboard-response","399","159688","0.0-2.0-171.0-1.0","1","98260","","null","","","","null","","169","","","1","","","","","","0.3","224.1000000000011"
"","localizer","","html-keyboard-response","400","160102","0.0-2.0-172.0-0.0","1","98260","","NaN","","","","null","NaN","170","","Stimuli/Experimental_stims/localizer/faces/ayo-ogunseinde-sibVwORYqs0-unsplash.jpg","1","faces","","0","1","0","0.4","224.4000000000011"
"","iti_localizer","","html-keyboard-response","401","160416","0.0-2.0-172.0-1.0","1","98260","","null","","","","null","","170","","","1","","","","","","0.3","224.80000000000112"
"","localizer","","html-keyboard-response","402","160829","0.0-2.0-173.0-0.0","1","98260","","NaN","","","","null","NaN","171","","Stimuli/Experimental_stims/localizer/faces/ben-scott-tWb7IsL9CnY-unsplash.jpg","1","faces","","0","1","0","0.4","225.10000000000113"
"","iti_localizer","","html-keyboard-response","403","161142","0.0-2.0-173.0-1.0","1","98260","","null","","","","null","","171","","","1","","","","","","0.3","225.50000000000114"
"","localizer","","html-keyboard-response","404","161556","0.0-2.0-174.0-0.0","1","98260","","NaN","","","","null","NaN","172","","Stimuli/Experimental_stims/localizer/faces/cdc-ddKBuWekZr0-unsplash.jpg","1","faces","","0","1","0","0.4","225.80000000000115"
"","iti_localizer","","html-keyboard-response","405","161872","0.0-2.0-174.0-1.0","1","98260","","null","","","","null","","172","","","1","","","","","","0.3","226.20000000000115"
"","localizer","","html-keyboard-response","406","162284","0.0-2.0-175.0-0.0","1","98260","","NaN","","","","null","NaN","173","","Stimuli/Experimental_stims/localizer/faces/mathias-huysmans-U4JDjYmjn1g-unsplash.jpg","1","faces","","0","1","0","0.4","226.50000000000117"
"","iti_localizer","","html-keyboard-response","407","162597","0.0-2.0-175.0-1.0","1","98260","","null","","","","null","","173","","","1","","","","","","0.3","226.90000000000117"
"","localizer","","html-keyboard-response","408","163007","0.0-2.0-176.0-0.0","1","98260","","NaN","","","","null","NaN","174","","Stimuli/Experimental_stims/localizer/faces/filipe-almeida-mnEWC72eWDM-unsplash.jpg","1","faces","","0","1","0","0.4","227.20000000000118"
"","iti_localizer","","html-keyboard-response","409","163321","0.0-2.0-176.0-1.0","1","98260","","null","","","","null","","174","","","1","","","","","","0.3","227.6000000000012"
"","localizer","","html-keyboard-response","410","163736","0.0-2.0-177.0-0.0","1","98260","","NaN","","","","null","NaN","175","","Stimuli/Experimental_stims/localizer/faces/ian-dooley-d1UPkiFd04A-unsplash.jpg","1","faces","","1","1","0","0.4","227.9000000000012"
"","iti_localizer","","html-keyboard-response","411","164050","0.0-2.0-177.0-1.0","1","98260","","null","","","","null","","175","","","1","","","","","","0.3","228.3000000000012"
"","localizer","","html-keyboard-response","412","164462","0.0-2.0-178.0-0.0","1","98260","","NaN","","","","null","NaN","176","","Stimuli/Experimental_stims/localizer/faces/ivana-cajina-_7LbC5J-jw4-unsplash.jpg","1","faces","","0","1","0","0.4","228.60000000000122"
"","iti_localizer","","html-keyboard-response","413","164776","0.0-2.0-178.0-1.0","1","98260","","null","","","","null","","176","","","1","","","","","","0.3","229.00000000000122"
"","localizer","","html-keyboard-response","414","165190","0.0-2.0-179.0-0.0","1","98260","","NaN","","","","null","NaN","177","","Stimuli/Experimental_stims/localizer/faces/drew-hays-agGIKYs4mYs-unsplash.jpg","1","faces","","0","1","0","0.4","229.30000000000123"
"","iti_localizer","","html-keyboard-response","415","165498","0.0-2.0-179.0-1.0","1","98260","","null","","","","null","","177","","","1","","","","","","0.3","229.70000000000124"
"","localizer","","html-keyboard-response","416","165911","0.0-2.0-180.0-0.0","1","98260","","NaN","","","","null","NaN","178","","Stimuli/Experimental_stims/localizer/faces/mubariz-mehdizadeh-o-wlIFT4zE4-unsplash.jpg","1","faces","","1","1","0","0.4","230.00000000000125"
"","iti_localizer","","html-keyboard-response","417","166220","0.0-2.0-180.0-1.0","1","98260","","null","","","","null","","178","","","1","","","","","","0.3","230.40000000000126"
"","localizer","","html-keyboard-response","418","166632","0.0-2.0-181.0-0.0","1","98260","","NaN","","","","null","NaN","179","","Stimuli/Experimental_stims/localizer/faces/ayo-ogunseinde-6W4F62sN_yI-unsplash.jpg","1","faces","","0","1","0","0.4","230.70000000000127"
"","iti_localizer","","html-keyboard-response","419","166942","0.0-2.0-181.0-1.0","1","98260","","null","","","","null","","179","","","1","","","","","","0.3","231.10000000000127"
"","localizer","","html-keyboard-response","420","167352","0.0-2.0-182.0-0.0","1","98260","","NaN","","","","null","NaN","180","","Stimuli/Experimental_stims/localizer/faces/aiony-haust-K0DxxljcRv0-unsplash.jpg","1","faces","","0","1","0","0.4","231.40000000000128"
"","iti_localizer","","html-keyboard-response","421","167660","0.0-2.0-182.0-1.0","1","98260","","null","","","","null","","180","","","1","","","","","","0.3","231.8000000000013"
"","localizer","","html-keyboard-response","422","168073","0.0-2.0-183.0-0.0","1","98260","","NaN","","","","null","NaN","181","","Stimuli/Experimental_stims/localizer/faces/allef-vinicius-C_1jjFJioWg-unsplash.jpg","1","faces","","0","1","0","0.4","232.1000000000013"
"","iti_localizer","","html-keyboard-response","423","168382","0.0-2.0-183.0-1.0","1","98260","","null","","","","null","","181","","","1","","","","","","0.3","232.5000000000013"
"","localizer","","html-keyboard-response","424","168798","0.0-2.0-184.0-0.0","1","98260","","NaN","","","","null","NaN","182","","Stimuli/Experimental_stims/localizer/faces/imansyah-muhamad-putera-n4KewLKFOZw-unsplash.jpg","1","faces","","0","1","0","0.4","232.80000000000132"
"","iti_localizer","","html-keyboard-response","425","169108","0.0-2.0-184.0-1.0","1","98260","","null","","","","null","","182","","","1","","","","","","0.3","233.20000000000132"
"","localizer","","html-keyboard-response","426","169517","0.0-2.0-185.0-0.0","1","98260","","NaN","","","","null","NaN","183","","Stimuli/Experimental_stims/localizer/faces/toa-heftiba-O3ymvT7Wf9U-unsplash.jpg","1","faces","","0","1","0","0.4","233.50000000000134"
"","iti_localizer","","html-keyboard-response","427","169826","0.0-2.0-185.0-1.0","1","98260","","null","","","","null","","183","","","1","","","","","","0.3","233.90000000000134"
"","localizer","","html-keyboard-response","428","170234","0.0-2.0-186.0-0.0","1","98260","","NaN","","","","null","NaN","184","","Stimuli/Experimental_stims/localizer/faces/juan-encalada-WC7KIHo13Fc-unsplash.jpg","1","faces","","0","1","0","0.4","234.20000000000135"
"","iti_localizer","","html-keyboard-response","429","170541","0.0-2.0-186.0-1.0","1","98260","","null","","","","null","","184","","","1","","","","","","0.3","234.60000000000136"
"","localizer","","html-keyboard-response","430","170952","0.0-2.0-187.0-0.0","1","98260","","NaN","","","","null","NaN","185","","Stimuli/Experimental_stims/localizer/faces/linkedin-sales-solutions-pAtA8xe_iVM-unsplash.jpg","1","faces","","0","1","0","0.4","234.90000000000137"
"","iti_localizer","","html-keyboard-response","431","171266","0.0-2.0-187.0-1.0","1","98260","","null","","","","null","","185","","","1","","","","","","14","235.30000000000138"
"","localizer","","html-keyboard-response","432","171676","0.0-2.0-188.0-0.0","1","98260","","NaN","","","","null","NaN","186","","Stimuli/Experimental_stims/localizer/objects/mockup-graphics-v_a3DWpOFc0-unsplash.jpg","1","objects","","0","1","0","0.4","249.30000000000138"
"","iti_localizer","","html-keyboard-response","433","171987","0.0-2.0-188.0-1.0","1","98260","","null","","","","null","","186","","","1","","","","","","0.3","249.70000000000138"
"","localizer","","html-keyboard-response","434","172400","0.0-2.0-189.0-0.0","1","98260","","NaN","","","","null","NaN","187","","Stimuli/Experimental_stims/localizer/objects/kelly-jean-cKjbI0Y00X0-unsplash.jpg","1","objects","","0","1","0","0.4","250.0000000000014"
"","iti_localizer","","html-keyboard-response","435","172713","0.0-2.0-189.0-1.0","1","98260","","null","","","","null","","187","","","1","","","","","","0.3","250.4000000000014"
"","localizer","","html-keyboard-response","436","173127","0.0-2.0-190.0-0.0","1","98260","","NaN","","","","null","NaN","188","","Stimuli/Experimental_stims/localizer/objects/designecologist-hvgd0ygXuQQ-unsplash.jpg","1","objects","","0","1","0","0.4","250.7000000000014"
"","iti_localizer","","html-keyboard-response","437","173438","0.0-2.0-190.0-1.0","1","98260","","null","","","","null","","188","","","1","","","","","","0.3","251.10000000000142"
"","localizer","","html-keyboard-response","438","173847","0.0-2.0-191.0-0.0","1","98260","","NaN","","","","null","NaN","189","","Stimuli/Experimental_stims/localizer/objects/alex-lvrs-2zDw14yCYqk-unsplash.jpg","1","objects","","0","1","0","0.4","251.40000000000143"
"","iti_localizer","","html-keyboard-response","439","174160","0.0-2.0-191.0-1.0","1","98260","","null","","","","null","","189","","","1","","","","","","0.3","251.80000000000143"
"","localizer","","html-keyboard-response","440","174573","0.0-2.0-192.0-0.0","1","98260","","NaN","","","","null","NaN","190","","Stimuli/Experimental_stims/localizer/objects/ryunosuke-kikuno-viEzuL1ouDs-unsplash.jpg","1","objects","","0","1","0","0.4","252.10000000000144"
"","iti_localizer","","html-keyboard-response","441","174886","0.0-2.0-192.0-1.0","1","98260","","null","","","","null","","190","","","1","","","","","","0.3","252.50000000000145"
"","localizer","","html-keyboard-response","442","175301","0.0-2.0-193.0-0.0","1","98260","","NaN","","","","null","NaN","191","","Stimuli/Experimental_stims/localizer/objects/barrett-ward-0lMpQaXfOCg-unsplash.jpg","1","objects","","0","1","0","0.4","252.80000000000146"
"","iti_localizer","","html-keyboard-response","443","175613","0.0-2.0-193.0-1.0","1","98260","","null","","","","null","","191","","","1","","","","","","0.3","253.20000000000147"
"","localizer","","html-keyboard-response","444","176026","0.0-2.0-194.0-0.0","1","98260","","NaN","","","","null","NaN","192","","Stimuli/Experimental_stims/localizer/objects/yossy-made-yulian-WaEqwDSIeTY-unsplash.jpg","1","objects","","1","1","0","0.4","253.50000000000148"
"","iti_localizer","","html-keyboard-response","445","176332","0.0-2.0-194.0-1.0","1","98260","","null","","","","null","","192","","","1","","","","","","0.3","253.90000000000148"
"","localizer","","html-keyboard-response","446","176742","0.0-2.0-195.0-0.0","1","98260","","NaN","","","","null","NaN","193","","Stimuli/Experimental_stims/localizer/objects/andrew-petrov-TVJqDat4MAw-unsplash.jpg","1","objects","","0","1","0","0.4","254.2000000000015"
