"success","ttype","start_time","trial_type","trial_index","time_elapsed","internal_node_id","age","PID","gender","rt","responses","view_history","repeat_instructions","key_press","response","index","stimulus_index","path","run","task","isi","is_odd_ball","no_response","acc","duration","onset"
"true","full_screen","d06282023hr1609","fullscreen","0","1821","0.0-0.0-0.0","1","90129","","","","","","","","","","","","","","","","","",""
"","get_id","","survey-text","1","5184","0.0-0.0-1.0","1","90129","","3359","{""Q0"":""12"",""Q1"":""1""}","","","","","","","","","","","","","","",""
"","ratings_instructions","","instructions","2","6647","0.0-1.0-0.0-0.0","1","90129","","1428","","[{""page_index"":0,""viewing_time"":1237},{""page_index"":1,""viewing_time"":191}]","","","","","","","","","","","","","",""
"","rating_comprehension_check","","survey-multi-choice","3","9229","0.0-1.0-0.0-1.0","1","90129","","2576","{""Q0"":""True"",""Q1"":""Mouse""}","","0","","","","","","","","","","","","",""
"","","","html-keyboard-response","4","9871","0.0-1.0-1.0","1","90129","","638","","","","68","","","","","","","","","","","",""
"","rating","","html-slider-response","5","11047","0.0-1.0-2.0","1","90129","","1172","","","","","50","0","28","Stimuli/Experimental_stims/body_parts/ira-vishnevskaya-8DQAvdCby1I-unsplash.jpg","","","","","","","",""
"","rating","","html-slider-response","6","11203","0.0-1.0-3.0","1","90129","","151","","","","","50","1","4","Stimuli/Experimental_stims/outdoor_scenes/jarrett-kow-1ZOyYPOBn7I-unsplash.jpg","","","","","","","",""
"","rating","","html-slider-response","7","11449","0.0-1.0-4.0","1","90129","","242","","","","","50","2","35","Stimuli/Experimental_stims/body_parts/wc-so-KH4AAPjb-tI-unsplash.jpg","","","","","","","",""
"","rating","","html-slider-response","8","11617","0.0-1.0-5.0","1","90129","","163","","","","","50","3","47","Stimuli/Experimental_stims/objects/ronaldo-arthur-vidal-Cdz_lvnl37k-unsplash.jpg","","","","","","","",""
"","rating","","html-slider-response","9","11786","0.0-1.0-6.0","1","90129","","164","","","","","50","4","9","Stimuli/Experimental_stims/outdoor_scenes/sergey-pesterev-y-b_FOmJXdg-unsplash.jpg","","","","","","","",""
"","rating","","html-slider-response","10","11950","0.0-1.0-7.0","1","90129","","160","","","","","50","5","31","Stimuli/Experimental_stims/body_parts/sincerely-media-VN6DbKajo5s-unsplash.jpg","","","","","","","",""
"","rating","","html-slider-response","11","12109","0.0-1.0-8.0","1","90129","","155","","","","","50","6","5","Stimuli/Experimental_stims/outdoor_scenes/jeff-king-bJHWJeiHfHc-unsplash.jpg","","","","","","","",""
"","rating","","html-slider-response","12","12277","0.0-1.0-9.0","1","90129","","164","","","","","50","7","27","Stimuli/Experimental_stims/body_parts/heike-mintel-i_Gns0ELnLw-unsplash.jpg","","","","","","","",""
"","rating","","html-slider-response","13","12432","0.0-1.0-10.0","1","90129","","150","","","","","50","8","37","Stimuli/Experimental_stims/objects/alexander-andrews-VLGWE_SumrA-unsplash.jpg","","","","","","","",""
"","rating","","html-slider-response","14","12598","0.0-1.0-11.0","1","90129","","163","","","","","50","9","19","Stimuli/Experimental_stims/faces/joel-mott-LaK153ghdig-unsplash.jpg","","","","","","","",""
"","rating","","html-slider-response","15","12779","0.0-1.0-12.0","1","90129","","176","","","","","50","10","34","Stimuli/Experimental_stims/body_parts/wagner-santos-mBWMvIuVnso-unsplash.jpg","","","","","","","",""
"","rating","","html-slider-response","16","12948","0.0-1.0-13.0","1","90129","","165","","","","","50","11","22","Stimuli/Experimental_stims/faces/ravi-patel-VMGAbeeJTKo-unsplash.jpg","","","","","","","",""
"","rating","","html-slider-response","17","13125","0.0-1.0-14.0","1","90129","","174","","","","","50","12","1","Stimuli/Experimental_stims/outdoor_scenes/ashim-d-silva-S2Q5mdOrrVc-unsplash.jpg","","","","","","","",""
"","rating","","html-slider-response","18","13304","0.0-1.0-15.0","1","90129","","174","","","","","50","13","15","Stimuli/Experimental_stims/faces/erik-lucatero-d2MSDujJl2g-unsplash.jpg","","","","","","","",""
"","rating","","html-slider-response","19","13484","0.0-1.0-16.0","1","90129","","176","","","","","50","14","17","Stimuli/Experimental_stims/faces/good-faces-xmSWVeGEnJw-unsplash.jpg","","","","","","","",""
"","rating","","html-slider-response","20","13652","0.0-1.0-17.0","1","90129","","164","","","","","50","15","12","Stimuli/Experimental_stims/faces/aiony-haust-jmATI5Q_YgY-unsplash.jpg","","","","","","","",""
"","rating","","html-slider-response","21","13829","0.0-1.0-18.0","1","90129","","173","","","","","50","16","0","Stimuli/Experimental_stims/outdoor_scenes/aleksandra-boguslawska-MS7KD9Ti7FQ-unsplash.jpg","","","","","","","",""
"","rating","","html-slider-response","22","13995","0.0-1.0-19.0","1","90129","","161","","","","","50","17","41","Stimuli/Experimental_stims/objects/insung-yoon-w2JtIQQXoRU-unsplash.jpg","","","","","","","",""
"","rating","","html-slider-response","23","14173","0.0-1.0-20.0","1","90129","","174","","","","","50","18","18","Stimuli/Experimental_stims/faces/jessica-radanavong-mrYkTuAesKE-unsplash.jpg","","","","","","","",""
"","rating","","html-slider-response","24","14341","0.0-1.0-21.0","1","90129","","164","","","","","50","19","11","Stimuli/Experimental_stims/outdoor_scenes/stephen-leonardi-gyIRjKPXupE-unsplash.jpg","","","","","","","",""
"","rating","","html-slider-response","25","14512","0.0-1.0-22.0","1","90129","","166","","","","","50","20","20","Stimuli/Experimental_stims/faces/justin-chen-J7Cf1Gch49E-unsplash.jpg","","","","","","","",""
"","rating","","html-slider-response","26","14686","0.0-1.0-23.0","1","90129","","171","","","","","50","21","23","Stimuli/Experimental_stims/faces/rikonavt-HQjfrvdTfak-unsplash.jpg","","","","","","","",""
"","rating","","html-slider-response","27","14868","0.0-1.0-24.0","1","90129","","177","","","","","50","22","25","Stimuli/Experimental_stims/body_parts/engin-akyurt-Q2rfH3GW39c-unsplash.jpg","","","","","","","",""
"","rating","","html-slider-response","28","15058","0.0-1.0-25.0","1","90129","","186","","","","","50","23","33","Stimuli/Experimental_stims/body_parts/tucker-good-36skLT5jZcc-unsplash.jpg","","","","","","","",""
"","rating","","html-slider-response","29","15248","0.0-1.0-26.0","1","90129","","185","","","","","50","24","32","Stimuli/Experimental_stims/body_parts/towfiqu-barbhuiya-3AsiVDsZnHg-unsplash.jpg","","","","","","","",""
"","rating","","html-slider-response","30","15426","0.0-1.0-27.0","1","90129","","174","","","","","50","25","30","Stimuli/Experimental_stims/body_parts/mika-korhonen-Xodzxosar18-unsplash.jpg","","","","","","","",""
"","rating","","html-slider-response","31","15615","0.0-1.0-28.0","1","90129","","185","","","","","50","26","16","Stimuli/Experimental_stims/faces/freddy-kearney-o-ioeoATbIM-unsplash.jpg","","","","","","","",""
"","rating","","html-slider-response","32","15796","0.0-1.0-29.0","1","90129","","176","","","","","50","27","14","Stimuli/Experimental_stims/faces/david-siglin-UuW4psOb388-unsplash.jpg","","","","","","","",""
"","rating","","html-slider-response","33","15986","0.0-1.0-30.0","1","90129","","185","","","","","50","28","36","Stimuli/Experimental_stims/objects/alexander-andrews-JYGnB9gTCls-unsplash.jpg","","","","","","","",""
"","rating","","html-slider-response","34","16164","0.0-1.0-31.0","1","90129","","173","","","","","50","29","3","Stimuli/Experimental_stims/outdoor_scenes/henry-be-NLF6hTe4PAg-unsplash.jpg","","","","","","","",""
"","rating","","html-slider-response","35","16332","0.0-1.0-32.0","1","90129","","163","","","","","50","30","29","Stimuli/Experimental_stims/body_parts/manuel-schinner-ZwjFuJ7ebpk-unsplash.jpg","","","","","","","",""
"","rating","","html-slider-response","36","16510","0.0-1.0-33.0","1","90129","","173","","","","","50","31","43","Stimuli/Experimental_stims/objects/jonathan-greenaway-Y4hGgeiFn3s-unsplash.jpg","","","","","","","",""
"","rating","","html-slider-response","37","16696","0.0-1.0-34.0","1","90129","","183","","","","","50","32","40","Stimuli/Experimental_stims/objects/fabian-blank-pElSkGRA2NU-unsplash.jpg","","","","","","","",""
"","rating","","html-slider-response","38","16877","0.0-1.0-35.0","1","90129","","177","","","","","50","33","2","Stimuli/Experimental_stims/outdoor_scenes/bruno-van-der-kraan-qez8mNJ3ilU-unsplash.jpg","","","","","","","",""
"","rating","","html-slider-response","39","17058","0.0-1.0-36.0","1","90129","","176","","","","","50","34","26","Stimuli/Experimental_stims/body_parts/engin-akyurt-x_3gyC42btc-unsplash.jpg","","","","","","","",""
"","rating","","html-slider-response","40","17223","0.0-1.0-37.0","1","90129","","161","","","","","50","35","45","Stimuli/Experimental_stims/objects/leohoho-rngTKHXumy0-unsplash.jpg","","","","","","","",""
"","rating","","html-slider-response","41","17404","0.0-1.0-38.0","1","90129","","176","","","","","50","36","6","Stimuli/Experimental_stims/outdoor_scenes/meng-ji-8BH_M-53CyA-unsplash.jpg","","","","","","","",""
"","rating","","html-slider-response","42","17594","0.0-1.0-39.0","1","90129","","186","","","","","50","37","13","Stimuli/Experimental_stims/faces/daniel-rigdon-dXmXKPP2L4E-unsplash.jpg","","","","","","","",""
"","rating","","html-slider-response","43","17780","0.0-1.0-40.0","1","90129","","181","","","","","50","38","44","Stimuli/Experimental_stims/objects/kuiye-chen-NuOGFo4PudE-unsplash.jpg","","","","","","","",""
"","rating","","html-slider-response","44","17950","0.0-1.0-41.0","1","90129","","166","","","","","50","39","42","Stimuli/Experimental_stims/objects/jess-bailey-nOeVi8DsN8U-unsplash.jpg","","","","","","","",""
"","rating","","html-slider-response","45","18130","0.0-1.0-42.0","1","90129","","176","","","","","50","40","24","Stimuli/Experimental_stims/body_parts/clay-banks-LjqARJaJotc-unsplash.jpg","","","","","","","",""
"","rating","","html-slider-response","46","18320","0.0-1.0-43.0","1","90129","","185","","","","","50","41","21","Stimuli/Experimental_stims/faces/leilani-angel-K84vnnzxmTQ-unsplash.jpg","","","","","","","",""
"","rating","","html-slider-response","47","18495","0.0-1.0-44.0","1","90129","","170","","","","","50","42","7","Stimuli/Experimental_stims/outdoor_scenes/petr-vysohlid-9fqwGqGLUxc-unsplash.jpg","","","","","","","",""
"","rating","","html-slider-response","48","18683","0.0-1.0-45.0","1","90129","","184","","","","","50","43","46","Stimuli/Experimental_stims/objects/mockup-graphics-PNsj6RiHAF4-unsplash.jpg","","","","","","","",""
"","rating","","html-slider-response","49","18863","0.0-1.0-46.0","1","90129","","177","","","","","50","44","38","Stimuli/Experimental_stims/objects/art-lasovsky-8XddFc6NkBY-unsplash.jpg","","","","","","","",""
"","rating","","html-slider-response","50","19031","0.0-1.0-47.0","1","90129","","163","","","","","50","45","8","Stimuli/Experimental_stims/outdoor_scenes/samsommer-vddccTqwal8-unsplash.jpg","","","","","","","",""
"","rating","","html-slider-response","51","19222","0.0-1.0-48.0","1","90129","","186","","","","","50","46","10","Stimuli/Experimental_stims/outdoor_scenes/shannon-kunkle-dM8INmkyDas-unsplash.jpg","","","","","","","",""
"","rating","","html-slider-response","52","19412","0.0-1.0-49.0","1","90129","","186","","","","","50","47","39","Stimuli/Experimental_stims/objects/charlesdeluvio-1-nx1QR5dTE-unsplash.jpg","","","","","","","",""
"","localizer_instructions","","instructions","53","21994","0.0-2.0-0.0-0.0","1","90129","","2551","","[{""page_index"":0,""viewing_time"":1385},{""page_index"":1,""viewing_time"":560},{""page_index"":2,""viewing_time"":606}]","","","","","","","","","","","","","",""
"","localizer_comprehension_check","","survey-multi-choice","54","26738","0.0-2.0-0.0-1.0","1","90129","","4739","{""Q0"":""True"",""Q1"":""K"",""Q2"":""D""}","","0","","","","","","","","","","","","",""
"","","","html-keyboard-response","55","28526","0.0-2.0-1.0","1","90129","","1782","","","","68","","","","","","","","","","","",""
"","localizer","","html-keyboard-response","56","28938","0.0-2.0-2.0-0.0","1","90129","","NaN","","","","null","NaN","0","","Stimuli/Practice_stims/Localizer/annie-spratt-g9KFpAfQ5bc-unsplash.jpg","0","NaN","","0","1","0","0.4","0"
"","iti_localizer","","html-keyboard-response","57","29248","0.0-2.0-2.0-1.0","1","90129","","null","","","","null","","0","","","0","","","","","","0.3","0.4"
"","localizer","","html-keyboard-response","58","29661","0.0-2.0-3.0-0.0","1","90129","","NaN","","","","null","NaN","1","","Stimuli/Practice_stims/Localizer/becca-tapert-sY5RjMB1KkE-unsplash.jpg","0","NaN","","0","1","0","0.4","0.7"
"","iti_localizer","","html-keyboard-response","59","29971","0.0-2.0-3.0-1.0","1","90129","","null","","","","null","","1","","","0","","","","","","0.3","1.1"
"","localizer","","html-keyboard-response","60","30387","0.0-2.0-4.0-0.0","1","90129","","NaN","","","","null","NaN","2","","Stimuli/Practice_stims/Localizer/charl-durand-bsfXvI25iNg-unsplash.jpg","0","NaN","","1","1","0","0.4","1.4000000000000001"
"","iti_localizer","","html-keyboard-response","61","30696","0.0-2.0-4.0-1.0","1","90129","","null","","","","null","","2","","","0","","","","","","0.3","1.8000000000000003"
"","localizer","","html-keyboard-response","62","31106","0.0-2.0-5.0-0.0","1","90129","","NaN","","","","null","NaN","3","","Stimuli/Practice_stims/Localizer/nizar-albusaidy-B2r2SWAf5CE-unsplash.jpg","0","NaN","","0","1","0","0.4","2.1"
"","iti_localizer","","html-keyboard-response","63","31420","0.0-2.0-5.0-1.0","1","90129","","null","","","","null","","3","","","0","","","","","","0.3","2.5"
"","localizer","","html-keyboard-response","64","31834","0.0-2.0-6.0-0.0","1","90129","","NaN","","","","null","NaN","4","","Stimuli/Practice_stims/Localizer/randy-fath-epf1tdtIIkM-unsplash.jpg","0","NaN","","1","1","0","0.4","2.8"
"","iti_localizer","","html-keyboard-response","65","32146","0.0-2.0-6.0-1.0","1","90129","","null","","","","null","","4","","","0","","","","","","0.3","3.1999999999999997"
"","localizer","","html-keyboard-response","66","32556","0.0-2.0-7.0-0.0","1","90129","","NaN","","","","null","NaN","5","","Stimuli/Practice_stims/Localizer/yassine-khalfalli-adsQ9d_Cx0c-unsplash.jpg","0","NaN","","0","1","0","0.4","3.4999999999999996"
"","iti_localizer","","html-keyboard-response","67","32869","0.0-2.0-7.0-1.0","1","90129","","null","","","","null","","5","","","0","","","","","","0.3","3.8999999999999995"
"","localizer","","html-keyboard-response","68","33284","0.0-2.0-8.0-0.0","1","90129","","NaN","","","","null","NaN","6","","Stimuli/Experimental_stims/localizer/outdoor_scenes/willian-justen-de-vasconcellos-T_Qe4QlMIvQ-unsplash.jpg","1","outdoor_scenes","","0","1","0","0.4","4.199999999999999"
"","iti_localizer","","html-keyboard-response","69","33592","0.0-2.0-8.0-1.0","1","90129","","null","","","","null","","6","","","1","","","","","","0.3","4.6"
"","localizer","","html-keyboard-response","70","34004","0.0-2.0-9.0-0.0","1","90129","","NaN","","","","null","NaN","7","","Stimuli/Experimental_stims/localizer/outdoor_scenes/kenneth-thewissen-D76DklsG-5U-unsplash.jpg","1","outdoor_scenes","","0","1","0","0.4","4.8999999999999995"
"","iti_localizer","","html-keyboard-response","71","34314","0.0-2.0-9.0-1.0","1","90129","","null","","","","null","","7","","","1","","","","","","0.3","5.3"
"","localizer","","html-keyboard-response","72","34721","0.0-2.0-10.0-0.0","1","90129","","NaN","","","","null","NaN","8","","Stimuli/Experimental_stims/localizer/outdoor_scenes/eberhard-grossgasteiger-y2azHvupCVo-unsplash.jpg","1","outdoor_scenes","","0","1","0","0.4","5.6"
"","iti_localizer","","html-keyboard-response","73","35036","0.0-2.0-10.0-1.0","1","90129","","null","","","","null","","8","","","1","","","","","","0.3","6"
"","localizer","","html-keyboard-response","74","35453","0.0-2.0-11.0-0.0","1","90129","","NaN","","","","null","NaN","9","","Stimuli/Experimental_stims/localizer/outdoor_scenes/alice-donovan-rouse-pZ61ZA8QgcY-unsplash.jpg","1","outdoor_scenes","","0","1","0","0.4","6.3"
"","iti_localizer","","html-keyboard-response","75","35763","0.0-2.0-11.0-1.0","1","90129","","null","","","","null","","9","","","1","","","","","","0.3","6.7"
"","localizer","","html-keyboard-response","76","36178","0.0-2.0-12.0-0.0","1","90129","","NaN","","","","null","NaN","10","","Stimuli/Experimental_stims/localizer/outdoor_scenes/adam-kool-ndN00KmbJ1c-unsplash.jpg","1","outdoor_scenes","","0","1","0","0.4","7"
"","iti_localizer","","html-keyboard-response","77","36491","0.0-2.0-12.0-1.0","1","90129","","null","","","","null","","10","","","1","","","","","","0.3","7.4"
"","localizer","","html-keyboard-response","78","36914","0.0-2.0-13.0-0.0","1","90129","","NaN","","","","null","NaN","11","","Stimuli/Experimental_stims/localizer/outdoor_scenes/derek-mack-CcRZ4k3c6gA-unsplash.jpg","1","outdoor_scenes","","0","1","0","0.4","7.7"
"","iti_localizer","","html-keyboard-response","79","37227","0.0-2.0-13.0-1.0","1","90129","","null","","","","null","","11","","","1","","","","","","0.3","8.1"
"","localizer","","html-keyboard-response","80","37633","0.0-2.0-14.0-0.0","1","90129","","NaN","","","","null","NaN","12","","Stimuli/Experimental_stims/localizer/outdoor_scenes/nicolas-jehly-LzVB84KkZOE-unsplash.jpg","1","outdoor_scenes","","0","1","0","0.4","8.4"
"","iti_localizer","","html-keyboard-response","81","37944","0.0-2.0-14.0-1.0","1","90129","","null","","","","null","","12","","","1","","","","","","0.3","8.8"
"","localizer","","html-keyboard-response","82","38354","0.0-2.0-15.0-0.0","1","90129","","NaN","","","","null","NaN","13","","Stimuli/Experimental_stims/localizer/outdoor_scenes/tomasz-filipek-CUWC-6MRcNg-unsplash.jpg","1","outdoor_scenes","","1","1","0","0.4","9.100000000000001"
"","iti_localizer","","html-keyboard-response","83","38666","0.0-2.0-15.0-1.0","1","90129","","null","","","","null","","13","","","1","","","","","","0.3","9.500000000000002"
"","localizer","","html-keyboard-response","84","39085","0.0-2.0-16.0-0.0","1","90129","","NaN","","","","null","NaN","14","","Stimuli/Experimental_stims/localizer/outdoor_scenes/federico-beccari-kRnkqSKZODQ-unsplash.jpg","1","outdoor_scenes","","0","1","0","0.4","9.800000000000002"
"","iti_localizer","","html-keyboard-response","85","39396","0.0-2.0-16.0-1.0","1","90129","","null","","","","null","","14","","","1","","","","","","0.3","10.200000000000003"
"","localizer","","html-keyboard-response","86","39810","0.0-2.0-17.0-0.0","1","90129","","NaN","","","","null","NaN","15","","Stimuli/Experimental_stims/localizer/outdoor_scenes/john-lee-oMneOBYhJxY-unsplash.jpg","1","outdoor_scenes","","1","1","0","0.4","10.500000000000004"
"","iti_localizer","","html-keyboard-response","87","40123","0.0-2.0-17.0-1.0","1","90129","","null","","","","null","","15","","","1","","","","","","0.3","10.900000000000004"
"","localizer","","html-keyboard-response","88","40540","0.0-2.0-18.0-0.0","1","90129","","NaN","","","","null","NaN","16","","Stimuli/Experimental_stims/localizer/outdoor_scenes/damian-patkowski-T-LfvX-7IVg-unsplash.jpg","1","outdoor_scenes","","0","1","0","0.4","11.200000000000005"
"","iti_localizer","","html-keyboard-response","89","40847","0.0-2.0-18.0-1.0","1","90129","","null","","","","null","","16","","","1","","","","","","0.3","11.600000000000005"
"","localizer","","html-keyboard-response","90","41259","0.0-2.0-19.0-0.0","1","90129","","NaN","","","","null","NaN","17","","Stimuli/Experimental_stims/localizer/outdoor_scenes/marcelo-quinan-u0ZgqJD55pE-unsplash.jpg","1","outdoor_scenes","","0","1","0","0.4","11.900000000000006"
"","iti_localizer","","html-keyboard-response","91","41571","0.0-2.0-19.0-1.0","1","90129","","null","","","","null","","17","","","1","","","","","","0.3","12.300000000000006"
"","localizer","","html-keyboard-response","92","41987","0.0-2.0-20.0-0.0","1","90129","","NaN","","","","null","NaN","18","","Stimuli/Experimental_stims/localizer/outdoor_scenes/mark-harpur-K2s_YE031CA-unsplash.jpg","1","outdoor_scenes","","0","1","0","0.4","12.600000000000007"
"","iti_localizer","","html-keyboard-response","93","42298","0.0-2.0-20.0-1.0","1","90129","","null","","","","null","","18","","","1","","","","","","0.3","13.000000000000007"
"","localizer","","html-keyboard-response","94","42708","0.0-2.0-21.0-0.0","1","90129","","NaN","","","","null","NaN","19","","Stimuli/Experimental_stims/localizer/outdoor_scenes/ken-cheung-KonWFWUaAuk-unsplash.jpg","1","outdoor_scenes","","0","1","0","0.4","13.300000000000008"
"","iti_localizer","","html-keyboard-response","95","43021","0.0-2.0-21.0-1.0","1","90129","","null","","","","null","","19","","","1","","","","","","0.3","13.700000000000008"
"","localizer","","html-keyboard-response","96","43437","0.0-2.0-22.0-0.0","1","90129","","NaN","","","","null","NaN","20","","Stimuli/Experimental_stims/localizer/outdoor_scenes/kace-rodriguez-p3OzJuT_Dks-unsplash.jpg","1","outdoor_scenes","","0","1","0","0.4","14.000000000000009"
"","iti_localizer","","html-keyboard-response","97","43746","0.0-2.0-22.0-1.0","1","90129","","null","","","","null","","20","","","1","","","","","","0.3","14.40000000000001"
"","localizer","","html-keyboard-response","98","44155","0.0-2.0-23.0-0.0","1","90129","","NaN","","","","null","NaN","21","","Stimuli/Experimental_stims/localizer/outdoor_scenes/dave-hoefler-lsoogGC_5dg-unsplash.jpg","1","outdoor_scenes","","0","1","0","0.4","14.70000000000001"
"","iti_localizer","","html-keyboard-response","99","44468","0.0-2.0-23.0-1.0","1","90129","","null","","","","null","","21","","","1","","","","","","0.3","15.10000000000001"
"","localizer","","html-keyboard-response","100","44883","0.0-2.0-24.0-0.0","1","90129","","NaN","","","","null","NaN","22","","Stimuli/Experimental_stims/localizer/outdoor_scenes/michael-martinelli-mFbrMEVKCkc-unsplash.jpg","1","outdoor_scenes","","0","1","0","0.4","15.400000000000011"
"","iti_localizer","","html-keyboard-response","101","45193","0.0-2.0-24.0-1.0","1","90129","","null","","","","null","","22","","","1","","","","","","0.3","15.800000000000011"
"","localizer","","html-keyboard-response","102","45604","0.0-2.0-25.0-0.0","1","90129","","NaN","","","","null","NaN","23","","Stimuli/Experimental_stims/localizer/outdoor_scenes/quino-al-mBQIfKlvowM-unsplash.jpg","1","outdoor_scenes","","0","1","0","0.4","16.100000000000012"
"","iti_localizer","","html-keyboard-response","103","45914","0.0-2.0-25.0-1.0","1","90129","","null","","","","null","","23","","","1","","","","","","0.3","16.50000000000001"
"","localizer","","html-keyboard-response","104","46323","0.0-2.0-26.0-0.0","1","90129","","NaN","","","","null","NaN","24","","Stimuli/Experimental_stims/localizer/outdoor_scenes/keith-hardy-PP8Escz15d8-unsplash.jpg","1","outdoor_scenes","","0","1","0","0.4","16.80000000000001"
"","iti_localizer","","html-keyboard-response","105","46635","0.0-2.0-26.0-1.0","1","90129","","null","","","","null","","24","","","1","","","","","","0.3","17.20000000000001"
"","localizer","","html-keyboard-response","106","47052","0.0-2.0-27.0-0.0","1","90129","","NaN","","","","null","NaN","25","","Stimuli/Experimental_stims/localizer/outdoor_scenes/cayetano-gil-rguHxZmOF5U-unsplash.jpg","1","outdoor_scenes","","0","1","0","0.4","17.50000000000001"
"","iti_localizer","","html-keyboard-response","107","47363","0.0-2.0-27.0-1.0","1","90129","","null","","","","null","","25","","","1","","","","","","14","17.90000000000001"
"","localizer","","html-keyboard-response","108","47779","0.0-2.0-28.0-0.0","1","90129","","NaN","","","","null","NaN","26","","Stimuli/Experimental_stims/localizer/faces/ivan-dodig-R21SyyJDFgc-unsplash.jpg","1","faces","","0","1","0","0.4","31.90000000000001"
"","iti_localizer","","html-keyboard-response","109","48089","0.0-2.0-28.0-1.0","1","90129","","null","","","","null","","26","","","1","","","","","","0.3","32.30000000000001"
"","localizer","","html-keyboard-response","110","48499","0.0-2.0-29.0-0.0","1","90129","","NaN","","","","null","NaN","27","","Stimuli/Experimental_stims/localizer/faces/juan-encalada-WC7KIHo13Fc-unsplash.jpg","1","faces","","0","1","0","0.4","32.60000000000001"
"","iti_localizer","","html-keyboard-response","111","48814","0.0-2.0-29.0-1.0","1","90129","","null","","","","null","","27","","","1","","","","","","0.3","33.00000000000001"
"","localizer","","html-keyboard-response","112","49228","0.0-2.0-30.0-0.0","1","90129","","NaN","","","","null","NaN","28","","Stimuli/Experimental_stims/localizer/faces/joseph-gonzalez-iFgRcqHznqg-unsplash.jpg","1","faces","","0","1","0","0.4","33.300000000000004"
"","iti_localizer","","html-keyboard-response","113","49539","0.0-2.0-30.0-1.0","1","90129","","null","","","","null","","28","","","1","","","","","","0.3","33.7"
"","localizer","","html-keyboard-response","114","49956","0.0-2.0-31.0-0.0","1","90129","","NaN","","","","null","NaN","29","","Stimuli/Experimental_stims/localizer/faces/christian-ferrer-8vT-DgHZDG4-unsplash.jpg","1","faces","","0","1","0","0.4","34"
"","iti_localizer","","html-keyboard-response","115","50266","0.0-2.0-31.0-1.0","1","90129","","null","","","","null","","29","","","1","","","","","","0.3","34.4"
"","localizer","","html-keyboard-response","116","50678","0.0-2.0-32.0-0.0","1","90129","","NaN","","","","null","NaN","30","","Stimuli/Experimental_stims/localizer/faces/katsiaryna-endruszkiewicz-BteCp6aq4GI-unsplash.jpg","1","faces","","0","1","0","0.4","34.699999999999996"
"","iti_localizer","","html-keyboard-response","117","50986","0.0-2.0-32.0-1.0","1","90129","","null","","","","null","","30","","","1","","","","","","0.3","35.099999999999994"
"","localizer","","html-keyboard-response","118","51402","0.0-2.0-33.0-0.0","1","90129","","NaN","","","","null","NaN","31","","Stimuli/Experimental_stims/localizer/faces/toa-heftiba-O3ymvT7Wf9U-unsplash.jpg","1","faces","","0","1","0","0.4","35.39999999999999"
"","iti_localizer","","html-keyboard-response","119","51717","0.0-2.0-33.0-1.0","1","90129","","null","","","","null","","31","","","1","","","","","","0.3","35.79999999999999"
"","localizer","","html-keyboard-response","120","52130","0.0-2.0-34.0-0.0","1","90129","","NaN","","","","null","NaN","32","","Stimuli/Experimental_stims/localizer/faces/ihor-saveliev-3POm-bxWIN8-unsplash.jpg","1","faces","","0","1","0","0.4","36.09999999999999"
"","iti_localizer","","html-keyboard-response","121","52444","0.0-2.0-34.0-1.0","1","90129","","null","","","","null","","32","","","1","","","","","","0.3","36.499999999999986"
"","localizer","","html-keyboard-response","122","52858","0.0-2.0-35.0-0.0","1","90129","","NaN","","","","null","NaN","33","","Stimuli/Experimental_stims/localizer/faces/christopher-campbell-rDEOVtE7vOs-unsplash.jpg","1","faces","","0","1","0","0.4","36.79999999999998"
"","iti_localizer","","html-keyboard-response","123","53172","0.0-2.0-35.0-1.0","1","90129","","null","","","","null","","33","","","1","","","","","","0.3","37.19999999999998"
"","localizer","","html-keyboard-response","124","53588","0.0-2.0-36.0-0.0","1","90129","","NaN","","","","null","NaN","34","","Stimuli/Experimental_stims/localizer/faces/chanvre-quebec-mXu1SpzHq6w-unsplash.jpg","1","faces","","0","1","0","0.4","37.49999999999998"
"","iti_localizer","","html-keyboard-response","125","53902","0.0-2.0-36.0-1.0","1","90129","","null","","","","null","","34","","","1","","","","","","0.3","37.89999999999998"
"","localizer","","html-keyboard-response","126","54315","0.0-2.0-37.0-0.0","1","90129","","NaN","","","","null","NaN","35","","Stimuli/Experimental_stims/localizer/faces/carlos-vaz-KP4bxnxAilU-unsplash.jpg","1","faces","","0","1","0","0.4","38.199999999999974"
"","iti_localizer","","html-keyboard-response","127","54630","0.0-2.0-37.0-1.0","1","90129","","null","","","","null","","35","","","1","","","","","","0.3","38.59999999999997"
"","localizer","","html-keyboard-response","128","55042","0.0-2.0-38.0-0.0","1","90129","","NaN","","","","null","NaN","36","","Stimuli/Experimental_stims/localizer/faces/elijah-hiett-umfpFoKxIVg-unsplash.jpg","1","faces","","0","1","0","0.4","38.89999999999997"
"","iti_localizer","","html-keyboard-response","129","55353","0.0-2.0-38.0-1.0","1","90129","","null","","","","null","","36","","","1","","","","","","0.3","39.29999999999997"
"","localizer","","html-keyboard-response","130","55761","0.0-2.0-39.0-0.0","1","90129","","NaN","","","","null","NaN","37","","Stimuli/Experimental_stims/localizer/faces/whereslugo-zl_fPgiwduo-unsplash.jpg","1","faces","","0","1","0","0.4","39.599999999999966"
"","iti_localizer","","html-keyboard-response","131","56076","0.0-2.0-39.0-1.0","1","90129","","null","","","","null","","37","","","1","","","","","","0.3","39.999999999999964"
"","localizer","","html-keyboard-response","132","56490","0.0-2.0-40.0-0.0","1","90129","","NaN","","","","null","NaN","38","","Stimuli/Experimental_stims/localizer/faces/etty-fidele-nF8eo2nX374-unsplash.jpg","1","faces","","1","1","0","0.4","40.29999999999996"
"","iti_localizer","","html-keyboard-response","133","56806","0.0-2.0-40.0-1.0","1","90129","","null","","","","null","","38","","","1","","","","","","0.3","40.69999999999996"
"","localizer","","html-keyboard-response","134","57220","0.0-2.0-41.0-0.0","1","90129","","NaN","","","","null","NaN","39","","Stimuli/Experimental_stims/localizer/faces/hisu-lee-2qvxIr_DXGo-unsplash.jpg","1","faces","","1","1","0","0.4","40.99999999999996"
"","iti_localizer","","html-keyboard-response","135","57533","0.0-2.0-41.0-1.0","1","90129","","null","","","","null","","39","","","1","","","","","","0.3","41.399999999999956"
"","localizer","","html-keyboard-response","136","57948","0.0-2.0-42.0-0.0","1","90129","","NaN","","","","null","NaN","40","","Stimuli/Experimental_stims/localizer/faces/abstral-official-cyOKLSgkgCE-unsplash.jpg","1","faces","","0","1","0","0.4","41.69999999999995"
"","iti_localizer","","html-keyboard-response","137","58257","0.0-2.0-42.0-1.0","1","90129","","null","","","","null","","40","","","1","","","","","","0.3","42.09999999999995"
"","localizer","","html-keyboard-response","138","58667","0.0-2.0-43.0-0.0","1","90129","","NaN","","","","null","NaN","41","","Stimuli/Experimental_stims/localizer/faces/icons8-team-6LZuSzSwso0-unsplash.jpg","1","faces","","0","1","0","0.4","42.39999999999995"
"","iti_localizer","","html-keyboard-response","139","59037","0.0-2.0-43.0-1.0","1","90129","","null","","","","null","","41","","","1","","","","","","0.3","42.79999999999995"
"","localizer","","html-keyboard-response","140","59454","0.0-2.0-44.0-0.0","1","90129","","NaN","","","","null","NaN","42","","Stimuli/Experimental_stims/localizer/faces/prince-akachi-LWkFHEGpleE-unsplash.jpg","1","faces","","0","1","0","0.4","43.099999999999945"
"","iti_localizer","","html-keyboard-response","141","59761","0.0-2.0-44.0-1.0","1","90129","","null","","","","null","","42","","","1","","","","","","0.3","43.49999999999994"
"","localizer","","html-keyboard-response","142","60171","0.0-2.0-45.0-0.0","1","90129","","NaN","","","","null","NaN","43","","Stimuli/Experimental_stims/localizer/faces/christian-buehner-DItYlc26zVI-unsplash.jpg","1","faces","","0","1","0","0.4","43.79999999999994"
"","iti_localizer","","html-keyboard-response","143","60485","0.0-2.0-45.0-1.0","1","90129","","null","","","","null","","43","","","1","","","","","","0.3","44.19999999999994"
"","localizer","","html-keyboard-response","144","60902","0.0-2.0-46.0-0.0","1","90129","","NaN","","","","null","NaN","44","","Stimuli/Experimental_stims/localizer/faces/ivana-cajina-_7LbC5J-jw4-unsplash.jpg","1","faces","","0","1","0","0.4","44.499999999999936"
"","iti_localizer","","html-keyboard-response","145","61208","0.0-2.0-46.0-1.0","1","90129","","null","","","","null","","44","","","1","","","","","","0.3","44.899999999999935"
"","localizer","","html-keyboard-response","146","61620","0.0-2.0-47.0-0.0","1","90129","","NaN","","","","null","NaN","45","","Stimuli/Experimental_stims/localizer/faces/art-hauntington-jzY0KRJopEI-unsplash.jpg","1","faces","","0","1","0","0.4","45.19999999999993"
"","iti_localizer","","html-keyboard-response","147","61930","0.0-2.0-47.0-1.0","1","90129","","null","","","","null","","45","","","1","","","","","","14","45.59999999999993"
"","localizer","","html-keyboard-response","148","62340","0.0-2.0-48.0-0.0","1","90129","","NaN","","","","null","NaN","46","","Stimuli/Experimental_stims/localizer/body_parts/bady-abbas-pIySu25o0bM-unsplash.jpg","1","body_parts","","0","1","0","0.4","59.59999999999993"
"","iti_localizer","","html-keyboard-response","149","62653","0.0-2.0-48.0-1.0","1","90129","","null","","","","null","","46","","","1","","","","","","0.3","59.99999999999993"
"","localizer","","html-keyboard-response","150","63069","0.0-2.0-49.0-0.0","1","90129","","NaN","","","","null","NaN","47","","Stimuli/Experimental_stims/localizer/body_parts/carlos-henrique-NAOJKwZswbs-unsplash.jpg","1","body_parts","","0","1","0","0.4","60.299999999999926"
"","iti_localizer","","html-keyboard-response","151","63380","0.0-2.0-49.0-1.0","1","90129","","null","","","","null","","47","","","1","","","","","","0.3","60.699999999999925"
"","localizer","","html-keyboard-response","152","63797","0.0-2.0-50.0-0.0","1","90129","","NaN","","","","null","NaN","48","","Stimuli/Experimental_stims/localizer/body_parts/sincerely-media-Q7qRyaurQfo-unsplash.jpg","1","body_parts","","0","1","0","0.4","60.99999999999992"
"","iti_localizer","","html-keyboard-response","153","64105","0.0-2.0-50.0-1.0","1","90129","","null","","","","null","","48","","","1","","","","","","0.3","61.39999999999992"
"","localizer","","html-keyboard-response","154","64515","0.0-2.0-51.0-0.0","1","90129","","NaN","","","","null","NaN","49","","Stimuli/Experimental_stims/localizer/body_parts/megan-menegay-UojxG_BJxnI-unsplash.jpg","1","body_parts","","0","1","0","0.4","61.69999999999992"
"","iti_localizer","","html-keyboard-response","155","64826","0.0-2.0-51.0-1.0","1","90129","","null","","","","null","","49","","","1","","","","","","0.3","62.099999999999916"
"","localizer","","html-keyboard-response","156","65240","0.0-2.0-52.0-0.0","1","90129","","NaN","","","","null","NaN","50","","Stimuli/Experimental_stims/localizer/body_parts/debby-hudson--B_757qSA4k-unsplash.jpg","1","body_parts","","0","1","0","0.4","62.39999999999991"
"","iti_localizer","","html-keyboard-response","157","65556","0.0-2.0-52.0-1.0","1","90129","","null","","","","null","","50","","","1","","","","","","0.3","62.79999999999991"
"","localizer","","html-keyboard-response","158","65974","0.0-2.0-53.0-0.0","1","90129","","NaN","","","","null","NaN","51","","Stimuli/Experimental_stims/localizer/body_parts/betzy-arosemena-YHdgnygtVCQ-unsplash.jpg","1","body_parts","","0","1","0","0.4","63.09999999999991"
"","iti_localizer","","html-keyboard-response","159","66286","0.0-2.0-53.0-1.0","1","90129","","null","","","","null","","51","","","1","","","","","","0.3","63.49999999999991"
"","localizer","","html-keyboard-response","160","66702","0.0-2.0-54.0-0.0","1","90129","","NaN","","","","null","NaN","52","","Stimuli/Experimental_stims/localizer/body_parts/ben-hartley-RbrsejLGVZ8-unsplash.jpg","1","body_parts","","1","1","0","0.4","63.799999999999905"
"","iti_localizer","","html-keyboard-response","161","67014","0.0-2.0-54.0-1.0","1","90129","","null","","","","null","","52","","","1","","","","","","0.3","64.1999999999999"
"","localizer","","html-keyboard-response","162","67430","0.0-2.0-55.0-0.0","1","90129","","NaN","","","","null","NaN","53","","Stimuli/Experimental_stims/localizer/body_parts/pure-julia-9lVaya31sMk-unsplash.jpg","1","body_parts","","1","1","0","0.4","64.4999999999999"
"","iti_localizer","","html-keyboard-response","163","67736","0.0-2.0-55.0-1.0","1","90129","","null","","","","null","","53","","","1","","","","","","0.3","64.8999999999999"
"","localizer","","html-keyboard-response","164","68149","0.0-2.0-56.0-0.0","1","90129","","NaN","","","","null","NaN","54","","Stimuli/Experimental_stims/localizer/body_parts/diana-polekhina-SwWjCbIIoFE-unsplash.jpg","1","body_parts","","0","1","0","0.4","65.1999999999999"
"","iti_localizer","","html-keyboard-response","165","68460","0.0-2.0-56.0-1.0","1","90129","","null","","","","null","","54","","","1","","","","","","0.3","65.59999999999991"
"","localizer","","html-keyboard-response","166","68878","0.0-2.0-57.0-0.0","1","90129","","NaN","","","","null","NaN","55","","Stimuli/Experimental_stims/localizer/body_parts/i-am_nah--S4OsO0c6Ts-unsplash.jpg","1","body_parts","","0","1","0","0.4","65.8999999999999"
"","iti_localizer","","html-keyboard-response","167","69187","0.0-2.0-57.0-1.0","1","90129","","null","","","","null","","55","","","1","","","","","","0.3","66.29999999999991"
"","localizer","","html-keyboard-response","168","69597","0.0-2.0-58.0-0.0","1","90129","","NaN","","","","null","NaN","56","","Stimuli/Experimental_stims/localizer/body_parts/femme-spirit-RGYBDUHYbyM-unsplash.jpg","1","body_parts","","0","1","0","0.4","66.59999999999991"
"","iti_localizer","","html-keyboard-response","169","69907","0.0-2.0-58.0-1.0","1","90129","","null","","","","null","","56","","","1","","","","","","0.3","66.99999999999991"
"","localizer","","html-keyboard-response","170","70323","0.0-2.0-59.0-0.0","1","90129","","NaN","","","","null","NaN","57","","Stimuli/Experimental_stims/localizer/body_parts/sincerely-media-9Zf6yh7RYbQ-unsplash.jpg","1","body_parts","","0","1","0","0.4","67.29999999999991"
"","iti_localizer","","html-keyboard-response","171","70638","0.0-2.0-59.0-1.0","1","90129","","null","","","","null","","57","","","1","","","","","","0.3","67.69999999999992"
"","localizer","","html-keyboard-response","172","71053","0.0-2.0-60.0-0.0","1","90129","","NaN","","","","null","NaN","58","","Stimuli/Experimental_stims/localizer/body_parts/luisa-denu-o5EU_lUB1rg-unsplash.jpg","1","body_parts","","0","1","0","0.4","67.99999999999991"
"","iti_localizer","","html-keyboard-response","173","71362","0.0-2.0-60.0-1.0","1","90129","","null","","","","null","","58","","","1","","","","","","0.3","68.39999999999992"
"","localizer","","html-keyboard-response","174","71773","0.0-2.0-61.0-0.0","1","90129","","NaN","","","","null","NaN","59","","Stimuli/Experimental_stims/localizer/body_parts/jan-romero-DL4DDQb8yjc-unsplash.jpg","1","body_parts","","0","1","0","0.4","68.69999999999992"
"","iti_localizer","","html-keyboard-response","175","72082","0.0-2.0-61.0-1.0","1","90129","","null","","","","null","","59","","","1","","","","","","0.3","69.09999999999992"
"","localizer","","html-keyboard-response","176","72491","0.0-2.0-62.0-0.0","1","90129","","NaN","","","","null","NaN","60","","Stimuli/Experimental_stims/localizer/body_parts/jonathan-borba-hTwH8QFkPMs-unsplash.jpg","1","body_parts","","0","1","0","0.4","69.39999999999992"
"","iti_localizer","","html-keyboard-response","177","72804","0.0-2.0-62.0-1.0","1","90129","","null","","","","null","","60","","","1","","","","","","0.3","69.79999999999993"
"","localizer","","html-keyboard-response","178","73221","0.0-2.0-63.0-0.0","1","90129","","NaN","","","","null","NaN","61","","Stimuli/Experimental_stims/localizer/body_parts/louis-hansel-FjKTMRTQYAs-unsplash.jpg","1","body_parts","","0","1","0","0.4","70.09999999999992"
"","iti_localizer","","html-keyboard-response","179","73533","0.0-2.0-63.0-1.0","1","90129","","null","","","","null","","61","","","1","","","","","","0.3","70.49999999999993"
"","localizer","","html-keyboard-response","180","73944","0.0-2.0-64.0-0.0","1","90129","","NaN","","","","null","NaN","62","","Stimuli/Experimental_stims/localizer/body_parts/hu-chen-tCbTGNwrFNM-unsplash.jpg","1","body_parts","","0","1","0","0.4","70.79999999999993"
"","iti_localizer","","html-keyboard-response","181","74258","0.0-2.0-64.0-1.0","1","90129","","null","","","","null","","62","","","1","","","","","","0.3","71.19999999999993"
"","localizer","","html-keyboard-response","182","74668","0.0-2.0-65.0-0.0","1","90129","","NaN","","","","null","NaN","63","","Stimuli/Experimental_stims/localizer/body_parts/sincerely-media-pdynOoM7xmA-unsplash.jpg","1","body_parts","","0","1","0","0.4","71.49999999999993"
"","iti_localizer","","html-keyboard-response","183","74980","0.0-2.0-65.0-1.0","1","90129","","null","","","","null","","63","","","1","","","","","","0.3","71.89999999999993"
"","localizer","","html-keyboard-response","184","75394","0.0-2.0-66.0-0.0","1","90129","","NaN","","","","null","NaN","64","","Stimuli/Experimental_stims/localizer/body_parts/juja-han-Z8-6EI2tYtw-unsplash.jpg","1","body_parts","","0","1","0","0.4","72.19999999999993"
"","iti_localizer","","html-keyboard-response","185","75708","0.0-2.0-66.0-1.0","1","90129","","null","","","","null","","64","","","1","","","","","","0.3","72.59999999999994"
"","localizer","","html-keyboard-response","186","76125","0.0-2.0-67.0-0.0","1","90129","","NaN","","","","null","NaN","65","","Stimuli/Experimental_stims/localizer/body_parts/apostolos-vamvouras-g5wKHRu2QW0-unsplash.jpg","1","body_parts","","0","1","0","0.4","72.89999999999993"
"","iti_localizer","","html-keyboard-response","187","76437","0.0-2.0-67.0-1.0","1","90129","","null","","","","null","","65","","","1","","","","","","14","73.29999999999994"
"","localizer","","html-keyboard-response","188","76854","0.0-2.0-68.0-0.0","1","90129","","NaN","","","","null","NaN","66","","Stimuli/Experimental_stims/localizer/objects/florian-klauer-nptLmg6jqDo-unsplash.jpg","1","objects","","0","1","0","0.4","87.29999999999994"
"","iti_localizer","","html-keyboard-response","189","77164","0.0-2.0-68.0-1.0","1","90129","","null","","","","null","","66","","","1","","","","","","0.3","87.69999999999995"
"","localizer","","html-keyboard-response","190","77581","0.0-2.0-69.0-0.0","1","90129","","NaN","","","","null","NaN","67","","Stimuli/Experimental_stims/localizer/objects/petr-sidorov-3jm5TGqtULU-unsplash.jpg","1","objects","","0","1","0","0.4","87.99999999999994"
"","iti_localizer","","html-keyboard-response","191","77890","0.0-2.0-69.0-1.0","1","90129","","null","","","","null","","67","","","1","","","","","","0.3","88.39999999999995"
"","localizer","","html-keyboard-response","192","78299","0.0-2.0-70.0-0.0","1","90129","","NaN","","","","null","NaN","68","","Stimuli/Experimental_stims/localizer/objects/barrett-ward-0lMpQaXfOCg-unsplash.jpg","1","objects","","0","1","0","0.4","88.69999999999995"
"","iti_localizer","","html-keyboard-response","193","78610","0.0-2.0-70.0-1.0","1","90129","","null","","","","null","","68","","","1","","","","","","0.3","89.09999999999995"
"","localizer","","html-keyboard-response","194","79022","0.0-2.0-71.0-0.0","1","90129","","NaN","","","","null","NaN","69","","Stimuli/Experimental_stims/localizer/objects/kelly-jean-cKjbI0Y00X0-unsplash.jpg","1","objects","","0","1","0","0.4","89.39999999999995"
"","iti_localizer","","html-keyboard-response","195","79330","0.0-2.0-71.0-1.0","1","90129","","null","","","","null","","69","","","1","","","","","","0.3","89.79999999999995"
"","localizer","","html-keyboard-response","196","79742","0.0-2.0-72.0-0.0","1","90129","","NaN","","","","null","NaN","70","","Stimuli/Experimental_stims/localizer/objects/ian-talmacs-ugqU0a4P18U-unsplash.jpg","1","objects","","0","1","0","0.4","90.09999999999995"
"","iti_localizer","","html-keyboard-response","197","80051","0.0-2.0-72.0-1.0","1","90129","","null","","","","null","","70","","","1","","","","","","0.3","90.49999999999996"
"","localizer","","html-keyboard-response","198","80461","0.0-2.0-73.0-0.0","1","90129","","NaN","","","","null","NaN","71","","Stimuli/Experimental_stims/localizer/objects/eugene-chystiakov-3neSwyntbQ8-unsplash.jpg","1","objects","","1","1","0","0.4","90.79999999999995"
"","iti_localizer","","html-keyboard-response","199","80769","0.0-2.0-73.0-1.0","1","90129","","null","","","","null","","71","","","1","","","","","","0.3","91.19999999999996"
"","localizer","","html-keyboard-response","200","81179","0.0-2.0-74.0-0.0","1","90129","","NaN","","","","null","NaN","72","","Stimuli/Experimental_stims/localizer/objects/saif71-com-VIKdvmGUhq8-unsplash.jpg","1","objects","","0","1","0","0.4","91.49999999999996"
"","iti_localizer","","html-keyboard-response","201","81488","0.0-2.0-74.0-1.0","1","90129","","null","","","","null","","72","","","1","","","","","","0.3","91.89999999999996"
"","localizer","","html-keyboard-response","202","81899","0.0-2.0-75.0-0.0","1","90129","","NaN","","","","null","NaN","73","","Stimuli/Experimental_stims/localizer/objects/mockup-graphics-v_a3DWpOFc0-unsplash.jpg","1","objects","","0","1","0","0.4","92.19999999999996"
"","iti_localizer","","html-keyboard-response","203","82214","0.0-2.0-75.0-1.0","1","90129","","null","","","","null","","73","","","1","","","","","","0.3","92.59999999999997"
"","localizer","","html-keyboard-response","204","82626","0.0-2.0-76.0-0.0","1","90129","","NaN","","","","null","NaN","74","","Stimuli/Experimental_stims/localizer/objects/chris-briggs-FobzAZJGM9M-unsplash.jpg","1","objects","","0","1","0","0.4","92.89999999999996"
"","iti_localizer","","html-keyboard-response","205","82939","0.0-2.0-76.0-1.0","1","90129","","null","","","","null","","74","","","1","","","","","","0.3","93.29999999999997"
"","localizer","","html-keyboard-response","206","83347","0.0-2.0-77.0-0.0","1","90129","","NaN","","","","null","NaN","75","","Stimuli/Experimental_stims/localizer/objects/ana-9GmAaEMMKho-unsplash.jpg","1","objects","","0","1","0","0.4","93.59999999999997"
"","iti_localizer","","html-keyboard-response","207","83659","0.0-2.0-77.0-1.0","1","90129","","null","","","","null","","75","","","1","","","","","","0.3","93.99999999999997"
"","localizer","","html-keyboard-response","208","84068","0.0-2.0-78.0-0.0","1","90129","","NaN","","","","null","NaN","76","","Stimuli/Experimental_stims/localizer/objects/sam-moghadam-khamseh-L_7MQsHl_aU-unsplash.jpg","1","objects","","0","1","0","0.4","94.29999999999997"
"","iti_localizer","","html-keyboard-response","209","84382","0.0-2.0-78.0-1.0","1","90129","","null","","","","null","","76","","","1","","","","","","0.3","94.69999999999997"
"","localizer","","html-keyboard-response","210","84793","0.0-2.0-79.0-0.0","1","90129","","NaN","","","","null","NaN","77","","Stimuli/Experimental_stims/localizer/objects/recha-oktaviani-t__61ap00Mc-unsplash.jpg","1","objects","","0","1","0","0.4","94.99999999999997"
"","iti_localizer","","html-keyboard-response","211","85107","0.0-2.0-79.0-1.0","1","90129","","null","","","","null","","77","","","1","","","","","","0.3","95.39999999999998"
"","localizer","","html-keyboard-response","212","85518","0.0-2.0-80.0-0.0","1","90129","","NaN","","","","null","NaN","78","","Stimuli/Experimental_stims/localizer/objects/chris-briggs-x9TCnxNBofE-unsplash.jpg","1","objects","","0","1","0","0.4","95.69999999999997"
"","iti_localizer","","html-keyboard-response","213","85825","0.0-2.0-80.0-1.0","1","90129","","null","","","","null","","78","","","1","","","","","","0.3","96.09999999999998"
"","localizer","","html-keyboard-response","214","86238","0.0-2.0-81.0-0.0","1","90129","","NaN","","","","null","NaN","79","","Stimuli/Experimental_stims/localizer/objects/andrew-petrov-TVJqDat4MAw-unsplash.jpg","1","objects","","0","1","0","0.4","96.39999999999998"
"","iti_localizer","","html-keyboard-response","215","86547","0.0-2.0-81.0-1.0","1","90129","","null","","","","null","","79","","","1","","","","","","0.3","96.79999999999998"
"","localizer","","html-keyboard-response","216","86956","0.0-2.0-82.0-0.0","1","90129","","NaN","","","","null","NaN","80","","Stimuli/Experimental_stims/localizer/objects/girl-with-red-hat-oJG9HOVKGMs-unsplash.jpg","1","objects","","0","1","0","0.4","97.09999999999998"
"","iti_localizer","","html-keyboard-response","217","87268","0.0-2.0-82.0-1.0","1","90129","","null","","","","null","","80","","","1","","","","","","0.3","97.49999999999999"
"","localizer","","html-keyboard-response","218","87685","0.0-2.0-83.0-0.0","1","90129","","NaN","","","","null","NaN","81","","Stimuli/Experimental_stims/localizer/objects/miti-MZPdB1DU4a4-unsplash.jpg","1","objects","","0","1","0","0.4","97.79999999999998"
"","iti_localizer","","html-keyboard-response","219","87996","0.0-2.0-83.0-1.0","1","90129","","null","","","","null","","81","","","1","","","","","","0.3","98.19999999999999"
"","localizer","","html-keyboard-response","220","88407","0.0-2.0-84.0-0.0","1","90129","","NaN","","","","null","NaN","82","","Stimuli/Experimental_stims/localizer/objects/quino-al-8gWEAAXJjtI-unsplash.jpg","1","objects","","0","1","0","0.4","98.49999999999999"
"","iti_localizer","","html-keyboard-response","221","88716","0.0-2.0-84.0-1.0","1","90129","","null","","","","null","","82","","","1","","","","","","0.3","98.89999999999999"
"","localizer","","html-keyboard-response","222","89132","0.0-2.0-85.0-0.0","1","90129","","NaN","","","","null","NaN","83","","Stimuli/Experimental_stims/localizer/objects/florian-klauer-mk7D-4UCfmg-unsplash.jpg","1","objects","","0","1","0","0.4","99.19999999999999"
"","iti_localizer","","html-keyboard-response","223","89445","0.0-2.0-85.0-1.0","1","90129","","null","","","","null","","83","","","1","","","","","","0.3","99.6"
"","localizer","","html-keyboard-response","224","89862","0.0-2.0-86.0-0.0","1","90129","","NaN","","","","null","NaN","84","","Stimuli/Experimental_stims/localizer/objects/quaritsch-photography-lZ8onQ1wuY8-unsplash.jpg","1","objects","","0","1","0","0.4","99.89999999999999"
"","iti_localizer","","html-keyboard-response","225","90174","0.0-2.0-86.0-1.0","1","90129","","null","","","","null","","84","","","1","","","","","","0.3","100.3"
"","localizer","","html-keyboard-response","226","90589","0.0-2.0-87.0-0.0","1","90129","","NaN","","","","null","NaN","85","","Stimuli/Experimental_stims/localizer/objects/jiangxulei1990-eIzzzwtkBjU-unsplash.jpg","1","objects","","1","1","0","0.4","100.6"
"","iti_localizer","","html-keyboard-response","227","90896","0.0-2.0-87.0-1.0","1","90129","","null","","","","null","","85","","","1","","","","","","14","101"
"","localizer","","html-keyboard-response","228","91306","0.0-2.0-88.0-0.0","1","90129","","NaN","","","","null","NaN","86","","Stimuli/Experimental_stims/localizer/body_parts/ignacio-campo-tC9boyqy_40-unsplash.jpg","1","body_parts","","0","1","0","0.4","115"
"","iti_localizer","","html-keyboard-response","229","91621","0.0-2.0-88.0-1.0","1","90129","","null","","","","null","","86","","","1","","","","","","0.3","115.4"
"","localizer","","html-keyboard-response","230","92038","0.0-2.0-89.0-0.0","1","90129","","NaN","","","","null","NaN","87","","Stimuli/Experimental_stims/localizer/body_parts/niu-niu-5HzOtV-FSlw-unsplash.jpg","1","body_parts","","0","1","0","0.4","115.7"
"","iti_localizer","","html-keyboard-response","231","92349","0.0-2.0-89.0-1.0","1","90129","","null","","","","null","","87","","","1","","","","","","0.3","116.10000000000001"
"","localizer","","html-keyboard-response","232","92764","0.0-2.0-90.0-0.0","1","90129","","NaN","","","","null","NaN","88","","Stimuli/Experimental_stims/localizer/body_parts/marcel-fagin-OUYg0Q3ec-Y-unsplash.jpg","1","body_parts","","0","1","0","0.4","116.4"
"","iti_localizer","","html-keyboard-response","233","93074","0.0-2.0-90.0-1.0","1","90129","","null","","","","null","","88","","","1","","","","","","0.3","116.80000000000001"
"","localizer","","html-keyboard-response","234","93483","0.0-2.0-91.0-0.0","1","90129","","NaN","","","","null","NaN","89","","Stimuli/Experimental_stims/localizer/body_parts/liv-bruce-M0oVPGsWk1E-unsplash.jpg","1","body_parts","","0","1","0","0.4","117.10000000000001"
"","iti_localizer","","html-keyboard-response","235","93795","0.0-2.0-91.0-1.0","1","90129","","null","","","","null","","89","","","1","","","","","","0.3","117.50000000000001"
"","localizer","","html-keyboard-response","236","94207","0.0-2.0-92.0-0.0","1","90129","","NaN","","","","null","NaN","90","","Stimuli/Experimental_stims/localizer/body_parts/billie-5OXE3KjDEfI-unsplash.jpg","1","body_parts","","0","1","0","0.4","117.80000000000001"
"","iti_localizer","","html-keyboard-response","237","94517","0.0-2.0-92.0-1.0","1","90129","","null","","","","null","","90","","","1","","","","","","0.3","118.20000000000002"
"","localizer","","html-keyboard-response","238","94929","0.0-2.0-93.0-0.0","1","90129","","NaN","","","","null","NaN","91","","Stimuli/Experimental_stims/localizer/body_parts/sincerely-media-3DZHTq_i7Qk-unsplash.jpg","1","body_parts","","0","1","0","0.4","118.50000000000001"
"","iti_localizer","","html-keyboard-response","239","95244","0.0-2.0-93.0-1.0","1","90129","","null","","","","null","","91","","","1","","","","","","0.3","118.90000000000002"
"","localizer","","html-keyboard-response","240","95661","0.0-2.0-94.0-0.0","1","90129","","NaN","","","","null","NaN","92","","Stimuli/Experimental_stims/localizer/body_parts/kai-wenzel-zYDJOxjaZrQ-unsplash.jpg","1","body_parts","","0","1","0","0.4","119.20000000000002"
"","iti_localizer","","html-keyboard-response","241","95973","0.0-2.0-94.0-1.0","1","90129","","null","","","","null","","92","","","1","","","","","","0.3","119.60000000000002"
"","localizer","","html-keyboard-response","242","96386","0.0-2.0-95.0-0.0","1","90129","","NaN","","","","null","NaN","93","","Stimuli/Experimental_stims/localizer/body_parts/toan-nguyen-VIeLuUFzesg-unsplash.jpg","1","body_parts","","1","1","0","0.4","119.90000000000002"
"","iti_localizer","","html-keyboard-response","243","96703","0.0-2.0-95.0-1.0","1","90129","","null","","","","null","","93","","","1","","","","","","0.3","120.30000000000003"
"","localizer","","html-keyboard-response","244","97118","0.0-2.0-96.0-0.0","1","90129","","NaN","","","","null","NaN","94","","Stimuli/Experimental_stims/localizer/body_parts/jasper-garratt-Ng_Kl7K6V8Y-unsplash.jpg","1","body_parts","","0","1","0","0.4","120.60000000000002"
"","iti_localizer","","html-keyboard-response","245","97431","0.0-2.0-96.0-1.0","1","90129","","null","","","","null","","94","","","1","","","","","","0.3","121.00000000000003"
"","localizer","","html-keyboard-response","246","97846","0.0-2.0-97.0-0.0","1","90129","","NaN","","","","null","NaN","95","","Stimuli/Experimental_stims/localizer/body_parts/sippakorn-yamkasikorn-32_sJlJa5gA-unsplash.jpg","1","body_parts","","0","1","0","0.4","121.30000000000003"
"","iti_localizer","","html-keyboard-response","247","98156","0.0-2.0-97.0-1.0","1","90129","","null","","","","null","","95","","","1","","","","","","0.3","121.70000000000003"
"","localizer","","html-keyboard-response","248","98573","0.0-2.0-98.0-0.0","1","90129","","NaN","","","","null","NaN","96","","Stimuli/Experimental_stims/localizer/body_parts/freestocks-qw9LFf5T790-unsplash.jpg","1","body_parts","","0","1","0","0.4","122.00000000000003"
"","iti_localizer","","html-keyboard-response","249","98885","0.0-2.0-98.0-1.0","1","90129","","null","","","","null","","96","","","1","","","","","","0.3","122.40000000000003"
"","localizer","","html-keyboard-response","250","99303","0.0-2.0-99.0-0.0","1","90129","","NaN","","","","null","NaN","97","","Stimuli/Experimental_stims/localizer/body_parts/jeremy-yap-TfJEi17kA0w-unsplash.jpg","1","body_parts","","0","1","0","0.4","122.70000000000003"
"","iti_localizer","","html-keyboard-response","251","99611","0.0-2.0-99.0-1.0","1","90129","","null","","","","null","","97","","","1","","","","","","0.3","123.10000000000004"
"","localizer","","html-keyboard-response","252","100021","0.0-2.0-100.0-0.0","1","90129","","NaN","","","","null","NaN","98","","Stimuli/Experimental_stims/localizer/body_parts/anelya-okapova-V69kmOyZ3SU-unsplash.jpg","1","body_parts","","1","1","0","0.4","123.40000000000003"
"","iti_localizer","","html-keyboard-response","253","100330","0.0-2.0-100.0-1.0","1","90129","","null","","","","null","","98","","","1","","","","","","0.3","123.80000000000004"
"","localizer","","html-keyboard-response","254","100738","0.0-2.0-101.0-0.0","1","90129","","NaN","","","","null","NaN","99","","Stimuli/Experimental_stims/localizer/body_parts/nick-page-WTNmgJtwzGI-unsplash.jpg","1","body_parts","","0","1","0","0.4","124.10000000000004"
"","iti_localizer","","html-keyboard-response","255","101051","0.0-2.0-101.0-1.0","1","90129","","null","","","","null","","99","","","1","","","","","","0.3","124.50000000000004"
"","localizer","","html-keyboard-response","256","101456","0.0-2.0-102.0-0.0","1","90129","","NaN","","","","null","NaN","100","","Stimuli/Experimental_stims/localizer/body_parts/lilartsy-1KkhQ8uL28g-unsplash.jpg","1","body_parts","","0","1","0","0.4","124.80000000000004"
"","iti_localizer","","html-keyboard-response","257","101763","0.0-2.0-102.0-1.0","1","90129","","null","","","","null","","100","","","1","","","","","","0.3","125.20000000000005"
"","localizer","","html-keyboard-response","258","102175","0.0-2.0-103.0-0.0","1","90129","","NaN","","","","null","NaN","101","","Stimuli/Experimental_stims/localizer/body_parts/xavier-foucrier-dLZUNHsT8vo-unsplash.jpg","1","body_parts","","0","1","0","0.4","125.50000000000004"
"","iti_localizer","","html-keyboard-response","259","102482","0.0-2.0-103.0-1.0","1","90129","","null","","","","null","","101","","","1","","","","","","0.3","125.90000000000005"
"","localizer","","html-keyboard-response","260","102893","0.0-2.0-104.0-0.0","1","90129","","NaN","","","","null","NaN","102","","Stimuli/Experimental_stims/localizer/body_parts/toa-heftiba-qxvWnfHb3-M-unsplash.jpg","1","body_parts","","0","1","0","0.4","126.20000000000005"
"","iti_localizer","","html-keyboard-response","261","103205","0.0-2.0-104.0-1.0","1","90129","","null","","","","null","","102","","","1","","","","","","0.3","126.60000000000005"
"","localizer","","html-keyboard-response","262","103622","0.0-2.0-105.0-0.0","1","90129","","NaN","","","","null","NaN","103","","Stimuli/Experimental_stims/localizer/body_parts/louisa-potter-zd29nBmLuig-unsplash.jpg","1","body_parts","","0","1","0","0.4","126.90000000000005"
"","iti_localizer","","html-keyboard-response","263","103931","0.0-2.0-105.0-1.0","1","90129","","null","","","","null","","103","","","1","","","","","","0.3","127.30000000000005"
"","localizer","","html-keyboard-response","264","104342","0.0-2.0-106.0-0.0","1","90129","","NaN","","","","null","NaN","104","","Stimuli/Experimental_stims/localizer/body_parts/ant-rozetsky-bXQd8JXx0vs-unsplash.jpg","1","body_parts","","0","1","0","0.4","127.60000000000005"
"","iti_localizer","","html-keyboard-response","265","104655","0.0-2.0-106.0-1.0","1","90129","","null","","","","null","","104","","","1","","","","","","0.3","128.00000000000006"
"","localizer","","html-keyboard-response","266","105067","0.0-2.0-107.0-0.0","1","90129","","NaN","","","","null","NaN","105","","Stimuli/Experimental_stims/localizer/body_parts/sina-rezakhani-d1gQi0Jl05U-unsplash (1).jpg","1","body_parts","","0","1","0","0.4","128.30000000000007"
"","iti_localizer","","html-keyboard-response","267","105378","0.0-2.0-107.0-1.0","1","90129","","null","","","","null","","105","","","1","","","","","","14","128.70000000000007"
"","localizer","","html-keyboard-response","268","105788","0.0-2.0-108.0-0.0","1","90129","","NaN","","","","null","NaN","106","","Stimuli/Experimental_stims/localizer/outdoor_scenes/jaanus-jagomagi-FddgewYQF2M-unsplash.jpg","1","outdoor_scenes","","1","1","0","0.4","142.70000000000007"
"","iti_localizer","","html-keyboard-response","269","106101","0.0-2.0-108.0-1.0","1","90129","","null","","","","null","","106","","","1","","","","","","0.3","143.10000000000008"
"","localizer","","html-keyboard-response","270","106516","0.0-2.0-109.0-0.0","1","90129","","NaN","","","","null","NaN","107","","Stimuli/Experimental_stims/localizer/outdoor_scenes/ryan-schroeder-Gg7uKdHFb_c-unsplash.jpg","1","outdoor_scenes","","0","1","0","0.4","143.4000000000001"
"","iti_localizer","","html-keyboard-response","271","106829","0.0-2.0-109.0-1.0","1","90129","","null","","","","null","","107","","","1","","","","","","0.3","143.8000000000001"
"","localizer","","html-keyboard-response","272","107247","0.0-2.0-110.0-0.0","1","90129","","NaN","","","","null","NaN","108","","Stimuli/Experimental_stims/localizer/outdoor_scenes/alessio-furlan-Vw3a0HgE7AM-unsplash.jpg","1","outdoor_scenes","","0","1","0","0.4","144.1000000000001"
"","iti_localizer","","html-keyboard-response","273","107557","0.0-2.0-110.0-1.0","1","90129","","null","","","","null","","108","","","1","","","","","","0.3","144.5000000000001"
"","localizer","","html-keyboard-response","274","107975","0.0-2.0-111.0-0.0","1","90129","","NaN","","","","null","NaN","109","","Stimuli/Experimental_stims/localizer/outdoor_scenes/bruno-van-der-kraan-qez8mNJ3ilU-unsplash.jpg","1","outdoor_scenes","","0","1","0","0.4","144.80000000000013"
"","iti_localizer","","html-keyboard-response","275","108282","0.0-2.0-111.0-1.0","1","90129","","null","","","","null","","109","","","1","","","","","","0.3","145.20000000000013"
"","localizer","","html-keyboard-response","276","108692","0.0-2.0-112.0-0.0","1","90129","","NaN","","","","null","NaN","110","","Stimuli/Experimental_stims/localizer/outdoor_scenes/v2osk-1Z2niiBPg5A-unsplash.jpg","1","outdoor_scenes","","0","1","0","0.4","145.50000000000014"
"","iti_localizer","","html-keyboard-response","277","109007","0.0-2.0-112.0-1.0","1","90129","","null","","","","null","","110","","","1","","","","","","0.3","145.90000000000015"
"","localizer","","html-keyboard-response","278","109422","0.0-2.0-113.0-0.0","1","90129","","NaN","","","","null","NaN","111","","Stimuli/Experimental_stims/localizer/outdoor_scenes/dawid-zawila--G3rw6Y02D0-unsplash.jpg","1","outdoor_scenes","","0","1","0","0.4","146.20000000000016"
"","iti_localizer","","html-keyboard-response","279","109734","0.0-2.0-113.0-1.0","1","90129","","null","","","","null","","111","","","1","","","","","","0.3","146.60000000000016"
"","localizer","","html-keyboard-response","280","110149","0.0-2.0-114.0-0.0","1","90129","","NaN","","","","null","NaN","112","","Stimuli/Experimental_stims/localizer/outdoor_scenes/cosmic-timetraveler-pYyOZ8q7AII-unsplash.jpg","1","outdoor_scenes","","1","1","0","0.4","146.90000000000018"
"","iti_localizer","","html-keyboard-response","281","110460","0.0-2.0-114.0-1.0","1","90129","","null","","","","null","","112","","","1","","","","","","0.3","147.30000000000018"
"","localizer","","html-keyboard-response","282","110876","0.0-2.0-115.0-0.0","1","90129","","NaN","","","","null","NaN","113","","Stimuli/Experimental_stims/localizer/outdoor_scenes/chris-holgersson-zshyCr6HGw0-unsplash.jpg","1","outdoor_scenes","","0","1","0","0.4","147.6000000000002"
"","iti_localizer","","html-keyboard-response","283","111185","0.0-2.0-115.0-1.0","1","90129","","null","","","","null","","113","","","1","","","","","","0.3","148.0000000000002"
"","localizer","","html-keyboard-response","284","111593","0.0-2.0-116.0-0.0","1","90129","","NaN","","","","null","NaN","114","","Stimuli/Experimental_stims/localizer/outdoor_scenes/ricardo-gomez-angel-dTSaC-S-7fs-unsplash.jpg","1","outdoor_scenes","","0","1","0","0.4","148.3000000000002"
"","iti_localizer","","html-keyboard-response","285","111907","0.0-2.0-116.0-1.0","1","90129","","null","","","","null","","114","","","1","","","","","","0.3","148.70000000000022"
"","localizer","","html-keyboard-response","286","112314","0.0-2.0-117.0-0.0","1","90129","","NaN","","","","null","NaN","115","","Stimuli/Experimental_stims/localizer/outdoor_scenes/andres-sanz-uILhNE1VcwA-unsplash.jpg","1","outdoor_scenes","","0","1","0","0.4","149.00000000000023"
"","iti_localizer","","html-keyboard-response","287","112627","0.0-2.0-117.0-1.0","1","90129","","null","","","","null","","115","","","1","","","","","","0.3","149.40000000000023"
"","localizer","","html-keyboard-response","288","113038","0.0-2.0-118.0-0.0","1","90129","","NaN","","","","null","NaN","116","","Stimuli/Experimental_stims/localizer/outdoor_scenes/john-fowler-aaIN3y2zcMQ-unsplash.jpg","1","outdoor_scenes","","0","1","0","0.4","149.70000000000024"
"","iti_localizer","","html-keyboard-response","289","113348","0.0-2.0-118.0-1.0","1","90129","","null","","","","null","","116","","","1","","","","","","0.3","150.10000000000025"
"","localizer","","html-keyboard-response","290","113765","0.0-2.0-119.0-0.0","1","90129","","NaN","","","","null","NaN","117","","Stimuli/Experimental_stims/localizer/outdoor_scenes/quino-al-vmZ2DehWQ3Q-unsplash.jpg","1","outdoor_scenes","","0","1","0","0.4","150.40000000000026"
"","iti_localizer","","html-keyboard-response","291","114079","0.0-2.0-119.0-1.0","1","90129","","null","","","","null","","117","","","1","","","","","","0.3","150.80000000000027"
"","localizer","","html-keyboard-response","292","114495","0.0-2.0-120.0-0.0","1","90129","","NaN","","","","null","NaN","118","","Stimuli/Experimental_stims/localizer/outdoor_scenes/antoine-beauvillain-qrPqGP-SG8w-unsplash.jpg","1","outdoor_scenes","","0","1","0","0.4","151.10000000000028"
"","iti_localizer","","html-keyboard-response","293","114805","0.0-2.0-120.0-1.0","1","90129","","null","","","","null","","118","","","1","","","","","","0.3","151.50000000000028"
"","localizer","","html-keyboard-response","294","115221","0.0-2.0-121.0-0.0","1","90129","","NaN","","","","null","NaN","119","","Stimuli/Experimental_stims/localizer/outdoor_scenes/jack-millard-zjyP-UYI-ko-unsplash.jpg","1","outdoor_scenes","","0","1","0","0.4","151.8000000000003"
"","iti_localizer","","html-keyboard-response","295","115533","0.0-2.0-121.0-1.0","1","90129","","null","","","","null","","119","","","1","","","","","","0.3","152.2000000000003"
"","localizer","","html-keyboard-response","296","115949","0.0-2.0-122.0-0.0","1","90129","","NaN","","","","null","NaN","120","","Stimuli/Experimental_stims/localizer/outdoor_scenes/kalen-emsley-_LuLiJc1cdo-unsplash.jpg","1","outdoor_scenes","","0","1","0","0.4","152.5000000000003"
"","iti_localizer","","html-keyboard-response","297","116263","0.0-2.0-122.0-1.0","1","90129","","null","","","","null","","120","","","1","","","","","","0.3","152.90000000000032"
"","localizer","","html-keyboard-response","298","116679","0.0-2.0-123.0-0.0","1","90129","","NaN","","","","null","NaN","121","","Stimuli/Experimental_stims/localizer/outdoor_scenes/jay-cai-F_laX9E8CUo-unsplash.jpg","1","outdoor_scenes","","0","1","0","0.4","153.20000000000033"
"","iti_localizer","","html-keyboard-response","299","116989","0.0-2.0-123.0-1.0","1","90129","","null","","","","null","","121","","","1","","","","","","0.3","153.60000000000034"
"","localizer","","html-keyboard-response","300","117402","0.0-2.0-124.0-0.0","1","90129","","NaN","","","","null","NaN","122","","Stimuli/Experimental_stims/localizer/outdoor_scenes/john-mark-arnold-XNIjmb6Ax04-unsplash.jpg","1","outdoor_scenes","","0","1","0","0.4","153.90000000000035"
"","iti_localizer","","html-keyboard-response","301","117719","0.0-2.0-124.0-1.0","1","90129","","null","","","","null","","122","","","1","","","","","","0.3","154.30000000000035"
"","localizer","","html-keyboard-response","302","118130","0.0-2.0-125.0-0.0","1","90129","","NaN","","","","null","NaN","123","","Stimuli/Experimental_stims/localizer/outdoor_scenes/erol-ahmed-d3pTF3r_hwY-unsplash.jpg","1","outdoor_scenes","","0","1","0","0.4","154.60000000000036"
"","iti_localizer","","html-keyboard-response","303","118447","0.0-2.0-125.0-1.0","1","90129","","null","","","","null","","123","","","1","","","","","","0.3","155.00000000000037"
"","localizer","","html-keyboard-response","304","118861","0.0-2.0-126.0-0.0","1","90129","","NaN","","","","null","NaN","124","","Stimuli/Experimental_stims/localizer/outdoor_scenes/gabriel-garcia-marengo-ht9aLtovtSo-unsplash.jpg","1","outdoor_scenes","","0","1","0","0.4","155.30000000000038"
"","iti_localizer","","html-keyboard-response","305","119172","0.0-2.0-126.0-1.0","1","90129","","null","","","","null","","124","","","1","","","","","","0.3","155.7000000000004"
"","localizer","","html-keyboard-response","306","119579","0.0-2.0-127.0-0.0","1","90129","","NaN","","","","null","NaN","125","","Stimuli/Experimental_stims/localizer/outdoor_scenes/simon-berger-UqCnDyc_3vA-unsplash.jpg","1","outdoor_scenes","","0","1","0","0.4","156.0000000000004"
"","iti_localizer","","html-keyboard-response","307","119891","0.0-2.0-127.0-1.0","1","90129","","null","","","","null","","125","","","1","","","","","","14","156.4000000000004"
"","localizer","","html-keyboard-response","308","120299","0.0-2.0-128.0-0.0","1","90129","","NaN","","","","null","NaN","126","","Stimuli/Experimental_stims/localizer/faces/drew-hays-agGIKYs4mYs-unsplash.jpg","1","faces","","0","1","0","0.4","170.4000000000004"
"","iti_localizer","","html-keyboard-response","309","120616","0.0-2.0-128.0-1.0","1","90129","","null","","","","null","","126","","","1","","","","","","0.3","170.8000000000004"
"","localizer","","html-keyboard-response","310","121028","0.0-2.0-129.0-0.0","1","90129","","NaN","","","","null","NaN","127","","Stimuli/Experimental_stims/localizer/faces/allef-vinicius-C_1jjFJioWg-unsplash.jpg","1","faces","","0","1","0","0.4","171.10000000000042"
"","iti_localizer","","html-keyboard-response","311","121342","0.0-2.0-129.0-1.0","1","90129","","null","","","","null","","127","","","1","","","","","","0.3","171.50000000000043"
"","localizer","","html-keyboard-response","312","121758","0.0-2.0-130.0-0.0","1","90129","","NaN","","","","null","NaN","128","","Stimuli/Experimental_stims/localizer/faces/toa-heftiba-2O1EUSTRBrY-unsplash.jpg","1","faces","","0","1","0","0.4","171.80000000000044"
"","iti_localizer","","html-keyboard-response","313","122069","0.0-2.0-130.0-1.0","1","90129","","null","","","","null","","128","","","1","","","","","","0.3","172.20000000000044"
"","localizer","","html-keyboard-response","314","122483","0.0-2.0-131.0-0.0","1","90129","","NaN","","","","null","NaN","129","","Stimuli/Experimental_stims/localizer/faces/jimmy-fermin-bqe0J0b26RQ-unsplash.jpg","1","faces","","0","1","0","0.4","172.50000000000045"
"","iti_localizer","","html-keyboard-response","315","122794","0.0-2.0-131.0-1.0","1","90129","","null","","","","null","","129","","","1","","","","","","0.3","172.90000000000046"
"","localizer","","html-keyboard-response","316","123204","0.0-2.0-132.0-0.0","1","90129","","NaN","","","","null","NaN","130","","Stimuli/Experimental_stims/localizer/faces/gabriel-silverio-u3WmDyKGsrY-unsplash.jpg","1","faces","","0","1","0","0.4","173.20000000000047"
"","iti_localizer","","html-keyboard-response","317","123519","0.0-2.0-132.0-1.0","1","90129","","null","","","","null","","130","","","1","","","","","","0.3","173.60000000000048"
"","localizer","","html-keyboard-response","318","123931","0.0-2.0-133.0-0.0","1","90129","","NaN","","","","null","NaN","131","","Stimuli/Experimental_stims/localizer/faces/olena-sergienko-0TSd6uCKTKc-unsplash.jpg","1","faces","","1","1","0","0.4","173.9000000000005"
"","iti_localizer","","html-keyboard-response","319","124242","0.0-2.0-133.0-1.0","1","90129","","null","","","","null","","131","","","1","","","","","","0.3","174.3000000000005"
"","localizer","","html-keyboard-response","320","124655","0.0-2.0-134.0-0.0","1","90129","","NaN","","","","null","NaN","132","","Stimuli/Experimental_stims/localizer/faces/aatik-tasneem-7omHUGhhmZ0-unsplash.jpg","1","faces","","1","1","0","0.4","174.6000000000005"
"","iti_localizer","","html-keyboard-response","321","124965","0.0-2.0-134.0-1.0","1","90129","","null","","","","null","","132","","","1","","","","","","0.3","175.0000000000005"
"","localizer","","html-keyboard-response","322","125378","0.0-2.0-135.0-0.0","1","90129","","NaN","","","","null","NaN","133","","Stimuli/Experimental_stims/localizer/faces/ian-dooley-d1UPkiFd04A-unsplash.jpg","1","faces","","0","1","0","0.4","175.30000000000052"
"","iti_localizer","","html-keyboard-response","323","125694","0.0-2.0-135.0-1.0","1","90129","","null","","","","null","","133","","","1","","","","","","0.3","175.70000000000053"
"","localizer","","html-keyboard-response","324","126109","0.0-2.0-136.0-0.0","1","90129","","NaN","","","","null","NaN","134","","Stimuli/Experimental_stims/localizer/faces/janaya-dasiuk-_A2LZdUqHgA-unsplash.jpg","1","faces","","0","1","0","0.4","176.00000000000054"
"","iti_localizer","","html-keyboard-response","325","126422","0.0-2.0-136.0-1.0","1","90129","","null","","","","null","","134","","","1","","","","","","0.3","176.40000000000055"
"","localizer","","html-keyboard-response","326","126840","0.0-2.0-137.0-0.0","1","90129","","NaN","","","","null","NaN","135","","Stimuli/Experimental_stims/localizer/faces/rafaella-mendes-diniz-et_78QkMMQs-unsplash.jpg","1","faces","","0","1","0","0.4","176.70000000000056"
"","iti_localizer","","html-keyboard-response","327","127152","0.0-2.0-137.0-1.0","1","90129","","null","","","","null","","135","","","1","","","","","","0.3","177.10000000000056"
"","localizer","","html-keyboard-response","328","127565","0.0-2.0-138.0-0.0","1","90129","","NaN","","","","null","NaN","136","","Stimuli/Experimental_stims/localizer/faces/linkedin-sales-solutions-pAtA8xe_iVM-unsplash.jpg","1","faces","","0","1","0","0.4","177.40000000000057"
"","iti_localizer","","html-keyboard-response","329","127879","0.0-2.0-138.0-1.0","1","90129","","null","","","","null","","136","","","1","","","","","","0.3","177.80000000000058"
"","localizer","","html-keyboard-response","330","128291","0.0-2.0-139.0-0.0","1","90129","","NaN","","","","null","NaN","137","","Stimuli/Experimental_stims/localizer/faces/jeffery-erhunse-vp9mRauo68c-unsplash.jpg","1","faces","","0","1","0","0.4","178.1000000000006"
"","iti_localizer","","html-keyboard-response","331","128605","0.0-2.0-139.0-1.0","1","90129","","null","","","","null","","137","","","1","","","","","","0.3","178.5000000000006"
"","localizer","","html-keyboard-response","332","129023","0.0-2.0-140.0-0.0","1","90129","","NaN","","","","null","NaN","138","","Stimuli/Experimental_stims/localizer/faces/jakob-owens-lkMJcGDZLVs-unsplash.jpg","1","faces","","0","1","0","0.4","178.8000000000006"
"","iti_localizer","","html-keyboard-response","333","129331","0.0-2.0-140.0-1.0","1","90129","","null","","","","null","","138","","","1","","","","","","0.3","179.2000000000006"
"","localizer","","html-keyboard-response","334","129744","0.0-2.0-141.0-0.0","1","90129","","NaN","","","","null","NaN","139","","Stimuli/Experimental_stims/localizer/faces/jurica-koletic-7YVZYZeITc8-unsplash.jpg","1","faces","","0","1","0","0.4","179.50000000000063"
"","iti_localizer","","html-keyboard-response","335","130052","0.0-2.0-141.0-1.0","1","90129","","null","","","","null","","139","","","1","","","","","","0.3","179.90000000000063"
"","localizer","","html-keyboard-response","336","130460","0.0-2.0-142.0-0.0","1","90129","","NaN","","","","null","NaN","140","","Stimuli/Experimental_stims/localizer/faces/philip-martin-5aGUyCW_PJw-unsplash.jpg","1","faces","","0","1","0","0.4","180.20000000000064"
"","iti_localizer","","html-keyboard-response","337","130773","0.0-2.0-142.0-1.0","1","90129","","null","","","","null","","140","","","1","","","","","","0.3","180.60000000000065"
"","localizer","","html-keyboard-response","338","131188","0.0-2.0-143.0-0.0","1","90129","","NaN","","","","null","NaN","141","","Stimuli/Experimental_stims/localizer/faces/james-marty-h1BuNJZzpC8-unsplash.jpg","1","faces","","0","1","0","0.4","180.90000000000066"
"","iti_localizer","","html-keyboard-response","339","131503","0.0-2.0-143.0-1.0","1","90129","","null","","","","null","","141","","","1","","","","","","0.3","181.30000000000067"
"","localizer","","html-keyboard-response","340","131919","0.0-2.0-144.0-0.0","1","90129","","NaN","","","","null","NaN","142","","Stimuli/Experimental_stims/localizer/faces/ayo-ogunseinde-sibVwORYqs0-unsplash.jpg","1","faces","","0","1","0","0.4","181.60000000000068"
"","iti_localizer","","html-keyboard-response","341","132227","0.0-2.0-144.0-1.0","1","90129","","null","","","","null","","142","","","1","","","","","","0.3","182.00000000000068"
"","localizer","","html-keyboard-response","342","132638","0.0-2.0-145.0-0.0","1","90129","","NaN","","","","null","NaN","143","","Stimuli/Experimental_stims/localizer/faces/rui-silvestre-hAMJpesMeDE-unsplash.jpg","1","faces","","0","1","0","0.4","182.3000000000007"
"","iti_localizer","","html-keyboard-response","343","132950","0.0-2.0-145.0-1.0","1","90129","","null","","","","null","","143","","","1","","","","","","0.3","182.7000000000007"
"","localizer","","html-keyboard-response","344","133367","0.0-2.0-146.0-0.0","1","90129","","NaN","","","","null","NaN","144","","Stimuli/Experimental_stims/localizer/faces/aiony-haust-K0DxxljcRv0-unsplash.jpg","1","faces","","0","1","0","0.4","183.0000000000007"
"","iti_localizer","","html-keyboard-response","345","133676","0.0-2.0-146.0-1.0","1","90129","","null","","","","null","","144","","","1","","","","","","0.3","183.40000000000072"
"","localizer","","html-keyboard-response","346","134085","0.0-2.0-147.0-0.0","1","90129","","NaN","","","","null","NaN","145","","Stimuli/Experimental_stims/localizer/faces/austin-wade-X6Uj51n5CE8-unsplash.jpg","1","faces","","0","1","0","0.4","183.70000000000073"
"","iti_localizer","","html-keyboard-response","347","134393","0.0-2.0-147.0-1.0","1","90129","","null","","","","null","","145","","","1","","","","","","14","184.10000000000073"
"","localizer","","html-keyboard-response","348","134806","0.0-2.0-148.0-0.0","1","90129","","NaN","","","","null","NaN","146","","Stimuli/Experimental_stims/localizer/objects/nordwood-themes-E9tFH39iRPE-unsplash.jpg","1","objects","","0","1","0","0.4","198.10000000000073"
"","iti_localizer","","html-keyboard-response","349","135118","0.0-2.0-148.0-1.0","1","90129","","null","","","","null","","146","","","1","","","","","","0.3","198.50000000000074"
"","localizer","","html-keyboard-response","350","135534","0.0-2.0-149.0-0.0","1","90129","","NaN","","","","null","NaN","147","","Stimuli/Experimental_stims/localizer/objects/mockup-graphics-Pj2PY-E-LfM-unsplash.jpg","1","objects","","1","1","0","0.4","198.80000000000075"
"","iti_localizer","","html-keyboard-response","351","135844","0.0-2.0-149.0-1.0","1","90129","","null","","","","null","","147","","","1","","","","","","0.3","199.20000000000076"
"","localizer","","html-keyboard-response","352","136252","0.0-2.0-150.0-0.0","1","90129","","NaN","","","","null","NaN","148","","Stimuli/Experimental_stims/localizer/objects/dario-mendez-WmF_XLF4-Rs-unsplash.jpg","1","objects","","0","1","0","0.4","199.50000000000077"
"","iti_localizer","","html-keyboard-response","353","136567","0.0-2.0-150.0-1.0","1","90129","","null","","","","null","","148","","","1","","","","","","0.3","199.90000000000077"
"","localizer","","html-keyboard-response","354","136983","0.0-2.0-151.0-0.0","1","90129","","NaN","","","","null","NaN","149","","Stimuli/Experimental_stims/localizer/objects/hipster-mum-XookgCxFw6Q-unsplash.jpg","1","objects","","0","1","0","0.4","200.20000000000078"
"","iti_localizer","","html-keyboard-response","355","137292","0.0-2.0-151.0-1.0","1","90129","","null","","","","null","","149","","","1","","","","","","0.3","200.6000000000008"
"","localizer","","html-keyboard-response","356","137699","0.0-2.0-152.0-0.0","1","90129","","NaN","","","","null","NaN","150","","Stimuli/Experimental_stims/localizer/objects/maria-lupan-Rlakka_pZMU-unsplash.jpg","1","objects","","0","1","0","0.4","200.9000000000008"
"","iti_localizer","","html-keyboard-response","357","138010","0.0-2.0-152.0-1.0","1","90129","","null","","","","null","","150","","","1","","","","","","0.3","201.3000000000008"
"","localizer","","html-keyboard-response","358","138422","0.0-2.0-153.0-0.0","1","90129","","NaN","","","","null","NaN","151","","Stimuli/Experimental_stims/localizer/objects/yossy-made-yulian-WaEqwDSIeTY-unsplash.jpg","1","objects","","0","1","0","0.4","201.60000000000082"
"","iti_localizer","","html-keyboard-response","359","138732","0.0-2.0-153.0-1.0","1","90129","","null","","","","null","","151","","","1","","","","","","0.3","202.00000000000082"
"","localizer","","html-keyboard-response","360","139139","0.0-2.0-154.0-0.0","1","90129","","NaN","","","","null","NaN","152","","Stimuli/Experimental_stims/localizer/objects/nicolas-hippert-SVgX47QIUlc-unsplash.jpg","1","objects","","0","1","0","0.4","202.30000000000084"
"","iti_localizer","","html-keyboard-response","361","139452","0.0-2.0-154.0-1.0","1","90129","","null","","","","null","","152","","","1","","","","","","0.3","202.70000000000084"
"","localizer","","html-keyboard-response","362","139863","0.0-2.0-155.0-0.0","1","90129","","NaN","","","","null","NaN","153","","Stimuli/Experimental_stims/localizer/objects/lance-reis-v0FYj9iioQg-unsplash.jpg","1","objects","","0","1","0","0.4","203.00000000000085"
"","iti_localizer","","html-keyboard-response","363","140172","0.0-2.0-155.0-1.0","1","90129","","null","","","","null","","153","","","1","","","","","","0.3","203.40000000000086"
"","localizer","","html-keyboard-response","364","140583","0.0-2.0-156.0-0.0","1","90129","","NaN","","","","null","NaN","154","","Stimuli/Experimental_stims/localizer/objects/jonny-caspari-wsvCC6UyKjs-unsplash.jpg","1","objects","","0","1","0","0.4","203.70000000000087"
"","iti_localizer","","html-keyboard-response","365","140895","0.0-2.0-156.0-1.0","1","90129","","null","","","","null","","154","","","1","","","","","","0.3","204.10000000000088"
"","localizer","","html-keyboard-response","366","141308","0.0-2.0-157.0-0.0","1","90129","","NaN","","","","null","NaN","155","","Stimuli/Experimental_stims/localizer/objects/dario-mendez-hnJ2VNZzbns-unsplash.jpg","1","objects","","0","1","0","0.4","204.4000000000009"
"","iti_localizer","","html-keyboard-response","367","141622","0.0-2.0-157.0-1.0","1","90129","","null","","","","null","","155","","","1","","","","","","0.3","204.8000000000009"
"","localizer","","html-keyboard-response","368","142040","0.0-2.0-158.0-0.0","1","90129","","NaN","","","","null","NaN","156","","Stimuli/Experimental_stims/localizer/objects/mockup-graphics-aUkYaG12Dgs-unsplash.jpg","1","objects","","0","1","0","0.4","205.1000000000009"
"","iti_localizer","","html-keyboard-response","369","142350","0.0-2.0-158.0-1.0","1","90129","","null","","","","null","","156","","","1","","","","","","0.3","205.5000000000009"
"","localizer","","html-keyboard-response","370","142762","0.0-2.0-159.0-0.0","1","90129","","NaN","","","","null","NaN","157","","Stimuli/Experimental_stims/localizer/objects/ryunosuke-kikuno-viEzuL1ouDs-unsplash.jpg","1","objects","","0","1","0","0.4","205.80000000000092"
"","iti_localizer","","html-keyboard-response","371","143075","0.0-2.0-159.0-1.0","1","90129","","null","","","","null","","157","","","1","","","","","","0.3","206.20000000000093"
"","localizer","","html-keyboard-response","372","143485","0.0-2.0-160.0-0.0","1","90129","","NaN","","","","null","NaN","158","","Stimuli/Experimental_stims/localizer/objects/yoann-siloine-_T4w3JDm6ug-unsplash.jpg","1","objects","","0","1","0","0.4","206.50000000000094"
"","iti_localizer","","html-keyboard-response","373","143797","0.0-2.0-160.0-1.0","1","90129","","null","","","","null","","158","","","1","","","","","","0.3","206.90000000000094"
"","localizer","","html-keyboard-response","374","144214","0.0-2.0-161.0-0.0","1","90129","","NaN","","","","null","NaN","159","","Stimuli/Experimental_stims/localizer/objects/engin-akyurt-bbbKzTmY2Gg-unsplash.jpg","1","objects","","0","1","0","0.4","207.20000000000095"
"","iti_localizer","","html-keyboard-response","375","144526","0.0-2.0-161.0-1.0","1","90129","","null","","","","null","","159","","","1","","","","","","0.3","207.60000000000096"
"","localizer","","html-keyboard-response","376","144939","0.0-2.0-162.0-0.0","1","90129","","NaN","","","","null","NaN","160","","Stimuli/Experimental_stims/localizer/objects/alex-lvrs-2zDw14yCYqk-unsplash.jpg","1","objects","","0","1","0","0.4","207.90000000000097"
"","iti_localizer","","html-keyboard-response","377","145256","0.0-2.0-162.0-1.0","1","90129","","null","","","","null","","160","","","1","","","","","","0.3","208.30000000000098"
"","localizer","","html-keyboard-response","378","145668","0.0-2.0-163.0-0.0","1","90129","","NaN","","","","null","NaN","161","","Stimuli/Experimental_stims/localizer/objects/dan-cristian-padure-ezoshbcxWrM-unsplash.jpg","1","objects","","1","1","0","0.4","208.600000000001"
"","iti_localizer","","html-keyboard-response","379","145982","0.0-2.0-163.0-1.0","1","90129","","null","","","","null","","161","","","1","","","","","","0.3","209.000000000001"
"","localizer","","html-keyboard-response","380","146398","0.0-2.0-164.0-0.0","1","90129","","NaN","","","","null","NaN","162","","Stimuli/Experimental_stims/localizer/objects/namroud-gorguis-FZWivbri0Xk-unsplash.jpg","1","objects","","0","1","0","0.4","209.300000000001"
"","iti_localizer","","html-keyboard-response","381","146711","0.0-2.0-164.0-1.0","1","90129","","null","","","","null","","162","","","1","","","","","","0.3","209.700000000001"
"","localizer","","html-keyboard-response","382","147122","0.0-2.0-165.0-0.0","1","90129","","NaN","","","","null","NaN","163","","Stimuli/Experimental_stims/localizer/objects/mockup-graphics-U6ZMEefFGx8-unsplash.jpg","1","objects","","0","1","0","0.4","210.00000000000102"
"","iti_localizer","","html-keyboard-response","383","147440","0.0-2.0-165.0-1.0","1","90129","","null","","","","null","","163","","","1","","","","","","0.3","210.40000000000103"
"","localizer","","html-keyboard-response","384","147854","0.0-2.0-166.0-0.0","1","90129","","NaN","","","","null","NaN","164","","Stimuli/Experimental_stims/localizer/objects/sam-moghadam-khamseh-kvmdsTrGOBM-unsplash.jpg","1","objects","","0","1","0","0.4","210.70000000000104"
"","iti_localizer","","html-keyboard-response","385","148167","0.0-2.0-166.0-1.0","1","90129","","null","","","","null","","164","","","1","","","","","","0.3","211.10000000000105"
"","localizer","","html-keyboard-response","386","148582","0.0-2.0-167.0-0.0","1","90129","","NaN","","","","null","NaN","165","","Stimuli/Experimental_stims/localizer/objects/ales-krivec-ZMZHcvIVgbg-unsplash.jpg","1","objects","","0","1","0","0.4","211.40000000000106"
"","iti_localizer","","html-keyboard-response","387","148896","0.0-2.0-167.0-1.0","1","90129","","null","","","","null","","165","","","1","","","","","","14","211.80000000000106"
"","localizer","","html-keyboard-response","388","149309","0.0-2.0-168.0-0.0","1","90129","","NaN","","","","null","NaN","166","","Stimuli/Experimental_stims/localizer/outdoor_scenes/benjamin-davies-Zm2n2O7Fph4-unsplash.jpg","1","outdoor_scenes","","0","1","0","0.4","225.80000000000106"
"","iti_localizer","","html-keyboard-response","389","149621","0.0-2.0-168.0-1.0","1","90129","","null","","","","null","","166","","","1","","","","","","0.3","226.20000000000107"
"","localizer","","html-keyboard-response","390","150029","0.0-2.0-169.0-0.0","1","90129","","NaN","","","","null","NaN","167","","Stimuli/Experimental_stims/localizer/outdoor_scenes/darrell-cassell-hoCXpPUMCoE-unsplash.jpg","1","outdoor_scenes","","0","1","0","0.4","226.50000000000108"
"","iti_localizer","","html-keyboard-response","391","150340","0.0-2.0-169.0-1.0","1","90129","","null","","","","null","","167","","","1","","","","","","0.3","226.90000000000109"
"","localizer","","html-keyboard-response","392","150749","0.0-2.0-170.0-0.0","1","90129","","NaN","","","","null","NaN","168","","Stimuli/Experimental_stims/localizer/outdoor_scenes/pietro-de-grandi-T7K4aEPoGGk-unsplash.jpg","1","outdoor_scenes","","0","1","0","0.4","227.2000000000011"
"","iti_localizer","","html-keyboard-response","393","151062","0.0-2.0-170.0-1.0","1","90129","","null","","","","null","","168","","","1","","","","","","0.3","227.6000000000011"
"","localizer","","html-keyboard-response","394","151479","0.0-2.0-171.0-0.0","1","90129","","NaN","","","","null","NaN","169","","Stimuli/Experimental_stims/localizer/outdoor_scenes/ales-krivec-hsX9KpLLsIE-unsplash.jpg","1","outdoor_scenes","","0","1","0","0.4","227.9000000000011"
"","iti_localizer","","html-keyboard-response","395","151792","0.0-2.0-171.0-1.0","1","90129","","null","","","","null","","169","","","1","","","","","","0.3","228.30000000000112"
"","localizer","","html-keyboard-response","396","152206","0.0-2.0-172.0-0.0","1","90129","","NaN","","","","null","NaN","170","","Stimuli/Experimental_stims/localizer/outdoor_scenes/pascal-debrunner-1WQ5RZuH9xo-unsplash.jpg","1","outdoor_scenes","","0","1","0","0.4","228.60000000000113"
"","iti_localizer","","html-keyboard-response","397","152521","0.0-2.0-172.0-1.0","1","90129","","null","","","","null","","170","","","1","","","","","","0.3","229.00000000000114"
"","localizer","","html-keyboard-response","398","152929","0.0-2.0-173.0-0.0","1","90129","","NaN","","","","null","NaN","171","","Stimuli/Experimental_stims/localizer/outdoor_scenes/simon-berger-twukN12EN7c-unsplash.jpg","1","outdoor_scenes","","0","1","0","0.4","229.30000000000115"
"","iti_localizer","","html-keyboard-response","399","153239","0.0-2.0-173.0-1.0","1","90129","","null","","","","null","","171","","","1","","","","","","0.3","229.70000000000115"
"","localizer","","html-keyboard-response","400","153652","0.0-2.0-174.0-0.0","1","90129","","NaN","","","","null","NaN","172","","Stimuli/Experimental_stims/localizer/outdoor_scenes/keith-hardy-UVyavSwslOg-unsplash.jpg","1","outdoor_scenes","","1","1","0","0.4","230.00000000000117"
"","iti_localizer","","html-keyboard-response","401","153966","0.0-2.0-174.0-1.0","1","90129","","null","","","","null","","172","","","1","","","","","","0.3","230.40000000000117"
"","localizer","","html-keyboard-response","402","154383","0.0-2.0-175.0-0.0","1","90129","","NaN","","","","null","NaN","173","","Stimuli/Experimental_stims/localizer/outdoor_scenes/damian-denis-D8R_txR_0PE-unsplash.jpg","1","outdoor_scenes","","0","1","0","0.4","230.70000000000118"
"","iti_localizer","","html-keyboard-response","403","154693","0.0-2.0-175.0-1.0","1","90129","","null","","","","null","","173","","","1","","","","","","0.3","231.1000000000012"
"","localizer","","html-keyboard-response","404","155111","0.0-2.0-176.0-0.0","1","90129","","NaN","","","","null","NaN","174","","Stimuli/Experimental_stims/localizer/outdoor_scenes/wil-stewart-pHANr-CpbYM-unsplash.jpg","1","outdoor_scenes","","0","1","0","0.4","231.4000000000012"
"","iti_localizer","","html-keyboard-response","405","155420","0.0-2.0-176.0-1.0","1","90129","","null","","","","null","","174","","","1","","","","","","0.3","231.8000000000012"
"","localizer","","html-keyboard-response","406","155831","0.0-2.0-177.0-0.0","1","90129","","NaN","","","","null","NaN","175","","Stimuli/Experimental_stims/localizer/outdoor_scenes/daniel-roe-lpjb_UMOyx8-unsplash.jpg","1","outdoor_scenes","","0","1","0","0.4","232.10000000000122"
"","iti_localizer","","html-keyboard-response","407","156140","0.0-2.0-177.0-1.0","1","90129","","null","","","","null","","175","","","1","","","","","","0.3","232.50000000000122"
"","localizer","","html-keyboard-response","408","156553","0.0-2.0-178.0-0.0","1","90129","","NaN","","","","null","NaN","176","","Stimuli/Experimental_stims/localizer/outdoor_scenes/sean-oulashin-KMn4VEeEPR8-unsplash.jpg","1","outdoor_scenes","","0","1","0","0.4","232.80000000000123"
"","iti_localizer","","html-keyboard-response","409","156860","0.0-2.0-178.0-1.0","1","90129","","null","","","","null","","176","","","1","","","","","","0.3","233.20000000000124"
"","localizer","","html-keyboard-response","410","157271","0.0-2.0-179.0-0.0","1","90129","","NaN","","","","null","NaN","177","","Stimuli/Experimental_stims/localizer/outdoor_scenes/niko-photos-tGTVxeOr_Rs-unsplash.jpg","1","outdoor_scenes","","0","1","0","0.4","233.50000000000125"
"","iti_localizer","","html-keyboard-response","411","157579","0.0-2.0-179.0-1.0","1","90129","","null","","","","null","","177","","","1","","","","","","0.3","233.90000000000126"
"","localizer","","html-keyboard-response","412","157990","0.0-2.0-180.0-0.0","1","90129","","NaN","","","","null","NaN","178","","Stimuli/Experimental_stims/localizer/outdoor_scenes/redd-f-Lm5rkxzgiFQ-unsplash.jpg","1","outdoor_scenes","","0","1","0","0.4","234.20000000000127"
"","iti_localizer","","html-keyboard-response","413","158301","0.0-2.0-180.0-1.0","1","90129","","null","","","","null","","178","","","1","","","","","","0.3","234.60000000000127"
"","localizer","","html-keyboard-response","414","158711","0.0-2.0-181.0-0.0","1","90129","","NaN","","","","null","NaN","179","","Stimuli/Experimental_stims/localizer/outdoor_scenes/samuel-ferrara-IEHPDNk2-8w-unsplash.jpg","1","outdoor_scenes","","0","1","0","0.4","234.90000000000128"
"","iti_localizer","","html-keyboard-response","415","159023","0.0-2.0-181.0-1.0","1","90129","","null","","","","null","","179","","","1","","","","","","0.3","235.3000000000013"
"","localizer","","html-keyboard-response","416","159440","0.0-2.0-182.0-0.0","1","90129","","NaN","","","","null","NaN","180","","Stimuli/Experimental_stims/localizer/outdoor_scenes/sebastian-unrau-v4e3JI7DDHI-unsplash.jpg","1","outdoor_scenes","","0","1","0","0.4","235.6000000000013"
"","iti_localizer","","html-keyboard-response","417","159749","0.0-2.0-182.0-1.0","1","90129","","null","","","","null","","180","","","1","","","","","","0.3","236.0000000000013"
"","localizer","","html-keyboard-response","418","160158","0.0-2.0-183.0-0.0","1","90129","","NaN","","","","null","NaN","181","","Stimuli/Experimental_stims/localizer/outdoor_scenes/kalen-emsley-Bkci_8qcdvQ-unsplash.jpg","1","outdoor_scenes","","0","1","0","0.4","236.30000000000132"
"","iti_localizer","","html-keyboard-response","419","160468","0.0-2.0-183.0-1.0","1","90129","","null","","","","null","","181","","","1","","","","","","0.3","236.70000000000132"
"","localizer","","html-keyboard-response","420","160881","0.0-2.0-184.0-0.0","1","90129","","NaN","","","","null","NaN","182","","Stimuli/Experimental_stims/localizer/outdoor_scenes/rod-sot-X_vbB7wfv5k-unsplash.jpg","1","outdoor_scenes","","0","1","0","0.4","237.00000000000134"
"","iti_localizer","","html-keyboard-response","421","161189","0.0-2.0-184.0-1.0","1","90129","","null","","","","null","","182","","","1","","","","","","0.3","237.40000000000134"
"","localizer","","html-keyboard-response","422","161598","0.0-2.0-185.0-0.0","1","90129","","NaN","","","","null","NaN","183","","Stimuli/Experimental_stims/localizer/outdoor_scenes/neom-THlO6Mkf5uI-unsplash.jpg","1","outdoor_scenes","","0","1","0","0.4","237.70000000000135"
"","iti_localizer","","html-keyboard-response","423","161908","0.0-2.0-185.0-1.0","1","90129","","null","","","","null","","183","","","1","","","","","","0.3","238.10000000000136"
"","localizer","","html-keyboard-response","424","162321","0.0-2.0-186.0-0.0","1","90129","","NaN","","","","null","NaN","184","","Stimuli/Experimental_stims/localizer/outdoor_scenes/jeremy-cai-ucYWe5mzTMU-unsplash.jpg","1","outdoor_scenes","","1","1","0","0.4","238.40000000000137"
"","iti_localizer","","html-keyboard-response","425","162629","0.0-2.0-186.0-1.0","1","90129","","null","","","","null","","184","","","1","","","","","","0.3","238.80000000000138"
"","localizer","","html-keyboard-response","426","163048","0.0-2.0-187.0-0.0","1","90129","","NaN","","","","null","NaN","185","","Stimuli/Experimental_stims/localizer/outdoor_scenes/nikola-majksner-hXNGeAFOgT4-unsplash.jpg","1","outdoor_scenes","","0","1","0","0.4","239.1000000000014"
"","iti_localizer","","html-keyboard-response","427","163357","0.0-2.0-187.0-1.0","1","90129","","null","","","","null","","185","","","1","","","","","","14","239.5000000000014"
"","localizer","","html-keyboard-response","428","163768","0.0-2.0-188.0-0.0","1","90129","","NaN","","","","null","NaN","186","","Stimuli/Experimental_stims/localizer/faces/mathias-huysmans-U4JDjYmjn1g-unsplash.jpg","1","faces","","1","1","0","0.4","253.5000000000014"
"","iti_localizer","","html-keyboard-response","429","164079","0.0-2.0-188.0-1.0","1","90129","","null","","","","null","","186","","","1","","","","","","0.3","253.9000000000014"
"","localizer","","html-keyboard-response","430","164495","0.0-2.0-189.0-0.0","1","90129","","NaN","","","","null","NaN","187","","Stimuli/Experimental_stims/localizer/faces/imansyah-muhamad-putera-n4KewLKFOZw-unsplash.jpg","1","faces","","0","1","0","0.4","254.2000000000014"
"","iti_localizer","","html-keyboard-response","431","164808","0.0-2.0-189.0-1.0","1","90129","","null","","","","null","","187","","","1","","","","","","0.3","254.60000000000142"
"","localizer","","html-keyboard-response","432","165223","0.0-2.0-190.0-0.0","1","90129","","NaN","","","","null","NaN","188","","Stimuli/Experimental_stims/localizer/faces/stephanie-nakagawa-ADSKIn0ScDg-unsplash.jpg","1","faces","","0","1","0","0.4","254.90000000000143"
"","iti_localizer","","html-keyboard-response","433","165532","0.0-2.0-190.0-1.0","1","90129","","null","","","","null","","188","","","1","","","","","","0.3","255.30000000000143"
"","localizer","","html-keyboard-response","434","165939","0.0-2.0-191.0-0.0","1","90129","","NaN","","","","null","NaN","189","","Stimuli/Experimental_stims/localizer/faces/binh-ly-k_4A59MzZTY-unsplash.jpg","1","faces","","0","1","0","0.4","255.60000000000144"
"","iti_localizer","","html-keyboard-response","435","166257","0.0-2.0-191.0-1.0","1","90129","","null","","","","null","","189","","","1","","","","","","0.3","256.0000000000014"
"","localizer","","html-keyboard-response","436","166671","0.0-2.0-192.0-0.0","1","90129","","NaN","","","","null","NaN","190","","Stimuli/Experimental_stims/localizer/faces/tyler-nix-ZGa9d1a_4tA-unsplash.jpg","1","faces","","0","1","0","0.4","256.30000000000143"
"","iti_localizer","","html-keyboard-response","437","166979","0.0-2.0-192.0-1.0","1","90129","","null","","","","null","","190","","","1","","","","","","0.3","256.7000000000014"
"","localizer","","html-keyboard-response","438","167389","0.0-2.0-193.0-0.0","1","90129","","NaN","","","","null","NaN","191","","Stimuli/Experimental_stims/localizer/faces/samuel-dixon--fQ5XNOcqFQ-unsplash.jpg","1","faces","","0","1","0","0.4","257.0000000000014"
"","iti_localizer","","html-keyboard-response","439","167702","0.0-2.0-193.0-1.0","1","90129","","null","","","","null","","191","","","1","","","","","","0.3","257.4000000000014"
"","localizer","","html-keyboard-response","440","168120","0.0-2.0-194.0-0.0","1","90129","","NaN","","","","null","NaN","192","","Stimuli/Experimental_stims/localizer/faces/brooke-cagle-Nm70URdtf3c-unsplash (1).jpg","1","faces","","0","1","0","0.4","257.7000000000014"
"","iti_localizer","","html-keyboard-response","441","168432","0.0-2.0-194.0-1.0","1","90129","","null","","","","null","","192","","","1","","","","","","0.3","258.1000000000014"
"","localizer","","html-keyboard-response","442","168848","0.0-2.0-195.0-0.0","1","90129","","NaN","","","","null","NaN","193","","Stimuli/Experimental_stims/localizer/faces/foto-sushi-6anudmpILw4-unsplash.jpg","1","faces","","0","1","0","0.4","258.4000000000014"
"","iti_localizer","","html-keyboard-response","443","169162","0.0-2.0-195.0-1.0","1","90129","","null","","","","null","","193","","","1","","","","","","0.3","258.8000000000014"
