"success","ttype","start_time","trial_type","trial_index","time_elapsed","internal_node_id","age","PID","gender","rt","responses","view_history","repeat_instructions","key_press","response","index","stimulus_index","path","run","task","isi","is_odd_ball","no_response","acc","duration","onset"
"true","full_screen","d06302023hr1729","fullscreen","0","9609","0.0-0.0-0.0","33","37760","male","","","","","","","","","","","","","","","","",""
"","get_id","","survey-text","1","14809","0.0-0.0-1.0","33","37760","male","5197","{""Q0"":""33"",""Q1"":""male""}","","","","","","","","","","","","","","",""
"","ratings_instructions","","instructions","2","17585","0.0-1.0-0.0-0.0","33","37760","male","1767","","[{""page_index"":0,""viewing_time"":1315},{""page_index"":1,""viewing_time"":451}]","","","","","","","","","","","","","",""
"","rating_comprehension_check","","survey-multi-choice","3","19914","0.0-1.0-0.0-1.0","33","37760","male","2323","{""Q0"":""True"",""Q1"":""Mouse""}","","0","","","","","","","","","","","","",""
"","","","html-keyboard-response","4","21011","0.0-1.0-1.0","33","37760","male","1092","","","","68","","","","","","","","","","","",""
"","rating","","html-slider-response","5","21929","0.0-1.0-2.0","33","37760","male","913","","","","","50","0","38","Stimuli/Experimental_stims/objects/art-lasovsky-8XddFc6NkBY-unsplash.jpg","","","","","","","",""
"","rating","","html-slider-response","6","22101","0.0-1.0-3.0","33","37760","male","166","","","","","50","1","24","Stimuli/Experimental_stims/body_parts/clay-banks-LjqARJaJotc-unsplash.jpg","","","","","","","",""
"","rating","","html-slider-response","7","22683","0.0-1.0-4.0","33","37760","male","576","","","","","50","2","13","Stimuli/Experimental_stims/faces/daniel-rigdon-dXmXKPP2L4E-unsplash.jpg","","","","","","","",""
"","rating","","html-slider-response","8","22861","0.0-1.0-5.0","33","37760","male","172","","","","","50","3","2","Stimuli/Experimental_stims/outdoor_scenes/bruno-van-der-kraan-qez8mNJ3ilU-unsplash.jpg","","","","","","","",""
"","rating","","html-slider-response","9","23039","0.0-1.0-6.0","33","37760","male","172","","","","","50","4","36","Stimuli/Experimental_stims/objects/alexander-andrews-JYGnB9gTCls-unsplash.jpg","","","","","","","",""
"","rating","","html-slider-response","10","23230","0.0-1.0-7.0","33","37760","male","185","","","","","50","5","7","Stimuli/Experimental_stims/outdoor_scenes/petr-vysohlid-9fqwGqGLUxc-unsplash.jpg","","","","","","","",""
"","rating","","html-slider-response","11","23427","0.0-1.0-8.0","33","37760","male","192","","","","","50","6","28","Stimuli/Experimental_stims/body_parts/ira-vishnevskaya-8DQAvdCby1I-unsplash.jpg","","","","","","","",""
"","rating","","html-slider-response","12","23621","0.0-1.0-9.0","33","37760","male","188","","","","","50","7","14","Stimuli/Experimental_stims/faces/david-siglin-UuW4psOb388-unsplash.jpg","","","","","","","",""
"","rating","","html-slider-response","13","23994","0.0-1.0-10.0","33","37760","male","367","","","","","50","8","23","Stimuli/Experimental_stims/faces/rikonavt-HQjfrvdTfak-unsplash.jpg","","","","","","","",""
"","rating","","html-slider-response","14","24228","0.0-1.0-11.0","33","37760","male","228","","","","","50","9","39","Stimuli/Experimental_stims/objects/charlesdeluvio-1-nx1QR5dTE-unsplash.jpg","","","","","","","",""
"","rating","","html-slider-response","15","24495","0.0-1.0-12.0","33","37760","male","262","","","","","50","10","11","Stimuli/Experimental_stims/outdoor_scenes/stephen-leonardi-gyIRjKPXupE-unsplash.jpg","","","","","","","",""
"","rating","","html-slider-response","16","24762","0.0-1.0-13.0","33","37760","male","261","","","","","50","11","16","Stimuli/Experimental_stims/faces/freddy-kearney-o-ioeoATbIM-unsplash.jpg","","","","","","","",""
"","rating","","html-slider-response","17","24987","0.0-1.0-14.0","33","37760","male","220","","","","","50","12","46","Stimuli/Experimental_stims/objects/mockup-graphics-PNsj6RiHAF4-unsplash.jpg","","","","","","","",""
"","rating","","html-slider-response","18","25215","0.0-1.0-15.0","33","37760","male","223","","","","","50","13","20","Stimuli/Experimental_stims/faces/justin-chen-J7Cf1Gch49E-unsplash.jpg","","","","","","","",""
"","rating","","html-slider-response","19","25450","0.0-1.0-16.0","33","37760","male","229","","","","","50","14","18","Stimuli/Experimental_stims/faces/jessica-radanavong-mrYkTuAesKE-unsplash.jpg","","","","","","","",""
"","rating","","html-slider-response","20","25685","0.0-1.0-17.0","33","37760","male","230","","","","","50","15","42","Stimuli/Experimental_stims/objects/jess-bailey-nOeVi8DsN8U-unsplash.jpg","","","","","","","",""
"","rating","","html-slider-response","21","25964","0.0-1.0-18.0","33","37760","male","274","","","","","50","16","5","Stimuli/Experimental_stims/outdoor_scenes/jeff-king-bJHWJeiHfHc-unsplash.jpg","","","","","","","",""
"","rating","","html-slider-response","22","26364","0.0-1.0-19.0","33","37760","male","396","","","","","50","17","25","Stimuli/Experimental_stims/body_parts/engin-akyurt-Q2rfH3GW39c-unsplash.jpg","","","","","","","",""
"","rating","","html-slider-response","23","26631","0.0-1.0-20.0","33","37760","male","262","","","","","50","18","29","Stimuli/Experimental_stims/body_parts/manuel-schinner-ZwjFuJ7ebpk-unsplash.jpg","","","","","","","",""
"","rating","","html-slider-response","24","26850","0.0-1.0-21.0","33","37760","male","214","","","","","50","19","47","Stimuli/Experimental_stims/objects/ronaldo-arthur-vidal-Cdz_lvnl37k-unsplash.jpg","","","","","","","",""
"","rating","","html-slider-response","25","27052","0.0-1.0-22.0","33","37760","male","197","","","","","50","20","4","Stimuli/Experimental_stims/outdoor_scenes/jarrett-kow-1ZOyYPOBn7I-unsplash.jpg","","","","","","","",""
"","rating","","html-slider-response","26","27246","0.0-1.0-23.0","33","37760","male","189","","","","","50","21","31","Stimuli/Experimental_stims/body_parts/sincerely-media-VN6DbKajo5s-unsplash.jpg","","","","","","","",""
"","rating","","html-slider-response","27","27457","0.0-1.0-24.0","33","37760","male","205","","","","","50","22","44","Stimuli/Experimental_stims/objects/kuiye-chen-NuOGFo4PudE-unsplash.jpg","","","","","","","",""
"","rating","","html-slider-response","28","27649","0.0-1.0-25.0","33","37760","male","187","","","","","50","23","37","Stimuli/Experimental_stims/objects/alexander-andrews-VLGWE_SumrA-unsplash.jpg","","","","","","","",""
"","rating","","html-slider-response","29","27869","0.0-1.0-26.0","33","37760","male","215","","","","","50","24","10","Stimuli/Experimental_stims/outdoor_scenes/shannon-kunkle-dM8INmkyDas-unsplash.jpg","","","","","","","",""
"","rating","","html-slider-response","30","28063","0.0-1.0-27.0","33","37760","male","188","","","","","50","25","40","Stimuli/Experimental_stims/objects/fabian-blank-pElSkGRA2NU-unsplash.jpg","","","","","","","",""
"","rating","","html-slider-response","31","28297","0.0-1.0-28.0","33","37760","male","229","","","","","50","26","9","Stimuli/Experimental_stims/outdoor_scenes/sergey-pesterev-y-b_FOmJXdg-unsplash.jpg","","","","","","","",""
"","rating","","html-slider-response","32","28509","0.0-1.0-29.0","33","37760","male","205","","","","","50","27","41","Stimuli/Experimental_stims/objects/insung-yoon-w2JtIQQXoRU-unsplash.jpg","","","","","","","",""
"","rating","","html-slider-response","33","28764","0.0-1.0-30.0","33","37760","male","251","","","","","50","28","8","Stimuli/Experimental_stims/outdoor_scenes/samsommer-vddccTqwal8-unsplash.jpg","","","","","","","",""
"","rating","","html-slider-response","34","29066","0.0-1.0-31.0","33","37760","male","297","","","","","50","29","3","Stimuli/Experimental_stims/outdoor_scenes/henry-be-NLF6hTe4PAg-unsplash.jpg","","","","","","","",""
"","rating","","html-slider-response","35","29318","0.0-1.0-32.0","33","37760","male","246","","","","","50","30","27","Stimuli/Experimental_stims/body_parts/heike-mintel-i_Gns0ELnLw-unsplash.jpg","","","","","","","",""
"","rating","","html-slider-response","36","29553","0.0-1.0-33.0","33","37760","male","229","","","","","50","31","19","Stimuli/Experimental_stims/faces/joel-mott-LaK153ghdig-unsplash.jpg","","","","","","","",""
"","rating","","html-slider-response","37","29758","0.0-1.0-34.0","33","37760","male","200","","","","","50","32","45","Stimuli/Experimental_stims/objects/leohoho-rngTKHXumy0-unsplash.jpg","","","","","","","",""
"","rating","","html-slider-response","38","29981","0.0-1.0-35.0","33","37760","male","218","","","","","50","33","30","Stimuli/Experimental_stims/body_parts/mika-korhonen-Xodzxosar18-unsplash.jpg","","","","","","","",""
"","rating","","html-slider-response","39","30208","0.0-1.0-36.0","33","37760","male","221","","","","","50","34","21","Stimuli/Experimental_stims/faces/leilani-angel-K84vnnzxmTQ-unsplash.jpg","","","","","","","",""
"","rating","","html-slider-response","40","30403","0.0-1.0-37.0","33","37760","male","191","","","","","50","35","34","Stimuli/Experimental_stims/body_parts/wagner-santos-mBWMvIuVnso-unsplash.jpg","","","","","","","",""
"","rating","","html-slider-response","41","30661","0.0-1.0-38.0","33","37760","male","253","","","","","50","36","35","Stimuli/Experimental_stims/body_parts/wc-so-KH4AAPjb-tI-unsplash.jpg","","","","","","","",""
"","rating","","html-slider-response","42","30913","0.0-1.0-39.0","33","37760","male","246","","","","","50","37","15","Stimuli/Experimental_stims/faces/erik-lucatero-d2MSDujJl2g-unsplash.jpg","","","","","","","",""
"","rating","","html-slider-response","43","31154","0.0-1.0-40.0","33","37760","male","236","","","","","50","38","1","Stimuli/Experimental_stims/outdoor_scenes/ashim-d-silva-S2Q5mdOrrVc-unsplash.jpg","","","","","","","",""
"","rating","","html-slider-response","44","31389","0.0-1.0-41.0","33","37760","male","229","","","","","50","39","22","Stimuli/Experimental_stims/faces/ravi-patel-VMGAbeeJTKo-unsplash.jpg","","","","","","","",""
"","rating","","html-slider-response","45","31623","0.0-1.0-42.0","33","37760","male","229","","","","","50","40","26","Stimuli/Experimental_stims/body_parts/engin-akyurt-x_3gyC42btc-unsplash.jpg","","","","","","","",""
"","rating","","html-slider-response","46","31874","0.0-1.0-43.0","33","37760","male","246","","","","","50","41","0","Stimuli/Experimental_stims/outdoor_scenes/aleksandra-boguslawska-MS7KD9Ti7FQ-unsplash.jpg","","","","","","","",""
"","rating","","html-slider-response","47","32117","0.0-1.0-44.0","33","37760","male","238","","","","","50","42","43","Stimuli/Experimental_stims/objects/jonathan-greenaway-Y4hGgeiFn3s-unsplash.jpg","","","","","","","",""
"","rating","","html-slider-response","48","32360","0.0-1.0-45.0","33","37760","male","237","","","","","50","43","32","Stimuli/Experimental_stims/body_parts/towfiqu-barbhuiya-3AsiVDsZnHg-unsplash.jpg","","","","","","","",""
"","rating","","html-slider-response","49","32603","0.0-1.0-46.0","33","37760","male","238","","","","","50","44","17","Stimuli/Experimental_stims/faces/good-faces-xmSWVeGEnJw-unsplash.jpg","","","","","","","",""
"","rating","","html-slider-response","50","32853","0.0-1.0-47.0","33","37760","male","245","","","","","50","45","6","Stimuli/Experimental_stims/outdoor_scenes/meng-ji-8BH_M-53CyA-unsplash.jpg","","","","","","","",""
"","rating","","html-slider-response","51","33095","0.0-1.0-48.0","33","37760","male","237","","","","","50","46","33","Stimuli/Experimental_stims/body_parts/tucker-good-36skLT5jZcc-unsplash.jpg","","","","","","","",""
"","rating","","html-slider-response","52","33379","0.0-1.0-49.0","33","37760","male","278","","","","","50","47","12","Stimuli/Experimental_stims/faces/aiony-haust-jmATI5Q_YgY-unsplash.jpg","","","","","","","",""
"","localizer_instructions","","instructions","53","42534","0.0-2.0-0.0-0.0","33","37760","male","9121","","[{""page_index"":0,""viewing_time"":6705},{""page_index"":1,""viewing_time"":1942},{""page_index"":2,""viewing_time"":474}]","","","","","","","","","","","","","",""
"","localizer_comprehension_check","","survey-multi-choice","54","47084","0.0-2.0-0.0-1.0","33","37760","male","4544","{""Q0"":""True"",""Q1"":""K"",""Q2"":""D""}","","0","","","","","","","","","","","","",""
"","","","html-keyboard-response","55","48038","0.0-2.0-1.0","33","37760","male","948","","","","68","","","","","","","","","","","",""
"","localizer","","html-keyboard-response","56","48451","0.0-2.0-2.0-0.0","33","37760","male","NaN","","","","null","NaN","0","","Stimuli/Practice_stims/Localizer/annie-spratt-g9KFpAfQ5bc-unsplash.jpg","0","NaN","","0","1","0","0.4","0"
"","iti_localizer","","html-keyboard-response","57","48765","0.0-2.0-2.0-1.0","33","37760","male","null","","","","null","","0","","","0","","","","","","0.3","0.4"
"","localizer","","html-keyboard-response","58","49179","0.0-2.0-3.0-0.0","33","37760","male","NaN","","","","null","NaN","1","","Stimuli/Practice_stims/Localizer/becca-tapert-sY5RjMB1KkE-unsplash.jpg","0","NaN","","0","1","0","0.4","0.7"
"","iti_localizer","","html-keyboard-response","59","49490","0.0-2.0-3.0-1.0","33","37760","male","null","","","","null","","1","","","0","","","","","","0.3","1.1"
"","localizer","","html-keyboard-response","60","49902","0.0-2.0-4.0-0.0","33","37760","male","NaN","","","","null","NaN","2","","Stimuli/Practice_stims/Localizer/charl-durand-bsfXvI25iNg-unsplash.jpg","0","NaN","","1","1","0","0.4","1.4000000000000001"
"","iti_localizer","","html-keyboard-response","61","50222","0.0-2.0-4.0-1.0","33","37760","male","null","","","","null","","2","","","0","","","","","","0.3","1.8000000000000003"
"","localizer","","html-keyboard-response","62","50637","0.0-2.0-5.0-0.0","33","37760","male","NaN","","","","null","NaN","3","","Stimuli/Practice_stims/Localizer/nizar-albusaidy-B2r2SWAf5CE-unsplash.jpg","0","NaN","","0","1","0","0.4","2.1"
"","iti_localizer","","html-keyboard-response","63","50946","0.0-2.0-5.0-1.0","33","37760","male","null","","","","null","","3","","","0","","","","","","0.3","2.5"
"","localizer","","html-keyboard-response","64","51356","0.0-2.0-6.0-0.0","33","37760","male","NaN","","","","null","NaN","4","","Stimuli/Practice_stims/Localizer/randy-fath-epf1tdtIIkM-unsplash.jpg","0","NaN","","1","1","0","0.4","2.8"
"","iti_localizer","","html-keyboard-response","65","51665","0.0-2.0-6.0-1.0","33","37760","male","null","","","","null","","4","","","0","","","","","","0.3","3.1999999999999997"
"","localizer","","html-keyboard-response","66","52078","0.0-2.0-7.0-0.0","33","37760","male","NaN","","","","null","NaN","5","","Stimuli/Practice_stims/Localizer/yassine-khalfalli-adsQ9d_Cx0c-unsplash.jpg","0","NaN","","0","1","0","0.4","3.4999999999999996"
"","iti_localizer","","html-keyboard-response","67","52390","0.0-2.0-7.0-1.0","33","37760","male","null","","","","null","","5","","","0","","","","","","0.3","3.8999999999999995"
"","practice_over","","html-keyboard-response","68","53133","0.0-2.0-7.0-2.0-0.0","33","37760","male","734","","","","68","","","","","","","","","","","",""
"","start_run","","html-keyboard-response","69","54253","0.0-2.0-7.0-2.0-1.0","33","37760","male","1115","","","","84","","","","","","","","","","","",""
"","localizer","","html-keyboard-response","70","54666","0.0-2.0-8.0-0.0","33","37760","male","NaN","","","","null","NaN","6","","Stimuli/Experimental_stims/localizer/faces/alexis-chloe-TYDkKEgc0Fg-unsplash.jpg","1","faces","","0","1","0","0.4","0"
"","iti_localizer","","html-keyboard-response","71","54981","0.0-2.0-8.0-1.0","33","37760","male","null","","","","null","","6","","","1","","","","","","0.3","0.4"
"","localizer","","html-keyboard-response","72","55397","0.0-2.0-9.0-0.0","33","37760","male","NaN","","","","null","NaN","7","","Stimuli/Experimental_stims/localizer/faces/philip-martin-5aGUyCW_PJw-unsplash.jpg","1","faces","","0","1","0","0.4","0.7"
"","iti_localizer","","html-keyboard-response","73","55706","0.0-2.0-9.0-1.0","33","37760","male","null","","","","null","","7","","","1","","","","","","0.3","1.1"
"","localizer","","html-keyboard-response","74","56123","0.0-2.0-10.0-0.0","33","37760","male","NaN","","","","null","NaN","8","","Stimuli/Experimental_stims/localizer/faces/aiony-haust-K0DxxljcRv0-unsplash.jpg","1","faces","","1","1","0","0.4","1.4000000000000001"
"","iti_localizer","","html-keyboard-response","75","56434","0.0-2.0-10.0-1.0","33","37760","male","null","","","","null","","8","","","1","","","","","","0.3","1.8000000000000003"
"","localizer","","html-keyboard-response","76","56851","0.0-2.0-11.0-0.0","33","37760","male","NaN","","","","null","NaN","9","","Stimuli/Experimental_stims/localizer/faces/midas-hofstra-tidSLv-UaNs-unsplash.jpg","1","faces","","0","1","0","0.4","2.1"
"","iti_localizer","","html-keyboard-response","77","57165","0.0-2.0-11.0-1.0","33","37760","male","null","","","","null","","9","","","1","","","","","","0.3","2.5"
"","localizer","","html-keyboard-response","78","57579","0.0-2.0-12.0-0.0","33","37760","male","NaN","","","","null","NaN","10","","Stimuli/Experimental_stims/localizer/faces/vince-fleming-j3lf-Jn6deo-unsplash.jpg","1","faces","","0","1","0","0.4","2.8"
"","iti_localizer","","html-keyboard-response","79","57893","0.0-2.0-12.0-1.0","33","37760","male","null","","","","null","","10","","","1","","","","","","0.3","3.1999999999999997"
"","localizer","","html-keyboard-response","80","58309","0.0-2.0-13.0-0.0","33","37760","male","NaN","","","","null","NaN","11","","Stimuli/Experimental_stims/localizer/faces/linkedin-sales-solutions-pAtA8xe_iVM-unsplash.jpg","1","faces","","0","1","0","0.4","3.4999999999999996"
"","iti_localizer","","html-keyboard-response","81","58620","0.0-2.0-13.0-1.0","33","37760","male","null","","","","null","","11","","","1","","","","","","0.3","3.8999999999999995"
"","localizer","","html-keyboard-response","82","59035","0.0-2.0-14.0-0.0","33","37760","male","NaN","","","","null","NaN","12","","Stimuli/Experimental_stims/localizer/faces/mubariz-mehdizadeh-o-wlIFT4zE4-unsplash.jpg","1","faces","","0","1","0","0.4","4.199999999999999"
"","iti_localizer","","html-keyboard-response","83","59349","0.0-2.0-14.0-1.0","33","37760","male","null","","","","null","","12","","","1","","","","","","0.3","4.6"
"","localizer","","html-keyboard-response","84","59764","0.0-2.0-15.0-0.0","33","37760","male","NaN","","","","null","NaN","13","","Stimuli/Experimental_stims/localizer/faces/tyler-nix-ZGa9d1a_4tA-unsplash.jpg","1","faces","","0","1","0","0.4","4.8999999999999995"
"","iti_localizer","","html-keyboard-response","85","60075","0.0-2.0-15.0-1.0","33","37760","male","null","","","","null","","13","","","1","","","","","","0.3","5.3"
"","localizer","","html-keyboard-response","86","60491","0.0-2.0-16.0-0.0","33","37760","male","NaN","","","","null","NaN","14","","Stimuli/Experimental_stims/localizer/faces/samuel-dixon--fQ5XNOcqFQ-unsplash.jpg","1","faces","","0","1","0","0.4","5.6"
"","iti_localizer","","html-keyboard-response","87","60805","0.0-2.0-16.0-1.0","33","37760","male","null","","","","null","","14","","","1","","","","","","0.3","6"
"","localizer","","html-keyboard-response","88","61222","0.0-2.0-17.0-0.0","33","37760","male","NaN","","","","null","NaN","15","","Stimuli/Experimental_stims/localizer/faces/art-hauntington-jzY0KRJopEI-unsplash.jpg","1","faces","","0","1","0","0.4","6.3"
"","iti_localizer","","html-keyboard-response","89","61533","0.0-2.0-17.0-1.0","33","37760","male","null","","","","null","","15","","","1","","","","","","0.3","6.7"
"","localizer","","html-keyboard-response","90","61949","0.0-2.0-18.0-0.0","33","37760","male","NaN","","","","null","NaN","16","","Stimuli/Experimental_stims/localizer/faces/foto-sushi-6anudmpILw4-unsplash.jpg","1","faces","","0","1","0","0.4","7"
"","iti_localizer","","html-keyboard-response","91","62262","0.0-2.0-18.0-1.0","33","37760","male","null","","","","null","","16","","","1","","","","","","0.3","7.4"
"","localizer","","html-keyboard-response","92","62673","0.0-2.0-19.0-0.0","33","37760","male","NaN","","","","null","NaN","17","","Stimuli/Experimental_stims/localizer/faces/drew-hays-agGIKYs4mYs-unsplash.jpg","1","faces","","0","1","0","0.4","7.7"
"","iti_localizer","","html-keyboard-response","93","62990","0.0-2.0-19.0-1.0","33","37760","male","null","","","","null","","17","","","1","","","","","","0.3","8.1"
"","localizer","","html-keyboard-response","94","63405","0.0-2.0-20.0-0.0","33","37760","male","NaN","","","","null","NaN","18","","Stimuli/Experimental_stims/localizer/faces/rui-silvestre-hAMJpesMeDE-unsplash.jpg","1","faces","","0","1","0","0.4","8.4"
"","iti_localizer","","html-keyboard-response","95","63716","0.0-2.0-20.0-1.0","33","37760","male","null","","","","null","","18","","","1","","","","","","0.3","8.8"
"","localizer","","html-keyboard-response","96","64133","0.0-2.0-21.0-0.0","33","37760","male","NaN","","","","null","NaN","19","","Stimuli/Experimental_stims/localizer/faces/icons8-team-6LZuSzSwso0-unsplash.jpg","1","faces","","1","1","0","0.4","9.100000000000001"
"","iti_localizer","","html-keyboard-response","97","64439","0.0-2.0-21.0-1.0","33","37760","male","null","","","","null","","19","","","1","","","","","","0.3","9.500000000000002"
"","localizer","","html-keyboard-response","98","64853","0.0-2.0-22.0-0.0","33","37760","male","NaN","","","","null","NaN","20","","Stimuli/Experimental_stims/localizer/faces/austin-wade-X6Uj51n5CE8-unsplash.jpg","1","faces","","0","1","0","0.4","9.800000000000002"
"","iti_localizer","","html-keyboard-response","99","65166","0.0-2.0-22.0-1.0","33","37760","male","null","","","","null","","20","","","1","","","","","","0.3","10.200000000000003"
"","localizer","","html-keyboard-response","100","65582","0.0-2.0-23.0-0.0","33","37760","male","NaN","","","","null","NaN","21","","Stimuli/Experimental_stims/localizer/faces/brooke-cagle-Nm70URdtf3c-unsplash (1).jpg","1","faces","","0","1","0","0.4","10.500000000000004"
"","iti_localizer","","html-keyboard-response","101","65893","0.0-2.0-23.0-1.0","33","37760","male","null","","","","null","","21","","","1","","","","","","0.3","10.900000000000004"
"","localizer","","html-keyboard-response","102","66305","0.0-2.0-24.0-0.0","33","37760","male","NaN","","","","null","NaN","22","","Stimuli/Experimental_stims/localizer/faces/aatik-tasneem-7omHUGhhmZ0-unsplash.jpg","1","faces","","0","1","0","0.4","11.200000000000005"
"","iti_localizer","","html-keyboard-response","103","66620","0.0-2.0-24.0-1.0","33","37760","male","null","","","","null","","22","","","1","","","","","","0.3","11.600000000000005"
"","localizer","","html-keyboard-response","104","67038","0.0-2.0-25.0-0.0","33","37760","male","NaN","","","","null","NaN","23","","Stimuli/Experimental_stims/localizer/faces/joseph-gonzalez-iFgRcqHznqg-unsplash.jpg","1","faces","","0","1","0","0.4","11.900000000000006"
"","iti_localizer","","html-keyboard-response","105","67350","0.0-2.0-25.0-1.0","33","37760","male","null","","","","null","","23","","","1","","","","","","0.3","12.300000000000006"
"","localizer","","html-keyboard-response","106","67763","0.0-2.0-26.0-0.0","33","37760","male","NaN","","","","null","NaN","24","","Stimuli/Experimental_stims/localizer/faces/allef-vinicius-C_1jjFJioWg-unsplash.jpg","1","faces","","0","1","0","0.4","12.600000000000007"
"","iti_localizer","","html-keyboard-response","107","68078","0.0-2.0-26.0-1.0","33","37760","male","null","","","","null","","24","","","1","","","","","","0.3","13.000000000000007"
"","localizer","","html-keyboard-response","108","68493","0.0-2.0-27.0-0.0","33","37760","male","NaN","","","","null","NaN","25","","Stimuli/Experimental_stims/localizer/faces/ian-dooley-d1UPkiFd04A-unsplash.jpg","1","faces","","0","1","0","0.4","13.300000000000008"
"","iti_localizer","","html-keyboard-response","109","68801","0.0-2.0-27.0-1.0","33","37760","male","null","","","","null","","25","","","1","","","","","","14","13.700000000000008"
"","localizer","","html-keyboard-response","110","69213","0.0-2.0-28.0-0.0","33","37760","male","NaN","","","","null","NaN","26","","Stimuli/Experimental_stims/localizer/body_parts/marcel-fagin-OUYg0Q3ec-Y-unsplash.jpg","1","body_parts","","0","1","0","0.4","27.70000000000001"
"","iti_localizer","","html-keyboard-response","111","69526","0.0-2.0-28.0-1.0","33","37760","male","null","","","","null","","26","","","1","","","","","","0.3","28.10000000000001"
"","localizer","","html-keyboard-response","112","69941","0.0-2.0-29.0-0.0","33","37760","male","NaN","","","","null","NaN","27","","Stimuli/Experimental_stims/localizer/body_parts/david-fanuel-qnV8X7OViNY-unsplash.jpg","1","body_parts","","0","1","0","0.4","28.40000000000001"
"","iti_localizer","","html-keyboard-response","113","70249","0.0-2.0-29.0-1.0","33","37760","male","null","","","","null","","27","","","1","","","","","","0.3","28.800000000000008"
"","localizer","","html-keyboard-response","114","70657","0.0-2.0-30.0-0.0","33","37760","male","NaN","","","","null","NaN","28","","Stimuli/Experimental_stims/localizer/body_parts/toa-heftiba-qxvWnfHb3-M-unsplash.jpg","1","body_parts","","0","1","0","0.4","29.10000000000001"
"","iti_localizer","","html-keyboard-response","115","70972","0.0-2.0-30.0-1.0","33","37760","male","null","","","","null","","28","","","1","","","","","","0.3","29.500000000000007"
"","localizer","","html-keyboard-response","116","71389","0.0-2.0-31.0-0.0","33","37760","male","NaN","","","","null","NaN","29","","Stimuli/Experimental_stims/localizer/body_parts/carlos-henrique-NAOJKwZswbs-unsplash.jpg","1","body_parts","","0","1","0","0.4","29.800000000000008"
"","iti_localizer","","html-keyboard-response","117","71696","0.0-2.0-31.0-1.0","33","37760","male","null","","","","null","","29","","","1","","","","","","0.3","30.200000000000006"
"","localizer","","html-keyboard-response","118","72109","0.0-2.0-32.0-0.0","33","37760","male","NaN","","","","null","NaN","30","","Stimuli/Experimental_stims/localizer/body_parts/helen-ast-l2iY5Sh0mTg-unsplash.jpg","1","body_parts","","1","1","0","0.4","30.500000000000007"
"","iti_localizer","","html-keyboard-response","119","72420","0.0-2.0-32.0-1.0","33","37760","male","null","","","","null","","30","","","1","","","","","","0.3","30.900000000000006"
"","localizer","","html-keyboard-response","120","72836","0.0-2.0-33.0-0.0","33","37760","male","NaN","","","","null","NaN","31","","Stimuli/Experimental_stims/localizer/body_parts/niu-niu-5HzOtV-FSlw-unsplash.jpg","1","body_parts","","0","1","0","0.4","31.200000000000006"
"","iti_localizer","","html-keyboard-response","121","73150","0.0-2.0-33.0-1.0","33","37760","male","null","","","","null","","31","","","1","","","","","","0.3","31.600000000000005"
"","localizer","","html-keyboard-response","122","73566","0.0-2.0-34.0-0.0","33","37760","male","NaN","","","","null","NaN","32","","Stimuli/Experimental_stims/localizer/body_parts/danie-franco-jyyNiSEcCl4-unsplash.jpg","1","body_parts","","0","1","0","0.4","31.900000000000006"
"","iti_localizer","","html-keyboard-response","123","73874","0.0-2.0-34.0-1.0","33","37760","male","null","","","","null","","32","","","1","","","","","","0.3","32.300000000000004"
"","localizer","","html-keyboard-response","124","74289","0.0-2.0-35.0-0.0","33","37760","male","NaN","","","","null","NaN","33","","Stimuli/Experimental_stims/localizer/body_parts/boyd-christiansen-uVj7kewrZ-o-unsplash.jpg","1","body_parts","","0","1","0","0.4","32.6"
"","iti_localizer","","html-keyboard-response","125","74601","0.0-2.0-35.0-1.0","33","37760","male","null","","","","null","","33","","","1","","","","","","0.3","33"
"","localizer","","html-keyboard-response","126","75011","0.0-2.0-36.0-0.0","33","37760","male","NaN","","","","null","NaN","34","","Stimuli/Experimental_stims/localizer/body_parts/sincerely-media-pdynOoM7xmA-unsplash.jpg","1","body_parts","","0","1","0","0.4","33.3"
"","iti_localizer","","html-keyboard-response","127","75325","0.0-2.0-36.0-1.0","33","37760","male","null","","","","null","","34","","","1","","","","","","0.3","33.699999999999996"
"","localizer","","html-keyboard-response","128","75741","0.0-2.0-37.0-0.0","33","37760","male","NaN","","","","null","NaN","35","","Stimuli/Experimental_stims/localizer/body_parts/toan-nguyen-VIeLuUFzesg-unsplash.jpg","1","body_parts","","0","1","0","0.4","33.99999999999999"
"","iti_localizer","","html-keyboard-response","129","76054","0.0-2.0-37.0-1.0","33","37760","male","null","","","","null","","35","","","1","","","","","","0.3","34.39999999999999"
"","localizer","","html-keyboard-response","130","76470","0.0-2.0-38.0-0.0","33","37760","male","NaN","","","","null","NaN","36","","Stimuli/Experimental_stims/localizer/body_parts/matheus-frade-eyzdb1C3JDM-unsplash.jpg","1","body_parts","","0","1","0","0.4","34.69999999999999"
"","iti_localizer","","html-keyboard-response","131","76782","0.0-2.0-38.0-1.0","33","37760","male","null","","","","null","","36","","","1","","","","","","0.3","35.09999999999999"
"","localizer","","html-keyboard-response","132","77198","0.0-2.0-39.0-0.0","33","37760","male","NaN","","","","null","NaN","37","","Stimuli/Experimental_stims/localizer/body_parts/nadine-shaabana-ypyaaEf2ntM-unsplash.jpg","1","body_parts","","0","1","0","0.4","35.399999999999984"
"","iti_localizer","","html-keyboard-response","133","77507","0.0-2.0-39.0-1.0","33","37760","male","null","","","","null","","37","","","1","","","","","","0.3","35.79999999999998"
"","localizer","","html-keyboard-response","134","77926","0.0-2.0-40.0-0.0","33","37760","male","NaN","","","","null","NaN","38","","Stimuli/Experimental_stims/localizer/body_parts/semen-zhuravlev-_XxH_mV8dnk-unsplash (1).jpg","1","body_parts","","0","1","0","0.4","36.09999999999998"
"","iti_localizer","","html-keyboard-response","135","78238","0.0-2.0-40.0-1.0","33","37760","male","null","","","","null","","38","","","1","","","","","","0.3","36.49999999999998"
"","localizer","","html-keyboard-response","136","78653","0.0-2.0-41.0-0.0","33","37760","male","NaN","","","","null","NaN","39","","Stimuli/Experimental_stims/localizer/body_parts/manki-kim-ZtwwncrD4A0-unsplash.jpg","1","body_parts","","1","1","0","0.4","36.799999999999976"
"","iti_localizer","","html-keyboard-response","137","78962","0.0-2.0-41.0-1.0","33","37760","male","null","","","","null","","39","","","1","","","","","","0.3","37.199999999999974"
"","localizer","","html-keyboard-response","138","79377","0.0-2.0-42.0-0.0","33","37760","male","NaN","","","","null","NaN","40","","Stimuli/Experimental_stims/localizer/body_parts/billie-5OXE3KjDEfI-unsplash.jpg","1","body_parts","","0","1","0","0.4","37.49999999999997"
"","iti_localizer","","html-keyboard-response","139","79689","0.0-2.0-42.0-1.0","33","37760","male","null","","","","null","","40","","","1","","","","","","0.3","37.89999999999997"
"","localizer","","html-keyboard-response","140","80097","0.0-2.0-43.0-0.0","33","37760","male","NaN","","","","null","NaN","41","","Stimuli/Experimental_stims/localizer/body_parts/lucaxx-freire-CacZwMexYdk-unsplash.jpg","1","body_parts","","0","1","0","0.4","38.19999999999997"
"","iti_localizer","","html-keyboard-response","141","80408","0.0-2.0-43.0-1.0","33","37760","male","null","","","","null","","41","","","1","","","","","","0.3","38.599999999999966"
"","localizer","","html-keyboard-response","142","80822","0.0-2.0-44.0-0.0","33","37760","male","NaN","","","","null","NaN","42","","Stimuli/Experimental_stims/localizer/body_parts/nick-page-jAGdpOGvLAA-unsplash.jpg","1","body_parts","","0","1","0","0.4","38.89999999999996"
"","iti_localizer","","html-keyboard-response","143","81128","0.0-2.0-44.0-1.0","33","37760","male","null","","","","null","","42","","","1","","","","","","0.3","39.29999999999996"
"","localizer","","html-keyboard-response","144","81536","0.0-2.0-45.0-0.0","33","37760","male","NaN","","","","null","NaN","43","","Stimuli/Experimental_stims/localizer/body_parts/jasper-garratt-Ng_Kl7K6V8Y-unsplash.jpg","1","body_parts","","0","1","0","0.4","39.59999999999996"
"","iti_localizer","","html-keyboard-response","145","81851","0.0-2.0-45.0-1.0","33","37760","male","null","","","","null","","43","","","1","","","","","","0.3","39.99999999999996"
"","localizer","","html-keyboard-response","146","82268","0.0-2.0-46.0-0.0","33","37760","male","NaN","","","","null","NaN","44","","Stimuli/Experimental_stims/localizer/body_parts/sincerely-media-9Zf6yh7RYbQ-unsplash.jpg","1","body_parts","","0","1","0","0.4","40.299999999999955"
"","iti_localizer","","html-keyboard-response","147","82582","0.0-2.0-46.0-1.0","33","37760","male","null","","","","null","","44","","","1","","","","","","0.3","40.69999999999995"
"","localizer","","html-keyboard-response","148","82997","0.0-2.0-47.0-0.0","33","37760","male","NaN","","","","null","NaN","45","","Stimuli/Experimental_stims/localizer/body_parts/freestocks-qw9LFf5T790-unsplash.jpg","1","body_parts","","0","1","0","0.4","40.99999999999995"
"","iti_localizer","","html-keyboard-response","149","83309","0.0-2.0-47.0-1.0","33","37760","male","null","","","","null","","45","","","1","","","","","","14","41.39999999999995"
"","localizer","","html-keyboard-response","150","83724","0.0-2.0-48.0-0.0","33","37760","male","NaN","","","","null","NaN","46","","Stimuli/Experimental_stims/localizer/outdoor_scenes/chris-holgersson-zshyCr6HGw0-unsplash.jpg","1","outdoor_scenes","","0","1","0","0.4","55.39999999999995"
"","iti_localizer","","html-keyboard-response","151","84033","0.0-2.0-48.0-1.0","33","37760","male","null","","","","null","","46","","","1","","","","","","0.3","55.79999999999995"
"","localizer","","html-keyboard-response","152","84441","0.0-2.0-49.0-0.0","33","37760","male","NaN","","","","null","NaN","47","","Stimuli/Experimental_stims/localizer/outdoor_scenes/quino-al-vmZ2DehWQ3Q-unsplash.jpg","1","outdoor_scenes","","0","1","0","0.4","56.099999999999945"
"","iti_localizer","","html-keyboard-response","153","84752","0.0-2.0-49.0-1.0","33","37760","male","null","","","","null","","47","","","1","","","","","","0.3","56.49999999999994"
"","localizer","","html-keyboard-response","154","85165","0.0-2.0-50.0-0.0","33","37760","male","NaN","","","","null","NaN","48","","Stimuli/Experimental_stims/localizer/outdoor_scenes/chang-qing-2YQoKbyGvDc-unsplash.jpg","1","outdoor_scenes","","0","1","0","0.4","56.79999999999994"
"","iti_localizer","","html-keyboard-response","155","85478","0.0-2.0-50.0-1.0","33","37760","male","null","","","","null","","48","","","1","","","","","","0.3","57.19999999999994"
"","localizer","","html-keyboard-response","156","85894","0.0-2.0-51.0-0.0","33","37760","male","NaN","","","","null","NaN","49","","Stimuli/Experimental_stims/localizer/outdoor_scenes/andres-sanz-uILhNE1VcwA-unsplash.jpg","1","outdoor_scenes","","0","1","0","0.4","57.499999999999936"
"","iti_localizer","","html-keyboard-response","157","86200","0.0-2.0-51.0-1.0","33","37760","male","null","","","","null","","49","","","1","","","","","","0.3","57.899999999999935"
"","localizer","","html-keyboard-response","158","86609","0.0-2.0-52.0-0.0","33","37760","male","NaN","","","","null","NaN","50","","Stimuli/Experimental_stims/localizer/outdoor_scenes/simon-berger-UqCnDyc_3vA-unsplash.jpg","1","outdoor_scenes","","0","1","0","0.4","58.19999999999993"
"","iti_localizer","","html-keyboard-response","159","86922","0.0-2.0-52.0-1.0","33","37760","male","null","","","","null","","50","","","1","","","","","","0.3","58.59999999999993"
"","localizer","","html-keyboard-response","160","87337","0.0-2.0-53.0-0.0","33","37760","male","NaN","","","","null","NaN","51","","Stimuli/Experimental_stims/localizer/outdoor_scenes/antoine-beauvillain-qrPqGP-SG8w-unsplash.jpg","1","outdoor_scenes","","0","1","0","0.4","58.89999999999993"
"","iti_localizer","","html-keyboard-response","161","87648","0.0-2.0-53.0-1.0","33","37760","male","null","","","","null","","51","","","1","","","","","","0.3","59.299999999999926"
"","localizer","","html-keyboard-response","162","88058","0.0-2.0-54.0-0.0","33","37760","male","NaN","","","","null","NaN","52","","Stimuli/Experimental_stims/localizer/outdoor_scenes/sebastian-unrau-v4e3JI7DDHI-unsplash.jpg","1","outdoor_scenes","","1","1","0","0.4","59.59999999999992"
"","iti_localizer","","html-keyboard-response","163","88368","0.0-2.0-54.0-1.0","33","37760","male","null","","","","null","","52","","","1","","","","","","0.3","59.99999999999992"
"","localizer","","html-keyboard-response","164","88782","0.0-2.0-55.0-0.0","33","37760","male","NaN","","","","null","NaN","53","","Stimuli/Experimental_stims/localizer/outdoor_scenes/ales-krivec-hsX9KpLLsIE-unsplash.jpg","1","outdoor_scenes","","0","1","0","0.4","60.29999999999992"
"","iti_localizer","","html-keyboard-response","165","89094","0.0-2.0-55.0-1.0","33","37760","male","null","","","","null","","53","","","1","","","","","","0.3","60.69999999999992"
"","localizer","","html-keyboard-response","166","89506","0.0-2.0-56.0-0.0","33","37760","male","NaN","","","","null","NaN","54","","Stimuli/Experimental_stims/localizer/outdoor_scenes/wai-siew-mTFyV8oNDzU-unsplash.jpg","1","outdoor_scenes","","0","1","0","0.4","60.999999999999915"
"","iti_localizer","","html-keyboard-response","167","89821","0.0-2.0-56.0-1.0","33","37760","male","null","","","","null","","54","","","1","","","","","","0.3","61.39999999999991"
"","localizer","","html-keyboard-response","168","90237","0.0-2.0-57.0-0.0","33","37760","male","NaN","","","","null","NaN","55","","Stimuli/Experimental_stims/localizer/outdoor_scenes/nikola-majksner-hXNGeAFOgT4-unsplash.jpg","1","outdoor_scenes","","0","1","0","0.4","61.69999999999991"
"","iti_localizer","","html-keyboard-response","169","90549","0.0-2.0-57.0-1.0","33","37760","male","null","","","","null","","55","","","1","","","","","","0.3","62.09999999999991"
"","localizer","","html-keyboard-response","170","90963","0.0-2.0-58.0-0.0","33","37760","male","NaN","","","","null","NaN","56","","Stimuli/Experimental_stims/localizer/outdoor_scenes/sabeer-darr-Upz-tnx2v2s-unsplash.jpg","1","outdoor_scenes","","0","1","0","0.4","62.399999999999906"
"","iti_localizer","","html-keyboard-response","171","91273","0.0-2.0-58.0-1.0","33","37760","male","null","","","","null","","56","","","1","","","","","","0.3","62.799999999999905"
"","localizer","","html-keyboard-response","172","91686","0.0-2.0-59.0-0.0","33","37760","male","NaN","","","","null","NaN","57","","Stimuli/Experimental_stims/localizer/outdoor_scenes/marcelo-quinan-u0ZgqJD55pE-unsplash.jpg","1","outdoor_scenes","","0","1","0","0.4","63.0999999999999"
"","iti_localizer","","html-keyboard-response","173","91992","0.0-2.0-59.0-1.0","33","37760","male","null","","","","null","","57","","","1","","","","","","0.3","63.4999999999999"
"","localizer","","html-keyboard-response","174","92405","0.0-2.0-60.0-0.0","33","37760","male","NaN","","","","null","NaN","58","","Stimuli/Experimental_stims/localizer/outdoor_scenes/johny-goerend-U_diPCXCBxU-unsplash.jpg","1","outdoor_scenes","","0","1","0","0.4","63.7999999999999"
"","iti_localizer","","html-keyboard-response","175","92714","0.0-2.0-60.0-1.0","33","37760","male","null","","","","null","","58","","","1","","","","","","0.3","64.1999999999999"
"","localizer","","html-keyboard-response","176","93122","0.0-2.0-61.0-0.0","33","37760","male","NaN","","","","null","NaN","59","","Stimuli/Experimental_stims/localizer/outdoor_scenes/dave-hoefler-lsoogGC_5dg-unsplash.jpg","1","outdoor_scenes","","0","1","0","0.4","64.4999999999999"
"","iti_localizer","","html-keyboard-response","177","93433","0.0-2.0-61.0-1.0","33","37760","male","null","","","","null","","59","","","1","","","","","","0.3","64.8999999999999"
"","localizer","","html-keyboard-response","178","93846","0.0-2.0-62.0-0.0","33","37760","male","NaN","","","","null","NaN","60","","Stimuli/Experimental_stims/localizer/outdoor_scenes/jay-cai-F_laX9E8CUo-unsplash.jpg","1","outdoor_scenes","","0","1","0","0.4","65.1999999999999"
"","iti_localizer","","html-keyboard-response","179","94157","0.0-2.0-62.0-1.0","33","37760","male","null","","","","null","","60","","","1","","","","","","0.3","65.59999999999991"
"","localizer","","html-keyboard-response","180","94571","0.0-2.0-63.0-0.0","33","37760","male","NaN","","","","null","NaN","61","","Stimuli/Experimental_stims/localizer/outdoor_scenes/tomasz-filipek-CUWC-6MRcNg-unsplash.jpg","1","outdoor_scenes","","0","1","0","0.4","65.8999999999999"
"","iti_localizer","","html-keyboard-response","181","94882","0.0-2.0-63.0-1.0","33","37760","male","null","","","","null","","61","","","1","","","","","","0.3","66.29999999999991"
"","localizer","","html-keyboard-response","182","95293","0.0-2.0-64.0-0.0","33","37760","male","NaN","","","","null","NaN","62","","Stimuli/Experimental_stims/localizer/outdoor_scenes/pietro-de-grandi-T7K4aEPoGGk-unsplash.jpg","1","outdoor_scenes","","0","1","0","0.4","66.59999999999991"
"","iti_localizer","","html-keyboard-response","183","95605","0.0-2.0-64.0-1.0","33","37760","male","null","","","","null","","62","","","1","","","","","","0.3","66.99999999999991"
"","localizer","","html-keyboard-response","184","96019","0.0-2.0-65.0-0.0","33","37760","male","NaN","","","","null","NaN","63","","Stimuli/Experimental_stims/localizer/outdoor_scenes/solotravelgoals-7kLufxYoqWk-unsplash.jpg","1","outdoor_scenes","","1","1","0","0.4","67.29999999999991"
"","iti_localizer","","html-keyboard-response","185","96333","0.0-2.0-65.0-1.0","33","37760","male","null","","","","null","","63","","","1","","","","","","0.3","67.69999999999992"
"","localizer","","html-keyboard-response","186","96749","0.0-2.0-66.0-0.0","33","37760","male","NaN","","","","null","NaN","64","","Stimuli/Experimental_stims/localizer/outdoor_scenes/wil-stewart-pHANr-CpbYM-unsplash.jpg","1","outdoor_scenes","","0","1","0","0.4","67.99999999999991"
"","iti_localizer","","html-keyboard-response","187","97058","0.0-2.0-66.0-1.0","33","37760","male","null","","","","null","","64","","","1","","","","","","0.3","68.39999999999992"
"","localizer","","html-keyboard-response","188","97477","0.0-2.0-67.0-0.0","33","37760","male","NaN","","","","null","NaN","65","","Stimuli/Experimental_stims/localizer/outdoor_scenes/gabriel-garcia-marengo-ht9aLtovtSo-unsplash.jpg","1","outdoor_scenes","","0","1","0","0.4","68.69999999999992"
"","iti_localizer","","html-keyboard-response","189","97786","0.0-2.0-67.0-1.0","33","37760","male","null","","","","null","","65","","","1","","","","","","14","69.09999999999992"
"","localizer","","html-keyboard-response","190","98192","0.0-2.0-68.0-0.0","33","37760","male","NaN","","","","null","NaN","66","","Stimuli/Experimental_stims/localizer/faces/stephanie-nakagawa-ADSKIn0ScDg-unsplash.jpg","1","faces","","1","1","0","0.4","83.09999999999992"
"","iti_localizer","","html-keyboard-response","191","98510","0.0-2.0-68.0-1.0","33","37760","male","null","","","","null","","66","","","1","","","","","","0.3","83.49999999999993"
"","localizer","","html-keyboard-response","192","98922","0.0-2.0-69.0-0.0","33","37760","male","NaN","","","","null","NaN","67","","Stimuli/Experimental_stims/localizer/faces/whereslugo-zl_fPgiwduo-unsplash.jpg","1","faces","","0","1","0","0.4","83.79999999999993"
"","iti_localizer","","html-keyboard-response","193","99238","0.0-2.0-69.0-1.0","33","37760","male","null","","","","null","","67","","","1","","","","","","0.3","84.19999999999993"
"","localizer","","html-keyboard-response","194","99647","0.0-2.0-70.0-0.0","33","37760","male","NaN","","","","null","NaN","68","","Stimuli/Experimental_stims/localizer/faces/jeffery-erhunse-BQMZ5ligqps-unsplash.jpg","1","faces","","0","1","0","0.4","84.49999999999993"
"","iti_localizer","","html-keyboard-response","195","99963","0.0-2.0-70.0-1.0","33","37760","male","null","","","","null","","68","","","1","","","","","","0.3","84.89999999999993"
"","localizer","","html-keyboard-response","196","100378","0.0-2.0-71.0-0.0","33","37760","male","NaN","","","","null","NaN","69","","Stimuli/Experimental_stims/localizer/faces/ayo-ogunseinde-sibVwORYqs0-unsplash.jpg","1","faces","","0","1","0","0.4","85.19999999999993"
"","iti_localizer","","html-keyboard-response","197","100691","0.0-2.0-71.0-1.0","33","37760","male","null","","","","null","","69","","","1","","","","","","0.3","85.59999999999994"
"","localizer","","html-keyboard-response","198","101109","0.0-2.0-72.0-0.0","33","37760","male","NaN","","","","null","NaN","70","","Stimuli/Experimental_stims/localizer/faces/toa-heftiba-2O1EUSTRBrY-unsplash.jpg","1","faces","","0","1","0","0.4","85.89999999999993"
"","iti_localizer","","html-keyboard-response","199","101421","0.0-2.0-72.0-1.0","33","37760","male","null","","","","null","","70","","","1","","","","","","0.3","86.29999999999994"
"","localizer","","html-keyboard-response","200","101838","0.0-2.0-73.0-0.0","33","37760","male","NaN","","","","null","NaN","71","","Stimuli/Experimental_stims/localizer/faces/ihor-saveliev-3POm-bxWIN8-unsplash.jpg","1","faces","","0","1","0","0.4","86.59999999999994"
"","iti_localizer","","html-keyboard-response","201","102150","0.0-2.0-73.0-1.0","33","37760","male","null","","","","null","","71","","","1","","","","","","0.3","86.99999999999994"
"","localizer","","html-keyboard-response","202","102564","0.0-2.0-74.0-0.0","33","37760","male","NaN","","","","null","NaN","72","","Stimuli/Experimental_stims/localizer/faces/rafaella-mendes-diniz-et_78QkMMQs-unsplash.jpg","1","faces","","0","1","0","0.4","87.29999999999994"
"","iti_localizer","","html-keyboard-response","203","102873","0.0-2.0-74.0-1.0","33","37760","male","null","","","","null","","72","","","1","","","","","","0.3","87.69999999999995"
"","localizer","","html-keyboard-response","204","103283","0.0-2.0-75.0-0.0","33","37760","male","NaN","","","","null","NaN","73","","Stimuli/Experimental_stims/localizer/faces/christina-wocintechchat-com-0Zx1bDv5BNY-unsplash.jpg","1","faces","","0","1","0","0.4","87.99999999999994"
"","iti_localizer","","html-keyboard-response","205","103594","0.0-2.0-75.0-1.0","33","37760","male","null","","","","null","","73","","","1","","","","","","0.3","88.39999999999995"
"","localizer","","html-keyboard-response","206","104008","0.0-2.0-76.0-0.0","33","37760","male","NaN","","","","null","NaN","74","","Stimuli/Experimental_stims/localizer/faces/gabriel-silverio-u3WmDyKGsrY-unsplash.jpg","1","faces","","0","1","0","0.4","88.69999999999995"
"","iti_localizer","","html-keyboard-response","207","104326","0.0-2.0-76.0-1.0","33","37760","male","null","","","","null","","74","","","1","","","","","","0.3","89.09999999999995"
"","localizer","","html-keyboard-response","208","104741","0.0-2.0-77.0-0.0","33","37760","male","NaN","","","","null","NaN","75","","Stimuli/Experimental_stims/localizer/faces/carlos-vaz-KP4bxnxAilU-unsplash.jpg","1","faces","","0","1","0","0.4","89.39999999999995"
"","iti_localizer","","html-keyboard-response","209","105053","0.0-2.0-77.0-1.0","33","37760","male","null","","","","null","","75","","","1","","","","","","0.3","89.79999999999995"
"","localizer","","html-keyboard-response","210","105470","0.0-2.0-78.0-0.0","33","37760","male","NaN","","","","null","NaN","76","","Stimuli/Experimental_stims/localizer/faces/hisu-lee-2qvxIr_DXGo-unsplash.jpg","1","faces","","0","1","0","0.4","90.09999999999995"
"","iti_localizer","","html-keyboard-response","211","105782","0.0-2.0-78.0-1.0","33","37760","male","null","","","","null","","76","","","1","","","","","","0.3","90.49999999999996"
"","localizer","","html-keyboard-response","212","106198","0.0-2.0-79.0-0.0","33","37760","male","NaN","","","","null","NaN","77","","Stimuli/Experimental_stims/localizer/faces/juan-encalada-WC7KIHo13Fc-unsplash.jpg","1","faces","","0","1","0","0.4","90.79999999999995"
"","iti_localizer","","html-keyboard-response","213","106509","0.0-2.0-79.0-1.0","33","37760","male","null","","","","null","","77","","","1","","","","","","0.3","91.19999999999996"
"","localizer","","html-keyboard-response","214","106921","0.0-2.0-80.0-0.0","33","37760","male","NaN","","","","null","NaN","78","","Stimuli/Experimental_stims/localizer/faces/darshan-patel-QJEVpydulGs-unsplash.jpg","1","faces","","0","1","0","0.4","91.49999999999996"
"","iti_localizer","","html-keyboard-response","215","107230","0.0-2.0-80.0-1.0","33","37760","male","null","","","","null","","78","","","1","","","","","","0.3","91.89999999999996"
"","localizer","","html-keyboard-response","216","107643","0.0-2.0-81.0-0.0","33","37760","male","NaN","","","","null","NaN","79","","Stimuli/Experimental_stims/localizer/faces/jimmy-fermin-bqe0J0b26RQ-unsplash.jpg","1","faces","","0","1","0","0.4","92.19999999999996"
"","iti_localizer","","html-keyboard-response","217","107954","0.0-2.0-81.0-1.0","33","37760","male","null","","","","null","","79","","","1","","","","","","0.3","92.59999999999997"
"","localizer","","html-keyboard-response","218","108370","0.0-2.0-82.0-0.0","33","37760","male","NaN","","","","null","NaN","80","","Stimuli/Experimental_stims/localizer/faces/katsiaryna-endruszkiewicz-BteCp6aq4GI-unsplash.jpg","1","faces","","1","1","0","0.4","92.89999999999996"
"","iti_localizer","","html-keyboard-response","219","108686","0.0-2.0-82.0-1.0","33","37760","male","null","","","","null","","80","","","1","","","","","","0.3","93.29999999999997"
"","localizer","","html-keyboard-response","220","109097","0.0-2.0-83.0-0.0","33","37760","male","NaN","","","","null","NaN","81","","Stimuli/Experimental_stims/localizer/faces/mubariz-mehdizadeh-Py8F6-hRn5o-unsplash.jpg","1","faces","","0","1","0","0.4","93.59999999999997"
"","iti_localizer","","html-keyboard-response","221","109413","0.0-2.0-83.0-1.0","33","37760","male","null","","","","null","","81","","","1","","","","","","0.3","93.99999999999997"
"","localizer","","html-keyboard-response","222","109829","0.0-2.0-84.0-0.0","33","37760","male","NaN","","","","null","NaN","82","","Stimuli/Experimental_stims/localizer/faces/ben-scott-tWb7IsL9CnY-unsplash.jpg","1","faces","","0","1","0","0.4","94.29999999999997"
"","iti_localizer","","html-keyboard-response","223","110142","0.0-2.0-84.0-1.0","33","37760","male","null","","","","null","","82","","","1","","","","","","0.3","94.69999999999997"
"","localizer","","html-keyboard-response","224","110558","0.0-2.0-85.0-0.0","33","37760","male","NaN","","","","null","NaN","83","","Stimuli/Experimental_stims/localizer/faces/aleksandar-popovski-Jy4ELSGPHTc-unsplash.jpg","1","faces","","0","1","0","0.4","94.99999999999997"
"","iti_localizer","","html-keyboard-response","225","110863","0.0-2.0-85.0-1.0","33","37760","male","null","","","","null","","83","","","1","","","","","","0.3","95.39999999999998"
"","localizer","","html-keyboard-response","226","111272","0.0-2.0-86.0-0.0","33","37760","male","NaN","","","","null","NaN","84","","Stimuli/Experimental_stims/localizer/faces/binh-ly-k_4A59MzZTY-unsplash.jpg","1","faces","","0","1","0","0.4","95.69999999999997"
"","iti_localizer","","html-keyboard-response","227","111585","0.0-2.0-86.0-1.0","33","37760","male","null","","","","null","","84","","","1","","","","","","0.3","96.09999999999998"
"","localizer","","html-keyboard-response","228","111997","0.0-2.0-87.0-0.0","33","37760","male","NaN","","","","null","NaN","85","","Stimuli/Experimental_stims/localizer/faces/ethan-haddox-__ng3cRXmFE-unsplash.jpg","1","faces","","0","1","0","0.4","96.39999999999998"
"","iti_localizer","","html-keyboard-response","229","112310","0.0-2.0-87.0-1.0","33","37760","male","null","","","","null","","85","","","1","","","","","","14","96.79999999999998"
"","localizer","","html-keyboard-response","230","112726","0.0-2.0-88.0-0.0","33","37760","male","NaN","","","","null","NaN","86","","Stimuli/Experimental_stims/localizer/body_parts/bady-abbas-N-VEeMnm7gE-unsplash.jpg","1","body_parts","","0","1","0","0.4","110.79999999999998"
"","iti_localizer","","html-keyboard-response","231","113036","0.0-2.0-88.0-1.0","33","37760","male","null","","","","null","","86","","","1","","","","","","0.3","111.19999999999999"
"","localizer","","html-keyboard-response","232","113454","0.0-2.0-89.0-0.0","33","37760","male","NaN","","","","null","NaN","87","","Stimuli/Experimental_stims/localizer/body_parts/jonathan-borba-hTwH8QFkPMs-unsplash.jpg","1","body_parts","","0","1","0","0.4","111.49999999999999"
"","iti_localizer","","html-keyboard-response","233","113765","0.0-2.0-89.0-1.0","33","37760","male","null","","","","null","","87","","","1","","","","","","0.3","111.89999999999999"
"","localizer","","html-keyboard-response","234","114179","0.0-2.0-90.0-0.0","33","37760","male","NaN","","","","null","NaN","88","","Stimuli/Experimental_stims/localizer/body_parts/liv-bruce-M0oVPGsWk1E-unsplash.jpg","1","body_parts","","0","1","0","0.4","112.19999999999999"
"","iti_localizer","","html-keyboard-response","235","114493","0.0-2.0-90.0-1.0","33","37760","male","null","","","","null","","88","","","1","","","","","","0.3","112.6"
"","localizer","","html-keyboard-response","236","114907","0.0-2.0-91.0-0.0","33","37760","male","NaN","","","","null","NaN","89","","Stimuli/Experimental_stims/localizer/body_parts/sincerely-media-7TBFwUQA6Xk-unsplash.jpg","1","body_parts","","0","1","0","0.4","112.89999999999999"
"","iti_localizer","","html-keyboard-response","237","115221","0.0-2.0-91.0-1.0","33","37760","male","null","","","","null","","89","","","1","","","","","","0.3","113.3"
"","localizer","","html-keyboard-response","238","115637","0.0-2.0-92.0-0.0","33","37760","male","NaN","","","","null","NaN","90","","Stimuli/Experimental_stims/localizer/body_parts/davidcohen-qghuLqyh3nE-unsplash.jpg","1","body_parts","","0","1","0","0.4","113.6"
"","iti_localizer","","html-keyboard-response","239","115945","0.0-2.0-92.0-1.0","33","37760","male","null","","","","null","","90","","","1","","","","","","0.3","114"
"","localizer","","html-keyboard-response","240","116355","0.0-2.0-93.0-0.0","33","37760","male","NaN","","","","null","NaN","91","","Stimuli/Experimental_stims/localizer/body_parts/pure-julia-E9Q4bqYHtIM-unsplash.jpg","1","body_parts","","1","1","0","0.4","114.3"
"","iti_localizer","","html-keyboard-response","241","116664","0.0-2.0-93.0-1.0","33","37760","male","null","","","","null","","91","","","1","","","","","","0.3","114.7"
"","localizer","","html-keyboard-response","242","117076","0.0-2.0-94.0-0.0","33","37760","male","NaN","","","","null","NaN","92","","Stimuli/Experimental_stims/localizer/body_parts/jan-romero-DL4DDQb8yjc-unsplash.jpg","1","body_parts","","0","1","0","0.4","115"
"","iti_localizer","","html-keyboard-response","243","117385","0.0-2.0-94.0-1.0","33","37760","male","null","","","","null","","92","","","1","","","","","","0.3","115.4"
"","localizer","","html-keyboard-response","244","117796","0.0-2.0-95.0-0.0","33","37760","male","NaN","","","","null","NaN","93","","Stimuli/Experimental_stims/localizer/body_parts/anelya-okapova-V69kmOyZ3SU-unsplash.jpg","1","body_parts","","0","1","0","0.4","115.7"
"","iti_localizer","","html-keyboard-response","245","118109","0.0-2.0-95.0-1.0","33","37760","male","null","","","","null","","93","","","1","","","","","","0.3","116.10000000000001"
"","localizer","","html-keyboard-response","246","118524","0.0-2.0-96.0-0.0","33","37760","male","NaN","","","","null","NaN","94","","Stimuli/Experimental_stims/localizer/body_parts/sandra-seitamaa-YCc_YAAhY3I-unsplash.jpg","1","body_parts","","0","1","0","0.4","116.4"
"","iti_localizer","","html-keyboard-response","247","118838","0.0-2.0-96.0-1.0","33","37760","male","null","","","","null","","94","","","1","","","","","","0.3","116.80000000000001"
"","localizer","","html-keyboard-response","248","119249","0.0-2.0-97.0-0.0","33","37760","male","NaN","","","","null","NaN","95","","Stimuli/Experimental_stims/localizer/body_parts/charles-etoroma-1fo0biloDOc-unsplash.jpg","1","body_parts","","0","1","0","0.4","117.10000000000001"
"","iti_localizer","","html-keyboard-response","249","119561","0.0-2.0-97.0-1.0","33","37760","male","null","","","","null","","95","","","1","","","","","","0.3","117.50000000000001"
"","localizer","","html-keyboard-response","250","119969","0.0-2.0-98.0-0.0","33","37760","male","NaN","","","","null","NaN","96","","Stimuli/Experimental_stims/localizer/body_parts/sincerely-media-3DZHTq_i7Qk-unsplash.jpg","1","body_parts","","0","1","0","0.4","117.80000000000001"
"","iti_localizer","","html-keyboard-response","251","120280","0.0-2.0-98.0-1.0","33","37760","male","null","","","","null","","96","","","1","","","","","","0.3","118.20000000000002"
"","localizer","","html-keyboard-response","252","120689","0.0-2.0-99.0-0.0","33","37760","male","NaN","","","","null","NaN","97","","Stimuli/Experimental_stims/localizer/body_parts/kai-wenzel-zYDJOxjaZrQ-unsplash.jpg","1","body_parts","","0","1","0","0.4","118.50000000000001"
"","iti_localizer","","html-keyboard-response","253","121007","0.0-2.0-99.0-1.0","33","37760","male","null","","","","null","","97","","","1","","","","","","0.3","118.90000000000002"
"","localizer","","html-keyboard-response","254","121417","0.0-2.0-100.0-0.0","33","37760","male","NaN","","","","null","NaN","98","","Stimuli/Experimental_stims/localizer/body_parts/deborah-diem-ieVxpPjl1e0-unsplash.jpg","1","body_parts","","0","1","0","0.4","119.20000000000002"
"","iti_localizer","","html-keyboard-response","255","121734","0.0-2.0-100.0-1.0","33","37760","male","null","","","","null","","98","","","1","","","","","","0.3","119.60000000000002"
"","localizer","","html-keyboard-response","256","122149","0.0-2.0-101.0-0.0","33","37760","male","NaN","","","","null","NaN","99","","Stimuli/Experimental_stims/localizer/body_parts/pure-julia-9lVaya31sMk-unsplash.jpg","1","body_parts","","0","1","0","0.4","119.90000000000002"
"","iti_localizer","","html-keyboard-response","257","122456","0.0-2.0-101.0-1.0","33","37760","male","null","","","","null","","99","","","1","","","","","","0.3","120.30000000000003"
"","localizer","","html-keyboard-response","258","122870","0.0-2.0-102.0-0.0","33","37760","male","NaN","","","","null","NaN","100","","Stimuli/Experimental_stims/localizer/body_parts/sincerely-media-QyzlAZjm0r0-unsplash.jpg","1","body_parts","","0","1","0","0.4","120.60000000000002"
"","iti_localizer","","html-keyboard-response","259","123189","0.0-2.0-102.0-1.0","33","37760","male","null","","","","null","","100","","","1","","","","","","0.3","121.00000000000003"
"","localizer","","html-keyboard-response","260","123606","0.0-2.0-103.0-0.0","33","37760","male","NaN","","","","null","NaN","101","","Stimuli/Experimental_stims/localizer/body_parts/ben-hartley-RbrsejLGVZ8-unsplash.jpg","1","body_parts","","0","1","0","0.4","121.30000000000003"
"","iti_localizer","","html-keyboard-response","261","123912","0.0-2.0-103.0-1.0","33","37760","male","null","","","","null","","101","","","1","","","","","","0.3","121.70000000000003"
"","localizer","","html-keyboard-response","262","124325","0.0-2.0-104.0-0.0","33","37760","male","NaN","","","","null","NaN","102","","Stimuli/Experimental_stims/localizer/body_parts/sincerely-media-Q7qRyaurQfo-unsplash.jpg","1","body_parts","","1","1","0","0.4","122.00000000000003"
"","iti_localizer","","html-keyboard-response","263","124637","0.0-2.0-104.0-1.0","33","37760","male","null","","","","null","","102","","","1","","","","","","0.3","122.40000000000003"
"","localizer","","html-keyboard-response","264","125049","0.0-2.0-105.0-0.0","33","37760","male","NaN","","","","null","NaN","103","","Stimuli/Experimental_stims/localizer/body_parts/adrien-king-XzBluXxBoyQ-unsplash.jpg","1","body_parts","","0","1","0","0.4","122.70000000000003"
"","iti_localizer","","html-keyboard-response","265","125363","0.0-2.0-105.0-1.0","33","37760","male","null","","","","null","","103","","","1","","","","","","0.3","123.10000000000004"
"","localizer","","html-keyboard-response","266","125777","0.0-2.0-106.0-0.0","33","37760","male","NaN","","","","null","NaN","104","","Stimuli/Experimental_stims/localizer/body_parts/hu-chen-tCbTGNwrFNM-unsplash.jpg","1","body_parts","","0","1","0","0.4","123.40000000000003"
"","iti_localizer","","html-keyboard-response","267","126094","0.0-2.0-106.0-1.0","33","37760","male","null","","","","null","","104","","","1","","","","","","0.3","123.80000000000004"
"","localizer","","html-keyboard-response","268","126510","0.0-2.0-107.0-0.0","33","37760","male","NaN","","","","null","NaN","105","","Stimuli/Experimental_stims/localizer/body_parts/apostolos-vamvouras-g5wKHRu2QW0-unsplash.jpg","1","body_parts","","0","1","0","0.4","124.10000000000004"
"","iti_localizer","","html-keyboard-response","269","126820","0.0-2.0-107.0-1.0","33","37760","male","null","","","","null","","105","","","1","","","","","","14","124.50000000000004"
"","localizer","","html-keyboard-response","270","127237","0.0-2.0-108.0-0.0","33","37760","male","NaN","","","","null","NaN","106","","Stimuli/Experimental_stims/localizer/faces/prince-akachi-LWkFHEGpleE-unsplash.jpg","1","faces","","0","1","0","0.4","138.50000000000006"
"","iti_localizer","","html-keyboard-response","271","127550","0.0-2.0-108.0-1.0","33","37760","male","null","","","","null","","106","","","1","","","","","","0.3","138.90000000000006"
"","localizer","","html-keyboard-response","272","127962","0.0-2.0-109.0-0.0","33","37760","male","NaN","","","","null","NaN","107","","Stimuli/Experimental_stims/localizer/faces/hassan-khan-EGVccebWodM-unsplash.jpg","1","faces","","1","1","0","0.4","139.20000000000007"
"","iti_localizer","","html-keyboard-response","273","128277","0.0-2.0-109.0-1.0","33","37760","male","null","","","","null","","107","","","1","","","","","","0.3","139.60000000000008"
"","localizer","","html-keyboard-response","274","128691","0.0-2.0-110.0-0.0","33","37760","male","NaN","","","","null","NaN","108","","Stimuli/Experimental_stims/localizer/faces/filipe-almeida-mnEWC72eWDM-unsplash.jpg","1","faces","","0","1","0","0.4","139.9000000000001"
"","iti_localizer","","html-keyboard-response","275","129004","0.0-2.0-110.0-1.0","33","37760","male","null","","","","null","","108","","","1","","","","","","0.3","140.3000000000001"
"","localizer","","html-keyboard-response","276","129417","0.0-2.0-111.0-0.0","33","37760","male","NaN","","","","null","NaN","109","","Stimuli/Experimental_stims/localizer/faces/janaya-dasiuk-_A2LZdUqHgA-unsplash.jpg","1","faces","","0","1","0","0.4","140.6000000000001"
"","iti_localizer","","html-keyboard-response","277","129734","0.0-2.0-111.0-1.0","33","37760","male","null","","","","null","","109","","","1","","","","","","0.3","141.0000000000001"
"","localizer","","html-keyboard-response","278","130146","0.0-2.0-112.0-0.0","33","37760","male","NaN","","","","null","NaN","110","","Stimuli/Experimental_stims/localizer/faces/matheus-ferrero-W7b3eDUb_2I-unsplash.jpg","1","faces","","0","1","0","0.4","141.30000000000013"
"","iti_localizer","","html-keyboard-response","279","130462","0.0-2.0-112.0-1.0","33","37760","male","null","","","","null","","110","","","1","","","","","","0.3","141.70000000000013"
"","localizer","","html-keyboard-response","280","130873","0.0-2.0-113.0-0.0","33","37760","male","NaN","","","","null","NaN","111","","Stimuli/Experimental_stims/localizer/faces/sean-kong--1B_y4wGs-s-unsplash.jpg","1","faces","","0","1","0","0.4","142.00000000000014"
"","iti_localizer","","html-keyboard-response","281","131183","0.0-2.0-113.0-1.0","33","37760","male","null","","","","null","","111","","","1","","","","","","0.3","142.40000000000015"
"","localizer","","html-keyboard-response","282","131593","0.0-2.0-114.0-0.0","33","37760","male","NaN","","","","null","NaN","112","","Stimuli/Experimental_stims/localizer/faces/etty-fidele-nF8eo2nX374-unsplash.jpg","1","faces","","0","1","0","0.4","142.70000000000016"
"","iti_localizer","","html-keyboard-response","283","131907","0.0-2.0-114.0-1.0","33","37760","male","null","","","","null","","112","","","1","","","","","","0.3","143.10000000000016"
"","localizer","","html-keyboard-response","284","132323","0.0-2.0-115.0-0.0","33","37760","male","NaN","","","","null","NaN","113","","Stimuli/Experimental_stims/localizer/faces/nick-karvounis-JyO_szjGvUw-unsplash.jpg","1","faces","","0","1","0","0.4","143.40000000000018"
"","iti_localizer","","html-keyboard-response","285","132632","0.0-2.0-115.0-1.0","33","37760","male","null","","","","null","","113","","","1","","","","","","0.3","143.80000000000018"
"","localizer","","html-keyboard-response","286","133043","0.0-2.0-116.0-0.0","33","37760","male","NaN","","","","null","NaN","114","","Stimuli/Experimental_stims/localizer/faces/mathias-huysmans-U4JDjYmjn1g-unsplash.jpg","1","faces","","0","1","0","0.4","144.1000000000002"
"","iti_localizer","","html-keyboard-response","287","133356","0.0-2.0-116.0-1.0","33","37760","male","null","","","","null","","114","","","1","","","","","","0.3","144.5000000000002"
"","localizer","","html-keyboard-response","288","133768","0.0-2.0-117.0-0.0","33","37760","male","NaN","","","","null","NaN","115","","Stimuli/Experimental_stims/localizer/faces/christopher-campbell-rDEOVtE7vOs-unsplash.jpg","1","faces","","0","1","0","0.4","144.8000000000002"
"","iti_localizer","","html-keyboard-response","289","134083","0.0-2.0-117.0-1.0","33","37760","male","null","","","","null","","115","","","1","","","","","","0.3","145.20000000000022"
"","localizer","","html-keyboard-response","290","134499","0.0-2.0-118.0-0.0","33","37760","male","NaN","","","","null","NaN","116","","Stimuli/Experimental_stims/localizer/faces/ayo-ogunseinde-6W4F62sN_yI-unsplash.jpg","1","faces","","0","1","0","0.4","145.50000000000023"
"","iti_localizer","","html-keyboard-response","291","134813","0.0-2.0-118.0-1.0","33","37760","male","null","","","","null","","116","","","1","","","","","","0.3","145.90000000000023"
"","localizer","","html-keyboard-response","292","135223","0.0-2.0-119.0-0.0","33","37760","male","NaN","","","","null","NaN","117","","Stimuli/Experimental_stims/localizer/faces/olena-sergienko-0TSd6uCKTKc-unsplash.jpg","1","faces","","0","1","0","0.4","146.20000000000024"
"","iti_localizer","","html-keyboard-response","293","135540","0.0-2.0-119.0-1.0","33","37760","male","null","","","","null","","117","","","1","","","","","","0.3","146.60000000000025"
"","localizer","","html-keyboard-response","294","135957","0.0-2.0-120.0-0.0","33","37760","male","NaN","","","","null","NaN","118","","Stimuli/Experimental_stims/localizer/faces/jeffery-erhunse-vp9mRauo68c-unsplash.jpg","1","faces","","0","1","0","0.4","146.90000000000026"
"","iti_localizer","","html-keyboard-response","295","136268","0.0-2.0-120.0-1.0","33","37760","male","null","","","","null","","118","","","1","","","","","","0.3","147.30000000000027"
"","localizer","","html-keyboard-response","296","136686","0.0-2.0-121.0-0.0","33","37760","male","NaN","","","","null","NaN","119","","Stimuli/Experimental_stims/localizer/faces/chanvre-quebec-mXu1SpzHq6w-unsplash.jpg","1","faces","","1","1","0","0.4","147.60000000000028"
"","iti_localizer","","html-keyboard-response","297","136993","0.0-2.0-121.0-1.0","33","37760","male","null","","","","null","","119","","","1","","","","","","0.3","148.00000000000028"
"","localizer","","html-keyboard-response","298","137406","0.0-2.0-122.0-0.0","33","37760","male","NaN","","","","null","NaN","120","","Stimuli/Experimental_stims/localizer/faces/cdc-ddKBuWekZr0-unsplash.jpg","1","faces","","0","1","0","0.4","148.3000000000003"
"","iti_localizer","","html-keyboard-response","299","137718","0.0-2.0-122.0-1.0","33","37760","male","null","","","","null","","120","","","1","","","","","","0.3","148.7000000000003"
"","localizer","","html-keyboard-response","300","138133","0.0-2.0-123.0-0.0","33","37760","male","NaN","","","","null","NaN","121","","Stimuli/Experimental_stims/localizer/faces/ivan-dodig-R21SyyJDFgc-unsplash.jpg","1","faces","","0","1","0","0.4","149.0000000000003"
"","iti_localizer","","html-keyboard-response","301","138445","0.0-2.0-123.0-1.0","33","37760","male","null","","","","null","","121","","","1","","","","","","0.3","149.40000000000032"
"","localizer","","html-keyboard-response","302","138861","0.0-2.0-124.0-0.0","33","37760","male","NaN","","","","null","NaN","122","","Stimuli/Experimental_stims/localizer/faces/imansyah-muhamad-putera-n4KewLKFOZw-unsplash.jpg","1","faces","","0","1","0","0.4","149.70000000000033"
"","iti_localizer","","html-keyboard-response","303","139173","0.0-2.0-124.0-1.0","33","37760","male","null","","","","null","","122","","","1","","","","","","0.3","150.10000000000034"
"","localizer","","html-keyboard-response","304","139586","0.0-2.0-125.0-0.0","33","37760","male","NaN","","","","null","NaN","123","","Stimuli/Experimental_stims/localizer/faces/toa-heftiba-O3ymvT7Wf9U-unsplash.jpg","1","faces","","0","1","0","0.4","150.40000000000035"
"","iti_localizer","","html-keyboard-response","305","139902","0.0-2.0-125.0-1.0","33","37760","male","null","","","","null","","123","","","1","","","","","","0.3","150.80000000000035"
"","localizer","","html-keyboard-response","306","140311","0.0-2.0-126.0-0.0","33","37760","male","NaN","","","","null","NaN","124","","Stimuli/Experimental_stims/localizer/faces/jakob-owens-lkMJcGDZLVs-unsplash.jpg","1","faces","","0","1","0","0.4","151.10000000000036"
"","iti_localizer","","html-keyboard-response","307","140624","0.0-2.0-126.0-1.0","33","37760","male","null","","","","null","","124","","","1","","","","","","0.3","151.50000000000037"
"","localizer","","html-keyboard-response","308","141037","0.0-2.0-127.0-0.0","33","37760","male","NaN","","","","null","NaN","125","","Stimuli/Experimental_stims/localizer/faces/pavel-anoshin-d0peGya6R5Y-unsplash.jpg","1","faces","","0","1","0","0.4","151.80000000000038"
"","iti_localizer","","html-keyboard-response","309","141350","0.0-2.0-127.0-1.0","33","37760","male","null","","","","null","","125","","","1","","","","","","14","152.2000000000004"
"","localizer","","html-keyboard-response","310","141762","0.0-2.0-128.0-0.0","33","37760","male","NaN","","","","null","NaN","126","","Stimuli/Experimental_stims/localizer/body_parts/sydney-herron-b2W04fGuS70-unsplash.jpg","1","body_parts","","1","1","0","0.4","166.2000000000004"
"","iti_localizer","","html-keyboard-response","311","142073","0.0-2.0-128.0-1.0","33","37760","male","null","","","","null","","126","","","1","","","","","","0.3","166.6000000000004"
"","localizer","","html-keyboard-response","312","142486","0.0-2.0-129.0-0.0","33","37760","male","NaN","","","","null","NaN","127","","Stimuli/Experimental_stims/localizer/body_parts/ramesh-iyer-CRhznMXoJlc-unsplash.jpg","1","body_parts","","0","1","0","0.4","166.9000000000004"
"","iti_localizer","","html-keyboard-response","313","142798","0.0-2.0-129.0-1.0","33","37760","male","null","","","","null","","127","","","1","","","","","","0.3","167.3000000000004"
"","localizer","","html-keyboard-response","314","143213","0.0-2.0-130.0-0.0","33","37760","male","NaN","","","","null","NaN","128","","Stimuli/Experimental_stims/localizer/body_parts/jeremy-yap-TfJEi17kA0w-unsplash.jpg","1","body_parts","","0","1","0","0.4","167.60000000000042"
"","iti_localizer","","html-keyboard-response","315","143522","0.0-2.0-130.0-1.0","33","37760","male","null","","","","null","","128","","","1","","","","","","0.3","168.00000000000043"
"","localizer","","html-keyboard-response","316","143927","0.0-2.0-131.0-0.0","33","37760","male","NaN","","","","null","NaN","129","","Stimuli/Experimental_stims/localizer/body_parts/natalie-grainger-8uB5kFKWWkk-unsplash.jpg","1","body_parts","","0","1","0","0.4","168.30000000000044"
"","iti_localizer","","html-keyboard-response","317","144240","0.0-2.0-131.0-1.0","33","37760","male","null","","","","null","","129","","","1","","","","","","0.3","168.70000000000044"
"","localizer","","html-keyboard-response","318","144649","0.0-2.0-132.0-0.0","33","37760","male","NaN","","","","null","NaN","130","","Stimuli/Experimental_stims/localizer/body_parts/xavier-foucrier-dLZUNHsT8vo-unsplash.jpg","1","body_parts","","0","1","0","0.4","169.00000000000045"
"","iti_localizer","","html-keyboard-response","319","144966","0.0-2.0-132.0-1.0","33","37760","male","null","","","","null","","130","","","1","","","","","","0.3","169.40000000000046"
"","localizer","","html-keyboard-response","320","145379","0.0-2.0-133.0-0.0","33","37760","male","NaN","","","","null","NaN","131","","Stimuli/Experimental_stims/localizer/body_parts/luisa-denu-o5EU_lUB1rg-unsplash.jpg","1","body_parts","","0","1","0","0.4","169.70000000000047"
"","iti_localizer","","html-keyboard-response","321","145691","0.0-2.0-133.0-1.0","33","37760","male","null","","","","null","","131","","","1","","","","","","0.3","170.10000000000048"
"","localizer","","html-keyboard-response","322","146110","0.0-2.0-134.0-0.0","33","37760","male","NaN","","","","null","NaN","132","","Stimuli/Experimental_stims/localizer/body_parts/i-am_nah--S4OsO0c6Ts-unsplash.jpg","1","body_parts","","0","1","0","0.4","170.4000000000005"
"","iti_localizer","","html-keyboard-response","323","146418","0.0-2.0-134.0-1.0","33","37760","male","null","","","","null","","132","","","1","","","","","","0.3","170.8000000000005"
"","localizer","","html-keyboard-response","324","146834","0.0-2.0-135.0-0.0","33","37760","male","NaN","","","","null","NaN","133","","Stimuli/Experimental_stims/localizer/body_parts/jeremy-bishop-mLd3hAaH2ns-unsplash.jpg","1","body_parts","","0","1","0","0.4","171.1000000000005"
"","iti_localizer","","html-keyboard-response","325","147149","0.0-2.0-135.0-1.0","33","37760","male","null","","","","null","","133","","","1","","","","","","0.3","171.5000000000005"
"","localizer","","html-keyboard-response","326","147563","0.0-2.0-136.0-0.0","33","37760","male","NaN","","","","null","NaN","134","","Stimuli/Experimental_stims/localizer/body_parts/debby-hudson--B_757qSA4k-unsplash.jpg","1","body_parts","","0","1","0","0.4","171.80000000000052"
"","iti_localizer","","html-keyboard-response","327","147873","0.0-2.0-136.0-1.0","33","37760","male","null","","","","null","","134","","","1","","","","","","0.3","172.20000000000053"
"","localizer","","html-keyboard-response","328","148284","0.0-2.0-137.0-0.0","33","37760","male","NaN","","","","null","NaN","135","","Stimuli/Experimental_stims/localizer/body_parts/callum-skelton-3KLMq7y46nA-unsplash.jpg","1","body_parts","","0","1","0","0.4","172.50000000000054"
"","iti_localizer","","html-keyboard-response","329","148598","0.0-2.0-137.0-1.0","33","37760","male","null","","","","null","","135","","","1","","","","","","0.3","172.90000000000055"
"","localizer","","html-keyboard-response","330","149010","0.0-2.0-138.0-0.0","33","37760","male","NaN","","","","null","NaN","136","","Stimuli/Experimental_stims/localizer/body_parts/priscilla-du-preez-e6fcNpur53A-unsplash.jpg","1","body_parts","","0","1","0","0.4","173.20000000000056"
"","iti_localizer","","html-keyboard-response","331","149321","0.0-2.0-138.0-1.0","33","37760","male","null","","","","null","","136","","","1","","","","","","0.3","173.60000000000056"
"","localizer","","html-keyboard-response","332","149734","0.0-2.0-139.0-0.0","33","37760","male","NaN","","","","null","NaN","137","","Stimuli/Experimental_stims/localizer/body_parts/meghan-thompson-U1b8OB0QpIo-unsplash.jpg","1","body_parts","","0","1","0","0.4","173.90000000000057"
"","iti_localizer","","html-keyboard-response","333","150045","0.0-2.0-139.0-1.0","33","37760","male","null","","","","null","","137","","","1","","","","","","0.3","174.30000000000058"
"","localizer","","html-keyboard-response","334","150456","0.0-2.0-140.0-0.0","33","37760","male","NaN","","","","null","NaN","138","","Stimuli/Experimental_stims/localizer/body_parts/nattalia-nunez-MB9sdDfZMSg-unsplash.jpg","1","body_parts","","0","1","0","0.4","174.6000000000006"
"","iti_localizer","","html-keyboard-response","335","150774","0.0-2.0-140.0-1.0","33","37760","male","null","","","","null","","138","","","1","","","","","","0.3","175.0000000000006"
"","localizer","","html-keyboard-response","336","151190","0.0-2.0-141.0-0.0","33","37760","male","NaN","","","","null","NaN","139","","Stimuli/Experimental_stims/localizer/body_parts/femme-spirit-RGYBDUHYbyM-unsplash.jpg","1","body_parts","","0","1","0","0.4","175.3000000000006"
"","iti_localizer","","html-keyboard-response","337","151499","0.0-2.0-141.0-1.0","33","37760","male","null","","","","null","","139","","","1","","","","","","0.3","175.7000000000006"
"","localizer","","html-keyboard-response","338","151915","0.0-2.0-142.0-0.0","33","37760","male","NaN","","","","null","NaN","140","","Stimuli/Experimental_stims/localizer/body_parts/igordoon-primus-CdyHqfrbGIs-unsplash.jpg","1","body_parts","","0","1","0","0.4","176.00000000000063"
"","iti_localizer","","html-keyboard-response","339","152230","0.0-2.0-142.0-1.0","33","37760","male","null","","","","null","","140","","","1","","","","","","0.3","176.40000000000063"
"","localizer","","html-keyboard-response","340","152646","0.0-2.0-143.0-0.0","33","37760","male","NaN","","","","null","NaN","141","","Stimuli/Experimental_stims/localizer/body_parts/diana-polekhina-SwWjCbIIoFE-unsplash.jpg","1","body_parts","","0","1","0","0.4","176.70000000000064"
"","iti_localizer","","html-keyboard-response","341","152951","0.0-2.0-143.0-1.0","33","37760","male","null","","","","null","","141","","","1","","","","","","0.3","177.10000000000065"
"","localizer","","html-keyboard-response","342","153366","0.0-2.0-144.0-0.0","33","37760","male","NaN","","","","null","NaN","142","","Stimuli/Experimental_stims/localizer/body_parts/louisa-potter-zd29nBmLuig-unsplash.jpg","1","body_parts","","1","1","0","0.4","177.40000000000066"
"","iti_localizer","","html-keyboard-response","343","153678","0.0-2.0-144.0-1.0","33","37760","male","null","","","","null","","142","","","1","","","","","","0.3","177.80000000000067"
"","localizer","","html-keyboard-response","344","154092","0.0-2.0-145.0-0.0","33","37760","male","NaN","","","","null","NaN","143","","Stimuli/Experimental_stims/localizer/body_parts/nihal-karkala-LlOfbQD-IJ0-unsplash.jpg","1","body_parts","","0","1","0","0.4","178.10000000000068"
"","iti_localizer","","html-keyboard-response","345","154405","0.0-2.0-145.0-1.0","33","37760","male","null","","","","null","","143","","","1","","","","","","0.3","178.50000000000068"
"","localizer","","html-keyboard-response","346","154816","0.0-2.0-146.0-0.0","33","37760","male","NaN","","","","null","NaN","144","","Stimuli/Experimental_stims/localizer/body_parts/lilartsy-1KkhQ8uL28g-unsplash.jpg","1","body_parts","","0","1","0","0.4","178.8000000000007"
"","iti_localizer","","html-keyboard-response","347","155133","0.0-2.0-146.0-1.0","33","37760","male","null","","","","null","","144","","","1","","","","","","0.3","179.2000000000007"
"","localizer","","html-keyboard-response","348","155547","0.0-2.0-147.0-0.0","33","37760","male","NaN","","","","null","NaN","145","","Stimuli/Experimental_stims/localizer/body_parts/juja-han-Z8-6EI2tYtw-unsplash.jpg","1","body_parts","","0","1","0","0.4","179.5000000000007"
"","iti_localizer","","html-keyboard-response","349","155858","0.0-2.0-147.0-1.0","33","37760","male","null","","","","null","","145","","","1","","","","","","14","179.90000000000072"
"","localizer","","html-keyboard-response","350","156270","0.0-2.0-148.0-0.0","33","37760","male","NaN","","","","null","NaN","146","","Stimuli/Experimental_stims/localizer/objects/oriento-maVIpNNtmlQ-unsplash.jpg","1","objects","","0","1","0","0.4","193.90000000000072"
"","iti_localizer","","html-keyboard-response","351","156582","0.0-2.0-148.0-1.0","33","37760","male","null","","","","null","","146","","","1","","","","","","0.3","194.30000000000072"
"","localizer","","html-keyboard-response","352","156995","0.0-2.0-149.0-0.0","33","37760","male","NaN","","","","null","NaN","147","","Stimuli/Experimental_stims/localizer/objects/nicolas-hippert-kfr_eSrR08M-unsplash.jpg","1","objects","","0","1","0","0.4","194.60000000000073"
"","iti_localizer","","html-keyboard-response","353","157305","0.0-2.0-149.0-1.0","33","37760","male","null","","","","null","","147","","","1","","","","","","0.3","195.00000000000074"
"","localizer","","html-keyboard-response","354","157717","0.0-2.0-150.0-0.0","33","37760","male","NaN","","","","null","NaN","148","","Stimuli/Experimental_stims/localizer/objects/collab-media-eddtBBbaw0Y-unsplash.jpg","1","objects","","0","1","0","0.4","195.30000000000075"
"","iti_localizer","","html-keyboard-response","355","158029","0.0-2.0-150.0-1.0","33","37760","male","null","","","","null","","148","","","1","","","","","","0.3","195.70000000000076"
"","localizer","","html-keyboard-response","356","158441","0.0-2.0-151.0-0.0","33","37760","male","NaN","","","","null","NaN","149","","Stimuli/Experimental_stims/localizer/objects/ignat-dolomanov-kFBDVnmskPA-unsplash.jpg","1","objects","","0","1","0","0.4","196.00000000000077"
"","iti_localizer","","html-keyboard-response","357","158757","0.0-2.0-151.0-1.0","33","37760","male","null","","","","null","","149","","","1","","","","","","0.3","196.40000000000077"
"","localizer","","html-keyboard-response","358","159173","0.0-2.0-152.0-0.0","33","37760","male","NaN","","","","null","NaN","150","","Stimuli/Experimental_stims/localizer/objects/eugene-chystiakov-3neSwyntbQ8-unsplash.jpg","1","objects","","0","1","0","0.4","196.70000000000078"
"","iti_localizer","","html-keyboard-response","359","159483","0.0-2.0-152.0-1.0","33","37760","male","null","","","","null","","150","","","1","","","","","","0.3","197.1000000000008"
"","localizer","","html-keyboard-response","360","159895","0.0-2.0-153.0-0.0","33","37760","male","NaN","","","","null","NaN","151","","Stimuli/Experimental_stims/localizer/objects/saif71-com-VIKdvmGUhq8-unsplash.jpg","1","objects","","0","1","0","0.4","197.4000000000008"
"","iti_localizer","","html-keyboard-response","361","160209","0.0-2.0-153.0-1.0","33","37760","male","null","","","","null","","151","","","1","","","","","","0.3","197.8000000000008"
"","localizer","","html-keyboard-response","362","160620","0.0-2.0-154.0-0.0","33","37760","male","NaN","","","","null","NaN","152","","Stimuli/Experimental_stims/localizer/objects/nordwood-themes-E9tFH39iRPE-unsplash.jpg","1","objects","","1","1","0","0.4","198.10000000000082"
"","iti_localizer","","html-keyboard-response","363","160928","0.0-2.0-154.0-1.0","33","37760","male","null","","","","null","","152","","","1","","","","","","0.3","198.50000000000082"
"","localizer","","html-keyboard-response","364","161341","0.0-2.0-155.0-0.0","33","37760","male","NaN","","","","null","NaN","153","","Stimuli/Experimental_stims/localizer/objects/jiangxulei1990-eIzzzwtkBjU-unsplash.jpg","1","objects","","0","1","0","0.4","198.80000000000084"
"","iti_localizer","","html-keyboard-response","365","161649","0.0-2.0-155.0-1.0","33","37760","male","null","","","","null","","153","","","1","","","","","","0.3","199.20000000000084"
"","localizer","","html-keyboard-response","366","162060","0.0-2.0-156.0-0.0","33","37760","male","NaN","","","","null","NaN","154","","Stimuli/Experimental_stims/localizer/objects/yossy-made-yulian-WaEqwDSIeTY-unsplash.jpg","1","objects","","0","1","0","0.4","199.50000000000085"
"","iti_localizer","","html-keyboard-response","367","162372","0.0-2.0-156.0-1.0","33","37760","male","null","","","","null","","154","","","1","","","","","","0.3","199.90000000000086"
"","localizer","","html-keyboard-response","368","162789","0.0-2.0-157.0-0.0","33","37760","male","NaN","","","","null","NaN","155","","Stimuli/Experimental_stims/localizer/objects/mockup-graphics-Pj2PY-E-LfM-unsplash.jpg","1","objects","","0","1","0","0.4","200.20000000000087"
"","iti_localizer","","html-keyboard-response","369","163098","0.0-2.0-157.0-1.0","33","37760","male","null","","","","null","","155","","","1","","","","","","0.3","200.60000000000088"
"","localizer","","html-keyboard-response","370","163506","0.0-2.0-158.0-0.0","33","37760","male","NaN","","","","null","NaN","156","","Stimuli/Experimental_stims/localizer/objects/sam-moghadam-khamseh-kvmdsTrGOBM-unsplash.jpg","1","objects","","0","1","0","0.4","200.9000000000009"
"","iti_localizer","","html-keyboard-response","371","163822","0.0-2.0-158.0-1.0","33","37760","male","null","","","","null","","156","","","1","","","","","","0.3","201.3000000000009"
"","localizer","","html-keyboard-response","372","164235","0.0-2.0-159.0-0.0","33","37760","male","NaN","","","","null","NaN","157","","Stimuli/Experimental_stims/localizer/objects/nordwood-themes-nDd3dIkkOLo-unsplash.jpg","1","objects","","0","1","0","0.4","201.6000000000009"
"","iti_localizer","","html-keyboard-response","373","164543","0.0-2.0-159.0-1.0","33","37760","male","null","","","","null","","157","","","1","","","","","","0.3","202.0000000000009"
"","localizer","","html-keyboard-response","374","164956","0.0-2.0-160.0-0.0","33","37760","male","NaN","","","","null","NaN","158","","Stimuli/Experimental_stims/localizer/objects/dario-mendez-WmF_XLF4-Rs-unsplash.jpg","1","objects","","0","1","0","0.4","202.30000000000092"
"","iti_localizer","","html-keyboard-response","375","165263","0.0-2.0-160.0-1.0","33","37760","male","null","","","","null","","158","","","1","","","","","","0.3","202.70000000000093"
"","localizer","","html-keyboard-response","376","165674","0.0-2.0-161.0-0.0","33","37760","male","NaN","","","","null","NaN","159","","Stimuli/Experimental_stims/localizer/objects/mockup-graphics-v_a3DWpOFc0-unsplash.jpg","1","objects","","0","1","0","0.4","203.00000000000094"
"","iti_localizer","","html-keyboard-response","377","165989","0.0-2.0-161.0-1.0","33","37760","male","null","","","","null","","159","","","1","","","","","","0.3","203.40000000000094"
"","localizer","","html-keyboard-response","378","166405","0.0-2.0-162.0-0.0","33","37760","male","NaN","","","","null","NaN","160","","Stimuli/Experimental_stims/localizer/objects/sam-moghadam-khamseh-L_7MQsHl_aU-unsplash.jpg","1","objects","","1","1","0","0.4","203.70000000000095"
"","iti_localizer","","html-keyboard-response","379","166718","0.0-2.0-162.0-1.0","33","37760","male","null","","","","null","","160","","","1","","","","","","0.3","204.10000000000096"
"","localizer","","html-keyboard-response","380","167129","0.0-2.0-163.0-0.0","33","37760","male","NaN","","","","null","NaN","161","","Stimuli/Experimental_stims/localizer/objects/sam-moghadam-khamseh-xej3GOtAQ-o-unsplash.jpg","1","objects","","0","1","0","0.4","204.40000000000097"
"","iti_localizer","","html-keyboard-response","381","167443","0.0-2.0-163.0-1.0","33","37760","male","null","","","","null","","161","","","1","","","","","","0.3","204.80000000000098"
"","localizer","","html-keyboard-response","382","167859","0.0-2.0-164.0-0.0","33","37760","male","NaN","","","","null","NaN","162","","Stimuli/Experimental_stims/localizer/objects/recha-oktaviani-t__61ap00Mc-unsplash.jpg","1","objects","","0","1","0","0.4","205.100000000001"
"","iti_localizer","","html-keyboard-response","383","168173","0.0-2.0-164.0-1.0","33","37760","male","null","","","","null","","162","","","1","","","","","","0.3","205.500000000001"
"","localizer","","html-keyboard-response","384","168590","0.0-2.0-165.0-0.0","33","37760","male","NaN","","","","null","NaN","163","","Stimuli/Experimental_stims/localizer/objects/jonny-caspari-wsvCC6UyKjs-unsplash.jpg","1","objects","","0","1","0","0.4","205.800000000001"
"","iti_localizer","","html-keyboard-response","385","168895","0.0-2.0-165.0-1.0","33","37760","male","null","","","","null","","163","","","1","","","","","","0.3","206.200000000001"
"","localizer","","html-keyboard-response","386","169305","0.0-2.0-166.0-0.0","33","37760","male","NaN","","","","null","NaN","164","","Stimuli/Experimental_stims/localizer/objects/hipster-mum-XookgCxFw6Q-unsplash.jpg","1","objects","","0","1","0","0.4","206.50000000000102"
"","iti_localizer","","html-keyboard-response","387","169621","0.0-2.0-166.0-1.0","33","37760","male","null","","","","null","","164","","","1","","","","","","0.3","206.90000000000103"
"","localizer","","html-keyboard-response","388","170033","0.0-2.0-167.0-0.0","33","37760","male","NaN","","","","null","NaN","165","","Stimuli/Experimental_stims/localizer/objects/mulyadi-tWp0VSlSdMI-unsplash.jpg","1","objects","","0","1","0","0.4","207.20000000000104"
"","iti_localizer","","html-keyboard-response","389","170344","0.0-2.0-167.0-1.0","33","37760","male","null","","","","null","","165","","","1","","","","","","14","207.60000000000105"
"","localizer","","html-keyboard-response","390","170758","0.0-2.0-168.0-0.0","33","37760","male","NaN","","","","null","NaN","166","","Stimuli/Experimental_stims/localizer/outdoor_scenes/willian-justen-de-vasconcellos-T_Qe4QlMIvQ-unsplash.jpg","1","outdoor_scenes","","0","1","0","0.4","221.60000000000105"
"","iti_localizer","","html-keyboard-response","391","171073","0.0-2.0-168.0-1.0","33","37760","male","null","","","","null","","166","","","1","","","","","","0.3","222.00000000000105"
"","localizer","","html-keyboard-response","392","171481","0.0-2.0-169.0-0.0","33","37760","male","NaN","","","","null","NaN","167","","Stimuli/Experimental_stims/localizer/outdoor_scenes/jordan-heath-4z_SYrG5mgA-unsplash.jpg","1","outdoor_scenes","","0","1","0","0.4","222.30000000000106"
"","iti_localizer","","html-keyboard-response","393","171797","0.0-2.0-169.0-1.0","33","37760","male","null","","","","null","","167","","","1","","","","","","0.3","222.70000000000107"
"","localizer","","html-keyboard-response","394","172211","0.0-2.0-170.0-0.0","33","37760","male","NaN","","","","null","NaN","168","","Stimuli/Experimental_stims/localizer/outdoor_scenes/benjamin-davies-Zm2n2O7Fph4-unsplash.jpg","1","outdoor_scenes","","0","1","0","0.4","223.00000000000108"
"","iti_localizer","","html-keyboard-response","395","172525","0.0-2.0-170.0-1.0","33","37760","male","null","","","","null","","168","","","1","","","","","","0.3","223.40000000000109"
"","localizer","","html-keyboard-response","396","172942","0.0-2.0-171.0-0.0","33","37760","male","NaN","","","","null","NaN","169","","Stimuli/Experimental_stims/localizer/outdoor_scenes/fabian-quintero-UWQP2mh5YJI-unsplash.jpg","1","outdoor_scenes","","0","1","0","0.4","223.7000000000011"
"","iti_localizer","","html-keyboard-response","397","173248","0.0-2.0-171.0-1.0","33","37760","male","null","","","","null","","169","","","1","","","","","","0.3","224.1000000000011"
"","localizer","","html-keyboard-response","398","173659","0.0-2.0-172.0-0.0","33","37760","male","NaN","","","","null","NaN","170","","Stimuli/Experimental_stims/localizer/outdoor_scenes/john-fowler-aaIN3y2zcMQ-unsplash.jpg","1","outdoor_scenes","","0","1","0","0.4","224.4000000000011"
"","iti_localizer","","html-keyboard-response","399","173972","0.0-2.0-172.0-1.0","33","37760","male","null","","","","null","","170","","","1","","","","","","0.3","224.80000000000112"
"","localizer","","html-keyboard-response","400","174389","0.0-2.0-173.0-0.0","33","37760","male","NaN","","","","null","NaN","171","","Stimuli/Experimental_stims/localizer/outdoor_scenes/mark-harpur-K2s_YE031CA-unsplash.jpg","1","outdoor_scenes","","1","1","0","0.4","225.10000000000113"
"","iti_localizer","","html-keyboard-response","401","174700","0.0-2.0-173.0-1.0","33","37760","male","null","","","","null","","171","","","1","","","","","","0.3","225.50000000000114"
"","localizer","","html-keyboard-response","402","175117","0.0-2.0-174.0-0.0","33","37760","male","NaN","","","","null","NaN","172","","Stimuli/Experimental_stims/localizer/outdoor_scenes/cosmic-timetraveler-pYyOZ8q7AII-unsplash.jpg","1","outdoor_scenes","","0","1","0","0.4","225.80000000000115"
"","iti_localizer","","html-keyboard-response","403","175429","0.0-2.0-174.0-1.0","33","37760","male","null","","","","null","","172","","","1","","","","","","0.3","226.20000000000115"
"","localizer","","html-keyboard-response","404","175846","0.0-2.0-175.0-0.0","33","37760","male","NaN","","","","null","NaN","173","","Stimuli/Experimental_stims/localizer/outdoor_scenes/darrell-cassell-hoCXpPUMCoE-unsplash.jpg","1","outdoor_scenes","","0","1","0","0.4","226.50000000000117"
"","iti_localizer","","html-keyboard-response","405","176153","0.0-2.0-175.0-1.0","33","37760","male","null","","","","null","","173","","","1","","","","","","0.3","226.90000000000117"
"","localizer","","html-keyboard-response","406","176562","0.0-2.0-176.0-0.0","33","37760","male","NaN","","","","null","NaN","174","","Stimuli/Experimental_stims/localizer/outdoor_scenes/ryan-schroeder-Gg7uKdHFb_c-unsplash.jpg","1","outdoor_scenes","","0","1","0","0.4","227.20000000000118"
"","iti_localizer","","html-keyboard-response","407","176874","0.0-2.0-176.0-1.0","33","37760","male","null","","","","null","","174","","","1","","","","","","0.3","227.6000000000012"
"","localizer","","html-keyboard-response","408","177293","0.0-2.0-177.0-0.0","33","37760","male","NaN","","","","null","NaN","175","","Stimuli/Experimental_stims/localizer/outdoor_scenes/damian-patkowski-T-LfvX-7IVg-unsplash.jpg","1","outdoor_scenes","","0","1","0","0.4","227.9000000000012"
"","iti_localizer","","html-keyboard-response","409","177601","0.0-2.0-177.0-1.0","33","37760","male","null","","","","null","","175","","","1","","","","","","0.3","228.3000000000012"
"","localizer","","html-keyboard-response","410","178009","0.0-2.0-178.0-0.0","33","37760","male","NaN","","","","null","NaN","176","","Stimuli/Experimental_stims/localizer/outdoor_scenes/simon-berger-twukN12EN7c-unsplash.jpg","1","outdoor_scenes","","0","1","0","0.4","228.60000000000122"
"","iti_localizer","","html-keyboard-response","411","178321","0.0-2.0-178.0-1.0","33","37760","male","null","","","","null","","176","","","1","","","","","","0.3","229.00000000000122"
"","localizer","","html-keyboard-response","412","178729","0.0-2.0-179.0-0.0","33","37760","male","NaN","","","","null","NaN","177","","Stimuli/Experimental_stims/localizer/outdoor_scenes/jack-millard-zjyP-UYI-ko-unsplash.jpg","1","outdoor_scenes","","0","1","0","0.4","229.30000000000123"
"","iti_localizer","","html-keyboard-response","413","179045","0.0-2.0-179.0-1.0","33","37760","male","null","","","","null","","177","","","1","","","","","","0.3","229.70000000000124"
"","localizer","","html-keyboard-response","414","179458","0.0-2.0-180.0-0.0","33","37760","male","NaN","","","","null","NaN","178","","Stimuli/Experimental_stims/localizer/outdoor_scenes/julien-lavallee-X2DE1VmN7x4-unsplash.jpg","1","outdoor_scenes","","0","1","0","0.4","230.00000000000125"
"","iti_localizer","","html-keyboard-response","415","179774","0.0-2.0-180.0-1.0","33","37760","male","null","","","","null","","178","","","1","","","","","","0.3","230.40000000000126"
"","localizer","","html-keyboard-response","416","180190","0.0-2.0-181.0-0.0","33","37760","male","NaN","","","","null","NaN","179","","Stimuli/Experimental_stims/localizer/outdoor_scenes/sean-oulashin-KMn4VEeEPR8-unsplash.jpg","1","outdoor_scenes","","1","1","0","0.4","230.70000000000127"
"","iti_localizer","","html-keyboard-response","417","180498","0.0-2.0-181.0-1.0","33","37760","male","null","","","","null","","179","","","1","","","","","","0.3","231.10000000000127"
"","localizer","","html-keyboard-response","418","180918","0.0-2.0-182.0-0.0","33","37760","male","NaN","","","","null","NaN","180","","Stimuli/Experimental_stims/localizer/outdoor_scenes/keith-hardy-PP8Escz15d8-unsplash.jpg","1","outdoor_scenes","","0","1","0","0.4","231.40000000000128"
"","iti_localizer","","html-keyboard-response","419","181230","0.0-2.0-182.0-1.0","33","37760","male","null","","","","null","","180","","","1","","","","","","0.3","231.8000000000013"
"","localizer","","html-keyboard-response","420","181644","0.0-2.0-183.0-0.0","33","37760","male","NaN","","","","null","NaN","181","","Stimuli/Experimental_stims/localizer/outdoor_scenes/john-mark-arnold-XNIjmb6Ax04-unsplash.jpg","1","outdoor_scenes","","0","1","0","0.4","232.1000000000013"
"","iti_localizer","","html-keyboard-response","421","181955","0.0-2.0-183.0-1.0","33","37760","male","null","","","","null","","181","","","1","","","","","","0.3","232.5000000000013"
"","localizer","","html-keyboard-response","422","182373","0.0-2.0-184.0-0.0","33","37760","male","NaN","","","","null","NaN","182","","Stimuli/Experimental_stims/localizer/outdoor_scenes/kalen-emsley-_LuLiJc1cdo-unsplash.jpg","1","outdoor_scenes","","0","1","0","0.4","232.80000000000132"
"","iti_localizer","","html-keyboard-response","423","182684","0.0-2.0-184.0-1.0","33","37760","male","null","","","","null","","182","","","1","","","","","","0.3","233.20000000000132"
"","localizer","","html-keyboard-response","424","183102","0.0-2.0-185.0-0.0","33","37760","male","NaN","","","","null","NaN","183","","Stimuli/Experimental_stims/localizer/outdoor_scenes/quentin-zwzeorQPepo-unsplash.jpg","1","outdoor_scenes","","0","1","0","0.4","233.50000000000134"
"","iti_localizer","","html-keyboard-response","425","183421","0.0-2.0-185.0-1.0","33","37760","male","null","","","","null","","183","","","1","","","","","","0.3","233.90000000000134"
"","localizer","","html-keyboard-response","426","183837","0.0-2.0-186.0-0.0","33","37760","male","NaN","","","","null","NaN","184","","Stimuli/Experimental_stims/localizer/outdoor_scenes/alessio-furlan-Vw3a0HgE7AM-unsplash.jpg","1","outdoor_scenes","","0","1","0","0.4","234.20000000000135"
"","iti_localizer","","html-keyboard-response","427","184147","0.0-2.0-186.0-1.0","33","37760","male","null","","","","null","","184","","","1","","","","","","0.3","234.60000000000136"
"","localizer","","html-keyboard-response","428","184561","0.0-2.0-187.0-0.0","33","37760","male","NaN","","","","null","NaN","185","","Stimuli/Experimental_stims/localizer/outdoor_scenes/samsommer-vddccTqwal8-unsplash.jpg","1","outdoor_scenes","","0","1","0","0.4","234.90000000000137"
"","iti_localizer","","html-keyboard-response","429","184873","0.0-2.0-187.0-1.0","33","37760","male","null","","","","null","","185","","","1","","","","","","14","235.30000000000138"
"","localizer","","html-keyboard-response","430","185280","0.0-2.0-188.0-0.0","33","37760","male","NaN","","","","null","NaN","186","","Stimuli/Experimental_stims/localizer/objects/yoann-siloine-_T4w3JDm6ug-unsplash.jpg","1","objects","","0","1","0","0.4","249.30000000000138"
"","iti_localizer","","html-keyboard-response","431","185593","0.0-2.0-188.0-1.0","33","37760","male","null","","","","null","","186","","","1","","","","","","0.3","249.70000000000138"
"","localizer","","html-keyboard-response","432","186005","0.0-2.0-189.0-0.0","33","37760","male","NaN","","","","null","NaN","187","","Stimuli/Experimental_stims/localizer/objects/petr-sidorov-3jm5TGqtULU-unsplash.jpg","1","objects","","0","1","0","0.4","250.0000000000014"
"","iti_localizer","","html-keyboard-response","433","186318","0.0-2.0-189.0-1.0","33","37760","male","null","","","","null","","187","","","1","","","","","","0.3","250.4000000000014"
"","localizer","","html-keyboard-response","434","186734","0.0-2.0-190.0-0.0","33","37760","male","NaN","","","","null","NaN","188","","Stimuli/Experimental_stims/localizer/objects/girl-with-red-hat-Xxg-r574pLE-unsplash.jpg","1","objects","","0","1","0","0.4","250.7000000000014"
"","iti_localizer","","html-keyboard-response","435","187044","0.0-2.0-190.0-1.0","33","37760","male","null","","","","null","","188","","","1","","","","","","0.3","251.10000000000142"
