"success","ttype","start_time","trial_type","trial_index","time_elapsed","internal_node_id","age","PID","gender","rt","responses","view_history","repeat_instructions","key_press","response","index","stimulus_index","path","run","task","isi","is_odd_ball","no_response","acc","duration","onset"
"true","full_screen","d06282023hr1905","fullscreen","0","2677","0.0-0.0-0.0","22","49294","","","","","","","","","","","","","","","","","",""
"","get_id","","survey-text","1","5997","0.0-0.0-1.0","22","49294","","3314","{""Q0"":""22"",""Q1"":""22""}","","","","","","","","","","","","","","",""
"","ratings_instructions","","instructions","2","8322","0.0-1.0-0.0-0.0","22","49294","","1916","","[{""page_index"":0,""viewing_time"":1723},{""page_index"":1,""viewing_time"":192}]","","","","","","","","","","","","","",""
"","rating_comprehension_check","","survey-multi-choice","3","10978","0.0-1.0-0.0-1.0","22","49294","","2650","{""Q0"":""True"",""Q1"":""Mouse""}","","0","","","","","","","","","","","","",""
"","","","html-keyboard-response","4","12381","0.0-1.0-1.0","22","49294","","1399","","","","68","","","","","","","","","","","",""
"","rating","","html-slider-response","5","13445","0.0-1.0-2.0","22","49294","","1059","","","","","50","0","11","Stimuli/Experimental_stims/outdoor_scenes/stephen-leonardi-gyIRjKPXupE-unsplash.jpg","","","","","","","",""
"","rating","","html-slider-response","6","13714","0.0-1.0-3.0","22","49294","","262","","","","","50","1","37","Stimuli/Experimental_stims/objects/alexander-andrews-VLGWE_SumrA-unsplash.jpg","","","","","","","",""
"","rating","","html-slider-response","7","13881","0.0-1.0-4.0","22","49294","","162","","","","","50","2","43","Stimuli/Experimental_stims/objects/jonathan-greenaway-Y4hGgeiFn3s-unsplash.jpg","","","","","","","",""
"","rating","","html-slider-response","8","14036","0.0-1.0-5.0","22","49294","","148","","","","","50","3","45","Stimuli/Experimental_stims/objects/leohoho-rngTKHXumy0-unsplash.jpg","","","","","","","",""
"","rating","","html-slider-response","9","14194","0.0-1.0-6.0","22","49294","","152","","","","","50","4","1","Stimuli/Experimental_stims/outdoor_scenes/ashim-d-silva-S2Q5mdOrrVc-unsplash.jpg","","","","","","","",""
"","rating","","html-slider-response","10","14349","0.0-1.0-7.0","22","49294","","150","","","","","50","5","4","Stimuli/Experimental_stims/outdoor_scenes/jarrett-kow-1ZOyYPOBn7I-unsplash.jpg","","","","","","","",""
"","rating","","html-slider-response","11","14516","0.0-1.0-8.0","22","49294","","161","","","","","50","6","35","Stimuli/Experimental_stims/body_parts/wc-so-KH4AAPjb-tI-unsplash.jpg","","","","","","","",""
"","rating","","html-slider-response","12","14674","0.0-1.0-9.0","22","49294","","152","","","","","50","7","24","Stimuli/Experimental_stims/body_parts/clay-banks-LjqARJaJotc-unsplash.jpg","","","","","","","",""
"","rating","","html-slider-response","13","14852","0.0-1.0-10.0","22","49294","","172","","","","","50","8","6","Stimuli/Experimental_stims/outdoor_scenes/meng-ji-8BH_M-53CyA-unsplash.jpg","","","","","","","",""
"","rating","","html-slider-response","14","15020","0.0-1.0-11.0","22","49294","","162","","","","","50","9","3","Stimuli/Experimental_stims/outdoor_scenes/henry-be-NLF6hTe4PAg-unsplash.jpg","","","","","","","",""
"","rating","","html-slider-response","15","15197","0.0-1.0-12.0","22","49294","","172","","","","","50","10","5","Stimuli/Experimental_stims/outdoor_scenes/jeff-king-bJHWJeiHfHc-unsplash.jpg","","","","","","","",""
"","rating","","html-slider-response","16","15364","0.0-1.0-13.0","22","49294","","162","","","","","50","11","25","Stimuli/Experimental_stims/body_parts/engin-akyurt-Q2rfH3GW39c-unsplash.jpg","","","","","","","",""
"","rating","","html-slider-response","17","15546","0.0-1.0-14.0","22","49294","","176","","","","","50","12","21","Stimuli/Experimental_stims/faces/leilani-angel-K84vnnzxmTQ-unsplash.jpg","","","","","","","",""
"","rating","","html-slider-response","18","15791","0.0-1.0-15.0","22","49294","","240","","","","","50","13","40","Stimuli/Experimental_stims/objects/fabian-blank-pElSkGRA2NU-unsplash.jpg","","","","","","","",""
"","rating","","html-slider-response","19","15957","0.0-1.0-16.0","22","49294","","161","","","","","50","14","46","Stimuli/Experimental_stims/objects/mockup-graphics-PNsj6RiHAF4-unsplash.jpg","","","","","","","",""
"","rating","","html-slider-response","20","16126","0.0-1.0-17.0","22","49294","","163","","","","","50","15","34","Stimuli/Experimental_stims/body_parts/wagner-santos-mBWMvIuVnso-unsplash.jpg","","","","","","","",""
"","rating","","html-slider-response","21","16649","0.0-1.0-18.0","22","49294","","518","","","","","50","16","32","Stimuli/Experimental_stims/body_parts/towfiqu-barbhuiya-3AsiVDsZnHg-unsplash.jpg","","","","","","","",""
"","rating","","html-slider-response","22","16840","0.0-1.0-19.0","22","49294","","184","","","","","50","17","18","Stimuli/Experimental_stims/faces/jessica-radanavong-mrYkTuAesKE-unsplash.jpg","","","","","","","",""
"","rating","","html-slider-response","23","16994","0.0-1.0-20.0","22","49294","","149","","","","","50","18","22","Stimuli/Experimental_stims/faces/ravi-patel-VMGAbeeJTKo-unsplash.jpg","","","","","","","",""
"","rating","","html-slider-response","24","17397","0.0-1.0-21.0","22","49294","","398","","","","","50","19","33","Stimuli/Experimental_stims/body_parts/tucker-good-36skLT5jZcc-unsplash.jpg","","","","","","","",""
"","rating","","html-slider-response","25","17565","0.0-1.0-22.0","22","49294","","163","","","","","50","20","47","Stimuli/Experimental_stims/objects/ronaldo-arthur-vidal-Cdz_lvnl37k-unsplash.jpg","","","","","","","",""
"","rating","","html-slider-response","26","17734","0.0-1.0-23.0","22","49294","","162","","","","","50","21","20","Stimuli/Experimental_stims/faces/justin-chen-J7Cf1Gch49E-unsplash.jpg","","","","","","","",""
"","rating","","html-slider-response","27","17901","0.0-1.0-24.0","22","49294","","162","","","","","50","22","19","Stimuli/Experimental_stims/faces/joel-mott-LaK153ghdig-unsplash.jpg","","","","","","","",""
"","rating","","html-slider-response","28","18077","0.0-1.0-25.0","22","49294","","171","","","","","50","23","42","Stimuli/Experimental_stims/objects/jess-bailey-nOeVi8DsN8U-unsplash.jpg","","","","","","","",""
"","rating","","html-slider-response","29","18259","0.0-1.0-26.0","22","49294","","175","","","","","50","24","26","Stimuli/Experimental_stims/body_parts/engin-akyurt-x_3gyC42btc-unsplash.jpg","","","","","","","",""
"","rating","","html-slider-response","30","18438","0.0-1.0-27.0","22","49294","","173","","","","","50","25","36","Stimuli/Experimental_stims/objects/alexander-andrews-JYGnB9gTCls-unsplash.jpg","","","","","","","",""
"","rating","","html-slider-response","31","18612","0.0-1.0-28.0","22","49294","","170","","","","","50","26","41","Stimuli/Experimental_stims/objects/insung-yoon-w2JtIQQXoRU-unsplash.jpg","","","","","","","",""
"","rating","","html-slider-response","32","18793","0.0-1.0-29.0","22","49294","","176","","","","","50","27","0","Stimuli/Experimental_stims/outdoor_scenes/aleksandra-boguslawska-MS7KD9Ti7FQ-unsplash.jpg","","","","","","","",""
"","rating","","html-slider-response","33","18962","0.0-1.0-30.0","22","49294","","163","","","","","50","28","29","Stimuli/Experimental_stims/body_parts/manuel-schinner-ZwjFuJ7ebpk-unsplash.jpg","","","","","","","",""
"","rating","","html-slider-response","34","19140","0.0-1.0-31.0","22","49294","","172","","","","","50","29","39","Stimuli/Experimental_stims/objects/charlesdeluvio-1-nx1QR5dTE-unsplash.jpg","","","","","","","",""
"","rating","","html-slider-response","35","19329","0.0-1.0-32.0","22","49294","","184","","","","","50","30","27","Stimuli/Experimental_stims/body_parts/heike-mintel-i_Gns0ELnLw-unsplash.jpg","","","","","","","",""
"","rating","","html-slider-response","36","19509","0.0-1.0-33.0","22","49294","","175","","","","","50","31","16","Stimuli/Experimental_stims/faces/freddy-kearney-o-ioeoATbIM-unsplash.jpg","","","","","","","",""
"","rating","","html-slider-response","37","19687","0.0-1.0-34.0","22","49294","","173","","","","","50","32","8","Stimuli/Experimental_stims/outdoor_scenes/samsommer-vddccTqwal8-unsplash.jpg","","","","","","","",""
"","rating","","html-slider-response","38","19865","0.0-1.0-35.0","22","49294","","173","","","","","50","33","38","Stimuli/Experimental_stims/objects/art-lasovsky-8XddFc6NkBY-unsplash.jpg","","","","","","","",""
"","rating","","html-slider-response","39","20044","0.0-1.0-36.0","22","49294","","173","","","","","50","34","30","Stimuli/Experimental_stims/body_parts/mika-korhonen-Xodzxosar18-unsplash.jpg","","","","","","","",""
"","rating","","html-slider-response","40","20224","0.0-1.0-37.0","22","49294","","174","","","","","50","35","23","Stimuli/Experimental_stims/faces/rikonavt-HQjfrvdTfak-unsplash.jpg","","","","","","","",""
"","rating","","html-slider-response","41","20402","0.0-1.0-38.0","22","49294","","172","","","","","50","36","10","Stimuli/Experimental_stims/outdoor_scenes/shannon-kunkle-dM8INmkyDas-unsplash.jpg","","","","","","","",""
"","rating","","html-slider-response","42","20588","0.0-1.0-39.0","22","49294","","182","","","","","50","37","12","Stimuli/Experimental_stims/faces/aiony-haust-jmATI5Q_YgY-unsplash.jpg","","","","","","","",""
"","rating","","html-slider-response","43","20777","0.0-1.0-40.0","22","49294","","184","","","","","50","38","31","Stimuli/Experimental_stims/body_parts/sincerely-media-VN6DbKajo5s-unsplash.jpg","","","","","","","",""
"","rating","","html-slider-response","44","20960","0.0-1.0-41.0","22","49294","","178","","","","","50","39","7","Stimuli/Experimental_stims/outdoor_scenes/petr-vysohlid-9fqwGqGLUxc-unsplash.jpg","","","","","","","",""
"","rating","","html-slider-response","45","21150","0.0-1.0-42.0","22","49294","","184","","","","","50","40","15","Stimuli/Experimental_stims/faces/erik-lucatero-d2MSDujJl2g-unsplash.jpg","","","","","","","",""
"","rating","","html-slider-response","46","21330","0.0-1.0-43.0","22","49294","","174","","","","","50","41","28","Stimuli/Experimental_stims/body_parts/ira-vishnevskaya-8DQAvdCby1I-unsplash.jpg","","","","","","","",""
"","rating","","html-slider-response","47","21508","0.0-1.0-44.0","22","49294","","172","","","","","50","42","9","Stimuli/Experimental_stims/outdoor_scenes/sergey-pesterev-y-b_FOmJXdg-unsplash.jpg","","","","","","","",""
"","rating","","html-slider-response","48","21685","0.0-1.0-45.0","22","49294","","172","","","","","50","43","2","Stimuli/Experimental_stims/outdoor_scenes/bruno-van-der-kraan-qez8mNJ3ilU-unsplash.jpg","","","","","","","",""
"","rating","","html-slider-response","49","21888","0.0-1.0-46.0","22","49294","","197","","","","","50","44","17","Stimuli/Experimental_stims/faces/good-faces-xmSWVeGEnJw-unsplash.jpg","","","","","","","",""
"","rating","","html-slider-response","50","22086","0.0-1.0-47.0","22","49294","","193","","","","","50","45","44","Stimuli/Experimental_stims/objects/kuiye-chen-NuOGFo4PudE-unsplash.jpg","","","","","","","",""
"","rating","","html-slider-response","51","22265","0.0-1.0-48.0","22","49294","","175","","","","","50","46","13","Stimuli/Experimental_stims/faces/daniel-rigdon-dXmXKPP2L4E-unsplash.jpg","","","","","","","",""
"","rating","","html-slider-response","52","22468","0.0-1.0-49.0","22","49294","","197","","","","","50","47","14","Stimuli/Experimental_stims/faces/david-siglin-UuW4psOb388-unsplash.jpg","","","","","","","",""
"","localizer_instructions","","instructions","53","24331","0.0-2.0-0.0-0.0","22","49294","","1830","","[{""page_index"":0,""viewing_time"":1474},{""page_index"":1,""viewing_time"":186},{""page_index"":2,""viewing_time"":170}]","","","","","","","","","","","","","",""
"","localizer_comprehension_check","","survey-multi-choice","54","29480","0.0-2.0-0.0-1.0","22","49294","","5143","{""Q0"":""True"",""Q1"":""K"",""Q2"":""D""}","","0","","","","","","","","","","","","",""
"","","","html-keyboard-response","55","30817","0.0-2.0-1.0","22","49294","","1331","","","","68","","","","","","","","","","","",""
"","localizer","","html-keyboard-response","56","31235","0.0-2.0-2.0-0.0","22","49294","","NaN","","","","null","NaN","0","","Stimuli/Practice_stims/Localizer/annie-spratt-g9KFpAfQ5bc-unsplash.jpg","0","NaN","","0","1","0","0.4","0"
"","iti_localizer","","html-keyboard-response","57","31543","0.0-2.0-2.0-1.0","22","49294","","null","","","","null","","0","","","0","","","","","","0.3","0.4"
"","localizer","","html-keyboard-response","58","31955","0.0-2.0-3.0-0.0","22","49294","","NaN","","","","null","NaN","1","","Stimuli/Practice_stims/Localizer/becca-tapert-sY5RjMB1KkE-unsplash.jpg","0","NaN","","0","1","0","0.4","0.7"
"","iti_localizer","","html-keyboard-response","59","32268","0.0-2.0-3.0-1.0","22","49294","","null","","","","null","","1","","","0","","","","","","0.3","1.1"
"","localizer","","html-keyboard-response","60","32678","0.0-2.0-4.0-0.0","22","49294","","NaN","","","","null","NaN","2","","Stimuli/Practice_stims/Localizer/charl-durand-bsfXvI25iNg-unsplash.jpg","0","NaN","","1","1","0","0.4","1.4000000000000001"
"","iti_localizer","","html-keyboard-response","61","32994","0.0-2.0-4.0-1.0","22","49294","","null","","","","null","","2","","","0","","","","","","0.3","1.8000000000000003"
"","localizer","","html-keyboard-response","62","33409","0.0-2.0-5.0-0.0","22","49294","","NaN","","","","null","NaN","3","","Stimuli/Practice_stims/Localizer/nizar-albusaidy-B2r2SWAf5CE-unsplash.jpg","0","NaN","","0","1","0","0.4","2.1"
"","iti_localizer","","html-keyboard-response","63","33986","0.0-2.0-5.0-1.0","22","49294","","null","","","","null","","3","","","0","","","","","","0.3","2.5"
"","localizer","","html-keyboard-response","64","34402","0.0-2.0-6.0-0.0","22","49294","","NaN","","","","null","NaN","4","","Stimuli/Practice_stims/Localizer/randy-fath-epf1tdtIIkM-unsplash.jpg","0","NaN","","1","1","0","0.4","2.8"
"","iti_localizer","","html-keyboard-response","65","34711","0.0-2.0-6.0-1.0","22","49294","","null","","","","null","","4","","","0","","","","","","0.3","3.1999999999999997"
"","localizer","","html-keyboard-response","66","35119","0.0-2.0-7.0-0.0","22","49294","","NaN","","","","null","NaN","5","","Stimuli/Practice_stims/Localizer/yassine-khalfalli-adsQ9d_Cx0c-unsplash.jpg","0","NaN","","0","1","0","0.4","3.4999999999999996"
"","iti_localizer","","html-keyboard-response","67","35435","0.0-2.0-7.0-1.0","22","49294","","null","","","","null","","5","","","0","","","","","","0.3","3.8999999999999995"
"","practice_over","","html-keyboard-response","68","37955","0.0-2.0-7.0-2.0-0.0","22","49294","","2516","","","","68","","","","","","","","","","","",""
"","start_run","","html-keyboard-response","69","39341","0.0-2.0-7.0-2.0-1.0","22","49294","","1381","","","","84","","","","","","","","","","","",""
"","localizer","","html-keyboard-response","70","39753","0.0-2.0-8.0-0.0","22","49294","","NaN","","","","null","NaN","6","","Stimuli/Experimental_stims/localizer/outdoor_scenes/pascal-debrunner-1WQ5RZuH9xo-unsplash.jpg","1","outdoor_scenes","","0","1","0","0.4","0"
"","iti_localizer","","html-keyboard-response","71","40062","0.0-2.0-8.0-1.0","22","49294","","null","","","","null","","6","","","1","","","","","","0.3","0.4"
"","localizer","","html-keyboard-response","72","40473","0.0-2.0-9.0-0.0","22","49294","","NaN","","","","null","NaN","7","","Stimuli/Experimental_stims/localizer/outdoor_scenes/andres-sanz-uILhNE1VcwA-unsplash.jpg","1","outdoor_scenes","","0","1","0","0.4","0.7"
"","iti_localizer","","html-keyboard-response","73","40785","0.0-2.0-9.0-1.0","22","49294","","null","","","","null","","7","","","1","","","","","","0.3","1.1"
"","localizer","","html-keyboard-response","74","41200","0.0-2.0-10.0-0.0","22","49294","","NaN","","","","null","NaN","8","","Stimuli/Experimental_stims/localizer/outdoor_scenes/ales-krivec-hsX9KpLLsIE-unsplash.jpg","1","outdoor_scenes","","0","1","0","0.4","1.4000000000000001"
"","iti_localizer","","html-keyboard-response","75","41513","0.0-2.0-10.0-1.0","22","49294","","null","","","","null","","8","","","1","","","","","","0.3","1.8000000000000003"
"","localizer","","html-keyboard-response","76","41931","0.0-2.0-11.0-0.0","22","49294","","NaN","","","","null","NaN","9","","Stimuli/Experimental_stims/localizer/outdoor_scenes/alice-donovan-rouse-pZ61ZA8QgcY-unsplash.jpg","1","outdoor_scenes","","0","1","0","0.4","2.1"
"","iti_localizer","","html-keyboard-response","77","42243","0.0-2.0-11.0-1.0","22","49294","","null","","","","null","","9","","","1","","","","","","0.3","2.5"
"","localizer","","html-keyboard-response","78","42657","0.0-2.0-12.0-0.0","22","49294","","NaN","","","","null","NaN","10","","Stimuli/Experimental_stims/localizer/outdoor_scenes/john-fowler-aaIN3y2zcMQ-unsplash.jpg","1","outdoor_scenes","","0","1","0","0.4","2.8"
"","iti_localizer","","html-keyboard-response","79","42970","0.0-2.0-12.0-1.0","22","49294","","null","","","","null","","10","","","1","","","","","","0.3","3.1999999999999997"
"","localizer","","html-keyboard-response","80","43385","0.0-2.0-13.0-0.0","22","49294","","NaN","","","","null","NaN","11","","Stimuli/Experimental_stims/localizer/outdoor_scenes/pietro-de-grandi-T7K4aEPoGGk-unsplash.jpg","1","outdoor_scenes","","0","1","0","0.4","3.4999999999999996"
"","iti_localizer","","html-keyboard-response","81","43699","0.0-2.0-13.0-1.0","22","49294","","null","","","","null","","11","","","1","","","","","","0.3","3.8999999999999995"
"","localizer","","html-keyboard-response","82","44115","0.0-2.0-14.0-0.0","22","49294","","NaN","","","","null","NaN","12","","Stimuli/Experimental_stims/localizer/outdoor_scenes/simon-berger-UqCnDyc_3vA-unsplash.jpg","1","outdoor_scenes","","0","1","0","0.4","4.199999999999999"
"","iti_localizer","","html-keyboard-response","83","44422","0.0-2.0-14.0-1.0","22","49294","","null","","","","null","","12","","","1","","","","","","0.3","4.6"
"","localizer","","html-keyboard-response","84","44834","0.0-2.0-15.0-0.0","22","49294","","NaN","","","","null","NaN","13","","Stimuli/Experimental_stims/localizer/outdoor_scenes/quentin-zwzeorQPepo-unsplash.jpg","1","outdoor_scenes","","0","1","0","0.4","4.8999999999999995"
"","iti_localizer","","html-keyboard-response","85","45146","0.0-2.0-15.0-1.0","22","49294","","null","","","","null","","13","","","1","","","","","","0.3","5.3"
"","localizer","","html-keyboard-response","86","45563","0.0-2.0-16.0-0.0","22","49294","","NaN","","","","null","NaN","14","","Stimuli/Experimental_stims/localizer/outdoor_scenes/sean-oulashin-KMn4VEeEPR8-unsplash.jpg","1","outdoor_scenes","","0","1","0","0.4","5.6"
"","iti_localizer","","html-keyboard-response","87","45870","0.0-2.0-16.0-1.0","22","49294","","null","","","","null","","14","","","1","","","","","","0.3","6"
"","localizer","","html-keyboard-response","88","46281","0.0-2.0-17.0-0.0","22","49294","","NaN","","","","null","NaN","15","","Stimuli/Experimental_stims/localizer/outdoor_scenes/gabriel-garcia-marengo-ht9aLtovtSo-unsplash.jpg","1","outdoor_scenes","","0","1","0","0.4","6.3"
"","iti_localizer","","html-keyboard-response","89","46592","0.0-2.0-17.0-1.0","22","49294","","null","","","","null","","15","","","1","","","","","","0.3","6.7"
"","localizer","","html-keyboard-response","90","47010","0.0-2.0-18.0-0.0","22","49294","","NaN","","","","null","NaN","16","","Stimuli/Experimental_stims/localizer/outdoor_scenes/daniel-roe-lpjb_UMOyx8-unsplash.jpg","1","outdoor_scenes","","1","1","0","0.4","7"
"","iti_localizer","","html-keyboard-response","91","47321","0.0-2.0-18.0-1.0","22","49294","","null","","","","null","","16","","","1","","","","","","0.3","7.4"
"","localizer","","html-keyboard-response","92","47737","0.0-2.0-19.0-0.0","22","49294","","NaN","","","","null","NaN","17","","Stimuli/Experimental_stims/localizer/outdoor_scenes/willian-justen-de-vasconcellos-T_Qe4QlMIvQ-unsplash.jpg","1","outdoor_scenes","","0","1","0","0.4","7.7"
"","iti_localizer","","html-keyboard-response","93","48047","0.0-2.0-19.0-1.0","22","49294","","null","","","","null","","17","","","1","","","","","","0.3","8.1"
"","localizer","","html-keyboard-response","94","48454","0.0-2.0-20.0-0.0","22","49294","","NaN","","","","null","NaN","18","","Stimuli/Experimental_stims/localizer/outdoor_scenes/samsommer-vddccTqwal8-unsplash.jpg","1","outdoor_scenes","","0","1","0","0.4","8.4"
"","iti_localizer","","html-keyboard-response","95","48767","0.0-2.0-20.0-1.0","22","49294","","null","","","","null","","18","","","1","","","","","","0.3","8.8"
"","localizer","","html-keyboard-response","96","49179","0.0-2.0-21.0-0.0","22","49294","","NaN","","","","null","NaN","19","","Stimuli/Experimental_stims/localizer/outdoor_scenes/v2osk-1Z2niiBPg5A-unsplash.jpg","1","outdoor_scenes","","0","1","0","0.4","9.100000000000001"
"","iti_localizer","","html-keyboard-response","97","49488","0.0-2.0-21.0-1.0","22","49294","","null","","","","null","","19","","","1","","","","","","0.3","9.500000000000002"
"","localizer","","html-keyboard-response","98","49906","0.0-2.0-22.0-0.0","22","49294","","NaN","","","","null","NaN","20","","Stimuli/Experimental_stims/localizer/outdoor_scenes/sebastian-unrau-v4e3JI7DDHI-unsplash.jpg","1","outdoor_scenes","","1","1","0","0.4","9.800000000000002"
"","iti_localizer","","html-keyboard-response","99","50215","0.0-2.0-22.0-1.0","22","49294","","null","","","","null","","20","","","1","","","","","","0.3","10.200000000000003"
"","localizer","","html-keyboard-response","100","50622","0.0-2.0-23.0-0.0","22","49294","","NaN","","","","null","NaN","21","","Stimuli/Experimental_stims/localizer/outdoor_scenes/bruno-van-der-kraan-qez8mNJ3ilU-unsplash.jpg","1","outdoor_scenes","","0","1","0","0.4","10.500000000000004"
"","iti_localizer","","html-keyboard-response","101","50936","0.0-2.0-23.0-1.0","22","49294","","null","","","","null","","21","","","1","","","","","","0.3","10.900000000000004"
"","localizer","","html-keyboard-response","102","51355","0.0-2.0-24.0-0.0","22","49294","","NaN","","","","null","NaN","22","","Stimuli/Experimental_stims/localizer/outdoor_scenes/julien-lavallee-X2DE1VmN7x4-unsplash.jpg","1","outdoor_scenes","","0","1","0","0.4","11.200000000000005"
"","iti_localizer","","html-keyboard-response","103","51663","0.0-2.0-24.0-1.0","22","49294","","null","","","","null","","22","","","1","","","","","","0.3","11.600000000000005"
"","localizer","","html-keyboard-response","104","52070","0.0-2.0-25.0-0.0","22","49294","","NaN","","","","null","NaN","23","","Stimuli/Experimental_stims/localizer/outdoor_scenes/jaanus-jagomagi-FddgewYQF2M-unsplash.jpg","1","outdoor_scenes","","0","1","0","0.4","11.900000000000006"
"","iti_localizer","","html-keyboard-response","105","52385","0.0-2.0-25.0-1.0","22","49294","","null","","","","null","","23","","","1","","","","","","0.3","12.300000000000006"
"","localizer","","html-keyboard-response","106","52800","0.0-2.0-26.0-0.0","22","49294","","NaN","","","","null","NaN","24","","Stimuli/Experimental_stims/localizer/outdoor_scenes/ricardo-gomez-angel-dTSaC-S-7fs-unsplash.jpg","1","outdoor_scenes","","0","1","0","0.4","12.600000000000007"
"","iti_localizer","","html-keyboard-response","107","53111","0.0-2.0-26.0-1.0","22","49294","","null","","","","null","","24","","","1","","","","","","0.3","13.000000000000007"
"","localizer","","html-keyboard-response","108","53521","0.0-2.0-27.0-0.0","22","49294","","NaN","","","","null","NaN","25","","Stimuli/Experimental_stims/localizer/outdoor_scenes/chris-holgersson-zshyCr6HGw0-unsplash.jpg","1","outdoor_scenes","","0","1","0","0.4","13.300000000000008"
"","iti_localizer","","html-keyboard-response","109","53837","0.0-2.0-27.0-1.0","22","49294","","null","","","","null","","25","","","1","","","","","","14","13.700000000000008"
"","localizer","","html-keyboard-response","110","54247","0.0-2.0-28.0-0.0","22","49294","","NaN","","","","null","NaN","26","","Stimuli/Experimental_stims/localizer/faces/pavel-anoshin-d0peGya6R5Y-unsplash.jpg","1","faces","","1","1","0","0.4","27.70000000000001"
"","iti_localizer","","html-keyboard-response","111","54562","0.0-2.0-28.0-1.0","22","49294","","null","","","","null","","26","","","1","","","","","","0.3","28.10000000000001"
"","localizer","","html-keyboard-response","112","54974","0.0-2.0-29.0-0.0","22","49294","","NaN","","","","null","NaN","27","","Stimuli/Experimental_stims/localizer/faces/toa-heftiba-O3ymvT7Wf9U-unsplash.jpg","1","faces","","0","1","0","0.4","28.40000000000001"
"","iti_localizer","","html-keyboard-response","113","55288","0.0-2.0-29.0-1.0","22","49294","","null","","","","null","","27","","","1","","","","","","0.3","28.800000000000008"
"","localizer","","html-keyboard-response","114","55704","0.0-2.0-30.0-0.0","22","49294","","NaN","","","","null","NaN","28","","Stimuli/Experimental_stims/localizer/faces/icons8-team-6LZuSzSwso0-unsplash.jpg","1","faces","","0","1","0","0.4","29.10000000000001"
"","iti_localizer","","html-keyboard-response","115","56015","0.0-2.0-30.0-1.0","22","49294","","null","","","","null","","28","","","1","","","","","","0.3","29.500000000000007"
"","localizer","","html-keyboard-response","116","56426","0.0-2.0-31.0-0.0","22","49294","","NaN","","","","null","NaN","29","","Stimuli/Experimental_stims/localizer/faces/ayo-ogunseinde-6W4F62sN_yI-unsplash.jpg","1","faces","","0","1","0","0.4","29.800000000000008"
"","iti_localizer","","html-keyboard-response","117","56739","0.0-2.0-31.0-1.0","22","49294","","null","","","","null","","29","","","1","","","","","","0.3","30.200000000000006"
"","localizer","","html-keyboard-response","118","57151","0.0-2.0-32.0-0.0","22","49294","","NaN","","","","null","NaN","30","","Stimuli/Experimental_stims/localizer/faces/jeffery-erhunse-BQMZ5ligqps-unsplash.jpg","1","faces","","0","1","0","0.4","30.500000000000007"
"","iti_localizer","","html-keyboard-response","119","57465","0.0-2.0-32.0-1.0","22","49294","","null","","","","null","","30","","","1","","","","","","0.3","30.900000000000006"
"","localizer","","html-keyboard-response","120","57882","0.0-2.0-33.0-0.0","22","49294","","NaN","","","","null","NaN","31","","Stimuli/Experimental_stims/localizer/faces/mubariz-mehdizadeh-Py8F6-hRn5o-unsplash.jpg","1","faces","","0","1","0","0.4","31.200000000000006"
"","iti_localizer","","html-keyboard-response","121","58193","0.0-2.0-33.0-1.0","22","49294","","null","","","","null","","31","","","1","","","","","","0.3","31.600000000000005"
"","localizer","","html-keyboard-response","122","58610","0.0-2.0-34.0-0.0","22","49294","","NaN","","","","null","NaN","32","","Stimuli/Experimental_stims/localizer/faces/stephanie-nakagawa-ADSKIn0ScDg-unsplash.jpg","1","faces","","0","1","0","0.4","31.900000000000006"
"","iti_localizer","","html-keyboard-response","123","58921","0.0-2.0-34.0-1.0","22","49294","","null","","","","null","","32","","","1","","","","","","0.3","32.300000000000004"
"","localizer","","html-keyboard-response","124","59338","0.0-2.0-35.0-0.0","22","49294","","NaN","","","","null","NaN","33","","Stimuli/Experimental_stims/localizer/faces/samuel-dixon--fQ5XNOcqFQ-unsplash.jpg","1","faces","","0","1","0","0.4","32.6"
"","iti_localizer","","html-keyboard-response","125","59648","0.0-2.0-35.0-1.0","22","49294","","null","","","","null","","33","","","1","","","","","","0.3","33"
"","localizer","","html-keyboard-response","126","60060","0.0-2.0-36.0-0.0","22","49294","","NaN","","","","null","NaN","34","","Stimuli/Experimental_stims/localizer/faces/midas-hofstra-tidSLv-UaNs-unsplash.jpg","1","faces","","0","1","0","0.4","33.3"
"","iti_localizer","","html-keyboard-response","127","60373","0.0-2.0-36.0-1.0","22","49294","","null","","","","null","","34","","","1","","","","","","0.3","33.699999999999996"
"","localizer","","html-keyboard-response","128","60784","0.0-2.0-37.0-0.0","22","49294","","NaN","","","","null","NaN","35","","Stimuli/Experimental_stims/localizer/faces/etty-fidele-nF8eo2nX374-unsplash.jpg","1","faces","","0","1","0","0.4","33.99999999999999"
"","iti_localizer","","html-keyboard-response","129","61098","0.0-2.0-37.0-1.0","22","49294","","null","","","","null","","35","","","1","","","","","","0.3","34.39999999999999"
"","localizer","","html-keyboard-response","130","61513","0.0-2.0-38.0-0.0","22","49294","","NaN","","","","null","NaN","36","","Stimuli/Experimental_stims/localizer/faces/james-marty-h1BuNJZzpC8-unsplash.jpg","1","faces","","0","1","0","0.4","34.69999999999999"
"","iti_localizer","","html-keyboard-response","131","61822","0.0-2.0-38.0-1.0","22","49294","","null","","","","null","","36","","","1","","","","","","0.3","35.09999999999999"
"","localizer","","html-keyboard-response","132","62232","0.0-2.0-39.0-0.0","22","49294","","NaN","","","","null","NaN","37","","Stimuli/Experimental_stims/localizer/faces/ben-scott-tWb7IsL9CnY-unsplash.jpg","1","faces","","0","1","0","0.4","35.399999999999984"
"","iti_localizer","","html-keyboard-response","133","62545","0.0-2.0-39.0-1.0","22","49294","","null","","","","null","","37","","","1","","","","","","0.3","35.79999999999998"
"","localizer","","html-keyboard-response","134","62962","0.0-2.0-40.0-0.0","22","49294","","NaN","","","","null","NaN","38","","Stimuli/Experimental_stims/localizer/faces/janaya-dasiuk-_A2LZdUqHgA-unsplash.jpg","1","faces","","1","1","0","0.4","36.09999999999998"
"","iti_localizer","","html-keyboard-response","135","63274","0.0-2.0-40.0-1.0","22","49294","","null","","","","null","","38","","","1","","","","","","0.3","36.49999999999998"
"","localizer","","html-keyboard-response","136","63689","0.0-2.0-41.0-0.0","22","49294","","NaN","","","","null","NaN","39","","Stimuli/Experimental_stims/localizer/faces/jeffery-erhunse-vp9mRauo68c-unsplash.jpg","1","faces","","0","1","0","0.4","36.799999999999976"
"","iti_localizer","","html-keyboard-response","137","64001","0.0-2.0-41.0-1.0","22","49294","","null","","","","null","","39","","","1","","","","","","0.3","37.199999999999974"
"","localizer","","html-keyboard-response","138","64415","0.0-2.0-42.0-0.0","22","49294","","NaN","","","","null","NaN","40","","Stimuli/Experimental_stims/localizer/faces/cdc-ddKBuWekZr0-unsplash.jpg","1","faces","","0","1","0","0.4","37.49999999999997"
"","iti_localizer","","html-keyboard-response","139","64729","0.0-2.0-42.0-1.0","22","49294","","null","","","","null","","40","","","1","","","","","","0.3","37.89999999999997"
"","localizer","","html-keyboard-response","140","65145","0.0-2.0-43.0-0.0","22","49294","","NaN","","","","null","NaN","41","","Stimuli/Experimental_stims/localizer/faces/whereslugo-zl_fPgiwduo-unsplash.jpg","1","faces","","0","1","0","0.4","38.19999999999997"
"","iti_localizer","","html-keyboard-response","141","65455","0.0-2.0-43.0-1.0","22","49294","","null","","","","null","","41","","","1","","","","","","0.3","38.599999999999966"
"","localizer","","html-keyboard-response","142","65870","0.0-2.0-44.0-0.0","22","49294","","NaN","","","","null","NaN","42","","Stimuli/Experimental_stims/localizer/faces/matheus-ferrero-W7b3eDUb_2I-unsplash.jpg","1","faces","","0","1","0","0.4","38.89999999999996"
"","iti_localizer","","html-keyboard-response","143","66184","0.0-2.0-44.0-1.0","22","49294","","null","","","","null","","42","","","1","","","","","","0.3","39.29999999999996"
"","localizer","","html-keyboard-response","144","66602","0.0-2.0-45.0-0.0","22","49294","","NaN","","","","null","NaN","43","","Stimuli/Experimental_stims/localizer/faces/mathias-huysmans-U4JDjYmjn1g-unsplash.jpg","1","faces","","0","1","0","0.4","39.59999999999996"
"","iti_localizer","","html-keyboard-response","145","66912","0.0-2.0-45.0-1.0","22","49294","","null","","","","null","","43","","","1","","","","","","0.3","39.99999999999996"
"","localizer","","html-keyboard-response","146","67330","0.0-2.0-46.0-0.0","22","49294","","NaN","","","","null","NaN","44","","Stimuli/Experimental_stims/localizer/faces/filipe-almeida-mnEWC72eWDM-unsplash.jpg","1","faces","","0","1","0","0.4","40.299999999999955"
"","iti_localizer","","html-keyboard-response","147","67638","0.0-2.0-46.0-1.0","22","49294","","null","","","","null","","44","","","1","","","","","","0.3","40.69999999999995"
"","localizer","","html-keyboard-response","148","68048","0.0-2.0-47.0-0.0","22","49294","","NaN","","","","null","NaN","45","","Stimuli/Experimental_stims/localizer/faces/austin-wade-X6Uj51n5CE8-unsplash.jpg","1","faces","","0","1","0","0.4","40.99999999999995"
"","iti_localizer","","html-keyboard-response","149","68361","0.0-2.0-47.0-1.0","22","49294","","null","","","","null","","45","","","1","","","","","","14","41.39999999999995"
"","localizer","","html-keyboard-response","150","68777","0.0-2.0-48.0-0.0","22","49294","","NaN","","","","null","NaN","46","","Stimuli/Experimental_stims/localizer/body_parts/bady-abbas-pIySu25o0bM-unsplash.jpg","1","body_parts","","0","1","0","0.4","55.39999999999995"
"","iti_localizer","","html-keyboard-response","151","69086","0.0-2.0-48.0-1.0","22","49294","","null","","","","null","","46","","","1","","","","","","0.3","55.79999999999995"
"","localizer","","html-keyboard-response","152","69498","0.0-2.0-49.0-0.0","22","49294","","NaN","","","","null","NaN","47","","Stimuli/Experimental_stims/localizer/body_parts/sincerely-media-QyzlAZjm0r0-unsplash.jpg","1","body_parts","","0","1","0","0.4","56.099999999999945"
"","iti_localizer","","html-keyboard-response","153","69811","0.0-2.0-49.0-1.0","22","49294","","null","","","","null","","47","","","1","","","","","","0.3","56.49999999999994"
"","localizer","","html-keyboard-response","154","70225","0.0-2.0-50.0-0.0","22","49294","","NaN","","","","null","NaN","48","","Stimuli/Experimental_stims/localizer/body_parts/nick-page-WTNmgJtwzGI-unsplash.jpg","1","body_parts","","0","1","0","0.4","56.79999999999994"
"","iti_localizer","","html-keyboard-response","155","70539","0.0-2.0-50.0-1.0","22","49294","","null","","","","null","","48","","","1","","","","","","0.3","57.19999999999994"
"","localizer","","html-keyboard-response","156","70950","0.0-2.0-51.0-0.0","22","49294","","NaN","","","","null","NaN","49","","Stimuli/Experimental_stims/localizer/body_parts/sincerely-media-7TBFwUQA6Xk-unsplash.jpg","1","body_parts","","1","1","0","0.4","57.499999999999936"
"","iti_localizer","","html-keyboard-response","157","71267","0.0-2.0-51.0-1.0","22","49294","","null","","","","null","","49","","","1","","","","","","0.3","57.899999999999935"
"","localizer","","html-keyboard-response","158","71681","0.0-2.0-52.0-0.0","22","49294","","NaN","","","","null","NaN","50","","Stimuli/Experimental_stims/localizer/body_parts/callum-skelton-3KLMq7y46nA-unsplash.jpg","1","body_parts","","0","1","0","0.4","58.19999999999993"
"","iti_localizer","","html-keyboard-response","159","71993","0.0-2.0-52.0-1.0","22","49294","","null","","","","null","","50","","","1","","","","","","0.3","58.59999999999993"
"","localizer","","html-keyboard-response","160","72407","0.0-2.0-53.0-0.0","22","49294","","NaN","","","","null","NaN","51","","Stimuli/Experimental_stims/localizer/body_parts/luisa-denu-o5EU_lUB1rg-unsplash.jpg","1","body_parts","","0","1","0","0.4","58.89999999999993"
"","iti_localizer","","html-keyboard-response","161","72721","0.0-2.0-53.0-1.0","22","49294","","null","","","","null","","51","","","1","","","","","","0.3","59.299999999999926"
"","localizer","","html-keyboard-response","162","73135","0.0-2.0-54.0-0.0","22","49294","","NaN","","","","null","NaN","52","","Stimuli/Experimental_stims/localizer/body_parts/jeremy-yap-TfJEi17kA0w-unsplash.jpg","1","body_parts","","0","1","0","0.4","59.59999999999992"
"","iti_localizer","","html-keyboard-response","163","73449","0.0-2.0-54.0-1.0","22","49294","","null","","","","null","","52","","","1","","","","","","0.3","59.99999999999992"
"","localizer","","html-keyboard-response","164","73865","0.0-2.0-55.0-0.0","22","49294","","NaN","","","","null","NaN","53","","Stimuli/Experimental_stims/localizer/body_parts/helen-ast-l2iY5Sh0mTg-unsplash.jpg","1","body_parts","","0","1","0","0.4","60.29999999999992"
"","iti_localizer","","html-keyboard-response","165","74178","0.0-2.0-55.0-1.0","22","49294","","null","","","","null","","53","","","1","","","","","","0.3","60.69999999999992"
"","localizer","","html-keyboard-response","166","74595","0.0-2.0-56.0-0.0","22","49294","","NaN","","","","null","NaN","54","","Stimuli/Experimental_stims/localizer/body_parts/jonathan-borba-hTwH8QFkPMs-unsplash.jpg","1","body_parts","","0","1","0","0.4","60.999999999999915"
"","iti_localizer","","html-keyboard-response","167","74902","0.0-2.0-56.0-1.0","22","49294","","null","","","","null","","54","","","1","","","","","","0.3","61.39999999999991"
"","localizer","","html-keyboard-response","168","75315","0.0-2.0-57.0-0.0","22","49294","","NaN","","","","null","NaN","55","","Stimuli/Experimental_stims/localizer/body_parts/lilartsy-1KkhQ8uL28g-unsplash.jpg","1","body_parts","","0","1","0","0.4","61.69999999999991"
"","iti_localizer","","html-keyboard-response","169","75626","0.0-2.0-57.0-1.0","22","49294","","null","","","","null","","55","","","1","","","","","","0.3","62.09999999999991"
"","localizer","","html-keyboard-response","170","76037","0.0-2.0-58.0-0.0","22","49294","","NaN","","","","null","NaN","56","","Stimuli/Experimental_stims/localizer/body_parts/sandra-seitamaa-YCc_YAAhY3I-unsplash.jpg","1","body_parts","","0","1","0","0.4","62.399999999999906"
"","iti_localizer","","html-keyboard-response","171","76352","0.0-2.0-58.0-1.0","22","49294","","null","","","","null","","56","","","1","","","","","","0.3","62.799999999999905"
"","localizer","","html-keyboard-response","172","76769","0.0-2.0-59.0-0.0","22","49294","","NaN","","","","null","NaN","57","","Stimuli/Experimental_stims/localizer/body_parts/kai-wenzel-zYDJOxjaZrQ-unsplash.jpg","1","body_parts","","0","1","0","0.4","63.0999999999999"
"","iti_localizer","","html-keyboard-response","173","77079","0.0-2.0-59.0-1.0","22","49294","","null","","","","null","","57","","","1","","","","","","0.3","63.4999999999999"
"","localizer","","html-keyboard-response","174","77487","0.0-2.0-60.0-0.0","22","49294","","NaN","","","","null","NaN","58","","Stimuli/Experimental_stims/localizer/body_parts/ben-hartley-RbrsejLGVZ8-unsplash.jpg","1","body_parts","","1","1","0","0.4","63.7999999999999"
"","iti_localizer","","html-keyboard-response","175","77798","0.0-2.0-60.0-1.0","22","49294","","null","","","","null","","58","","","1","","","","","","0.3","64.1999999999999"
"","localizer","","html-keyboard-response","176","78208","0.0-2.0-61.0-0.0","22","49294","","NaN","","","","null","NaN","59","","Stimuli/Experimental_stims/localizer/body_parts/lucaxx-freire-CacZwMexYdk-unsplash.jpg","1","body_parts","","0","1","0","0.4","64.4999999999999"
"","iti_localizer","","html-keyboard-response","177","78522","0.0-2.0-61.0-1.0","22","49294","","null","","","","null","","59","","","1","","","","","","0.3","64.8999999999999"
"","localizer","","html-keyboard-response","178","78935","0.0-2.0-62.0-0.0","22","49294","","NaN","","","","null","NaN","60","","Stimuli/Experimental_stims/localizer/body_parts/juja-han-Z8-6EI2tYtw-unsplash.jpg","1","body_parts","","0","1","0","0.4","65.1999999999999"
"","iti_localizer","","html-keyboard-response","179","79247","0.0-2.0-62.0-1.0","22","49294","","null","","","","null","","60","","","1","","","","","","0.3","65.59999999999991"
"","localizer","","html-keyboard-response","180","79656","0.0-2.0-63.0-0.0","22","49294","","NaN","","","","null","NaN","61","","Stimuli/Experimental_stims/localizer/body_parts/david-fanuel-qnV8X7OViNY-unsplash.jpg","1","body_parts","","0","1","0","0.4","65.8999999999999"
"","iti_localizer","","html-keyboard-response","181","79967","0.0-2.0-63.0-1.0","22","49294","","null","","","","null","","61","","","1","","","","","","0.3","66.29999999999991"
"","localizer","","html-keyboard-response","182","80385","0.0-2.0-64.0-0.0","22","49294","","NaN","","","","null","NaN","62","","Stimuli/Experimental_stims/localizer/body_parts/deborah-diem-ieVxpPjl1e0-unsplash.jpg","1","body_parts","","0","1","0","0.4","66.59999999999991"
"","iti_localizer","","html-keyboard-response","183","80698","0.0-2.0-64.0-1.0","22","49294","","null","","","","null","","62","","","1","","","","","","0.3","66.99999999999991"
"","localizer","","html-keyboard-response","184","81113","0.0-2.0-65.0-0.0","22","49294","","NaN","","","","null","NaN","63","","Stimuli/Experimental_stims/localizer/body_parts/jan-romero-DL4DDQb8yjc-unsplash.jpg","1","body_parts","","0","1","0","0.4","67.29999999999991"
"","iti_localizer","","html-keyboard-response","185","81426","0.0-2.0-65.0-1.0","22","49294","","null","","","","null","","63","","","1","","","","","","0.3","67.69999999999992"
"","localizer","","html-keyboard-response","186","81840","0.0-2.0-66.0-0.0","22","49294","","NaN","","","","null","NaN","64","","Stimuli/Experimental_stims/localizer/body_parts/ant-rozetsky-bXQd8JXx0vs-unsplash.jpg","1","body_parts","","0","1","0","0.4","67.99999999999991"
"","iti_localizer","","html-keyboard-response","187","82154","0.0-2.0-66.0-1.0","22","49294","","null","","","","null","","64","","","1","","","","","","0.3","68.39999999999992"
"","localizer","","html-keyboard-response","188","82567","0.0-2.0-67.0-0.0","22","49294","","NaN","","","","null","NaN","65","","Stimuli/Experimental_stims/localizer/body_parts/niu-niu-5HzOtV-FSlw-unsplash.jpg","1","body_parts","","0","1","0","0.4","68.69999999999992"
"","iti_localizer","","html-keyboard-response","189","82880","0.0-2.0-67.0-1.0","22","49294","","null","","","","null","","65","","","1","","","","","","14","69.09999999999992"
"","localizer","","html-keyboard-response","190","83297","0.0-2.0-68.0-0.0","22","49294","","NaN","","","","null","NaN","66","","Stimuli/Experimental_stims/localizer/objects/namroud-gorguis-FZWivbri0Xk-unsplash.jpg","1","objects","","0","1","0","0.4","83.09999999999992"
"","iti_localizer","","html-keyboard-response","191","83610","0.0-2.0-68.0-1.0","22","49294","","null","","","","null","","66","","","1","","","","","","0.3","83.49999999999993"
"","localizer","","html-keyboard-response","192","84020","0.0-2.0-69.0-0.0","22","49294","","NaN","","","","null","NaN","67","","Stimuli/Experimental_stims/localizer/objects/quino-al-4SNUcHPiC8c-unsplash.jpg","1","objects","","0","1","0","0.4","83.79999999999993"
"","iti_localizer","","html-keyboard-response","193","84334","0.0-2.0-69.0-1.0","22","49294","","null","","","","null","","67","","","1","","","","","","0.3","84.19999999999993"
"","localizer","","html-keyboard-response","194","84741","0.0-2.0-70.0-0.0","22","49294","","NaN","","","","null","NaN","68","","Stimuli/Experimental_stims/localizer/objects/girl-with-red-hat-oJG9HOVKGMs-unsplash.jpg","1","objects","","0","1","0","0.4","84.49999999999993"
"","iti_localizer","","html-keyboard-response","195","85055","0.0-2.0-70.0-1.0","22","49294","","null","","","","null","","68","","","1","","","","","","0.3","84.89999999999993"
"","localizer","","html-keyboard-response","196","85465","0.0-2.0-71.0-0.0","22","49294","","NaN","","","","null","NaN","69","","Stimuli/Experimental_stims/localizer/objects/ryunosuke-kikuno-viEzuL1ouDs-unsplash.jpg","1","objects","","0","1","0","0.4","85.19999999999993"
"","iti_localizer","","html-keyboard-response","197","85772","0.0-2.0-71.0-1.0","22","49294","","null","","","","null","","69","","","1","","","","","","0.3","85.59999999999994"
"","localizer","","html-keyboard-response","198","86185","0.0-2.0-72.0-0.0","22","49294","","NaN","","","","null","NaN","70","","Stimuli/Experimental_stims/localizer/objects/raimond-klavins-ZdvDPXVvcKs-unsplash.jpg","1","objects","","0","1","0","0.4","85.89999999999993"
"","iti_localizer","","html-keyboard-response","199","86496","0.0-2.0-72.0-1.0","22","49294","","null","","","","null","","70","","","1","","","","","","0.3","86.29999999999994"
"","localizer","","html-keyboard-response","200","86914","0.0-2.0-73.0-0.0","22","49294","","NaN","","","","null","NaN","71","","Stimuli/Experimental_stims/localizer/objects/yossy-made-yulian-WaEqwDSIeTY-unsplash.jpg","1","objects","","0","1","0","0.4","86.59999999999994"
"","iti_localizer","","html-keyboard-response","201","87225","0.0-2.0-73.0-1.0","22","49294","","null","","","","null","","71","","","1","","","","","","0.3","86.99999999999994"
"","localizer","","html-keyboard-response","202","87641","0.0-2.0-74.0-0.0","22","49294","","NaN","","","","null","NaN","72","","Stimuli/Experimental_stims/localizer/objects/alex-lvrs-2zDw14yCYqk-unsplash.jpg","1","objects","","1","1","0","0.4","87.29999999999994"
"","iti_localizer","","html-keyboard-response","203","87950","0.0-2.0-74.0-1.0","22","49294","","null","","","","null","","72","","","1","","","","","","0.3","87.69999999999995"
"","localizer","","html-keyboard-response","204","88358","0.0-2.0-75.0-0.0","22","49294","","NaN","","","","null","NaN","73","","Stimuli/Experimental_stims/localizer/objects/jiangxulei1990-eIzzzwtkBjU-unsplash.jpg","1","objects","","0","1","0","0.4","87.99999999999994"
"","iti_localizer","","html-keyboard-response","205","88673","0.0-2.0-75.0-1.0","22","49294","","null","","","","null","","73","","","1","","","","","","0.3","88.39999999999995"
"","localizer","","html-keyboard-response","206","89089","0.0-2.0-76.0-0.0","22","49294","","NaN","","","","null","NaN","74","","Stimuli/Experimental_stims/localizer/objects/miti-MZPdB1DU4a4-unsplash.jpg","1","objects","","1","1","0","0.4","88.69999999999995"
"","iti_localizer","","html-keyboard-response","207","89399","0.0-2.0-76.0-1.0","22","49294","","null","","","","null","","74","","","1","","","","","","0.3","89.09999999999995"
"","localizer","","html-keyboard-response","208","89817","0.0-2.0-77.0-0.0","22","49294","","NaN","","","","null","NaN","75","","Stimuli/Experimental_stims/localizer/objects/markus-spiske-ANrVtttbNss-unsplash.jpg","1","objects","","0","1","0","0.4","89.39999999999995"
"","iti_localizer","","html-keyboard-response","209","90127","0.0-2.0-77.0-1.0","22","49294","","null","","","","null","","75","","","1","","","","","","0.3","89.79999999999995"
"","localizer","","html-keyboard-response","210","90537","0.0-2.0-78.0-0.0","22","49294","","NaN","","","","null","NaN","76","","Stimuli/Experimental_stims/localizer/objects/chris-briggs-FobzAZJGM9M-unsplash.jpg","1","objects","","0","1","0","0.4","90.09999999999995"
"","iti_localizer","","html-keyboard-response","211","90850","0.0-2.0-78.0-1.0","22","49294","","null","","","","null","","76","","","1","","","","","","0.3","90.49999999999996"
"","localizer","","html-keyboard-response","212","91263","0.0-2.0-79.0-0.0","22","49294","","NaN","","","","null","NaN","77","","Stimuli/Experimental_stims/localizer/objects/jonny-caspari-wsvCC6UyKjs-unsplash.jpg","1","objects","","0","1","0","0.4","90.79999999999995"
"","iti_localizer","","html-keyboard-response","213","91578","0.0-2.0-79.0-1.0","22","49294","","null","","","","null","","77","","","1","","","","","","0.3","91.19999999999996"
"","localizer","","html-keyboard-response","214","91993","0.0-2.0-80.0-0.0","22","49294","","NaN","","","","null","NaN","78","","Stimuli/Experimental_stims/localizer/objects/andrew-petrov-TVJqDat4MAw-unsplash.jpg","1","objects","","0","1","0","0.4","91.49999999999996"
"","iti_localizer","","html-keyboard-response","215","92302","0.0-2.0-80.0-1.0","22","49294","","null","","","","null","","78","","","1","","","","","","0.3","91.89999999999996"
"","localizer","","html-keyboard-response","216","92714","0.0-2.0-81.0-0.0","22","49294","","NaN","","","","null","NaN","79","","Stimuli/Experimental_stims/localizer/objects/chris-briggs-x9TCnxNBofE-unsplash.jpg","1","objects","","0","1","0","0.4","92.19999999999996"
"","iti_localizer","","html-keyboard-response","217","93024","0.0-2.0-81.0-1.0","22","49294","","null","","","","null","","79","","","1","","","","","","0.3","92.59999999999997"
"","localizer","","html-keyboard-response","218","93438","0.0-2.0-82.0-0.0","22","49294","","NaN","","","","null","NaN","80","","Stimuli/Experimental_stims/localizer/objects/maria-lupan-Rlakka_pZMU-unsplash.jpg","1","objects","","0","1","0","0.4","92.89999999999996"
"","iti_localizer","","html-keyboard-response","219","93751","0.0-2.0-82.0-1.0","22","49294","","null","","","","null","","80","","","1","","","","","","0.3","93.29999999999997"
"","localizer","","html-keyboard-response","220","94167","0.0-2.0-83.0-0.0","22","49294","","NaN","","","","null","NaN","81","","Stimuli/Experimental_stims/localizer/objects/annie-spratt-fbAnIjhrOL4-unsplash.jpg","1","objects","","0","1","0","0.4","93.59999999999997"
"","iti_localizer","","html-keyboard-response","221","94477","0.0-2.0-83.0-1.0","22","49294","","null","","","","null","","81","","","1","","","","","","0.3","93.99999999999997"
"","localizer","","html-keyboard-response","222","94888","0.0-2.0-84.0-0.0","22","49294","","NaN","","","","null","NaN","82","","Stimuli/Experimental_stims/localizer/objects/florian-klauer-mk7D-4UCfmg-unsplash.jpg","1","objects","","0","1","0","0.4","94.29999999999997"
"","iti_localizer","","html-keyboard-response","223","95201","0.0-2.0-84.0-1.0","22","49294","","null","","","","null","","82","","","1","","","","","","0.3","94.69999999999997"
"","localizer","","html-keyboard-response","224","95617","0.0-2.0-85.0-0.0","22","49294","","NaN","","","","null","NaN","83","","Stimuli/Experimental_stims/localizer/objects/eugene-chystiakov-3neSwyntbQ8-unsplash.jpg","1","objects","","0","1","0","0.4","94.99999999999997"
"","iti_localizer","","html-keyboard-response","225","95926","0.0-2.0-85.0-1.0","22","49294","","null","","","","null","","83","","","1","","","","","","0.3","95.39999999999998"
"","localizer","","html-keyboard-response","226","96336","0.0-2.0-86.0-0.0","22","49294","","NaN","","","","null","NaN","84","","Stimuli/Experimental_stims/localizer/objects/quaritsch-photography-lZ8onQ1wuY8-unsplash.jpg","1","objects","","0","1","0","0.4","95.69999999999997"
"","iti_localizer","","html-keyboard-response","227","96647","0.0-2.0-86.0-1.0","22","49294","","null","","","","null","","84","","","1","","","","","","0.3","96.09999999999998"
"","localizer","","html-keyboard-response","228","97065","0.0-2.0-87.0-0.0","22","49294","","NaN","","","","null","NaN","85","","Stimuli/Experimental_stims/localizer/objects/ales-krivec-ZMZHcvIVgbg-unsplash.jpg","1","objects","","0","1","0","0.4","96.39999999999998"
"","iti_localizer","","html-keyboard-response","229","97377","0.0-2.0-87.0-1.0","22","49294","","null","","","","null","","85","","","1","","","","","","14","96.79999999999998"
"","localizer","","html-keyboard-response","230","97795","0.0-2.0-88.0-0.0","22","49294","","NaN","","","","null","NaN","86","","Stimuli/Experimental_stims/localizer/body_parts/sippakorn-yamkasikorn-32_sJlJa5gA-unsplash.jpg","1","body_parts","","0","1","0","0.4","110.79999999999998"
"","iti_localizer","","html-keyboard-response","231","98101","0.0-2.0-88.0-1.0","22","49294","","null","","","","null","","86","","","1","","","","","","0.3","111.19999999999999"
"","localizer","","html-keyboard-response","232","98512","0.0-2.0-89.0-0.0","22","49294","","NaN","","","","null","NaN","87","","Stimuli/Experimental_stims/localizer/body_parts/apostolos-vamvouras-g5wKHRu2QW0-unsplash.jpg","1","body_parts","","0","1","0","0.4","111.49999999999999"
"","iti_localizer","","html-keyboard-response","233","98821","0.0-2.0-89.0-1.0","22","49294","","null","","","","null","","87","","","1","","","","","","0.3","111.89999999999999"
"","localizer","","html-keyboard-response","234","99231","0.0-2.0-90.0-0.0","22","49294","","NaN","","","","null","NaN","88","","Stimuli/Experimental_stims/localizer/body_parts/liv-bruce-M0oVPGsWk1E-unsplash.jpg","1","body_parts","","0","1","0","0.4","112.19999999999999"
"","iti_localizer","","html-keyboard-response","235","99541","0.0-2.0-90.0-1.0","22","49294","","null","","","","null","","88","","","1","","","","","","0.3","112.6"
"","localizer","","html-keyboard-response","236","99949","0.0-2.0-91.0-0.0","22","49294","","NaN","","","","null","NaN","89","","Stimuli/Experimental_stims/localizer/body_parts/sina-rezakhani-d1gQi0Jl05U-unsplash (1).jpg","1","body_parts","","0","1","0","0.4","112.89999999999999"
"","iti_localizer","","html-keyboard-response","237","100260","0.0-2.0-91.0-1.0","22","49294","","null","","","","null","","89","","","1","","","","","","0.3","113.3"
"","localizer","","html-keyboard-response","238","100668","0.0-2.0-92.0-0.0","22","49294","","NaN","","","","null","NaN","90","","Stimuli/Experimental_stims/localizer/body_parts/natalie-grainger-8uB5kFKWWkk-unsplash.jpg","1","body_parts","","1","1","0","0.4","113.6"
"","iti_localizer","","html-keyboard-response","239","100983","0.0-2.0-92.0-1.0","22","49294","","null","","","","null","","90","","","1","","","","","","0.3","114"
"","localizer","","html-keyboard-response","240","101397","0.0-2.0-93.0-0.0","22","49294","","NaN","","","","null","NaN","91","","Stimuli/Experimental_stims/localizer/body_parts/hu-chen-tCbTGNwrFNM-unsplash.jpg","1","body_parts","","1","1","0","0.4","114.3"
"","iti_localizer","","html-keyboard-response","241","101712","0.0-2.0-93.0-1.0","22","49294","","null","","","","null","","91","","","1","","","","","","0.3","114.7"
"","localizer","","html-keyboard-response","242","102127","0.0-2.0-94.0-0.0","22","49294","","NaN","","","","null","NaN","92","","Stimuli/Experimental_stims/localizer/body_parts/sincerely-media-Q7qRyaurQfo-unsplash.jpg","1","body_parts","","0","1","0","0.4","115"
"","iti_localizer","","html-keyboard-response","243","102439","0.0-2.0-94.0-1.0","22","49294","","null","","","","null","","92","","","1","","","","","","0.3","115.4"
"","localizer","","html-keyboard-response","244","102853","0.0-2.0-95.0-0.0","22","49294","","NaN","","","","null","NaN","93","","Stimuli/Experimental_stims/localizer/body_parts/danie-franco-jyyNiSEcCl4-unsplash.jpg","1","body_parts","","0","1","0","0.4","115.7"
"","iti_localizer","","html-keyboard-response","245","103165","0.0-2.0-95.0-1.0","22","49294","","null","","","","null","","93","","","1","","","","","","0.3","116.10000000000001"
"","localizer","","html-keyboard-response","246","103572","0.0-2.0-96.0-0.0","22","49294","","NaN","","","","null","NaN","94","","Stimuli/Experimental_stims/localizer/body_parts/boyd-christiansen-uVj7kewrZ-o-unsplash.jpg","1","body_parts","","0","1","0","0.4","116.4"
"","iti_localizer","","html-keyboard-response","247","103888","0.0-2.0-96.0-1.0","22","49294","","null","","","","null","","94","","","1","","","","","","0.3","116.80000000000001"
"","localizer","","html-keyboard-response","248","104303","0.0-2.0-97.0-0.0","22","49294","","NaN","","","","null","NaN","95","","Stimuli/Experimental_stims/localizer/body_parts/charles-etoroma-1fo0biloDOc-unsplash.jpg","1","body_parts","","0","1","0","0.4","117.10000000000001"
"","iti_localizer","","html-keyboard-response","249","104616","0.0-2.0-97.0-1.0","22","49294","","null","","","","null","","95","","","1","","","","","","0.3","117.50000000000001"
"","localizer","","html-keyboard-response","250","105033","0.0-2.0-98.0-0.0","22","49294","","NaN","","","","null","NaN","96","","Stimuli/Experimental_stims/localizer/body_parts/louis-hansel-FjKTMRTQYAs-unsplash.jpg","1","body_parts","","0","1","0","0.4","117.80000000000001"
"","iti_localizer","","html-keyboard-response","251","105345","0.0-2.0-98.0-1.0","22","49294","","null","","","","null","","96","","","1","","","","","","0.3","118.20000000000002"
"","localizer","","html-keyboard-response","252","105756","0.0-2.0-99.0-0.0","22","49294","","NaN","","","","null","NaN","97","","Stimuli/Experimental_stims/localizer/body_parts/jasper-garratt-Ng_Kl7K6V8Y-unsplash.jpg","1","body_parts","","0","1","0","0.4","118.50000000000001"
"","iti_localizer","","html-keyboard-response","253","106073","0.0-2.0-99.0-1.0","22","49294","","null","","","","null","","97","","","1","","","","","","0.3","118.90000000000002"
"","localizer","","html-keyboard-response","254","106490","0.0-2.0-100.0-0.0","22","49294","","NaN","","","","null","NaN","98","","Stimuli/Experimental_stims/localizer/body_parts/pure-julia-9lVaya31sMk-unsplash.jpg","1","body_parts","","0","1","0","0.4","119.20000000000002"
"","iti_localizer","","html-keyboard-response","255","106796","0.0-2.0-100.0-1.0","22","49294","","null","","","","null","","98","","","1","","","","","","0.3","119.60000000000002"
"","localizer","","html-keyboard-response","256","107207","0.0-2.0-101.0-0.0","22","49294","","NaN","","","","null","NaN","99","","Stimuli/Experimental_stims/localizer/body_parts/billie-5OXE3KjDEfI-unsplash.jpg","1","body_parts","","0","1","0","0.4","119.90000000000002"
"","iti_localizer","","html-keyboard-response","257","107516","0.0-2.0-101.0-1.0","22","49294","","null","","","","null","","99","","","1","","","","","","0.3","120.30000000000003"
"","localizer","","html-keyboard-response","258","107929","0.0-2.0-102.0-0.0","22","49294","","NaN","","","","null","NaN","100","","Stimuli/Experimental_stims/localizer/body_parts/matheus-frade-eyzdb1C3JDM-unsplash.jpg","1","body_parts","","0","1","0","0.4","120.60000000000002"
"","iti_localizer","","html-keyboard-response","259","108242","0.0-2.0-102.0-1.0","22","49294","","null","","","","null","","100","","","1","","","","","","0.3","121.00000000000003"
"","localizer","","html-keyboard-response","260","108658","0.0-2.0-103.0-0.0","22","49294","","NaN","","","","null","NaN","101","","Stimuli/Experimental_stims/localizer/body_parts/nick-page-jAGdpOGvLAA-unsplash.jpg","1","body_parts","","0","1","0","0.4","121.30000000000003"
"","iti_localizer","","html-keyboard-response","261","108968","0.0-2.0-103.0-1.0","22","49294","","null","","","","null","","101","","","1","","","","","","0.3","121.70000000000003"
"","localizer","","html-keyboard-response","262","109384","0.0-2.0-104.0-0.0","22","49294","","NaN","","","","null","NaN","102","","Stimuli/Experimental_stims/localizer/body_parts/ignacio-campo-tC9boyqy_40-unsplash.jpg","1","body_parts","","0","1","0","0.4","122.00000000000003"
"","iti_localizer","","html-keyboard-response","263","109697","0.0-2.0-104.0-1.0","22","49294","","null","","","","null","","102","","","1","","","","","","0.3","122.40000000000003"
"","localizer","","html-keyboard-response","264","110108","0.0-2.0-105.0-0.0","22","49294","","NaN","","","","null","NaN","103","","Stimuli/Experimental_stims/localizer/body_parts/semen-zhuravlev-_XxH_mV8dnk-unsplash (1).jpg","1","body_parts","","0","1","0","0.4","122.70000000000003"
"","iti_localizer","","html-keyboard-response","265","110423","0.0-2.0-105.0-1.0","22","49294","","null","","","","null","","103","","","1","","","","","","0.3","123.10000000000004"
"","localizer","","html-keyboard-response","266","110828","0.0-2.0-106.0-0.0","22","49294","","NaN","","","","null","NaN","104","","Stimuli/Experimental_stims/localizer/body_parts/carlos-henrique-NAOJKwZswbs-unsplash.jpg","1","body_parts","","0","1","0","0.4","123.40000000000003"
"","iti_localizer","","html-keyboard-response","267","111143","0.0-2.0-106.0-1.0","22","49294","","null","","","","null","","104","","","1","","","","","","0.3","123.80000000000004"
"","localizer","","html-keyboard-response","268","111550","0.0-2.0-107.0-0.0","22","49294","","NaN","","","","null","NaN","105","","Stimuli/Experimental_stims/localizer/body_parts/femme-spirit-RGYBDUHYbyM-unsplash.jpg","1","body_parts","","0","1","0","0.4","124.10000000000004"
"","iti_localizer","","html-keyboard-response","269","111866","0.0-2.0-107.0-1.0","22","49294","","null","","","","null","","105","","","1","","","","","","14","124.50000000000004"
"","localizer","","html-keyboard-response","270","112276","0.0-2.0-108.0-0.0","22","49294","","NaN","","","","null","NaN","106","","Stimuli/Experimental_stims/localizer/outdoor_scenes/nicolas-jehly-LzVB84KkZOE-unsplash.jpg","1","outdoor_scenes","","0","1","0","0.4","138.50000000000006"
"","iti_localizer","","html-keyboard-response","271","112592","0.0-2.0-108.0-1.0","22","49294","","null","","","","null","","106","","","1","","","","","","0.3","138.90000000000006"
"","localizer","","html-keyboard-response","272","113007","0.0-2.0-109.0-0.0","22","49294","","NaN","","","","null","NaN","107","","Stimuli/Experimental_stims/localizer/outdoor_scenes/antoine-beauvillain-qrPqGP-SG8w-unsplash.jpg","1","outdoor_scenes","","0","1","0","0.4","139.20000000000007"
"","iti_localizer","","html-keyboard-response","273","113322","0.0-2.0-109.0-1.0","22","49294","","null","","","","null","","107","","","1","","","","","","0.3","139.60000000000008"
"","localizer","","html-keyboard-response","274","113733","0.0-2.0-110.0-0.0","22","49294","","NaN","","","","null","NaN","108","","Stimuli/Experimental_stims/localizer/outdoor_scenes/jordan-heath-4z_SYrG5mgA-unsplash.jpg","1","outdoor_scenes","","0","1","0","0.4","139.9000000000001"
"","iti_localizer","","html-keyboard-response","275","114047","0.0-2.0-110.0-1.0","22","49294","","null","","","","null","","108","","","1","","","","","","0.3","140.3000000000001"
"","localizer","","html-keyboard-response","276","114464","0.0-2.0-111.0-0.0","22","49294","","NaN","","","","null","NaN","109","","Stimuli/Experimental_stims/localizer/outdoor_scenes/michael-martinelli-mFbrMEVKCkc-unsplash.jpg","1","outdoor_scenes","","0","1","0","0.4","140.6000000000001"
"","iti_localizer","","html-keyboard-response","277","114775","0.0-2.0-111.0-1.0","22","49294","","null","","","","null","","109","","","1","","","","","","0.3","141.0000000000001"
"","localizer","","html-keyboard-response","278","115193","0.0-2.0-112.0-0.0","22","49294","","NaN","","","","null","NaN","110","","Stimuli/Experimental_stims/localizer/outdoor_scenes/samuel-ferrara-IEHPDNk2-8w-unsplash.jpg","1","outdoor_scenes","","0","1","0","0.4","141.30000000000013"
"","iti_localizer","","html-keyboard-response","279","115503","0.0-2.0-112.0-1.0","22","49294","","null","","","","null","","110","","","1","","","","","","0.3","141.70000000000013"
"","localizer","","html-keyboard-response","280","115920","0.0-2.0-113.0-0.0","22","49294","","NaN","","","","null","NaN","111","","Stimuli/Experimental_stims/localizer/outdoor_scenes/quino-al-vmZ2DehWQ3Q-unsplash.jpg","1","outdoor_scenes","","0","1","0","0.4","142.00000000000014"
"","iti_localizer","","html-keyboard-response","281","116232","0.0-2.0-113.0-1.0","22","49294","","null","","","","null","","111","","","1","","","","","","0.3","142.40000000000015"
"","localizer","","html-keyboard-response","282","116646","0.0-2.0-114.0-0.0","22","49294","","NaN","","","","null","NaN","112","","Stimuli/Experimental_stims/localizer/outdoor_scenes/alessio-furlan-Vw3a0HgE7AM-unsplash.jpg","1","outdoor_scenes","","0","1","0","0.4","142.70000000000016"
"","iti_localizer","","html-keyboard-response","283","116958","0.0-2.0-114.0-1.0","22","49294","","null","","","","null","","112","","","1","","","","","","0.3","143.10000000000016"
"","localizer","","html-keyboard-response","284","117366","0.0-2.0-115.0-0.0","22","49294","","NaN","","","","null","NaN","113","","Stimuli/Experimental_stims/localizer/outdoor_scenes/damian-patkowski-T-LfvX-7IVg-unsplash.jpg","1","outdoor_scenes","","0","1","0","0.4","143.40000000000018"
"","iti_localizer","","html-keyboard-response","285","117681","0.0-2.0-115.0-1.0","22","49294","","null","","","","null","","113","","","1","","","","","","0.3","143.80000000000018"
"","localizer","","html-keyboard-response","286","118096","0.0-2.0-116.0-0.0","22","49294","","NaN","","","","null","NaN","114","","Stimuli/Experimental_stims/localizer/outdoor_scenes/ryan-schroeder-Gg7uKdHFb_c-unsplash.jpg","1","outdoor_scenes","","1","1","0","0.4","144.1000000000002"
"","iti_localizer","","html-keyboard-response","287","118406","0.0-2.0-116.0-1.0","22","49294","","null","","","","null","","114","","","1","","","","","","0.3","144.5000000000002"
"","localizer","","html-keyboard-response","288","118817","0.0-2.0-117.0-0.0","22","49294","","NaN","","","","null","NaN","115","","Stimuli/Experimental_stims/localizer/outdoor_scenes/cosmic-timetraveler-pYyOZ8q7AII-unsplash.jpg","1","outdoor_scenes","","0","1","0","0.4","144.8000000000002"
"","iti_localizer","","html-keyboard-response","289","119129","0.0-2.0-117.0-1.0","22","49294","","null","","","","null","","115","","","1","","","","","","0.3","145.20000000000022"
"","localizer","","html-keyboard-response","290","119543","0.0-2.0-118.0-0.0","22","49294","","NaN","","","","null","NaN","116","","Stimuli/Experimental_stims/localizer/outdoor_scenes/keith-hardy-PP8Escz15d8-unsplash.jpg","1","outdoor_scenes","","0","1","0","0.4","145.50000000000023"
"","iti_localizer","","html-keyboard-response","291","119855","0.0-2.0-118.0-1.0","22","49294","","null","","","","null","","116","","","1","","","","","","0.3","145.90000000000023"
"","localizer","","html-keyboard-response","292","120273","0.0-2.0-119.0-0.0","22","49294","","NaN","","","","null","NaN","117","","Stimuli/Experimental_stims/localizer/outdoor_scenes/damian-denis-D8R_txR_0PE-unsplash.jpg","1","outdoor_scenes","","0","1","0","0.4","146.20000000000024"
"","iti_localizer","","html-keyboard-response","293","120583","0.0-2.0-119.0-1.0","22","49294","","null","","","","null","","117","","","1","","","","","","0.3","146.60000000000025"
"","localizer","","html-keyboard-response","294","120999","0.0-2.0-120.0-0.0","22","49294","","NaN","","","","null","NaN","118","","Stimuli/Experimental_stims/localizer/outdoor_scenes/jay-cai-F_laX9E8CUo-unsplash.jpg","1","outdoor_scenes","","0","1","0","0.4","146.90000000000026"
"","iti_localizer","","html-keyboard-response","295","121314","0.0-2.0-120.0-1.0","22","49294","","null","","","","null","","118","","","1","","","","","","0.3","147.30000000000027"
"","localizer","","html-keyboard-response","296","121725","0.0-2.0-121.0-0.0","22","49294","","NaN","","","","null","NaN","119","","Stimuli/Experimental_stims/localizer/outdoor_scenes/darrell-cassell-hoCXpPUMCoE-unsplash.jpg","1","outdoor_scenes","","0","1","0","0.4","147.60000000000028"
"","iti_localizer","","html-keyboard-response","297","122041","0.0-2.0-121.0-1.0","22","49294","","null","","","","null","","119","","","1","","","","","","0.3","148.00000000000028"
"","localizer","","html-keyboard-response","298","122455","0.0-2.0-122.0-0.0","22","49294","","NaN","","","","null","NaN","120","","Stimuli/Experimental_stims/localizer/outdoor_scenes/john-lee-oMneOBYhJxY-unsplash.jpg","1","outdoor_scenes","","0","1","0","0.4","148.3000000000003"
"","iti_localizer","","html-keyboard-response","299","122767","0.0-2.0-122.0-1.0","22","49294","","null","","","","null","","120","","","1","","","","","","0.3","148.7000000000003"
"","localizer","","html-keyboard-response","300","123183","0.0-2.0-123.0-0.0","22","49294","","NaN","","","","null","NaN","121","","Stimuli/Experimental_stims/localizer/outdoor_scenes/cayetano-gil-rguHxZmOF5U-unsplash.jpg","1","outdoor_scenes","","0","1","0","0.4","149.0000000000003"
"","iti_localizer","","html-keyboard-response","301","123496","0.0-2.0-123.0-1.0","22","49294","","null","","","","null","","121","","","1","","","","","","0.3","149.40000000000032"
"","localizer","","html-keyboard-response","302","123912","0.0-2.0-124.0-0.0","22","49294","","NaN","","","","null","NaN","122","","Stimuli/Experimental_stims/localizer/outdoor_scenes/tim-swaan-eOpewngf68w-unsplash (1).jpg","1","outdoor_scenes","","1","1","0","0.4","149.70000000000033"
"","iti_localizer","","html-keyboard-response","303","124225","0.0-2.0-124.0-1.0","22","49294","","null","","","","null","","122","","","1","","","","","","0.3","150.10000000000034"
"","localizer","","html-keyboard-response","304","124639","0.0-2.0-125.0-0.0","22","49294","","NaN","","","","null","NaN","123","","Stimuli/Experimental_stims/localizer/outdoor_scenes/eberhard-grossgasteiger-y2azHvupCVo-unsplash.jpg","1","outdoor_scenes","","0","1","0","0.4","150.40000000000035"
"","iti_localizer","","html-keyboard-response","305","124949","0.0-2.0-125.0-1.0","22","49294","","null","","","","null","","123","","","1","","","","","","0.3","150.80000000000035"
"","localizer","","html-keyboard-response","306","125360","0.0-2.0-126.0-0.0","22","49294","","NaN","","","","null","NaN","124","","Stimuli/Experimental_stims/localizer/outdoor_scenes/solotravelgoals-7kLufxYoqWk-unsplash.jpg","1","outdoor_scenes","","0","1","0","0.4","151.10000000000036"
"","iti_localizer","","html-keyboard-response","307","125672","0.0-2.0-126.0-1.0","22","49294","","null","","","","null","","124","","","1","","","","","","0.3","151.50000000000037"
"","localizer","","html-keyboard-response","308","126090","0.0-2.0-127.0-0.0","22","49294","","NaN","","","","null","NaN","125","","Stimuli/Experimental_stims/localizer/outdoor_scenes/john-mark-arnold-XNIjmb6Ax04-unsplash.jpg","1","outdoor_scenes","","0","1","0","0.4","151.80000000000038"
"","iti_localizer","","html-keyboard-response","309","126399","0.0-2.0-127.0-1.0","22","49294","","null","","","","null","","125","","","1","","","","","","14","152.2000000000004"
"","localizer","","html-keyboard-response","310","126816","0.0-2.0-128.0-0.0","22","49294","","NaN","","","","null","NaN","126","","Stimuli/Experimental_stims/localizer/faces/juan-encalada-WC7KIHo13Fc-unsplash.jpg","1","faces","","0","1","0","0.4","166.2000000000004"
"","iti_localizer","","html-keyboard-response","311","127126","0.0-2.0-128.0-1.0","22","49294","","null","","","","null","","126","","","1","","","","","","0.3","166.6000000000004"
"","localizer","","html-keyboard-response","312","127544","0.0-2.0-129.0-0.0","22","49294","","NaN","","","","null","NaN","127","","Stimuli/Experimental_stims/localizer/faces/aatik-tasneem-7omHUGhhmZ0-unsplash.jpg","1","faces","","0","1","0","0.4","166.9000000000004"
"","iti_localizer","","html-keyboard-response","313","127854","0.0-2.0-129.0-1.0","22","49294","","null","","","","null","","127","","","1","","","","","","0.3","167.3000000000004"
"","localizer","","html-keyboard-response","314","128267","0.0-2.0-130.0-0.0","22","49294","","NaN","","","","null","NaN","128","","Stimuli/Experimental_stims/localizer/faces/ayo-ogunseinde-sibVwORYqs0-unsplash.jpg","1","faces","","0","1","0","0.4","167.60000000000042"
"","iti_localizer","","html-keyboard-response","315","128576","0.0-2.0-130.0-1.0","22","49294","","null","","","","null","","128","","","1","","","","","","0.3","168.00000000000043"
"","localizer","","html-keyboard-response","316","128994","0.0-2.0-131.0-0.0","22","49294","","NaN","","","","null","NaN","129","","Stimuli/Experimental_stims/localizer/faces/christina-wocintechchat-com-0Zx1bDv5BNY-unsplash.jpg","1","faces","","0","1","0","0.4","168.30000000000044"
"","iti_localizer","","html-keyboard-response","317","129304","0.0-2.0-131.0-1.0","22","49294","","null","","","","null","","129","","","1","","","","","","0.3","168.70000000000044"
"","localizer","","html-keyboard-response","318","129717","0.0-2.0-132.0-0.0","22","49294","","NaN","","","","null","NaN","130","","Stimuli/Experimental_stims/localizer/faces/sean-kong--1B_y4wGs-s-unsplash.jpg","1","faces","","0","1","0","0.4","169.00000000000045"
"","iti_localizer","","html-keyboard-response","319","130032","0.0-2.0-132.0-1.0","22","49294","","null","","","","null","","130","","","1","","","","","","0.3","169.40000000000046"
"","localizer","","html-keyboard-response","320","130449","0.0-2.0-133.0-0.0","22","49294","","NaN","","","","null","NaN","131","","Stimuli/Experimental_stims/localizer/faces/chanvre-quebec-mXu1SpzHq6w-unsplash.jpg","1","faces","","1","1","0","0.4","169.70000000000047"
"","iti_localizer","","html-keyboard-response","321","130759","0.0-2.0-133.0-1.0","22","49294","","null","","","","null","","131","","","1","","","","","","0.3","170.10000000000048"
"","localizer","","html-keyboard-response","322","131172","0.0-2.0-134.0-0.0","22","49294","","NaN","","","","null","NaN","132","","Stimuli/Experimental_stims/localizer/faces/art-hauntington-jzY0KRJopEI-unsplash.jpg","1","faces","","0","1","0","0.4","170.4000000000005"
"","iti_localizer","","html-keyboard-response","323","131487","0.0-2.0-134.0-1.0","22","49294","","null","","","","null","","132","","","1","","","","","","0.3","170.8000000000005"
"","localizer","","html-keyboard-response","324","131901","0.0-2.0-135.0-0.0","22","49294","","NaN","","","","null","NaN","133","","Stimuli/Experimental_stims/localizer/faces/darshan-patel-QJEVpydulGs-unsplash.jpg","1","faces","","0","1","0","0.4","171.1000000000005"
"","iti_localizer","","html-keyboard-response","325","132215","0.0-2.0-135.0-1.0","22","49294","","null","","","","null","","133","","","1","","","","","","0.3","171.5000000000005"
"","localizer","","html-keyboard-response","326","132632","0.0-2.0-136.0-0.0","22","49294","","NaN","","","","null","NaN","134","","Stimuli/Experimental_stims/localizer/faces/tyler-nix-ZGa9d1a_4tA-unsplash.jpg","1","faces","","0","1","0","0.4","171.80000000000052"
"","iti_localizer","","html-keyboard-response","327","132945","0.0-2.0-136.0-1.0","22","49294","","null","","","","null","","134","","","1","","","","","","0.3","172.20000000000053"
"","localizer","","html-keyboard-response","328","133360","0.0-2.0-137.0-0.0","22","49294","","NaN","","","","null","NaN","135","","Stimuli/Experimental_stims/localizer/faces/aiony-haust-K0DxxljcRv0-unsplash.jpg","1","faces","","0","1","0","0.4","172.50000000000054"
"","iti_localizer","","html-keyboard-response","329","133671","0.0-2.0-137.0-1.0","22","49294","","null","","","","null","","135","","","1","","","","","","0.3","172.90000000000055"
"","localizer","","html-keyboard-response","330","134081","0.0-2.0-138.0-0.0","22","49294","","NaN","","","","null","NaN","136","","Stimuli/Experimental_stims/localizer/faces/mubariz-mehdizadeh-o-wlIFT4zE4-unsplash.jpg","1","faces","","0","1","0","0.4","173.20000000000056"
"","iti_localizer","","html-keyboard-response","331","134390","0.0-2.0-138.0-1.0","22","49294","","null","","","","null","","136","","","1","","","","","","0.3","173.60000000000056"
"","localizer","","html-keyboard-response","332","134800","0.0-2.0-139.0-0.0","22","49294","","NaN","","","","null","NaN","137","","Stimuli/Experimental_stims/localizer/faces/rafaella-mendes-diniz-et_78QkMMQs-unsplash.jpg","1","faces","","0","1","0","0.4","173.90000000000057"
"","iti_localizer","","html-keyboard-response","333","135113","0.0-2.0-139.0-1.0","22","49294","","null","","","","null","","137","","","1","","","","","","0.3","174.30000000000058"
"","localizer","","html-keyboard-response","334","135527","0.0-2.0-140.0-0.0","22","49294","","NaN","","","","null","NaN","138","","Stimuli/Experimental_stims/localizer/faces/jake-nackos-IF9TK5Uy-KI-unsplash.jpg","1","faces","","0","1","0","0.4","174.6000000000006"
"","iti_localizer","","html-keyboard-response","335","135839","0.0-2.0-140.0-1.0","22","49294","","null","","","","null","","138","","","1","","","","","","0.3","175.0000000000006"
"","localizer","","html-keyboard-response","336","136256","0.0-2.0-141.0-0.0","22","49294","","NaN","","","","null","NaN","139","","Stimuli/Experimental_stims/localizer/faces/ivan-dodig-R21SyyJDFgc-unsplash.jpg","1","faces","","1","1","0","0.4","175.3000000000006"
"","iti_localizer","","html-keyboard-response","337","136568","0.0-2.0-141.0-1.0","22","49294","","null","","","","null","","139","","","1","","","","","","0.3","175.7000000000006"
"","localizer","","html-keyboard-response","338","136986","0.0-2.0-142.0-0.0","22","49294","","NaN","","","","null","NaN","140","","Stimuli/Experimental_stims/localizer/faces/jakob-owens-lkMJcGDZLVs-unsplash.jpg","1","faces","","0","1","0","0.4","176.00000000000063"
"","iti_localizer","","html-keyboard-response","339","137296","0.0-2.0-142.0-1.0","22","49294","","null","","","","null","","140","","","1","","","","","","0.3","176.40000000000063"
"","localizer","","html-keyboard-response","340","137708","0.0-2.0-143.0-0.0","22","49294","","NaN","","","","null","NaN","141","","Stimuli/Experimental_stims/localizer/faces/foto-sushi-6anudmpILw4-unsplash.jpg","1","faces","","0","1","0","0.4","176.70000000000064"
"","iti_localizer","","html-keyboard-response","341","138022","0.0-2.0-143.0-1.0","22","49294","","null","","","","null","","141","","","1","","","","","","0.3","177.10000000000065"
"","localizer","","html-keyboard-response","342","138434","0.0-2.0-144.0-0.0","22","49294","","NaN","","","","null","NaN","142","","Stimuli/Experimental_stims/localizer/faces/drew-hays-agGIKYs4mYs-unsplash.jpg","1","faces","","0","1","0","0.4","177.40000000000066"
"","iti_localizer","","html-keyboard-response","343","138744","0.0-2.0-144.0-1.0","22","49294","","null","","","","null","","142","","","1","","","","","","0.3","177.80000000000067"
"","localizer","","html-keyboard-response","344","139158","0.0-2.0-145.0-0.0","22","49294","","NaN","","","","null","NaN","143","","Stimuli/Experimental_stims/localizer/faces/toa-heftiba-2O1EUSTRBrY-unsplash.jpg","1","faces","","0","1","0","0.4","178.10000000000068"
"","iti_localizer","","html-keyboard-response","345","139473","0.0-2.0-145.0-1.0","22","49294","","null","","","","null","","143","","","1","","","","","","0.3","178.50000000000068"
"","localizer","","html-keyboard-response","346","139886","0.0-2.0-146.0-0.0","22","49294","","NaN","","","","null","NaN","144","","Stimuli/Experimental_stims/localizer/faces/vince-fleming-j3lf-Jn6deo-unsplash.jpg","1","faces","","0","1","0","0.4","178.8000000000007"
"","iti_localizer","","html-keyboard-response","347","140200","0.0-2.0-146.0-1.0","22","49294","","null","","","","null","","144","","","1","","","","","","0.3","179.2000000000007"
"","localizer","","html-keyboard-response","348","140614","0.0-2.0-147.0-0.0","22","49294","","NaN","","","","null","NaN","145","","Stimuli/Experimental_stims/localizer/faces/christopher-campbell-rDEOVtE7vOs-unsplash.jpg","1","faces","","0","1","0","0.4","179.5000000000007"
"","iti_localizer","","html-keyboard-response","349","140930","0.0-2.0-147.0-1.0","22","49294","","null","","","","null","","145","","","1","","","","","","14","179.90000000000072"
"","localizer","","html-keyboard-response","350","141345","0.0-2.0-148.0-0.0","22","49294","","NaN","","","","null","NaN","146","","Stimuli/Experimental_stims/localizer/objects/adriano-pucciarelli-Jl3S1yM8gi8-unsplash.jpg","1","objects","","0","1","0","0.4","193.90000000000072"
"","iti_localizer","","html-keyboard-response","351","141655","0.0-2.0-148.0-1.0","22","49294","","null","","","","null","","146","","","1","","","","","","0.3","194.30000000000072"
"","localizer","","html-keyboard-response","352","142069","0.0-2.0-149.0-0.0","22","49294","","NaN","","","","null","NaN","147","","Stimuli/Experimental_stims/localizer/objects/mockup-graphics-Pj2PY-E-LfM-unsplash.jpg","1","objects","","0","1","0","0.4","194.60000000000073"
"","iti_localizer","","html-keyboard-response","353","142386","0.0-2.0-149.0-1.0","22","49294","","null","","","","null","","147","","","1","","","","","","0.3","195.00000000000074"
"","localizer","","html-keyboard-response","354","142801","0.0-2.0-150.0-0.0","22","49294","","NaN","","","","null","NaN","148","","Stimuli/Experimental_stims/localizer/objects/nicolas-hippert-SVgX47QIUlc-unsplash.jpg","1","objects","","0","1","0","0.4","195.30000000000075"
"","iti_localizer","","html-keyboard-response","355","143113","0.0-2.0-150.0-1.0","22","49294","","null","","","","null","","148","","","1","","","","","","0.3","195.70000000000076"
"","localizer","","html-keyboard-response","356","143528","0.0-2.0-151.0-0.0","22","49294","","NaN","","","","null","NaN","149","","Stimuli/Experimental_stims/localizer/objects/hipster-mum-XookgCxFw6Q-unsplash.jpg","1","objects","","0","1","0","0.4","196.00000000000077"
"","iti_localizer","","html-keyboard-response","357","143840","0.0-2.0-151.0-1.0","22","49294","","null","","","","null","","149","","","1","","","","","","0.3","196.40000000000077"
"","localizer","","html-keyboard-response","358","144258","0.0-2.0-152.0-0.0","22","49294","","NaN","","","","null","NaN","150","","Stimuli/Experimental_stims/localizer/objects/petr-sidorov-3jm5TGqtULU-unsplash.jpg","1","objects","","0","1","0","0.4","196.70000000000078"
"","iti_localizer","","html-keyboard-response","359","144567","0.0-2.0-152.0-1.0","22","49294","","null","","","","null","","150","","","1","","","","","","0.3","197.1000000000008"
"","localizer","","html-keyboard-response","360","144982","0.0-2.0-153.0-0.0","22","49294","","NaN","","","","null","NaN","151","","Stimuli/Experimental_stims/localizer/objects/dan-cristian-padure-ezoshbcxWrM-unsplash.jpg","1","objects","","0","1","0","0.4","197.4000000000008"
"","iti_localizer","","html-keyboard-response","361","145295","0.0-2.0-153.0-1.0","22","49294","","null","","","","null","","151","","","1","","","","","","0.3","197.8000000000008"
"","localizer","","html-keyboard-response","362","145709","0.0-2.0-154.0-0.0","22","49294","","NaN","","","","null","NaN","152","","Stimuli/Experimental_stims/localizer/objects/carlos-felipe-ramirez-mesa-HW7bfB3ERSQ-unsplash.jpg","1","objects","","0","1","0","0.4","198.10000000000082"
"","iti_localizer","","html-keyboard-response","363","146020","0.0-2.0-154.0-1.0","22","49294","","null","","","","null","","152","","","1","","","","","","0.3","198.50000000000082"
"","localizer","","html-keyboard-response","364","146432","0.0-2.0-155.0-0.0","22","49294","","NaN","","","","null","NaN","153","","Stimuli/Experimental_stims/localizer/objects/dario-mendez-hnJ2VNZzbns-unsplash.jpg","1","objects","","0","1","0","0.4","198.80000000000084"
"","iti_localizer","","html-keyboard-response","365","146744","0.0-2.0-155.0-1.0","22","49294","","null","","","","null","","153","","","1","","","","","","0.3","199.20000000000084"
"","localizer","","html-keyboard-response","366","147156","0.0-2.0-156.0-0.0","22","49294","","NaN","","","","null","NaN","154","","Stimuli/Experimental_stims/localizer/objects/recha-oktaviani-t__61ap00Mc-unsplash.jpg","1","objects","","0","1","0","0.4","199.50000000000085"
"","iti_localizer","","html-keyboard-response","367","147470","0.0-2.0-156.0-1.0","22","49294","","null","","","","null","","154","","","1","","","","","","0.3","199.90000000000086"
"","localizer","","html-keyboard-response","368","147877","0.0-2.0-157.0-0.0","22","49294","","NaN","","","","null","NaN","155","","Stimuli/Experimental_stims/localizer/objects/dario-mendez-WmF_XLF4-Rs-unsplash.jpg","1","objects","","0","1","0","0.4","200.20000000000087"
"","iti_localizer","","html-keyboard-response","369","148189","0.0-2.0-157.0-1.0","22","49294","","null","","","","null","","155","","","1","","","","","","0.3","200.60000000000088"
"","localizer","","html-keyboard-response","370","148595","0.0-2.0-158.0-0.0","22","49294","","NaN","","","","null","NaN","156","","Stimuli/Experimental_stims/localizer/objects/collab-media-eddtBBbaw0Y-unsplash.jpg","1","objects","","0","1","0","0.4","200.9000000000009"
"","iti_localizer","","html-keyboard-response","371","148911","0.0-2.0-158.0-1.0","22","49294","","null","","","","null","","156","","","1","","","","","","0.3","201.3000000000009"
"","localizer","","html-keyboard-response","372","149329","0.0-2.0-159.0-0.0","22","49294","","NaN","","","","null","NaN","157","","Stimuli/Experimental_stims/localizer/objects/barrett-ward-0lMpQaXfOCg-unsplash.jpg","1","objects","","0","1","0","0.4","201.6000000000009"
"","iti_localizer","","html-keyboard-response","373","149640","0.0-2.0-159.0-1.0","22","49294","","null","","","","null","","157","","","1","","","","","","0.3","202.0000000000009"
"","localizer","","html-keyboard-response","374","150052","0.0-2.0-160.0-0.0","22","49294","","NaN","","","","null","NaN","158","","Stimuli/Experimental_stims/localizer/objects/oriento-maVIpNNtmlQ-unsplash.jpg","1","objects","","0","1","0","0.4","202.30000000000092"
"","iti_localizer","","html-keyboard-response","375","150370","0.0-2.0-160.0-1.0","22","49294","","null","","","","null","","158","","","1","","","","","","0.3","202.70000000000093"
"","localizer","","html-keyboard-response","376","150786","0.0-2.0-161.0-0.0","22","49294","","NaN","","","","null","NaN","159","","Stimuli/Experimental_stims/localizer/objects/mockup-graphics-U6ZMEefFGx8-unsplash.jpg","1","objects","","1","1","0","0.4","203.00000000000094"
"","iti_localizer","","html-keyboard-response","377","151095","0.0-2.0-161.0-1.0","22","49294","","null","","","","null","","159","","","1","","","","","","0.3","203.40000000000094"
"","localizer","","html-keyboard-response","378","151514","0.0-2.0-162.0-0.0","22","49294","","NaN","","","","null","NaN","160","","Stimuli/Experimental_stims/localizer/objects/quino-al-8gWEAAXJjtI-unsplash.jpg","1","objects","","0","1","0","0.4","203.70000000000095"
"","iti_localizer","","html-keyboard-response","379","151823","0.0-2.0-162.0-1.0","22","49294","","null","","","","null","","160","","","1","","","","","","0.3","204.10000000000096"
"","localizer","","html-keyboard-response","380","152240","0.0-2.0-163.0-0.0","22","49294","","NaN","","","","null","NaN","161","","Stimuli/Experimental_stims/localizer/objects/carlos-felipe-ramirez-mesa-x9g65MOXsPY-unsplash.jpg","1","objects","","0","1","0","0.4","204.40000000000097"
"","iti_localizer","","html-keyboard-response","381","152552","0.0-2.0-163.0-1.0","22","49294","","null","","","","null","","161","","","1","","","","","","0.3","204.80000000000098"
"","localizer","","html-keyboard-response","382","152968","0.0-2.0-164.0-0.0","22","49294","","NaN","","","","null","NaN","162","","Stimuli/Experimental_stims/localizer/objects/designecologist-hvgd0ygXuQQ-unsplash.jpg","1","objects","","1","1","0","0.4","205.100000000001"
"","iti_localizer","","html-keyboard-response","383","153278","0.0-2.0-164.0-1.0","22","49294","","null","","","","null","","162","","","1","","","","","","0.3","205.500000000001"
"","localizer","","html-keyboard-response","384","153685","0.0-2.0-165.0-0.0","22","49294","","NaN","","","","null","NaN","163","","Stimuli/Experimental_stims/localizer/objects/girl-with-red-hat-Xxg-r574pLE-unsplash.jpg","1","objects","","0","1","0","0.4","205.800000000001"
"","iti_localizer","","html-keyboard-response","385","153997","0.0-2.0-165.0-1.0","22","49294","","null","","","","null","","163","","","1","","","","","","0.3","206.200000000001"
"","localizer","","html-keyboard-response","386","154405","0.0-2.0-166.0-0.0","22","49294","","NaN","","","","null","NaN","164","","Stimuli/Experimental_stims/localizer/objects/engin-akyurt-bbbKzTmY2Gg-unsplash.jpg","1","objects","","0","1","0","0.4","206.50000000000102"
"","iti_localizer","","html-keyboard-response","387","154721","0.0-2.0-166.0-1.0","22","49294","","null","","","","null","","164","","","1","","","","","","0.3","206.90000000000103"
"","localizer","","html-keyboard-response","388","155138","0.0-2.0-167.0-0.0","22","49294","","NaN","","","","null","NaN","165","","Stimuli/Experimental_stims/localizer/objects/nicolas-hippert-kfr_eSrR08M-unsplash.jpg","1","objects","","0","1","0","0.4","207.20000000000104"
"","iti_localizer","","html-keyboard-response","389","155448","0.0-2.0-167.0-1.0","22","49294","","null","","","","null","","165","","","1","","","","","","14","207.60000000000105"
"","localizer","","html-keyboard-response","390","155866","0.0-2.0-168.0-0.0","22","49294","","NaN","","","","null","NaN","166","","Stimuli/Experimental_stims/localizer/faces/hassan-khan-EGVccebWodM-unsplash.jpg","1","faces","","0","1","0","0.4","221.60000000000105"
"","iti_localizer","","html-keyboard-response","391","156173","0.0-2.0-168.0-1.0","22","49294","","null","","","","null","","166","","","1","","","","","","0.3","222.00000000000105"
"","localizer","","html-keyboard-response","392","156582","0.0-2.0-169.0-0.0","22","49294","","NaN","","","","null","NaN","167","","Stimuli/Experimental_stims/localizer/faces/rui-silvestre-hAMJpesMeDE-unsplash.jpg","1","faces","","1","1","0","0.4","222.30000000000106"
"","iti_localizer","","html-keyboard-response","393","156895","0.0-2.0-169.0-1.0","22","49294","","null","","","","null","","167","","","1","","","","","","0.3","222.70000000000107"
"","localizer","","html-keyboard-response","394","157306","0.0-2.0-170.0-0.0","22","49294","","NaN","","","","null","NaN","168","","Stimuli/Experimental_stims/localizer/faces/gabriel-silverio-u3WmDyKGsrY-unsplash.jpg","1","faces","","0","1","0","0.4","223.00000000000108"
"","iti_localizer","","html-keyboard-response","395","157614","0.0-2.0-170.0-1.0","22","49294","","null","","","","null","","168","","","1","","","","","","0.3","223.40000000000109"
"","localizer","","html-keyboard-response","396","158020","0.0-2.0-171.0-0.0","22","49294","","NaN","","","","null","NaN","169","","Stimuli/Experimental_stims/localizer/faces/brooke-cagle-Nm70URdtf3c-unsplash (1).jpg","1","faces","","0","1","0","0.4","223.7000000000011"
"","iti_localizer","","html-keyboard-response","397","158336","0.0-2.0-171.0-1.0","22","49294","","null","","","","null","","169","","","1","","","","","","0.3","224.1000000000011"
"","localizer","","html-keyboard-response","398","158747","0.0-2.0-172.0-0.0","22","49294","","NaN","","","","null","NaN","170","","Stimuli/Experimental_stims/localizer/faces/abstral-official-cyOKLSgkgCE-unsplash.jpg","1","faces","","0","1","0","0.4","224.4000000000011"
"","iti_localizer","","html-keyboard-response","399","159062","0.0-2.0-172.0-1.0","22","49294","","null","","","","null","","170","","","1","","","","","","0.3","224.80000000000112"
"","localizer","","html-keyboard-response","400","159478","0.0-2.0-173.0-0.0","22","49294","","NaN","","","","null","NaN","171","","Stimuli/Experimental_stims/localizer/faces/carlos-vaz-KP4bxnxAilU-unsplash.jpg","1","faces","","0","1","0","0.4","225.10000000000113"
"","iti_localizer","","html-keyboard-response","401","159787","0.0-2.0-173.0-1.0","22","49294","","null","","","","null","","171","","","1","","","","","","0.3","225.50000000000114"
"","localizer","","html-keyboard-response","402","160199","0.0-2.0-174.0-0.0","22","49294","","NaN","","","","null","NaN","172","","Stimuli/Experimental_stims/localizer/faces/christian-ferrer-8vT-DgHZDG4-unsplash.jpg","1","faces","","0","1","0","0.4","225.80000000000115"
"","iti_localizer","","html-keyboard-response","403","160508","0.0-2.0-174.0-1.0","22","49294","","null","","","","null","","172","","","1","","","","","","0.3","226.20000000000115"
"","localizer","","html-keyboard-response","404","160917","0.0-2.0-175.0-0.0","22","49294","","NaN","","","","null","NaN","173","","Stimuli/Experimental_stims/localizer/faces/katsiaryna-endruszkiewicz-BteCp6aq4GI-unsplash.jpg","1","faces","","0","1","0","0.4","226.50000000000117"
"","iti_localizer","","html-keyboard-response","405","161229","0.0-2.0-175.0-1.0","22","49294","","null","","","","null","","173","","","1","","","","","","0.3","226.90000000000117"
"","localizer","","html-keyboard-response","406","161639","0.0-2.0-176.0-0.0","22","49294","","NaN","","","","null","NaN","174","","Stimuli/Experimental_stims/localizer/faces/allef-vinicius-C_1jjFJioWg-unsplash.jpg","1","faces","","1","1","0","0.4","227.20000000000118"
"","iti_localizer","","html-keyboard-response","407","161951","0.0-2.0-176.0-1.0","22","49294","","null","","","","null","","174","","","1","","","","","","0.3","227.6000000000012"
"","localizer","","html-keyboard-response","408","162365","0.0-2.0-177.0-0.0","22","49294","","NaN","","","","null","NaN","175","","Stimuli/Experimental_stims/localizer/faces/ian-dooley-d1UPkiFd04A-unsplash.jpg","1","faces","","0","1","0","0.4","227.9000000000012"
"","iti_localizer","","html-keyboard-response","409","162677","0.0-2.0-177.0-1.0","22","49294","","null","","","","null","","175","","","1","","","","","","0.3","228.3000000000012"
"","localizer","","html-keyboard-response","410","163087","0.0-2.0-178.0-0.0","22","49294","","NaN","","","","null","NaN","176","","Stimuli/Experimental_stims/localizer/faces/philip-martin-5aGUyCW_PJw-unsplash.jpg","1","faces","","0","1","0","0.4","228.60000000000122"
"","iti_localizer","","html-keyboard-response","411","163397","0.0-2.0-178.0-1.0","22","49294","","null","","","","null","","176","","","1","","","","","","0.3","229.00000000000122"
"","localizer","","html-keyboard-response","412","163805","0.0-2.0-179.0-0.0","22","49294","","NaN","","","","null","NaN","177","","Stimuli/Experimental_stims/localizer/faces/elijah-hiett-umfpFoKxIVg-unsplash.jpg","1","faces","","0","1","0","0.4","229.30000000000123"
"","iti_localizer","","html-keyboard-response","413","164115","0.0-2.0-179.0-1.0","22","49294","","null","","","","null","","177","","","1","","","","","","0.3","229.70000000000124"
"","localizer","","html-keyboard-response","414","164524","0.0-2.0-180.0-0.0","22","49294","","NaN","","","","null","NaN","178","","Stimuli/Experimental_stims/localizer/faces/prince-akachi-LWkFHEGpleE-unsplash.jpg","1","faces","","0","1","0","0.4","230.00000000000125"
"","iti_localizer","","html-keyboard-response","415","164838","0.0-2.0-180.0-1.0","22","49294","","null","","","","null","","178","","","1","","","","","","0.3","230.40000000000126"
"","localizer","","html-keyboard-response","416","165246","0.0-2.0-181.0-0.0","22","49294","","NaN","","","","null","NaN","179","","Stimuli/Experimental_stims/localizer/faces/alexis-chloe-TYDkKEgc0Fg-unsplash.jpg","1","faces","","0","1","0","0.4","230.70000000000127"
"","iti_localizer","","html-keyboard-response","417","165557","0.0-2.0-181.0-1.0","22","49294","","null","","","","null","","179","","","1","","","","","","0.3","231.10000000000127"
"","localizer","","html-keyboard-response","418","165963","0.0-2.0-182.0-0.0","22","49294","","NaN","","","","null","NaN","180","","Stimuli/Experimental_stims/localizer/faces/binh-ly-k_4A59MzZTY-unsplash.jpg","1","faces","","0","1","0","0.4","231.40000000000128"
"","iti_localizer","","html-keyboard-response","419","166279","0.0-2.0-182.0-1.0","22","49294","","null","","","","null","","180","","","1","","","","","","0.3","231.8000000000013"
"","localizer","","html-keyboard-response","420","166694","0.0-2.0-183.0-0.0","22","49294","","NaN","","","","null","NaN","181","","Stimuli/Experimental_stims/localizer/faces/hisu-lee-2qvxIr_DXGo-unsplash.jpg","1","faces","","0","1","0","0.4","232.1000000000013"
"","iti_localizer","","html-keyboard-response","421","167008","0.0-2.0-183.0-1.0","22","49294","","null","","","","null","","181","","","1","","","","","","0.3","232.5000000000013"
"","localizer","","html-keyboard-response","422","167432","0.0-2.0-184.0-0.0","22","49294","","NaN","","","","null","NaN","182","","Stimuli/Experimental_stims/localizer/faces/ihor-saveliev-3POm-bxWIN8-unsplash.jpg","1","faces","","0","1","0","0.4","232.80000000000132"
"","iti_localizer","","html-keyboard-response","423","167739","0.0-2.0-184.0-1.0","22","49294","","null","","","","null","","182","","","1","","","","","","0.3","233.20000000000132"
"","localizer","","html-keyboard-response","424","168152","0.0-2.0-185.0-0.0","22","49294","","NaN","","","","null","NaN","183","","Stimuli/Experimental_stims/localizer/faces/christian-buehner-DItYlc26zVI-unsplash.jpg","1","faces","","0","1","0","0.4","233.50000000000134"
"","iti_localizer","","html-keyboard-response","425","168461","0.0-2.0-185.0-1.0","22","49294","","null","","","","null","","183","","","1","","","","","","0.3","233.90000000000134"
"","localizer","","html-keyboard-response","426","168869","0.0-2.0-186.0-0.0","22","49294","","NaN","","","","null","NaN","184","","Stimuli/Experimental_stims/localizer/faces/nick-karvounis-JyO_szjGvUw-unsplash.jpg","1","faces","","0","1","0","0.4","234.20000000000135"
"","iti_localizer","","html-keyboard-response","427","169184","0.0-2.0-186.0-1.0","22","49294","","null","","","","null","","184","","","1","","","","","","0.3","234.60000000000136"
"","localizer","","html-keyboard-response","428","169598","0.0-2.0-187.0-0.0","22","49294","","NaN","","","","null","NaN","185","","Stimuli/Experimental_stims/localizer/faces/joseph-gonzalez-iFgRcqHznqg-unsplash.jpg","1","faces","","0","1","0","0.4","234.90000000000137"
"","iti_localizer","","html-keyboard-response","429","169912","0.0-2.0-187.0-1.0","22","49294","","null","","","","null","","185","","","1","","","","","","14","235.30000000000138"
"","localizer","","html-keyboard-response","430","170322","0.0-2.0-188.0-0.0","22","49294","","NaN","","","","null","NaN","186","","Stimuli/Experimental_stims/localizer/outdoor_scenes/keith-hardy-UVyavSwslOg-unsplash.jpg","1","outdoor_scenes","","0","1","0","0.4","249.30000000000138"
"","iti_localizer","","html-keyboard-response","431","170632","0.0-2.0-188.0-1.0","22","49294","","null","","","","null","","186","","","1","","","","","","0.3","249.70000000000138"
"","localizer","","html-keyboard-response","432","171045","0.0-2.0-189.0-0.0","22","49294","","NaN","","","","null","NaN","187","","Stimuli/Experimental_stims/localizer/outdoor_scenes/kace-rodriguez-p3OzJuT_Dks-unsplash.jpg","1","outdoor_scenes","","1","1","0","0.4","250.0000000000014"
"","iti_localizer","","html-keyboard-response","433","171357","0.0-2.0-189.0-1.0","22","49294","","null","","","","null","","187","","","1","","","","","","0.3","250.4000000000014"
"","localizer","","html-keyboard-response","434","171768","0.0-2.0-190.0-0.0","22","49294","","NaN","","","","null","NaN","188","","Stimuli/Experimental_stims/localizer/outdoor_scenes/adam-kool-ndN00KmbJ1c-unsplash.jpg","1","outdoor_scenes","","0","1","0","0.4","250.7000000000014"
"","iti_localizer","","html-keyboard-response","435","172078","0.0-2.0-190.0-1.0","22","49294","","null","","","","null","","188","","","1","","","","","","0.3","251.10000000000142"
"","localizer","","html-keyboard-response","436","172491","0.0-2.0-191.0-0.0","22","49294","","NaN","","","","null","NaN","189","","Stimuli/Experimental_stims/localizer/outdoor_scenes/luca-bravo-VowIFDxogG4-unsplash.jpg","1","outdoor_scenes","","0","1","0","0.4","251.40000000000143"
"","iti_localizer","","html-keyboard-response","437","172805","0.0-2.0-191.0-1.0","22","49294","","null","","","","null","","189","","","1","","","","","","0.3","251.80000000000143"
"","localizer","","html-keyboard-response","438","173214","0.0-2.0-192.0-0.0","22","49294","","NaN","","","","null","NaN","190","","Stimuli/Experimental_stims/localizer/outdoor_scenes/wai-siew-mTFyV8oNDzU-unsplash.jpg","1","outdoor_scenes","","0","1","0","0.4","252.10000000000144"
"","iti_localizer","","html-keyboard-response","439","173528","0.0-2.0-192.0-1.0","22","49294","","null","","","","null","","190","","","1","","","","","","0.3","252.50000000000145"
"","localizer","","html-keyboard-response","440","173943","0.0-2.0-193.0-0.0","22","49294","","NaN","","","","null","NaN","191","","Stimuli/Experimental_stims/localizer/outdoor_scenes/jeremy-cai-ucYWe5mzTMU-unsplash.jpg","1","outdoor_scenes","","0","1","0","0.4","252.80000000000146"
"","iti_localizer","","html-keyboard-response","441","174253","0.0-2.0-193.0-1.0","22","49294","","null","","","","null","","191","","","1","","","","","","0.3","253.20000000000147"
"","localizer","","html-keyboard-response","442","174664","0.0-2.0-194.0-0.0","22","49294","","NaN","","","","null","NaN","192","","Stimuli/Experimental_stims/localizer/outdoor_scenes/dawid-zawila--G3rw6Y02D0-unsplash.jpg","1","outdoor_scenes","","0","1","0","0.4","253.50000000000148"
"","iti_localizer","","html-keyboard-response","443","174972","0.0-2.0-194.0-1.0","22","49294","","null","","","","null","","192","","","1","","","","","","0.3","253.90000000000148"
