,PID,trial,pair_id,stim_type,practice,run,block,left_category,right_category,left_stimulus,right_stimulus,left_path,right_path,left_rating,right_rating,iti,scramble_screen_time,scramble_instructed_side,scramble_acc,no_response,rt,left_chosen,chosen_stimulus,unchosen_stimulus,chosen_category,unchosen_category,chosen_path,unchosen_path,long_iti,simulation,version
0,90251,1,prac1,original,1,0,0,,,,,Stimuli/Practice_stims/Deliberation/anthony-delanoix-Q0-fOL2nqZc-unsplash.jpg,Stimuli/Practice_stims/Deliberation/becca-tapert-sY5RjMB1KkE-unsplash.jpg,,,1500,0,,NaN,0,NaN,NaN,NaN,NaN,NaN,NaN,NaN,NaN,0,42,4
1,90251,2,prac2,scramble,1,0,0,,,,,Stimuli/Practice_stims/Deliberation/scramble/scrambled_clay-banks-1KPfcPdbWFM-unsplash.jpg,Stimuli/Practice_stims/Deliberation/scramble/scrambled_melissa-keizer-sV4Pd8wq5_o-unsplash.jpg,,,2500,2500,left,NaN,0,NaN,NaN,NaN,NaN,NaN,NaN,NaN,NaN,0,42,4
2,90251,3,prac3,scramble,1,0,0,,,,,Stimuli/Practice_stims/Deliberation/scramble/scrambled_anthony-delanoix-Q0-fOL2nqZc-unsplash.jpg,Stimuli/Practice_stims/Deliberation/scramble/scrambled_becca-tapert-sY5RjMB1KkE-unsplash.jpg,,,3000,1500,right,NaN,0,NaN,NaN,NaN,NaN,NaN,NaN,NaN,NaN,0,42,4
3,90251,4,prac4,original,1,0,0,,,,,Stimuli/Practice_stims/Deliberation/clay-banks-1KPfcPdbWFM-unsplash.jpg,Stimuli/Practice_stims/Deliberation/melissa-keizer-sV4Pd8wq5_o-unsplash.jpg,,,2000,0,,NaN,0,NaN,NaN,NaN,NaN,NaN,NaN,NaN,NaN,0,42,4
4,90251,5,F,scramble,0,1,1,faces,body_parts,17,35,Stimuli/Experimental_stims/scramble/faces/scrambled_good-faces-xmSWVeGEnJw-unsplash.jpg,Stimuli/Experimental_stims/scramble/body_parts/scrambled_wc-so-KH4AAPjb-tI-unsplash.jpg,NaN,NaN,3500,1100,left,NaN,0,NaN,NaN,NaN,NaN,NaN,NaN,NaN,NaN,1,42,4
5,90251,6,B,scramble,0,1,1,outdoor_scenes,faces,5,13,Stimuli/Experimental_stims/scramble/outdoor_scenes/scrambled_jeff-king-bJHWJeiHfHc-unsplash.jpg,Stimuli/Experimental_stims/scramble/faces/scrambled_daniel-rigdon-dXmXKPP2L4E-unsplash.jpg,NaN,NaN,1700,1500,right,NaN,0,NaN,NaN,NaN,NaN,NaN,NaN,NaN,NaN,0,42,4
6,90251,7,K,original,0,1,1,body_parts,objects,34,39,Stimuli/Experimental_stims/body_parts/wagner-santos-mBWMvIuVnso-unsplash.jpg,Stimuli/Experimental_stims/objects/charlesdeluvio-1-nx1QR5dTE-unsplash.jpg,50,50,1200,0,,NaN,0,NaN,NaN,NaN,NaN,NaN,NaN,NaN,NaN,0,42,4
7,90251,8,G,scramble,0,1,1,objects,outdoor_scenes,43,0,Stimuli/Experimental_stims/scramble/objects/scrambled_jonathan-greenaway-Y4hGgeiFn3s-unsplash.jpg,Stimuli/Experimental_stims/scramble/outdoor_scenes/scrambled_aleksandra-boguslawska-MS7KD9Ti7FQ-unsplash.jpg,NaN,NaN,1500,1000,left,NaN,0,NaN,NaN,NaN,NaN,NaN,NaN,NaN,NaN,0,42,4
8,90251,9,H,scramble,0,1,1,faces,outdoor_scenes,18,11,Stimuli/Experimental_stims/scramble/faces/scrambled_jessica-radanavong-mrYkTuAesKE-unsplash.jpg,Stimuli/Experimental_stims/scramble/outdoor_scenes/scrambled_stephen-leonardi-gyIRjKPXupE-unsplash.jpg,NaN,NaN,2600,2000,right,NaN,0,NaN,NaN,NaN,NaN,NaN,NaN,NaN,NaN,0,42,4
9,90251,10,G,original,0,1,1,objects,outdoor_scenes,43,0,Stimuli/Experimental_stims/objects/jonathan-greenaway-Y4hGgeiFn3s-unsplash.jpg,Stimuli/Experimental_stims/outdoor_scenes/aleksandra-boguslawska-MS7KD9Ti7FQ-unsplash.jpg,50,50,3600,0,,NaN,0,NaN,NaN,NaN,NaN,NaN,NaN,NaN,NaN,1,42,4
10,90251,11,B,original,0,1,1,outdoor_scenes,faces,5,13,Stimuli/Experimental_stims/outdoor_scenes/jeff-king-bJHWJeiHfHc-unsplash.jpg,Stimuli/Experimental_stims/faces/daniel-rigdon-dXmXKPP2L4E-unsplash.jpg,50,50,2300,0,,NaN,0,NaN,NaN,NaN,NaN,NaN,NaN,NaN,NaN,0,42,4
11,90251,12,E,scramble,0,1,1,objects,body_parts,41,26,Stimuli/Experimental_stims/scramble/objects/scrambled_insung-yoon-w2JtIQQXoRU-unsplash.jpg,Stimuli/Experimental_stims/scramble/body_parts/scrambled_engin-akyurt-x_3gyC42btc-unsplash.jpg,NaN,NaN,1800,1300,right,NaN,0,NaN,NaN,NaN,NaN,NaN,NaN,NaN,NaN,0,42,4
12,90251,13,A,original,0,1,1,outdoor_scenes,objects,7,45,Stimuli/Experimental_stims/outdoor_scenes/petr-vysohlid-9fqwGqGLUxc-unsplash.jpg,Stimuli/Experimental_stims/objects/leohoho-rngTKHXumy0-unsplash.jpg,50,50,1400,0,,NaN,0,NaN,NaN,NaN,NaN,NaN,NaN,NaN,NaN,0,42,4
13,90251,14,J,original,0,1,1,faces,objects,15,42,Stimuli/Experimental_stims/faces/erik-lucatero-d2MSDujJl2g-unsplash.jpg,Stimuli/Experimental_stims/objects/jess-bailey-nOeVi8DsN8U-unsplash.jpg,50,50,1400,0,,NaN,0,NaN,NaN,NaN,NaN,NaN,NaN,NaN,NaN,0,42,4
14,90251,15,J,scramble,0,1,1,faces,objects,15,42,Stimuli/Experimental_stims/scramble/faces/scrambled_erik-lucatero-d2MSDujJl2g-unsplash.jpg,Stimuli/Experimental_stims/scramble/objects/scrambled_jess-bailey-nOeVi8DsN8U-unsplash.jpg,NaN,NaN,1300,1300,right,NaN,0,NaN,NaN,NaN,NaN,NaN,NaN,NaN,NaN,0,42,4
15,90251,16,H,original,0,1,1,faces,outdoor_scenes,18,11,Stimuli/Experimental_stims/faces/jessica-radanavong-mrYkTuAesKE-unsplash.jpg,Stimuli/Experimental_stims/outdoor_scenes/stephen-leonardi-gyIRjKPXupE-unsplash.jpg,50,50,1500,0,,NaN,0,NaN,NaN,NaN,NaN,NaN,NaN,NaN,NaN,0,42,4
16,90251,17,K,scramble,0,1,1,body_parts,objects,34,39,Stimuli/Experimental_stims/scramble/body_parts/scrambled_wagner-santos-mBWMvIuVnso-unsplash.jpg,Stimuli/Experimental_stims/scramble/objects/scrambled_charlesdeluvio-1-nx1QR5dTE-unsplash.jpg,NaN,NaN,3800,1800,left,NaN,0,NaN,NaN,NaN,NaN,NaN,NaN,NaN,NaN,1,42,4
17,90251,18,C,original,0,1,1,outdoor_scenes,body_parts,2,30,Stimuli/Experimental_stims/outdoor_scenes/bruno-van-der-kraan-qez8mNJ3ilU-unsplash.jpg,Stimuli/Experimental_stims/body_parts/mika-korhonen-Xodzxosar18-unsplash.jpg,50,50,2400,0,,NaN,0,NaN,NaN,NaN,NaN,NaN,NaN,NaN,NaN,0,42,4
18,90251,19,A,scramble,0,1,1,outdoor_scenes,objects,7,45,Stimuli/Experimental_stims/scramble/outdoor_scenes/scrambled_petr-vysohlid-9fqwGqGLUxc-unsplash.jpg,Stimuli/Experimental_stims/scramble/objects/scrambled_leohoho-rngTKHXumy0-unsplash.jpg,NaN,NaN,2200,1900,left,NaN,0,NaN,NaN,NaN,NaN,NaN,NaN,NaN,NaN,0,42,4
19,90251,20,E,original,0,1,1,objects,body_parts,41,26,Stimuli/Experimental_stims/objects/insung-yoon-w2JtIQQXoRU-unsplash.jpg,Stimuli/Experimental_stims/body_parts/engin-akyurt-x_3gyC42btc-unsplash.jpg,50,50,2000,0,,NaN,0,NaN,NaN,NaN,NaN,NaN,NaN,NaN,NaN,0,42,4
20,90251,21,I,scramble,0,1,1,body_parts,outdoor_scenes,29,8,Stimuli/Experimental_stims/scramble/body_parts/scrambled_manuel-schinner-ZwjFuJ7ebpk-unsplash.jpg,Stimuli/Experimental_stims/scramble/outdoor_scenes/scrambled_samsommer-vddccTqwal8-unsplash.jpg,NaN,NaN,1000,1600,left,NaN,0,NaN,NaN,NaN,NaN,NaN,NaN,NaN,NaN,0,42,4
21,90251,22,L,original,0,1,1,body_parts,faces,24,21,Stimuli/Experimental_stims/body_parts/clay-banks-LjqARJaJotc-unsplash.jpg,Stimuli/Experimental_stims/faces/leilani-angel-K84vnnzxmTQ-unsplash.jpg,50,50,2800,0,,NaN,0,NaN,NaN,NaN,NaN,NaN,NaN,NaN,NaN,1,42,4
22,90251,23,D,scramble,0,1,1,objects,faces,37,23,Stimuli/Experimental_stims/scramble/objects/scrambled_alexander-andrews-VLGWE_SumrA-unsplash.jpg,Stimuli/Experimental_stims/scramble/faces/scrambled_rikonavt-HQjfrvdTfak-unsplash.jpg,NaN,NaN,1100,1300,right,NaN,0,NaN,NaN,NaN,NaN,NaN,NaN,NaN,NaN,0,42,4
23,90251,24,D,original,0,1,1,objects,faces,37,23,Stimuli/Experimental_stims/objects/alexander-andrews-VLGWE_SumrA-unsplash.jpg,Stimuli/Experimental_stims/faces/rikonavt-HQjfrvdTfak-unsplash.jpg,50,50,2600,0,,NaN,0,NaN,NaN,NaN,NaN,NaN,NaN,NaN,NaN,0,42,4
24,90251,25,C,scramble,0,1,1,outdoor_scenes,body_parts,2,30,Stimuli/Experimental_stims/scramble/outdoor_scenes/scrambled_bruno-van-der-kraan-qez8mNJ3ilU-unsplash.jpg,Stimuli/Experimental_stims/scramble/body_parts/scrambled_mika-korhonen-Xodzxosar18-unsplash.jpg,NaN,NaN,1500,1500,right,NaN,0,NaN,NaN,NaN,NaN,NaN,NaN,NaN,NaN,0,42,4
25,90251,26,I,original,0,1,1,body_parts,outdoor_scenes,29,8,Stimuli/Experimental_stims/body_parts/manuel-schinner-ZwjFuJ7ebpk-unsplash.jpg,Stimuli/Experimental_stims/outdoor_scenes/samsommer-vddccTqwal8-unsplash.jpg,50,50,2400,0,,NaN,0,NaN,NaN,NaN,NaN,NaN,NaN,NaN,NaN,0,42,4
26,90251,27,F,original,0,1,1,faces,body_parts,17,35,Stimuli/Experimental_stims/faces/good-faces-xmSWVeGEnJw-unsplash.jpg,Stimuli/Experimental_stims/body_parts/wc-so-KH4AAPjb-tI-unsplash.jpg,50,50,1300,0,,NaN,0,NaN,NaN,NaN,NaN,NaN,NaN,NaN,NaN,0,42,4
27,90251,28,L,scramble,0,1,1,body_parts,faces,24,21,Stimuli/Experimental_stims/scramble/body_parts/scrambled_clay-banks-LjqARJaJotc-unsplash.jpg,Stimuli/Experimental_stims/scramble/faces/scrambled_leilani-angel-K84vnnzxmTQ-unsplash.jpg,NaN,NaN,3400,700,left,NaN,0,NaN,NaN,NaN,NaN,NaN,NaN,NaN,NaN,1,42,4
28,90251,29,D,scramble,0,1,2,objects,faces,37,23,Stimuli/Experimental_stims/scramble/objects/scrambled_alexander-andrews-VLGWE_SumrA-unsplash.jpg,Stimuli/Experimental_stims/scramble/faces/scrambled_rikonavt-HQjfrvdTfak-unsplash.jpg,NaN,NaN,2300,1900,left,NaN,0,NaN,NaN,NaN,NaN,NaN,NaN,NaN,NaN,0,42,4
29,90251,30,J,original,0,1,2,faces,objects,15,42,Stimuli/Experimental_stims/faces/erik-lucatero-d2MSDujJl2g-unsplash.jpg,Stimuli/Experimental_stims/objects/jess-bailey-nOeVi8DsN8U-unsplash.jpg,50,50,1900,0,,NaN,0,NaN,NaN,NaN,NaN,NaN,NaN,NaN,NaN,0,42,4
30,90251,31,H,original,0,1,2,faces,outdoor_scenes,18,11,Stimuli/Experimental_stims/faces/jessica-radanavong-mrYkTuAesKE-unsplash.jpg,Stimuli/Experimental_stims/outdoor_scenes/stephen-leonardi-gyIRjKPXupE-unsplash.jpg,50,50,2400,0,,NaN,0,NaN,NaN,NaN,NaN,NaN,NaN,NaN,NaN,0,42,4
31,90251,32,L,scramble,0,1,2,body_parts,faces,24,21,Stimuli/Experimental_stims/scramble/body_parts/scrambled_clay-banks-LjqARJaJotc-unsplash.jpg,Stimuli/Experimental_stims/scramble/faces/scrambled_leilani-angel-K84vnnzxmTQ-unsplash.jpg,NaN,NaN,2100,1300,left,NaN,0,NaN,NaN,NaN,NaN,NaN,NaN,NaN,NaN,0,42,4
32,90251,33,C,original,0,1,2,outdoor_scenes,body_parts,2,30,Stimuli/Experimental_stims/outdoor_scenes/bruno-van-der-kraan-qez8mNJ3ilU-unsplash.jpg,Stimuli/Experimental_stims/body_parts/mika-korhonen-Xodzxosar18-unsplash.jpg,50,50,3300,0,,NaN,0,NaN,NaN,NaN,NaN,NaN,NaN,NaN,NaN,1,42,4
33,90251,34,L,original,0,1,2,body_parts,faces,24,21,Stimuli/Experimental_stims/body_parts/clay-banks-LjqARJaJotc-unsplash.jpg,Stimuli/Experimental_stims/faces/leilani-angel-K84vnnzxmTQ-unsplash.jpg,50,50,1300,0,,NaN,0,NaN,NaN,NaN,NaN,NaN,NaN,NaN,NaN,0,42,4
34,90251,35,A,scramble,0,1,2,outdoor_scenes,objects,7,45,Stimuli/Experimental_stims/scramble/outdoor_scenes/scrambled_petr-vysohlid-9fqwGqGLUxc-unsplash.jpg,Stimuli/Experimental_stims/scramble/objects/scrambled_leohoho-rngTKHXumy0-unsplash.jpg,NaN,NaN,2000,1200,left,NaN,0,NaN,NaN,NaN,NaN,NaN,NaN,NaN,NaN,0,42,4
35,90251,36,E,scramble,0,1,2,objects,body_parts,41,26,Stimuli/Experimental_stims/scramble/objects/scrambled_insung-yoon-w2JtIQQXoRU-unsplash.jpg,Stimuli/Experimental_stims/scramble/body_parts/scrambled_engin-akyurt-x_3gyC42btc-unsplash.jpg,NaN,NaN,1000,1000,left,NaN,0,NaN,NaN,NaN,NaN,NaN,NaN,NaN,NaN,0,42,4
36,90251,37,F,original,0,1,2,faces,body_parts,17,35,Stimuli/Experimental_stims/faces/good-faces-xmSWVeGEnJw-unsplash.jpg,Stimuli/Experimental_stims/body_parts/wc-so-KH4AAPjb-tI-unsplash.jpg,50,50,1400,0,,NaN,0,NaN,NaN,NaN,NaN,NaN,NaN,NaN,NaN,0,42,4
37,90251,38,K,scramble,0,1,2,body_parts,objects,34,39,Stimuli/Experimental_stims/scramble/body_parts/scrambled_wagner-santos-mBWMvIuVnso-unsplash.jpg,Stimuli/Experimental_stims/scramble/objects/scrambled_charlesdeluvio-1-nx1QR5dTE-unsplash.jpg,NaN,NaN,1000,1400,right,NaN,0,NaN,NaN,NaN,NaN,NaN,NaN,NaN,NaN,0,42,4
38,90251,39,A,original,0,1,2,outdoor_scenes,objects,7,45,Stimuli/Experimental_stims/outdoor_scenes/petr-vysohlid-9fqwGqGLUxc-unsplash.jpg,Stimuli/Experimental_stims/objects/leohoho-rngTKHXumy0-unsplash.jpg,50,50,1400,0,,NaN,0,NaN,NaN,NaN,NaN,NaN,NaN,NaN,NaN,0,42,4
39,90251,40,H,scramble,0,1,2,faces,outdoor_scenes,18,11,Stimuli/Experimental_stims/scramble/faces/scrambled_jessica-radanavong-mrYkTuAesKE-unsplash.jpg,Stimuli/Experimental_stims/scramble/outdoor_scenes/scrambled_stephen-leonardi-gyIRjKPXupE-unsplash.jpg,NaN,NaN,1000,700,left,NaN,0,NaN,NaN,NaN,NaN,NaN,NaN,NaN,NaN,0,42,4
40,90251,41,D,original,0,1,2,objects,faces,37,23,Stimuli/Experimental_stims/objects/alexander-andrews-VLGWE_SumrA-unsplash.jpg,Stimuli/Experimental_stims/faces/rikonavt-HQjfrvdTfak-unsplash.jpg,50,50,2300,0,,NaN,0,NaN,NaN,NaN,NaN,NaN,NaN,NaN,NaN,0,42,4
41,90251,42,G,scramble,0,1,2,objects,outdoor_scenes,43,0,Stimuli/Experimental_stims/scramble/objects/scrambled_jonathan-greenaway-Y4hGgeiFn3s-unsplash.jpg,Stimuli/Experimental_stims/scramble/outdoor_scenes/scrambled_aleksandra-boguslawska-MS7KD9Ti7FQ-unsplash.jpg,NaN,NaN,1700,1800,right,NaN,0,NaN,NaN,NaN,NaN,NaN,NaN,NaN,NaN,0,42,4
42,90251,43,B,original,0,1,2,outdoor_scenes,faces,5,13,Stimuli/Experimental_stims/outdoor_scenes/jeff-king-bJHWJeiHfHc-unsplash.jpg,Stimuli/Experimental_stims/faces/daniel-rigdon-dXmXKPP2L4E-unsplash.jpg,50,50,1200,0,,NaN,0,NaN,NaN,NaN,NaN,NaN,NaN,NaN,NaN,0,42,4
43,90251,44,E,original,0,1,2,objects,body_parts,41,26,Stimuli/Experimental_stims/objects/insung-yoon-w2JtIQQXoRU-unsplash.jpg,Stimuli/Experimental_stims/body_parts/engin-akyurt-x_3gyC42btc-unsplash.jpg,50,50,2300,0,,NaN,0,NaN,NaN,NaN,NaN,NaN,NaN,NaN,NaN,0,42,4
44,90251,45,B,scramble,0,1,2,outdoor_scenes,faces,5,13,Stimuli/Experimental_stims/scramble/outdoor_scenes/scrambled_jeff-king-bJHWJeiHfHc-unsplash.jpg,Stimuli/Experimental_stims/scramble/faces/scrambled_daniel-rigdon-dXmXKPP2L4E-unsplash.jpg,NaN,NaN,2600,1700,right,NaN,0,NaN,NaN,NaN,NaN,NaN,NaN,NaN,NaN,0,42,4
45,90251,46,F,scramble,0,1,2,faces,body_parts,17,35,Stimuli/Experimental_stims/scramble/faces/scrambled_good-faces-xmSWVeGEnJw-unsplash.jpg,Stimuli/Experimental_stims/scramble/body_parts/scrambled_wc-so-KH4AAPjb-tI-unsplash.jpg,NaN,NaN,3100,1800,right,NaN,0,NaN,NaN,NaN,NaN,NaN,NaN,NaN,NaN,1,42,4
46,90251,47,K,original,0,1,2,body_parts,objects,34,39,Stimuli/Experimental_stims/body_parts/wagner-santos-mBWMvIuVnso-unsplash.jpg,Stimuli/Experimental_stims/objects/charlesdeluvio-1-nx1QR5dTE-unsplash.jpg,50,50,1300,0,,NaN,0,NaN,NaN,NaN,NaN,NaN,NaN,NaN,NaN,0,42,4
47,90251,48,I,original,0,1,2,body_parts,outdoor_scenes,29,8,Stimuli/Experimental_stims/body_parts/manuel-schinner-ZwjFuJ7ebpk-unsplash.jpg,Stimuli/Experimental_stims/outdoor_scenes/samsommer-vddccTqwal8-unsplash.jpg,50,50,1200,0,,NaN,0,NaN,NaN,NaN,NaN,NaN,NaN,NaN,NaN,0,42,4
48,90251,49,J,scramble,0,1,2,faces,objects,15,42,Stimuli/Experimental_stims/scramble/faces/scrambled_erik-lucatero-d2MSDujJl2g-unsplash.jpg,Stimuli/Experimental_stims/scramble/objects/scrambled_jess-bailey-nOeVi8DsN8U-unsplash.jpg,NaN,NaN,1300,1800,left,NaN,0,NaN,NaN,NaN,NaN,NaN,NaN,NaN,NaN,0,42,4
49,90251,50,G,original,0,1,2,objects,outdoor_scenes,43,0,Stimuli/Experimental_stims/objects/jonathan-greenaway-Y4hGgeiFn3s-unsplash.jpg,Stimuli/Experimental_stims/outdoor_scenes/aleksandra-boguslawska-MS7KD9Ti7FQ-unsplash.jpg,50,50,2600,0,,NaN,0,NaN,NaN,NaN,NaN,NaN,NaN,NaN,NaN,0,42,4
50,90251,51,C,scramble,0,1,2,outdoor_scenes,body_parts,2,30,Stimuli/Experimental_stims/scramble/outdoor_scenes/scrambled_bruno-van-der-kraan-qez8mNJ3ilU-unsplash.jpg,Stimuli/Experimental_stims/scramble/body_parts/scrambled_mika-korhonen-Xodzxosar18-unsplash.jpg,NaN,NaN,2200,1600,right,NaN,0,NaN,NaN,NaN,NaN,NaN,NaN,NaN,NaN,0,42,4
51,90251,52,I,scramble,0,1,2,body_parts,outdoor_scenes,29,8,Stimuli/Experimental_stims/scramble/body_parts/scrambled_manuel-schinner-ZwjFuJ7ebpk-unsplash.jpg,Stimuli/Experimental_stims/scramble/outdoor_scenes/scrambled_samsommer-vddccTqwal8-unsplash.jpg,NaN,NaN,2800,1300,right,NaN,0,NaN,NaN,NaN,NaN,NaN,NaN,NaN,NaN,1,42,4
52,90251,53,D,original,0,2,3,objects,faces,37,23,Stimuli/Experimental_stims/objects/alexander-andrews-VLGWE_SumrA-unsplash.jpg,Stimuli/Experimental_stims/faces/rikonavt-HQjfrvdTfak-unsplash.jpg,50,50,3200,0,,NaN,0,NaN,NaN,NaN,NaN,NaN,NaN,NaN,NaN,1,5,4
53,90251,54,E,original,0,2,3,objects,body_parts,41,26,Stimuli/Experimental_stims/objects/insung-yoon-w2JtIQQXoRU-unsplash.jpg,Stimuli/Experimental_stims/body_parts/engin-akyurt-x_3gyC42btc-unsplash.jpg,50,50,2100,0,,NaN,0,NaN,NaN,NaN,NaN,NaN,NaN,NaN,NaN,0,5,4
54,90251,55,F,scramble,0,2,3,faces,body_parts,17,35,Stimuli/Experimental_stims/scramble/faces/scrambled_good-faces-xmSWVeGEnJw-unsplash.jpg,Stimuli/Experimental_stims/scramble/body_parts/scrambled_wc-so-KH4AAPjb-tI-unsplash.jpg,NaN,NaN,1900,1100,left,NaN,0,NaN,NaN,NaN,NaN,NaN,NaN,NaN,NaN,0,5,4
55,90251,56,D,scramble,0,2,3,objects,faces,37,23,Stimuli/Experimental_stims/scramble/objects/scrambled_alexander-andrews-VLGWE_SumrA-unsplash.jpg,Stimuli/Experimental_stims/scramble/faces/scrambled_rikonavt-HQjfrvdTfak-unsplash.jpg,NaN,NaN,1800,1500,right,NaN,0,NaN,NaN,NaN,NaN,NaN,NaN,NaN,NaN,0,5,4
56,90251,57,I,original,0,2,3,body_parts,outdoor_scenes,29,8,Stimuli/Experimental_stims/body_parts/manuel-schinner-ZwjFuJ7ebpk-unsplash.jpg,Stimuli/Experimental_stims/outdoor_scenes/samsommer-vddccTqwal8-unsplash.jpg,50,50,1800,0,,NaN,0,NaN,NaN,NaN,NaN,NaN,NaN,NaN,NaN,0,5,4
57,90251,58,H,scramble,0,2,3,faces,outdoor_scenes,18,11,Stimuli/Experimental_stims/scramble/faces/scrambled_jessica-radanavong-mrYkTuAesKE-unsplash.jpg,Stimuli/Experimental_stims/scramble/outdoor_scenes/scrambled_stephen-leonardi-gyIRjKPXupE-unsplash.jpg,NaN,NaN,1300,1100,left,NaN,0,NaN,NaN,NaN,NaN,NaN,NaN,NaN,NaN,0,5,4
58,90251,59,B,original,0,2,3,outdoor_scenes,faces,5,13,Stimuli/Experimental_stims/outdoor_scenes/jeff-king-bJHWJeiHfHc-unsplash.jpg,Stimuli/Experimental_stims/faces/daniel-rigdon-dXmXKPP2L4E-unsplash.jpg,50,50,3500,0,,NaN,0,NaN,NaN,NaN,NaN,NaN,NaN,NaN,NaN,1,5,4
59,90251,60,C,scramble,0,2,3,outdoor_scenes,body_parts,2,30,Stimuli/Experimental_stims/scramble/outdoor_scenes/scrambled_bruno-van-der-kraan-qez8mNJ3ilU-unsplash.jpg,Stimuli/Experimental_stims/scramble/body_parts/scrambled_mika-korhonen-Xodzxosar18-unsplash.jpg,NaN,NaN,1100,1000,left,NaN,0,NaN,NaN,NaN,NaN,NaN,NaN,NaN,NaN,0,5,4
60,90251,61,J,original,0,2,3,faces,objects,15,42,Stimuli/Experimental_stims/faces/erik-lucatero-d2MSDujJl2g-unsplash.jpg,Stimuli/Experimental_stims/objects/jess-bailey-nOeVi8DsN8U-unsplash.jpg,50,50,1900,0,,NaN,0,NaN,NaN,NaN,NaN,NaN,NaN,NaN,NaN,0,5,4
61,90251,62,G,scramble,0,2,3,objects,outdoor_scenes,43,0,Stimuli/Experimental_stims/scramble/objects/scrambled_jonathan-greenaway-Y4hGgeiFn3s-unsplash.jpg,Stimuli/Experimental_stims/scramble/outdoor_scenes/scrambled_aleksandra-boguslawska-MS7KD9Ti7FQ-unsplash.jpg,NaN,NaN,2200,1300,right,NaN,0,NaN,NaN,NaN,NaN,NaN,NaN,NaN,NaN,0,5,4
62,90251,63,J,scramble,0,2,3,faces,objects,15,42,Stimuli/Experimental_stims/scramble/faces/scrambled_erik-lucatero-d2MSDujJl2g-unsplash.jpg,Stimuli/Experimental_stims/scramble/objects/scrambled_jess-bailey-nOeVi8DsN8U-unsplash.jpg,NaN,NaN,2100,700,right,NaN,0,NaN,NaN,NaN,NaN,NaN,NaN,NaN,NaN,0,5,4
63,90251,64,G,original,0,2,3,objects,outdoor_scenes,43,0,Stimuli/Experimental_stims/objects/jonathan-greenaway-Y4hGgeiFn3s-unsplash.jpg,Stimuli/Experimental_stims/outdoor_scenes/aleksandra-boguslawska-MS7KD9Ti7FQ-unsplash.jpg,50,50,1700,0,,NaN,0,NaN,NaN,NaN,NaN,NaN,NaN,NaN,NaN,0,5,4
64,90251,65,L,original,0,2,3,body_parts,faces,24,21,Stimuli/Experimental_stims/body_parts/clay-banks-LjqARJaJotc-unsplash.jpg,Stimuli/Experimental_stims/faces/leilani-angel-K84vnnzxmTQ-unsplash.jpg,50,50,1900,0,,NaN,0,NaN,NaN,NaN,NaN,NaN,NaN,NaN,NaN,0,5,4
65,90251,66,A,scramble,0,2,3,outdoor_scenes,objects,7,45,Stimuli/Experimental_stims/scramble/outdoor_scenes/scrambled_petr-vysohlid-9fqwGqGLUxc-unsplash.jpg,Stimuli/Experimental_stims/scramble/objects/scrambled_leohoho-rngTKHXumy0-unsplash.jpg,NaN,NaN,2500,1400,left,NaN,0,NaN,NaN,NaN,NaN,NaN,NaN,NaN,NaN,0,5,4
66,90251,67,C,original,0,2,3,outdoor_scenes,body_parts,2,30,Stimuli/Experimental_stims/outdoor_scenes/bruno-van-der-kraan-qez8mNJ3ilU-unsplash.jpg,Stimuli/Experimental_stims/body_parts/mika-korhonen-Xodzxosar18-unsplash.jpg,50,50,1500,0,,NaN,0,NaN,NaN,NaN,NaN,NaN,NaN,NaN,NaN,0,5,4
67,90251,68,H,original,0,2,3,faces,outdoor_scenes,18,11,Stimuli/Experimental_stims/faces/jessica-radanavong-mrYkTuAesKE-unsplash.jpg,Stimuli/Experimental_stims/outdoor_scenes/stephen-leonardi-gyIRjKPXupE-unsplash.jpg,50,50,3200,0,,NaN,0,NaN,NaN,NaN,NaN,NaN,NaN,NaN,NaN,1,5,4
68,90251,69,K,scramble,0,2,3,body_parts,objects,34,39,Stimuli/Experimental_stims/scramble/body_parts/scrambled_wagner-santos-mBWMvIuVnso-unsplash.jpg,Stimuli/Experimental_stims/scramble/objects/scrambled_charlesdeluvio-1-nx1QR5dTE-unsplash.jpg,NaN,NaN,2200,900,left,NaN,0,NaN,NaN,NaN,NaN,NaN,NaN,NaN,NaN,0,5,4
69,90251,70,L,scramble,0,2,3,body_parts,faces,24,21,Stimuli/Experimental_stims/scramble/body_parts/scrambled_clay-banks-LjqARJaJotc-unsplash.jpg,Stimuli/Experimental_stims/scramble/faces/scrambled_leilani-angel-K84vnnzxmTQ-unsplash.jpg,NaN,NaN,1500,1200,left,NaN,0,NaN,NaN,NaN,NaN,NaN,NaN,NaN,NaN,0,5,4
70,90251,71,A,original,0,2,3,outdoor_scenes,objects,7,45,Stimuli/Experimental_stims/outdoor_scenes/petr-vysohlid-9fqwGqGLUxc-unsplash.jpg,Stimuli/Experimental_stims/objects/leohoho-rngTKHXumy0-unsplash.jpg,50,50,1900,0,,NaN,0,NaN,NaN,NaN,NaN,NaN,NaN,NaN,NaN,0,5,4
71,90251,72,E,scramble,0,2,3,objects,body_parts,41,26,Stimuli/Experimental_stims/scramble/objects/scrambled_insung-yoon-w2JtIQQXoRU-unsplash.jpg,Stimuli/Experimental_stims/scramble/body_parts/scrambled_engin-akyurt-x_3gyC42btc-unsplash.jpg,NaN,NaN,1200,900,right,NaN,0,NaN,NaN,NaN,NaN,NaN,NaN,NaN,NaN,0,5,4
72,90251,73,F,original,0,2,3,faces,body_parts,17,35,Stimuli/Experimental_stims/faces/good-faces-xmSWVeGEnJw-unsplash.jpg,Stimuli/Experimental_stims/body_parts/wc-so-KH4AAPjb-tI-unsplash.jpg,50,50,1600,0,,NaN,0,NaN,NaN,NaN,NaN,NaN,NaN,NaN,NaN,0,5,4
73,90251,74,I,scramble,0,2,3,body_parts,outdoor_scenes,29,8,Stimuli/Experimental_stims/scramble/body_parts/scrambled_manuel-schinner-ZwjFuJ7ebpk-unsplash.jpg,Stimuli/Experimental_stims/scramble/outdoor_scenes/scrambled_samsommer-vddccTqwal8-unsplash.jpg,NaN,NaN,1300,1100,right,NaN,0,NaN,NaN,NaN,NaN,NaN,NaN,NaN,NaN,0,5,4
74,90251,75,K,original,0,2,3,body_parts,objects,34,39,Stimuli/Experimental_stims/body_parts/wagner-santos-mBWMvIuVnso-unsplash.jpg,Stimuli/Experimental_stims/objects/charlesdeluvio-1-nx1QR5dTE-unsplash.jpg,50,50,1100,0,,NaN,0,NaN,NaN,NaN,NaN,NaN,NaN,NaN,NaN,0,5,4
75,90251,76,B,scramble,0,2,3,outdoor_scenes,faces,5,13,Stimuli/Experimental_stims/scramble/outdoor_scenes/scrambled_jeff-king-bJHWJeiHfHc-unsplash.jpg,Stimuli/Experimental_stims/scramble/faces/scrambled_daniel-rigdon-dXmXKPP2L4E-unsplash.jpg,NaN,NaN,2200,1400,right,NaN,0,NaN,NaN,NaN,NaN,NaN,NaN,NaN,NaN,0,5,4
76,90251,77,F,scramble,0,2,4,faces,body_parts,17,35,Stimuli/Experimental_stims/scramble/faces/scrambled_good-faces-xmSWVeGEnJw-unsplash.jpg,Stimuli/Experimental_stims/scramble/body_parts/scrambled_wc-so-KH4AAPjb-tI-unsplash.jpg,NaN,NaN,2400,200,left,NaN,0,NaN,NaN,NaN,NaN,NaN,NaN,NaN,NaN,0,5,4
77,90251,78,F,original,0,2,4,faces,body_parts,17,35,Stimuli/Experimental_stims/faces/good-faces-xmSWVeGEnJw-unsplash.jpg,Stimuli/Experimental_stims/body_parts/wc-so-KH4AAPjb-tI-unsplash.jpg,50,50,2900,0,,NaN,0,NaN,NaN,NaN,NaN,NaN,NaN,NaN,NaN,1,5,4
78,90251,79,A,original,0,2,4,outdoor_scenes,objects,7,45,Stimuli/Experimental_stims/outdoor_scenes/petr-vysohlid-9fqwGqGLUxc-unsplash.jpg,Stimuli/Experimental_stims/objects/leohoho-rngTKHXumy0-unsplash.jpg,50,50,1000,0,,NaN,0,NaN,NaN,NaN,NaN,NaN,NaN,NaN,NaN,0,5,4
79,90251,80,D,scramble,0,2,4,objects,faces,37,23,Stimuli/Experimental_stims/scramble/objects/scrambled_alexander-andrews-VLGWE_SumrA-unsplash.jpg,Stimuli/Experimental_stims/scramble/faces/scrambled_rikonavt-HQjfrvdTfak-unsplash.jpg,NaN,NaN,2600,1500,right,NaN,0,NaN,NaN,NaN,NaN,NaN,NaN,NaN,NaN,0,5,4
80,90251,81,G,scramble,0,2,4,objects,outdoor_scenes,43,0,Stimuli/Experimental_stims/scramble/objects/scrambled_jonathan-greenaway-Y4hGgeiFn3s-unsplash.jpg,Stimuli/Experimental_stims/scramble/outdoor_scenes/scrambled_aleksandra-boguslawska-MS7KD9Ti7FQ-unsplash.jpg,NaN,NaN,1200,1100,left,NaN,0,NaN,NaN,NaN,NaN,NaN,NaN,NaN,NaN,0,5,4
81,90251,82,J,original,0,2,4,faces,objects,15,42,Stimuli/Experimental_stims/faces/erik-lucatero-d2MSDujJl2g-unsplash.jpg,Stimuli/Experimental_stims/objects/jess-bailey-nOeVi8DsN8U-unsplash.jpg,50,50,2100,0,,NaN,0,NaN,NaN,NaN,NaN,NaN,NaN,NaN,NaN,0,5,4
82,90251,83,A,scramble,0,2,4,outdoor_scenes,objects,7,45,Stimuli/Experimental_stims/scramble/outdoor_scenes/scrambled_petr-vysohlid-9fqwGqGLUxc-unsplash.jpg,Stimuli/Experimental_stims/scramble/objects/scrambled_leohoho-rngTKHXumy0-unsplash.jpg,NaN,NaN,4400,500,left,NaN,0,NaN,NaN,NaN,NaN,NaN,NaN,NaN,NaN,1,5,4
83,90251,84,C,original,0,2,4,outdoor_scenes,body_parts,2,30,Stimuli/Experimental_stims/outdoor_scenes/bruno-van-der-kraan-qez8mNJ3ilU-unsplash.jpg,Stimuli/Experimental_stims/body_parts/mika-korhonen-Xodzxosar18-unsplash.jpg,50,50,1500,0,,NaN,0,NaN,NaN,NaN,NaN,NaN,NaN,NaN,NaN,0,5,4
84,90251,85,B,original,0,2,4,outdoor_scenes,faces,5,13,Stimuli/Experimental_stims/outdoor_scenes/jeff-king-bJHWJeiHfHc-unsplash.jpg,Stimuli/Experimental_stims/faces/daniel-rigdon-dXmXKPP2L4E-unsplash.jpg,50,50,1200,0,,NaN,0,NaN,NaN,NaN,NaN,NaN,NaN,NaN,NaN,0,5,4
85,90251,86,J,scramble,0,2,4,faces,objects,15,42,Stimuli/Experimental_stims/scramble/faces/scrambled_erik-lucatero-d2MSDujJl2g-unsplash.jpg,Stimuli/Experimental_stims/scramble/objects/scrambled_jess-bailey-nOeVi8DsN8U-unsplash.jpg,NaN,NaN,1200,1300,right,NaN,0,NaN,NaN,NaN,NaN,NaN,NaN,NaN,NaN,0,5,4
86,90251,87,G,original,0,2,4,objects,outdoor_scenes,43,0,Stimuli/Experimental_stims/objects/jonathan-greenaway-Y4hGgeiFn3s-unsplash.jpg,Stimuli/Experimental_stims/outdoor_scenes/aleksandra-boguslawska-MS7KD9Ti7FQ-unsplash.jpg,50,50,2500,0,,NaN,0,NaN,NaN,NaN,NaN,NaN,NaN,NaN,NaN,0,5,4
87,90251,88,C,scramble,0,2,4,outdoor_scenes,body_parts,2,30,Stimuli/Experimental_stims/scramble/outdoor_scenes/scrambled_bruno-van-der-kraan-qez8mNJ3ilU-unsplash.jpg,Stimuli/Experimental_stims/scramble/body_parts/scrambled_mika-korhonen-Xodzxosar18-unsplash.jpg,NaN,NaN,2900,1000,right,NaN,0,NaN,NaN,NaN,NaN,NaN,NaN,NaN,NaN,1,5,4
88,90251,89,H,scramble,0,2,4,faces,outdoor_scenes,18,11,Stimuli/Experimental_stims/scramble/faces/scrambled_jessica-radanavong-mrYkTuAesKE-unsplash.jpg,Stimuli/Experimental_stims/scramble/outdoor_scenes/scrambled_stephen-leonardi-gyIRjKPXupE-unsplash.jpg,NaN,NaN,1300,1500,left,NaN,0,NaN,NaN,NaN,NaN,NaN,NaN,NaN,NaN,0,5,4
89,90251,90,K,original,0,2,4,body_parts,objects,34,39,Stimuli/Experimental_stims/body_parts/wagner-santos-mBWMvIuVnso-unsplash.jpg,Stimuli/Experimental_stims/objects/charlesdeluvio-1-nx1QR5dTE-unsplash.jpg,50,50,1100,0,,NaN,0,NaN,NaN,NaN,NaN,NaN,NaN,NaN,NaN,0,5,4
90,90251,91,L,original,0,2,4,body_parts,faces,24,21,Stimuli/Experimental_stims/body_parts/clay-banks-LjqARJaJotc-unsplash.jpg,Stimuli/Experimental_stims/faces/leilani-angel-K84vnnzxmTQ-unsplash.jpg,50,50,2500,0,,NaN,0,NaN,NaN,NaN,NaN,NaN,NaN,NaN,NaN,0,5,4
91,90251,92,I,scramble,0,2,4,body_parts,outdoor_scenes,29,8,Stimuli/Experimental_stims/scramble/body_parts/scrambled_manuel-schinner-ZwjFuJ7ebpk-unsplash.jpg,Stimuli/Experimental_stims/scramble/outdoor_scenes/scrambled_samsommer-vddccTqwal8-unsplash.jpg,NaN,NaN,1500,700,left,NaN,0,NaN,NaN,NaN,NaN,NaN,NaN,NaN,NaN,0,5,4
92,90251,93,I,original,0,2,4,body_parts,outdoor_scenes,29,8,Stimuli/Experimental_stims/body_parts/manuel-schinner-ZwjFuJ7ebpk-unsplash.jpg,Stimuli/Experimental_stims/outdoor_scenes/samsommer-vddccTqwal8-unsplash.jpg,50,50,1000,0,,NaN,0,NaN,NaN,NaN,NaN,NaN,NaN,NaN,NaN,0,5,4
93,90251,94,L,scramble,0,2,4,body_parts,faces,24,21,Stimuli/Experimental_stims/scramble/body_parts/scrambled_clay-banks-LjqARJaJotc-unsplash.jpg,Stimuli/Experimental_stims/scramble/faces/scrambled_leilani-angel-K84vnnzxmTQ-unsplash.jpg,NaN,NaN,1900,500,right,NaN,0,NaN,NaN,NaN,NaN,NaN,NaN,NaN,NaN,0,5,4
94,90251,95,D,original,0,2,4,objects,faces,37,23,Stimuli/Experimental_stims/objects/alexander-andrews-VLGWE_SumrA-unsplash.jpg,Stimuli/Experimental_stims/faces/rikonavt-HQjfrvdTfak-unsplash.jpg,50,50,4400,0,,NaN,0,NaN,NaN,NaN,NaN,NaN,NaN,NaN,NaN,1,5,4
95,90251,96,B,scramble,0,2,4,outdoor_scenes,faces,5,13,Stimuli/Experimental_stims/scramble/outdoor_scenes/scrambled_jeff-king-bJHWJeiHfHc-unsplash.jpg,Stimuli/Experimental_stims/scramble/faces/scrambled_daniel-rigdon-dXmXKPP2L4E-unsplash.jpg,NaN,NaN,1700,1000,left,NaN,0,NaN,NaN,NaN,NaN,NaN,NaN,NaN,NaN,0,5,4
96,90251,97,E,scramble,0,2,4,objects,body_parts,41,26,Stimuli/Experimental_stims/scramble/objects/scrambled_insung-yoon-w2JtIQQXoRU-unsplash.jpg,Stimuli/Experimental_stims/scramble/body_parts/scrambled_engin-akyurt-x_3gyC42btc-unsplash.jpg,NaN,NaN,1800,1800,right,NaN,0,NaN,NaN,NaN,NaN,NaN,NaN,NaN,NaN,0,5,4
97,90251,98,H,original,0,2,4,faces,outdoor_scenes,18,11,Stimuli/Experimental_stims/faces/jessica-radanavong-mrYkTuAesKE-unsplash.jpg,Stimuli/Experimental_stims/outdoor_scenes/stephen-leonardi-gyIRjKPXupE-unsplash.jpg,50,50,1800,0,,NaN,0,NaN,NaN,NaN,NaN,NaN,NaN,NaN,NaN,0,5,4
98,90251,99,K,scramble,0,2,4,body_parts,objects,34,39,Stimuli/Experimental_stims/scramble/body_parts/scrambled_wagner-santos-mBWMvIuVnso-unsplash.jpg,Stimuli/Experimental_stims/scramble/objects/scrambled_charlesdeluvio-1-nx1QR5dTE-unsplash.jpg,NaN,NaN,1200,100,right,NaN,0,NaN,NaN,NaN,NaN,NaN,NaN,NaN,NaN,0,5,4
99,90251,100,E,original,0,2,4,objects,body_parts,41,26,Stimuli/Experimental_stims/objects/insung-yoon-w2JtIQQXoRU-unsplash.jpg,Stimuli/Experimental_stims/body_parts/engin-akyurt-x_3gyC42btc-unsplash.jpg,50,50,3200,0,,NaN,0,NaN,NaN,NaN,NaN,NaN,NaN,NaN,NaN,1,5,4