,PID,trial,pair_id,stim_type,practice,run,block,left_category,right_category,left_stimulus,right_stimulus,left_path,right_path,left_rating,right_rating,iti,scramble_screen_time,scramble_instructed_side,scramble_acc,no_response,rt,left_chosen,chosen_stimulus,unchosen_stimulus,chosen_category,unchosen_category,chosen_path,unchosen_path,long_iti,simulation,version,chosen_rating,unchosen_rating
0,77890,1,prac1,original,1,0,0,,,,,Stimuli/Practice_stims/Deliberation/anthony-delanoix-Q0-fOL2nqZc-unsplash.jpg,Stimuli/Practice_stims/Deliberation/becca-tapert-sY5RjMB1KkE-unsplash.jpg,,,1500,0,,NaN,0,499,1,,,,,Stimuli/Practice_stims/Deliberation/anthony-delanoix-Q0-fOL2nqZc-unsplash.jpg,Stimuli/Practice_stims/Deliberation/becca-tapert-sY5RjMB1KkE-unsplash.jpg,0,40,3,,
1,77890,2,prac2,scramble,1,0,0,,,,,Stimuli/Practice_stims/Deliberation/scramble/scrambled_clay-banks-1KPfcPdbWFM-unsplash.jpg,Stimuli/Practice_stims/Deliberation/scramble/scrambled_melissa-keizer-sV4Pd8wq5_o-unsplash.jpg,,,2500,2500,left,0,1,NaN,NaN,NaN,NaN,NaN,NaN,NaN,NaN,0,40,3
2,77890,3,prac3,scramble,1,0,0,,,,,Stimuli/Practice_stims/Deliberation/scramble/scrambled_anthony-delanoix-Q0-fOL2nqZc-unsplash.jpg,Stimuli/Practice_stims/Deliberation/scramble/scrambled_becca-tapert-sY5RjMB1KkE-unsplash.jpg,,,3000,1500,right,0,1,NaN,NaN,NaN,NaN,NaN,NaN,NaN,NaN,0,40,3
3,77890,4,prac4,original,1,0,0,,,,,Stimuli/Practice_stims/Deliberation/clay-banks-1KPfcPdbWFM-unsplash.jpg,Stimuli/Practice_stims/Deliberation/melissa-keizer-sV4Pd8wq5_o-unsplash.jpg,,,2000,0,,NaN,1,,NaN,NaN,NaN,NaN,NaN,NaN,NaN,0,40,3,NaN,NaN
4,77890,5,G,scramble,0,1,1,objects,outdoor_scenes,41,8,Stimuli/Experimental_stims/scramble/objects/scrambled_insung-yoon-w2JtIQQXoRU-unsplash.jpg,Stimuli/Experimental_stims/scramble/outdoor_scenes/scrambled_samsommer-vddccTqwal8-unsplash.jpg,NaN,NaN,2900,1000,left,0,1,NaN,NaN,NaN,NaN,NaN,NaN,NaN,NaN,1,40,3
5,77890,6,E,scramble,0,1,1,objects,body_parts,39,29,Stimuli/Experimental_stims/scramble/objects/scrambled_charlesdeluvio-1-nx1QR5dTE-unsplash.jpg,Stimuli/Experimental_stims/scramble/body_parts/scrambled_manuel-schinner-ZwjFuJ7ebpk-unsplash.jpg,NaN,NaN,2500,1300,right,0,1,NaN,NaN,NaN,NaN,NaN,NaN,NaN,NaN,0,40,3
6,77890,7,C,original,0,1,1,outdoor_scenes,body_parts,2,26,Stimuli/Experimental_stims/outdoor_scenes/bruno-van-der-kraan-qez8mNJ3ilU-unsplash.jpg,Stimuli/Experimental_stims/body_parts/engin-akyurt-x_3gyC42btc-unsplash.jpg,50,50,2400,0,,NaN,0,109,1,2,26,outdoor_scenes,body_parts,Stimuli/Experimental_stims/outdoor_scenes/bruno-van-der-kraan-qez8mNJ3ilU-unsplash.jpg,Stimuli/Experimental_stims/body_parts/engin-akyurt-x_3gyC42btc-unsplash.jpg,0,40,3,50,50
7,77890,8,G,original,0,1,1,objects,outdoor_scenes,41,8,Stimuli/Experimental_stims/objects/insung-yoon-w2JtIQQXoRU-unsplash.jpg,Stimuli/Experimental_stims/outdoor_scenes/samsommer-vddccTqwal8-unsplash.jpg,50,50,1300,0,,NaN,0,113,1,41,8,objects,outdoor_scenes,Stimuli/Experimental_stims/objects/insung-yoon-w2JtIQQXoRU-unsplash.jpg,Stimuli/Experimental_stims/outdoor_scenes/samsommer-vddccTqwal8-unsplash.jpg,0,40,3,50,50
8,77890,9,J,scramble,0,1,1,faces,objects,20,42,Stimuli/Experimental_stims/scramble/faces/scrambled_justin-chen-J7Cf1Gch49E-unsplash.jpg,Stimuli/Experimental_stims/scramble/objects/scrambled_jess-bailey-nOeVi8DsN8U-unsplash.jpg,NaN,NaN,1900,1300,right,0,1,NaN,NaN,NaN,NaN,NaN,NaN,NaN,NaN,0,40,3
9,77890,10,I,original,0,1,1,body_parts,outdoor_scenes,25,10,Stimuli/Experimental_stims/body_parts/engin-akyurt-Q2rfH3GW39c-unsplash.jpg,Stimuli/Experimental_stims/outdoor_scenes/shannon-kunkle-dM8INmkyDas-unsplash.jpg,50,50,2100,0,,NaN,0,181,1,25,10,body_parts,outdoor_scenes,Stimuli/Experimental_stims/body_parts/engin-akyurt-Q2rfH3GW39c-unsplash.jpg,Stimuli/Experimental_stims/outdoor_scenes/shannon-kunkle-dM8INmkyDas-unsplash.jpg,0,40,3,50,50
10,77890,11,F,original,0,1,1,faces,body_parts,19,33,Stimuli/Experimental_stims/faces/joel-mott-LaK153ghdig-unsplash.jpg,Stimuli/Experimental_stims/body_parts/tucker-good-36skLT5jZcc-unsplash.jpg,50,50,1200,0,,NaN,0,158,1,19,33,faces,body_parts,Stimuli/Experimental_stims/faces/joel-mott-LaK153ghdig-unsplash.jpg,Stimuli/Experimental_stims/body_parts/tucker-good-36skLT5jZcc-unsplash.jpg,0,40,3,50,50
11,77890,12,D,scramble,0,1,1,objects,faces,46,22,Stimuli/Experimental_stims/scramble/objects/scrambled_mockup-graphics-PNsj6RiHAF4-unsplash.jpg,Stimuli/Experimental_stims/scramble/faces/scrambled_ravi-patel-VMGAbeeJTKo-unsplash.jpg,NaN,NaN,3100,1300,right,0,1,NaN,NaN,NaN,NaN,NaN,NaN,NaN,NaN,1,40,3
12,77890,13,A,scramble,0,1,1,outdoor_scenes,objects,11,37,Stimuli/Experimental_stims/scramble/outdoor_scenes/scrambled_stephen-leonardi-gyIRjKPXupE-unsplash.jpg,Stimuli/Experimental_stims/scramble/objects/scrambled_alexander-andrews-VLGWE_SumrA-unsplash.jpg,NaN,NaN,2200,1900,left,0,1,NaN,NaN,NaN,NaN,NaN,NaN,NaN,NaN,0,40,3
13,77890,14,D,original,0,1,1,objects,faces,46,22,Stimuli/Experimental_stims/objects/mockup-graphics-PNsj6RiHAF4-unsplash.jpg,Stimuli/Experimental_stims/faces/ravi-patel-VMGAbeeJTKo-unsplash.jpg,50,50,2000,0,,NaN,0,218,1,46,22,objects,faces,Stimuli/Experimental_stims/objects/mockup-graphics-PNsj6RiHAF4-unsplash.jpg,Stimuli/Experimental_stims/faces/ravi-patel-VMGAbeeJTKo-unsplash.jpg,0,40,3,50,50
14,77890,15,J,original,0,1,1,faces,objects,20,42,Stimuli/Experimental_stims/faces/justin-chen-J7Cf1Gch49E-unsplash.jpg,Stimuli/Experimental_stims/objects/jess-bailey-nOeVi8DsN8U-unsplash.jpg,50,50,1900,0,,NaN,0,202,1,20,42,faces,objects,Stimuli/Experimental_stims/faces/justin-chen-J7Cf1Gch49E-unsplash.jpg,Stimuli/Experimental_stims/objects/jess-bailey-nOeVi8DsN8U-unsplash.jpg,0,40,3,50,50
15,77890,16,F,scramble,0,1,1,faces,body_parts,19,33,Stimuli/Experimental_stims/scramble/faces/scrambled_joel-mott-LaK153ghdig-unsplash.jpg,Stimuli/Experimental_stims/scramble/body_parts/scrambled_tucker-good-36skLT5jZcc-unsplash.jpg,NaN,NaN,1900,1100,left,0,1,NaN,NaN,NaN,NaN,NaN,NaN,NaN,NaN,0,40,3
16,77890,17,B,scramble,0,1,1,outdoor_scenes,faces,4,17,Stimuli/Experimental_stims/scramble/outdoor_scenes/scrambled_jarrett-kow-1ZOyYPOBn7I-unsplash.jpg,Stimuli/Experimental_stims/scramble/faces/scrambled_good-faces-xmSWVeGEnJw-unsplash.jpg,NaN,NaN,3000,1500,right,0,1,NaN,NaN,NaN,NaN,NaN,NaN,NaN,NaN,1,40,3
17,77890,18,L,original,0,1,1,body_parts,faces,28,14,Stimuli/Experimental_stims/body_parts/ira-vishnevskaya-8DQAvdCby1I-unsplash.jpg,Stimuli/Experimental_stims/faces/david-siglin-UuW4psOb388-unsplash.jpg,50,50,1400,0,,NaN,0,105,0,14,28,faces,body_parts,Stimuli/Experimental_stims/faces/david-siglin-UuW4psOb388-unsplash.jpg,Stimuli/Experimental_stims/body_parts/ira-vishnevskaya-8DQAvdCby1I-unsplash.jpg,0,40,3,50,50
18,77890,19,C,scramble,0,1,1,outdoor_scenes,body_parts,2,26,Stimuli/Experimental_stims/scramble/outdoor_scenes/scrambled_bruno-van-der-kraan-qez8mNJ3ilU-unsplash.jpg,Stimuli/Experimental_stims/scramble/body_parts/scrambled_engin-akyurt-x_3gyC42btc-unsplash.jpg,NaN,NaN,2200,1500,right,0,1,NaN,NaN,NaN,NaN,NaN,NaN,NaN,NaN,0,40,3
19,77890,20,L,scramble,0,1,1,body_parts,faces,28,14,Stimuli/Experimental_stims/scramble/body_parts/scrambled_ira-vishnevskaya-8DQAvdCby1I-unsplash.jpg,Stimuli/Experimental_stims/scramble/faces/scrambled_david-siglin-UuW4psOb388-unsplash.jpg,NaN,NaN,1900,700,left,0,0,170,0,14,28,faces,body_parts,Stimuli/Experimental_stims/scramble/faces/scrambled_david-siglin-UuW4psOb388-unsplash.jpg,Stimuli/Experimental_stims/scramble/body_parts/scrambled_ira-vishnevskaya-8DQAvdCby1I-unsplash.jpg,0,40,3
20,77890,21,A,original,0,1,1,outdoor_scenes,objects,11,37,Stimuli/Experimental_stims/outdoor_scenes/stephen-leonardi-gyIRjKPXupE-unsplash.jpg,Stimuli/Experimental_stims/objects/alexander-andrews-VLGWE_SumrA-unsplash.jpg,50,50,2600,0,,NaN,0,100,0,37,11,objects,outdoor_scenes,Stimuli/Experimental_stims/objects/alexander-andrews-VLGWE_SumrA-unsplash.jpg,Stimuli/Experimental_stims/outdoor_scenes/stephen-leonardi-gyIRjKPXupE-unsplash.jpg,0,40,3,50,50
21,77890,22,E,original,0,1,1,objects,body_parts,39,29,Stimuli/Experimental_stims/objects/charlesdeluvio-1-nx1QR5dTE-unsplash.jpg,Stimuli/Experimental_stims/body_parts/manuel-schinner-ZwjFuJ7ebpk-unsplash.jpg,50,50,1300,0,,NaN,0,76,0,29,39,body_parts,objects,Stimuli/Experimental_stims/body_parts/manuel-schinner-ZwjFuJ7ebpk-unsplash.jpg,Stimuli/Experimental_stims/objects/charlesdeluvio-1-nx1QR5dTE-unsplash.jpg,0,40,3,50,50
22,77890,23,I,scramble,0,1,1,body_parts,outdoor_scenes,25,10,Stimuli/Experimental_stims/scramble/body_parts/scrambled_engin-akyurt-Q2rfH3GW39c-unsplash.jpg,Stimuli/Experimental_stims/scramble/outdoor_scenes/scrambled_shannon-kunkle-dM8INmkyDas-unsplash.jpg,NaN,NaN,1100,1600,left,0,1,NaN,NaN,NaN,NaN,NaN,NaN,NaN,NaN,0,40,3
23,77890,24,H,original,0,1,1,faces,outdoor_scenes,13,3,Stimuli/Experimental_stims/faces/daniel-rigdon-dXmXKPP2L4E-unsplash.jpg,Stimuli/Experimental_stims/outdoor_scenes/henry-be-NLF6hTe4PAg-unsplash.jpg,50,50,2700,0,,NaN,0,133,0,3,13,outdoor_scenes,faces,Stimuli/Experimental_stims/outdoor_scenes/henry-be-NLF6hTe4PAg-unsplash.jpg,Stimuli/Experimental_stims/faces/daniel-rigdon-dXmXKPP2L4E-unsplash.jpg,1,40,3,50,50
24,77890,25,K,scramble,0,1,1,body_parts,objects,35,47,Stimuli/Experimental_stims/scramble/body_parts/scrambled_wc-so-KH4AAPjb-tI-unsplash.jpg,Stimuli/Experimental_stims/scramble/objects/scrambled_ronaldo-arthur-vidal-Cdz_lvnl37k-unsplash.jpg,NaN,NaN,1500,1800,left,0,1,NaN,NaN,NaN,NaN,NaN,NaN,NaN,NaN,0,40,3
25,77890,26,B,original,0,1,1,outdoor_scenes,faces,4,17,Stimuli/Experimental_stims/outdoor_scenes/jarrett-kow-1ZOyYPOBn7I-unsplash.jpg,Stimuli/Experimental_stims/faces/good-faces-xmSWVeGEnJw-unsplash.jpg,50,50,1300,0,,NaN,0,96,0,17,4,faces,outdoor_scenes,Stimuli/Experimental_stims/faces/good-faces-xmSWVeGEnJw-unsplash.jpg,Stimuli/Experimental_stims/outdoor_scenes/jarrett-kow-1ZOyYPOBn7I-unsplash.jpg,0,40,3,50,50
26,77890,27,H,scramble,0,1,1,faces,outdoor_scenes,13,3,Stimuli/Experimental_stims/scramble/faces/scrambled_daniel-rigdon-dXmXKPP2L4E-unsplash.jpg,Stimuli/Experimental_stims/scramble/outdoor_scenes/scrambled_henry-be-NLF6hTe4PAg-unsplash.jpg,NaN,NaN,1800,2000,right,0,1,NaN,NaN,NaN,NaN,NaN,NaN,NaN,NaN,0,40,3
27,77890,28,K,original,0,1,1,body_parts,objects,35,47,Stimuli/Experimental_stims/body_parts/wc-so-KH4AAPjb-tI-unsplash.jpg,Stimuli/Experimental_stims/objects/ronaldo-arthur-vidal-Cdz_lvnl37k-unsplash.jpg,50,50,1700,0,,NaN,0,155,0,47,35,objects,body_parts,Stimuli/Experimental_stims/objects/ronaldo-arthur-vidal-Cdz_lvnl37k-unsplash.jpg,Stimuli/Experimental_stims/body_parts/wc-so-KH4AAPjb-tI-unsplash.jpg,0,40,3,50,50
28,77890,29,C,scramble,0,1,2,outdoor_scenes,body_parts,2,26,Stimuli/Experimental_stims/scramble/outdoor_scenes/scrambled_bruno-van-der-kraan-qez8mNJ3ilU-unsplash.jpg,Stimuli/Experimental_stims/scramble/body_parts/scrambled_engin-akyurt-x_3gyC42btc-unsplash.jpg,NaN,NaN,3200,1600,right,0,1,NaN,NaN,NaN,NaN,NaN,NaN,NaN,NaN,1,40,3
29,77890,30,L,scramble,0,1,2,body_parts,faces,28,14,Stimuli/Experimental_stims/scramble/body_parts/scrambled_ira-vishnevskaya-8DQAvdCby1I-unsplash.jpg,Stimuli/Experimental_stims/scramble/faces/scrambled_david-siglin-UuW4psOb388-unsplash.jpg,NaN,NaN,2400,1300,left,0,1,NaN,NaN,NaN,NaN,NaN,NaN,NaN,NaN,0,40,3
30,77890,31,B,original,0,1,2,outdoor_scenes,faces,4,17,Stimuli/Experimental_stims/outdoor_scenes/jarrett-kow-1ZOyYPOBn7I-unsplash.jpg,Stimuli/Experimental_stims/faces/good-faces-xmSWVeGEnJw-unsplash.jpg,50,50,2100,0,,NaN,0,131,0,17,4,faces,outdoor_scenes,Stimuli/Experimental_stims/faces/good-faces-xmSWVeGEnJw-unsplash.jpg,Stimuli/Experimental_stims/outdoor_scenes/jarrett-kow-1ZOyYPOBn7I-unsplash.jpg,0,40,3,50,50
31,77890,32,I,scramble,0,1,2,body_parts,outdoor_scenes,25,10,Stimuli/Experimental_stims/scramble/body_parts/scrambled_engin-akyurt-Q2rfH3GW39c-unsplash.jpg,Stimuli/Experimental_stims/scramble/outdoor_scenes/scrambled_shannon-kunkle-dM8INmkyDas-unsplash.jpg,NaN,NaN,1100,1300,right,0,1,NaN,NaN,NaN,NaN,NaN,NaN,NaN,NaN,0,40,3
32,77890,33,B,scramble,0,1,2,outdoor_scenes,faces,4,17,Stimuli/Experimental_stims/scramble/outdoor_scenes/scrambled_jarrett-kow-1ZOyYPOBn7I-unsplash.jpg,Stimuli/Experimental_stims/scramble/faces/scrambled_good-faces-xmSWVeGEnJw-unsplash.jpg,NaN,NaN,1200,1700,right,0,1,NaN,NaN,NaN,NaN,NaN,NaN,NaN,NaN,0,40,3
33,77890,34,A,original,0,1,2,outdoor_scenes,objects,11,37,Stimuli/Experimental_stims/outdoor_scenes/stephen-leonardi-gyIRjKPXupE-unsplash.jpg,Stimuli/Experimental_stims/objects/alexander-andrews-VLGWE_SumrA-unsplash.jpg,50,50,1900,0,,NaN,0,153,0,37,11,objects,outdoor_scenes,Stimuli/Experimental_stims/objects/alexander-andrews-VLGWE_SumrA-unsplash.jpg,Stimuli/Experimental_stims/outdoor_scenes/stephen-leonardi-gyIRjKPXupE-unsplash.jpg,0,40,3,50,50
34,77890,35,J,original,0,1,2,faces,objects,20,42,Stimuli/Experimental_stims/faces/justin-chen-J7Cf1Gch49E-unsplash.jpg,Stimuli/Experimental_stims/objects/jess-bailey-nOeVi8DsN8U-unsplash.jpg,50,50,3600,0,,NaN,0,1,0,42,20,objects,faces,Stimuli/Experimental_stims/objects/jess-bailey-nOeVi8DsN8U-unsplash.jpg,Stimuli/Experimental_stims/faces/justin-chen-J7Cf1Gch49E-unsplash.jpg,1,40,3,50,50
35,77890,36,E,scramble,0,1,2,objects,body_parts,39,29,Stimuli/Experimental_stims/scramble/objects/scrambled_charlesdeluvio-1-nx1QR5dTE-unsplash.jpg,Stimuli/Experimental_stims/scramble/body_parts/scrambled_manuel-schinner-ZwjFuJ7ebpk-unsplash.jpg,NaN,NaN,2300,1000,left,0,1,NaN,NaN,NaN,NaN,NaN,NaN,NaN,NaN,0,40,3
36,77890,37,K,original,0,1,2,body_parts,objects,35,47,Stimuli/Experimental_stims/body_parts/wc-so-KH4AAPjb-tI-unsplash.jpg,Stimuli/Experimental_stims/objects/ronaldo-arthur-vidal-Cdz_lvnl37k-unsplash.jpg,50,50,2400,0,,NaN,0,155,0,47,35,objects,body_parts,Stimuli/Experimental_stims/objects/ronaldo-arthur-vidal-Cdz_lvnl37k-unsplash.jpg,Stimuli/Experimental_stims/body_parts/wc-so-KH4AAPjb-tI-unsplash.jpg,0,40,3,50,50
37,77890,38,F,scramble,0,1,2,faces,body_parts,19,33,Stimuli/Experimental_stims/scramble/faces/scrambled_joel-mott-LaK153ghdig-unsplash.jpg,Stimuli/Experimental_stims/scramble/body_parts/scrambled_tucker-good-36skLT5jZcc-unsplash.jpg,NaN,NaN,2200,1800,right,0,1,NaN,NaN,NaN,NaN,NaN,NaN,NaN,NaN,0,40,3
38,77890,39,H,original,0,1,2,faces,outdoor_scenes,13,3,Stimuli/Experimental_stims/faces/daniel-rigdon-dXmXKPP2L4E-unsplash.jpg,Stimuli/Experimental_stims/outdoor_scenes/henry-be-NLF6hTe4PAg-unsplash.jpg,50,50,1000,0,,NaN,0,147,0,3,13,outdoor_scenes,faces,Stimuli/Experimental_stims/outdoor_scenes/henry-be-NLF6hTe4PAg-unsplash.jpg,Stimuli/Experimental_stims/faces/daniel-rigdon-dXmXKPP2L4E-unsplash.jpg,0,40,3,50,50
39,77890,40,J,scramble,0,1,2,faces,objects,20,42,Stimuli/Experimental_stims/scramble/faces/scrambled_justin-chen-J7Cf1Gch49E-unsplash.jpg,Stimuli/Experimental_stims/scramble/objects/scrambled_jess-bailey-nOeVi8DsN8U-unsplash.jpg,NaN,NaN,1400,1800,left,0,1,NaN,NaN,NaN,NaN,NaN,NaN,NaN,NaN,0,40,3
40,77890,41,F,original,0,1,2,faces,body_parts,19,33,Stimuli/Experimental_stims/faces/joel-mott-LaK153ghdig-unsplash.jpg,Stimuli/Experimental_stims/body_parts/tucker-good-36skLT5jZcc-unsplash.jpg,50,50,1300,0,,NaN,0,168,0,33,19,body_parts,faces,Stimuli/Experimental_stims/body_parts/tucker-good-36skLT5jZcc-unsplash.jpg,Stimuli/Experimental_stims/faces/joel-mott-LaK153ghdig-unsplash.jpg,0,40,3,50,50
41,77890,42,K,scramble,0,1,2,body_parts,objects,35,47,Stimuli/Experimental_stims/scramble/body_parts/scrambled_wc-so-KH4AAPjb-tI-unsplash.jpg,Stimuli/Experimental_stims/scramble/objects/scrambled_ronaldo-arthur-vidal-Cdz_lvnl37k-unsplash.jpg,NaN,NaN,4300,1400,right,0,1,NaN,NaN,NaN,NaN,NaN,NaN,NaN,NaN,1,40,3
42,77890,43,E,original,0,1,2,objects,body_parts,39,29,Stimuli/Experimental_stims/objects/charlesdeluvio-1-nx1QR5dTE-unsplash.jpg,Stimuli/Experimental_stims/body_parts/manuel-schinner-ZwjFuJ7ebpk-unsplash.jpg,50,50,1900,0,,NaN,0,121,0,29,39,body_parts,objects,Stimuli/Experimental_stims/body_parts/manuel-schinner-ZwjFuJ7ebpk-unsplash.jpg,Stimuli/Experimental_stims/objects/charlesdeluvio-1-nx1QR5dTE-unsplash.jpg,0,40,3,50,50
43,77890,44,H,scramble,0,1,2,faces,outdoor_scenes,13,3,Stimuli/Experimental_stims/scramble/faces/scrambled_daniel-rigdon-dXmXKPP2L4E-unsplash.jpg,Stimuli/Experimental_stims/scramble/outdoor_scenes/scrambled_henry-be-NLF6hTe4PAg-unsplash.jpg,NaN,NaN,2100,700,left,0,0,183,0,3,13,outdoor_scenes,faces,Stimuli/Experimental_stims/scramble/outdoor_scenes/scrambled_henry-be-NLF6hTe4PAg-unsplash.jpg,Stimuli/Experimental_stims/scramble/faces/scrambled_daniel-rigdon-dXmXKPP2L4E-unsplash.jpg,0,40,3
44,77890,45,I,original,0,1,2,body_parts,outdoor_scenes,25,10,Stimuli/Experimental_stims/body_parts/engin-akyurt-Q2rfH3GW39c-unsplash.jpg,Stimuli/Experimental_stims/outdoor_scenes/shannon-kunkle-dM8INmkyDas-unsplash.jpg,50,50,1200,0,,NaN,0,183,0,10,25,outdoor_scenes,body_parts,Stimuli/Experimental_stims/outdoor_scenes/shannon-kunkle-dM8INmkyDas-unsplash.jpg,Stimuli/Experimental_stims/body_parts/engin-akyurt-Q2rfH3GW39c-unsplash.jpg,0,40,3,50,50
45,77890,46,D,original,0,1,2,objects,faces,46,22,Stimuli/Experimental_stims/objects/mockup-graphics-PNsj6RiHAF4-unsplash.jpg,Stimuli/Experimental_stims/faces/ravi-patel-VMGAbeeJTKo-unsplash.jpg,50,50,2200,0,,NaN,0,0,0,22,46,faces,objects,Stimuli/Experimental_stims/faces/ravi-patel-VMGAbeeJTKo-unsplash.jpg,Stimuli/Experimental_stims/objects/mockup-graphics-PNsj6RiHAF4-unsplash.jpg,0,40,3,50,50
46,77890,47,A,scramble,0,1,2,outdoor_scenes,objects,11,37,Stimuli/Experimental_stims/scramble/outdoor_scenes/scrambled_stephen-leonardi-gyIRjKPXupE-unsplash.jpg,Stimuli/Experimental_stims/scramble/objects/scrambled_alexander-andrews-VLGWE_SumrA-unsplash.jpg,NaN,NaN,1300,1200,left,0,1,NaN,NaN,NaN,NaN,NaN,NaN,NaN,NaN,0,40,3
47,77890,48,G,original,0,1,2,objects,outdoor_scenes,41,8,Stimuli/Experimental_stims/objects/insung-yoon-w2JtIQQXoRU-unsplash.jpg,Stimuli/Experimental_stims/outdoor_scenes/samsommer-vddccTqwal8-unsplash.jpg,50,50,1600,0,,NaN,0,134,0,8,41,outdoor_scenes,objects,Stimuli/Experimental_stims/outdoor_scenes/samsommer-vddccTqwal8-unsplash.jpg,Stimuli/Experimental_stims/objects/insung-yoon-w2JtIQQXoRU-unsplash.jpg,0,40,3,50,50
48,77890,49,L,original,0,1,2,body_parts,faces,28,14,Stimuli/Experimental_stims/body_parts/ira-vishnevskaya-8DQAvdCby1I-unsplash.jpg,Stimuli/Experimental_stims/faces/david-siglin-UuW4psOb388-unsplash.jpg,50,50,1800,0,,NaN,0,121,0,14,28,faces,body_parts,Stimuli/Experimental_stims/faces/david-siglin-UuW4psOb388-unsplash.jpg,Stimuli/Experimental_stims/body_parts/ira-vishnevskaya-8DQAvdCby1I-unsplash.jpg,0,40,3,50,50
49,77890,50,G,scramble,0,1,2,objects,outdoor_scenes,41,8,Stimuli/Experimental_stims/scramble/objects/scrambled_insung-yoon-w2JtIQQXoRU-unsplash.jpg,Stimuli/Experimental_stims/scramble/outdoor_scenes/scrambled_samsommer-vddccTqwal8-unsplash.jpg,NaN,NaN,1300,1800,right,0,1,NaN,NaN,NaN,NaN,NaN,NaN,NaN,NaN,0,40,3
50,77890,51,C,original,0,1,2,outdoor_scenes,body_parts,2,26,Stimuli/Experimental_stims/outdoor_scenes/bruno-van-der-kraan-qez8mNJ3ilU-unsplash.jpg,Stimuli/Experimental_stims/body_parts/engin-akyurt-x_3gyC42btc-unsplash.jpg,50,50,1100,0,,NaN,0,69,0,26,2,body_parts,outdoor_scenes,Stimuli/Experimental_stims/body_parts/engin-akyurt-x_3gyC42btc-unsplash.jpg,Stimuli/Experimental_stims/outdoor_scenes/bruno-van-der-kraan-qez8mNJ3ilU-unsplash.jpg,0,40,3,50,50
51,77890,52,D,scramble,0,1,2,objects,faces,46,22,Stimuli/Experimental_stims/scramble/objects/scrambled_mockup-graphics-PNsj6RiHAF4-unsplash.jpg,Stimuli/Experimental_stims/scramble/faces/scrambled_ravi-patel-VMGAbeeJTKo-unsplash.jpg,NaN,NaN,3200,1900,left,0,1,NaN,NaN,NaN,NaN,NaN,NaN,NaN,NaN,1,40,3
52,77890,53,B,original,0,2,3,outdoor_scenes,faces,4,17,Stimuli/Experimental_stims/outdoor_scenes/jarrett-kow-1ZOyYPOBn7I-unsplash.jpg,Stimuli/Experimental_stims/faces/good-faces-xmSWVeGEnJw-unsplash.jpg,50,50,4700,0,,NaN,0,717,0,17,4,faces,outdoor_scenes,Stimuli/Experimental_stims/faces/good-faces-xmSWVeGEnJw-unsplash.jpg,Stimuli/Experimental_stims/outdoor_scenes/jarrett-kow-1ZOyYPOBn7I-unsplash.jpg,1,40,3,50,50
53,77890,54,B,scramble,0,2,3,outdoor_scenes,faces,4,17,Stimuli/Experimental_stims/scramble/outdoor_scenes/scrambled_jarrett-kow-1ZOyYPOBn7I-unsplash.jpg,Stimuli/Experimental_stims/scramble/faces/scrambled_good-faces-xmSWVeGEnJw-unsplash.jpg,NaN,NaN,1600,1400,right,0,1,NaN,NaN,NaN,NaN,NaN,NaN,NaN,NaN,0,40,3
54,77890,55,I,original,0,2,3,body_parts,outdoor_scenes,25,10,Stimuli/Experimental_stims/body_parts/engin-akyurt-Q2rfH3GW39c-unsplash.jpg,Stimuli/Experimental_stims/outdoor_scenes/shannon-kunkle-dM8INmkyDas-unsplash.jpg,50,50,1100,0,,NaN,0,117,0,10,25,outdoor_scenes,body_parts,Stimuli/Experimental_stims/outdoor_scenes/shannon-kunkle-dM8INmkyDas-unsplash.jpg,Stimuli/Experimental_stims/body_parts/engin-akyurt-Q2rfH3GW39c-unsplash.jpg,0,40,3,50,50
55,77890,56,L,original,0,2,3,body_parts,faces,28,14,Stimuli/Experimental_stims/body_parts/ira-vishnevskaya-8DQAvdCby1I-unsplash.jpg,Stimuli/Experimental_stims/faces/david-siglin-UuW4psOb388-unsplash.jpg,50,50,2400,0,,NaN,0,115,0,14,28,faces,body_parts,Stimuli/Experimental_stims/faces/david-siglin-UuW4psOb388-unsplash.jpg,Stimuli/Experimental_stims/body_parts/ira-vishnevskaya-8DQAvdCby1I-unsplash.jpg,0,40,3,50,50
56,77890,57,J,scramble,0,2,3,faces,objects,20,42,Stimuli/Experimental_stims/scramble/faces/scrambled_justin-chen-J7Cf1Gch49E-unsplash.jpg,Stimuli/Experimental_stims/scramble/objects/scrambled_jess-bailey-nOeVi8DsN8U-unsplash.jpg,NaN,NaN,1400,700,right,1,0,184,0,42,20,objects,faces,Stimuli/Experimental_stims/scramble/objects/scrambled_jess-bailey-nOeVi8DsN8U-unsplash.jpg,Stimuli/Experimental_stims/scramble/faces/scrambled_justin-chen-J7Cf1Gch49E-unsplash.jpg,0,40,3
57,77890,58,E,scramble,0,2,3,objects,body_parts,39,29,Stimuli/Experimental_stims/scramble/objects/scrambled_charlesdeluvio-1-nx1QR5dTE-unsplash.jpg,Stimuli/Experimental_stims/scramble/body_parts/scrambled_manuel-schinner-ZwjFuJ7ebpk-unsplash.jpg,NaN,NaN,1800,900,right,0,1,NaN,NaN,NaN,NaN,NaN,NaN,NaN,NaN,0,40,3
58,77890,59,D,original,0,2,3,objects,faces,46,22,Stimuli/Experimental_stims/objects/mockup-graphics-PNsj6RiHAF4-unsplash.jpg,Stimuli/Experimental_stims/faces/ravi-patel-VMGAbeeJTKo-unsplash.jpg,50,50,3400,0,,NaN,0,60,0,22,46,faces,objects,Stimuli/Experimental_stims/faces/ravi-patel-VMGAbeeJTKo-unsplash.jpg,Stimuli/Experimental_stims/objects/mockup-graphics-PNsj6RiHAF4-unsplash.jpg,1,40,3,50,50
59,77890,60,C,scramble,0,2,3,outdoor_scenes,body_parts,2,26,Stimuli/Experimental_stims/scramble/outdoor_scenes/scrambled_bruno-van-der-kraan-qez8mNJ3ilU-unsplash.jpg,Stimuli/Experimental_stims/scramble/body_parts/scrambled_engin-akyurt-x_3gyC42btc-unsplash.jpg,NaN,NaN,1400,1000,left,0,1,NaN,NaN,NaN,NaN,NaN,NaN,NaN,NaN,0,40,3
60,77890,61,J,original,0,2,3,faces,objects,20,42,Stimuli/Experimental_stims/faces/justin-chen-J7Cf1Gch49E-unsplash.jpg,Stimuli/Experimental_stims/objects/jess-bailey-nOeVi8DsN8U-unsplash.jpg,50,50,1900,0,,NaN,0,192,0,42,20,objects,faces,Stimuli/Experimental_stims/objects/jess-bailey-nOeVi8DsN8U-unsplash.jpg,Stimuli/Experimental_stims/faces/justin-chen-J7Cf1Gch49E-unsplash.jpg,0,40,3,50,50
61,77890,62,K,original,0,2,3,body_parts,objects,35,47,Stimuli/Experimental_stims/body_parts/wc-so-KH4AAPjb-tI-unsplash.jpg,Stimuli/Experimental_stims/objects/ronaldo-arthur-vidal-Cdz_lvnl37k-unsplash.jpg,50,50,1500,0,,NaN,0,76,0,47,35,objects,body_parts,Stimuli/Experimental_stims/objects/ronaldo-arthur-vidal-Cdz_lvnl37k-unsplash.jpg,Stimuli/Experimental_stims/body_parts/wc-so-KH4AAPjb-tI-unsplash.jpg,0,40,3,50,50
62,77890,63,F,scramble,0,2,3,faces,body_parts,19,33,Stimuli/Experimental_stims/scramble/faces/scrambled_joel-mott-LaK153ghdig-unsplash.jpg,Stimuli/Experimental_stims/scramble/body_parts/scrambled_tucker-good-36skLT5jZcc-unsplash.jpg,NaN,NaN,2100,1100,left,0,1,NaN,NaN,NaN,NaN,NaN,NaN,NaN,NaN,0,40,3
63,77890,64,D,scramble,0,2,3,objects,faces,46,22,Stimuli/Experimental_stims/scramble/objects/scrambled_mockup-graphics-PNsj6RiHAF4-unsplash.jpg,Stimuli/Experimental_stims/scramble/faces/scrambled_ravi-patel-VMGAbeeJTKo-unsplash.jpg,NaN,NaN,1500,1500,right,0,1,NaN,NaN,NaN,NaN,NaN,NaN,NaN,NaN,0,40,3
64,77890,65,E,original,0,2,3,objects,body_parts,39,29,Stimuli/Experimental_stims/objects/charlesdeluvio-1-nx1QR5dTE-unsplash.jpg,Stimuli/Experimental_stims/body_parts/manuel-schinner-ZwjFuJ7ebpk-unsplash.jpg,50,50,2000,0,,NaN,0,183,0,29,39,body_parts,objects,Stimuli/Experimental_stims/body_parts/manuel-schinner-ZwjFuJ7ebpk-unsplash.jpg,Stimuli/Experimental_stims/objects/charlesdeluvio-1-nx1QR5dTE-unsplash.jpg,0,40,3,50,50
65,77890,66,H,scramble,0,2,3,faces,outdoor_scenes,13,3,Stimuli/Experimental_stims/scramble/faces/scrambled_daniel-rigdon-dXmXKPP2L4E-unsplash.jpg,Stimuli/Experimental_stims/scramble/outdoor_scenes/scrambled_henry-be-NLF6hTe4PAg-unsplash.jpg,NaN,NaN,1100,1100,left,0,1,NaN,NaN,NaN,NaN,NaN,NaN,NaN,NaN,0,40,3
66,77890,67,G,original,0,2,3,objects,outdoor_scenes,41,8,Stimuli/Experimental_stims/objects/insung-yoon-w2JtIQQXoRU-unsplash.jpg,Stimuli/Experimental_stims/outdoor_scenes/samsommer-vddccTqwal8-unsplash.jpg,50,50,1000,0,,NaN,0,155,0,8,41,outdoor_scenes,objects,Stimuli/Experimental_stims/outdoor_scenes/samsommer-vddccTqwal8-unsplash.jpg,Stimuli/Experimental_stims/objects/insung-yoon-w2JtIQQXoRU-unsplash.jpg,0,40,3,50,50
67,77890,68,A,scramble,0,2,3,outdoor_scenes,objects,11,37,Stimuli/Experimental_stims/scramble/outdoor_scenes/scrambled_stephen-leonardi-gyIRjKPXupE-unsplash.jpg,Stimuli/Experimental_stims/scramble/objects/scrambled_alexander-andrews-VLGWE_SumrA-unsplash.jpg,NaN,NaN,2800,1400,left,0,1,NaN,NaN,NaN,NaN,NaN,NaN,NaN,NaN,0,40,3
68,77890,69,K,scramble,0,2,3,body_parts,objects,35,47,Stimuli/Experimental_stims/scramble/body_parts/scrambled_wc-so-KH4AAPjb-tI-unsplash.jpg,Stimuli/Experimental_stims/scramble/objects/scrambled_ronaldo-arthur-vidal-Cdz_lvnl37k-unsplash.jpg,NaN,NaN,3100,900,left,0,1,NaN,NaN,NaN,NaN,NaN,NaN,NaN,NaN,1,40,3
69,77890,70,H,original,0,2,3,faces,outdoor_scenes,13,3,Stimuli/Experimental_stims/faces/daniel-rigdon-dXmXKPP2L4E-unsplash.jpg,Stimuli/Experimental_stims/outdoor_scenes/henry-be-NLF6hTe4PAg-unsplash.jpg,50,50,1100,0,,NaN,0,97,0,3,13,outdoor_scenes,faces,Stimuli/Experimental_stims/outdoor_scenes/henry-be-NLF6hTe4PAg-unsplash.jpg,Stimuli/Experimental_stims/faces/daniel-rigdon-dXmXKPP2L4E-unsplash.jpg,0,40,3,50,50
70,77890,71,I,scramble,0,2,3,body_parts,outdoor_scenes,25,10,Stimuli/Experimental_stims/scramble/body_parts/scrambled_engin-akyurt-Q2rfH3GW39c-unsplash.jpg,Stimuli/Experimental_stims/scramble/outdoor_scenes/scrambled_shannon-kunkle-dM8INmkyDas-unsplash.jpg,NaN,NaN,1200,1100,right,0,1,NaN,NaN,NaN,NaN,NaN,NaN,NaN,NaN,0,40,3
71,77890,72,A,original,0,2,3,outdoor_scenes,objects,11,37,Stimuli/Experimental_stims/outdoor_scenes/stephen-leonardi-gyIRjKPXupE-unsplash.jpg,Stimuli/Experimental_stims/objects/alexander-andrews-VLGWE_SumrA-unsplash.jpg,50,50,2500,0,,NaN,0,173,0,37,11,objects,outdoor_scenes,Stimuli/Experimental_stims/objects/alexander-andrews-VLGWE_SumrA-unsplash.jpg,Stimuli/Experimental_stims/outdoor_scenes/stephen-leonardi-gyIRjKPXupE-unsplash.jpg,0,40,3,50,50
72,77890,73,L,scramble,0,2,3,body_parts,faces,28,14,Stimuli/Experimental_stims/scramble/body_parts/scrambled_ira-vishnevskaya-8DQAvdCby1I-unsplash.jpg,Stimuli/Experimental_stims/scramble/faces/scrambled_david-siglin-UuW4psOb388-unsplash.jpg,NaN,NaN,1300,1200,left,0,1,NaN,NaN,NaN,NaN,NaN,NaN,NaN,NaN,0,40,3
73,77890,74,G,scramble,0,2,3,objects,outdoor_scenes,41,8,Stimuli/Experimental_stims/scramble/objects/scrambled_insung-yoon-w2JtIQQXoRU-unsplash.jpg,Stimuli/Experimental_stims/scramble/outdoor_scenes/scrambled_samsommer-vddccTqwal8-unsplash.jpg,NaN,NaN,3200,1300,right,0,1,NaN,NaN,NaN,NaN,NaN,NaN,NaN,NaN,1,40,3
74,77890,75,F,original,0,2,3,faces,body_parts,19,33,Stimuli/Experimental_stims/faces/joel-mott-LaK153ghdig-unsplash.jpg,Stimuli/Experimental_stims/body_parts/tucker-good-36skLT5jZcc-unsplash.jpg,50,50,1800,0,,NaN,0,186,0,33,19,body_parts,faces,Stimuli/Experimental_stims/body_parts/tucker-good-36skLT5jZcc-unsplash.jpg,Stimuli/Experimental_stims/faces/joel-mott-LaK153ghdig-unsplash.jpg,0,40,3,50,50
75,77890,76,C,original,0,2,3,outdoor_scenes,body_parts,2,26,Stimuli/Experimental_stims/outdoor_scenes/bruno-van-der-kraan-qez8mNJ3ilU-unsplash.jpg,Stimuli/Experimental_stims/body_parts/engin-akyurt-x_3gyC42btc-unsplash.jpg,50,50,2100,0,,NaN,0,89,0,26,2,body_parts,outdoor_scenes,Stimuli/Experimental_stims/body_parts/engin-akyurt-x_3gyC42btc-unsplash.jpg,Stimuli/Experimental_stims/outdoor_scenes/bruno-van-der-kraan-qez8mNJ3ilU-unsplash.jpg,0,40,3,50,50
76,77890,77,I,scramble,0,2,4,body_parts,outdoor_scenes,25,10,Stimuli/Experimental_stims/scramble/body_parts/scrambled_engin-akyurt-Q2rfH3GW39c-unsplash.jpg,Stimuli/Experimental_stims/scramble/outdoor_scenes/scrambled_shannon-kunkle-dM8INmkyDas-unsplash.jpg,NaN,NaN,1700,700,left,0,0,204,0,10,25,outdoor_scenes,body_parts,Stimuli/Experimental_stims/scramble/outdoor_scenes/scrambled_shannon-kunkle-dM8INmkyDas-unsplash.jpg,Stimuli/Experimental_stims/scramble/body_parts/scrambled_engin-akyurt-Q2rfH3GW39c-unsplash.jpg,0,40,3
77,77890,78,H,scramble,0,2,4,faces,outdoor_scenes,13,3,Stimuli/Experimental_stims/scramble/faces/scrambled_daniel-rigdon-dXmXKPP2L4E-unsplash.jpg,Stimuli/Experimental_stims/scramble/outdoor_scenes/scrambled_henry-be-NLF6hTe4PAg-unsplash.jpg,NaN,NaN,1100,1500,left,0,1,NaN,NaN,NaN,NaN,NaN,NaN,NaN,NaN,0,40,3
78,77890,79,G,original,0,2,4,objects,outdoor_scenes,41,8,Stimuli/Experimental_stims/objects/insung-yoon-w2JtIQQXoRU-unsplash.jpg,Stimuli/Experimental_stims/outdoor_scenes/samsommer-vddccTqwal8-unsplash.jpg,50,50,1900,0,,NaN,0,163,0,8,41,outdoor_scenes,objects,Stimuli/Experimental_stims/outdoor_scenes/samsommer-vddccTqwal8-unsplash.jpg,Stimuli/Experimental_stims/objects/insung-yoon-w2JtIQQXoRU-unsplash.jpg,0,40,3,50,50
79,77890,80,D,scramble,0,2,4,objects,faces,46,22,Stimuli/Experimental_stims/scramble/objects/scrambled_mockup-graphics-PNsj6RiHAF4-unsplash.jpg,Stimuli/Experimental_stims/scramble/faces/scrambled_ravi-patel-VMGAbeeJTKo-unsplash.jpg,NaN,NaN,3600,1500,right,0,1,NaN,NaN,NaN,NaN,NaN,NaN,NaN,NaN,1,40,3
80,77890,81,C,original,0,2,4,outdoor_scenes,body_parts,2,26,Stimuli/Experimental_stims/outdoor_scenes/bruno-van-der-kraan-qez8mNJ3ilU-unsplash.jpg,Stimuli/Experimental_stims/body_parts/engin-akyurt-x_3gyC42btc-unsplash.jpg,50,50,1200,0,,NaN,0,370,0,26,2,body_parts,outdoor_scenes,Stimuli/Experimental_stims/body_parts/engin-akyurt-x_3gyC42btc-unsplash.jpg,Stimuli/Experimental_stims/outdoor_scenes/bruno-van-der-kraan-qez8mNJ3ilU-unsplash.jpg,0,40,3,50,50
81,77890,82,F,original,0,2,4,faces,body_parts,19,33,Stimuli/Experimental_stims/faces/joel-mott-LaK153ghdig-unsplash.jpg,Stimuli/Experimental_stims/body_parts/tucker-good-36skLT5jZcc-unsplash.jpg,50,50,2300,0,,NaN,0,39,0,33,19,body_parts,faces,Stimuli/Experimental_stims/body_parts/tucker-good-36skLT5jZcc-unsplash.jpg,Stimuli/Experimental_stims/faces/joel-mott-LaK153ghdig-unsplash.jpg,0,40,3,50,50
82,77890,83,J,scramble,0,2,4,faces,objects,20,42,Stimuli/Experimental_stims/scramble/faces/scrambled_justin-chen-J7Cf1Gch49E-unsplash.jpg,Stimuli/Experimental_stims/scramble/objects/scrambled_jess-bailey-nOeVi8DsN8U-unsplash.jpg,NaN,NaN,1300,1300,right,0,1,NaN,NaN,NaN,NaN,NaN,NaN,NaN,NaN,0,40,3
83,77890,84,B,scramble,0,2,4,outdoor_scenes,faces,4,17,Stimuli/Experimental_stims/scramble/outdoor_scenes/scrambled_jarrett-kow-1ZOyYPOBn7I-unsplash.jpg,Stimuli/Experimental_stims/scramble/faces/scrambled_good-faces-xmSWVeGEnJw-unsplash.jpg,NaN,NaN,2800,1000,left,0,1,NaN,NaN,NaN,NaN,NaN,NaN,NaN,NaN,0,40,3
84,77890,85,E,original,0,2,4,objects,body_parts,39,29,Stimuli/Experimental_stims/objects/charlesdeluvio-1-nx1QR5dTE-unsplash.jpg,Stimuli/Experimental_stims/body_parts/manuel-schinner-ZwjFuJ7ebpk-unsplash.jpg,50,50,1100,0,,NaN,0,220,0,29,39,body_parts,objects,Stimuli/Experimental_stims/body_parts/manuel-schinner-ZwjFuJ7ebpk-unsplash.jpg,Stimuli/Experimental_stims/objects/charlesdeluvio-1-nx1QR5dTE-unsplash.jpg,0,40,3,50,50
85,77890,86,G,scramble,0,2,4,objects,outdoor_scenes,41,8,Stimuli/Experimental_stims/scramble/objects/scrambled_insung-yoon-w2JtIQQXoRU-unsplash.jpg,Stimuli/Experimental_stims/scramble/outdoor_scenes/scrambled_samsommer-vddccTqwal8-unsplash.jpg,NaN,NaN,2300,1100,left,0,1,NaN,NaN,NaN,NaN,NaN,NaN,NaN,NaN,0,40,3
86,77890,87,J,original,0,2,4,faces,objects,20,42,Stimuli/Experimental_stims/faces/justin-chen-J7Cf1Gch49E-unsplash.jpg,Stimuli/Experimental_stims/objects/jess-bailey-nOeVi8DsN8U-unsplash.jpg,50,50,2200,0,,NaN,0,190,0,42,20,objects,faces,Stimuli/Experimental_stims/objects/jess-bailey-nOeVi8DsN8U-unsplash.jpg,Stimuli/Experimental_stims/faces/justin-chen-J7Cf1Gch49E-unsplash.jpg,0,40,3,50,50
87,77890,88,D,original,0,2,4,objects,faces,46,22,Stimuli/Experimental_stims/objects/mockup-graphics-PNsj6RiHAF4-unsplash.jpg,Stimuli/Experimental_stims/faces/ravi-patel-VMGAbeeJTKo-unsplash.jpg,50,50,1400,0,,NaN,0,140,0,22,46,faces,objects,Stimuli/Experimental_stims/faces/ravi-patel-VMGAbeeJTKo-unsplash.jpg,Stimuli/Experimental_stims/objects/mockup-graphics-PNsj6RiHAF4-unsplash.jpg,0,40,3,50,50
88,77890,89,F,scramble,0,2,4,faces,body_parts,19,33,Stimuli/Experimental_stims/scramble/faces/scrambled_joel-mott-LaK153ghdig-unsplash.jpg,Stimuli/Experimental_stims/scramble/body_parts/scrambled_tucker-good-36skLT5jZcc-unsplash.jpg,NaN,NaN,2900,200,left,0,0,206,0,33,19,body_parts,faces,Stimuli/Experimental_stims/scramble/body_parts/scrambled_tucker-good-36skLT5jZcc-unsplash.jpg,Stimuli/Experimental_stims/scramble/faces/scrambled_joel-mott-LaK153ghdig-unsplash.jpg,0,40,3
89,77890,90,B,original,0,2,4,outdoor_scenes,faces,4,17,Stimuli/Experimental_stims/outdoor_scenes/jarrett-kow-1ZOyYPOBn7I-unsplash.jpg,Stimuli/Experimental_stims/faces/good-faces-xmSWVeGEnJw-unsplash.jpg,50,50,1600,0,,NaN,0,261,0,17,4,faces,outdoor_scenes,Stimuli/Experimental_stims/faces/good-faces-xmSWVeGEnJw-unsplash.jpg,Stimuli/Experimental_stims/outdoor_scenes/jarrett-kow-1ZOyYPOBn7I-unsplash.jpg,0,40,3,50,50
90,77890,91,C,scramble,0,2,4,outdoor_scenes,body_parts,2,26,Stimuli/Experimental_stims/scramble/outdoor_scenes/scrambled_bruno-van-der-kraan-qez8mNJ3ilU-unsplash.jpg,Stimuli/Experimental_stims/scramble/body_parts/scrambled_engin-akyurt-x_3gyC42btc-unsplash.jpg,NaN,NaN,3000,1000,right,0,1,NaN,NaN,NaN,NaN,NaN,NaN,NaN,NaN,1,40,3
91,77890,92,A,scramble,0,2,4,outdoor_scenes,objects,11,37,Stimuli/Experimental_stims/scramble/outdoor_scenes/scrambled_stephen-leonardi-gyIRjKPXupE-unsplash.jpg,Stimuli/Experimental_stims/scramble/objects/scrambled_alexander-andrews-VLGWE_SumrA-unsplash.jpg,NaN,NaN,2800,500,left,0,0,251,0,37,11,objects,outdoor_scenes,Stimuli/Experimental_stims/scramble/objects/scrambled_alexander-andrews-VLGWE_SumrA-unsplash.jpg,Stimuli/Experimental_stims/scramble/outdoor_scenes/scrambled_stephen-leonardi-gyIRjKPXupE-unsplash.jpg,0,40,3
92,77890,93,I,original,0,2,4,body_parts,outdoor_scenes,25,10,Stimuli/Experimental_stims/body_parts/engin-akyurt-Q2rfH3GW39c-unsplash.jpg,Stimuli/Experimental_stims/outdoor_scenes/shannon-kunkle-dM8INmkyDas-unsplash.jpg,50,50,2900,0,,NaN,0,224,0,10,25,outdoor_scenes,body_parts,Stimuli/Experimental_stims/outdoor_scenes/shannon-kunkle-dM8INmkyDas-unsplash.jpg,Stimuli/Experimental_stims/body_parts/engin-akyurt-Q2rfH3GW39c-unsplash.jpg,0,40,3,50,50
93,77890,94,K,original,0,2,4,body_parts,objects,35,47,Stimuli/Experimental_stims/body_parts/wc-so-KH4AAPjb-tI-unsplash.jpg,Stimuli/Experimental_stims/objects/ronaldo-arthur-vidal-Cdz_lvnl37k-unsplash.jpg,50,50,1300,0,,NaN,0,157,0,47,35,objects,body_parts,Stimuli/Experimental_stims/objects/ronaldo-arthur-vidal-Cdz_lvnl37k-unsplash.jpg,Stimuli/Experimental_stims/body_parts/wc-so-KH4AAPjb-tI-unsplash.jpg,0,40,3,50,50
94,77890,95,E,scramble,0,2,4,objects,body_parts,39,29,Stimuli/Experimental_stims/scramble/objects/scrambled_charlesdeluvio-1-nx1QR5dTE-unsplash.jpg,Stimuli/Experimental_stims/scramble/body_parts/scrambled_manuel-schinner-ZwjFuJ7ebpk-unsplash.jpg,NaN,NaN,1100,1800,right,0,1,NaN,NaN,NaN,NaN,NaN,NaN,NaN,NaN,0,40,3
95,77890,96,L,original,0,2,4,body_parts,faces,28,14,Stimuli/Experimental_stims/body_parts/ira-vishnevskaya-8DQAvdCby1I-unsplash.jpg,Stimuli/Experimental_stims/faces/david-siglin-UuW4psOb388-unsplash.jpg,50,50,1500,0,,NaN,0,0,0,14,28,faces,body_parts,Stimuli/Experimental_stims/faces/david-siglin-UuW4psOb388-unsplash.jpg,Stimuli/Experimental_stims/body_parts/ira-vishnevskaya-8DQAvdCby1I-unsplash.jpg,0,40,3,50,50
96,77890,97,L,scramble,0,2,4,body_parts,faces,28,14,Stimuli/Experimental_stims/scramble/body_parts/scrambled_ira-vishnevskaya-8DQAvdCby1I-unsplash.jpg,Stimuli/Experimental_stims/scramble/faces/scrambled_david-siglin-UuW4psOb388-unsplash.jpg,NaN,NaN,1100,500,right,1,0,222,0,14,28,faces,body_parts,Stimuli/Experimental_stims/scramble/faces/scrambled_david-siglin-UuW4psOb388-unsplash.jpg,Stimuli/Experimental_stims/scramble/body_parts/scrambled_ira-vishnevskaya-8DQAvdCby1I-unsplash.jpg,0,40,3
97,77890,98,H,original,0,2,4,faces,outdoor_scenes,13,3,Stimuli/Experimental_stims/faces/daniel-rigdon-dXmXKPP2L4E-unsplash.jpg,Stimuli/Experimental_stims/outdoor_scenes/henry-be-NLF6hTe4PAg-unsplash.jpg,50,50,1500,0,,NaN,0,20,0,3,13,outdoor_scenes,faces,Stimuli/Experimental_stims/outdoor_scenes/henry-be-NLF6hTe4PAg-unsplash.jpg,Stimuli/Experimental_stims/faces/daniel-rigdon-dXmXKPP2L4E-unsplash.jpg,0,40,3,50,50
98,77890,99,A,original,0,2,4,outdoor_scenes,objects,11,37,Stimuli/Experimental_stims/outdoor_scenes/stephen-leonardi-gyIRjKPXupE-unsplash.jpg,Stimuli/Experimental_stims/objects/alexander-andrews-VLGWE_SumrA-unsplash.jpg,50,50,1100,0,,NaN,0,0,0,37,11,objects,outdoor_scenes,Stimuli/Experimental_stims/objects/alexander-andrews-VLGWE_SumrA-unsplash.jpg,Stimuli/Experimental_stims/outdoor_scenes/stephen-leonardi-gyIRjKPXupE-unsplash.jpg,0,40,3,50,50
99,77890,100,K,scramble,0,2,4,body_parts,objects,35,47,Stimuli/Experimental_stims/scramble/body_parts/scrambled_wc-so-KH4AAPjb-tI-unsplash.jpg,Stimuli/Experimental_stims/scramble/objects/scrambled_ronaldo-arthur-vidal-Cdz_lvnl37k-unsplash.jpg,NaN,NaN,4300,100,right,1,0,184,0,47,35,objects,body_parts,Stimuli/Experimental_stims/scramble/objects/scrambled_ronaldo-arthur-vidal-Cdz_lvnl37k-unsplash.jpg,Stimuli/Experimental_stims/scramble/body_parts/scrambled_wc-so-KH4AAPjb-tI-unsplash.jpg,1,40,3