,PID,trial,pair_id,stim_type,practice,run,block,left_category,right_category,left_stimulus,right_stimulus,left_path,right_path,left_rating,right_rating,iti,scramble_screen_time,scramble_instructed_side,scramble_acc,no_response,rt,left_chosen,chosen_stimulus,unchosen_stimulus,chosen_category,unchosen_category,chosen_rating,unchosen_rating,chosen_path,unchosen_path,long_iti,simulation,version
0,29646,1,prac1,original,1,0,0,,,,,Stimuli/Practice_stims/Deliberation/anthony-delanoix-Q0-fOL2nqZc-unsplash.jpg,Stimuli/Practice_stims/Deliberation/becca-tapert-sY5RjMB1KkE-unsplash.jpg,,,1500,0,,NaN,0,512,1,,,,,,,Stimuli/Practice_stims/Deliberation/anthony-delanoix-Q0-fOL2nqZc-unsplash.jpg,Stimuli/Practice_stims/Deliberation/becca-tapert-sY5RjMB1KkE-unsplash.jpg,0,40,3
1,29646,2,prac2,scramble,1,0,0,,,,,Stimuli/Practice_stims/Deliberation/scramble/scrambled_clay-banks-1KPfcPdbWFM-unsplash.jpg,Stimuli/Practice_stims/Deliberation/scramble/scrambled_melissa-keizer-sV4Pd8wq5_o-unsplash.jpg,,,2500,2500,left,1,0,427,1,,,,,NaN,NaN,Stimuli/Practice_stims/Deliberation/scramble/scrambled_clay-banks-1KPfcPdbWFM-unsplash.jpg,Stimuli/Practice_stims/Deliberation/scramble/scrambled_melissa-keizer-sV4Pd8wq5_o-unsplash.jpg,0,40,3
2,29646,3,prac3,scramble,1,0,0,,,,,Stimuli/Practice_stims/Deliberation/scramble/scrambled_anthony-delanoix-Q0-fOL2nqZc-unsplash.jpg,Stimuli/Practice_stims/Deliberation/scramble/scrambled_becca-tapert-sY5RjMB1KkE-unsplash.jpg,,,3000,1500,right,0,0,519,1,,,,,NaN,NaN,Stimuli/Practice_stims/Deliberation/scramble/scrambled_anthony-delanoix-Q0-fOL2nqZc-unsplash.jpg,Stimuli/Practice_stims/Deliberation/scramble/scrambled_becca-tapert-sY5RjMB1KkE-unsplash.jpg,0,40,3
3,29646,4,prac4,original,1,0,0,,,,,Stimuli/Practice_stims/Deliberation/clay-banks-1KPfcPdbWFM-unsplash.jpg,Stimuli/Practice_stims/Deliberation/melissa-keizer-sV4Pd8wq5_o-unsplash.jpg,,,2000,0,,NaN,0,1080,1,,,,,,,Stimuli/Practice_stims/Deliberation/clay-banks-1KPfcPdbWFM-unsplash.jpg,Stimuli/Practice_stims/Deliberation/melissa-keizer-sV4Pd8wq5_o-unsplash.jpg,0,40,3
4,29646,5,G,scramble,0,1,1,objects,outdoor_scenes,43,9,Stimuli/Experimental_stims/scramble/objects/scrambled_jonathan-greenaway-Y4hGgeiFn3s-unsplash.jpg,Stimuli/Experimental_stims/scramble/outdoor_scenes/scrambled_sergey-pesterev-y-b_FOmJXdg-unsplash.jpg,NaN,NaN,2900,1000,left,1,0,418,1,43,9,objects,outdoor_scenes,NaN,NaN,Stimuli/Experimental_stims/scramble/objects/scrambled_jonathan-greenaway-Y4hGgeiFn3s-unsplash.jpg,Stimuli/Experimental_stims/scramble/outdoor_scenes/scrambled_sergey-pesterev-y-b_FOmJXdg-unsplash.jpg,1,40,3
5,29646,6,E,scramble,0,1,1,objects,body_parts,46,30,Stimuli/Experimental_stims/scramble/objects/scrambled_mockup-graphics-PNsj6RiHAF4-unsplash.jpg,Stimuli/Experimental_stims/scramble/body_parts/scrambled_mika-korhonen-Xodzxosar18-unsplash.jpg,NaN,NaN,2500,1300,right,0,0,24,1,46,30,objects,body_parts,NaN,NaN,Stimuli/Experimental_stims/scramble/objects/scrambled_mockup-graphics-PNsj6RiHAF4-unsplash.jpg,Stimuli/Experimental_stims/scramble/body_parts/scrambled_mika-korhonen-Xodzxosar18-unsplash.jpg,0,40,3
6,29646,7,C,original,0,1,1,outdoor_scenes,body_parts,10,26,Stimuli/Experimental_stims/outdoor_scenes/shannon-kunkle-dM8INmkyDas-unsplash.jpg,Stimuli/Experimental_stims/body_parts/engin-akyurt-x_3gyC42btc-unsplash.jpg,50,50,2400,0,,NaN,0,67,1,10,26,outdoor_scenes,body_parts,50,50,Stimuli/Experimental_stims/outdoor_scenes/shannon-kunkle-dM8INmkyDas-unsplash.jpg,Stimuli/Experimental_stims/body_parts/engin-akyurt-x_3gyC42btc-unsplash.jpg,0,40,3
7,29646,8,G,original,0,1,1,objects,outdoor_scenes,43,9,Stimuli/Experimental_stims/objects/jonathan-greenaway-Y4hGgeiFn3s-unsplash.jpg,Stimuli/Experimental_stims/outdoor_scenes/sergey-pesterev-y-b_FOmJXdg-unsplash.jpg,50,50,1300,0,,NaN,0,525,1,43,9,objects,outdoor_scenes,50,50,Stimuli/Experimental_stims/objects/jonathan-greenaway-Y4hGgeiFn3s-unsplash.jpg,Stimuli/Experimental_stims/outdoor_scenes/sergey-pesterev-y-b_FOmJXdg-unsplash.jpg,0,40,3
8,29646,9,J,scramble,0,1,1,faces,objects,21,36,Stimuli/Experimental_stims/scramble/faces/scrambled_leilani-angel-K84vnnzxmTQ-unsplash.jpg,Stimuli/Experimental_stims/scramble/objects/scrambled_alexander-andrews-JYGnB9gTCls-unsplash.jpg,NaN,NaN,1900,1300,right,0,0,1551,1,21,36,faces,objects,NaN,NaN,Stimuli/Experimental_stims/scramble/faces/scrambled_leilani-angel-K84vnnzxmTQ-unsplash.jpg,Stimuli/Experimental_stims/scramble/objects/scrambled_alexander-andrews-JYGnB9gTCls-unsplash.jpg,0,40,3
9,29646,10,I,original,0,1,1,body_parts,outdoor_scenes,33,4,Stimuli/Experimental_stims/body_parts/tucker-good-36skLT5jZcc-unsplash.jpg,Stimuli/Experimental_stims/outdoor_scenes/jarrett-kow-1ZOyYPOBn7I-unsplash.jpg,50,50,2100,0,,NaN,0,374,1,33,4,body_parts,outdoor_scenes,50,50,Stimuli/Experimental_stims/body_parts/tucker-good-36skLT5jZcc-unsplash.jpg,Stimuli/Experimental_stims/outdoor_scenes/jarrett-kow-1ZOyYPOBn7I-unsplash.jpg,0,40,3
10,29646,11,F,original,0,1,1,faces,body_parts,18,27,Stimuli/Experimental_stims/faces/jessica-radanavong-mrYkTuAesKE-unsplash.jpg,Stimuli/Experimental_stims/body_parts/heike-mintel-i_Gns0ELnLw-unsplash.jpg,50,50,1200,0,,NaN,0,609,1,18,27,faces,body_parts,50,50,Stimuli/Experimental_stims/faces/jessica-radanavong-mrYkTuAesKE-unsplash.jpg,Stimuli/Experimental_stims/body_parts/heike-mintel-i_Gns0ELnLw-unsplash.jpg,0,40,3
11,29646,12,D,scramble,0,1,1,objects,faces,41,15,Stimuli/Experimental_stims/scramble/objects/scrambled_insung-yoon-w2JtIQQXoRU-unsplash.jpg,Stimuli/Experimental_stims/scramble/faces/scrambled_erik-lucatero-d2MSDujJl2g-unsplash.jpg,NaN,NaN,3100,1300,right,0,0,234,1,41,15,objects,faces,NaN,NaN,Stimuli/Experimental_stims/scramble/objects/scrambled_insung-yoon-w2JtIQQXoRU-unsplash.jpg,Stimuli/Experimental_stims/scramble/faces/scrambled_erik-lucatero-d2MSDujJl2g-unsplash.jpg,1,40,3
12,29646,13,A,scramble,0,1,1,outdoor_scenes,objects,5,45,Stimuli/Experimental_stims/scramble/outdoor_scenes/scrambled_jeff-king-bJHWJeiHfHc-unsplash.jpg,Stimuli/Experimental_stims/scramble/objects/scrambled_leohoho-rngTKHXumy0-unsplash.jpg,NaN,NaN,2200,1900,left,1,0,90,1,5,45,outdoor_scenes,objects,NaN,NaN,Stimuli/Experimental_stims/scramble/outdoor_scenes/scrambled_jeff-king-bJHWJeiHfHc-unsplash.jpg,Stimuli/Experimental_stims/scramble/objects/scrambled_leohoho-rngTKHXumy0-unsplash.jpg,0,40,3
13,29646,14,D,original,0,1,1,objects,faces,41,15,Stimuli/Experimental_stims/objects/insung-yoon-w2JtIQQXoRU-unsplash.jpg,Stimuli/Experimental_stims/faces/erik-lucatero-d2MSDujJl2g-unsplash.jpg,50,50,2000,0,,NaN,0,469,1,41,15,objects,faces,50,50,Stimuli/Experimental_stims/objects/insung-yoon-w2JtIQQXoRU-unsplash.jpg,Stimuli/Experimental_stims/faces/erik-lucatero-d2MSDujJl2g-unsplash.jpg,0,40,3
14,29646,15,J,original,0,1,1,faces,objects,21,36,Stimuli/Experimental_stims/faces/leilani-angel-K84vnnzxmTQ-unsplash.jpg,Stimuli/Experimental_stims/objects/alexander-andrews-JYGnB9gTCls-unsplash.jpg,50,50,1900,0,,NaN,0,91,1,21,36,faces,objects,50,50,Stimuli/Experimental_stims/faces/leilani-angel-K84vnnzxmTQ-unsplash.jpg,Stimuli/Experimental_stims/objects/alexander-andrews-JYGnB9gTCls-unsplash.jpg,0,40,3
15,29646,16,F,scramble,0,1,1,faces,body_parts,18,27,Stimuli/Experimental_stims/scramble/faces/scrambled_jessica-radanavong-mrYkTuAesKE-unsplash.jpg,Stimuli/Experimental_stims/scramble/body_parts/scrambled_heike-mintel-i_Gns0ELnLw-unsplash.jpg,NaN,NaN,1900,1100,left,1,0,361,1,18,27,faces,body_parts,NaN,NaN,Stimuli/Experimental_stims/scramble/faces/scrambled_jessica-radanavong-mrYkTuAesKE-unsplash.jpg,Stimuli/Experimental_stims/scramble/body_parts/scrambled_heike-mintel-i_Gns0ELnLw-unsplash.jpg,0,40,3
16,29646,17,B,scramble,0,1,1,outdoor_scenes,faces,6,19,Stimuli/Experimental_stims/scramble/outdoor_scenes/scrambled_meng-ji-8BH_M-53CyA-unsplash.jpg,Stimuli/Experimental_stims/scramble/faces/scrambled_joel-mott-LaK153ghdig-unsplash.jpg,NaN,NaN,3000,1500,right,0,0,9,1,6,19,outdoor_scenes,faces,NaN,NaN,Stimuli/Experimental_stims/scramble/outdoor_scenes/scrambled_meng-ji-8BH_M-53CyA-unsplash.jpg,Stimuli/Experimental_stims/scramble/faces/scrambled_joel-mott-LaK153ghdig-unsplash.jpg,1,40,3
17,29646,18,L,original,0,1,1,body_parts,faces,32,14,Stimuli/Experimental_stims/body_parts/towfiqu-barbhuiya-3AsiVDsZnHg-unsplash.jpg,Stimuli/Experimental_stims/faces/david-siglin-UuW4psOb388-unsplash.jpg,50,50,1400,0,,NaN,0,335,1,32,14,body_parts,faces,50,50,Stimuli/Experimental_stims/body_parts/towfiqu-barbhuiya-3AsiVDsZnHg-unsplash.jpg,Stimuli/Experimental_stims/faces/david-siglin-UuW4psOb388-unsplash.jpg,0,40,3
18,29646,19,C,scramble,0,1,1,outdoor_scenes,body_parts,10,26,Stimuli/Experimental_stims/scramble/outdoor_scenes/scrambled_shannon-kunkle-dM8INmkyDas-unsplash.jpg,Stimuli/Experimental_stims/scramble/body_parts/scrambled_engin-akyurt-x_3gyC42btc-unsplash.jpg,NaN,NaN,2200,1500,right,0,0,322,1,10,26,outdoor_scenes,body_parts,NaN,NaN,Stimuli/Experimental_stims/scramble/outdoor_scenes/scrambled_shannon-kunkle-dM8INmkyDas-unsplash.jpg,Stimuli/Experimental_stims/scramble/body_parts/scrambled_engin-akyurt-x_3gyC42btc-unsplash.jpg,0,40,3
19,29646,20,L,scramble,0,1,1,body_parts,faces,32,14,Stimuli/Experimental_stims/scramble/body_parts/scrambled_towfiqu-barbhuiya-3AsiVDsZnHg-unsplash.jpg,Stimuli/Experimental_stims/scramble/faces/scrambled_david-siglin-UuW4psOb388-unsplash.jpg,NaN,NaN,1900,700,left,1,0,306,1,32,14,body_parts,faces,NaN,NaN,Stimuli/Experimental_stims/scramble/body_parts/scrambled_towfiqu-barbhuiya-3AsiVDsZnHg-unsplash.jpg,Stimuli/Experimental_stims/scramble/faces/scrambled_david-siglin-UuW4psOb388-unsplash.jpg,0,40,3
20,29646,21,A,original,0,1,1,outdoor_scenes,objects,5,45,Stimuli/Experimental_stims/outdoor_scenes/jeff-king-bJHWJeiHfHc-unsplash.jpg,Stimuli/Experimental_stims/objects/leohoho-rngTKHXumy0-unsplash.jpg,50,50,2600,0,,NaN,0,412,1,5,45,outdoor_scenes,objects,50,50,Stimuli/Experimental_stims/outdoor_scenes/jeff-king-bJHWJeiHfHc-unsplash.jpg,Stimuli/Experimental_stims/objects/leohoho-rngTKHXumy0-unsplash.jpg,0,40,3
21,29646,22,E,original,0,1,1,objects,body_parts,46,30,Stimuli/Experimental_stims/objects/mockup-graphics-PNsj6RiHAF4-unsplash.jpg,Stimuli/Experimental_stims/body_parts/mika-korhonen-Xodzxosar18-unsplash.jpg,50,50,1300,0,,NaN,0,870,1,46,30,objects,body_parts,50,50,Stimuli/Experimental_stims/objects/mockup-graphics-PNsj6RiHAF4-unsplash.jpg,Stimuli/Experimental_stims/body_parts/mika-korhonen-Xodzxosar18-unsplash.jpg,0,40,3
22,29646,23,I,scramble,0,1,1,body_parts,outdoor_scenes,33,4,Stimuli/Experimental_stims/scramble/body_parts/scrambled_tucker-good-36skLT5jZcc-unsplash.jpg,Stimuli/Experimental_stims/scramble/outdoor_scenes/scrambled_jarrett-kow-1ZOyYPOBn7I-unsplash.jpg,NaN,NaN,1100,1600,left,1,0,454,1,33,4,body_parts,outdoor_scenes,NaN,NaN,Stimuli/Experimental_stims/scramble/body_parts/scrambled_tucker-good-36skLT5jZcc-unsplash.jpg,Stimuli/Experimental_stims/scramble/outdoor_scenes/scrambled_jarrett-kow-1ZOyYPOBn7I-unsplash.jpg,0,40,3
23,29646,24,H,original,0,1,1,faces,outdoor_scenes,22,1,Stimuli/Experimental_stims/faces/ravi-patel-VMGAbeeJTKo-unsplash.jpg,Stimuli/Experimental_stims/outdoor_scenes/ashim-d-silva-S2Q5mdOrrVc-unsplash.jpg,50,50,2700,0,,NaN,0,417,1,22,1,faces,outdoor_scenes,50,50,Stimuli/Experimental_stims/faces/ravi-patel-VMGAbeeJTKo-unsplash.jpg,Stimuli/Experimental_stims/outdoor_scenes/ashim-d-silva-S2Q5mdOrrVc-unsplash.jpg,1,40,3
24,29646,25,K,scramble,0,1,1,body_parts,objects,29,44,Stimuli/Experimental_stims/scramble/body_parts/scrambled_manuel-schinner-ZwjFuJ7ebpk-unsplash.jpg,Stimuli/Experimental_stims/scramble/objects/scrambled_kuiye-chen-NuOGFo4PudE-unsplash.jpg,NaN,NaN,1500,1800,left,1,0,369,1,29,44,body_parts,objects,NaN,NaN,Stimuli/Experimental_stims/scramble/body_parts/scrambled_manuel-schinner-ZwjFuJ7ebpk-unsplash.jpg,Stimuli/Experimental_stims/scramble/objects/scrambled_kuiye-chen-NuOGFo4PudE-unsplash.jpg,0,40,3
25,29646,26,B,original,0,1,1,outdoor_scenes,faces,6,19,Stimuli/Experimental_stims/outdoor_scenes/meng-ji-8BH_M-53CyA-unsplash.jpg,Stimuli/Experimental_stims/faces/joel-mott-LaK153ghdig-unsplash.jpg,50,50,1300,0,,NaN,0,1231,1,6,19,outdoor_scenes,faces,50,50,Stimuli/Experimental_stims/outdoor_scenes/meng-ji-8BH_M-53CyA-unsplash.jpg,Stimuli/Experimental_stims/faces/joel-mott-LaK153ghdig-unsplash.jpg,0,40,3
26,29646,27,H,scramble,0,1,1,faces,outdoor_scenes,22,1,Stimuli/Experimental_stims/scramble/faces/scrambled_ravi-patel-VMGAbeeJTKo-unsplash.jpg,Stimuli/Experimental_stims/scramble/outdoor_scenes/scrambled_ashim-d-silva-S2Q5mdOrrVc-unsplash.jpg,NaN,NaN,1800,2000,right,0,0,425,1,22,1,faces,outdoor_scenes,NaN,NaN,Stimuli/Experimental_stims/scramble/faces/scrambled_ravi-patel-VMGAbeeJTKo-unsplash.jpg,Stimuli/Experimental_stims/scramble/outdoor_scenes/scrambled_ashim-d-silva-S2Q5mdOrrVc-unsplash.jpg,0,40,3
27,29646,28,K,original,0,1,1,body_parts,objects,29,44,Stimuli/Experimental_stims/body_parts/manuel-schinner-ZwjFuJ7ebpk-unsplash.jpg,Stimuli/Experimental_stims/objects/kuiye-chen-NuOGFo4PudE-unsplash.jpg,50,50,1700,0,,NaN,0,387,1,29,44,body_parts,objects,50,50,Stimuli/Experimental_stims/body_parts/manuel-schinner-ZwjFuJ7ebpk-unsplash.jpg,Stimuli/Experimental_stims/objects/kuiye-chen-NuOGFo4PudE-unsplash.jpg,0,40,3
28,29646,29,C,scramble,0,1,2,outdoor_scenes,body_parts,10,26,Stimuli/Experimental_stims/scramble/outdoor_scenes/scrambled_shannon-kunkle-dM8INmkyDas-unsplash.jpg,Stimuli/Experimental_stims/scramble/body_parts/scrambled_engin-akyurt-x_3gyC42btc-unsplash.jpg,NaN,NaN,3200,1600,right,0,0,751,1,10,26,outdoor_scenes,body_parts,NaN,NaN,Stimuli/Experimental_stims/scramble/outdoor_scenes/scrambled_shannon-kunkle-dM8INmkyDas-unsplash.jpg,Stimuli/Experimental_stims/scramble/body_parts/scrambled_engin-akyurt-x_3gyC42btc-unsplash.jpg,1,40,3
29,29646,30,L,scramble,0,1,2,body_parts,faces,32,14,Stimuli/Experimental_stims/scramble/body_parts/scrambled_towfiqu-barbhuiya-3AsiVDsZnHg-unsplash.jpg,Stimuli/Experimental_stims/scramble/faces/scrambled_david-siglin-UuW4psOb388-unsplash.jpg,NaN,NaN,2400,1300,left,1,0,400,1,32,14,body_parts,faces,NaN,NaN,Stimuli/Experimental_stims/scramble/body_parts/scrambled_towfiqu-barbhuiya-3AsiVDsZnHg-unsplash.jpg,Stimuli/Experimental_stims/scramble/faces/scrambled_david-siglin-UuW4psOb388-unsplash.jpg,0,40,3
30,29646,31,B,original,0,1,2,outdoor_scenes,faces,6,19,Stimuli/Experimental_stims/outdoor_scenes/meng-ji-8BH_M-53CyA-unsplash.jpg,Stimuli/Experimental_stims/faces/joel-mott-LaK153ghdig-unsplash.jpg,50,50,2100,0,,NaN,0,827,1,6,19,outdoor_scenes,faces,50,50,Stimuli/Experimental_stims/outdoor_scenes/meng-ji-8BH_M-53CyA-unsplash.jpg,Stimuli/Experimental_stims/faces/joel-mott-LaK153ghdig-unsplash.jpg,0,40,3
31,29646,32,I,scramble,0,1,2,body_parts,outdoor_scenes,33,4,Stimuli/Experimental_stims/scramble/body_parts/scrambled_tucker-good-36skLT5jZcc-unsplash.jpg,Stimuli/Experimental_stims/scramble/outdoor_scenes/scrambled_jarrett-kow-1ZOyYPOBn7I-unsplash.jpg,NaN,NaN,1100,1300,right,0,0,540,1,33,4,body_parts,outdoor_scenes,NaN,NaN,Stimuli/Experimental_stims/scramble/body_parts/scrambled_tucker-good-36skLT5jZcc-unsplash.jpg,Stimuli/Experimental_stims/scramble/outdoor_scenes/scrambled_jarrett-kow-1ZOyYPOBn7I-unsplash.jpg,0,40,3
32,29646,33,B,scramble,0,1,2,outdoor_scenes,faces,6,19,Stimuli/Experimental_stims/scramble/outdoor_scenes/scrambled_meng-ji-8BH_M-53CyA-unsplash.jpg,Stimuli/Experimental_stims/scramble/faces/scrambled_joel-mott-LaK153ghdig-unsplash.jpg,NaN,NaN,1200,1700,right,1,0,509,0,19,6,faces,outdoor_scenes,NaN,NaN,Stimuli/Experimental_stims/scramble/faces/scrambled_joel-mott-LaK153ghdig-unsplash.jpg,Stimuli/Experimental_stims/scramble/outdoor_scenes/scrambled_meng-ji-8BH_M-53CyA-unsplash.jpg,0,40,3
33,29646,34,A,original,0,1,2,outdoor_scenes,objects,5,45,Stimuli/Experimental_stims/outdoor_scenes/jeff-king-bJHWJeiHfHc-unsplash.jpg,Stimuli/Experimental_stims/objects/leohoho-rngTKHXumy0-unsplash.jpg,50,50,1900,0,,NaN,1,,NaN,NaN,NaN,NaN,NaN,NaN,NaN,NaN,NaN,0,40,3
34,29646,35,J,original,0,1,2,faces,objects,21,36,Stimuli/Experimental_stims/faces/leilani-angel-K84vnnzxmTQ-unsplash.jpg,Stimuli/Experimental_stims/objects/alexander-andrews-JYGnB9gTCls-unsplash.jpg,50,50,3600,0,,NaN,1,1947,1,21,36,faces,objects,50,50,Stimuli/Experimental_stims/faces/leilani-angel-K84vnnzxmTQ-unsplash.jpg,Stimuli/Experimental_stims/objects/alexander-andrews-JYGnB9gTCls-unsplash.jpg,1,40,3
35,29646,36,E,scramble,0,1,2,objects,body_parts,46,30,Stimuli/Experimental_stims/scramble/objects/scrambled_mockup-graphics-PNsj6RiHAF4-unsplash.jpg,Stimuli/Experimental_stims/scramble/body_parts/scrambled_mika-korhonen-Xodzxosar18-unsplash.jpg,NaN,NaN,2300,1000,left,1,0,532,1,46,30,objects,body_parts,NaN,NaN,Stimuli/Experimental_stims/scramble/objects/scrambled_mockup-graphics-PNsj6RiHAF4-unsplash.jpg,Stimuli/Experimental_stims/scramble/body_parts/scrambled_mika-korhonen-Xodzxosar18-unsplash.jpg,0,40,3
36,29646,37,K,original,0,1,2,body_parts,objects,29,44,Stimuli/Experimental_stims/body_parts/manuel-schinner-ZwjFuJ7ebpk-unsplash.jpg,Stimuli/Experimental_stims/objects/kuiye-chen-NuOGFo4PudE-unsplash.jpg,50,50,2400,0,,NaN,0,1256,1,29,44,body_parts,objects,50,50,Stimuli/Experimental_stims/body_parts/manuel-schinner-ZwjFuJ7ebpk-unsplash.jpg,Stimuli/Experimental_stims/objects/kuiye-chen-NuOGFo4PudE-unsplash.jpg,0,40,3
37,29646,38,F,scramble,0,1,2,faces,body_parts,18,27,Stimuli/Experimental_stims/scramble/faces/scrambled_jessica-radanavong-mrYkTuAesKE-unsplash.jpg,Stimuli/Experimental_stims/scramble/body_parts/scrambled_heike-mintel-i_Gns0ELnLw-unsplash.jpg,NaN,NaN,2200,1800,right,1,0,436,0,27,18,body_parts,faces,NaN,NaN,Stimuli/Experimental_stims/scramble/body_parts/scrambled_heike-mintel-i_Gns0ELnLw-unsplash.jpg,Stimuli/Experimental_stims/scramble/faces/scrambled_jessica-radanavong-mrYkTuAesKE-unsplash.jpg,0,40,3
38,29646,39,H,original,0,1,2,faces,outdoor_scenes,22,1,Stimuli/Experimental_stims/faces/ravi-patel-VMGAbeeJTKo-unsplash.jpg,Stimuli/Experimental_stims/outdoor_scenes/ashim-d-silva-S2Q5mdOrrVc-unsplash.jpg,50,50,1000,0,,NaN,0,909,1,22,1,faces,outdoor_scenes,50,50,Stimuli/Experimental_stims/faces/ravi-patel-VMGAbeeJTKo-unsplash.jpg,Stimuli/Experimental_stims/outdoor_scenes/ashim-d-silva-S2Q5mdOrrVc-unsplash.jpg,0,40,3
39,29646,40,J,scramble,0,1,2,faces,objects,21,36,Stimuli/Experimental_stims/scramble/faces/scrambled_leilani-angel-K84vnnzxmTQ-unsplash.jpg,Stimuli/Experimental_stims/scramble/objects/scrambled_alexander-andrews-JYGnB9gTCls-unsplash.jpg,NaN,NaN,1400,1800,left,1,0,493,1,21,36,faces,objects,NaN,NaN,Stimuli/Experimental_stims/scramble/faces/scrambled_leilani-angel-K84vnnzxmTQ-unsplash.jpg,Stimuli/Experimental_stims/scramble/objects/scrambled_alexander-andrews-JYGnB9gTCls-unsplash.jpg,0,40,3
40,29646,41,F,original,0,1,2,faces,body_parts,18,27,Stimuli/Experimental_stims/faces/jessica-radanavong-mrYkTuAesKE-unsplash.jpg,Stimuli/Experimental_stims/body_parts/heike-mintel-i_Gns0ELnLw-unsplash.jpg,50,50,1300,0,,NaN,1,,NaN,NaN,NaN,NaN,NaN,NaN,NaN,NaN,NaN,0,40,3
41,29646,42,K,scramble,0,1,2,body_parts,objects,29,44,Stimuli/Experimental_stims/scramble/body_parts/scrambled_manuel-schinner-ZwjFuJ7ebpk-unsplash.jpg,Stimuli/Experimental_stims/scramble/objects/scrambled_kuiye-chen-NuOGFo4PudE-unsplash.jpg,NaN,NaN,4300,1400,right,1,0,604,0,44,29,objects,body_parts,NaN,NaN,Stimuli/Experimental_stims/scramble/objects/scrambled_kuiye-chen-NuOGFo4PudE-unsplash.jpg,Stimuli/Experimental_stims/scramble/body_parts/scrambled_manuel-schinner-ZwjFuJ7ebpk-unsplash.jpg,1,40,3
42,29646,43,E,original,0,1,2,objects,body_parts,46,30,Stimuli/Experimental_stims/objects/mockup-graphics-PNsj6RiHAF4-unsplash.jpg,Stimuli/Experimental_stims/body_parts/mika-korhonen-Xodzxosar18-unsplash.jpg,50,50,1900,0,,NaN,0,611,0,30,46,body_parts,objects,50,50,Stimuli/Experimental_stims/body_parts/mika-korhonen-Xodzxosar18-unsplash.jpg,Stimuli/Experimental_stims/objects/mockup-graphics-PNsj6RiHAF4-unsplash.jpg,0,40,3
43,29646,44,H,scramble,0,1,2,faces,outdoor_scenes,22,1,Stimuli/Experimental_stims/scramble/faces/scrambled_ravi-patel-VMGAbeeJTKo-unsplash.jpg,Stimuli/Experimental_stims/scramble/outdoor_scenes/scrambled_ashim-d-silva-S2Q5mdOrrVc-unsplash.jpg,NaN,NaN,2100,700,left,1,0,418,1,22,1,faces,outdoor_scenes,NaN,NaN,Stimuli/Experimental_stims/scramble/faces/scrambled_ravi-patel-VMGAbeeJTKo-unsplash.jpg,Stimuli/Experimental_stims/scramble/outdoor_scenes/scrambled_ashim-d-silva-S2Q5mdOrrVc-unsplash.jpg,0,40,3
44,29646,45,I,original,0,1,2,body_parts,outdoor_scenes,33,4,Stimuli/Experimental_stims/body_parts/tucker-good-36skLT5jZcc-unsplash.jpg,Stimuli/Experimental_stims/outdoor_scenes/jarrett-kow-1ZOyYPOBn7I-unsplash.jpg,50,50,1200,0,,NaN,0,597,1,33,4,body_parts,outdoor_scenes,50,50,Stimuli/Experimental_stims/body_parts/tucker-good-36skLT5jZcc-unsplash.jpg,Stimuli/Experimental_stims/outdoor_scenes/jarrett-kow-1ZOyYPOBn7I-unsplash.jpg,0,40,3
45,29646,46,D,original,0,1,2,objects,faces,41,15,Stimuli/Experimental_stims/objects/insung-yoon-w2JtIQQXoRU-unsplash.jpg,Stimuli/Experimental_stims/faces/erik-lucatero-d2MSDujJl2g-unsplash.jpg,50,50,2200,0,,NaN,0,737,1,41,15,objects,faces,50,50,Stimuli/Experimental_stims/objects/insung-yoon-w2JtIQQXoRU-unsplash.jpg,Stimuli/Experimental_stims/faces/erik-lucatero-d2MSDujJl2g-unsplash.jpg,0,40,3
46,29646,47,A,scramble,0,1,2,outdoor_scenes,objects,5,45,Stimuli/Experimental_stims/scramble/outdoor_scenes/scrambled_jeff-king-bJHWJeiHfHc-unsplash.jpg,Stimuli/Experimental_stims/scramble/objects/scrambled_leohoho-rngTKHXumy0-unsplash.jpg,NaN,NaN,1300,1200,left,1,0,436,1,5,45,outdoor_scenes,objects,NaN,NaN,Stimuli/Experimental_stims/scramble/outdoor_scenes/scrambled_jeff-king-bJHWJeiHfHc-unsplash.jpg,Stimuli/Experimental_stims/scramble/objects/scrambled_leohoho-rngTKHXumy0-unsplash.jpg,0,40,3
47,29646,48,G,original,0,1,2,objects,outdoor_scenes,43,9,Stimuli/Experimental_stims/objects/jonathan-greenaway-Y4hGgeiFn3s-unsplash.jpg,Stimuli/Experimental_stims/outdoor_scenes/sergey-pesterev-y-b_FOmJXdg-unsplash.jpg,50,50,1600,0,,NaN,0,979,0,9,43,outdoor_scenes,objects,50,50,Stimuli/Experimental_stims/outdoor_scenes/sergey-pesterev-y-b_FOmJXdg-unsplash.jpg,Stimuli/Experimental_stims/objects/jonathan-greenaway-Y4hGgeiFn3s-unsplash.jpg,0,40,3
48,29646,49,L,original,0,1,2,body_parts,faces,32,14,Stimuli/Experimental_stims/body_parts/towfiqu-barbhuiya-3AsiVDsZnHg-unsplash.jpg,Stimuli/Experimental_stims/faces/david-siglin-UuW4psOb388-unsplash.jpg,50,50,1800,0,,NaN,0,708,1,32,14,body_parts,faces,50,50,Stimuli/Experimental_stims/body_parts/towfiqu-barbhuiya-3AsiVDsZnHg-unsplash.jpg,Stimuli/Experimental_stims/faces/david-siglin-UuW4psOb388-unsplash.jpg,0,40,3
49,29646,50,G,scramble,0,1,2,objects,outdoor_scenes,43,9,Stimuli/Experimental_stims/scramble/objects/scrambled_jonathan-greenaway-Y4hGgeiFn3s-unsplash.jpg,Stimuli/Experimental_stims/scramble/outdoor_scenes/scrambled_sergey-pesterev-y-b_FOmJXdg-unsplash.jpg,NaN,NaN,1300,1800,right,1,0,384,0,9,43,outdoor_scenes,objects,NaN,NaN,Stimuli/Experimental_stims/scramble/outdoor_scenes/scrambled_sergey-pesterev-y-b_FOmJXdg-unsplash.jpg,Stimuli/Experimental_stims/scramble/objects/scrambled_jonathan-greenaway-Y4hGgeiFn3s-unsplash.jpg,0,40,3
50,29646,51,C,original,0,1,2,outdoor_scenes,body_parts,10,26,Stimuli/Experimental_stims/outdoor_scenes/shannon-kunkle-dM8INmkyDas-unsplash.jpg,Stimuli/Experimental_stims/body_parts/engin-akyurt-x_3gyC42btc-unsplash.jpg,50,50,1100,0,,NaN,0,1231,0,26,10,body_parts,outdoor_scenes,50,50,Stimuli/Experimental_stims/body_parts/engin-akyurt-x_3gyC42btc-unsplash.jpg,Stimuli/Experimental_stims/outdoor_scenes/shannon-kunkle-dM8INmkyDas-unsplash.jpg,0,40,3
51,29646,52,D,scramble,0,1,2,objects,faces,41,15,Stimuli/Experimental_stims/scramble/objects/scrambled_insung-yoon-w2JtIQQXoRU-unsplash.jpg,Stimuli/Experimental_stims/scramble/faces/scrambled_erik-lucatero-d2MSDujJl2g-unsplash.jpg,NaN,NaN,3200,1900,left,1,0,395,1,41,15,objects,faces,NaN,NaN,Stimuli/Experimental_stims/scramble/objects/scrambled_insung-yoon-w2JtIQQXoRU-unsplash.jpg,Stimuli/Experimental_stims/scramble/faces/scrambled_erik-lucatero-d2MSDujJl2g-unsplash.jpg,1,40,3
52,29646,53,B,original,0,2,3,outdoor_scenes,faces,6,19,Stimuli/Experimental_stims/outdoor_scenes/meng-ji-8BH_M-53CyA-unsplash.jpg,Stimuli/Experimental_stims/faces/joel-mott-LaK153ghdig-unsplash.jpg,50,50,4700,0,,NaN,1,968,0,19,6,faces,outdoor_scenes,50,50,Stimuli/Experimental_stims/faces/joel-mott-LaK153ghdig-unsplash.jpg,Stimuli/Experimental_stims/outdoor_scenes/meng-ji-8BH_M-53CyA-unsplash.jpg,1,40,3
53,29646,54,B,scramble,0,2,3,outdoor_scenes,faces,6,19,Stimuli/Experimental_stims/scramble/outdoor_scenes/scrambled_meng-ji-8BH_M-53CyA-unsplash.jpg,Stimuli/Experimental_stims/scramble/faces/scrambled_joel-mott-LaK153ghdig-unsplash.jpg,NaN,NaN,1600,1400,right,1,0,345,0,19,6,faces,outdoor_scenes,NaN,NaN,Stimuli/Experimental_stims/scramble/faces/scrambled_joel-mott-LaK153ghdig-unsplash.jpg,Stimuli/Experimental_stims/scramble/outdoor_scenes/scrambled_meng-ji-8BH_M-53CyA-unsplash.jpg,0,40,3
54,29646,55,I,original,0,2,3,body_parts,outdoor_scenes,33,4,Stimuli/Experimental_stims/body_parts/tucker-good-36skLT5jZcc-unsplash.jpg,Stimuli/Experimental_stims/outdoor_scenes/jarrett-kow-1ZOyYPOBn7I-unsplash.jpg,50,50,1100,0,,NaN,1,929,0,4,33,outdoor_scenes,body_parts,50,50,Stimuli/Experimental_stims/outdoor_scenes/jarrett-kow-1ZOyYPOBn7I-unsplash.jpg,Stimuli/Experimental_stims/body_parts/tucker-good-36skLT5jZcc-unsplash.jpg,0,40,3
55,29646,56,L,original,0,2,3,body_parts,faces,32,14,Stimuli/Experimental_stims/body_parts/towfiqu-barbhuiya-3AsiVDsZnHg-unsplash.jpg,Stimuli/Experimental_stims/faces/david-siglin-UuW4psOb388-unsplash.jpg,50,50,2400,0,,NaN,0,641,0,14,32,faces,body_parts,50,50,Stimuli/Experimental_stims/faces/david-siglin-UuW4psOb388-unsplash.jpg,Stimuli/Experimental_stims/body_parts/towfiqu-barbhuiya-3AsiVDsZnHg-unsplash.jpg,0,40,3
56,29646,57,J,scramble,0,2,3,faces,objects,21,36,Stimuli/Experimental_stims/scramble/faces/scrambled_leilani-angel-K84vnnzxmTQ-unsplash.jpg,Stimuli/Experimental_stims/scramble/objects/scrambled_alexander-andrews-JYGnB9gTCls-unsplash.jpg,NaN,NaN,1400,700,right,1,0,306,0,36,21,objects,faces,NaN,NaN,Stimuli/Experimental_stims/scramble/objects/scrambled_alexander-andrews-JYGnB9gTCls-unsplash.jpg,Stimuli/Experimental_stims/scramble/faces/scrambled_leilani-angel-K84vnnzxmTQ-unsplash.jpg,0,40,3
57,29646,58,E,scramble,0,2,3,objects,body_parts,46,30,Stimuli/Experimental_stims/scramble/objects/scrambled_mockup-graphics-PNsj6RiHAF4-unsplash.jpg,Stimuli/Experimental_stims/scramble/body_parts/scrambled_mika-korhonen-Xodzxosar18-unsplash.jpg,NaN,NaN,1800,900,right,1,0,706,0,30,46,body_parts,objects,NaN,NaN,Stimuli/Experimental_stims/scramble/body_parts/scrambled_mika-korhonen-Xodzxosar18-unsplash.jpg,Stimuli/Experimental_stims/scramble/objects/scrambled_mockup-graphics-PNsj6RiHAF4-unsplash.jpg,0,40,3
58,29646,59,D,original,0,2,3,objects,faces,41,15,Stimuli/Experimental_stims/objects/insung-yoon-w2JtIQQXoRU-unsplash.jpg,Stimuli/Experimental_stims/faces/erik-lucatero-d2MSDujJl2g-unsplash.jpg,50,50,3400,0,,NaN,1,755,0,15,41,faces,objects,50,50,Stimuli/Experimental_stims/faces/erik-lucatero-d2MSDujJl2g-unsplash.jpg,Stimuli/Experimental_stims/objects/insung-yoon-w2JtIQQXoRU-unsplash.jpg,1,40,3
59,29646,60,C,scramble,0,2,3,outdoor_scenes,body_parts,10,26,Stimuli/Experimental_stims/scramble/outdoor_scenes/scrambled_shannon-kunkle-dM8INmkyDas-unsplash.jpg,Stimuli/Experimental_stims/scramble/body_parts/scrambled_engin-akyurt-x_3gyC42btc-unsplash.jpg,NaN,NaN,1400,1000,left,0,1,NaN,NaN,NaN,NaN,NaN,NaN,NaN,NaN,NaN,NaN,0,40,3
60,29646,61,J,original,0,2,3,faces,objects,21,36,Stimuli/Experimental_stims/faces/leilani-angel-K84vnnzxmTQ-unsplash.jpg,Stimuli/Experimental_stims/objects/alexander-andrews-JYGnB9gTCls-unsplash.jpg,50,50,1900,0,,NaN,1,,NaN,NaN,NaN,NaN,NaN,NaN,NaN,NaN,NaN,0,40,3
61,29646,62,K,original,0,2,3,body_parts,objects,29,44,Stimuli/Experimental_stims/body_parts/manuel-schinner-ZwjFuJ7ebpk-unsplash.jpg,Stimuli/Experimental_stims/objects/kuiye-chen-NuOGFo4PudE-unsplash.jpg,50,50,1500,0,,NaN,1,389,0,44,29,objects,body_parts,50,50,Stimuli/Experimental_stims/objects/kuiye-chen-NuOGFo4PudE-unsplash.jpg,Stimuli/Experimental_stims/body_parts/manuel-schinner-ZwjFuJ7ebpk-unsplash.jpg,0,40,3
62,29646,63,F,scramble,0,2,3,faces,body_parts,18,27,Stimuli/Experimental_stims/scramble/faces/scrambled_jessica-radanavong-mrYkTuAesKE-unsplash.jpg,Stimuli/Experimental_stims/scramble/body_parts/scrambled_heike-mintel-i_Gns0ELnLw-unsplash.jpg,NaN,NaN,2100,1100,left,0,0,617,0,27,18,body_parts,faces,NaN,NaN,Stimuli/Experimental_stims/scramble/body_parts/scrambled_heike-mintel-i_Gns0ELnLw-unsplash.jpg,Stimuli/Experimental_stims/scramble/faces/scrambled_jessica-radanavong-mrYkTuAesKE-unsplash.jpg,0,40,3
63,29646,64,D,scramble,0,2,3,objects,faces,41,15,Stimuli/Experimental_stims/scramble/objects/scrambled_insung-yoon-w2JtIQQXoRU-unsplash.jpg,Stimuli/Experimental_stims/scramble/faces/scrambled_erik-lucatero-d2MSDujJl2g-unsplash.jpg,NaN,NaN,1500,1500,right,1,0,512,0,15,41,faces,objects,NaN,NaN,Stimuli/Experimental_stims/scramble/faces/scrambled_erik-lucatero-d2MSDujJl2g-unsplash.jpg,Stimuli/Experimental_stims/scramble/objects/scrambled_insung-yoon-w2JtIQQXoRU-unsplash.jpg,0,40,3
64,29646,65,E,original,0,2,3,objects,body_parts,46,30,Stimuli/Experimental_stims/objects/mockup-graphics-PNsj6RiHAF4-unsplash.jpg,Stimuli/Experimental_stims/body_parts/mika-korhonen-Xodzxosar18-unsplash.jpg,50,50,2000,0,,NaN,0,1279,0,30,46,body_parts,objects,50,50,Stimuli/Experimental_stims/body_parts/mika-korhonen-Xodzxosar18-unsplash.jpg,Stimuli/Experimental_stims/objects/mockup-graphics-PNsj6RiHAF4-unsplash.jpg,0,40,3
65,29646,66,H,scramble,0,2,3,faces,outdoor_scenes,22,1,Stimuli/Experimental_stims/scramble/faces/scrambled_ravi-patel-VMGAbeeJTKo-unsplash.jpg,Stimuli/Experimental_stims/scramble/outdoor_scenes/scrambled_ashim-d-silva-S2Q5mdOrrVc-unsplash.jpg,NaN,NaN,1100,1100,left,0,0,842,0,1,22,outdoor_scenes,faces,NaN,NaN,Stimuli/Experimental_stims/scramble/outdoor_scenes/scrambled_ashim-d-silva-S2Q5mdOrrVc-unsplash.jpg,Stimuli/Experimental_stims/scramble/faces/scrambled_ravi-patel-VMGAbeeJTKo-unsplash.jpg,0,40,3
66,29646,67,G,original,0,2,3,objects,outdoor_scenes,43,9,Stimuli/Experimental_stims/objects/jonathan-greenaway-Y4hGgeiFn3s-unsplash.jpg,Stimuli/Experimental_stims/outdoor_scenes/sergey-pesterev-y-b_FOmJXdg-unsplash.jpg,50,50,1000,0,,NaN,0,755,0,9,43,outdoor_scenes,objects,50,50,Stimuli/Experimental_stims/outdoor_scenes/sergey-pesterev-y-b_FOmJXdg-unsplash.jpg,Stimuli/Experimental_stims/objects/jonathan-greenaway-Y4hGgeiFn3s-unsplash.jpg,0,40,3
67,29646,68,A,scramble,0,2,3,outdoor_scenes,objects,5,45,Stimuli/Experimental_stims/scramble/outdoor_scenes/scrambled_jeff-king-bJHWJeiHfHc-unsplash.jpg,Stimuli/Experimental_stims/scramble/objects/scrambled_leohoho-rngTKHXumy0-unsplash.jpg,NaN,NaN,2800,1400,left,0,0,318,0,45,5,objects,outdoor_scenes,NaN,NaN,Stimuli/Experimental_stims/scramble/objects/scrambled_leohoho-rngTKHXumy0-unsplash.jpg,Stimuli/Experimental_stims/scramble/outdoor_scenes/scrambled_jeff-king-bJHWJeiHfHc-unsplash.jpg,0,40,3
68,29646,69,K,scramble,0,2,3,body_parts,objects,29,44,Stimuli/Experimental_stims/scramble/body_parts/scrambled_manuel-schinner-ZwjFuJ7ebpk-unsplash.jpg,Stimuli/Experimental_stims/scramble/objects/scrambled_kuiye-chen-NuOGFo4PudE-unsplash.jpg,NaN,NaN,3100,900,left,0,0,393,0,44,29,objects,body_parts,NaN,NaN,Stimuli/Experimental_stims/scramble/objects/scrambled_kuiye-chen-NuOGFo4PudE-unsplash.jpg,Stimuli/Experimental_stims/scramble/body_parts/scrambled_manuel-schinner-ZwjFuJ7ebpk-unsplash.jpg,1,40,3
69,29646,70,H,original,0,2,3,faces,outdoor_scenes,22,1,Stimuli/Experimental_stims/faces/ravi-patel-VMGAbeeJTKo-unsplash.jpg,Stimuli/Experimental_stims/outdoor_scenes/ashim-d-silva-S2Q5mdOrrVc-unsplash.jpg,50,50,1100,0,,NaN,0,814,0,1,22,outdoor_scenes,faces,50,50,Stimuli/Experimental_stims/outdoor_scenes/ashim-d-silva-S2Q5mdOrrVc-unsplash.jpg,Stimuli/Experimental_stims/faces/ravi-patel-VMGAbeeJTKo-unsplash.jpg,0,40,3
70,29646,71,I,scramble,0,2,3,body_parts,outdoor_scenes,33,4,Stimuli/Experimental_stims/scramble/body_parts/scrambled_tucker-good-36skLT5jZcc-unsplash.jpg,Stimuli/Experimental_stims/scramble/outdoor_scenes/scrambled_jarrett-kow-1ZOyYPOBn7I-unsplash.jpg,NaN,NaN,1200,1100,right,1,0,1059,0,4,33,outdoor_scenes,body_parts,NaN,NaN,Stimuli/Experimental_stims/scramble/outdoor_scenes/scrambled_jarrett-kow-1ZOyYPOBn7I-unsplash.jpg,Stimuli/Experimental_stims/scramble/body_parts/scrambled_tucker-good-36skLT5jZcc-unsplash.jpg,0,40,3
71,29646,72,A,original,0,2,3,outdoor_scenes,objects,5,45,Stimuli/Experimental_stims/outdoor_scenes/jeff-king-bJHWJeiHfHc-unsplash.jpg,Stimuli/Experimental_stims/objects/leohoho-rngTKHXumy0-unsplash.jpg,50,50,2500,0,,NaN,0,1064,0,45,5,objects,outdoor_scenes,50,50,Stimuli/Experimental_stims/objects/leohoho-rngTKHXumy0-unsplash.jpg,Stimuli/Experimental_stims/outdoor_scenes/jeff-king-bJHWJeiHfHc-unsplash.jpg,0,40,3
72,29646,73,L,scramble,0,2,3,body_parts,faces,32,14,Stimuli/Experimental_stims/scramble/body_parts/scrambled_towfiqu-barbhuiya-3AsiVDsZnHg-unsplash.jpg,Stimuli/Experimental_stims/scramble/faces/scrambled_david-siglin-UuW4psOb388-unsplash.jpg,NaN,NaN,1300,1200,left,1,0,1568,1,32,14,body_parts,faces,NaN,NaN,Stimuli/Experimental_stims/scramble/body_parts/scrambled_towfiqu-barbhuiya-3AsiVDsZnHg-unsplash.jpg,Stimuli/Experimental_stims/scramble/faces/scrambled_david-siglin-UuW4psOb388-unsplash.jpg,0,40,3
73,29646,74,G,scramble,0,2,3,objects,outdoor_scenes,43,9,Stimuli/Experimental_stims/scramble/objects/scrambled_jonathan-greenaway-Y4hGgeiFn3s-unsplash.jpg,Stimuli/Experimental_stims/scramble/outdoor_scenes/scrambled_sergey-pesterev-y-b_FOmJXdg-unsplash.jpg,NaN,NaN,3200,1300,right,0,1,NaN,NaN,NaN,NaN,NaN,NaN,NaN,NaN,NaN,NaN,1,40,3
74,29646,75,F,original,0,2,3,faces,body_parts,18,27,Stimuli/Experimental_stims/faces/jessica-radanavong-mrYkTuAesKE-unsplash.jpg,Stimuli/Experimental_stims/body_parts/heike-mintel-i_Gns0ELnLw-unsplash.jpg,50,50,1800,0,,NaN,0,609,1,18,27,faces,body_parts,50,50,Stimuli/Experimental_stims/faces/jessica-radanavong-mrYkTuAesKE-unsplash.jpg,Stimuli/Experimental_stims/body_parts/heike-mintel-i_Gns0ELnLw-unsplash.jpg,0,40,3
75,29646,76,C,original,0,2,3,outdoor_scenes,body_parts,10,26,Stimuli/Experimental_stims/outdoor_scenes/shannon-kunkle-dM8INmkyDas-unsplash.jpg,Stimuli/Experimental_stims/body_parts/engin-akyurt-x_3gyC42btc-unsplash.jpg,50,50,2100,0,,NaN,0,2825,1,10,26,outdoor_scenes,body_parts,50,50,Stimuli/Experimental_stims/outdoor_scenes/shannon-kunkle-dM8INmkyDas-unsplash.jpg,Stimuli/Experimental_stims/body_parts/engin-akyurt-x_3gyC42btc-unsplash.jpg,0,40,3
76,29646,77,I,scramble,0,2,4,body_parts,outdoor_scenes,33,4,Stimuli/Experimental_stims/scramble/body_parts/scrambled_tucker-good-36skLT5jZcc-unsplash.jpg,Stimuli/Experimental_stims/scramble/outdoor_scenes/scrambled_jarrett-kow-1ZOyYPOBn7I-unsplash.jpg,NaN,NaN,1700,700,left,0,1,NaN,NaN,NaN,NaN,NaN,NaN,NaN,NaN,NaN,NaN,0,40,3
77,29646,78,H,scramble,0,2,4,faces,outdoor_scenes,22,1,Stimuli/Experimental_stims/scramble/faces/scrambled_ravi-patel-VMGAbeeJTKo-unsplash.jpg,Stimuli/Experimental_stims/scramble/outdoor_scenes/scrambled_ashim-d-silva-S2Q5mdOrrVc-unsplash.jpg,NaN,NaN,1100,1500,left,1,0,577,1,22,1,faces,outdoor_scenes,NaN,NaN,Stimuli/Experimental_stims/scramble/faces/scrambled_ravi-patel-VMGAbeeJTKo-unsplash.jpg,Stimuli/Experimental_stims/scramble/outdoor_scenes/scrambled_ashim-d-silva-S2Q5mdOrrVc-unsplash.jpg,0,40,3
78,29646,79,G,original,0,2,4,objects,outdoor_scenes,43,9,Stimuli/Experimental_stims/objects/jonathan-greenaway-Y4hGgeiFn3s-unsplash.jpg,Stimuli/Experimental_stims/outdoor_scenes/sergey-pesterev-y-b_FOmJXdg-unsplash.jpg,50,50,1900,0,,NaN,0,1916,1,43,9,objects,outdoor_scenes,50,50,Stimuli/Experimental_stims/objects/jonathan-greenaway-Y4hGgeiFn3s-unsplash.jpg,Stimuli/Experimental_stims/outdoor_scenes/sergey-pesterev-y-b_FOmJXdg-unsplash.jpg,0,40,3
79,29646,80,D,scramble,0,2,4,objects,faces,41,15,Stimuli/Experimental_stims/scramble/objects/scrambled_insung-yoon-w2JtIQQXoRU-unsplash.jpg,Stimuli/Experimental_stims/scramble/faces/scrambled_erik-lucatero-d2MSDujJl2g-unsplash.jpg,NaN,NaN,3600,1500,right,0,0,381,1,41,15,objects,faces,NaN,NaN,Stimuli/Experimental_stims/scramble/objects/scrambled_insung-yoon-w2JtIQQXoRU-unsplash.jpg,Stimuli/Experimental_stims/scramble/faces/scrambled_erik-lucatero-d2MSDujJl2g-unsplash.jpg,1,40,3
80,29646,81,C,original,0,2,4,outdoor_scenes,body_parts,10,26,Stimuli/Experimental_stims/outdoor_scenes/shannon-kunkle-dM8INmkyDas-unsplash.jpg,Stimuli/Experimental_stims/body_parts/engin-akyurt-x_3gyC42btc-unsplash.jpg,50,50,1200,0,,NaN,0,284,1,10,26,outdoor_scenes,body_parts,50,50,Stimuli/Experimental_stims/outdoor_scenes/shannon-kunkle-dM8INmkyDas-unsplash.jpg,Stimuli/Experimental_stims/body_parts/engin-akyurt-x_3gyC42btc-unsplash.jpg,0,40,3
81,29646,82,F,original,0,2,4,faces,body_parts,18,27,Stimuli/Experimental_stims/faces/jessica-radanavong-mrYkTuAesKE-unsplash.jpg,Stimuli/Experimental_stims/body_parts/heike-mintel-i_Gns0ELnLw-unsplash.jpg,50,50,2300,0,,NaN,0,929,1,18,27,faces,body_parts,50,50,Stimuli/Experimental_stims/faces/jessica-radanavong-mrYkTuAesKE-unsplash.jpg,Stimuli/Experimental_stims/body_parts/heike-mintel-i_Gns0ELnLw-unsplash.jpg,0,40,3
82,29646,83,J,scramble,0,2,4,faces,objects,21,36,Stimuli/Experimental_stims/scramble/faces/scrambled_leilani-angel-K84vnnzxmTQ-unsplash.jpg,Stimuli/Experimental_stims/scramble/objects/scrambled_alexander-andrews-JYGnB9gTCls-unsplash.jpg,NaN,NaN,1300,1300,right,0,0,476,1,21,36,faces,objects,NaN,NaN,Stimuli/Experimental_stims/scramble/faces/scrambled_leilani-angel-K84vnnzxmTQ-unsplash.jpg,Stimuli/Experimental_stims/scramble/objects/scrambled_alexander-andrews-JYGnB9gTCls-unsplash.jpg,0,40,3
83,29646,84,B,scramble,0,2,4,outdoor_scenes,faces,6,19,Stimuli/Experimental_stims/scramble/outdoor_scenes/scrambled_meng-ji-8BH_M-53CyA-unsplash.jpg,Stimuli/Experimental_stims/scramble/faces/scrambled_joel-mott-LaK153ghdig-unsplash.jpg,NaN,NaN,2800,1000,left,1,0,337,1,6,19,outdoor_scenes,faces,NaN,NaN,Stimuli/Experimental_stims/scramble/outdoor_scenes/scrambled_meng-ji-8BH_M-53CyA-unsplash.jpg,Stimuli/Experimental_stims/scramble/faces/scrambled_joel-mott-LaK153ghdig-unsplash.jpg,0,40,3
84,29646,85,E,original,0,2,4,objects,body_parts,46,30,Stimuli/Experimental_stims/objects/mockup-graphics-PNsj6RiHAF4-unsplash.jpg,Stimuli/Experimental_stims/body_parts/mika-korhonen-Xodzxosar18-unsplash.jpg,50,50,1100,0,,NaN,0,1243,1,46,30,objects,body_parts,50,50,Stimuli/Experimental_stims/objects/mockup-graphics-PNsj6RiHAF4-unsplash.jpg,Stimuli/Experimental_stims/body_parts/mika-korhonen-Xodzxosar18-unsplash.jpg,0,40,3
85,29646,86,G,scramble,0,2,4,objects,outdoor_scenes,43,9,Stimuli/Experimental_stims/scramble/objects/scrambled_jonathan-greenaway-Y4hGgeiFn3s-unsplash.jpg,Stimuli/Experimental_stims/scramble/outdoor_scenes/scrambled_sergey-pesterev-y-b_FOmJXdg-unsplash.jpg,NaN,NaN,2300,1100,left,0,1,NaN,NaN,NaN,NaN,NaN,NaN,NaN,NaN,NaN,NaN,0,40,3
86,29646,87,J,original,0,2,4,faces,objects,21,36,Stimuli/Experimental_stims/faces/leilani-angel-K84vnnzxmTQ-unsplash.jpg,Stimuli/Experimental_stims/objects/alexander-andrews-JYGnB9gTCls-unsplash.jpg,50,50,2200,0,,NaN,1,,NaN,NaN,NaN,NaN,NaN,NaN,NaN,NaN,NaN,0,40,3
87,29646,88,D,original,0,2,4,objects,faces,41,15,Stimuli/Experimental_stims/objects/insung-yoon-w2JtIQQXoRU-unsplash.jpg,Stimuli/Experimental_stims/faces/erik-lucatero-d2MSDujJl2g-unsplash.jpg,50,50,1400,0,,NaN,1,,NaN,NaN,NaN,NaN,NaN,NaN,NaN,NaN,NaN,0,40,3
88,29646,89,F,scramble,0,2,4,faces,body_parts,18,27,Stimuli/Experimental_stims/scramble/faces/scrambled_jessica-radanavong-mrYkTuAesKE-unsplash.jpg,Stimuli/Experimental_stims/scramble/body_parts/scrambled_heike-mintel-i_Gns0ELnLw-unsplash.jpg,NaN,NaN,2900,200,left,0,1,NaN,NaN,NaN,NaN,NaN,NaN,NaN,NaN,NaN,NaN,0,40,3
89,29646,90,B,original,0,2,4,outdoor_scenes,faces,6,19,Stimuli/Experimental_stims/outdoor_scenes/meng-ji-8BH_M-53CyA-unsplash.jpg,Stimuli/Experimental_stims/faces/joel-mott-LaK153ghdig-unsplash.jpg,50,50,1600,0,,NaN,1,,NaN,NaN,NaN,NaN,NaN,NaN,NaN,NaN,NaN,0,40,3
90,29646,91,C,scramble,0,2,4,outdoor_scenes,body_parts,10,26,Stimuli/Experimental_stims/scramble/outdoor_scenes/scrambled_shannon-kunkle-dM8INmkyDas-unsplash.jpg,Stimuli/Experimental_stims/scramble/body_parts/scrambled_engin-akyurt-x_3gyC42btc-unsplash.jpg,NaN,NaN,3000,1000,right,0,1,NaN,NaN,NaN,NaN,NaN,NaN,NaN,NaN,NaN,NaN,1,40,3
91,29646,92,A,scramble,0,2,4,outdoor_scenes,objects,5,45,Stimuli/Experimental_stims/scramble/outdoor_scenes/scrambled_jeff-king-bJHWJeiHfHc-unsplash.jpg,Stimuli/Experimental_stims/scramble/objects/scrambled_leohoho-rngTKHXumy0-unsplash.jpg,NaN,NaN,2800,500,left,0,1,NaN,NaN,NaN,NaN,NaN,NaN,NaN,NaN,NaN,NaN,0,40,3
92,29646,93,I,original,0,2,4,body_parts,outdoor_scenes,33,4,Stimuli/Experimental_stims/body_parts/tucker-good-36skLT5jZcc-unsplash.jpg,Stimuli/Experimental_stims/outdoor_scenes/jarrett-kow-1ZOyYPOBn7I-unsplash.jpg,50,50,2900,0,,NaN,1,,NaN,NaN,NaN,NaN,NaN,NaN,NaN,NaN,NaN,0,40,3
93,29646,94,K,original,0,2,4,body_parts,objects,29,44,Stimuli/Experimental_stims/body_parts/manuel-schinner-ZwjFuJ7ebpk-unsplash.jpg,Stimuli/Experimental_stims/objects/kuiye-chen-NuOGFo4PudE-unsplash.jpg,50,50,1300,0,,NaN,1,,NaN,NaN,NaN,NaN,NaN,NaN,NaN,NaN,NaN,0,40,3
94,29646,95,E,scramble,0,2,4,objects,body_parts,46,30,Stimuli/Experimental_stims/scramble/objects/scrambled_mockup-graphics-PNsj6RiHAF4-unsplash.jpg,Stimuli/Experimental_stims/scramble/body_parts/scrambled_mika-korhonen-Xodzxosar18-unsplash.jpg,NaN,NaN,1100,1800,right,0,1,NaN,NaN,NaN,NaN,NaN,NaN,NaN,NaN,NaN,NaN,0,40,3
95,29646,96,L,original,0,2,4,body_parts,faces,32,14,Stimuli/Experimental_stims/body_parts/towfiqu-barbhuiya-3AsiVDsZnHg-unsplash.jpg,Stimuli/Experimental_stims/faces/david-siglin-UuW4psOb388-unsplash.jpg,50,50,1500,0,,NaN,0,1267,1,32,14,body_parts,faces,50,50,Stimuli/Experimental_stims/body_parts/towfiqu-barbhuiya-3AsiVDsZnHg-unsplash.jpg,Stimuli/Experimental_stims/faces/david-siglin-UuW4psOb388-unsplash.jpg,0,40,3
96,29646,97,L,scramble,0,2,4,body_parts,faces,32,14,Stimuli/Experimental_stims/scramble/body_parts/scrambled_towfiqu-barbhuiya-3AsiVDsZnHg-unsplash.jpg,Stimuli/Experimental_stims/scramble/faces/scrambled_david-siglin-UuW4psOb388-unsplash.jpg,NaN,NaN,1100,500,right,0,0,441,1,32,14,body_parts,faces,NaN,NaN,Stimuli/Experimental_stims/scramble/body_parts/scrambled_towfiqu-barbhuiya-3AsiVDsZnHg-unsplash.jpg,Stimuli/Experimental_stims/scramble/faces/scrambled_david-siglin-UuW4psOb388-unsplash.jpg,0,40,3
97,29646,98,H,original,0,2,4,faces,outdoor_scenes,22,1,Stimuli/Experimental_stims/faces/ravi-patel-VMGAbeeJTKo-unsplash.jpg,Stimuli/Experimental_stims/outdoor_scenes/ashim-d-silva-S2Q5mdOrrVc-unsplash.jpg,50,50,1500,0,,NaN,0,2597,0,1,22,outdoor_scenes,faces,50,50,Stimuli/Experimental_stims/outdoor_scenes/ashim-d-silva-S2Q5mdOrrVc-unsplash.jpg,Stimuli/Experimental_stims/faces/ravi-patel-VMGAbeeJTKo-unsplash.jpg,0,40,3
98,29646,99,A,original,0,2,4,outdoor_scenes,objects,5,45,Stimuli/Experimental_stims/outdoor_scenes/jeff-king-bJHWJeiHfHc-unsplash.jpg,Stimuli/Experimental_stims/objects/leohoho-rngTKHXumy0-unsplash.jpg,50,50,1100,0,,NaN,0,620,0,45,5,objects,outdoor_scenes,50,50,Stimuli/Experimental_stims/objects/leohoho-rngTKHXumy0-unsplash.jpg,Stimuli/Experimental_stims/outdoor_scenes/jeff-king-bJHWJeiHfHc-unsplash.jpg,0,40,3
99,29646,100,K,scramble,0,2,4,body_parts,objects,29,44,Stimuli/Experimental_stims/scramble/body_parts/scrambled_manuel-schinner-ZwjFuJ7ebpk-unsplash.jpg,Stimuli/Experimental_stims/scramble/objects/scrambled_kuiye-chen-NuOGFo4PudE-unsplash.jpg,NaN,NaN,4300,100,right,1,0,246,0,44,29,objects,body_parts,NaN,NaN,Stimuli/Experimental_stims/scramble/objects/scrambled_kuiye-chen-NuOGFo4PudE-unsplash.jpg,Stimuli/Experimental_stims/scramble/body_parts/scrambled_manuel-schinner-ZwjFuJ7ebpk-unsplash.jpg,1,40,3