,PID,trial,pair_id,stim_type,practice,run,block,left_category,right_category,left_stimulus,right_stimulus,left_path,right_path,left_rating,right_rating,iti,scramble_screen_time,scramble_instructed_side,scramble_acc,no_response,rt,left_chosen,chosen_stimulus,unchosen_stimulus,chosen_category,unchosen_category,chosen_path,unchosen_path,long_iti,simulation,version,version
0,64925,1,prac1,original,1,0,0,,,,,Stimuli/Practice_stims/Deliberation/anthony-delanoix-Q0-fOL2nqZc-unsplash.jpg,Stimuli/Practice_stims/Deliberation/becca-tapert-sY5RjMB1KkE-unsplash.jpg,,,1500,0,,NaN,0,NaN,NaN,NaN,NaN,NaN,NaN,NaN,NaN,0,28,2,NaN
1,64925,2,prac2,scramble,1,0,0,,,,,Stimuli/Practice_stims/Deliberation/scramble/scrambled_clay-banks-1KPfcPdbWFM-unsplash.jpg,Stimuli/Practice_stims/Deliberation/scramble/scrambled_melissa-keizer-sV4Pd8wq5_o-unsplash.jpg,,,2500,1500,left,NaN,0,NaN,NaN,NaN,NaN,NaN,NaN,NaN,NaN,0,28,2,NaN
2,64925,3,prac3,scramble,1,0,0,,,,,Stimuli/Practice_stims/Deliberation/scramble/scrambled_anthony-delanoix-Q0-fOL2nqZc-unsplash.jpg,Stimuli/Practice_stims/Deliberation/scramble/scrambled_becca-tapert-sY5RjMB1KkE-unsplash.jpg,,,3000,1500,right,NaN,0,NaN,NaN,NaN,NaN,NaN,NaN,NaN,NaN,0,28,2,NaN
3,64925,4,prac4,original,1,0,0,,,,,Stimuli/Practice_stims/Deliberation/clay-banks-1KPfcPdbWFM-unsplash.jpg,Stimuli/Practice_stims/Deliberation/melissa-keizer-sV4Pd8wq5_o-unsplash.jpg,,,2000,0,,NaN,0,NaN,NaN,NaN,NaN,NaN,NaN,NaN,NaN,0,28,2,NaN
4,64925,5,J,original,0,1,1,faces,objects,18,43,Stimuli/Experimental_stims/faces/jessica-radanavong-mrYkTuAesKE-unsplash.jpg,Stimuli/Experimental_stims/objects/jonathan-greenaway-Y4hGgeiFn3s-unsplash.jpg,50,50,4600,0,,NaN,0,NaN,NaN,NaN,NaN,NaN,NaN,NaN,NaN,1,28,2,NaN
5,64925,6,A,scramble,0,1,1,outdoor_scenes,objects,5,44,Stimuli/Experimental_stims/scramble/outdoor_scenes/scrambled_jeff-king-bJHWJeiHfHc-unsplash.jpg,Stimuli/Experimental_stims/scramble/objects/scrambled_kuiye-chen-NuOGFo4PudE-unsplash.jpg,NaN,NaN,1500,1900,left,NaN,0,NaN,NaN,NaN,NaN,NaN,NaN,NaN,NaN,0,28,2,NaN
6,64925,7,A,original,0,1,1,outdoor_scenes,objects,5,44,Stimuli/Experimental_stims/outdoor_scenes/jeff-king-bJHWJeiHfHc-unsplash.jpg,Stimuli/Experimental_stims/objects/kuiye-chen-NuOGFo4PudE-unsplash.jpg,50,50,2100,0,,NaN,0,NaN,NaN,NaN,NaN,NaN,NaN,NaN,NaN,0,28,2,NaN
7,64925,8,B,original,0,1,1,outdoor_scenes,faces,6,23,Stimuli/Experimental_stims/outdoor_scenes/meng-ji-8BH_M-53CyA-unsplash.jpg,Stimuli/Experimental_stims/faces/rikonavt-HQjfrvdTfak-unsplash.jpg,50,50,1800,0,,NaN,0,NaN,NaN,NaN,NaN,NaN,NaN,NaN,NaN,0,28,2,NaN
8,64925,9,K,scramble,0,1,1,body_parts,objects,27,45,Stimuli/Experimental_stims/scramble/body_parts/scrambled_heike-mintel-i_Gns0ELnLw-unsplash.jpg,Stimuli/Experimental_stims/scramble/objects/scrambled_leohoho-rngTKHXumy0-unsplash.jpg,NaN,NaN,1800,1800,left,NaN,0,NaN,NaN,NaN,NaN,NaN,NaN,NaN,NaN,0,28,2,NaN
9,64925,10,C,original,0,1,1,outdoor_scenes,body_parts,1,31,Stimuli/Experimental_stims/outdoor_scenes/ashim-d-silva-S2Q5mdOrrVc-unsplash.jpg,Stimuli/Experimental_stims/body_parts/sincerely-media-VN6DbKajo5s-unsplash.jpg,50,50,1300,0,,NaN,0,NaN,NaN,NaN,NaN,NaN,NaN,NaN,NaN,0,28,2,NaN
10,64925,11,I,original,0,1,1,body_parts,outdoor_scenes,32,2,Stimuli/Experimental_stims/body_parts/towfiqu-barbhuiya-3AsiVDsZnHg-unsplash.jpg,Stimuli/Experimental_stims/outdoor_scenes/bruno-van-der-kraan-qez8mNJ3ilU-unsplash.jpg,50,50,1100,0,,NaN,0,NaN,NaN,NaN,NaN,NaN,NaN,NaN,NaN,0,28,2,NaN
11,64925,12,D,scramble,0,1,1,objects,faces,42,12,Stimuli/Experimental_stims/scramble/objects/scrambled_jess-bailey-nOeVi8DsN8U-unsplash.jpg,Stimuli/Experimental_stims/scramble/faces/scrambled_aiony-haust-jmATI5Q_YgY-unsplash.jpg,NaN,NaN,2500,1300,right,NaN,0,NaN,NaN,NaN,NaN,NaN,NaN,NaN,NaN,0,28,2,NaN
12,64925,13,D,original,0,1,1,objects,faces,42,12,Stimuli/Experimental_stims/objects/jess-bailey-nOeVi8DsN8U-unsplash.jpg,Stimuli/Experimental_stims/faces/aiony-haust-jmATI5Q_YgY-unsplash.jpg,50,50,1600,0,,NaN,0,NaN,NaN,NaN,NaN,NaN,NaN,NaN,NaN,0,28,2,NaN
13,64925,14,C,scramble,0,1,1,outdoor_scenes,body_parts,1,31,Stimuli/Experimental_stims/scramble/outdoor_scenes/scrambled_ashim-d-silva-S2Q5mdOrrVc-unsplash.jpg,Stimuli/Experimental_stims/scramble/body_parts/scrambled_sincerely-media-VN6DbKajo5s-unsplash.jpg,NaN,NaN,4100,1500,right,NaN,0,NaN,NaN,NaN,NaN,NaN,NaN,NaN,NaN,1,28,2,NaN
14,64925,15,K,original,0,1,1,body_parts,objects,27,45,Stimuli/Experimental_stims/body_parts/heike-mintel-i_Gns0ELnLw-unsplash.jpg,Stimuli/Experimental_stims/objects/leohoho-rngTKHXumy0-unsplash.jpg,50,50,2000,0,,NaN,0,NaN,NaN,NaN,NaN,NaN,NaN,NaN,NaN,0,28,2,NaN
15,64925,16,E,scramble,0,1,1,objects,body_parts,39,35,Stimuli/Experimental_stims/scramble/objects/scrambled_charlesdeluvio-1-nx1QR5dTE-unsplash.jpg,Stimuli/Experimental_stims/scramble/body_parts/scrambled_wc-so-KH4AAPjb-tI-unsplash.jpg,NaN,NaN,3100,1300,right,NaN,0,NaN,NaN,NaN,NaN,NaN,NaN,NaN,NaN,0,28,2,NaN
16,64925,17,L,scramble,0,1,1,body_parts,faces,34,17,Stimuli/Experimental_stims/scramble/body_parts/scrambled_wagner-santos-mBWMvIuVnso-unsplash.jpg,Stimuli/Experimental_stims/scramble/faces/scrambled_good-faces-xmSWVeGEnJw-unsplash.jpg,NaN,NaN,1000,700,left,NaN,0,NaN,NaN,NaN,NaN,NaN,NaN,NaN,NaN,0,28,2,NaN
17,64925,18,E,original,0,1,1,objects,body_parts,39,35,Stimuli/Experimental_stims/objects/charlesdeluvio-1-nx1QR5dTE-unsplash.jpg,Stimuli/Experimental_stims/body_parts/wc-so-KH4AAPjb-tI-unsplash.jpg,50,50,1900,0,,NaN,0,NaN,NaN,NaN,NaN,NaN,NaN,NaN,NaN,0,28,2,NaN
18,64925,19,B,scramble,0,1,1,outdoor_scenes,faces,6,23,Stimuli/Experimental_stims/scramble/outdoor_scenes/scrambled_meng-ji-8BH_M-53CyA-unsplash.jpg,Stimuli/Experimental_stims/scramble/faces/scrambled_rikonavt-HQjfrvdTfak-unsplash.jpg,NaN,NaN,1200,1500,right,NaN,0,NaN,NaN,NaN,NaN,NaN,NaN,NaN,NaN,0,28,2,NaN
19,64925,20,G,original,0,1,1,objects,outdoor_scenes,47,9,Stimuli/Experimental_stims/objects/ronaldo-arthur-vidal-Cdz_lvnl37k-unsplash.jpg,Stimuli/Experimental_stims/outdoor_scenes/sergey-pesterev-y-b_FOmJXdg-unsplash.jpg,50,50,1400,0,,NaN,0,NaN,NaN,NaN,NaN,NaN,NaN,NaN,NaN,0,28,2,NaN
20,64925,21,H,scramble,0,1,1,faces,outdoor_scenes,21,3,Stimuli/Experimental_stims/scramble/faces/scrambled_leilani-angel-K84vnnzxmTQ-unsplash.jpg,Stimuli/Experimental_stims/scramble/outdoor_scenes/scrambled_henry-be-NLF6hTe4PAg-unsplash.jpg,NaN,NaN,3200,2000,right,NaN,0,NaN,NaN,NaN,NaN,NaN,NaN,NaN,NaN,1,28,2,NaN
21,64925,22,H,original,0,1,1,faces,outdoor_scenes,21,3,Stimuli/Experimental_stims/faces/leilani-angel-K84vnnzxmTQ-unsplash.jpg,Stimuli/Experimental_stims/outdoor_scenes/henry-be-NLF6hTe4PAg-unsplash.jpg,50,50,1900,0,,NaN,0,NaN,NaN,NaN,NaN,NaN,NaN,NaN,NaN,0,28,2,NaN
22,64925,23,G,scramble,0,1,1,objects,outdoor_scenes,47,9,Stimuli/Experimental_stims/scramble/objects/scrambled_ronaldo-arthur-vidal-Cdz_lvnl37k-unsplash.jpg,Stimuli/Experimental_stims/scramble/outdoor_scenes/scrambled_sergey-pesterev-y-b_FOmJXdg-unsplash.jpg,NaN,NaN,1400,1000,left,NaN,0,NaN,NaN,NaN,NaN,NaN,NaN,NaN,NaN,0,28,2,NaN
23,64925,24,F,original,0,1,1,faces,body_parts,15,24,Stimuli/Experimental_stims/faces/erik-lucatero-d2MSDujJl2g-unsplash.jpg,Stimuli/Experimental_stims/body_parts/clay-banks-LjqARJaJotc-unsplash.jpg,50,50,2700,0,,NaN,0,NaN,NaN,NaN,NaN,NaN,NaN,NaN,NaN,0,28,2,NaN
24,64925,25,I,scramble,0,1,1,body_parts,outdoor_scenes,32,2,Stimuli/Experimental_stims/scramble/body_parts/scrambled_towfiqu-barbhuiya-3AsiVDsZnHg-unsplash.jpg,Stimuli/Experimental_stims/scramble/outdoor_scenes/scrambled_bruno-van-der-kraan-qez8mNJ3ilU-unsplash.jpg,NaN,NaN,1600,1600,left,NaN,0,NaN,NaN,NaN,NaN,NaN,NaN,NaN,NaN,0,28,2,NaN
25,64925,26,F,scramble,0,1,1,faces,body_parts,15,24,Stimuli/Experimental_stims/scramble/faces/scrambled_erik-lucatero-d2MSDujJl2g-unsplash.jpg,Stimuli/Experimental_stims/scramble/body_parts/scrambled_clay-banks-LjqARJaJotc-unsplash.jpg,NaN,NaN,3400,1100,left,NaN,0,NaN,NaN,NaN,NaN,NaN,NaN,NaN,NaN,1,28,2,NaN
26,64925,27,L,original,0,1,1,body_parts,faces,34,17,Stimuli/Experimental_stims/body_parts/wagner-santos-mBWMvIuVnso-unsplash.jpg,Stimuli/Experimental_stims/faces/good-faces-xmSWVeGEnJw-unsplash.jpg,50,50,1600,0,,NaN,0,NaN,NaN,NaN,NaN,NaN,NaN,NaN,NaN,0,28,2,NaN
27,64925,28,J,scramble,0,1,1,faces,objects,18,43,Stimuli/Experimental_stims/scramble/faces/scrambled_jessica-radanavong-mrYkTuAesKE-unsplash.jpg,Stimuli/Experimental_stims/scramble/objects/scrambled_jonathan-greenaway-Y4hGgeiFn3s-unsplash.jpg,NaN,NaN,2200,1300,right,NaN,0,NaN,NaN,NaN,NaN,NaN,NaN,NaN,NaN,0,28,2,NaN
28,64925,29,K,original,0,1,2,body_parts,objects,27,45,Stimuli/Experimental_stims/body_parts/heike-mintel-i_Gns0ELnLw-unsplash.jpg,Stimuli/Experimental_stims/objects/leohoho-rngTKHXumy0-unsplash.jpg,50,50,2400,0,,NaN,0,NaN,NaN,NaN,NaN,NaN,NaN,NaN,NaN,0,28,2,NaN
29,64925,30,H,scramble,0,1,2,faces,outdoor_scenes,21,3,Stimuli/Experimental_stims/scramble/faces/scrambled_leilani-angel-K84vnnzxmTQ-unsplash.jpg,Stimuli/Experimental_stims/scramble/outdoor_scenes/scrambled_henry-be-NLF6hTe4PAg-unsplash.jpg,NaN,NaN,1900,700,left,NaN,0,NaN,NaN,NaN,NaN,NaN,NaN,NaN,NaN,0,28,2,NaN
30,64925,31,A,original,0,1,2,outdoor_scenes,objects,5,44,Stimuli/Experimental_stims/outdoor_scenes/jeff-king-bJHWJeiHfHc-unsplash.jpg,Stimuli/Experimental_stims/objects/kuiye-chen-NuOGFo4PudE-unsplash.jpg,50,50,3300,0,,NaN,0,NaN,NaN,NaN,NaN,NaN,NaN,NaN,NaN,1,28,2,NaN
31,64925,32,L,scramble,0,1,2,body_parts,faces,34,17,Stimuli/Experimental_stims/scramble/body_parts/scrambled_wagner-santos-mBWMvIuVnso-unsplash.jpg,Stimuli/Experimental_stims/scramble/faces/scrambled_good-faces-xmSWVeGEnJw-unsplash.jpg,NaN,NaN,1200,1300,left,NaN,0,NaN,NaN,NaN,NaN,NaN,NaN,NaN,NaN,0,28,2,NaN
32,64925,33,B,original,0,1,2,outdoor_scenes,faces,6,23,Stimuli/Experimental_stims/outdoor_scenes/meng-ji-8BH_M-53CyA-unsplash.jpg,Stimuli/Experimental_stims/faces/rikonavt-HQjfrvdTfak-unsplash.jpg,50,50,1300,0,,NaN,0,NaN,NaN,NaN,NaN,NaN,NaN,NaN,NaN,0,28,2,NaN
33,64925,34,I,scramble,0,1,2,body_parts,outdoor_scenes,32,2,Stimuli/Experimental_stims/scramble/body_parts/scrambled_towfiqu-barbhuiya-3AsiVDsZnHg-unsplash.jpg,Stimuli/Experimental_stims/scramble/outdoor_scenes/scrambled_bruno-van-der-kraan-qez8mNJ3ilU-unsplash.jpg,NaN,NaN,1300,1300,right,NaN,0,NaN,NaN,NaN,NaN,NaN,NaN,NaN,NaN,0,28,2,NaN
34,64925,35,C,original,0,1,2,outdoor_scenes,body_parts,1,31,Stimuli/Experimental_stims/outdoor_scenes/ashim-d-silva-S2Q5mdOrrVc-unsplash.jpg,Stimuli/Experimental_stims/body_parts/sincerely-media-VN6DbKajo5s-unsplash.jpg,50,50,1100,0,,NaN,0,NaN,NaN,NaN,NaN,NaN,NaN,NaN,NaN,0,28,2,NaN
35,64925,36,A,scramble,0,1,2,outdoor_scenes,objects,5,44,Stimuli/Experimental_stims/scramble/outdoor_scenes/scrambled_jeff-king-bJHWJeiHfHc-unsplash.jpg,Stimuli/Experimental_stims/scramble/objects/scrambled_kuiye-chen-NuOGFo4PudE-unsplash.jpg,NaN,NaN,4200,1200,left,NaN,0,NaN,NaN,NaN,NaN,NaN,NaN,NaN,NaN,1,28,2,NaN
36,64925,37,H,original,0,1,2,faces,outdoor_scenes,21,3,Stimuli/Experimental_stims/faces/leilani-angel-K84vnnzxmTQ-unsplash.jpg,Stimuli/Experimental_stims/outdoor_scenes/henry-be-NLF6hTe4PAg-unsplash.jpg,50,50,1200,0,,NaN,0,NaN,NaN,NaN,NaN,NaN,NaN,NaN,NaN,0,28,2,NaN
37,64925,38,G,scramble,0,1,2,objects,outdoor_scenes,47,9,Stimuli/Experimental_stims/scramble/objects/scrambled_ronaldo-arthur-vidal-Cdz_lvnl37k-unsplash.jpg,Stimuli/Experimental_stims/scramble/outdoor_scenes/scrambled_sergey-pesterev-y-b_FOmJXdg-unsplash.jpg,NaN,NaN,1300,1800,right,NaN,0,NaN,NaN,NaN,NaN,NaN,NaN,NaN,NaN,0,28,2,NaN
38,64925,39,D,scramble,0,1,2,objects,faces,42,12,Stimuli/Experimental_stims/scramble/objects/scrambled_jess-bailey-nOeVi8DsN8U-unsplash.jpg,Stimuli/Experimental_stims/scramble/faces/scrambled_aiony-haust-jmATI5Q_YgY-unsplash.jpg,NaN,NaN,2000,1900,left,NaN,0,NaN,NaN,NaN,NaN,NaN,NaN,NaN,NaN,0,28,2,NaN
39,64925,40,I,original,0,1,2,body_parts,outdoor_scenes,32,2,Stimuli/Experimental_stims/body_parts/towfiqu-barbhuiya-3AsiVDsZnHg-unsplash.jpg,Stimuli/Experimental_stims/outdoor_scenes/bruno-van-der-kraan-qez8mNJ3ilU-unsplash.jpg,50,50,1600,0,,NaN,0,NaN,NaN,NaN,NaN,NaN,NaN,NaN,NaN,0,28,2,NaN
40,64925,41,C,scramble,0,1,2,outdoor_scenes,body_parts,1,31,Stimuli/Experimental_stims/scramble/outdoor_scenes/scrambled_ashim-d-silva-S2Q5mdOrrVc-unsplash.jpg,Stimuli/Experimental_stims/scramble/body_parts/scrambled_sincerely-media-VN6DbKajo5s-unsplash.jpg,NaN,NaN,3700,1600,right,NaN,0,NaN,NaN,NaN,NaN,NaN,NaN,NaN,NaN,1,28,2,NaN
41,64925,42,B,scramble,0,1,2,outdoor_scenes,faces,6,23,Stimuli/Experimental_stims/scramble/outdoor_scenes/scrambled_meng-ji-8BH_M-53CyA-unsplash.jpg,Stimuli/Experimental_stims/scramble/faces/scrambled_rikonavt-HQjfrvdTfak-unsplash.jpg,NaN,NaN,2800,1700,right,NaN,0,NaN,NaN,NaN,NaN,NaN,NaN,NaN,NaN,0,28,2,NaN
42,64925,43,J,original,0,1,2,faces,objects,18,43,Stimuli/Experimental_stims/faces/jessica-radanavong-mrYkTuAesKE-unsplash.jpg,Stimuli/Experimental_stims/objects/jonathan-greenaway-Y4hGgeiFn3s-unsplash.jpg,50,50,1000,0,,NaN,0,NaN,NaN,NaN,NaN,NaN,NaN,NaN,NaN,0,28,2,NaN
43,64925,44,D,original,0,1,2,objects,faces,42,12,Stimuli/Experimental_stims/objects/jess-bailey-nOeVi8DsN8U-unsplash.jpg,Stimuli/Experimental_stims/faces/aiony-haust-jmATI5Q_YgY-unsplash.jpg,50,50,2400,0,,NaN,0,NaN,NaN,NaN,NaN,NaN,NaN,NaN,NaN,0,28,2,NaN
44,64925,45,F,scramble,0,1,2,faces,body_parts,15,24,Stimuli/Experimental_stims/scramble/faces/scrambled_erik-lucatero-d2MSDujJl2g-unsplash.jpg,Stimuli/Experimental_stims/scramble/body_parts/scrambled_clay-banks-LjqARJaJotc-unsplash.jpg,NaN,NaN,1300,1800,right,NaN,0,NaN,NaN,NaN,NaN,NaN,NaN,NaN,NaN,0,28,2,NaN
45,64925,46,K,scramble,0,1,2,body_parts,objects,27,45,Stimuli/Experimental_stims/scramble/body_parts/scrambled_heike-mintel-i_Gns0ELnLw-unsplash.jpg,Stimuli/Experimental_stims/scramble/objects/scrambled_leohoho-rngTKHXumy0-unsplash.jpg,NaN,NaN,1100,1400,right,NaN,0,NaN,NaN,NaN,NaN,NaN,NaN,NaN,NaN,0,28,2,NaN
46,64925,47,F,original,0,1,2,faces,body_parts,15,24,Stimuli/Experimental_stims/faces/erik-lucatero-d2MSDujJl2g-unsplash.jpg,Stimuli/Experimental_stims/body_parts/clay-banks-LjqARJaJotc-unsplash.jpg,50,50,1200,0,,NaN,0,NaN,NaN,NaN,NaN,NaN,NaN,NaN,NaN,0,28,2,NaN
47,64925,48,J,scramble,0,1,2,faces,objects,18,43,Stimuli/Experimental_stims/scramble/faces/scrambled_jessica-radanavong-mrYkTuAesKE-unsplash.jpg,Stimuli/Experimental_stims/scramble/objects/scrambled_jonathan-greenaway-Y4hGgeiFn3s-unsplash.jpg,NaN,NaN,3500,1800,left,NaN,0,NaN,NaN,NaN,NaN,NaN,NaN,NaN,NaN,1,28,2,NaN
48,64925,49,E,original,0,1,2,objects,body_parts,39,35,Stimuli/Experimental_stims/objects/charlesdeluvio-1-nx1QR5dTE-unsplash.jpg,Stimuli/Experimental_stims/body_parts/wc-so-KH4AAPjb-tI-unsplash.jpg,50,50,1300,0,,NaN,0,NaN,NaN,NaN,NaN,NaN,NaN,NaN,NaN,0,28,2,NaN
49,64925,50,L,original,0,1,2,body_parts,faces,34,17,Stimuli/Experimental_stims/body_parts/wagner-santos-mBWMvIuVnso-unsplash.jpg,Stimuli/Experimental_stims/faces/good-faces-xmSWVeGEnJw-unsplash.jpg,50,50,1100,0,,NaN,0,NaN,NaN,NaN,NaN,NaN,NaN,NaN,NaN,0,28,2,NaN
50,64925,51,E,scramble,0,1,2,objects,body_parts,39,35,Stimuli/Experimental_stims/scramble/objects/scrambled_charlesdeluvio-1-nx1QR5dTE-unsplash.jpg,Stimuli/Experimental_stims/scramble/body_parts/scrambled_wc-so-KH4AAPjb-tI-unsplash.jpg,NaN,NaN,1300,1000,left,NaN,0,NaN,NaN,NaN,NaN,NaN,NaN,NaN,NaN,0,28,2,NaN
51,64925,52,G,original,0,1,2,objects,outdoor_scenes,47,9,Stimuli/Experimental_stims/objects/ronaldo-arthur-vidal-Cdz_lvnl37k-unsplash.jpg,Stimuli/Experimental_stims/outdoor_scenes/sergey-pesterev-y-b_FOmJXdg-unsplash.jpg,50,50,1500,0,,NaN,0,NaN,NaN,NaN,NaN,NaN,NaN,NaN,NaN,0,28,2,NaN
52,64925,53,G,original,0,2,3,objects,outdoor_scenes,47,9,Stimuli/Experimental_stims/objects/ronaldo-arthur-vidal-Cdz_lvnl37k-unsplash.jpg,Stimuli/Experimental_stims/outdoor_scenes/sergey-pesterev-y-b_FOmJXdg-unsplash.jpg,50,50,4300,0,,NaN,0,NaN,NaN,NaN,NaN,NaN,NaN,NaN,NaN,1,38,2,NaN
53,64925,54,B,scramble,0,2,3,outdoor_scenes,faces,6,23,Stimuli/Experimental_stims/scramble/outdoor_scenes/scrambled_meng-ji-8BH_M-53CyA-unsplash.jpg,Stimuli/Experimental_stims/scramble/faces/scrambled_rikonavt-HQjfrvdTfak-unsplash.jpg,NaN,NaN,1600,1400,right,NaN,0,NaN,NaN,NaN,NaN,NaN,NaN,NaN,NaN,0,38,2,NaN
54,64925,55,L,original,0,2,3,body_parts,faces,34,17,Stimuli/Experimental_stims/body_parts/wagner-santos-mBWMvIuVnso-unsplash.jpg,Stimuli/Experimental_stims/faces/good-faces-xmSWVeGEnJw-unsplash.jpg,50,50,1400,0,,NaN,0,NaN,NaN,NaN,NaN,NaN,NaN,NaN,NaN,0,38,2,NaN
55,64925,56,C,original,0,2,3,outdoor_scenes,body_parts,1,31,Stimuli/Experimental_stims/outdoor_scenes/ashim-d-silva-S2Q5mdOrrVc-unsplash.jpg,Stimuli/Experimental_stims/body_parts/sincerely-media-VN6DbKajo5s-unsplash.jpg,50,50,2600,0,,NaN,0,NaN,NaN,NaN,NaN,NaN,NaN,NaN,NaN,0,38,2,NaN
56,64925,57,I,scramble,0,2,3,body_parts,outdoor_scenes,32,2,Stimuli/Experimental_stims/scramble/body_parts/scrambled_towfiqu-barbhuiya-3AsiVDsZnHg-unsplash.jpg,Stimuli/Experimental_stims/scramble/outdoor_scenes/scrambled_bruno-van-der-kraan-qez8mNJ3ilU-unsplash.jpg,NaN,NaN,1400,1100,right,NaN,0,NaN,NaN,NaN,NaN,NaN,NaN,NaN,NaN,0,38,2,NaN
57,64925,58,I,original,0,2,3,body_parts,outdoor_scenes,32,2,Stimuli/Experimental_stims/body_parts/towfiqu-barbhuiya-3AsiVDsZnHg-unsplash.jpg,Stimuli/Experimental_stims/outdoor_scenes/bruno-van-der-kraan-qez8mNJ3ilU-unsplash.jpg,50,50,1900,0,,NaN,0,NaN,NaN,NaN,NaN,NaN,NaN,NaN,NaN,0,38,2,NaN
58,64925,59,A,scramble,0,2,3,outdoor_scenes,objects,5,44,Stimuli/Experimental_stims/scramble/outdoor_scenes/scrambled_jeff-king-bJHWJeiHfHc-unsplash.jpg,Stimuli/Experimental_stims/scramble/objects/scrambled_kuiye-chen-NuOGFo4PudE-unsplash.jpg,NaN,NaN,1100,1400,left,NaN,0,NaN,NaN,NaN,NaN,NaN,NaN,NaN,NaN,0,38,2,NaN
59,64925,60,H,original,0,2,3,faces,outdoor_scenes,21,3,Stimuli/Experimental_stims/faces/leilani-angel-K84vnnzxmTQ-unsplash.jpg,Stimuli/Experimental_stims/outdoor_scenes/henry-be-NLF6hTe4PAg-unsplash.jpg,50,50,3000,0,,NaN,0,NaN,NaN,NaN,NaN,NaN,NaN,NaN,NaN,1,38,2,NaN
60,64925,61,F,scramble,0,2,3,faces,body_parts,15,24,Stimuli/Experimental_stims/scramble/faces/scrambled_erik-lucatero-d2MSDujJl2g-unsplash.jpg,Stimuli/Experimental_stims/scramble/body_parts/scrambled_clay-banks-LjqARJaJotc-unsplash.jpg,NaN,NaN,1900,1100,left,NaN,0,NaN,NaN,NaN,NaN,NaN,NaN,NaN,NaN,0,38,2,NaN
61,64925,62,F,original,0,2,3,faces,body_parts,15,24,Stimuli/Experimental_stims/faces/erik-lucatero-d2MSDujJl2g-unsplash.jpg,Stimuli/Experimental_stims/body_parts/clay-banks-LjqARJaJotc-unsplash.jpg,50,50,2200,0,,NaN,0,NaN,NaN,NaN,NaN,NaN,NaN,NaN,NaN,0,38,2,NaN
62,64925,63,G,scramble,0,2,3,objects,outdoor_scenes,47,9,Stimuli/Experimental_stims/scramble/objects/scrambled_ronaldo-arthur-vidal-Cdz_lvnl37k-unsplash.jpg,Stimuli/Experimental_stims/scramble/outdoor_scenes/scrambled_sergey-pesterev-y-b_FOmJXdg-unsplash.jpg,NaN,NaN,2600,1300,right,NaN,0,NaN,NaN,NaN,NaN,NaN,NaN,NaN,NaN,0,38,2,NaN
63,64925,64,K,original,0,2,3,body_parts,objects,27,45,Stimuli/Experimental_stims/body_parts/heike-mintel-i_Gns0ELnLw-unsplash.jpg,Stimuli/Experimental_stims/objects/leohoho-rngTKHXumy0-unsplash.jpg,50,50,1900,0,,NaN,0,NaN,NaN,NaN,NaN,NaN,NaN,NaN,NaN,0,38,2,NaN
64,64925,65,B,original,0,2,3,outdoor_scenes,faces,6,23,Stimuli/Experimental_stims/outdoor_scenes/meng-ji-8BH_M-53CyA-unsplash.jpg,Stimuli/Experimental_stims/faces/rikonavt-HQjfrvdTfak-unsplash.jpg,50,50,2800,0,,NaN,0,NaN,NaN,NaN,NaN,NaN,NaN,NaN,NaN,1,38,2,NaN
65,64925,66,E,scramble,0,2,3,objects,body_parts,39,35,Stimuli/Experimental_stims/scramble/objects/scrambled_charlesdeluvio-1-nx1QR5dTE-unsplash.jpg,Stimuli/Experimental_stims/scramble/body_parts/scrambled_wc-so-KH4AAPjb-tI-unsplash.jpg,NaN,NaN,2700,900,right,NaN,0,NaN,NaN,NaN,NaN,NaN,NaN,NaN,NaN,0,38,2,NaN
66,64925,67,C,scramble,0,2,3,outdoor_scenes,body_parts,1,31,Stimuli/Experimental_stims/scramble/outdoor_scenes/scrambled_ashim-d-silva-S2Q5mdOrrVc-unsplash.jpg,Stimuli/Experimental_stims/scramble/body_parts/scrambled_sincerely-media-VN6DbKajo5s-unsplash.jpg,NaN,NaN,2200,1000,left,NaN,0,NaN,NaN,NaN,NaN,NaN,NaN,NaN,NaN,0,38,2,NaN
67,64925,68,D,original,0,2,3,objects,faces,42,12,Stimuli/Experimental_stims/objects/jess-bailey-nOeVi8DsN8U-unsplash.jpg,Stimuli/Experimental_stims/faces/aiony-haust-jmATI5Q_YgY-unsplash.jpg,50,50,2300,0,,NaN,0,NaN,NaN,NaN,NaN,NaN,NaN,NaN,NaN,0,38,2,NaN
68,64925,69,J,original,0,2,3,faces,objects,18,43,Stimuli/Experimental_stims/faces/jessica-radanavong-mrYkTuAesKE-unsplash.jpg,Stimuli/Experimental_stims/objects/jonathan-greenaway-Y4hGgeiFn3s-unsplash.jpg,50,50,1000,0,,NaN,0,NaN,NaN,NaN,NaN,NaN,NaN,NaN,NaN,0,38,2,NaN
69,64925,70,J,scramble,0,2,3,faces,objects,18,43,Stimuli/Experimental_stims/scramble/faces/scrambled_jessica-radanavong-mrYkTuAesKE-unsplash.jpg,Stimuli/Experimental_stims/scramble/objects/scrambled_jonathan-greenaway-Y4hGgeiFn3s-unsplash.jpg,NaN,NaN,2100,700,right,NaN,0,NaN,NaN,NaN,NaN,NaN,NaN,NaN,NaN,0,38,2,NaN
70,64925,71,K,scramble,0,2,3,body_parts,objects,27,45,Stimuli/Experimental_stims/scramble/body_parts/scrambled_heike-mintel-i_Gns0ELnLw-unsplash.jpg,Stimuli/Experimental_stims/scramble/objects/scrambled_leohoho-rngTKHXumy0-unsplash.jpg,NaN,NaN,4200,900,left,NaN,0,NaN,NaN,NaN,NaN,NaN,NaN,NaN,NaN,1,38,2,NaN
71,64925,72,A,original,0,2,3,outdoor_scenes,objects,5,44,Stimuli/Experimental_stims/outdoor_scenes/jeff-king-bJHWJeiHfHc-unsplash.jpg,Stimuli/Experimental_stims/objects/kuiye-chen-NuOGFo4PudE-unsplash.jpg,50,50,2500,0,,NaN,0,NaN,NaN,NaN,NaN,NaN,NaN,NaN,NaN,0,38,2,NaN
72,64925,73,L,scramble,0,2,3,body_parts,faces,34,17,Stimuli/Experimental_stims/scramble/body_parts/scrambled_wagner-santos-mBWMvIuVnso-unsplash.jpg,Stimuli/Experimental_stims/scramble/faces/scrambled_good-faces-xmSWVeGEnJw-unsplash.jpg,NaN,NaN,1200,1200,left,NaN,0,NaN,NaN,NaN,NaN,NaN,NaN,NaN,NaN,0,38,2,NaN
73,64925,74,E,original,0,2,3,objects,body_parts,39,35,Stimuli/Experimental_stims/objects/charlesdeluvio-1-nx1QR5dTE-unsplash.jpg,Stimuli/Experimental_stims/body_parts/wc-so-KH4AAPjb-tI-unsplash.jpg,50,50,1600,0,,NaN,0,NaN,NaN,NaN,NaN,NaN,NaN,NaN,NaN,0,38,2,NaN
74,64925,75,D,scramble,0,2,3,objects,faces,42,12,Stimuli/Experimental_stims/scramble/objects/scrambled_jess-bailey-nOeVi8DsN8U-unsplash.jpg,Stimuli/Experimental_stims/scramble/faces/scrambled_aiony-haust-jmATI5Q_YgY-unsplash.jpg,NaN,NaN,1300,1500,right,NaN,0,NaN,NaN,NaN,NaN,NaN,NaN,NaN,NaN,0,38,2,NaN
75,64925,76,H,scramble,0,2,3,faces,outdoor_scenes,21,3,Stimuli/Experimental_stims/scramble/faces/scrambled_leilani-angel-K84vnnzxmTQ-unsplash.jpg,Stimuli/Experimental_stims/scramble/outdoor_scenes/scrambled_henry-be-NLF6hTe4PAg-unsplash.jpg,NaN,NaN,1300,1100,left,NaN,0,NaN,NaN,NaN,NaN,NaN,NaN,NaN,NaN,0,38,2,NaN
76,64925,77,C,original,0,2,4,outdoor_scenes,body_parts,1,31,Stimuli/Experimental_stims/outdoor_scenes/ashim-d-silva-S2Q5mdOrrVc-unsplash.jpg,Stimuli/Experimental_stims/body_parts/sincerely-media-VN6DbKajo5s-unsplash.jpg,50,50,1100,0,,NaN,0,NaN,NaN,NaN,NaN,NaN,NaN,NaN,NaN,0,38,2,NaN
77,64925,78,D,original,0,2,4,objects,faces,42,12,Stimuli/Experimental_stims/objects/jess-bailey-nOeVi8DsN8U-unsplash.jpg,Stimuli/Experimental_stims/faces/aiony-haust-jmATI5Q_YgY-unsplash.jpg,50,50,1800,0,,NaN,0,NaN,NaN,NaN,NaN,NaN,NaN,NaN,NaN,0,38,2,NaN
78,64925,79,K,scramble,0,2,4,body_parts,objects,27,45,Stimuli/Experimental_stims/scramble/body_parts/scrambled_heike-mintel-i_Gns0ELnLw-unsplash.jpg,Stimuli/Experimental_stims/scramble/objects/scrambled_leohoho-rngTKHXumy0-unsplash.jpg,NaN,NaN,2200,100,right,NaN,0,NaN,NaN,NaN,NaN,NaN,NaN,NaN,NaN,0,38,2,NaN
79,64925,80,J,scramble,0,2,4,faces,objects,18,43,Stimuli/Experimental_stims/scramble/faces/scrambled_jessica-radanavong-mrYkTuAesKE-unsplash.jpg,Stimuli/Experimental_stims/scramble/objects/scrambled_jonathan-greenaway-Y4hGgeiFn3s-unsplash.jpg,NaN,NaN,1500,1300,right,NaN,0,NaN,NaN,NaN,NaN,NaN,NaN,NaN,NaN,0,38,2,NaN
80,64925,81,H,original,0,2,4,faces,outdoor_scenes,21,3,Stimuli/Experimental_stims/faces/leilani-angel-K84vnnzxmTQ-unsplash.jpg,Stimuli/Experimental_stims/outdoor_scenes/henry-be-NLF6hTe4PAg-unsplash.jpg,50,50,2900,0,,NaN,0,NaN,NaN,NaN,NaN,NaN,NaN,NaN,NaN,1,38,2,NaN
81,64925,82,E,original,0,2,4,objects,body_parts,39,35,Stimuli/Experimental_stims/objects/charlesdeluvio-1-nx1QR5dTE-unsplash.jpg,Stimuli/Experimental_stims/body_parts/wc-so-KH4AAPjb-tI-unsplash.jpg,50,50,1800,0,,NaN,0,NaN,NaN,NaN,NaN,NaN,NaN,NaN,NaN,0,38,2,NaN
82,64925,83,B,scramble,0,2,4,outdoor_scenes,faces,6,23,Stimuli/Experimental_stims/scramble/outdoor_scenes/scrambled_meng-ji-8BH_M-53CyA-unsplash.jpg,Stimuli/Experimental_stims/scramble/faces/scrambled_rikonavt-HQjfrvdTfak-unsplash.jpg,NaN,NaN,1300,1000,left,NaN,0,NaN,NaN,NaN,NaN,NaN,NaN,NaN,NaN,0,38,2,NaN
83,64925,84,I,scramble,0,2,4,body_parts,outdoor_scenes,32,2,Stimuli/Experimental_stims/scramble/body_parts/scrambled_towfiqu-barbhuiya-3AsiVDsZnHg-unsplash.jpg,Stimuli/Experimental_stims/scramble/outdoor_scenes/scrambled_bruno-van-der-kraan-qez8mNJ3ilU-unsplash.jpg,NaN,NaN,1300,700,left,NaN,0,NaN,NaN,NaN,NaN,NaN,NaN,NaN,NaN,0,38,2,NaN
84,64925,85,I,original,0,2,4,body_parts,outdoor_scenes,32,2,Stimuli/Experimental_stims/body_parts/towfiqu-barbhuiya-3AsiVDsZnHg-unsplash.jpg,Stimuli/Experimental_stims/outdoor_scenes/bruno-van-der-kraan-qez8mNJ3ilU-unsplash.jpg,50,50,1300,0,,NaN,0,NaN,NaN,NaN,NaN,NaN,NaN,NaN,NaN,0,38,2,NaN
85,64925,86,K,original,0,2,4,body_parts,objects,27,45,Stimuli/Experimental_stims/body_parts/heike-mintel-i_Gns0ELnLw-unsplash.jpg,Stimuli/Experimental_stims/objects/leohoho-rngTKHXumy0-unsplash.jpg,50,50,2400,0,,NaN,0,NaN,NaN,NaN,NaN,NaN,NaN,NaN,NaN,0,38,2,NaN
86,64925,87,A,scramble,0,2,4,outdoor_scenes,objects,5,44,Stimuli/Experimental_stims/scramble/outdoor_scenes/scrambled_jeff-king-bJHWJeiHfHc-unsplash.jpg,Stimuli/Experimental_stims/scramble/objects/scrambled_kuiye-chen-NuOGFo4PudE-unsplash.jpg,NaN,NaN,1700,500,left,NaN,0,NaN,NaN,NaN,NaN,NaN,NaN,NaN,NaN,0,38,2,NaN
87,64925,88,C,scramble,0,2,4,outdoor_scenes,body_parts,1,31,Stimuli/Experimental_stims/scramble/outdoor_scenes/scrambled_ashim-d-silva-S2Q5mdOrrVc-unsplash.jpg,Stimuli/Experimental_stims/scramble/body_parts/scrambled_sincerely-media-VN6DbKajo5s-unsplash.jpg,NaN,NaN,3000,1000,right,NaN,0,NaN,NaN,NaN,NaN,NaN,NaN,NaN,NaN,1,38,2,NaN
88,64925,89,L,original,0,2,4,body_parts,faces,34,17,Stimuli/Experimental_stims/body_parts/wagner-santos-mBWMvIuVnso-unsplash.jpg,Stimuli/Experimental_stims/faces/good-faces-xmSWVeGEnJw-unsplash.jpg,50,50,1600,0,,NaN,0,NaN,NaN,NaN,NaN,NaN,NaN,NaN,NaN,0,38,2,NaN
89,64925,90,G,original,0,2,4,objects,outdoor_scenes,47,9,Stimuli/Experimental_stims/objects/ronaldo-arthur-vidal-Cdz_lvnl37k-unsplash.jpg,Stimuli/Experimental_stims/outdoor_scenes/sergey-pesterev-y-b_FOmJXdg-unsplash.jpg,50,50,2600,0,,NaN,0,NaN,NaN,NaN,NaN,NaN,NaN,NaN,NaN,0,38,2,NaN
90,64925,91,F,scramble,0,2,4,faces,body_parts,15,24,Stimuli/Experimental_stims/scramble/faces/scrambled_erik-lucatero-d2MSDujJl2g-unsplash.jpg,Stimuli/Experimental_stims/scramble/body_parts/scrambled_clay-banks-LjqARJaJotc-unsplash.jpg,NaN,NaN,1500,200,left,NaN,0,NaN,NaN,NaN,NaN,NaN,NaN,NaN,NaN,0,38,2,NaN
91,64925,92,B,original,0,2,4,outdoor_scenes,faces,6,23,Stimuli/Experimental_stims/outdoor_scenes/meng-ji-8BH_M-53CyA-unsplash.jpg,Stimuli/Experimental_stims/faces/rikonavt-HQjfrvdTfak-unsplash.jpg,50,50,2600,0,,NaN,0,NaN,NaN,NaN,NaN,NaN,NaN,NaN,NaN,0,38,2,NaN
92,64925,93,E,scramble,0,2,4,objects,body_parts,39,35,Stimuli/Experimental_stims/scramble/objects/scrambled_charlesdeluvio-1-nx1QR5dTE-unsplash.jpg,Stimuli/Experimental_stims/scramble/body_parts/scrambled_wc-so-KH4AAPjb-tI-unsplash.jpg,NaN,NaN,1400,1800,right,NaN,0,NaN,NaN,NaN,NaN,NaN,NaN,NaN,NaN,0,38,2,NaN
93,64925,94,J,original,0,2,4,faces,objects,18,43,Stimuli/Experimental_stims/faces/jessica-radanavong-mrYkTuAesKE-unsplash.jpg,Stimuli/Experimental_stims/objects/jonathan-greenaway-Y4hGgeiFn3s-unsplash.jpg,50,50,1400,0,,NaN,0,NaN,NaN,NaN,NaN,NaN,NaN,NaN,NaN,0,38,2,NaN
94,64925,95,H,scramble,0,2,4,faces,outdoor_scenes,21,3,Stimuli/Experimental_stims/scramble/faces/scrambled_leilani-angel-K84vnnzxmTQ-unsplash.jpg,Stimuli/Experimental_stims/scramble/outdoor_scenes/scrambled_henry-be-NLF6hTe4PAg-unsplash.jpg,NaN,NaN,3400,1500,left,NaN,0,NaN,NaN,NaN,NaN,NaN,NaN,NaN,NaN,1,38,2,NaN
95,64925,96,L,scramble,0,2,4,body_parts,faces,34,17,Stimuli/Experimental_stims/scramble/body_parts/scrambled_wagner-santos-mBWMvIuVnso-unsplash.jpg,Stimuli/Experimental_stims/scramble/faces/scrambled_good-faces-xmSWVeGEnJw-unsplash.jpg,NaN,NaN,1600,500,right,NaN,0,NaN,NaN,NaN,NaN,NaN,NaN,NaN,NaN,0,38,2,NaN
96,64925,97,A,original,0,2,4,outdoor_scenes,objects,5,44,Stimuli/Experimental_stims/outdoor_scenes/jeff-king-bJHWJeiHfHc-unsplash.jpg,Stimuli/Experimental_stims/objects/kuiye-chen-NuOGFo4PudE-unsplash.jpg,50,50,1000,0,,NaN,0,NaN,NaN,NaN,NaN,NaN,NaN,NaN,NaN,0,38,2,NaN
97,64925,98,D,scramble,0,2,4,objects,faces,42,12,Stimuli/Experimental_stims/scramble/objects/scrambled_jess-bailey-nOeVi8DsN8U-unsplash.jpg,Stimuli/Experimental_stims/scramble/faces/scrambled_aiony-haust-jmATI5Q_YgY-unsplash.jpg,NaN,NaN,1200,1500,right,NaN,0,NaN,NaN,NaN,NaN,NaN,NaN,NaN,NaN,0,38,2,NaN
98,64925,99,G,scramble,0,2,4,objects,outdoor_scenes,47,9,Stimuli/Experimental_stims/scramble/objects/scrambled_ronaldo-arthur-vidal-Cdz_lvnl37k-unsplash.jpg,Stimuli/Experimental_stims/scramble/outdoor_scenes/scrambled_sergey-pesterev-y-b_FOmJXdg-unsplash.jpg,NaN,NaN,2700,1100,left,NaN,0,NaN,NaN,NaN,NaN,NaN,NaN,NaN,NaN,0,38,2,NaN