PID,trial,rt,old_rating,new_rating,stimulus_index,type,category,stimulus,path,iti
74171,1,1226,NA,50,88,scramble,faces,scrambled_erik-lucatero-d2MSDujJl2g-unsplash.jpg,Stimuli/Experimental_stims/scramble/faces/scrambled_erik-lucatero-d2MSDujJl2g-unsplash.jpg,NaN
74171,2,244,NA,50,84,scramble,faces,scrambled_abstral-official-cyOKLSgkgCE-unsplash.jpg,Stimuli/Experimental_stims/scramble/faces/scrambled_abstral-official-cyOKLSgkgCE-unsplash.jpg,NaN
74171,3,189,NA,50,106,scramble,body_parts,scrambled_sincerely-media-VN6DbKajo5s-unsplash.jpg,Stimuli/Experimental_stims/scramble/body_parts/scrambled_sincerely-media-VN6DbKajo5s-unsplash.jpg,NaN
74171,4,266,NA,50,32,original,faces,justin-chen-J7Cf1Gch49E-unsplash.jpg,Stimuli/Experimental_stims/faces/justin-chen-J7Cf1Gch49E-unsplash.jpg,NaN
74171,5,166,NA,50,97,scramble,body_parts,scrambled_engin-akyurt-Q2rfH3GW39c-unsplash.jpg,Stimuli/Experimental_stims/scramble/body_parts/scrambled_engin-akyurt-Q2rfH3GW39c-unsplash.jpg,NaN
74171,6,176,NA,50,48,original,objects,alexander-andrews-JYGnB9gTCls-unsplash.jpg,Stimuli/Experimental_stims/objects/alexander-andrews-JYGnB9gTCls-unsplash.jpg,NaN
74171,7,176,NA,50,87,scramble,faces,scrambled_daniel-rigdon-dXmXKPP2L4E-unsplash.jpg,Stimuli/Experimental_stims/scramble/faces/scrambled_daniel-rigdon-dXmXKPP2L4E-unsplash.jpg,NaN
74171,8,179,NA,50,83,scramble,outdoor_scenes,scrambled_yuriy-bogdanov-W51VK3Obcj0-unsplash.jpg,Stimuli/Experimental_stims/scramble/outdoor_scenes/scrambled_yuriy-bogdanov-W51VK3Obcj0-unsplash.jpg,NaN
74171,9,190,NA,50,86,scramble,faces,scrambled_art-hauntington-jzY0KRJopEI-unsplash.jpg,Stimuli/Experimental_stims/scramble/faces/scrambled_art-hauntington-jzY0KRJopEI-unsplash.jpg,NaN
74171,10,188,NA,50,42,original,body_parts,lucrezia-carnelos-kn6QrWtnAtY-unsplash.jpg,Stimuli/Experimental_stims/body_parts/lucrezia-carnelos-kn6QrWtnAtY-unsplash.jpg,NaN
74171,11,174,NA,50,81,scramble,outdoor_scenes,scrambled_sergey-pesterev-y-b_FOmJXdg-unsplash.jpg,Stimuli/Experimental_stims/scramble/outdoor_scenes/scrambled_sergey-pesterev-y-b_FOmJXdg-unsplash.jpg,NaN
74171,12,190,NA,50,119,scramble,objects,scrambled_ronaldo-arthur-vidal-Cdz_lvnl37k-unsplash.jpg,Stimuli/Experimental_stims/scramble/objects/scrambled_ronaldo-arthur-vidal-Cdz_lvnl37k-unsplash.jpg,NaN
74171,13,176,NA,50,54,original,objects,jess-bailey-nOeVi8DsN8U-unsplash.jpg,Stimuli/Experimental_stims/objects/jess-bailey-nOeVi8DsN8U-unsplash.jpg,NaN
74171,14,188,NA,50,113,scramble,objects,scrambled_insung-yoon-w2JtIQQXoRU-unsplash.jpg,Stimuli/Experimental_stims/scramble/objects/scrambled_insung-yoon-w2JtIQQXoRU-unsplash.jpg,NaN
74171,15,176,NA,50,112,scramble,objects,scrambled_fabian-blank-pElSkGRA2NU-unsplash.jpg,Stimuli/Experimental_stims/scramble/objects/scrambled_fabian-blank-pElSkGRA2NU-unsplash.jpg,NaN
74171,16,166,NA,50,38,original,body_parts,engin-akyurt-x_3gyC42btc-unsplash.jpg,Stimuli/Experimental_stims/body_parts/engin-akyurt-x_3gyC42btc-unsplash.jpg,NaN
74171,17,188,NA,50,110,scramble,objects,scrambled_andrew-petrov-TVJqDat4MAw-unsplash.jpg,Stimuli/Experimental_stims/scramble/objects/scrambled_andrew-petrov-TVJqDat4MAw-unsplash.jpg,NaN
74171,18,188,NA,50,28,original,faces,erik-lucatero-d2MSDujJl2g-unsplash.jpg,Stimuli/Experimental_stims/faces/erik-lucatero-d2MSDujJl2g-unsplash.jpg,NaN
74171,19,199,NA,50,17,original,outdoor_scenes,jeff-king-bJHWJeiHfHc-unsplash.jpg,Stimuli/Experimental_stims/outdoor_scenes/jeff-king-bJHWJeiHfHc-unsplash.jpg,NaN
74171,20,189,NA,50,15,original,outdoor_scenes,henry-be-NLF6hTe4PAg-unsplash.jpg,Stimuli/Experimental_stims/outdoor_scenes/henry-be-NLF6hTe4PAg-unsplash.jpg,NaN
74171,21,201,NA,50,89,scramble,faces,scrambled_freddy-kearney-o-ioeoATbIM-unsplash.jpg,Stimuli/Experimental_stims/scramble/faces/scrambled_freddy-kearney-o-ioeoATbIM-unsplash.jpg,NaN
74171,22,177,NA,50,101,scramble,body_parts,scrambled_lucaxx-freire-CacZwMexYdk-unsplash.jpg,Stimuli/Experimental_stims/scramble/body_parts/scrambled_lucaxx-freire-CacZwMexYdk-unsplash.jpg,NaN
74171,23,199,NA,50,22,original,outdoor_scenes,stephen-leonardi-gyIRjKPXupE-unsplash.jpg,Stimuli/Experimental_stims/outdoor_scenes/stephen-leonardi-gyIRjKPXupE-unsplash.jpg,NaN
74171,24,200,NA,50,102,scramble,body_parts,scrambled_lucrezia-carnelos-kn6QrWtnAtY-unsplash.jpg,Stimuli/Experimental_stims/scramble/body_parts/scrambled_lucrezia-carnelos-kn6QrWtnAtY-unsplash.jpg,NaN
74171,25,197,NA,50,45,original,body_parts,sincerely-media-7TBFwUQA6Xk-unsplash.jpg,Stimuli/Experimental_stims/body_parts/sincerely-media-7TBFwUQA6Xk-unsplash.jpg,NaN
74171,26,200,NA,50,44,original,body_parts,pure-julia-9lVaya31sMk-unsplash.jpg,Stimuli/Experimental_stims/body_parts/pure-julia-9lVaya31sMk-unsplash.jpg,NaN
74171,27,214,NA,50,52,original,objects,fabian-blank-pElSkGRA2NU-unsplash.jpg,Stimuli/Experimental_stims/objects/fabian-blank-pElSkGRA2NU-unsplash.jpg,NaN
74171,28,501,NA,50,39,original,body_parts,jonathan-borba-hTwH8QFkPMs-unsplash.jpg,Stimuli/Experimental_stims/body_parts/jonathan-borba-hTwH8QFkPMs-unsplash.jpg,NaN
74171,29,176,NA,50,116,scramble,objects,scrambled_jonathan-greenaway-Y4hGgeiFn3s-unsplash.jpg,Stimuli/Experimental_stims/scramble/objects/scrambled_jonathan-greenaway-Y4hGgeiFn3s-unsplash.jpg,NaN
74171,30,189,NA,50,82,scramble,outdoor_scenes,scrambled_stephen-leonardi-gyIRjKPXupE-unsplash.jpg,Stimuli/Experimental_stims/scramble/outdoor_scenes/scrambled_stephen-leonardi-gyIRjKPXupE-unsplash.jpg,NaN
74171,31,177,NA,50,79,scramble,outdoor_scenes,scrambled_petr-vysohlid-9fqwGqGLUxc-unsplash.jpg,Stimuli/Experimental_stims/scramble/outdoor_scenes/scrambled_petr-vysohlid-9fqwGqGLUxc-unsplash.jpg,NaN
74171,32,212,NA,50,55,original,objects,jiangxulei1990-eIzzzwtkBjU-unsplash.jpg,Stimuli/Experimental_stims/objects/jiangxulei1990-eIzzzwtkBjU-unsplash.jpg,NaN
74171,33,199,NA,50,16,original,outdoor_scenes,jarrett-kow-1ZOyYPOBn7I-unsplash.jpg,Stimuli/Experimental_stims/outdoor_scenes/jarrett-kow-1ZOyYPOBn7I-unsplash.jpg,NaN
74171,34,177,NA,50,75,scramble,outdoor_scenes,scrambled_henry-be-NLF6hTe4PAg-unsplash.jpg,Stimuli/Experimental_stims/scramble/outdoor_scenes/scrambled_henry-be-NLF6hTe4PAg-unsplash.jpg,NaN
74171,35,179,NA,50,29,original,faces,freddy-kearney-o-ioeoATbIM-unsplash.jpg,Stimuli/Experimental_stims/faces/freddy-kearney-o-ioeoATbIM-unsplash.jpg,NaN
74171,36,186,NA,50,77,scramble,outdoor_scenes,scrambled_jeff-king-bJHWJeiHfHc-unsplash.jpg,Stimuli/Experimental_stims/scramble/outdoor_scenes/scrambled_jeff-king-bJHWJeiHfHc-unsplash.jpg,NaN
74171,37,189,NA,50,107,scramble,body_parts,scrambled_tucker-good-36skLT5jZcc-unsplash.jpg,Stimuli/Experimental_stims/scramble/body_parts/scrambled_tucker-good-36skLT5jZcc-unsplash.jpg,NaN
74171,38,178,NA,50,18,original,outdoor_scenes,meng-ji-8BH_M-53CyA-unsplash.jpg,Stimuli/Experimental_stims/outdoor_scenes/meng-ji-8BH_M-53CyA-unsplash.jpg,NaN
74171,39,186,NA,50,117,scramble,objects,scrambled_kuiye-chen-NuOGFo4PudE-unsplash.jpg,Stimuli/Experimental_stims/scramble/objects/scrambled_kuiye-chen-NuOGFo4PudE-unsplash.jpg,NaN
74171,40,188,NA,50,43,original,body_parts,megan-menegay-UojxG_BJxnI-unsplash.jpg,Stimuli/Experimental_stims/body_parts/megan-menegay-UojxG_BJxnI-unsplash.jpg,NaN
74171,41,188,NA,50,91,scramble,faces,scrambled_jessica-radanavong-mrYkTuAesKE-unsplash.jpg,Stimuli/Experimental_stims/scramble/faces/scrambled_jessica-radanavong-mrYkTuAesKE-unsplash.jpg,NaN
74171,42,189,NA,50,12,original,outdoor_scenes,aleksandra-boguslawska-MS7KD9Ti7FQ-unsplash.jpg,Stimuli/Experimental_stims/outdoor_scenes/aleksandra-boguslawska-MS7KD9Ti7FQ-unsplash.jpg,NaN
74171,43,189,NA,50,58,original,objects,mockup-graphics-PNsj6RiHAF4-unsplash.jpg,Stimuli/Experimental_stims/objects/mockup-graphics-PNsj6RiHAF4-unsplash.jpg,NaN
74171,44,186,NA,50,57,original,objects,kuiye-chen-NuOGFo4PudE-unsplash.jpg,Stimuli/Experimental_stims/objects/kuiye-chen-NuOGFo4PudE-unsplash.jpg,NaN
74171,45,200,NA,50,37,original,body_parts,engin-akyurt-Q2rfH3GW39c-unsplash.jpg,Stimuli/Experimental_stims/body_parts/engin-akyurt-Q2rfH3GW39c-unsplash.jpg,NaN
74171,46,188,NA,50,47,original,body_parts,tucker-good-36skLT5jZcc-unsplash.jpg,Stimuli/Experimental_stims/body_parts/tucker-good-36skLT5jZcc-unsplash.jpg,NaN
74171,47,212,NA,50,73,scramble,outdoor_scenes,scrambled_ashim-d-silva-S2Q5mdOrrVc-unsplash.jpg,Stimuli/Experimental_stims/scramble/outdoor_scenes/scrambled_ashim-d-silva-S2Q5mdOrrVc-unsplash.jpg,NaN
74171,48,210,NA,50,99,scramble,body_parts,scrambled_jonathan-borba-hTwH8QFkPMs-unsplash.jpg,Stimuli/Experimental_stims/scramble/body_parts/scrambled_jonathan-borba-hTwH8QFkPMs-unsplash.jpg,NaN
74171,49,201,NA,50,96,scramble,body_parts,scrambled_callum-skelton-3KLMq7y46nA-unsplash.jpg,Stimuli/Experimental_stims/scramble/body_parts/scrambled_callum-skelton-3KLMq7y46nA-unsplash.jpg,NaN
74171,50,188,NA,50,53,original,objects,insung-yoon-w2JtIQQXoRU-unsplash.jpg,Stimuli/Experimental_stims/objects/insung-yoon-w2JtIQQXoRU-unsplash.jpg,NaN
74171,51,199,NA,50,23,original,outdoor_scenes,yuriy-bogdanov-W51VK3Obcj0-unsplash.jpg,Stimuli/Experimental_stims/outdoor_scenes/yuriy-bogdanov-W51VK3Obcj0-unsplash.jpg,NaN
74171,52,200,NA,50,108,scramble,objects,scrambled_alexander-andrews-JYGnB9gTCls-unsplash.jpg,Stimuli/Experimental_stims/scramble/objects/scrambled_alexander-andrews-JYGnB9gTCls-unsplash.jpg,NaN
74171,53,199,NA,50,94,scramble,faces,scrambled_olena-sergienko-0TSd6uCKTKc-unsplash.jpg,Stimuli/Experimental_stims/scramble/faces/scrambled_olena-sergienko-0TSd6uCKTKc-unsplash.jpg,NaN
74171,54,211,NA,50,78,scramble,outdoor_scenes,scrambled_meng-ji-8BH_M-53CyA-unsplash.jpg,Stimuli/Experimental_stims/scramble/outdoor_scenes/scrambled_meng-ji-8BH_M-53CyA-unsplash.jpg,NaN
74171,55,188,NA,50,118,scramble,objects,scrambled_mockup-graphics-PNsj6RiHAF4-unsplash.jpg,Stimuli/Experimental_stims/scramble/objects/scrambled_mockup-graphics-PNsj6RiHAF4-unsplash.jpg,NaN
74171,56,189,NA,50,56,original,objects,jonathan-greenaway-Y4hGgeiFn3s-unsplash.jpg,Stimuli/Experimental_stims/objects/jonathan-greenaway-Y4hGgeiFn3s-unsplash.jpg,NaN
74171,57,199,NA,50,25,original,faces,aiony-haust-jmATI5Q_YgY-unsplash.jpg,Stimuli/Experimental_stims/faces/aiony-haust-jmATI5Q_YgY-unsplash.jpg,NaN
74171,58,211,NA,50,111,scramble,objects,scrambled_art-lasovsky-8XddFc6NkBY-unsplash.jpg,Stimuli/Experimental_stims/scramble/objects/scrambled_art-lasovsky-8XddFc6NkBY-unsplash.jpg,NaN
74171,59,245,NA,50,34,original,faces,olena-sergienko-0TSd6uCKTKc-unsplash.jpg,Stimuli/Experimental_stims/faces/olena-sergienko-0TSd6uCKTKc-unsplash.jpg,NaN
74171,60,445,NA,50,114,scramble,objects,scrambled_jess-bailey-nOeVi8DsN8U-unsplash.jpg,Stimuli/Experimental_stims/scramble/objects/scrambled_jess-bailey-nOeVi8DsN8U-unsplash.jpg,NaN
74171,61,245,NA,50,76,scramble,outdoor_scenes,scrambled_jarrett-kow-1ZOyYPOBn7I-unsplash.jpg,Stimuli/Experimental_stims/scramble/outdoor_scenes/scrambled_jarrett-kow-1ZOyYPOBn7I-unsplash.jpg,NaN
74171,62,311,NA,50,93,scramble,faces,scrambled_leilani-angel-K84vnnzxmTQ-unsplash.jpg,Stimuli/Experimental_stims/scramble/faces/scrambled_leilani-angel-K84vnnzxmTQ-unsplash.jpg,NaN
74171,63,232,NA,50,74,scramble,outdoor_scenes,scrambled_bruno-van-der-kraan-qez8mNJ3ilU-unsplash.jpg,Stimuli/Experimental_stims/scramble/outdoor_scenes/scrambled_bruno-van-der-kraan-qez8mNJ3ilU-unsplash.jpg,NaN
74171,64,233,NA,50,104,scramble,body_parts,scrambled_pure-julia-9lVaya31sMk-unsplash.jpg,Stimuli/Experimental_stims/scramble/body_parts/scrambled_pure-julia-9lVaya31sMk-unsplash.jpg,NaN
74171,65,235,NA,50,80,scramble,outdoor_scenes,scrambled_samsommer-vddccTqwal8-unsplash.jpg,Stimuli/Experimental_stims/scramble/outdoor_scenes/scrambled_samsommer-vddccTqwal8-unsplash.jpg,NaN
74171,66,232,NA,50,85,scramble,faces,scrambled_aiony-haust-jmATI5Q_YgY-unsplash.jpg,Stimuli/Experimental_stims/scramble/faces/scrambled_aiony-haust-jmATI5Q_YgY-unsplash.jpg,NaN
74171,67,210,NA,50,14,original,outdoor_scenes,bruno-van-der-kraan-qez8mNJ3ilU-unsplash.jpg,Stimuli/Experimental_stims/outdoor_scenes/bruno-van-der-kraan-qez8mNJ3ilU-unsplash.jpg,NaN
74171,68,233,NA,50,49,original,objects,alexander-andrews-VLGWE_SumrA-unsplash.jpg,Stimuli/Experimental_stims/objects/alexander-andrews-VLGWE_SumrA-unsplash.jpg,NaN
74171,69,235,NA,50,21,original,outdoor_scenes,sergey-pesterev-y-b_FOmJXdg-unsplash.jpg,Stimuli/Experimental_stims/outdoor_scenes/sergey-pesterev-y-b_FOmJXdg-unsplash.jpg,NaN
74171,70,254,NA,50,26,original,faces,art-hauntington-jzY0KRJopEI-unsplash.jpg,Stimuli/Experimental_stims/faces/art-hauntington-jzY0KRJopEI-unsplash.jpg,NaN
74171,71,253,NA,50,100,scramble,body_parts,scrambled_klara-kulikova-TcUfF24fUMY-unsplash.jpg,Stimuli/Experimental_stims/scramble/body_parts/scrambled_klara-kulikova-TcUfF24fUMY-unsplash.jpg,NaN
74171,72,233,NA,50,40,original,body_parts,klara-kulikova-TcUfF24fUMY-unsplash.jpg,Stimuli/Experimental_stims/body_parts/klara-kulikova-TcUfF24fUMY-unsplash.jpg,NaN
74171,73,212,NA,50,50,original,objects,andrew-petrov-TVJqDat4MAw-unsplash.jpg,Stimuli/Experimental_stims/objects/andrew-petrov-TVJqDat4MAw-unsplash.jpg,NaN
74171,74,212,NA,50,19,original,outdoor_scenes,petr-vysohlid-9fqwGqGLUxc-unsplash.jpg,Stimuli/Experimental_stims/outdoor_scenes/petr-vysohlid-9fqwGqGLUxc-unsplash.jpg,NaN
74171,75,202,NA,50,109,scramble,objects,scrambled_alexander-andrews-VLGWE_SumrA-unsplash.jpg,Stimuli/Experimental_stims/scramble/objects/scrambled_alexander-andrews-VLGWE_SumrA-unsplash.jpg,NaN
74171,76,211,NA,50,95,scramble,faces,scrambled_rikonavt-HQjfrvdTfak-unsplash.jpg,Stimuli/Experimental_stims/scramble/faces/scrambled_rikonavt-HQjfrvdTfak-unsplash.jpg,NaN
74171,77,200,NA,50,59,original,objects,ronaldo-arthur-vidal-Cdz_lvnl37k-unsplash.jpg,Stimuli/Experimental_stims/objects/ronaldo-arthur-vidal-Cdz_lvnl37k-unsplash.jpg,NaN
74171,78,187,NA,50,41,original,body_parts,lucaxx-freire-CacZwMexYdk-unsplash.jpg,Stimuli/Experimental_stims/body_parts/lucaxx-freire-CacZwMexYdk-unsplash.jpg,NaN
74171,79,187,NA,50,27,original,faces,daniel-rigdon-dXmXKPP2L4E-unsplash.jpg,Stimuli/Experimental_stims/faces/daniel-rigdon-dXmXKPP2L4E-unsplash.jpg,NaN
74171,80,213,NA,50,31,original,faces,jessica-radanavong-mrYkTuAesKE-unsplash.jpg,Stimuli/Experimental_stims/faces/jessica-radanavong-mrYkTuAesKE-unsplash.jpg,NaN
74171,81,197,NA,50,115,scramble,objects,scrambled_jiangxulei1990-eIzzzwtkBjU-unsplash.jpg,Stimuli/Experimental_stims/scramble/objects/scrambled_jiangxulei1990-eIzzzwtkBjU-unsplash.jpg,NaN
74171,82,189,NA,50,105,scramble,body_parts,scrambled_sincerely-media-7TBFwUQA6Xk-unsplash.jpg,Stimuli/Experimental_stims/scramble/body_parts/scrambled_sincerely-media-7TBFwUQA6Xk-unsplash.jpg,NaN
74171,83,203,NA,50,30,original,faces,good-faces-xmSWVeGEnJw-unsplash.jpg,Stimuli/Experimental_stims/faces/good-faces-xmSWVeGEnJw-unsplash.jpg,NaN
74171,84,177,NA,50,90,scramble,faces,scrambled_good-faces-xmSWVeGEnJw-unsplash.jpg,Stimuli/Experimental_stims/scramble/faces/scrambled_good-faces-xmSWVeGEnJw-unsplash.jpg,NaN
74171,85,199,NA,50,92,scramble,faces,scrambled_justin-chen-J7Cf1Gch49E-unsplash.jpg,Stimuli/Experimental_stims/scramble/faces/scrambled_justin-chen-J7Cf1Gch49E-unsplash.jpg,NaN
74171,86,199,NA,50,20,original,outdoor_scenes,samsommer-vddccTqwal8-unsplash.jpg,Stimuli/Experimental_stims/outdoor_scenes/samsommer-vddccTqwal8-unsplash.jpg,NaN
74171,87,191,NA,50,51,original,objects,art-lasovsky-8XddFc6NkBY-unsplash.jpg,Stimuli/Experimental_stims/objects/art-lasovsky-8XddFc6NkBY-unsplash.jpg,NaN
74171,88,211,NA,50,24,original,faces,abstral-official-cyOKLSgkgCE-unsplash.jpg,Stimuli/Experimental_stims/faces/abstral-official-cyOKLSgkgCE-unsplash.jpg,NaN
74171,89,179,NA,50,103,scramble,body_parts,scrambled_megan-menegay-UojxG_BJxnI-unsplash.jpg,Stimuli/Experimental_stims/scramble/body_parts/scrambled_megan-menegay-UojxG_BJxnI-unsplash.jpg,NaN
74171,90,186,NA,50,33,original,faces,leilani-angel-K84vnnzxmTQ-unsplash.jpg,Stimuli/Experimental_stims/faces/leilani-angel-K84vnnzxmTQ-unsplash.jpg,NaN
74171,91,210,NA,50,13,original,outdoor_scenes,ashim-d-silva-S2Q5mdOrrVc-unsplash.jpg,Stimuli/Experimental_stims/outdoor_scenes/ashim-d-silva-S2Q5mdOrrVc-unsplash.jpg,NaN
74171,92,188,NA,50,36,original,body_parts,callum-skelton-3KLMq7y46nA-unsplash.jpg,Stimuli/Experimental_stims/body_parts/callum-skelton-3KLMq7y46nA-unsplash.jpg,NaN
74171,93,213,NA,50,35,original,faces,rikonavt-HQjfrvdTfak-unsplash.jpg,Stimuli/Experimental_stims/faces/rikonavt-HQjfrvdTfak-unsplash.jpg,NaN
74171,94,211,NA,50,72,scramble,outdoor_scenes,scrambled_aleksandra-boguslawska-MS7KD9Ti7FQ-unsplash.jpg,Stimuli/Experimental_stims/scramble/outdoor_scenes/scrambled_aleksandra-boguslawska-MS7KD9Ti7FQ-unsplash.jpg,NaN
74171,95,210,NA,50,46,original,body_parts,sincerely-media-VN6DbKajo5s-unsplash.jpg,Stimuli/Experimental_stims/body_parts/sincerely-media-VN6DbKajo5s-unsplash.jpg,NaN
74171,96,213,NA,50,98,scramble,body_parts,scrambled_engin-akyurt-x_3gyC42btc-unsplash.jpg,Stimuli/Experimental_stims/scramble/body_parts/scrambled_engin-akyurt-x_3gyC42btc-unsplash.jpg,NaN