,PID,practice,trial,block,run,gain_left,left_item_id,right_item_id,left_pair_id,right_pair_id,left_stimulus,right_stimulus,left_category,right_category,left_rating,right_rating,left_path,right_path,no_response,left_chosen,rt,higher_outcome_chosen,choice_type,chosen_stimulus,unchosen_stimulus,chosen_category,unchosen_category,iti,long_iti,simulation,version
0,17399,1,1,0,0,0,,,,,,,,,,,Stimuli/Practice_stims/Final_decisions/debby-hudson-FmCSSSGge-0-unsplash.jpg,Stimuli/Practice_stims/Final_decisions/yassine-khalfalli-adsQ9d_Cx0c-unsplash.jpg,0,NaN,NaN,NaN,,NaN,NaN,NaN,NaN,3000,0,5,4
1,17399,1,2,0,0,0,,,,,,,,,,,Stimuli/Practice_stims/Final_decisions/florian-wehde-iVW7mZPwd4g-unsplash.jpg,Stimuli/Practice_stims/Final_decisions/patrick-perkins-3wylDrjxH-E-unsplash.jpg,0,NaN,NaN,NaN,,NaN,NaN,NaN,NaN,1500,0,5,4
2,17399,1,3,0,0,0,,,,,,,,,,,Stimuli/Practice_stims/Final_decisions/debby-hudson-FmCSSSGge-0-unsplash.jpg,Stimuli/Practice_stims/Final_decisions/florian-wehde-iVW7mZPwd4g-unsplash.jpg,0,NaN,NaN,NaN,,NaN,NaN,NaN,NaN,2000,0,5,4
3,17399,1,4,0,0,0,,,,,,,,,,,Stimuli/Practice_stims/Final_decisions/yassine-khalfalli-adsQ9d_Cx0c-unsplash.jpg,Stimuli/Practice_stims/Final_decisions/debby-hudson-FmCSSSGge-0-unsplash.jpg,0,NaN,NaN,NaN,,NaN,NaN,NaN,NaN,1000,0,5,4
4,17399,0,5,1,1,0,no_gain2,gain4,C,L,2,33,outdoor_scenes,body_parts,50,50,Stimuli/Experimental_stims/outdoor_scenes/bruno-van-der-kraan-qez8mNJ3ilU-unsplash.jpg,Stimuli/Experimental_stims/body_parts/tucker-good-36skLT5jZcc-unsplash.jpg,0,NaN,NaN,NaN,chosen,NaN,NaN,NaN,NaN,5000,1,5,4
5,17399,0,6,1,1,0,no_gain1,gain4,F,L,35,23,body_parts,faces,50,50,Stimuli/Experimental_stims/body_parts/wc-so-KH4AAPjb-tI-unsplash.jpg,Stimuli/Experimental_stims/faces/rikonavt-HQjfrvdTfak-unsplash.jpg,0,NaN,NaN,NaN,unchosen,NaN,NaN,NaN,NaN,1700,0,5,4
6,17399,0,7,1,1,1,gain2,no_gain4,D,A,42,1,objects,outdoor_scenes,50,50,Stimuli/Experimental_stims/objects/jess-bailey-nOeVi8DsN8U-unsplash.jpg,Stimuli/Experimental_stims/outdoor_scenes/ashim-d-silva-S2Q5mdOrrVc-unsplash.jpg,0,NaN,NaN,NaN,chosen,NaN,NaN,NaN,NaN,1600,0,5,4
7,17399,0,8,1,1,1,gain1,no_gain2,H,C,4,27,outdoor_scenes,body_parts,50,50,Stimuli/Experimental_stims/outdoor_scenes/jarrett-kow-1ZOyYPOBn7I-unsplash.jpg,Stimuli/Experimental_stims/body_parts/heike-mintel-i_Gns0ELnLw-unsplash.jpg,0,NaN,NaN,NaN,unchosen,NaN,NaN,NaN,NaN,1800,0,5,4
8,17399,0,9,1,1,0,no_gain6,gain6,K,G,43,10,objects,outdoor_scenes,50,50,Stimuli/Experimental_stims/objects/jonathan-greenaway-Y4hGgeiFn3s-unsplash.jpg,Stimuli/Experimental_stims/outdoor_scenes/shannon-kunkle-dM8INmkyDas-unsplash.jpg,0,NaN,NaN,NaN,unchosen,NaN,NaN,NaN,NaN,1300,0,5,4
9,17399,0,10,1,1,1,gain6,no_gain1,G,F,10,35,outdoor_scenes,body_parts,50,50,Stimuli/Experimental_stims/outdoor_scenes/shannon-kunkle-dM8INmkyDas-unsplash.jpg,Stimuli/Experimental_stims/body_parts/wc-so-KH4AAPjb-tI-unsplash.jpg,0,NaN,NaN,NaN,unchosen,NaN,NaN,NaN,NaN,1200,0,5,4
10,17399,0,11,1,1,0,no_gain4,gain5,A,B,1,8,outdoor_scenes,outdoor_scenes,50,50,Stimuli/Experimental_stims/outdoor_scenes/ashim-d-silva-S2Q5mdOrrVc-unsplash.jpg,Stimuli/Experimental_stims/outdoor_scenes/samsommer-vddccTqwal8-unsplash.jpg,0,NaN,NaN,NaN,chosen,NaN,NaN,NaN,NaN,3800,1,5,4
11,17399,0,12,1,1,0,no_gain3,gain2,E,D,41,42,objects,objects,50,50,Stimuli/Experimental_stims/objects/insung-yoon-w2JtIQQXoRU-unsplash.jpg,Stimuli/Experimental_stims/objects/jess-bailey-nOeVi8DsN8U-unsplash.jpg,0,NaN,NaN,NaN,chosen,NaN,NaN,NaN,NaN,1100,0,5,4
12,17399,0,13,1,1,1,gain5,no_gain4,B,A,22,37,faces,objects,50,50,Stimuli/Experimental_stims/faces/ravi-patel-VMGAbeeJTKo-unsplash.jpg,Stimuli/Experimental_stims/objects/alexander-andrews-VLGWE_SumrA-unsplash.jpg,0,NaN,NaN,NaN,unchosen,NaN,NaN,NaN,NaN,2500,0,5,4
13,17399,0,14,1,1,0,no_gain3,gain3,E,I,41,28,objects,body_parts,50,50,Stimuli/Experimental_stims/objects/insung-yoon-w2JtIQQXoRU-unsplash.jpg,Stimuli/Experimental_stims/body_parts/ira-vishnevskaya-8DQAvdCby1I-unsplash.jpg,0,NaN,NaN,NaN,chosen,NaN,NaN,NaN,NaN,1500,0,5,4
14,17399,0,15,1,1,0,no_gain6,gain1,K,H,43,4,objects,outdoor_scenes,50,50,Stimuli/Experimental_stims/objects/jonathan-greenaway-Y4hGgeiFn3s-unsplash.jpg,Stimuli/Experimental_stims/outdoor_scenes/jarrett-kow-1ZOyYPOBn7I-unsplash.jpg,0,NaN,NaN,NaN,unchosen,NaN,NaN,NaN,NaN,1400,0,5,4
15,17399,0,16,1,1,0,no_gain2,gain3,C,I,2,28,outdoor_scenes,body_parts,50,50,Stimuli/Experimental_stims/outdoor_scenes/bruno-van-der-kraan-qez8mNJ3ilU-unsplash.jpg,Stimuli/Experimental_stims/body_parts/ira-vishnevskaya-8DQAvdCby1I-unsplash.jpg,0,NaN,NaN,NaN,chosen,NaN,NaN,NaN,NaN,3300,1,5,4
16,17399,0,17,1,1,0,no_gain3,gain3,E,I,24,5,body_parts,outdoor_scenes,50,50,Stimuli/Experimental_stims/body_parts/clay-banks-LjqARJaJotc-unsplash.jpg,Stimuli/Experimental_stims/outdoor_scenes/jeff-king-bJHWJeiHfHc-unsplash.jpg,0,NaN,NaN,NaN,unchosen,NaN,NaN,NaN,NaN,1800,0,5,4
17,17399,0,18,1,1,0,no_gain1,gain3,F,I,35,5,body_parts,outdoor_scenes,50,50,Stimuli/Experimental_stims/body_parts/wc-so-KH4AAPjb-tI-unsplash.jpg,Stimuli/Experimental_stims/outdoor_scenes/jeff-king-bJHWJeiHfHc-unsplash.jpg,0,NaN,NaN,NaN,unchosen,NaN,NaN,NaN,NaN,1900,0,5,4
18,17399,0,19,1,1,0,no_gain6,gain4,K,L,43,23,objects,faces,50,50,Stimuli/Experimental_stims/objects/jonathan-greenaway-Y4hGgeiFn3s-unsplash.jpg,Stimuli/Experimental_stims/faces/rikonavt-HQjfrvdTfak-unsplash.jpg,0,NaN,NaN,NaN,unchosen,NaN,NaN,NaN,NaN,1100,0,5,4
19,17399,0,20,1,1,0,no_gain2,gain1,C,H,2,12,outdoor_scenes,faces,50,50,Stimuli/Experimental_stims/outdoor_scenes/bruno-van-der-kraan-qez8mNJ3ilU-unsplash.jpg,Stimuli/Experimental_stims/faces/aiony-haust-jmATI5Q_YgY-unsplash.jpg,0,NaN,NaN,NaN,chosen,NaN,NaN,NaN,NaN,1200,0,5,4
20,17399,0,21,1,1,1,gain4,no_gain4,L,A,23,37,faces,objects,50,50,Stimuli/Experimental_stims/faces/rikonavt-HQjfrvdTfak-unsplash.jpg,Stimuli/Experimental_stims/objects/alexander-andrews-VLGWE_SumrA-unsplash.jpg,0,NaN,NaN,NaN,unchosen,NaN,NaN,NaN,NaN,1400,0,5,4
21,17399,0,22,1,1,0,no_gain4,gain3,A,I,1,28,outdoor_scenes,body_parts,50,50,Stimuli/Experimental_stims/outdoor_scenes/ashim-d-silva-S2Q5mdOrrVc-unsplash.jpg,Stimuli/Experimental_stims/body_parts/ira-vishnevskaya-8DQAvdCby1I-unsplash.jpg,0,NaN,NaN,NaN,chosen,NaN,NaN,NaN,NaN,1100,0,5,4
22,17399,0,23,1,1,0,no_gain3,gain5,E,B,24,22,body_parts,faces,50,50,Stimuli/Experimental_stims/body_parts/clay-banks-LjqARJaJotc-unsplash.jpg,Stimuli/Experimental_stims/faces/ravi-patel-VMGAbeeJTKo-unsplash.jpg,0,NaN,NaN,NaN,unchosen,NaN,NaN,NaN,NaN,1500,0,5,4
23,17399,0,24,1,1,1,gain1,no_gain3,H,E,12,41,faces,objects,50,50,Stimuli/Experimental_stims/faces/aiony-haust-jmATI5Q_YgY-unsplash.jpg,Stimuli/Experimental_stims/objects/insung-yoon-w2JtIQQXoRU-unsplash.jpg,0,NaN,NaN,NaN,chosen,NaN,NaN,NaN,NaN,1600,0,5,4
24,17399,0,25,1,1,1,gain2,no_gain1,D,F,21,35,faces,body_parts,50,50,Stimuli/Experimental_stims/faces/leilani-angel-K84vnnzxmTQ-unsplash.jpg,Stimuli/Experimental_stims/body_parts/wc-so-KH4AAPjb-tI-unsplash.jpg,0,NaN,NaN,NaN,unchosen,NaN,NaN,NaN,NaN,3000,1,5,4
25,17399,0,26,1,1,1,gain6,no_gain4,G,A,46,1,objects,outdoor_scenes,50,50,Stimuli/Experimental_stims/objects/mockup-graphics-PNsj6RiHAF4-unsplash.jpg,Stimuli/Experimental_stims/outdoor_scenes/ashim-d-silva-S2Q5mdOrrVc-unsplash.jpg,0,NaN,NaN,NaN,chosen,NaN,NaN,NaN,NaN,1600,0,5,4
26,17399,0,27,1,1,0,no_gain1,gain1,F,H,35,4,body_parts,outdoor_scenes,50,50,Stimuli/Experimental_stims/body_parts/wc-so-KH4AAPjb-tI-unsplash.jpg,Stimuli/Experimental_stims/outdoor_scenes/jarrett-kow-1ZOyYPOBn7I-unsplash.jpg,0,NaN,NaN,NaN,unchosen,NaN,NaN,NaN,NaN,2900,0,5,4
27,17399,0,28,1,1,0,no_gain1,gain3,F,I,14,28,faces,body_parts,50,50,Stimuli/Experimental_stims/faces/david-siglin-UuW4psOb388-unsplash.jpg,Stimuli/Experimental_stims/body_parts/ira-vishnevskaya-8DQAvdCby1I-unsplash.jpg,0,NaN,NaN,NaN,chosen,NaN,NaN,NaN,NaN,2700,0,5,4
28,17399,0,29,1,1,1,gain5,no_gain3,B,E,8,41,outdoor_scenes,objects,50,50,Stimuli/Experimental_stims/outdoor_scenes/samsommer-vddccTqwal8-unsplash.jpg,Stimuli/Experimental_stims/objects/insung-yoon-w2JtIQQXoRU-unsplash.jpg,0,NaN,NaN,NaN,chosen,NaN,NaN,NaN,NaN,1800,0,5,4
29,17399,0,30,1,1,1,gain5,no_gain5,B,J,22,36,faces,objects,50,50,Stimuli/Experimental_stims/faces/ravi-patel-VMGAbeeJTKo-unsplash.jpg,Stimuli/Experimental_stims/objects/alexander-andrews-JYGnB9gTCls-unsplash.jpg,0,NaN,NaN,NaN,unchosen,NaN,NaN,NaN,NaN,2300,0,5,4
30,17399,0,31,1,1,0,no_gain1,gain4,F,L,14,33,faces,body_parts,50,50,Stimuli/Experimental_stims/faces/david-siglin-UuW4psOb388-unsplash.jpg,Stimuli/Experimental_stims/body_parts/tucker-good-36skLT5jZcc-unsplash.jpg,0,NaN,NaN,NaN,chosen,NaN,NaN,NaN,NaN,2000,0,5,4
31,17399,0,32,1,1,1,gain6,no_gain2,G,C,46,2,objects,outdoor_scenes,50,50,Stimuli/Experimental_stims/objects/mockup-graphics-PNsj6RiHAF4-unsplash.jpg,Stimuli/Experimental_stims/outdoor_scenes/bruno-van-der-kraan-qez8mNJ3ilU-unsplash.jpg,0,NaN,NaN,NaN,chosen,NaN,NaN,NaN,NaN,2600,0,5,4
32,17399,0,33,1,1,1,gain4,no_gain3,L,E,23,24,faces,body_parts,50,50,Stimuli/Experimental_stims/faces/rikonavt-HQjfrvdTfak-unsplash.jpg,Stimuli/Experimental_stims/body_parts/clay-banks-LjqARJaJotc-unsplash.jpg,0,NaN,NaN,NaN,unchosen,NaN,NaN,NaN,NaN,3500,1,5,4
33,17399,0,34,1,1,1,gain4,no_gain5,L,J,23,36,faces,objects,50,50,Stimuli/Experimental_stims/faces/rikonavt-HQjfrvdTfak-unsplash.jpg,Stimuli/Experimental_stims/objects/alexander-andrews-JYGnB9gTCls-unsplash.jpg,0,NaN,NaN,NaN,unchosen,NaN,NaN,NaN,NaN,1000,0,5,4
34,17399,0,35,1,1,0,no_gain5,gain6,J,G,15,46,faces,objects,50,50,Stimuli/Experimental_stims/faces/erik-lucatero-d2MSDujJl2g-unsplash.jpg,Stimuli/Experimental_stims/objects/mockup-graphics-PNsj6RiHAF4-unsplash.jpg,0,NaN,NaN,NaN,chosen,NaN,NaN,NaN,NaN,1600,0,5,4
35,17399,0,36,1,1,1,gain1,no_gain5,H,J,12,15,faces,faces,50,50,Stimuli/Experimental_stims/faces/aiony-haust-jmATI5Q_YgY-unsplash.jpg,Stimuli/Experimental_stims/faces/erik-lucatero-d2MSDujJl2g-unsplash.jpg,0,NaN,NaN,NaN,chosen,NaN,NaN,NaN,NaN,1200,0,5,4
36,17399,0,37,1,1,0,no_gain6,gain2,K,D,26,42,body_parts,objects,50,50,Stimuli/Experimental_stims/body_parts/engin-akyurt-x_3gyC42btc-unsplash.jpg,Stimuli/Experimental_stims/objects/jess-bailey-nOeVi8DsN8U-unsplash.jpg,0,NaN,NaN,NaN,chosen,NaN,NaN,NaN,NaN,1500,0,5,4
37,17399,0,38,1,1,1,gain2,no_gain6,D,K,21,43,faces,objects,50,50,Stimuli/Experimental_stims/faces/leilani-angel-K84vnnzxmTQ-unsplash.jpg,Stimuli/Experimental_stims/objects/jonathan-greenaway-Y4hGgeiFn3s-unsplash.jpg,0,NaN,NaN,NaN,unchosen,NaN,NaN,NaN,NaN,4800,1,5,4
38,17399,0,39,1,1,1,gain2,no_gain2,D,C,42,2,objects,outdoor_scenes,50,50,Stimuli/Experimental_stims/objects/jess-bailey-nOeVi8DsN8U-unsplash.jpg,Stimuli/Experimental_stims/outdoor_scenes/bruno-van-der-kraan-qez8mNJ3ilU-unsplash.jpg,0,NaN,NaN,NaN,chosen,NaN,NaN,NaN,NaN,1500,0,5,4
39,17399,0,40,1,1,0,no_gain5,gain1,J,H,36,4,objects,outdoor_scenes,50,50,Stimuli/Experimental_stims/objects/alexander-andrews-JYGnB9gTCls-unsplash.jpg,Stimuli/Experimental_stims/outdoor_scenes/jarrett-kow-1ZOyYPOBn7I-unsplash.jpg,0,NaN,NaN,NaN,unchosen,NaN,NaN,NaN,NaN,1700,0,5,4
40,17399,0,41,1,1,0,no_gain4,gain1,A,H,37,4,objects,outdoor_scenes,50,50,Stimuli/Experimental_stims/objects/alexander-andrews-VLGWE_SumrA-unsplash.jpg,Stimuli/Experimental_stims/outdoor_scenes/jarrett-kow-1ZOyYPOBn7I-unsplash.jpg,0,NaN,NaN,NaN,unchosen,NaN,NaN,NaN,NaN,1200,0,5,4
41,17399,0,42,1,1,1,gain5,no_gain2,B,C,22,27,faces,body_parts,50,50,Stimuli/Experimental_stims/faces/ravi-patel-VMGAbeeJTKo-unsplash.jpg,Stimuli/Experimental_stims/body_parts/heike-mintel-i_Gns0ELnLw-unsplash.jpg,0,NaN,NaN,NaN,unchosen,NaN,NaN,NaN,NaN,1400,0,5,4
42,17399,0,43,1,1,1,gain6,no_gain6,G,K,46,26,objects,body_parts,50,50,Stimuli/Experimental_stims/objects/mockup-graphics-PNsj6RiHAF4-unsplash.jpg,Stimuli/Experimental_stims/body_parts/engin-akyurt-x_3gyC42btc-unsplash.jpg,0,NaN,NaN,NaN,chosen,NaN,NaN,NaN,NaN,1800,0,5,4
43,17399,0,44,1,1,1,gain1,no_gain3,H,E,4,24,outdoor_scenes,body_parts,50,50,Stimuli/Experimental_stims/outdoor_scenes/jarrett-kow-1ZOyYPOBn7I-unsplash.jpg,Stimuli/Experimental_stims/body_parts/clay-banks-LjqARJaJotc-unsplash.jpg,0,NaN,NaN,NaN,unchosen,NaN,NaN,NaN,NaN,3600,1,5,4
44,17399,0,45,1,1,1,gain2,no_gain5,D,J,42,15,objects,faces,50,50,Stimuli/Experimental_stims/objects/jess-bailey-nOeVi8DsN8U-unsplash.jpg,Stimuli/Experimental_stims/faces/erik-lucatero-d2MSDujJl2g-unsplash.jpg,0,NaN,NaN,NaN,chosen,NaN,NaN,NaN,NaN,1200,0,5,4
45,17399,0,46,1,1,0,no_gain2,gain5,C,B,2,8,outdoor_scenes,outdoor_scenes,50,50,Stimuli/Experimental_stims/outdoor_scenes/bruno-van-der-kraan-qez8mNJ3ilU-unsplash.jpg,Stimuli/Experimental_stims/outdoor_scenes/samsommer-vddccTqwal8-unsplash.jpg,0,NaN,NaN,NaN,chosen,NaN,NaN,NaN,NaN,2700,0,5,4
46,17399,0,47,1,1,0,no_gain4,gain3,A,I,37,5,objects,outdoor_scenes,50,50,Stimuli/Experimental_stims/objects/alexander-andrews-VLGWE_SumrA-unsplash.jpg,Stimuli/Experimental_stims/outdoor_scenes/jeff-king-bJHWJeiHfHc-unsplash.jpg,0,NaN,NaN,NaN,unchosen,NaN,NaN,NaN,NaN,2100,0,5,4
47,17399,0,48,1,1,1,gain6,no_gain4,G,A,10,37,outdoor_scenes,objects,50,50,Stimuli/Experimental_stims/outdoor_scenes/shannon-kunkle-dM8INmkyDas-unsplash.jpg,Stimuli/Experimental_stims/objects/alexander-andrews-VLGWE_SumrA-unsplash.jpg,0,NaN,NaN,NaN,unchosen,NaN,NaN,NaN,NaN,2500,0,5,4
48,17399,0,49,1,1,1,gain3,no_gain6,I,K,28,26,body_parts,body_parts,50,50,Stimuli/Experimental_stims/body_parts/ira-vishnevskaya-8DQAvdCby1I-unsplash.jpg,Stimuli/Experimental_stims/body_parts/engin-akyurt-x_3gyC42btc-unsplash.jpg,0,NaN,NaN,NaN,chosen,NaN,NaN,NaN,NaN,1500,0,5,4
49,17399,0,50,1,1,1,gain2,no_gain1,D,F,42,14,objects,faces,50,50,Stimuli/Experimental_stims/objects/jess-bailey-nOeVi8DsN8U-unsplash.jpg,Stimuli/Experimental_stims/faces/david-siglin-UuW4psOb388-unsplash.jpg,0,NaN,NaN,NaN,chosen,NaN,NaN,NaN,NaN,1300,0,5,4
50,17399,0,51,1,1,1,gain6,no_gain3,G,E,46,41,objects,objects,50,50,Stimuli/Experimental_stims/objects/mockup-graphics-PNsj6RiHAF4-unsplash.jpg,Stimuli/Experimental_stims/objects/insung-yoon-w2JtIQQXoRU-unsplash.jpg,0,NaN,NaN,NaN,chosen,NaN,NaN,NaN,NaN,1000,0,5,4
51,17399,0,52,1,1,1,gain6,no_gain3,G,E,10,24,outdoor_scenes,body_parts,50,50,Stimuli/Experimental_stims/outdoor_scenes/shannon-kunkle-dM8INmkyDas-unsplash.jpg,Stimuli/Experimental_stims/body_parts/clay-banks-LjqARJaJotc-unsplash.jpg,0,NaN,NaN,NaN,unchosen,NaN,NaN,NaN,NaN,1500,0,5,4
52,17399,0,53,1,1,0,no_gain6,gain3,K,I,43,5,objects,outdoor_scenes,50,50,Stimuli/Experimental_stims/objects/jonathan-greenaway-Y4hGgeiFn3s-unsplash.jpg,Stimuli/Experimental_stims/outdoor_scenes/jeff-king-bJHWJeiHfHc-unsplash.jpg,0,NaN,NaN,NaN,unchosen,NaN,NaN,NaN,NaN,2200,0,5,4
53,17399,0,54,1,1,1,gain2,no_gain5,D,J,21,36,faces,objects,50,50,Stimuli/Experimental_stims/faces/leilani-angel-K84vnnzxmTQ-unsplash.jpg,Stimuli/Experimental_stims/objects/alexander-andrews-JYGnB9gTCls-unsplash.jpg,0,NaN,NaN,NaN,unchosen,NaN,NaN,NaN,NaN,1300,0,5,4
54,17399,0,55,1,1,1,gain4,no_gain6,L,K,33,26,body_parts,body_parts,50,50,Stimuli/Experimental_stims/body_parts/tucker-good-36skLT5jZcc-unsplash.jpg,Stimuli/Experimental_stims/body_parts/engin-akyurt-x_3gyC42btc-unsplash.jpg,0,NaN,NaN,NaN,chosen,NaN,NaN,NaN,NaN,3000,1,5,4
55,17399,0,56,1,1,1,gain4,no_gain2,L,C,23,27,faces,body_parts,50,50,Stimuli/Experimental_stims/faces/rikonavt-HQjfrvdTfak-unsplash.jpg,Stimuli/Experimental_stims/body_parts/heike-mintel-i_Gns0ELnLw-unsplash.jpg,0,NaN,NaN,NaN,unchosen,NaN,NaN,NaN,NaN,1400,0,5,4
56,17399,0,57,1,1,1,gain3,no_gain2,I,C,5,27,outdoor_scenes,body_parts,50,50,Stimuli/Experimental_stims/outdoor_scenes/jeff-king-bJHWJeiHfHc-unsplash.jpg,Stimuli/Experimental_stims/body_parts/heike-mintel-i_Gns0ELnLw-unsplash.jpg,0,NaN,NaN,NaN,unchosen,NaN,NaN,NaN,NaN,1500,0,5,4
57,17399,0,58,1,1,0,no_gain4,gain1,A,H,1,12,outdoor_scenes,faces,50,50,Stimuli/Experimental_stims/outdoor_scenes/ashim-d-silva-S2Q5mdOrrVc-unsplash.jpg,Stimuli/Experimental_stims/faces/aiony-haust-jmATI5Q_YgY-unsplash.jpg,0,NaN,NaN,NaN,chosen,NaN,NaN,NaN,NaN,1200,0,5,4
58,17399,0,59,1,1,0,no_gain2,gain2,C,D,27,21,body_parts,faces,50,50,Stimuli/Experimental_stims/body_parts/heike-mintel-i_Gns0ELnLw-unsplash.jpg,Stimuli/Experimental_stims/faces/leilani-angel-K84vnnzxmTQ-unsplash.jpg,0,NaN,NaN,NaN,unchosen,NaN,NaN,NaN,NaN,1600,0,5,4
59,17399,0,60,1,1,0,no_gain6,gain1,K,H,26,12,body_parts,faces,50,50,Stimuli/Experimental_stims/body_parts/engin-akyurt-x_3gyC42btc-unsplash.jpg,Stimuli/Experimental_stims/faces/aiony-haust-jmATI5Q_YgY-unsplash.jpg,0,NaN,NaN,NaN,chosen,NaN,NaN,NaN,NaN,2300,0,5,4
60,17399,0,61,1,1,1,gain2,no_gain3,D,E,21,24,faces,body_parts,50,50,Stimuli/Experimental_stims/faces/leilani-angel-K84vnnzxmTQ-unsplash.jpg,Stimuli/Experimental_stims/body_parts/clay-banks-LjqARJaJotc-unsplash.jpg,0,NaN,NaN,NaN,unchosen,NaN,NaN,NaN,NaN,1400,0,5,4
61,17399,0,62,1,1,0,no_gain5,gain4,J,L,15,33,faces,body_parts,50,50,Stimuli/Experimental_stims/faces/erik-lucatero-d2MSDujJl2g-unsplash.jpg,Stimuli/Experimental_stims/body_parts/tucker-good-36skLT5jZcc-unsplash.jpg,0,NaN,NaN,NaN,chosen,NaN,NaN,NaN,NaN,4400,1,5,4
62,17399,0,63,1,1,1,gain3,no_gain5,I,J,28,15,body_parts,faces,50,50,Stimuli/Experimental_stims/body_parts/ira-vishnevskaya-8DQAvdCby1I-unsplash.jpg,Stimuli/Experimental_stims/faces/erik-lucatero-d2MSDujJl2g-unsplash.jpg,0,NaN,NaN,NaN,chosen,NaN,NaN,NaN,NaN,1900,0,5,4
63,17399,0,64,1,1,0,no_gain6,gain5,K,B,43,22,objects,faces,50,50,Stimuli/Experimental_stims/objects/jonathan-greenaway-Y4hGgeiFn3s-unsplash.jpg,Stimuli/Experimental_stims/faces/ravi-patel-VMGAbeeJTKo-unsplash.jpg,0,NaN,NaN,NaN,unchosen,NaN,NaN,NaN,NaN,2000,0,5,4
64,17399,0,65,1,1,0,no_gain5,gain6,J,G,36,10,objects,outdoor_scenes,50,50,Stimuli/Experimental_stims/objects/alexander-andrews-JYGnB9gTCls-unsplash.jpg,Stimuli/Experimental_stims/outdoor_scenes/shannon-kunkle-dM8INmkyDas-unsplash.jpg,0,NaN,NaN,NaN,unchosen,NaN,NaN,NaN,NaN,1500,0,5,4
65,17399,0,66,1,1,1,gain5,no_gain6,B,K,8,26,outdoor_scenes,body_parts,50,50,Stimuli/Experimental_stims/outdoor_scenes/samsommer-vddccTqwal8-unsplash.jpg,Stimuli/Experimental_stims/body_parts/engin-akyurt-x_3gyC42btc-unsplash.jpg,0,NaN,NaN,NaN,chosen,NaN,NaN,NaN,NaN,1600,0,5,4
66,17399,0,67,1,1,0,no_gain2,gain6,C,G,27,10,body_parts,outdoor_scenes,50,50,Stimuli/Experimental_stims/body_parts/heike-mintel-i_Gns0ELnLw-unsplash.jpg,Stimuli/Experimental_stims/outdoor_scenes/shannon-kunkle-dM8INmkyDas-unsplash.jpg,0,NaN,NaN,NaN,unchosen,NaN,NaN,NaN,NaN,3000,1,5,4
67,17399,0,68,1,1,0,no_gain1,gain1,F,H,14,12,faces,faces,50,50,Stimuli/Experimental_stims/faces/david-siglin-UuW4psOb388-unsplash.jpg,Stimuli/Experimental_stims/faces/aiony-haust-jmATI5Q_YgY-unsplash.jpg,0,NaN,NaN,NaN,chosen,NaN,NaN,NaN,NaN,1900,0,5,4
68,17399,0,69,1,1,0,no_gain4,gain2,A,D,37,21,objects,faces,50,50,Stimuli/Experimental_stims/objects/alexander-andrews-VLGWE_SumrA-unsplash.jpg,Stimuli/Experimental_stims/faces/leilani-angel-K84vnnzxmTQ-unsplash.jpg,0,NaN,NaN,NaN,unchosen,NaN,NaN,NaN,NaN,1100,0,5,4
69,17399,0,70,1,1,1,gain4,no_gain3,L,E,33,41,body_parts,objects,50,50,Stimuli/Experimental_stims/body_parts/tucker-good-36skLT5jZcc-unsplash.jpg,Stimuli/Experimental_stims/objects/insung-yoon-w2JtIQQXoRU-unsplash.jpg,0,NaN,NaN,NaN,chosen,NaN,NaN,NaN,NaN,1300,0,5,4
70,17399,0,71,1,1,1,gain6,no_gain1,G,F,46,14,objects,faces,50,50,Stimuli/Experimental_stims/objects/mockup-graphics-PNsj6RiHAF4-unsplash.jpg,Stimuli/Experimental_stims/faces/david-siglin-UuW4psOb388-unsplash.jpg,0,NaN,NaN,NaN,chosen,NaN,NaN,NaN,NaN,2600,0,5,4
71,17399,0,72,1,1,0,no_gain5,gain5,J,B,15,8,faces,outdoor_scenes,50,50,Stimuli/Experimental_stims/faces/erik-lucatero-d2MSDujJl2g-unsplash.jpg,Stimuli/Experimental_stims/outdoor_scenes/samsommer-vddccTqwal8-unsplash.jpg,0,NaN,NaN,NaN,chosen,NaN,NaN,NaN,NaN,1100,0,5,4
72,17399,0,73,1,1,0,no_gain1,gain5,F,B,35,22,body_parts,faces,50,50,Stimuli/Experimental_stims/body_parts/wc-so-KH4AAPjb-tI-unsplash.jpg,Stimuli/Experimental_stims/faces/ravi-patel-VMGAbeeJTKo-unsplash.jpg,0,NaN,NaN,NaN,unchosen,NaN,NaN,NaN,NaN,2500,0,5,4
73,17399,0,74,1,1,1,gain4,no_gain4,L,A,33,1,body_parts,outdoor_scenes,50,50,Stimuli/Experimental_stims/body_parts/tucker-good-36skLT5jZcc-unsplash.jpg,Stimuli/Experimental_stims/outdoor_scenes/ashim-d-silva-S2Q5mdOrrVc-unsplash.jpg,0,NaN,NaN,NaN,chosen,NaN,NaN,NaN,NaN,2600,0,5,4
74,17399,0,75,1,1,0,no_gain1,gain5,F,B,14,8,faces,outdoor_scenes,50,50,Stimuli/Experimental_stims/faces/david-siglin-UuW4psOb388-unsplash.jpg,Stimuli/Experimental_stims/outdoor_scenes/samsommer-vddccTqwal8-unsplash.jpg,0,NaN,NaN,NaN,chosen,NaN,NaN,NaN,NaN,1100,0,5,4
75,17399,0,76,1,1,1,gain3,no_gain5,I,J,5,36,outdoor_scenes,objects,50,50,Stimuli/Experimental_stims/outdoor_scenes/jeff-king-bJHWJeiHfHc-unsplash.jpg,Stimuli/Experimental_stims/objects/alexander-andrews-JYGnB9gTCls-unsplash.jpg,0,NaN,NaN,NaN,unchosen,NaN,NaN,NaN,NaN,4200,1,5,4
76,17399,0,77,2,2,1,gain4,no_gain6,L,K,23,43,faces,objects,50,50,Stimuli/Experimental_stims/faces/rikonavt-HQjfrvdTfak-unsplash.jpg,Stimuli/Experimental_stims/objects/jonathan-greenaway-Y4hGgeiFn3s-unsplash.jpg,0,NaN,NaN,NaN,unchosen,NaN,NaN,NaN,NaN,1200,0,8,4
77,17399,0,78,2,2,1,gain4,no_gain3,L,E,23,24,faces,body_parts,50,50,Stimuli/Experimental_stims/faces/rikonavt-HQjfrvdTfak-unsplash.jpg,Stimuli/Experimental_stims/body_parts/clay-banks-LjqARJaJotc-unsplash.jpg,0,NaN,NaN,NaN,unchosen,NaN,NaN,NaN,NaN,1400,0,8,4
78,17399,0,79,2,2,1,gain5,no_gain2,B,C,22,27,faces,body_parts,50,50,Stimuli/Experimental_stims/faces/ravi-patel-VMGAbeeJTKo-unsplash.jpg,Stimuli/Experimental_stims/body_parts/heike-mintel-i_Gns0ELnLw-unsplash.jpg,0,NaN,NaN,NaN,unchosen,NaN,NaN,NaN,NaN,2800,0,8,4
79,17399,0,80,2,2,0,no_gain3,gain1,E,H,41,12,objects,faces,50,50,Stimuli/Experimental_stims/objects/insung-yoon-w2JtIQQXoRU-unsplash.jpg,Stimuli/Experimental_stims/faces/aiony-haust-jmATI5Q_YgY-unsplash.jpg,0,NaN,NaN,NaN,chosen,NaN,NaN,NaN,NaN,1700,0,8,4
80,17399,0,81,2,2,0,no_gain5,gain6,J,G,36,10,objects,outdoor_scenes,50,50,Stimuli/Experimental_stims/objects/alexander-andrews-JYGnB9gTCls-unsplash.jpg,Stimuli/Experimental_stims/outdoor_scenes/shannon-kunkle-dM8INmkyDas-unsplash.jpg,0,NaN,NaN,NaN,unchosen,NaN,NaN,NaN,NaN,3700,1,8,4
81,17399,0,82,2,2,1,gain1,no_gain4,H,A,4,37,outdoor_scenes,objects,50,50,Stimuli/Experimental_stims/outdoor_scenes/jarrett-kow-1ZOyYPOBn7I-unsplash.jpg,Stimuli/Experimental_stims/objects/alexander-andrews-VLGWE_SumrA-unsplash.jpg,0,NaN,NaN,NaN,unchosen,NaN,NaN,NaN,NaN,2300,0,8,4
82,17399,0,83,2,2,0,no_gain1,gain1,F,H,14,12,faces,faces,50,50,Stimuli/Experimental_stims/faces/david-siglin-UuW4psOb388-unsplash.jpg,Stimuli/Experimental_stims/faces/aiony-haust-jmATI5Q_YgY-unsplash.jpg,0,NaN,NaN,NaN,chosen,NaN,NaN,NaN,NaN,2900,0,8,4
83,17399,0,84,2,2,0,no_gain3,gain5,E,B,24,22,body_parts,faces,50,50,Stimuli/Experimental_stims/body_parts/clay-banks-LjqARJaJotc-unsplash.jpg,Stimuli/Experimental_stims/faces/ravi-patel-VMGAbeeJTKo-unsplash.jpg,0,NaN,NaN,NaN,unchosen,NaN,NaN,NaN,NaN,2300,0,8,4
84,17399,0,85,2,2,0,no_gain2,gain1,C,H,2,12,outdoor_scenes,faces,50,50,Stimuli/Experimental_stims/outdoor_scenes/bruno-van-der-kraan-qez8mNJ3ilU-unsplash.jpg,Stimuli/Experimental_stims/faces/aiony-haust-jmATI5Q_YgY-unsplash.jpg,0,NaN,NaN,NaN,chosen,NaN,NaN,NaN,NaN,1200,0,8,4
85,17399,0,86,2,2,0,no_gain1,gain1,F,H,35,4,body_parts,outdoor_scenes,50,50,Stimuli/Experimental_stims/body_parts/wc-so-KH4AAPjb-tI-unsplash.jpg,Stimuli/Experimental_stims/outdoor_scenes/jarrett-kow-1ZOyYPOBn7I-unsplash.jpg,0,NaN,NaN,NaN,unchosen,NaN,NaN,NaN,NaN,3100,1,8,4
86,17399,0,87,2,2,0,no_gain2,gain4,C,L,2,33,outdoor_scenes,body_parts,50,50,Stimuli/Experimental_stims/outdoor_scenes/bruno-van-der-kraan-qez8mNJ3ilU-unsplash.jpg,Stimuli/Experimental_stims/body_parts/tucker-good-36skLT5jZcc-unsplash.jpg,0,NaN,NaN,NaN,chosen,NaN,NaN,NaN,NaN,1200,0,8,4
87,17399,0,88,2,2,0,no_gain5,gain2,J,D,36,21,objects,faces,50,50,Stimuli/Experimental_stims/objects/alexander-andrews-JYGnB9gTCls-unsplash.jpg,Stimuli/Experimental_stims/faces/leilani-angel-K84vnnzxmTQ-unsplash.jpg,0,NaN,NaN,NaN,unchosen,NaN,NaN,NaN,NaN,1900,0,8,4
88,17399,0,89,2,2,1,gain6,no_gain1,G,F,46,14,objects,faces,50,50,Stimuli/Experimental_stims/objects/mockup-graphics-PNsj6RiHAF4-unsplash.jpg,Stimuli/Experimental_stims/faces/david-siglin-UuW4psOb388-unsplash.jpg,0,NaN,NaN,NaN,chosen,NaN,NaN,NaN,NaN,2800,0,8,4
89,17399,0,90,2,2,1,gain5,no_gain3,B,E,8,41,outdoor_scenes,objects,50,50,Stimuli/Experimental_stims/outdoor_scenes/samsommer-vddccTqwal8-unsplash.jpg,Stimuli/Experimental_stims/objects/insung-yoon-w2JtIQQXoRU-unsplash.jpg,0,NaN,NaN,NaN,chosen,NaN,NaN,NaN,NaN,1200,0,8,4
90,17399,0,91,2,2,1,gain4,no_gain4,L,A,23,37,faces,objects,50,50,Stimuli/Experimental_stims/faces/rikonavt-HQjfrvdTfak-unsplash.jpg,Stimuli/Experimental_stims/objects/alexander-andrews-VLGWE_SumrA-unsplash.jpg,0,NaN,NaN,NaN,unchosen,NaN,NaN,NaN,NaN,3800,1,8,4
91,17399,0,92,2,2,0,no_gain1,gain2,F,D,35,21,body_parts,faces,50,50,Stimuli/Experimental_stims/body_parts/wc-so-KH4AAPjb-tI-unsplash.jpg,Stimuli/Experimental_stims/faces/leilani-angel-K84vnnzxmTQ-unsplash.jpg,0,NaN,NaN,NaN,unchosen,NaN,NaN,NaN,NaN,1800,0,8,4
92,17399,0,93,2,2,0,no_gain3,gain4,E,L,41,33,objects,body_parts,50,50,Stimuli/Experimental_stims/objects/insung-yoon-w2JtIQQXoRU-unsplash.jpg,Stimuli/Experimental_stims/body_parts/tucker-good-36skLT5jZcc-unsplash.jpg,0,NaN,NaN,NaN,chosen,NaN,NaN,NaN,NaN,2300,0,8,4
93,17399,0,94,2,2,1,gain5,no_gain1,B,F,8,14,outdoor_scenes,faces,50,50,Stimuli/Experimental_stims/outdoor_scenes/samsommer-vddccTqwal8-unsplash.jpg,Stimuli/Experimental_stims/faces/david-siglin-UuW4psOb388-unsplash.jpg,0,NaN,NaN,NaN,chosen,NaN,NaN,NaN,NaN,1400,0,8,4
94,17399,0,95,2,2,0,no_gain5,gain4,J,L,36,23,objects,faces,50,50,Stimuli/Experimental_stims/objects/alexander-andrews-JYGnB9gTCls-unsplash.jpg,Stimuli/Experimental_stims/faces/rikonavt-HQjfrvdTfak-unsplash.jpg,0,NaN,NaN,NaN,unchosen,NaN,NaN,NaN,NaN,1300,0,8,4
95,17399,0,96,2,2,1,gain4,no_gain5,L,J,33,15,body_parts,faces,50,50,Stimuli/Experimental_stims/body_parts/tucker-good-36skLT5jZcc-unsplash.jpg,Stimuli/Experimental_stims/faces/erik-lucatero-d2MSDujJl2g-unsplash.jpg,0,NaN,NaN,NaN,chosen,NaN,NaN,NaN,NaN,1700,0,8,4
96,17399,0,97,2,2,1,gain5,no_gain1,B,F,22,35,faces,body_parts,50,50,Stimuli/Experimental_stims/faces/ravi-patel-VMGAbeeJTKo-unsplash.jpg,Stimuli/Experimental_stims/body_parts/wc-so-KH4AAPjb-tI-unsplash.jpg,0,NaN,NaN,NaN,unchosen,NaN,NaN,NaN,NaN,3100,1,8,4
97,17399,0,98,2,2,1,gain1,no_gain6,H,K,12,26,faces,body_parts,50,50,Stimuli/Experimental_stims/faces/aiony-haust-jmATI5Q_YgY-unsplash.jpg,Stimuli/Experimental_stims/body_parts/engin-akyurt-x_3gyC42btc-unsplash.jpg,0,NaN,NaN,NaN,chosen,NaN,NaN,NaN,NaN,1300,0,8,4
98,17399,0,99,2,2,0,no_gain2,gain1,C,H,27,4,body_parts,outdoor_scenes,50,50,Stimuli/Experimental_stims/body_parts/heike-mintel-i_Gns0ELnLw-unsplash.jpg,Stimuli/Experimental_stims/outdoor_scenes/jarrett-kow-1ZOyYPOBn7I-unsplash.jpg,0,NaN,NaN,NaN,unchosen,NaN,NaN,NaN,NaN,2100,0,8,4
99,17399,0,100,2,2,1,gain2,no_gain3,D,E,42,41,objects,objects,50,50,Stimuli/Experimental_stims/objects/jess-bailey-nOeVi8DsN8U-unsplash.jpg,Stimuli/Experimental_stims/objects/insung-yoon-w2JtIQQXoRU-unsplash.jpg,0,NaN,NaN,NaN,chosen,NaN,NaN,NaN,NaN,1000,0,8,4
100,17399,0,101,2,2,1,gain2,no_gain2,D,C,42,2,objects,outdoor_scenes,50,50,Stimuli/Experimental_stims/objects/jess-bailey-nOeVi8DsN8U-unsplash.jpg,Stimuli/Experimental_stims/outdoor_scenes/bruno-van-der-kraan-qez8mNJ3ilU-unsplash.jpg,0,NaN,NaN,NaN,chosen,NaN,NaN,NaN,NaN,1200,0,8,4
101,17399,0,102,2,2,1,gain3,no_gain1,I,F,28,14,body_parts,faces,50,50,Stimuli/Experimental_stims/body_parts/ira-vishnevskaya-8DQAvdCby1I-unsplash.jpg,Stimuli/Experimental_stims/faces/david-siglin-UuW4psOb388-unsplash.jpg,0,NaN,NaN,NaN,chosen,NaN,NaN,NaN,NaN,1700,0,8,4
102,17399,0,103,2,2,0,no_gain5,gain5,J,B,36,22,objects,faces,50,50,Stimuli/Experimental_stims/objects/alexander-andrews-JYGnB9gTCls-unsplash.jpg,Stimuli/Experimental_stims/faces/ravi-patel-VMGAbeeJTKo-unsplash.jpg,0,NaN,NaN,NaN,unchosen,NaN,NaN,NaN,NaN,1100,0,8,4
103,17399,0,104,2,2,0,no_gain6,gain5,K,B,26,8,body_parts,outdoor_scenes,50,50,Stimuli/Experimental_stims/body_parts/engin-akyurt-x_3gyC42btc-unsplash.jpg,Stimuli/Experimental_stims/outdoor_scenes/samsommer-vddccTqwal8-unsplash.jpg,0,NaN,NaN,NaN,chosen,NaN,NaN,NaN,NaN,1900,0,8,4
104,17399,0,105,2,2,0,no_gain2,gain3,C,I,2,28,outdoor_scenes,body_parts,50,50,Stimuli/Experimental_stims/outdoor_scenes/bruno-van-der-kraan-qez8mNJ3ilU-unsplash.jpg,Stimuli/Experimental_stims/body_parts/ira-vishnevskaya-8DQAvdCby1I-unsplash.jpg,0,NaN,NaN,NaN,chosen,NaN,NaN,NaN,NaN,4100,1,8,4
105,17399,0,106,2,2,0,no_gain1,gain4,F,L,35,23,body_parts,faces,50,50,Stimuli/Experimental_stims/body_parts/wc-so-KH4AAPjb-tI-unsplash.jpg,Stimuli/Experimental_stims/faces/rikonavt-HQjfrvdTfak-unsplash.jpg,0,NaN,NaN,NaN,unchosen,NaN,NaN,NaN,NaN,1400,0,8,4
106,17399,0,107,2,2,0,no_gain4,gain2,A,D,37,21,objects,faces,50,50,Stimuli/Experimental_stims/objects/alexander-andrews-VLGWE_SumrA-unsplash.jpg,Stimuli/Experimental_stims/faces/leilani-angel-K84vnnzxmTQ-unsplash.jpg,0,NaN,NaN,NaN,unchosen,NaN,NaN,NaN,NaN,2400,0,8,4
107,17399,0,108,2,2,0,no_gain5,gain1,J,H,15,12,faces,faces,50,50,Stimuli/Experimental_stims/faces/erik-lucatero-d2MSDujJl2g-unsplash.jpg,Stimuli/Experimental_stims/faces/aiony-haust-jmATI5Q_YgY-unsplash.jpg,0,NaN,NaN,NaN,chosen,NaN,NaN,NaN,NaN,1200,0,8,4
108,17399,0,109,2,2,1,gain6,no_gain1,G,F,10,35,outdoor_scenes,body_parts,50,50,Stimuli/Experimental_stims/outdoor_scenes/shannon-kunkle-dM8INmkyDas-unsplash.jpg,Stimuli/Experimental_stims/body_parts/wc-so-KH4AAPjb-tI-unsplash.jpg,0,NaN,NaN,NaN,unchosen,NaN,NaN,NaN,NaN,1500,0,8,4
109,17399,0,110,2,2,1,gain1,no_gain6,H,K,4,43,outdoor_scenes,objects,50,50,Stimuli/Experimental_stims/outdoor_scenes/jarrett-kow-1ZOyYPOBn7I-unsplash.jpg,Stimuli/Experimental_stims/objects/jonathan-greenaway-Y4hGgeiFn3s-unsplash.jpg,0,NaN,NaN,NaN,unchosen,NaN,NaN,NaN,NaN,3200,1,8,4
110,17399,0,111,2,2,0,no_gain5,gain2,J,D,15,42,faces,objects,50,50,Stimuli/Experimental_stims/faces/erik-lucatero-d2MSDujJl2g-unsplash.jpg,Stimuli/Experimental_stims/objects/jess-bailey-nOeVi8DsN8U-unsplash.jpg,0,NaN,NaN,NaN,chosen,NaN,NaN,NaN,NaN,1800,0,8,4
111,17399,0,112,2,2,0,no_gain5,gain1,J,H,36,4,objects,outdoor_scenes,50,50,Stimuli/Experimental_stims/objects/alexander-andrews-JYGnB9gTCls-unsplash.jpg,Stimuli/Experimental_stims/outdoor_scenes/jarrett-kow-1ZOyYPOBn7I-unsplash.jpg,0,NaN,NaN,NaN,unchosen,NaN,NaN,NaN,NaN,1100,0,8,4
112,17399,0,113,2,2,1,gain2,no_gain6,D,K,21,43,faces,objects,50,50,Stimuli/Experimental_stims/faces/leilani-angel-K84vnnzxmTQ-unsplash.jpg,Stimuli/Experimental_stims/objects/jonathan-greenaway-Y4hGgeiFn3s-unsplash.jpg,0,NaN,NaN,NaN,unchosen,NaN,NaN,NaN,NaN,1700,0,8,4
113,17399,0,114,2,2,1,gain6,no_gain4,G,A,46,1,objects,outdoor_scenes,50,50,Stimuli/Experimental_stims/objects/mockup-graphics-PNsj6RiHAF4-unsplash.jpg,Stimuli/Experimental_stims/outdoor_scenes/ashim-d-silva-S2Q5mdOrrVc-unsplash.jpg,0,NaN,NaN,NaN,chosen,NaN,NaN,NaN,NaN,2700,0,8,4
114,17399,0,115,2,2,1,gain6,no_gain3,G,E,10,24,outdoor_scenes,body_parts,50,50,Stimuli/Experimental_stims/outdoor_scenes/shannon-kunkle-dM8INmkyDas-unsplash.jpg,Stimuli/Experimental_stims/body_parts/clay-banks-LjqARJaJotc-unsplash.jpg,0,NaN,NaN,NaN,unchosen,NaN,NaN,NaN,NaN,1100,0,8,4
115,17399,0,116,2,2,0,no_gain6,gain4,K,L,26,33,body_parts,body_parts,50,50,Stimuli/Experimental_stims/body_parts/engin-akyurt-x_3gyC42btc-unsplash.jpg,Stimuli/Experimental_stims/body_parts/tucker-good-36skLT5jZcc-unsplash.jpg,0,NaN,NaN,NaN,chosen,NaN,NaN,NaN,NaN,1100,0,8,4
116,17399,0,117,2,2,0,no_gain1,gain3,F,I,35,5,body_parts,outdoor_scenes,50,50,Stimuli/Experimental_stims/body_parts/wc-so-KH4AAPjb-tI-unsplash.jpg,Stimuli/Experimental_stims/outdoor_scenes/jeff-king-bJHWJeiHfHc-unsplash.jpg,0,NaN,NaN,NaN,unchosen,NaN,NaN,NaN,NaN,2400,0,8,4
117,17399,0,118,2,2,1,gain3,no_gain6,I,K,28,26,body_parts,body_parts,50,50,Stimuli/Experimental_stims/body_parts/ira-vishnevskaya-8DQAvdCby1I-unsplash.jpg,Stimuli/Experimental_stims/body_parts/engin-akyurt-x_3gyC42btc-unsplash.jpg,0,NaN,NaN,NaN,chosen,NaN,NaN,NaN,NaN,3400,1,8,4
118,17399,0,119,2,2,1,gain3,no_gain3,I,E,28,41,body_parts,objects,50,50,Stimuli/Experimental_stims/body_parts/ira-vishnevskaya-8DQAvdCby1I-unsplash.jpg,Stimuli/Experimental_stims/objects/insung-yoon-w2JtIQQXoRU-unsplash.jpg,0,NaN,NaN,NaN,chosen,NaN,NaN,NaN,NaN,2000,0,8,4
119,17399,0,120,2,2,0,no_gain6,gain3,K,I,43,5,objects,outdoor_scenes,50,50,Stimuli/Experimental_stims/objects/jonathan-greenaway-Y4hGgeiFn3s-unsplash.jpg,Stimuli/Experimental_stims/outdoor_scenes/jeff-king-bJHWJeiHfHc-unsplash.jpg,0,NaN,NaN,NaN,unchosen,NaN,NaN,NaN,NaN,2100,0,8,4
120,17399,0,121,2,2,0,no_gain2,gain6,C,G,27,10,body_parts,outdoor_scenes,50,50,Stimuli/Experimental_stims/body_parts/heike-mintel-i_Gns0ELnLw-unsplash.jpg,Stimuli/Experimental_stims/outdoor_scenes/shannon-kunkle-dM8INmkyDas-unsplash.jpg,0,NaN,NaN,NaN,unchosen,NaN,NaN,NaN,NaN,2500,0,8,4
121,17399,0,122,2,2,1,gain5,no_gain4,B,A,22,37,faces,objects,50,50,Stimuli/Experimental_stims/faces/ravi-patel-VMGAbeeJTKo-unsplash.jpg,Stimuli/Experimental_stims/objects/alexander-andrews-VLGWE_SumrA-unsplash.jpg,0,NaN,NaN,NaN,unchosen,NaN,NaN,NaN,NaN,1600,0,8,4
122,17399,0,123,2,2,1,gain2,no_gain4,D,A,42,1,objects,outdoor_scenes,50,50,Stimuli/Experimental_stims/objects/jess-bailey-nOeVi8DsN8U-unsplash.jpg,Stimuli/Experimental_stims/outdoor_scenes/ashim-d-silva-S2Q5mdOrrVc-unsplash.jpg,0,NaN,NaN,NaN,chosen,NaN,NaN,NaN,NaN,2400,0,8,4
123,17399,0,124,2,2,1,gain4,no_gain1,L,F,33,14,body_parts,faces,50,50,Stimuli/Experimental_stims/body_parts/tucker-good-36skLT5jZcc-unsplash.jpg,Stimuli/Experimental_stims/faces/david-siglin-UuW4psOb388-unsplash.jpg,0,NaN,NaN,NaN,chosen,NaN,NaN,NaN,NaN,1300,0,8,4
124,17399,0,125,2,2,1,gain3,no_gain4,I,A,5,37,outdoor_scenes,objects,50,50,Stimuli/Experimental_stims/outdoor_scenes/jeff-king-bJHWJeiHfHc-unsplash.jpg,Stimuli/Experimental_stims/objects/alexander-andrews-VLGWE_SumrA-unsplash.jpg,0,NaN,NaN,NaN,unchosen,NaN,NaN,NaN,NaN,1900,0,8,4
125,17399,0,126,2,2,1,gain2,no_gain1,D,F,42,14,objects,faces,50,50,Stimuli/Experimental_stims/objects/jess-bailey-nOeVi8DsN8U-unsplash.jpg,Stimuli/Experimental_stims/faces/david-siglin-UuW4psOb388-unsplash.jpg,0,NaN,NaN,NaN,chosen,NaN,NaN,NaN,NaN,1600,0,8,4
126,17399,0,127,2,2,0,no_gain2,gain5,C,B,2,8,outdoor_scenes,outdoor_scenes,50,50,Stimuli/Experimental_stims/outdoor_scenes/bruno-van-der-kraan-qez8mNJ3ilU-unsplash.jpg,Stimuli/Experimental_stims/outdoor_scenes/samsommer-vddccTqwal8-unsplash.jpg,0,NaN,NaN,NaN,chosen,NaN,NaN,NaN,NaN,1100,0,8,4
127,17399,0,128,2,2,1,gain3,no_gain2,I,C,5,27,outdoor_scenes,body_parts,50,50,Stimuli/Experimental_stims/outdoor_scenes/jeff-king-bJHWJeiHfHc-unsplash.jpg,Stimuli/Experimental_stims/body_parts/heike-mintel-i_Gns0ELnLw-unsplash.jpg,0,NaN,NaN,NaN,unchosen,NaN,NaN,NaN,NaN,1200,0,8,4
128,17399,0,129,2,2,1,gain3,no_gain3,I,E,5,24,outdoor_scenes,body_parts,50,50,Stimuli/Experimental_stims/outdoor_scenes/jeff-king-bJHWJeiHfHc-unsplash.jpg,Stimuli/Experimental_stims/body_parts/clay-banks-LjqARJaJotc-unsplash.jpg,0,NaN,NaN,NaN,unchosen,NaN,NaN,NaN,NaN,1300,0,8,4
129,17399,0,130,2,2,1,gain4,no_gain4,L,A,33,1,body_parts,outdoor_scenes,50,50,Stimuli/Experimental_stims/body_parts/tucker-good-36skLT5jZcc-unsplash.jpg,Stimuli/Experimental_stims/outdoor_scenes/ashim-d-silva-S2Q5mdOrrVc-unsplash.jpg,0,NaN,NaN,NaN,chosen,NaN,NaN,NaN,NaN,1000,0,8,4
130,17399,0,131,2,2,0,no_gain4,gain1,A,H,1,12,outdoor_scenes,faces,50,50,Stimuli/Experimental_stims/outdoor_scenes/ashim-d-silva-S2Q5mdOrrVc-unsplash.jpg,Stimuli/Experimental_stims/faces/aiony-haust-jmATI5Q_YgY-unsplash.jpg,0,NaN,NaN,NaN,chosen,NaN,NaN,NaN,NaN,2900,0,8,4
131,17399,0,132,2,2,0,no_gain2,gain6,C,G,2,46,outdoor_scenes,objects,50,50,Stimuli/Experimental_stims/outdoor_scenes/bruno-van-der-kraan-qez8mNJ3ilU-unsplash.jpg,Stimuli/Experimental_stims/objects/mockup-graphics-PNsj6RiHAF4-unsplash.jpg,0,NaN,NaN,NaN,chosen,NaN,NaN,NaN,NaN,2200,0,8,4
132,17399,0,133,2,2,0,no_gain3,gain2,E,D,24,21,body_parts,faces,50,50,Stimuli/Experimental_stims/body_parts/clay-banks-LjqARJaJotc-unsplash.jpg,Stimuli/Experimental_stims/faces/leilani-angel-K84vnnzxmTQ-unsplash.jpg,0,NaN,NaN,NaN,unchosen,NaN,NaN,NaN,NaN,3200,1,8,4
133,17399,0,134,2,2,1,gain1,no_gain3,H,E,4,24,outdoor_scenes,body_parts,50,50,Stimuli/Experimental_stims/outdoor_scenes/jarrett-kow-1ZOyYPOBn7I-unsplash.jpg,Stimuli/Experimental_stims/body_parts/clay-banks-LjqARJaJotc-unsplash.jpg,0,NaN,NaN,NaN,unchosen,NaN,NaN,NaN,NaN,2600,0,8,4
134,17399,0,135,2,2,0,no_gain6,gain6,K,G,43,10,objects,outdoor_scenes,50,50,Stimuli/Experimental_stims/objects/jonathan-greenaway-Y4hGgeiFn3s-unsplash.jpg,Stimuli/Experimental_stims/outdoor_scenes/shannon-kunkle-dM8INmkyDas-unsplash.jpg,0,NaN,NaN,NaN,unchosen,NaN,NaN,NaN,NaN,1200,0,8,4
135,17399,0,136,2,2,0,no_gain4,gain3,A,I,1,28,outdoor_scenes,body_parts,50,50,Stimuli/Experimental_stims/outdoor_scenes/ashim-d-silva-S2Q5mdOrrVc-unsplash.jpg,Stimuli/Experimental_stims/body_parts/ira-vishnevskaya-8DQAvdCby1I-unsplash.jpg,0,NaN,NaN,NaN,chosen,NaN,NaN,NaN,NaN,1100,0,8,4
136,17399,0,137,2,2,1,gain5,no_gain6,B,K,22,43,faces,objects,50,50,Stimuli/Experimental_stims/faces/ravi-patel-VMGAbeeJTKo-unsplash.jpg,Stimuli/Experimental_stims/objects/jonathan-greenaway-Y4hGgeiFn3s-unsplash.jpg,0,NaN,NaN,NaN,unchosen,NaN,NaN,NaN,NaN,2000,0,8,4
137,17399,0,138,2,2,0,no_gain6,gain2,K,D,26,42,body_parts,objects,50,50,Stimuli/Experimental_stims/body_parts/engin-akyurt-x_3gyC42btc-unsplash.jpg,Stimuli/Experimental_stims/objects/jess-bailey-nOeVi8DsN8U-unsplash.jpg,0,NaN,NaN,NaN,chosen,NaN,NaN,NaN,NaN,4100,1,8,4
138,17399,0,139,2,2,0,no_gain2,gain4,C,L,27,23,body_parts,faces,50,50,Stimuli/Experimental_stims/body_parts/heike-mintel-i_Gns0ELnLw-unsplash.jpg,Stimuli/Experimental_stims/faces/rikonavt-HQjfrvdTfak-unsplash.jpg,0,NaN,NaN,NaN,unchosen,NaN,NaN,NaN,NaN,1700,0,8,4
139,17399,0,140,2,2,0,no_gain2,gain2,C,D,27,21,body_parts,faces,50,50,Stimuli/Experimental_stims/body_parts/heike-mintel-i_Gns0ELnLw-unsplash.jpg,Stimuli/Experimental_stims/faces/leilani-angel-K84vnnzxmTQ-unsplash.jpg,0,NaN,NaN,NaN,unchosen,NaN,NaN,NaN,NaN,1200,0,8,4
140,17399,0,141,2,2,1,gain6,no_gain3,G,E,46,41,objects,objects,50,50,Stimuli/Experimental_stims/objects/mockup-graphics-PNsj6RiHAF4-unsplash.jpg,Stimuli/Experimental_stims/objects/insung-yoon-w2JtIQQXoRU-unsplash.jpg,0,NaN,NaN,NaN,chosen,NaN,NaN,NaN,NaN,1000,0,8,4
141,17399,0,142,2,2,0,no_gain5,gain5,J,B,15,8,faces,outdoor_scenes,50,50,Stimuli/Experimental_stims/faces/erik-lucatero-d2MSDujJl2g-unsplash.jpg,Stimuli/Experimental_stims/outdoor_scenes/samsommer-vddccTqwal8-unsplash.jpg,0,NaN,NaN,NaN,chosen,NaN,NaN,NaN,NaN,1800,0,8,4
142,17399,0,143,2,2,0,no_gain5,gain6,J,G,15,46,faces,objects,50,50,Stimuli/Experimental_stims/faces/erik-lucatero-d2MSDujJl2g-unsplash.jpg,Stimuli/Experimental_stims/objects/mockup-graphics-PNsj6RiHAF4-unsplash.jpg,0,NaN,NaN,NaN,chosen,NaN,NaN,NaN,NaN,3500,1,8,4
143,17399,0,144,2,2,1,gain6,no_gain4,G,A,10,37,outdoor_scenes,objects,50,50,Stimuli/Experimental_stims/outdoor_scenes/shannon-kunkle-dM8INmkyDas-unsplash.jpg,Stimuli/Experimental_stims/objects/alexander-andrews-VLGWE_SumrA-unsplash.jpg,0,NaN,NaN,NaN,unchosen,NaN,NaN,NaN,NaN,2700,0,8,4
144,17399,0,145,2,2,1,gain6,no_gain6,G,K,46,26,objects,body_parts,50,50,Stimuli/Experimental_stims/objects/mockup-graphics-PNsj6RiHAF4-unsplash.jpg,Stimuli/Experimental_stims/body_parts/engin-akyurt-x_3gyC42btc-unsplash.jpg,0,NaN,NaN,NaN,chosen,NaN,NaN,NaN,NaN,2400,0,8,4
145,17399,0,146,2,2,1,gain3,no_gain5,I,J,5,36,outdoor_scenes,objects,50,50,Stimuli/Experimental_stims/outdoor_scenes/jeff-king-bJHWJeiHfHc-unsplash.jpg,Stimuli/Experimental_stims/objects/alexander-andrews-JYGnB9gTCls-unsplash.jpg,0,NaN,NaN,NaN,unchosen,NaN,NaN,NaN,NaN,1400,0,8,4
146,17399,0,147,2,2,1,gain5,no_gain4,B,A,8,1,outdoor_scenes,outdoor_scenes,50,50,Stimuli/Experimental_stims/outdoor_scenes/samsommer-vddccTqwal8-unsplash.jpg,Stimuli/Experimental_stims/outdoor_scenes/ashim-d-silva-S2Q5mdOrrVc-unsplash.jpg,0,NaN,NaN,NaN,chosen,NaN,NaN,NaN,NaN,1200,0,8,4
147,17399,0,148,2,2,0,no_gain5,gain3,J,I,15,28,faces,body_parts,50,50,Stimuli/Experimental_stims/faces/erik-lucatero-d2MSDujJl2g-unsplash.jpg,Stimuli/Experimental_stims/body_parts/ira-vishnevskaya-8DQAvdCby1I-unsplash.jpg,0,NaN,NaN,NaN,chosen,NaN,NaN,NaN,NaN,3300,1,8,4
148,17399,0,149,3,3,1,gain5,no_gain3,B,E,8,41,outdoor_scenes,objects,50,50,Stimuli/Experimental_stims/outdoor_scenes/samsommer-vddccTqwal8-unsplash.jpg,Stimuli/Experimental_stims/objects/insung-yoon-w2JtIQQXoRU-unsplash.jpg,0,NaN,NaN,NaN,chosen,NaN,NaN,NaN,NaN,3900,1,7,4
149,17399,0,150,3,3,0,no_gain3,gain4,E,L,41,33,objects,body_parts,50,50,Stimuli/Experimental_stims/objects/insung-yoon-w2JtIQQXoRU-unsplash.jpg,Stimuli/Experimental_stims/body_parts/tucker-good-36skLT5jZcc-unsplash.jpg,0,NaN,NaN,NaN,chosen,NaN,NaN,NaN,NaN,1200,0,7,4
150,17399,0,151,3,3,1,gain6,no_gain3,G,E,46,41,objects,objects,50,50,Stimuli/Experimental_stims/objects/mockup-graphics-PNsj6RiHAF4-unsplash.jpg,Stimuli/Experimental_stims/objects/insung-yoon-w2JtIQQXoRU-unsplash.jpg,0,NaN,NaN,NaN,chosen,NaN,NaN,NaN,NaN,1500,0,7,4
151,17399,0,152,3,3,1,gain4,no_gain4,L,A,23,37,faces,objects,50,50,Stimuli/Experimental_stims/faces/rikonavt-HQjfrvdTfak-unsplash.jpg,Stimuli/Experimental_stims/objects/alexander-andrews-VLGWE_SumrA-unsplash.jpg,0,NaN,NaN,NaN,unchosen,NaN,NaN,NaN,NaN,2700,0,7,4
152,17399,0,153,3,3,1,gain5,no_gain5,B,J,22,36,faces,objects,50,50,Stimuli/Experimental_stims/faces/ravi-patel-VMGAbeeJTKo-unsplash.jpg,Stimuli/Experimental_stims/objects/alexander-andrews-JYGnB9gTCls-unsplash.jpg,0,NaN,NaN,NaN,unchosen,NaN,NaN,NaN,NaN,1300,0,7,4
153,17399,0,154,3,3,0,no_gain6,gain1,K,H,26,12,body_parts,faces,50,50,Stimuli/Experimental_stims/body_parts/engin-akyurt-x_3gyC42btc-unsplash.jpg,Stimuli/Experimental_stims/faces/aiony-haust-jmATI5Q_YgY-unsplash.jpg,0,NaN,NaN,NaN,chosen,NaN,NaN,NaN,NaN,1000,0,7,4
154,17399,0,155,3,3,1,gain1,no_gain3,H,E,12,41,faces,objects,50,50,Stimuli/Experimental_stims/faces/aiony-haust-jmATI5Q_YgY-unsplash.jpg,Stimuli/Experimental_stims/objects/insung-yoon-w2JtIQQXoRU-unsplash.jpg,0,NaN,NaN,NaN,chosen,NaN,NaN,NaN,NaN,3000,1,7,4
155,17399,0,156,3,3,0,no_gain2,gain3,C,I,27,5,body_parts,outdoor_scenes,50,50,Stimuli/Experimental_stims/body_parts/heike-mintel-i_Gns0ELnLw-unsplash.jpg,Stimuli/Experimental_stims/outdoor_scenes/jeff-king-bJHWJeiHfHc-unsplash.jpg,0,NaN,NaN,NaN,unchosen,NaN,NaN,NaN,NaN,2800,0,7,4
156,17399,0,157,3,3,1,gain3,no_gain5,I,J,28,15,body_parts,faces,50,50,Stimuli/Experimental_stims/body_parts/ira-vishnevskaya-8DQAvdCby1I-unsplash.jpg,Stimuli/Experimental_stims/faces/erik-lucatero-d2MSDujJl2g-unsplash.jpg,0,NaN,NaN,NaN,chosen,NaN,NaN,NaN,NaN,1400,0,7,4
157,17399,0,158,3,3,1,gain1,no_gain1,H,F,12,14,faces,faces,50,50,Stimuli/Experimental_stims/faces/aiony-haust-jmATI5Q_YgY-unsplash.jpg,Stimuli/Experimental_stims/faces/david-siglin-UuW4psOb388-unsplash.jpg,0,NaN,NaN,NaN,chosen,NaN,NaN,NaN,NaN,2500,0,7,4
158,17399,0,159,3,3,0,no_gain3,gain2,E,D,24,21,body_parts,faces,50,50,Stimuli/Experimental_stims/body_parts/clay-banks-LjqARJaJotc-unsplash.jpg,Stimuli/Experimental_stims/faces/leilani-angel-K84vnnzxmTQ-unsplash.jpg,0,NaN,NaN,NaN,unchosen,NaN,NaN,NaN,NaN,1600,0,7,4
159,17399,0,160,3,3,1,gain2,no_gain4,D,A,21,37,faces,objects,50,50,Stimuli/Experimental_stims/faces/leilani-angel-K84vnnzxmTQ-unsplash.jpg,Stimuli/Experimental_stims/objects/alexander-andrews-VLGWE_SumrA-unsplash.jpg,0,NaN,NaN,NaN,unchosen,NaN,NaN,NaN,NaN,3600,1,7,4
160,17399,0,161,3,3,0,no_gain4,gain5,A,B,37,22,objects,faces,50,50,Stimuli/Experimental_stims/objects/alexander-andrews-VLGWE_SumrA-unsplash.jpg,Stimuli/Experimental_stims/faces/ravi-patel-VMGAbeeJTKo-unsplash.jpg,0,NaN,NaN,NaN,unchosen,NaN,NaN,NaN,NaN,1200,0,7,4
161,17399,0,162,3,3,0,no_gain5,gain4,J,L,15,33,faces,body_parts,50,50,Stimuli/Experimental_stims/faces/erik-lucatero-d2MSDujJl2g-unsplash.jpg,Stimuli/Experimental_stims/body_parts/tucker-good-36skLT5jZcc-unsplash.jpg,0,NaN,NaN,NaN,chosen,NaN,NaN,NaN,NaN,1800,0,7,4
162,17399,0,163,3,3,1,gain2,no_gain5,D,J,42,15,objects,faces,50,50,Stimuli/Experimental_stims/objects/jess-bailey-nOeVi8DsN8U-unsplash.jpg,Stimuli/Experimental_stims/faces/erik-lucatero-d2MSDujJl2g-unsplash.jpg,0,NaN,NaN,NaN,chosen,NaN,NaN,NaN,NaN,2800,0,7,4
163,17399,0,164,3,3,1,gain5,no_gain6,B,K,22,43,faces,objects,50,50,Stimuli/Experimental_stims/faces/ravi-patel-VMGAbeeJTKo-unsplash.jpg,Stimuli/Experimental_stims/objects/jonathan-greenaway-Y4hGgeiFn3s-unsplash.jpg,0,NaN,NaN,NaN,unchosen,NaN,NaN,NaN,NaN,2100,0,7,4
164,17399,0,165,3,3,0,no_gain4,gain3,A,I,1,28,outdoor_scenes,body_parts,50,50,Stimuli/Experimental_stims/outdoor_scenes/ashim-d-silva-S2Q5mdOrrVc-unsplash.jpg,Stimuli/Experimental_stims/body_parts/ira-vishnevskaya-8DQAvdCby1I-unsplash.jpg,0,NaN,NaN,NaN,chosen,NaN,NaN,NaN,NaN,1500,0,7,4
165,17399,0,166,3,3,0,no_gain1,gain5,F,B,14,8,faces,outdoor_scenes,50,50,Stimuli/Experimental_stims/faces/david-siglin-UuW4psOb388-unsplash.jpg,Stimuli/Experimental_stims/outdoor_scenes/samsommer-vddccTqwal8-unsplash.jpg,0,NaN,NaN,NaN,chosen,NaN,NaN,NaN,NaN,2100,0,7,4
166,17399,0,167,3,3,0,no_gain3,gain2,E,D,41,42,objects,objects,50,50,Stimuli/Experimental_stims/objects/insung-yoon-w2JtIQQXoRU-unsplash.jpg,Stimuli/Experimental_stims/objects/jess-bailey-nOeVi8DsN8U-unsplash.jpg,0,NaN,NaN,NaN,chosen,NaN,NaN,NaN,NaN,3600,1,7,4
167,17399,0,168,3,3,1,gain6,no_gain4,G,A,10,37,outdoor_scenes,objects,50,50,Stimuli/Experimental_stims/outdoor_scenes/shannon-kunkle-dM8INmkyDas-unsplash.jpg,Stimuli/Experimental_stims/objects/alexander-andrews-VLGWE_SumrA-unsplash.jpg,0,NaN,NaN,NaN,unchosen,NaN,NaN,NaN,NaN,1300,0,7,4
168,17399,0,169,3,3,0,no_gain4,gain2,A,D,1,42,outdoor_scenes,objects,50,50,Stimuli/Experimental_stims/outdoor_scenes/ashim-d-silva-S2Q5mdOrrVc-unsplash.jpg,Stimuli/Experimental_stims/objects/jess-bailey-nOeVi8DsN8U-unsplash.jpg,0,NaN,NaN,NaN,chosen,NaN,NaN,NaN,NaN,2700,0,7,4
169,17399,0,170,3,3,1,gain1,no_gain4,H,A,4,37,outdoor_scenes,objects,50,50,Stimuli/Experimental_stims/outdoor_scenes/jarrett-kow-1ZOyYPOBn7I-unsplash.jpg,Stimuli/Experimental_stims/objects/alexander-andrews-VLGWE_SumrA-unsplash.jpg,0,NaN,NaN,NaN,unchosen,NaN,NaN,NaN,NaN,1400,0,7,4
170,17399,0,171,3,3,0,no_gain2,gain4,C,L,27,23,body_parts,faces,50,50,Stimuli/Experimental_stims/body_parts/heike-mintel-i_Gns0ELnLw-unsplash.jpg,Stimuli/Experimental_stims/faces/rikonavt-HQjfrvdTfak-unsplash.jpg,0,NaN,NaN,NaN,unchosen,NaN,NaN,NaN,NaN,2300,0,7,4
171,17399,0,172,3,3,0,no_gain1,gain1,F,H,35,4,body_parts,outdoor_scenes,50,50,Stimuli/Experimental_stims/body_parts/wc-so-KH4AAPjb-tI-unsplash.jpg,Stimuli/Experimental_stims/outdoor_scenes/jarrett-kow-1ZOyYPOBn7I-unsplash.jpg,0,NaN,NaN,NaN,unchosen,NaN,NaN,NaN,NaN,3400,1,7,4
172,17399,0,173,3,3,1,gain4,no_gain2,L,C,33,2,body_parts,outdoor_scenes,50,50,Stimuli/Experimental_stims/body_parts/tucker-good-36skLT5jZcc-unsplash.jpg,Stimuli/Experimental_stims/outdoor_scenes/bruno-van-der-kraan-qez8mNJ3ilU-unsplash.jpg,0,NaN,NaN,NaN,chosen,NaN,NaN,NaN,NaN,1200,0,7,4
173,17399,0,174,3,3,0,no_gain6,gain6,K,G,43,10,objects,outdoor_scenes,50,50,Stimuli/Experimental_stims/objects/jonathan-greenaway-Y4hGgeiFn3s-unsplash.jpg,Stimuli/Experimental_stims/outdoor_scenes/shannon-kunkle-dM8INmkyDas-unsplash.jpg,0,NaN,NaN,NaN,unchosen,NaN,NaN,NaN,NaN,2500,0,7,4
174,17399,0,175,3,3,1,gain3,no_gain3,I,E,28,41,body_parts,objects,50,50,Stimuli/Experimental_stims/body_parts/ira-vishnevskaya-8DQAvdCby1I-unsplash.jpg,Stimuli/Experimental_stims/objects/insung-yoon-w2JtIQQXoRU-unsplash.jpg,0,NaN,NaN,NaN,chosen,NaN,NaN,NaN,NaN,2600,0,7,4
175,17399,0,176,3,3,0,no_gain2,gain6,C,G,27,10,body_parts,outdoor_scenes,50,50,Stimuli/Experimental_stims/body_parts/heike-mintel-i_Gns0ELnLw-unsplash.jpg,Stimuli/Experimental_stims/outdoor_scenes/shannon-kunkle-dM8INmkyDas-unsplash.jpg,0,NaN,NaN,NaN,unchosen,NaN,NaN,NaN,NaN,2100,0,7,4
176,17399,0,177,3,3,1,gain1,no_gain5,H,J,12,15,faces,faces,50,50,Stimuli/Experimental_stims/faces/aiony-haust-jmATI5Q_YgY-unsplash.jpg,Stimuli/Experimental_stims/faces/erik-lucatero-d2MSDujJl2g-unsplash.jpg,0,NaN,NaN,NaN,chosen,NaN,NaN,NaN,NaN,3300,1,7,4
177,17399,0,178,3,3,0,no_gain1,gain5,F,B,35,22,body_parts,faces,50,50,Stimuli/Experimental_stims/body_parts/wc-so-KH4AAPjb-tI-unsplash.jpg,Stimuli/Experimental_stims/faces/ravi-patel-VMGAbeeJTKo-unsplash.jpg,0,NaN,NaN,NaN,unchosen,NaN,NaN,NaN,NaN,1200,0,7,4
178,17399,0,179,3,3,1,gain2,no_gain6,D,K,42,26,objects,body_parts,50,50,Stimuli/Experimental_stims/objects/jess-bailey-nOeVi8DsN8U-unsplash.jpg,Stimuli/Experimental_stims/body_parts/engin-akyurt-x_3gyC42btc-unsplash.jpg,0,NaN,NaN,NaN,chosen,NaN,NaN,NaN,NaN,1500,0,7,4
179,17399,0,180,3,3,1,gain3,no_gain6,I,K,5,43,outdoor_scenes,objects,50,50,Stimuli/Experimental_stims/outdoor_scenes/jeff-king-bJHWJeiHfHc-unsplash.jpg,Stimuli/Experimental_stims/objects/jonathan-greenaway-Y4hGgeiFn3s-unsplash.jpg,0,NaN,NaN,NaN,unchosen,NaN,NaN,NaN,NaN,1700,0,7,4
180,17399,0,181,3,3,0,no_gain5,gain1,J,H,36,4,objects,outdoor_scenes,50,50,Stimuli/Experimental_stims/objects/alexander-andrews-JYGnB9gTCls-unsplash.jpg,Stimuli/Experimental_stims/outdoor_scenes/jarrett-kow-1ZOyYPOBn7I-unsplash.jpg,0,NaN,NaN,NaN,unchosen,NaN,NaN,NaN,NaN,1500,0,7,4
181,17399,0,182,3,3,1,gain2,no_gain6,D,K,21,43,faces,objects,50,50,Stimuli/Experimental_stims/faces/leilani-angel-K84vnnzxmTQ-unsplash.jpg,Stimuli/Experimental_stims/objects/jonathan-greenaway-Y4hGgeiFn3s-unsplash.jpg,0,NaN,NaN,NaN,unchosen,NaN,NaN,NaN,NaN,1300,0,7,4
182,17399,0,183,3,3,1,gain1,no_gain4,H,A,12,1,faces,outdoor_scenes,50,50,Stimuli/Experimental_stims/faces/aiony-haust-jmATI5Q_YgY-unsplash.jpg,Stimuli/Experimental_stims/outdoor_scenes/ashim-d-silva-S2Q5mdOrrVc-unsplash.jpg,0,NaN,NaN,NaN,chosen,NaN,NaN,NaN,NaN,2000,0,7,4
183,17399,0,184,3,3,0,no_gain1,gain6,F,G,35,10,body_parts,outdoor_scenes,50,50,Stimuli/Experimental_stims/body_parts/wc-so-KH4AAPjb-tI-unsplash.jpg,Stimuli/Experimental_stims/outdoor_scenes/shannon-kunkle-dM8INmkyDas-unsplash.jpg,0,NaN,NaN,NaN,unchosen,NaN,NaN,NaN,NaN,1500,0,7,4
184,17399,0,185,3,3,1,gain5,no_gain5,B,J,8,15,outdoor_scenes,faces,50,50,Stimuli/Experimental_stims/outdoor_scenes/samsommer-vddccTqwal8-unsplash.jpg,Stimuli/Experimental_stims/faces/erik-lucatero-d2MSDujJl2g-unsplash.jpg,0,NaN,NaN,NaN,chosen,NaN,NaN,NaN,NaN,2200,0,7,4
185,17399,0,186,3,3,1,gain6,no_gain1,G,F,46,14,objects,faces,50,50,Stimuli/Experimental_stims/objects/mockup-graphics-PNsj6RiHAF4-unsplash.jpg,Stimuli/Experimental_stims/faces/david-siglin-UuW4psOb388-unsplash.jpg,0,NaN,NaN,NaN,chosen,NaN,NaN,NaN,NaN,1300,0,7,4
186,17399,0,187,3,3,0,no_gain6,gain4,K,L,26,33,body_parts,body_parts,50,50,Stimuli/Experimental_stims/body_parts/engin-akyurt-x_3gyC42btc-unsplash.jpg,Stimuli/Experimental_stims/body_parts/tucker-good-36skLT5jZcc-unsplash.jpg,0,NaN,NaN,NaN,chosen,NaN,NaN,NaN,NaN,1000,0,7,4
187,17399,0,188,3,3,1,gain1,no_gain2,H,C,4,27,outdoor_scenes,body_parts,50,50,Stimuli/Experimental_stims/outdoor_scenes/jarrett-kow-1ZOyYPOBn7I-unsplash.jpg,Stimuli/Experimental_stims/body_parts/heike-mintel-i_Gns0ELnLw-unsplash.jpg,0,NaN,NaN,NaN,unchosen,NaN,NaN,NaN,NaN,3000,1,7,4
188,17399,0,189,3,3,0,no_gain2,gain5,C,B,27,22,body_parts,faces,50,50,Stimuli/Experimental_stims/body_parts/heike-mintel-i_Gns0ELnLw-unsplash.jpg,Stimuli/Experimental_stims/faces/ravi-patel-VMGAbeeJTKo-unsplash.jpg,0,NaN,NaN,NaN,unchosen,NaN,NaN,NaN,NaN,1300,0,7,4
189,17399,0,190,3,3,1,gain1,no_gain3,H,E,4,24,outdoor_scenes,body_parts,50,50,Stimuli/Experimental_stims/outdoor_scenes/jarrett-kow-1ZOyYPOBn7I-unsplash.jpg,Stimuli/Experimental_stims/body_parts/clay-banks-LjqARJaJotc-unsplash.jpg,0,NaN,NaN,NaN,unchosen,NaN,NaN,NaN,NaN,2200,0,7,4
190,17399,0,191,3,3,0,no_gain1,gain2,F,D,14,42,faces,objects,50,50,Stimuli/Experimental_stims/faces/david-siglin-UuW4psOb388-unsplash.jpg,Stimuli/Experimental_stims/objects/jess-bailey-nOeVi8DsN8U-unsplash.jpg,0,NaN,NaN,NaN,chosen,NaN,NaN,NaN,NaN,1100,0,7,4
191,17399,0,192,3,3,0,no_gain3,gain5,E,B,24,22,body_parts,faces,50,50,Stimuli/Experimental_stims/body_parts/clay-banks-LjqARJaJotc-unsplash.jpg,Stimuli/Experimental_stims/faces/ravi-patel-VMGAbeeJTKo-unsplash.jpg,0,NaN,NaN,NaN,unchosen,NaN,NaN,NaN,NaN,2100,0,7,4
192,17399,0,193,3,3,0,no_gain2,gain6,C,G,2,46,outdoor_scenes,objects,50,50,Stimuli/Experimental_stims/outdoor_scenes/bruno-van-der-kraan-qez8mNJ3ilU-unsplash.jpg,Stimuli/Experimental_stims/objects/mockup-graphics-PNsj6RiHAF4-unsplash.jpg,0,NaN,NaN,NaN,chosen,NaN,NaN,NaN,NaN,2300,0,7,4
193,17399,0,194,3,3,0,no_gain4,gain5,A,B,1,8,outdoor_scenes,outdoor_scenes,50,50,Stimuli/Experimental_stims/outdoor_scenes/ashim-d-silva-S2Q5mdOrrVc-unsplash.jpg,Stimuli/Experimental_stims/outdoor_scenes/samsommer-vddccTqwal8-unsplash.jpg,0,NaN,NaN,NaN,chosen,NaN,NaN,NaN,NaN,3900,1,7,4
194,17399,0,195,3,3,0,no_gain4,gain6,A,G,1,46,outdoor_scenes,objects,50,50,Stimuli/Experimental_stims/outdoor_scenes/ashim-d-silva-S2Q5mdOrrVc-unsplash.jpg,Stimuli/Experimental_stims/objects/mockup-graphics-PNsj6RiHAF4-unsplash.jpg,0,NaN,NaN,NaN,chosen,NaN,NaN,NaN,NaN,1700,0,7,4
195,17399,0,196,3,3,1,gain4,no_gain3,L,E,23,24,faces,body_parts,50,50,Stimuli/Experimental_stims/faces/rikonavt-HQjfrvdTfak-unsplash.jpg,Stimuli/Experimental_stims/body_parts/clay-banks-LjqARJaJotc-unsplash.jpg,0,NaN,NaN,NaN,unchosen,NaN,NaN,NaN,NaN,1200,0,7,4
196,17399,0,197,3,3,0,no_gain1,gain4,F,L,35,23,body_parts,faces,50,50,Stimuli/Experimental_stims/body_parts/wc-so-KH4AAPjb-tI-unsplash.jpg,Stimuli/Experimental_stims/faces/rikonavt-HQjfrvdTfak-unsplash.jpg,0,NaN,NaN,NaN,unchosen,NaN,NaN,NaN,NaN,1200,0,7,4
197,17399,0,198,3,3,1,gain2,no_gain2,D,C,21,27,faces,body_parts,50,50,Stimuli/Experimental_stims/faces/leilani-angel-K84vnnzxmTQ-unsplash.jpg,Stimuli/Experimental_stims/body_parts/heike-mintel-i_Gns0ELnLw-unsplash.jpg,0,NaN,NaN,NaN,unchosen,NaN,NaN,NaN,NaN,1900,0,7,4
198,17399,0,199,3,3,0,no_gain6,gain3,K,I,26,28,body_parts,body_parts,50,50,Stimuli/Experimental_stims/body_parts/engin-akyurt-x_3gyC42btc-unsplash.jpg,Stimuli/Experimental_stims/body_parts/ira-vishnevskaya-8DQAvdCby1I-unsplash.jpg,0,NaN,NaN,NaN,chosen,NaN,NaN,NaN,NaN,1000,0,7,4
199,17399,0,200,3,3,0,no_gain4,gain4,A,L,1,33,outdoor_scenes,body_parts,50,50,Stimuli/Experimental_stims/outdoor_scenes/ashim-d-silva-S2Q5mdOrrVc-unsplash.jpg,Stimuli/Experimental_stims/body_parts/tucker-good-36skLT5jZcc-unsplash.jpg,0,NaN,NaN,NaN,chosen,NaN,NaN,NaN,NaN,3900,1,7,4
200,17399,0,201,3,3,0,no_gain6,gain5,K,B,26,8,body_parts,outdoor_scenes,50,50,Stimuli/Experimental_stims/body_parts/engin-akyurt-x_3gyC42btc-unsplash.jpg,Stimuli/Experimental_stims/outdoor_scenes/samsommer-vddccTqwal8-unsplash.jpg,0,NaN,NaN,NaN,chosen,NaN,NaN,NaN,NaN,2100,0,7,4
201,17399,0,202,3,3,1,gain6,no_gain5,G,J,10,36,outdoor_scenes,objects,50,50,Stimuli/Experimental_stims/outdoor_scenes/shannon-kunkle-dM8INmkyDas-unsplash.jpg,Stimuli/Experimental_stims/objects/alexander-andrews-JYGnB9gTCls-unsplash.jpg,0,NaN,NaN,NaN,unchosen,NaN,NaN,NaN,NaN,1300,0,7,4
202,17399,0,203,3,3,0,no_gain2,gain5,C,B,2,8,outdoor_scenes,outdoor_scenes,50,50,Stimuli/Experimental_stims/outdoor_scenes/bruno-van-der-kraan-qez8mNJ3ilU-unsplash.jpg,Stimuli/Experimental_stims/outdoor_scenes/samsommer-vddccTqwal8-unsplash.jpg,0,NaN,NaN,NaN,chosen,NaN,NaN,NaN,NaN,1800,0,7,4
203,17399,0,204,3,3,1,gain4,no_gain1,L,F,33,14,body_parts,faces,50,50,Stimuli/Experimental_stims/body_parts/tucker-good-36skLT5jZcc-unsplash.jpg,Stimuli/Experimental_stims/faces/david-siglin-UuW4psOb388-unsplash.jpg,0,NaN,NaN,NaN,chosen,NaN,NaN,NaN,NaN,1900,0,7,4
204,17399,0,205,3,3,1,gain6,no_gain3,G,E,10,24,outdoor_scenes,body_parts,50,50,Stimuli/Experimental_stims/outdoor_scenes/shannon-kunkle-dM8INmkyDas-unsplash.jpg,Stimuli/Experimental_stims/body_parts/clay-banks-LjqARJaJotc-unsplash.jpg,0,NaN,NaN,NaN,unchosen,NaN,NaN,NaN,NaN,2600,0,7,4
205,17399,0,206,3,3,1,gain4,no_gain6,L,K,23,43,faces,objects,50,50,Stimuli/Experimental_stims/faces/rikonavt-HQjfrvdTfak-unsplash.jpg,Stimuli/Experimental_stims/objects/jonathan-greenaway-Y4hGgeiFn3s-unsplash.jpg,0,NaN,NaN,NaN,unchosen,NaN,NaN,NaN,NaN,2400,0,7,4
206,17399,0,207,3,3,0,no_gain5,gain4,J,L,36,23,objects,faces,50,50,Stimuli/Experimental_stims/objects/alexander-andrews-JYGnB9gTCls-unsplash.jpg,Stimuli/Experimental_stims/faces/rikonavt-HQjfrvdTfak-unsplash.jpg,0,NaN,NaN,NaN,unchosen,NaN,NaN,NaN,NaN,2500,0,7,4
207,17399,0,208,3,3,0,no_gain5,gain6,J,G,15,46,faces,objects,50,50,Stimuli/Experimental_stims/faces/erik-lucatero-d2MSDujJl2g-unsplash.jpg,Stimuli/Experimental_stims/objects/mockup-graphics-PNsj6RiHAF4-unsplash.jpg,0,NaN,NaN,NaN,chosen,NaN,NaN,NaN,NaN,2900,1,7,4
208,17399,0,209,3,3,0,no_gain4,gain3,A,I,37,5,objects,outdoor_scenes,50,50,Stimuli/Experimental_stims/objects/alexander-andrews-VLGWE_SumrA-unsplash.jpg,Stimuli/Experimental_stims/outdoor_scenes/jeff-king-bJHWJeiHfHc-unsplash.jpg,0,NaN,NaN,NaN,unchosen,NaN,NaN,NaN,NaN,1000,0,7,4
209,17399,0,210,3,3,0,no_gain1,gain3,F,I,14,28,faces,body_parts,50,50,Stimuli/Experimental_stims/faces/david-siglin-UuW4psOb388-unsplash.jpg,Stimuli/Experimental_stims/body_parts/ira-vishnevskaya-8DQAvdCby1I-unsplash.jpg,0,NaN,NaN,NaN,chosen,NaN,NaN,NaN,NaN,1500,0,7,4
210,17399,0,211,3,3,1,gain3,no_gain3,I,E,5,24,outdoor_scenes,body_parts,50,50,Stimuli/Experimental_stims/outdoor_scenes/jeff-king-bJHWJeiHfHc-unsplash.jpg,Stimuli/Experimental_stims/body_parts/clay-banks-LjqARJaJotc-unsplash.jpg,0,NaN,NaN,NaN,unchosen,NaN,NaN,NaN,NaN,2000,0,7,4
211,17399,0,212,3,3,1,gain1,no_gain6,H,K,4,43,outdoor_scenes,objects,50,50,Stimuli/Experimental_stims/outdoor_scenes/jarrett-kow-1ZOyYPOBn7I-unsplash.jpg,Stimuli/Experimental_stims/objects/jonathan-greenaway-Y4hGgeiFn3s-unsplash.jpg,0,NaN,NaN,NaN,unchosen,NaN,NaN,NaN,NaN,1400,0,7,4
212,17399,0,213,3,3,0,no_gain5,gain2,J,D,36,21,objects,faces,50,50,Stimuli/Experimental_stims/objects/alexander-andrews-JYGnB9gTCls-unsplash.jpg,Stimuli/Experimental_stims/faces/leilani-angel-K84vnnzxmTQ-unsplash.jpg,0,NaN,NaN,NaN,unchosen,NaN,NaN,NaN,NaN,1800,0,7,4
213,17399,0,214,3,3,1,gain6,no_gain6,G,K,46,26,objects,body_parts,50,50,Stimuli/Experimental_stims/objects/mockup-graphics-PNsj6RiHAF4-unsplash.jpg,Stimuli/Experimental_stims/body_parts/engin-akyurt-x_3gyC42btc-unsplash.jpg,0,NaN,NaN,NaN,chosen,NaN,NaN,NaN,NaN,2500,0,7,4
214,17399,0,215,3,3,1,gain1,no_gain2,H,C,12,2,faces,outdoor_scenes,50,50,Stimuli/Experimental_stims/faces/aiony-haust-jmATI5Q_YgY-unsplash.jpg,Stimuli/Experimental_stims/outdoor_scenes/bruno-van-der-kraan-qez8mNJ3ilU-unsplash.jpg,0,NaN,NaN,NaN,chosen,NaN,NaN,NaN,NaN,1600,0,7,4
215,17399,0,216,3,3,0,no_gain1,gain2,F,D,35,21,body_parts,faces,50,50,Stimuli/Experimental_stims/body_parts/wc-so-KH4AAPjb-tI-unsplash.jpg,Stimuli/Experimental_stims/faces/leilani-angel-K84vnnzxmTQ-unsplash.jpg,0,NaN,NaN,NaN,unchosen,NaN,NaN,NaN,NaN,3700,1,7,4
216,17399,0,217,3,3,0,no_gain5,gain3,J,I,36,5,objects,outdoor_scenes,50,50,Stimuli/Experimental_stims/objects/alexander-andrews-JYGnB9gTCls-unsplash.jpg,Stimuli/Experimental_stims/outdoor_scenes/jeff-king-bJHWJeiHfHc-unsplash.jpg,0,NaN,NaN,NaN,unchosen,NaN,NaN,NaN,NaN,1200,0,7,4
217,17399,0,218,3,3,1,gain3,no_gain2,I,C,28,2,body_parts,outdoor_scenes,50,50,Stimuli/Experimental_stims/body_parts/ira-vishnevskaya-8DQAvdCby1I-unsplash.jpg,Stimuli/Experimental_stims/outdoor_scenes/bruno-van-der-kraan-qez8mNJ3ilU-unsplash.jpg,0,NaN,NaN,NaN,chosen,NaN,NaN,NaN,NaN,1200,0,7,4
218,17399,0,219,3,3,1,gain3,no_gain1,I,F,5,35,outdoor_scenes,body_parts,50,50,Stimuli/Experimental_stims/outdoor_scenes/jeff-king-bJHWJeiHfHc-unsplash.jpg,Stimuli/Experimental_stims/body_parts/wc-so-KH4AAPjb-tI-unsplash.jpg,0,NaN,NaN,NaN,unchosen,NaN,NaN,NaN,NaN,1100,0,7,4
219,17399,0,220,3,3,1,gain2,no_gain2,D,C,42,2,objects,outdoor_scenes,50,50,Stimuli/Experimental_stims/objects/jess-bailey-nOeVi8DsN8U-unsplash.jpg,Stimuli/Experimental_stims/outdoor_scenes/bruno-van-der-kraan-qez8mNJ3ilU-unsplash.jpg,0,NaN,NaN,NaN,chosen,NaN,NaN,NaN,NaN,1100,0,7,4
220,17399,0,221,4,4,1,gain4,no_gain1,L,F,23,35,faces,body_parts,50,50,Stimuli/Experimental_stims/faces/rikonavt-HQjfrvdTfak-unsplash.jpg,Stimuli/Experimental_stims/body_parts/wc-so-KH4AAPjb-tI-unsplash.jpg,0,NaN,NaN,NaN,unchosen,NaN,NaN,NaN,NaN,4000,1,8,4
221,17399,0,222,4,4,0,no_gain1,gain5,F,B,14,8,faces,outdoor_scenes,50,50,Stimuli/Experimental_stims/faces/david-siglin-UuW4psOb388-unsplash.jpg,Stimuli/Experimental_stims/outdoor_scenes/samsommer-vddccTqwal8-unsplash.jpg,0,NaN,NaN,NaN,chosen,NaN,NaN,NaN,NaN,1900,0,8,4
222,17399,0,223,4,4,1,gain2,no_gain1,D,F,42,14,objects,faces,50,50,Stimuli/Experimental_stims/objects/jess-bailey-nOeVi8DsN8U-unsplash.jpg,Stimuli/Experimental_stims/faces/david-siglin-UuW4psOb388-unsplash.jpg,0,NaN,NaN,NaN,chosen,NaN,NaN,NaN,NaN,1200,0,8,4
223,17399,0,224,4,4,1,gain4,no_gain6,L,K,23,43,faces,objects,50,50,Stimuli/Experimental_stims/faces/rikonavt-HQjfrvdTfak-unsplash.jpg,Stimuli/Experimental_stims/objects/jonathan-greenaway-Y4hGgeiFn3s-unsplash.jpg,0,NaN,NaN,NaN,unchosen,NaN,NaN,NaN,NaN,1200,0,8,4
224,17399,0,225,4,4,1,gain4,no_gain3,L,E,23,24,faces,body_parts,50,50,Stimuli/Experimental_stims/faces/rikonavt-HQjfrvdTfak-unsplash.jpg,Stimuli/Experimental_stims/body_parts/clay-banks-LjqARJaJotc-unsplash.jpg,0,NaN,NaN,NaN,unchosen,NaN,NaN,NaN,NaN,2900,0,8,4
225,17399,0,226,4,4,1,gain2,no_gain3,D,E,21,24,faces,body_parts,50,50,Stimuli/Experimental_stims/faces/leilani-angel-K84vnnzxmTQ-unsplash.jpg,Stimuli/Experimental_stims/body_parts/clay-banks-LjqARJaJotc-unsplash.jpg,0,NaN,NaN,NaN,unchosen,NaN,NaN,NaN,NaN,1800,0,8,4
226,17399,0,227,4,4,1,gain1,no_gain3,H,E,12,41,faces,objects,50,50,Stimuli/Experimental_stims/faces/aiony-haust-jmATI5Q_YgY-unsplash.jpg,Stimuli/Experimental_stims/objects/insung-yoon-w2JtIQQXoRU-unsplash.jpg,0,NaN,NaN,NaN,chosen,NaN,NaN,NaN,NaN,4700,1,8,4
227,17399,0,228,4,4,0,no_gain2,gain5,C,B,2,8,outdoor_scenes,outdoor_scenes,50,50,Stimuli/Experimental_stims/outdoor_scenes/bruno-van-der-kraan-qez8mNJ3ilU-unsplash.jpg,Stimuli/Experimental_stims/outdoor_scenes/samsommer-vddccTqwal8-unsplash.jpg,0,NaN,NaN,NaN,chosen,NaN,NaN,NaN,NaN,2800,0,8,4
228,17399,0,229,4,4,1,gain5,no_gain1,B,F,22,35,faces,body_parts,50,50,Stimuli/Experimental_stims/faces/ravi-patel-VMGAbeeJTKo-unsplash.jpg,Stimuli/Experimental_stims/body_parts/wc-so-KH4AAPjb-tI-unsplash.jpg,0,NaN,NaN,NaN,unchosen,NaN,NaN,NaN,NaN,1100,0,8,4
229,17399,0,230,4,4,0,no_gain4,gain5,A,B,1,8,outdoor_scenes,outdoor_scenes,50,50,Stimuli/Experimental_stims/outdoor_scenes/ashim-d-silva-S2Q5mdOrrVc-unsplash.jpg,Stimuli/Experimental_stims/outdoor_scenes/samsommer-vddccTqwal8-unsplash.jpg,0,NaN,NaN,NaN,chosen,NaN,NaN,NaN,NaN,2200,0,8,4
230,17399,0,231,4,4,0,no_gain1,gain6,F,G,35,10,body_parts,outdoor_scenes,50,50,Stimuli/Experimental_stims/body_parts/wc-so-KH4AAPjb-tI-unsplash.jpg,Stimuli/Experimental_stims/outdoor_scenes/shannon-kunkle-dM8INmkyDas-unsplash.jpg,0,NaN,NaN,NaN,unchosen,NaN,NaN,NaN,NaN,2000,0,8,4
231,17399,0,232,4,4,1,gain3,no_gain5,I,J,5,36,outdoor_scenes,objects,50,50,Stimuli/Experimental_stims/outdoor_scenes/jeff-king-bJHWJeiHfHc-unsplash.jpg,Stimuli/Experimental_stims/objects/alexander-andrews-JYGnB9gTCls-unsplash.jpg,0,NaN,NaN,NaN,unchosen,NaN,NaN,NaN,NaN,1100,0,8,4
232,17399,0,233,4,4,0,no_gain6,gain1,K,H,43,4,objects,outdoor_scenes,50,50,Stimuli/Experimental_stims/objects/jonathan-greenaway-Y4hGgeiFn3s-unsplash.jpg,Stimuli/Experimental_stims/outdoor_scenes/jarrett-kow-1ZOyYPOBn7I-unsplash.jpg,0,NaN,NaN,NaN,unchosen,NaN,NaN,NaN,NaN,3000,1,8,4
233,17399,0,234,4,4,1,gain3,no_gain5,I,J,28,15,body_parts,faces,50,50,Stimuli/Experimental_stims/body_parts/ira-vishnevskaya-8DQAvdCby1I-unsplash.jpg,Stimuli/Experimental_stims/faces/erik-lucatero-d2MSDujJl2g-unsplash.jpg,0,NaN,NaN,NaN,chosen,NaN,NaN,NaN,NaN,1800,0,8,4
234,17399,0,235,4,4,0,no_gain3,gain1,E,H,24,4,body_parts,outdoor_scenes,50,50,Stimuli/Experimental_stims/body_parts/clay-banks-LjqARJaJotc-unsplash.jpg,Stimuli/Experimental_stims/outdoor_scenes/jarrett-kow-1ZOyYPOBn7I-unsplash.jpg,0,NaN,NaN,NaN,unchosen,NaN,NaN,NaN,NaN,1700,0,8,4
235,17399,0,236,4,4,0,no_gain2,gain5,C,B,27,22,body_parts,faces,50,50,Stimuli/Experimental_stims/body_parts/heike-mintel-i_Gns0ELnLw-unsplash.jpg,Stimuli/Experimental_stims/faces/ravi-patel-VMGAbeeJTKo-unsplash.jpg,0,NaN,NaN,NaN,unchosen,NaN,NaN,NaN,NaN,1500,0,8,4
236,17399,0,237,4,4,0,no_gain2,gain1,C,H,27,4,body_parts,outdoor_scenes,50,50,Stimuli/Experimental_stims/body_parts/heike-mintel-i_Gns0ELnLw-unsplash.jpg,Stimuli/Experimental_stims/outdoor_scenes/jarrett-kow-1ZOyYPOBn7I-unsplash.jpg,0,NaN,NaN,NaN,unchosen,NaN,NaN,NaN,NaN,1400,0,8,4
237,17399,0,238,4,4,1,gain6,no_gain2,G,C,46,2,objects,outdoor_scenes,50,50,Stimuli/Experimental_stims/objects/mockup-graphics-PNsj6RiHAF4-unsplash.jpg,Stimuli/Experimental_stims/outdoor_scenes/bruno-van-der-kraan-qez8mNJ3ilU-unsplash.jpg,0,NaN,NaN,NaN,chosen,NaN,NaN,NaN,NaN,3000,1,8,4
238,17399,0,239,4,4,1,gain4,no_gain2,L,C,23,27,faces,body_parts,50,50,Stimuli/Experimental_stims/faces/rikonavt-HQjfrvdTfak-unsplash.jpg,Stimuli/Experimental_stims/body_parts/heike-mintel-i_Gns0ELnLw-unsplash.jpg,0,NaN,NaN,NaN,unchosen,NaN,NaN,NaN,NaN,1000,0,8,4
239,17399,0,240,4,4,0,no_gain1,gain2,F,D,35,21,body_parts,faces,50,50,Stimuli/Experimental_stims/body_parts/wc-so-KH4AAPjb-tI-unsplash.jpg,Stimuli/Experimental_stims/faces/leilani-angel-K84vnnzxmTQ-unsplash.jpg,0,NaN,NaN,NaN,unchosen,NaN,NaN,NaN,NaN,1100,0,8,4
240,17399,0,241,4,4,0,no_gain4,gain3,A,I,37,5,objects,outdoor_scenes,50,50,Stimuli/Experimental_stims/objects/alexander-andrews-VLGWE_SumrA-unsplash.jpg,Stimuli/Experimental_stims/outdoor_scenes/jeff-king-bJHWJeiHfHc-unsplash.jpg,0,NaN,NaN,NaN,unchosen,NaN,NaN,NaN,NaN,1600,0,8,4
241,17399,0,242,4,4,0,no_gain5,gain4,J,L,15,33,faces,body_parts,50,50,Stimuli/Experimental_stims/faces/erik-lucatero-d2MSDujJl2g-unsplash.jpg,Stimuli/Experimental_stims/body_parts/tucker-good-36skLT5jZcc-unsplash.jpg,0,NaN,NaN,NaN,chosen,NaN,NaN,NaN,NaN,1100,0,8,4
242,17399,0,243,4,4,1,gain6,no_gain6,G,K,10,43,outdoor_scenes,objects,50,50,Stimuli/Experimental_stims/outdoor_scenes/shannon-kunkle-dM8INmkyDas-unsplash.jpg,Stimuli/Experimental_stims/objects/jonathan-greenaway-Y4hGgeiFn3s-unsplash.jpg,0,NaN,NaN,NaN,unchosen,NaN,NaN,NaN,NaN,1100,0,8,4
243,17399,0,244,4,4,1,gain3,no_gain2,I,C,28,2,body_parts,outdoor_scenes,50,50,Stimuli/Experimental_stims/body_parts/ira-vishnevskaya-8DQAvdCby1I-unsplash.jpg,Stimuli/Experimental_stims/outdoor_scenes/bruno-van-der-kraan-qez8mNJ3ilU-unsplash.jpg,0,NaN,NaN,NaN,chosen,NaN,NaN,NaN,NaN,1800,0,8,4
244,17399,0,245,4,4,0,no_gain1,gain1,F,H,14,12,faces,faces,50,50,Stimuli/Experimental_stims/faces/david-siglin-UuW4psOb388-unsplash.jpg,Stimuli/Experimental_stims/faces/aiony-haust-jmATI5Q_YgY-unsplash.jpg,0,NaN,NaN,NaN,chosen,NaN,NaN,NaN,NaN,1400,0,8,4
245,17399,0,246,4,4,0,no_gain4,gain5,A,B,37,22,objects,faces,50,50,Stimuli/Experimental_stims/objects/alexander-andrews-VLGWE_SumrA-unsplash.jpg,Stimuli/Experimental_stims/faces/ravi-patel-VMGAbeeJTKo-unsplash.jpg,0,NaN,NaN,NaN,unchosen,NaN,NaN,NaN,NaN,1600,0,8,4
246,17399,0,247,4,4,1,gain2,no_gain2,D,C,42,2,objects,outdoor_scenes,50,50,Stimuli/Experimental_stims/objects/jess-bailey-nOeVi8DsN8U-unsplash.jpg,Stimuli/Experimental_stims/outdoor_scenes/bruno-van-der-kraan-qez8mNJ3ilU-unsplash.jpg,0,NaN,NaN,NaN,chosen,NaN,NaN,NaN,NaN,2000,0,8,4
247,17399,0,248,4,4,0,no_gain1,gain3,F,I,35,5,body_parts,outdoor_scenes,50,50,Stimuli/Experimental_stims/body_parts/wc-so-KH4AAPjb-tI-unsplash.jpg,Stimuli/Experimental_stims/outdoor_scenes/jeff-king-bJHWJeiHfHc-unsplash.jpg,0,NaN,NaN,NaN,unchosen,NaN,NaN,NaN,NaN,2200,0,8,4
248,17399,0,249,4,4,0,no_gain4,gain2,A,D,1,42,outdoor_scenes,objects,50,50,Stimuli/Experimental_stims/outdoor_scenes/ashim-d-silva-S2Q5mdOrrVc-unsplash.jpg,Stimuli/Experimental_stims/objects/jess-bailey-nOeVi8DsN8U-unsplash.jpg,0,NaN,NaN,NaN,chosen,NaN,NaN,NaN,NaN,2100,0,8,4
249,17399,0,250,4,4,0,no_gain3,gain2,E,D,41,42,objects,objects,50,50,Stimuli/Experimental_stims/objects/insung-yoon-w2JtIQQXoRU-unsplash.jpg,Stimuli/Experimental_stims/objects/jess-bailey-nOeVi8DsN8U-unsplash.jpg,0,NaN,NaN,NaN,chosen,NaN,NaN,NaN,NaN,2900,0,8,4
250,17399,0,251,4,4,0,no_gain6,gain5,K,B,43,22,objects,faces,50,50,Stimuli/Experimental_stims/objects/jonathan-greenaway-Y4hGgeiFn3s-unsplash.jpg,Stimuli/Experimental_stims/faces/ravi-patel-VMGAbeeJTKo-unsplash.jpg,0,NaN,NaN,NaN,unchosen,NaN,NaN,NaN,NaN,1600,0,8,4
251,17399,0,252,4,4,1,gain3,no_gain4,I,A,28,1,body_parts,outdoor_scenes,50,50,Stimuli/Experimental_stims/body_parts/ira-vishnevskaya-8DQAvdCby1I-unsplash.jpg,Stimuli/Experimental_stims/outdoor_scenes/ashim-d-silva-S2Q5mdOrrVc-unsplash.jpg,0,NaN,NaN,NaN,chosen,NaN,NaN,NaN,NaN,1600,0,8,4
252,17399,0,253,4,4,0,no_gain1,gain1,F,H,35,4,body_parts,outdoor_scenes,50,50,Stimuli/Experimental_stims/body_parts/wc-so-KH4AAPjb-tI-unsplash.jpg,Stimuli/Experimental_stims/outdoor_scenes/jarrett-kow-1ZOyYPOBn7I-unsplash.jpg,0,NaN,NaN,NaN,unchosen,NaN,NaN,NaN,NaN,4900,1,8,4
253,17399,0,254,4,4,0,no_gain5,gain1,J,H,36,4,objects,outdoor_scenes,50,50,Stimuli/Experimental_stims/objects/alexander-andrews-JYGnB9gTCls-unsplash.jpg,Stimuli/Experimental_stims/outdoor_scenes/jarrett-kow-1ZOyYPOBn7I-unsplash.jpg,0,NaN,NaN,NaN,unchosen,NaN,NaN,NaN,NaN,2600,0,8,4
254,17399,0,255,4,4,1,gain5,no_gain5,B,J,8,15,outdoor_scenes,faces,50,50,Stimuli/Experimental_stims/outdoor_scenes/samsommer-vddccTqwal8-unsplash.jpg,Stimuli/Experimental_stims/faces/erik-lucatero-d2MSDujJl2g-unsplash.jpg,0,NaN,NaN,NaN,chosen,NaN,NaN,NaN,NaN,1800,0,8,4
255,17399,0,256,4,4,0,no_gain1,gain3,F,I,14,28,faces,body_parts,50,50,Stimuli/Experimental_stims/faces/david-siglin-UuW4psOb388-unsplash.jpg,Stimuli/Experimental_stims/body_parts/ira-vishnevskaya-8DQAvdCby1I-unsplash.jpg,0,NaN,NaN,NaN,chosen,NaN,NaN,NaN,NaN,1500,0,8,4
256,17399,0,257,4,4,1,gain5,no_gain3,B,E,8,41,outdoor_scenes,objects,50,50,Stimuli/Experimental_stims/outdoor_scenes/samsommer-vddccTqwal8-unsplash.jpg,Stimuli/Experimental_stims/objects/insung-yoon-w2JtIQQXoRU-unsplash.jpg,0,NaN,NaN,NaN,chosen,NaN,NaN,NaN,NaN,1700,0,8,4
257,17399,0,258,4,4,1,gain2,no_gain4,D,A,21,37,faces,objects,50,50,Stimuli/Experimental_stims/faces/leilani-angel-K84vnnzxmTQ-unsplash.jpg,Stimuli/Experimental_stims/objects/alexander-andrews-VLGWE_SumrA-unsplash.jpg,0,NaN,NaN,NaN,unchosen,NaN,NaN,NaN,NaN,3200,1,8,4
258,17399,0,259,4,4,1,gain3,no_gain3,I,E,28,41,body_parts,objects,50,50,Stimuli/Experimental_stims/body_parts/ira-vishnevskaya-8DQAvdCby1I-unsplash.jpg,Stimuli/Experimental_stims/objects/insung-yoon-w2JtIQQXoRU-unsplash.jpg,0,NaN,NaN,NaN,chosen,NaN,NaN,NaN,NaN,2100,0,8,4
259,17399,0,260,4,4,0,no_gain6,gain1,K,H,26,12,body_parts,faces,50,50,Stimuli/Experimental_stims/body_parts/engin-akyurt-x_3gyC42btc-unsplash.jpg,Stimuli/Experimental_stims/faces/aiony-haust-jmATI5Q_YgY-unsplash.jpg,0,NaN,NaN,NaN,chosen,NaN,NaN,NaN,NaN,1600,0,8,4
260,17399,0,261,4,4,0,no_gain2,gain3,C,I,27,5,body_parts,outdoor_scenes,50,50,Stimuli/Experimental_stims/body_parts/heike-mintel-i_Gns0ELnLw-unsplash.jpg,Stimuli/Experimental_stims/outdoor_scenes/jeff-king-bJHWJeiHfHc-unsplash.jpg,0,NaN,NaN,NaN,unchosen,NaN,NaN,NaN,NaN,1700,0,8,4
261,17399,0,262,4,4,0,no_gain4,gain4,A,L,1,33,outdoor_scenes,body_parts,50,50,Stimuli/Experimental_stims/outdoor_scenes/ashim-d-silva-S2Q5mdOrrVc-unsplash.jpg,Stimuli/Experimental_stims/body_parts/tucker-good-36skLT5jZcc-unsplash.jpg,0,NaN,NaN,NaN,chosen,NaN,NaN,NaN,NaN,1300,0,8,4
262,17399,0,263,4,4,1,gain6,no_gain1,G,F,46,14,objects,faces,50,50,Stimuli/Experimental_stims/objects/mockup-graphics-PNsj6RiHAF4-unsplash.jpg,Stimuli/Experimental_stims/faces/david-siglin-UuW4psOb388-unsplash.jpg,0,NaN,NaN,NaN,chosen,NaN,NaN,NaN,NaN,3700,1,8,4
263,17399,0,264,4,4,1,gain1,no_gain4,H,A,4,37,outdoor_scenes,objects,50,50,Stimuli/Experimental_stims/outdoor_scenes/jarrett-kow-1ZOyYPOBn7I-unsplash.jpg,Stimuli/Experimental_stims/objects/alexander-andrews-VLGWE_SumrA-unsplash.jpg,0,NaN,NaN,NaN,unchosen,NaN,NaN,NaN,NaN,1500,0,8,4
264,17399,0,265,4,4,1,gain4,no_gain1,L,F,33,14,body_parts,faces,50,50,Stimuli/Experimental_stims/body_parts/tucker-good-36skLT5jZcc-unsplash.jpg,Stimuli/Experimental_stims/faces/david-siglin-UuW4psOb388-unsplash.jpg,0,NaN,NaN,NaN,chosen,NaN,NaN,NaN,NaN,1500,0,8,4
265,17399,0,266,4,4,1,gain2,no_gain5,D,J,21,36,faces,objects,50,50,Stimuli/Experimental_stims/faces/leilani-angel-K84vnnzxmTQ-unsplash.jpg,Stimuli/Experimental_stims/objects/alexander-andrews-JYGnB9gTCls-unsplash.jpg,0,NaN,NaN,NaN,unchosen,NaN,NaN,NaN,NaN,1400,0,8,4
266,17399,0,267,4,4,0,no_gain2,gain4,C,L,2,33,outdoor_scenes,body_parts,50,50,Stimuli/Experimental_stims/outdoor_scenes/bruno-van-der-kraan-qez8mNJ3ilU-unsplash.jpg,Stimuli/Experimental_stims/body_parts/tucker-good-36skLT5jZcc-unsplash.jpg,0,NaN,NaN,NaN,chosen,NaN,NaN,NaN,NaN,1700,0,8,4
267,17399,0,268,4,4,0,no_gain4,gain6,A,G,1,46,outdoor_scenes,objects,50,50,Stimuli/Experimental_stims/outdoor_scenes/ashim-d-silva-S2Q5mdOrrVc-unsplash.jpg,Stimuli/Experimental_stims/objects/mockup-graphics-PNsj6RiHAF4-unsplash.jpg,0,NaN,NaN,NaN,chosen,NaN,NaN,NaN,NaN,2500,0,8,4
268,17399,0,269,4,4,0,no_gain6,gain6,K,G,26,46,body_parts,objects,50,50,Stimuli/Experimental_stims/body_parts/engin-akyurt-x_3gyC42btc-unsplash.jpg,Stimuli/Experimental_stims/objects/mockup-graphics-PNsj6RiHAF4-unsplash.jpg,0,NaN,NaN,NaN,chosen,NaN,NaN,NaN,NaN,1800,0,8,4
269,17399,0,270,4,4,0,no_gain2,gain6,C,G,27,10,body_parts,outdoor_scenes,50,50,Stimuli/Experimental_stims/body_parts/heike-mintel-i_Gns0ELnLw-unsplash.jpg,Stimuli/Experimental_stims/outdoor_scenes/shannon-kunkle-dM8INmkyDas-unsplash.jpg,0,NaN,NaN,NaN,unchosen,NaN,NaN,NaN,NaN,2200,0,8,4
270,17399,0,271,4,4,0,no_gain5,gain6,J,G,36,10,objects,outdoor_scenes,50,50,Stimuli/Experimental_stims/objects/alexander-andrews-JYGnB9gTCls-unsplash.jpg,Stimuli/Experimental_stims/outdoor_scenes/shannon-kunkle-dM8INmkyDas-unsplash.jpg,0,NaN,NaN,NaN,unchosen,NaN,NaN,NaN,NaN,1400,0,8,4
271,17399,0,272,4,4,1,gain3,no_gain6,I,K,28,26,body_parts,body_parts,50,50,Stimuli/Experimental_stims/body_parts/ira-vishnevskaya-8DQAvdCby1I-unsplash.jpg,Stimuli/Experimental_stims/body_parts/engin-akyurt-x_3gyC42btc-unsplash.jpg,0,NaN,NaN,NaN,chosen,NaN,NaN,NaN,NaN,4200,1,8,4
272,17399,0,273,4,4,1,gain5,no_gain5,B,J,22,36,faces,objects,50,50,Stimuli/Experimental_stims/faces/ravi-patel-VMGAbeeJTKo-unsplash.jpg,Stimuli/Experimental_stims/objects/alexander-andrews-JYGnB9gTCls-unsplash.jpg,0,NaN,NaN,NaN,unchosen,NaN,NaN,NaN,NaN,2400,0,8,4
273,17399,0,274,4,4,0,no_gain4,gain6,A,G,37,10,objects,outdoor_scenes,50,50,Stimuli/Experimental_stims/objects/alexander-andrews-VLGWE_SumrA-unsplash.jpg,Stimuli/Experimental_stims/outdoor_scenes/shannon-kunkle-dM8INmkyDas-unsplash.jpg,0,NaN,NaN,NaN,unchosen,NaN,NaN,NaN,NaN,1100,0,8,4
274,17399,0,275,4,4,0,no_gain2,gain1,C,H,2,12,outdoor_scenes,faces,50,50,Stimuli/Experimental_stims/outdoor_scenes/bruno-van-der-kraan-qez8mNJ3ilU-unsplash.jpg,Stimuli/Experimental_stims/faces/aiony-haust-jmATI5Q_YgY-unsplash.jpg,0,NaN,NaN,NaN,chosen,NaN,NaN,NaN,NaN,1400,0,8,4
275,17399,0,276,4,4,0,no_gain3,gain3,E,I,24,5,body_parts,outdoor_scenes,50,50,Stimuli/Experimental_stims/body_parts/clay-banks-LjqARJaJotc-unsplash.jpg,Stimuli/Experimental_stims/outdoor_scenes/jeff-king-bJHWJeiHfHc-unsplash.jpg,0,NaN,NaN,NaN,unchosen,NaN,NaN,NaN,NaN,1400,0,8,4
276,17399,0,277,4,4,1,gain5,no_gain6,B,K,8,26,outdoor_scenes,body_parts,50,50,Stimuli/Experimental_stims/outdoor_scenes/samsommer-vddccTqwal8-unsplash.jpg,Stimuli/Experimental_stims/body_parts/engin-akyurt-x_3gyC42btc-unsplash.jpg,0,NaN,NaN,NaN,chosen,NaN,NaN,NaN,NaN,1000,0,8,4
277,17399,0,278,4,4,1,gain1,no_gain5,H,J,12,15,faces,faces,50,50,Stimuli/Experimental_stims/faces/aiony-haust-jmATI5Q_YgY-unsplash.jpg,Stimuli/Experimental_stims/faces/erik-lucatero-d2MSDujJl2g-unsplash.jpg,0,NaN,NaN,NaN,chosen,NaN,NaN,NaN,NaN,1900,0,8,4
278,17399,0,279,4,4,1,gain2,no_gain6,D,K,21,43,faces,objects,50,50,Stimuli/Experimental_stims/faces/leilani-angel-K84vnnzxmTQ-unsplash.jpg,Stimuli/Experimental_stims/objects/jonathan-greenaway-Y4hGgeiFn3s-unsplash.jpg,0,NaN,NaN,NaN,unchosen,NaN,NaN,NaN,NaN,2100,0,8,4
279,17399,0,280,4,4,1,gain2,no_gain2,D,C,21,27,faces,body_parts,50,50,Stimuli/Experimental_stims/faces/leilani-angel-K84vnnzxmTQ-unsplash.jpg,Stimuli/Experimental_stims/body_parts/heike-mintel-i_Gns0ELnLw-unsplash.jpg,0,NaN,NaN,NaN,unchosen,NaN,NaN,NaN,NaN,1100,0,8,4
280,17399,0,281,4,4,1,gain3,no_gain6,I,K,5,43,outdoor_scenes,objects,50,50,Stimuli/Experimental_stims/outdoor_scenes/jeff-king-bJHWJeiHfHc-unsplash.jpg,Stimuli/Experimental_stims/objects/jonathan-greenaway-Y4hGgeiFn3s-unsplash.jpg,0,NaN,NaN,NaN,unchosen,NaN,NaN,NaN,NaN,3800,1,8,4
281,17399,0,282,4,4,0,no_gain6,gain2,K,D,26,42,body_parts,objects,50,50,Stimuli/Experimental_stims/body_parts/engin-akyurt-x_3gyC42btc-unsplash.jpg,Stimuli/Experimental_stims/objects/jess-bailey-nOeVi8DsN8U-unsplash.jpg,0,NaN,NaN,NaN,chosen,NaN,NaN,NaN,NaN,1200,0,8,4
282,17399,0,283,4,4,0,no_gain3,gain4,E,L,41,33,objects,body_parts,50,50,Stimuli/Experimental_stims/objects/insung-yoon-w2JtIQQXoRU-unsplash.jpg,Stimuli/Experimental_stims/body_parts/tucker-good-36skLT5jZcc-unsplash.jpg,0,NaN,NaN,NaN,chosen,NaN,NaN,NaN,NaN,2500,0,8,4
283,17399,0,284,4,4,0,no_gain6,gain4,K,L,26,33,body_parts,body_parts,50,50,Stimuli/Experimental_stims/body_parts/engin-akyurt-x_3gyC42btc-unsplash.jpg,Stimuli/Experimental_stims/body_parts/tucker-good-36skLT5jZcc-unsplash.jpg,0,NaN,NaN,NaN,chosen,NaN,NaN,NaN,NaN,1200,0,8,4
284,17399,0,285,4,4,1,gain4,no_gain5,L,J,23,36,faces,objects,50,50,Stimuli/Experimental_stims/faces/rikonavt-HQjfrvdTfak-unsplash.jpg,Stimuli/Experimental_stims/objects/alexander-andrews-JYGnB9gTCls-unsplash.jpg,0,NaN,NaN,NaN,unchosen,NaN,NaN,NaN,NaN,1600,0,8,4
285,17399,0,286,4,4,1,gain6,no_gain5,G,J,46,15,objects,faces,50,50,Stimuli/Experimental_stims/objects/mockup-graphics-PNsj6RiHAF4-unsplash.jpg,Stimuli/Experimental_stims/faces/erik-lucatero-d2MSDujJl2g-unsplash.jpg,0,NaN,NaN,NaN,chosen,NaN,NaN,NaN,NaN,1900,0,8,4
286,17399,0,287,4,4,1,gain2,no_gain5,D,J,42,15,objects,faces,50,50,Stimuli/Experimental_stims/objects/jess-bailey-nOeVi8DsN8U-unsplash.jpg,Stimuli/Experimental_stims/faces/erik-lucatero-d2MSDujJl2g-unsplash.jpg,0,NaN,NaN,NaN,chosen,NaN,NaN,NaN,NaN,1000,0,8,4
287,17399,0,288,4,4,1,gain6,no_gain3,G,E,10,24,outdoor_scenes,body_parts,50,50,Stimuli/Experimental_stims/outdoor_scenes/shannon-kunkle-dM8INmkyDas-unsplash.jpg,Stimuli/Experimental_stims/body_parts/clay-banks-LjqARJaJotc-unsplash.jpg,0,NaN,NaN,NaN,unchosen,NaN,NaN,NaN,NaN,5000,1,8,4
288,17399,0,289,4,4,0,no_gain4,gain1,A,H,1,12,outdoor_scenes,faces,50,50,Stimuli/Experimental_stims/outdoor_scenes/ashim-d-silva-S2Q5mdOrrVc-unsplash.jpg,Stimuli/Experimental_stims/faces/aiony-haust-jmATI5Q_YgY-unsplash.jpg,0,NaN,NaN,NaN,chosen,NaN,NaN,NaN,NaN,2400,0,8,4
289,17399,0,290,4,4,0,no_gain3,gain5,E,B,24,22,body_parts,faces,50,50,Stimuli/Experimental_stims/body_parts/clay-banks-LjqARJaJotc-unsplash.jpg,Stimuli/Experimental_stims/faces/ravi-patel-VMGAbeeJTKo-unsplash.jpg,0,NaN,NaN,NaN,unchosen,NaN,NaN,NaN,NaN,1500,0,8,4
290,17399,0,291,4,4,1,gain6,no_gain3,G,E,46,41,objects,objects,50,50,Stimuli/Experimental_stims/objects/mockup-graphics-PNsj6RiHAF4-unsplash.jpg,Stimuli/Experimental_stims/objects/insung-yoon-w2JtIQQXoRU-unsplash.jpg,0,NaN,NaN,NaN,chosen,NaN,NaN,NaN,NaN,1500,0,8,4
291,17399,0,292,4,4,1,gain4,no_gain4,L,A,23,37,faces,objects,50,50,Stimuli/Experimental_stims/faces/rikonavt-HQjfrvdTfak-unsplash.jpg,Stimuli/Experimental_stims/objects/alexander-andrews-VLGWE_SumrA-unsplash.jpg,0,NaN,NaN,NaN,unchosen,NaN,NaN,NaN,NaN,1300,0,8,4