,PID,practice,trial,block,run,gain_left,left_item_id,right_item_id,left_pair_id,right_pair_id,left_stimulus,right_stimulus,left_category,right_category,left_rating,right_rating,left_path,right_path,no_response,left_chosen,rt,higher_outcome_chosen,choice_type,chosen_stimulus,unchosen_stimulus,chosen_category,unchosen_category,iti,long_iti,simulation,version
0,90291,1,1,0,0,0,,,,,,,,,,,Stimuli/Practice_stims/Final_decisions/debby-hudson-FmCSSSGge-0-unsplash.jpg,Stimuli/Practice_stims/Final_decisions/yassine-khalfalli-adsQ9d_Cx0c-unsplash.jpg,0,NaN,NaN,NaN,,,,,,3000,0,5,4
1,90291,1,2,0,0,0,,,,,,,,,,,Stimuli/Practice_stims/Final_decisions/florian-wehde-iVW7mZPwd4g-unsplash.jpg,Stimuli/Practice_stims/Final_decisions/patrick-perkins-3wylDrjxH-E-unsplash.jpg,0,NaN,NaN,NaN,,,,,,1500,0,5,4
2,90291,1,3,0,0,0,,,,,,,,,,,Stimuli/Practice_stims/Final_decisions/debby-hudson-FmCSSSGge-0-unsplash.jpg,Stimuli/Practice_stims/Final_decisions/florian-wehde-iVW7mZPwd4g-unsplash.jpg,0,NaN,NaN,NaN,,,,,,2000,0,5,4
3,90291,1,4,0,0,0,,,,,,,,,,,Stimuli/Practice_stims/Final_decisions/yassine-khalfalli-adsQ9d_Cx0c-unsplash.jpg,Stimuli/Practice_stims/Final_decisions/debby-hudson-FmCSSSGge-0-unsplash.jpg,0,NaN,NaN,NaN,,,,,,1000,0,5,4
4,90291,0,5,1,1,0,no_gain2,gain4,A,I,0,27,outdoor_scenes,body_parts,50,50,Stimuli/Experimental_stims/outdoor_scenes/aleksandra-boguslawska-MS7KD9Ti7FQ-unsplash.jpg,Stimuli/Experimental_stims/body_parts/heike-mintel-i_Gns0ELnLw-unsplash.jpg,0,NaN,NaN,NaN,chosen,,,,,5000,1,5,4
5,90291,0,6,1,1,0,no_gain1,gain4,J,I,44,8,objects,outdoor_scenes,50,50,Stimuli/Experimental_stims/objects/kuiye-chen-NuOGFo4PudE-unsplash.jpg,Stimuli/Experimental_stims/outdoor_scenes/samsommer-vddccTqwal8-unsplash.jpg,0,NaN,NaN,NaN,unchosen,,,,,1700,0,5,4
6,90291,0,7,1,1,1,gain2,no_gain4,B,E,2,43,outdoor_scenes,objects,50,50,Stimuli/Experimental_stims/outdoor_scenes/bruno-van-der-kraan-qez8mNJ3ilU-unsplash.jpg,Stimuli/Experimental_stims/objects/jonathan-greenaway-Y4hGgeiFn3s-unsplash.jpg,0,NaN,NaN,NaN,chosen,,,,,1600,0,5,4
7,90291,0,8,1,1,1,gain1,no_gain2,L,A,19,38,faces,objects,50,50,Stimuli/Experimental_stims/faces/joel-mott-LaK153ghdig-unsplash.jpg,Stimuli/Experimental_stims/objects/art-lasovsky-8XddFc6NkBY-unsplash.jpg,0,NaN,NaN,NaN,unchosen,,,,,1800,0,5,4
8,90291,0,9,1,1,0,no_gain6,gain6,K,G,45,10,objects,outdoor_scenes,50,50,Stimuli/Experimental_stims/objects/leohoho-rngTKHXumy0-unsplash.jpg,Stimuli/Experimental_stims/outdoor_scenes/shannon-kunkle-dM8INmkyDas-unsplash.jpg,0,NaN,NaN,NaN,unchosen,,,,,1300,0,5,4
9,90291,0,10,1,1,1,gain6,no_gain1,G,J,10,44,outdoor_scenes,objects,50,50,Stimuli/Experimental_stims/outdoor_scenes/shannon-kunkle-dM8INmkyDas-unsplash.jpg,Stimuli/Experimental_stims/objects/kuiye-chen-NuOGFo4PudE-unsplash.jpg,0,NaN,NaN,NaN,unchosen,,,,,1200,0,5,4
10,90291,0,11,1,1,0,no_gain4,gain5,E,D,43,41,objects,objects,50,50,Stimuli/Experimental_stims/objects/jonathan-greenaway-Y4hGgeiFn3s-unsplash.jpg,Stimuli/Experimental_stims/objects/insung-yoon-w2JtIQQXoRU-unsplash.jpg,0,NaN,NaN,NaN,chosen,,,,,3800,1,5,4
11,90291,0,12,1,1,0,no_gain3,gain2,F,B,22,2,faces,outdoor_scenes,50,50,Stimuli/Experimental_stims/faces/ravi-patel-VMGAbeeJTKo-unsplash.jpg,Stimuli/Experimental_stims/outdoor_scenes/bruno-van-der-kraan-qez8mNJ3ilU-unsplash.jpg,0,NaN,NaN,NaN,chosen,,,,,1100,0,5,4
12,90291,0,13,1,1,1,gain5,no_gain4,D,E,15,33,faces,body_parts,50,50,Stimuli/Experimental_stims/faces/erik-lucatero-d2MSDujJl2g-unsplash.jpg,Stimuli/Experimental_stims/body_parts/tucker-good-36skLT5jZcc-unsplash.jpg,0,NaN,NaN,NaN,unchosen,,,,,2500,0,5,4
13,90291,0,14,1,1,0,no_gain3,gain3,F,H,22,23,faces,faces,50,50,Stimuli/Experimental_stims/faces/ravi-patel-VMGAbeeJTKo-unsplash.jpg,Stimuli/Experimental_stims/faces/rikonavt-HQjfrvdTfak-unsplash.jpg,0,NaN,NaN,NaN,chosen,,,,,1500,0,5,4
14,90291,0,15,1,1,0,no_gain6,gain1,K,L,45,19,objects,faces,50,50,Stimuli/Experimental_stims/objects/leohoho-rngTKHXumy0-unsplash.jpg,Stimuli/Experimental_stims/faces/joel-mott-LaK153ghdig-unsplash.jpg,0,NaN,NaN,NaN,unchosen,,,,,1400,0,5,4
15,90291,0,16,1,1,0,no_gain2,gain3,A,H,0,23,outdoor_scenes,faces,50,50,Stimuli/Experimental_stims/outdoor_scenes/aleksandra-boguslawska-MS7KD9Ti7FQ-unsplash.jpg,Stimuli/Experimental_stims/faces/rikonavt-HQjfrvdTfak-unsplash.jpg,0,NaN,NaN,NaN,chosen,,,,,3300,1,5,4
16,90291,0,17,1,1,0,no_gain3,gain3,F,H,29,3,body_parts,outdoor_scenes,50,50,Stimuli/Experimental_stims/body_parts/manuel-schinner-ZwjFuJ7ebpk-unsplash.jpg,Stimuli/Experimental_stims/outdoor_scenes/henry-be-NLF6hTe4PAg-unsplash.jpg,0,NaN,NaN,NaN,unchosen,,,,,1800,0,5,4
17,90291,0,18,1,1,0,no_gain1,gain3,J,H,44,3,objects,outdoor_scenes,50,50,Stimuli/Experimental_stims/objects/kuiye-chen-NuOGFo4PudE-unsplash.jpg,Stimuli/Experimental_stims/outdoor_scenes/henry-be-NLF6hTe4PAg-unsplash.jpg,0,NaN,NaN,NaN,unchosen,,,,,1900,0,5,4
18,90291,0,19,1,1,0,no_gain6,gain4,K,I,45,8,objects,outdoor_scenes,50,50,Stimuli/Experimental_stims/objects/leohoho-rngTKHXumy0-unsplash.jpg,Stimuli/Experimental_stims/outdoor_scenes/samsommer-vddccTqwal8-unsplash.jpg,0,NaN,NaN,NaN,unchosen,,,,,1100,0,5,4
19,90291,0,20,1,1,0,no_gain2,gain1,A,L,0,28,outdoor_scenes,body_parts,50,50,Stimuli/Experimental_stims/outdoor_scenes/aleksandra-boguslawska-MS7KD9Ti7FQ-unsplash.jpg,Stimuli/Experimental_stims/body_parts/ira-vishnevskaya-8DQAvdCby1I-unsplash.jpg,0,NaN,NaN,NaN,chosen,,,,,1200,0,5,4
20,90291,0,21,1,1,1,gain4,no_gain4,I,E,8,33,outdoor_scenes,body_parts,50,50,Stimuli/Experimental_stims/outdoor_scenes/samsommer-vddccTqwal8-unsplash.jpg,Stimuli/Experimental_stims/body_parts/tucker-good-36skLT5jZcc-unsplash.jpg,0,NaN,NaN,NaN,unchosen,,,,,1400,0,5,4
21,90291,0,22,1,1,0,no_gain4,gain3,E,H,43,23,objects,faces,50,50,Stimuli/Experimental_stims/objects/jonathan-greenaway-Y4hGgeiFn3s-unsplash.jpg,Stimuli/Experimental_stims/faces/rikonavt-HQjfrvdTfak-unsplash.jpg,0,NaN,NaN,NaN,chosen,,,,,1100,0,5,4
22,90291,0,23,1,1,0,no_gain3,gain5,F,D,29,15,body_parts,faces,50,50,Stimuli/Experimental_stims/body_parts/manuel-schinner-ZwjFuJ7ebpk-unsplash.jpg,Stimuli/Experimental_stims/faces/erik-lucatero-d2MSDujJl2g-unsplash.jpg,0,NaN,NaN,NaN,unchosen,,,,,1500,0,5,4
23,90291,0,24,1,1,1,gain1,no_gain3,L,F,28,22,body_parts,faces,50,50,Stimuli/Experimental_stims/body_parts/ira-vishnevskaya-8DQAvdCby1I-unsplash.jpg,Stimuli/Experimental_stims/faces/ravi-patel-VMGAbeeJTKo-unsplash.jpg,0,NaN,NaN,NaN,chosen,,,,,1600,0,5,4
24,90291,0,25,1,1,1,gain2,no_gain1,B,J,18,44,faces,objects,50,50,Stimuli/Experimental_stims/faces/jessica-radanavong-mrYkTuAesKE-unsplash.jpg,Stimuli/Experimental_stims/objects/kuiye-chen-NuOGFo4PudE-unsplash.jpg,0,NaN,NaN,NaN,unchosen,,,,,3000,1,5,4
25,90291,0,26,1,1,1,gain6,no_gain4,G,E,42,43,objects,objects,50,50,Stimuli/Experimental_stims/objects/jess-bailey-nOeVi8DsN8U-unsplash.jpg,Stimuli/Experimental_stims/objects/jonathan-greenaway-Y4hGgeiFn3s-unsplash.jpg,0,NaN,NaN,NaN,chosen,,,,,1600,0,5,4
26,90291,0,27,1,1,0,no_gain1,gain1,J,L,44,19,objects,faces,50,50,Stimuli/Experimental_stims/objects/kuiye-chen-NuOGFo4PudE-unsplash.jpg,Stimuli/Experimental_stims/faces/joel-mott-LaK153ghdig-unsplash.jpg,0,NaN,NaN,NaN,unchosen,,,,,2900,0,5,4
27,90291,0,28,1,1,0,no_gain1,gain3,J,H,17,23,faces,faces,50,50,Stimuli/Experimental_stims/faces/good-faces-xmSWVeGEnJw-unsplash.jpg,Stimuli/Experimental_stims/faces/rikonavt-HQjfrvdTfak-unsplash.jpg,0,NaN,NaN,NaN,chosen,,,,,2700,0,5,4
28,90291,0,29,1,1,1,gain5,no_gain3,D,F,41,22,objects,faces,50,50,Stimuli/Experimental_stims/objects/insung-yoon-w2JtIQQXoRU-unsplash.jpg,Stimuli/Experimental_stims/faces/ravi-patel-VMGAbeeJTKo-unsplash.jpg,0,NaN,NaN,NaN,chosen,,,,,1800,0,5,4
29,90291,0,30,1,1,1,gain5,no_gain5,D,C,15,35,faces,body_parts,50,50,Stimuli/Experimental_stims/faces/erik-lucatero-d2MSDujJl2g-unsplash.jpg,Stimuli/Experimental_stims/body_parts/wc-so-KH4AAPjb-tI-unsplash.jpg,0,NaN,NaN,NaN,unchosen,,,,,2300,0,5,4
30,90291,0,31,1,1,0,no_gain1,gain4,J,I,17,27,faces,body_parts,50,50,Stimuli/Experimental_stims/faces/good-faces-xmSWVeGEnJw-unsplash.jpg,Stimuli/Experimental_stims/body_parts/heike-mintel-i_Gns0ELnLw-unsplash.jpg,0,NaN,NaN,NaN,chosen,,,,,2000,0,5,4
31,90291,0,32,1,1,1,gain6,no_gain2,G,A,42,0,objects,outdoor_scenes,50,50,Stimuli/Experimental_stims/objects/jess-bailey-nOeVi8DsN8U-unsplash.jpg,Stimuli/Experimental_stims/outdoor_scenes/aleksandra-boguslawska-MS7KD9Ti7FQ-unsplash.jpg,0,NaN,NaN,NaN,chosen,,,,,2600,0,5,4
32,90291,0,33,1,1,1,gain4,no_gain3,I,F,8,29,outdoor_scenes,body_parts,50,50,Stimuli/Experimental_stims/outdoor_scenes/samsommer-vddccTqwal8-unsplash.jpg,Stimuli/Experimental_stims/body_parts/manuel-schinner-ZwjFuJ7ebpk-unsplash.jpg,0,NaN,NaN,NaN,unchosen,,,,,3500,1,5,4
33,90291,0,34,1,1,1,gain4,no_gain5,I,C,8,35,outdoor_scenes,body_parts,50,50,Stimuli/Experimental_stims/outdoor_scenes/samsommer-vddccTqwal8-unsplash.jpg,Stimuli/Experimental_stims/body_parts/wc-so-KH4AAPjb-tI-unsplash.jpg,0,NaN,NaN,NaN,unchosen,,,,,1000,0,5,4
34,90291,0,35,1,1,0,no_gain5,gain6,C,G,11,42,outdoor_scenes,objects,50,50,Stimuli/Experimental_stims/outdoor_scenes/stephen-leonardi-gyIRjKPXupE-unsplash.jpg,Stimuli/Experimental_stims/objects/jess-bailey-nOeVi8DsN8U-unsplash.jpg,0,NaN,NaN,NaN,chosen,,,,,1600,0,5,4
35,90291,0,36,1,1,1,gain1,no_gain5,L,C,28,11,body_parts,outdoor_scenes,50,50,Stimuli/Experimental_stims/body_parts/ira-vishnevskaya-8DQAvdCby1I-unsplash.jpg,Stimuli/Experimental_stims/outdoor_scenes/stephen-leonardi-gyIRjKPXupE-unsplash.jpg,0,NaN,NaN,NaN,chosen,,,,,1200,0,5,4
36,90291,0,37,1,1,0,no_gain6,gain2,K,B,32,2,body_parts,outdoor_scenes,50,50,Stimuli/Experimental_stims/body_parts/towfiqu-barbhuiya-3AsiVDsZnHg-unsplash.jpg,Stimuli/Experimental_stims/outdoor_scenes/bruno-van-der-kraan-qez8mNJ3ilU-unsplash.jpg,0,NaN,NaN,NaN,chosen,,,,,1500,0,5,4
37,90291,0,38,1,1,1,gain2,no_gain6,B,K,18,45,faces,objects,50,50,Stimuli/Experimental_stims/faces/jessica-radanavong-mrYkTuAesKE-unsplash.jpg,Stimuli/Experimental_stims/objects/leohoho-rngTKHXumy0-unsplash.jpg,0,NaN,NaN,NaN,unchosen,,,,,4800,1,5,4
38,90291,0,39,1,1,1,gain2,no_gain2,B,A,2,0,outdoor_scenes,outdoor_scenes,50,50,Stimuli/Experimental_stims/outdoor_scenes/bruno-van-der-kraan-qez8mNJ3ilU-unsplash.jpg,Stimuli/Experimental_stims/outdoor_scenes/aleksandra-boguslawska-MS7KD9Ti7FQ-unsplash.jpg,0,NaN,NaN,NaN,chosen,,,,,1500,0,5,4
39,90291,0,40,1,1,0,no_gain5,gain1,C,L,35,19,body_parts,faces,50,50,Stimuli/Experimental_stims/body_parts/wc-so-KH4AAPjb-tI-unsplash.jpg,Stimuli/Experimental_stims/faces/joel-mott-LaK153ghdig-unsplash.jpg,0,NaN,NaN,NaN,unchosen,,,,,1700,0,5,4
40,90291,0,41,1,1,0,no_gain4,gain1,E,L,33,19,body_parts,faces,50,50,Stimuli/Experimental_stims/body_parts/tucker-good-36skLT5jZcc-unsplash.jpg,Stimuli/Experimental_stims/faces/joel-mott-LaK153ghdig-unsplash.jpg,0,NaN,NaN,NaN,unchosen,,,,,1200,0,5,4
41,90291,0,42,1,1,1,gain5,no_gain2,D,A,15,38,faces,objects,50,50,Stimuli/Experimental_stims/faces/erik-lucatero-d2MSDujJl2g-unsplash.jpg,Stimuli/Experimental_stims/objects/art-lasovsky-8XddFc6NkBY-unsplash.jpg,0,NaN,NaN,NaN,unchosen,,,,,1400,0,5,4
42,90291,0,43,1,1,1,gain6,no_gain6,G,K,42,32,objects,body_parts,50,50,Stimuli/Experimental_stims/objects/jess-bailey-nOeVi8DsN8U-unsplash.jpg,Stimuli/Experimental_stims/body_parts/towfiqu-barbhuiya-3AsiVDsZnHg-unsplash.jpg,0,NaN,NaN,NaN,chosen,,,,,1800,0,5,4
43,90291,0,44,1,1,1,gain1,no_gain3,L,F,19,29,faces,body_parts,50,50,Stimuli/Experimental_stims/faces/joel-mott-LaK153ghdig-unsplash.jpg,Stimuli/Experimental_stims/body_parts/manuel-schinner-ZwjFuJ7ebpk-unsplash.jpg,0,NaN,NaN,NaN,unchosen,,,,,3600,1,5,4
44,90291,0,45,1,1,1,gain2,no_gain5,B,C,2,11,outdoor_scenes,outdoor_scenes,50,50,Stimuli/Experimental_stims/outdoor_scenes/bruno-van-der-kraan-qez8mNJ3ilU-unsplash.jpg,Stimuli/Experimental_stims/outdoor_scenes/stephen-leonardi-gyIRjKPXupE-unsplash.jpg,0,NaN,NaN,NaN,chosen,,,,,1200,0,5,4
45,90291,0,46,1,1,0,no_gain2,gain5,A,D,0,41,outdoor_scenes,objects,50,50,Stimuli/Experimental_stims/outdoor_scenes/aleksandra-boguslawska-MS7KD9Ti7FQ-unsplash.jpg,Stimuli/Experimental_stims/objects/insung-yoon-w2JtIQQXoRU-unsplash.jpg,0,NaN,NaN,NaN,chosen,,,,,2700,0,5,4
46,90291,0,47,1,1,0,no_gain4,gain3,E,H,33,3,body_parts,outdoor_scenes,50,50,Stimuli/Experimental_stims/body_parts/tucker-good-36skLT5jZcc-unsplash.jpg,Stimuli/Experimental_stims/outdoor_scenes/henry-be-NLF6hTe4PAg-unsplash.jpg,0,NaN,NaN,NaN,unchosen,,,,,2100,0,5,4
47,90291,0,48,1,1,1,gain6,no_gain4,G,E,10,33,outdoor_scenes,body_parts,50,50,Stimuli/Experimental_stims/outdoor_scenes/shannon-kunkle-dM8INmkyDas-unsplash.jpg,Stimuli/Experimental_stims/body_parts/tucker-good-36skLT5jZcc-unsplash.jpg,0,NaN,NaN,NaN,unchosen,,,,,2500,0,5,4
48,90291,0,49,1,1,1,gain3,no_gain6,H,K,23,32,faces,body_parts,50,50,Stimuli/Experimental_stims/faces/rikonavt-HQjfrvdTfak-unsplash.jpg,Stimuli/Experimental_stims/body_parts/towfiqu-barbhuiya-3AsiVDsZnHg-unsplash.jpg,0,NaN,NaN,NaN,chosen,,,,,1500,0,5,4
49,90291,0,50,1,1,1,gain2,no_gain1,B,J,2,17,outdoor_scenes,faces,50,50,Stimuli/Experimental_stims/outdoor_scenes/bruno-van-der-kraan-qez8mNJ3ilU-unsplash.jpg,Stimuli/Experimental_stims/faces/good-faces-xmSWVeGEnJw-unsplash.jpg,0,NaN,NaN,NaN,chosen,,,,,1300,0,5,4
50,90291,0,51,1,1,1,gain6,no_gain3,G,F,42,22,objects,faces,50,50,Stimuli/Experimental_stims/objects/jess-bailey-nOeVi8DsN8U-unsplash.jpg,Stimuli/Experimental_stims/faces/ravi-patel-VMGAbeeJTKo-unsplash.jpg,0,NaN,NaN,NaN,chosen,,,,,1000,0,5,4
51,90291,0,52,1,1,1,gain6,no_gain3,G,F,10,29,outdoor_scenes,body_parts,50,50,Stimuli/Experimental_stims/outdoor_scenes/shannon-kunkle-dM8INmkyDas-unsplash.jpg,Stimuli/Experimental_stims/body_parts/manuel-schinner-ZwjFuJ7ebpk-unsplash.jpg,0,NaN,NaN,NaN,unchosen,,,,,1500,0,5,4
52,90291,0,53,1,1,0,no_gain6,gain3,K,H,45,3,objects,outdoor_scenes,50,50,Stimuli/Experimental_stims/objects/leohoho-rngTKHXumy0-unsplash.jpg,Stimuli/Experimental_stims/outdoor_scenes/henry-be-NLF6hTe4PAg-unsplash.jpg,0,NaN,NaN,NaN,unchosen,,,,,2200,0,5,4
53,90291,0,54,1,1,1,gain2,no_gain5,B,C,18,35,faces,body_parts,50,50,Stimuli/Experimental_stims/faces/jessica-radanavong-mrYkTuAesKE-unsplash.jpg,Stimuli/Experimental_stims/body_parts/wc-so-KH4AAPjb-tI-unsplash.jpg,0,NaN,NaN,NaN,unchosen,,,,,1300,0,5,4
54,90291,0,55,1,1,1,gain4,no_gain6,I,K,27,32,body_parts,body_parts,50,50,Stimuli/Experimental_stims/body_parts/heike-mintel-i_Gns0ELnLw-unsplash.jpg,Stimuli/Experimental_stims/body_parts/towfiqu-barbhuiya-3AsiVDsZnHg-unsplash.jpg,0,NaN,NaN,NaN,chosen,,,,,3000,1,5,4
55,90291,0,56,1,1,1,gain4,no_gain2,I,A,8,38,outdoor_scenes,objects,50,50,Stimuli/Experimental_stims/outdoor_scenes/samsommer-vddccTqwal8-unsplash.jpg,Stimuli/Experimental_stims/objects/art-lasovsky-8XddFc6NkBY-unsplash.jpg,0,NaN,NaN,NaN,unchosen,,,,,1400,0,5,4
56,90291,0,57,1,1,1,gain3,no_gain2,H,A,3,38,outdoor_scenes,objects,50,50,Stimuli/Experimental_stims/outdoor_scenes/henry-be-NLF6hTe4PAg-unsplash.jpg,Stimuli/Experimental_stims/objects/art-lasovsky-8XddFc6NkBY-unsplash.jpg,0,NaN,NaN,NaN,unchosen,,,,,1500,0,5,4
57,90291,0,58,1,1,0,no_gain4,gain1,E,L,43,28,objects,body_parts,50,50,Stimuli/Experimental_stims/objects/jonathan-greenaway-Y4hGgeiFn3s-unsplash.jpg,Stimuli/Experimental_stims/body_parts/ira-vishnevskaya-8DQAvdCby1I-unsplash.jpg,0,NaN,NaN,NaN,chosen,,,,,1200,0,5,4
58,90291,0,59,1,1,0,no_gain2,gain2,A,B,38,18,objects,faces,50,50,Stimuli/Experimental_stims/objects/art-lasovsky-8XddFc6NkBY-unsplash.jpg,Stimuli/Experimental_stims/faces/jessica-radanavong-mrYkTuAesKE-unsplash.jpg,0,NaN,NaN,NaN,unchosen,,,,,1600,0,5,4
59,90291,0,60,1,1,0,no_gain6,gain1,K,L,32,28,body_parts,body_parts,50,50,Stimuli/Experimental_stims/body_parts/towfiqu-barbhuiya-3AsiVDsZnHg-unsplash.jpg,Stimuli/Experimental_stims/body_parts/ira-vishnevskaya-8DQAvdCby1I-unsplash.jpg,0,NaN,NaN,NaN,chosen,,,,,2300,0,5,4
60,90291,0,61,1,1,1,gain2,no_gain3,B,F,18,29,faces,body_parts,50,50,Stimuli/Experimental_stims/faces/jessica-radanavong-mrYkTuAesKE-unsplash.jpg,Stimuli/Experimental_stims/body_parts/manuel-schinner-ZwjFuJ7ebpk-unsplash.jpg,0,NaN,NaN,NaN,unchosen,,,,,1400,0,5,4
61,90291,0,62,1,1,0,no_gain5,gain4,C,I,11,27,outdoor_scenes,body_parts,50,50,Stimuli/Experimental_stims/outdoor_scenes/stephen-leonardi-gyIRjKPXupE-unsplash.jpg,Stimuli/Experimental_stims/body_parts/heike-mintel-i_Gns0ELnLw-unsplash.jpg,0,NaN,NaN,NaN,chosen,,,,,4400,1,5,4
62,90291,0,63,1,1,1,gain3,no_gain5,H,C,23,11,faces,outdoor_scenes,50,50,Stimuli/Experimental_stims/faces/rikonavt-HQjfrvdTfak-unsplash.jpg,Stimuli/Experimental_stims/outdoor_scenes/stephen-leonardi-gyIRjKPXupE-unsplash.jpg,0,NaN,NaN,NaN,chosen,,,,,1900,0,5,4
63,90291,0,64,1,1,0,no_gain6,gain5,K,D,45,15,objects,faces,50,50,Stimuli/Experimental_stims/objects/leohoho-rngTKHXumy0-unsplash.jpg,Stimuli/Experimental_stims/faces/erik-lucatero-d2MSDujJl2g-unsplash.jpg,0,NaN,NaN,NaN,unchosen,,,,,2000,0,5,4
64,90291,0,65,1,1,0,no_gain5,gain6,C,G,35,10,body_parts,outdoor_scenes,50,50,Stimuli/Experimental_stims/body_parts/wc-so-KH4AAPjb-tI-unsplash.jpg,Stimuli/Experimental_stims/outdoor_scenes/shannon-kunkle-dM8INmkyDas-unsplash.jpg,0,NaN,NaN,NaN,unchosen,,,,,1500,0,5,4
65,90291,0,66,1,1,1,gain5,no_gain6,D,K,41,32,objects,body_parts,50,50,Stimuli/Experimental_stims/objects/insung-yoon-w2JtIQQXoRU-unsplash.jpg,Stimuli/Experimental_stims/body_parts/towfiqu-barbhuiya-3AsiVDsZnHg-unsplash.jpg,0,NaN,NaN,NaN,chosen,,,,,1600,0,5,4
66,90291,0,67,1,1,0,no_gain2,gain6,A,G,38,10,objects,outdoor_scenes,50,50,Stimuli/Experimental_stims/objects/art-lasovsky-8XddFc6NkBY-unsplash.jpg,Stimuli/Experimental_stims/outdoor_scenes/shannon-kunkle-dM8INmkyDas-unsplash.jpg,0,NaN,NaN,NaN,unchosen,,,,,3000,1,5,4
67,90291,0,68,1,1,0,no_gain1,gain1,J,L,17,28,faces,body_parts,50,50,Stimuli/Experimental_stims/faces/good-faces-xmSWVeGEnJw-unsplash.jpg,Stimuli/Experimental_stims/body_parts/ira-vishnevskaya-8DQAvdCby1I-unsplash.jpg,0,NaN,NaN,NaN,chosen,,,,,1900,0,5,4
68,90291,0,69,1,1,0,no_gain4,gain2,E,B,33,18,body_parts,faces,50,50,Stimuli/Experimental_stims/body_parts/tucker-good-36skLT5jZcc-unsplash.jpg,Stimuli/Experimental_stims/faces/jessica-radanavong-mrYkTuAesKE-unsplash.jpg,0,NaN,NaN,NaN,unchosen,,,,,1100,0,5,4
69,90291,0,70,1,1,1,gain4,no_gain3,I,F,27,22,body_parts,faces,50,50,Stimuli/Experimental_stims/body_parts/heike-mintel-i_Gns0ELnLw-unsplash.jpg,Stimuli/Experimental_stims/faces/ravi-patel-VMGAbeeJTKo-unsplash.jpg,0,NaN,NaN,NaN,chosen,,,,,1300,0,5,4
70,90291,0,71,1,1,1,gain6,no_gain1,G,J,42,17,objects,faces,50,50,Stimuli/Experimental_stims/objects/jess-bailey-nOeVi8DsN8U-unsplash.jpg,Stimuli/Experimental_stims/faces/good-faces-xmSWVeGEnJw-unsplash.jpg,0,NaN,NaN,NaN,chosen,,,,,2600,0,5,4
71,90291,0,72,1,1,0,no_gain5,gain5,C,D,11,41,outdoor_scenes,objects,50,50,Stimuli/Experimental_stims/outdoor_scenes/stephen-leonardi-gyIRjKPXupE-unsplash.jpg,Stimuli/Experimental_stims/objects/insung-yoon-w2JtIQQXoRU-unsplash.jpg,0,NaN,NaN,NaN,chosen,,,,,1100,0,5,4
72,90291,0,73,1,1,0,no_gain1,gain5,J,D,44,15,objects,faces,50,50,Stimuli/Experimental_stims/objects/kuiye-chen-NuOGFo4PudE-unsplash.jpg,Stimuli/Experimental_stims/faces/erik-lucatero-d2MSDujJl2g-unsplash.jpg,0,NaN,NaN,NaN,unchosen,,,,,2500,0,5,4
73,90291,0,74,1,1,1,gain4,no_gain4,I,E,27,43,body_parts,objects,50,50,Stimuli/Experimental_stims/body_parts/heike-mintel-i_Gns0ELnLw-unsplash.jpg,Stimuli/Experimental_stims/objects/jonathan-greenaway-Y4hGgeiFn3s-unsplash.jpg,0,NaN,NaN,NaN,chosen,,,,,2600,0,5,4
74,90291,0,75,1,1,0,no_gain1,gain5,J,D,17,41,faces,objects,50,50,Stimuli/Experimental_stims/faces/good-faces-xmSWVeGEnJw-unsplash.jpg,Stimuli/Experimental_stims/objects/insung-yoon-w2JtIQQXoRU-unsplash.jpg,0,NaN,NaN,NaN,chosen,,,,,1100,0,5,4
75,90291,0,76,1,1,1,gain3,no_gain5,H,C,3,35,outdoor_scenes,body_parts,50,50,Stimuli/Experimental_stims/outdoor_scenes/henry-be-NLF6hTe4PAg-unsplash.jpg,Stimuli/Experimental_stims/body_parts/wc-so-KH4AAPjb-tI-unsplash.jpg,0,NaN,NaN,NaN,unchosen,,,,,4200,1,5,4
76,90291,0,77,2,2,1,gain4,no_gain6,I,K,8,45,outdoor_scenes,objects,50,50,Stimuli/Experimental_stims/outdoor_scenes/samsommer-vddccTqwal8-unsplash.jpg,Stimuli/Experimental_stims/objects/leohoho-rngTKHXumy0-unsplash.jpg,0,NaN,NaN,NaN,unchosen,,,,,1200,0,8,4
77,90291,0,78,2,2,1,gain4,no_gain3,I,F,8,29,outdoor_scenes,body_parts,50,50,Stimuli/Experimental_stims/outdoor_scenes/samsommer-vddccTqwal8-unsplash.jpg,Stimuli/Experimental_stims/body_parts/manuel-schinner-ZwjFuJ7ebpk-unsplash.jpg,0,NaN,NaN,NaN,unchosen,,,,,1400,0,8,4
78,90291,0,79,2,2,1,gain5,no_gain2,D,A,15,38,faces,objects,50,50,Stimuli/Experimental_stims/faces/erik-lucatero-d2MSDujJl2g-unsplash.jpg,Stimuli/Experimental_stims/objects/art-lasovsky-8XddFc6NkBY-unsplash.jpg,0,NaN,NaN,NaN,unchosen,,,,,2800,0,8,4
79,90291,0,80,2,2,0,no_gain3,gain1,F,L,22,28,faces,body_parts,50,50,Stimuli/Experimental_stims/faces/ravi-patel-VMGAbeeJTKo-unsplash.jpg,Stimuli/Experimental_stims/body_parts/ira-vishnevskaya-8DQAvdCby1I-unsplash.jpg,0,NaN,NaN,NaN,chosen,,,,,1700,0,8,4
80,90291,0,81,2,2,0,no_gain5,gain6,C,G,35,10,body_parts,outdoor_scenes,50,50,Stimuli/Experimental_stims/body_parts/wc-so-KH4AAPjb-tI-unsplash.jpg,Stimuli/Experimental_stims/outdoor_scenes/shannon-kunkle-dM8INmkyDas-unsplash.jpg,0,NaN,NaN,NaN,unchosen,,,,,3700,1,8,4
81,90291,0,82,2,2,1,gain1,no_gain4,L,E,19,33,faces,body_parts,50,50,Stimuli/Experimental_stims/faces/joel-mott-LaK153ghdig-unsplash.jpg,Stimuli/Experimental_stims/body_parts/tucker-good-36skLT5jZcc-unsplash.jpg,0,NaN,NaN,NaN,unchosen,,,,,2300,0,8,4
82,90291,0,83,2,2,0,no_gain1,gain1,J,L,17,28,faces,body_parts,50,50,Stimuli/Experimental_stims/faces/good-faces-xmSWVeGEnJw-unsplash.jpg,Stimuli/Experimental_stims/body_parts/ira-vishnevskaya-8DQAvdCby1I-unsplash.jpg,0,NaN,NaN,NaN,chosen,,,,,2900,0,8,4
83,90291,0,84,2,2,0,no_gain3,gain5,F,D,29,15,body_parts,faces,50,50,Stimuli/Experimental_stims/body_parts/manuel-schinner-ZwjFuJ7ebpk-unsplash.jpg,Stimuli/Experimental_stims/faces/erik-lucatero-d2MSDujJl2g-unsplash.jpg,0,NaN,NaN,NaN,unchosen,,,,,2300,0,8,4
84,90291,0,85,2,2,0,no_gain2,gain1,A,L,0,28,outdoor_scenes,body_parts,50,50,Stimuli/Experimental_stims/outdoor_scenes/aleksandra-boguslawska-MS7KD9Ti7FQ-unsplash.jpg,Stimuli/Experimental_stims/body_parts/ira-vishnevskaya-8DQAvdCby1I-unsplash.jpg,0,NaN,NaN,NaN,chosen,,,,,1200,0,8,4
85,90291,0,86,2,2,0,no_gain1,gain1,J,L,44,19,objects,faces,50,50,Stimuli/Experimental_stims/objects/kuiye-chen-NuOGFo4PudE-unsplash.jpg,Stimuli/Experimental_stims/faces/joel-mott-LaK153ghdig-unsplash.jpg,0,NaN,NaN,NaN,unchosen,,,,,3100,1,8,4
86,90291,0,87,2,2,0,no_gain2,gain4,A,I,0,27,outdoor_scenes,body_parts,50,50,Stimuli/Experimental_stims/outdoor_scenes/aleksandra-boguslawska-MS7KD9Ti7FQ-unsplash.jpg,Stimuli/Experimental_stims/body_parts/heike-mintel-i_Gns0ELnLw-unsplash.jpg,0,NaN,NaN,NaN,chosen,,,,,1200,0,8,4
87,90291,0,88,2,2,0,no_gain5,gain2,C,B,35,18,body_parts,faces,50,50,Stimuli/Experimental_stims/body_parts/wc-so-KH4AAPjb-tI-unsplash.jpg,Stimuli/Experimental_stims/faces/jessica-radanavong-mrYkTuAesKE-unsplash.jpg,0,NaN,NaN,NaN,unchosen,,,,,1900,0,8,4
88,90291,0,89,2,2,1,gain6,no_gain1,G,J,42,17,objects,faces,50,50,Stimuli/Experimental_stims/objects/jess-bailey-nOeVi8DsN8U-unsplash.jpg,Stimuli/Experimental_stims/faces/good-faces-xmSWVeGEnJw-unsplash.jpg,0,NaN,NaN,NaN,chosen,,,,,2800,0,8,4
89,90291,0,90,2,2,1,gain5,no_gain3,D,F,41,22,objects,faces,50,50,Stimuli/Experimental_stims/objects/insung-yoon-w2JtIQQXoRU-unsplash.jpg,Stimuli/Experimental_stims/faces/ravi-patel-VMGAbeeJTKo-unsplash.jpg,0,NaN,NaN,NaN,chosen,,,,,1200,0,8,4
90,90291,0,91,2,2,1,gain4,no_gain4,I,E,8,33,outdoor_scenes,body_parts,50,50,Stimuli/Experimental_stims/outdoor_scenes/samsommer-vddccTqwal8-unsplash.jpg,Stimuli/Experimental_stims/body_parts/tucker-good-36skLT5jZcc-unsplash.jpg,0,NaN,NaN,NaN,unchosen,,,,,3800,1,8,4
91,90291,0,92,2,2,0,no_gain1,gain2,J,B,44,18,objects,faces,50,50,Stimuli/Experimental_stims/objects/kuiye-chen-NuOGFo4PudE-unsplash.jpg,Stimuli/Experimental_stims/faces/jessica-radanavong-mrYkTuAesKE-unsplash.jpg,0,NaN,NaN,NaN,unchosen,,,,,1800,0,8,4
92,90291,0,93,2,2,0,no_gain3,gain4,F,I,22,27,faces,body_parts,50,50,Stimuli/Experimental_stims/faces/ravi-patel-VMGAbeeJTKo-unsplash.jpg,Stimuli/Experimental_stims/body_parts/heike-mintel-i_Gns0ELnLw-unsplash.jpg,0,NaN,NaN,NaN,chosen,,,,,2300,0,8,4
93,90291,0,94,2,2,1,gain5,no_gain1,D,J,41,17,objects,faces,50,50,Stimuli/Experimental_stims/objects/insung-yoon-w2JtIQQXoRU-unsplash.jpg,Stimuli/Experimental_stims/faces/good-faces-xmSWVeGEnJw-unsplash.jpg,0,NaN,NaN,NaN,chosen,,,,,1400,0,8,4
94,90291,0,95,2,2,0,no_gain5,gain4,C,I,35,8,body_parts,outdoor_scenes,50,50,Stimuli/Experimental_stims/body_parts/wc-so-KH4AAPjb-tI-unsplash.jpg,Stimuli/Experimental_stims/outdoor_scenes/samsommer-vddccTqwal8-unsplash.jpg,0,NaN,NaN,NaN,unchosen,,,,,1300,0,8,4
95,90291,0,96,2,2,1,gain4,no_gain5,I,C,27,11,body_parts,outdoor_scenes,50,50,Stimuli/Experimental_stims/body_parts/heike-mintel-i_Gns0ELnLw-unsplash.jpg,Stimuli/Experimental_stims/outdoor_scenes/stephen-leonardi-gyIRjKPXupE-unsplash.jpg,0,NaN,NaN,NaN,chosen,,,,,1700,0,8,4
96,90291,0,97,2,2,1,gain5,no_gain1,D,J,15,44,faces,objects,50,50,Stimuli/Experimental_stims/faces/erik-lucatero-d2MSDujJl2g-unsplash.jpg,Stimuli/Experimental_stims/objects/kuiye-chen-NuOGFo4PudE-unsplash.jpg,0,NaN,NaN,NaN,unchosen,,,,,3100,1,8,4
97,90291,0,98,2,2,1,gain1,no_gain6,L,K,28,32,body_parts,body_parts,50,50,Stimuli/Experimental_stims/body_parts/ira-vishnevskaya-8DQAvdCby1I-unsplash.jpg,Stimuli/Experimental_stims/body_parts/towfiqu-barbhuiya-3AsiVDsZnHg-unsplash.jpg,0,NaN,NaN,NaN,chosen,,,,,1300,0,8,4
98,90291,0,99,2,2,0,no_gain2,gain1,A,L,38,19,objects,faces,50,50,Stimuli/Experimental_stims/objects/art-lasovsky-8XddFc6NkBY-unsplash.jpg,Stimuli/Experimental_stims/faces/joel-mott-LaK153ghdig-unsplash.jpg,0,NaN,NaN,NaN,unchosen,,,,,2100,0,8,4
99,90291,0,100,2,2,1,gain2,no_gain3,B,F,2,22,outdoor_scenes,faces,50,50,Stimuli/Experimental_stims/outdoor_scenes/bruno-van-der-kraan-qez8mNJ3ilU-unsplash.jpg,Stimuli/Experimental_stims/faces/ravi-patel-VMGAbeeJTKo-unsplash.jpg,0,NaN,NaN,NaN,chosen,,,,,1000,0,8,4
100,90291,0,101,2,2,1,gain2,no_gain2,B,A,2,0,outdoor_scenes,outdoor_scenes,50,50,Stimuli/Experimental_stims/outdoor_scenes/bruno-van-der-kraan-qez8mNJ3ilU-unsplash.jpg,Stimuli/Experimental_stims/outdoor_scenes/aleksandra-boguslawska-MS7KD9Ti7FQ-unsplash.jpg,0,NaN,NaN,NaN,chosen,,,,,1200,0,8,4
101,90291,0,102,2,2,1,gain3,no_gain1,H,J,23,17,faces,faces,50,50,Stimuli/Experimental_stims/faces/rikonavt-HQjfrvdTfak-unsplash.jpg,Stimuli/Experimental_stims/faces/good-faces-xmSWVeGEnJw-unsplash.jpg,0,NaN,NaN,NaN,chosen,,,,,1700,0,8,4
102,90291,0,103,2,2,0,no_gain5,gain5,C,D,35,15,body_parts,faces,50,50,Stimuli/Experimental_stims/body_parts/wc-so-KH4AAPjb-tI-unsplash.jpg,Stimuli/Experimental_stims/faces/erik-lucatero-d2MSDujJl2g-unsplash.jpg,0,NaN,NaN,NaN,unchosen,,,,,1100,0,8,4
103,90291,0,104,2,2,0,no_gain6,gain5,K,D,32,41,body_parts,objects,50,50,Stimuli/Experimental_stims/body_parts/towfiqu-barbhuiya-3AsiVDsZnHg-unsplash.jpg,Stimuli/Experimental_stims/objects/insung-yoon-w2JtIQQXoRU-unsplash.jpg,0,NaN,NaN,NaN,chosen,,,,,1900,0,8,4
104,90291,0,105,2,2,0,no_gain2,gain3,A,H,0,23,outdoor_scenes,faces,50,50,Stimuli/Experimental_stims/outdoor_scenes/aleksandra-boguslawska-MS7KD9Ti7FQ-unsplash.jpg,Stimuli/Experimental_stims/faces/rikonavt-HQjfrvdTfak-unsplash.jpg,0,NaN,NaN,NaN,chosen,,,,,4100,1,8,4
105,90291,0,106,2,2,0,no_gain1,gain4,J,I,44,8,objects,outdoor_scenes,50,50,Stimuli/Experimental_stims/objects/kuiye-chen-NuOGFo4PudE-unsplash.jpg,Stimuli/Experimental_stims/outdoor_scenes/samsommer-vddccTqwal8-unsplash.jpg,0,NaN,NaN,NaN,unchosen,,,,,1400,0,8,4
106,90291,0,107,2,2,0,no_gain4,gain2,E,B,33,18,body_parts,faces,50,50,Stimuli/Experimental_stims/body_parts/tucker-good-36skLT5jZcc-unsplash.jpg,Stimuli/Experimental_stims/faces/jessica-radanavong-mrYkTuAesKE-unsplash.jpg,0,NaN,NaN,NaN,unchosen,,,,,2400,0,8,4
107,90291,0,108,2,2,0,no_gain5,gain1,C,L,11,28,outdoor_scenes,body_parts,50,50,Stimuli/Experimental_stims/outdoor_scenes/stephen-leonardi-gyIRjKPXupE-unsplash.jpg,Stimuli/Experimental_stims/body_parts/ira-vishnevskaya-8DQAvdCby1I-unsplash.jpg,0,NaN,NaN,NaN,chosen,,,,,1200,0,8,4
108,90291,0,109,2,2,1,gain6,no_gain1,G,J,10,44,outdoor_scenes,objects,50,50,Stimuli/Experimental_stims/outdoor_scenes/shannon-kunkle-dM8INmkyDas-unsplash.jpg,Stimuli/Experimental_stims/objects/kuiye-chen-NuOGFo4PudE-unsplash.jpg,0,NaN,NaN,NaN,unchosen,,,,,1500,0,8,4
109,90291,0,110,2,2,1,gain1,no_gain6,L,K,19,45,faces,objects,50,50,Stimuli/Experimental_stims/faces/joel-mott-LaK153ghdig-unsplash.jpg,Stimuli/Experimental_stims/objects/leohoho-rngTKHXumy0-unsplash.jpg,0,NaN,NaN,NaN,unchosen,,,,,3200,1,8,4
110,90291,0,111,2,2,0,no_gain5,gain2,C,B,11,2,outdoor_scenes,outdoor_scenes,50,50,Stimuli/Experimental_stims/outdoor_scenes/stephen-leonardi-gyIRjKPXupE-unsplash.jpg,Stimuli/Experimental_stims/outdoor_scenes/bruno-van-der-kraan-qez8mNJ3ilU-unsplash.jpg,0,NaN,NaN,NaN,chosen,,,,,1800,0,8,4
111,90291,0,112,2,2,0,no_gain5,gain1,C,L,35,19,body_parts,faces,50,50,Stimuli/Experimental_stims/body_parts/wc-so-KH4AAPjb-tI-unsplash.jpg,Stimuli/Experimental_stims/faces/joel-mott-LaK153ghdig-unsplash.jpg,0,NaN,NaN,NaN,unchosen,,,,,1100,0,8,4
112,90291,0,113,2,2,1,gain2,no_gain6,B,K,18,45,faces,objects,50,50,Stimuli/Experimental_stims/faces/jessica-radanavong-mrYkTuAesKE-unsplash.jpg,Stimuli/Experimental_stims/objects/leohoho-rngTKHXumy0-unsplash.jpg,0,NaN,NaN,NaN,unchosen,,,,,1700,0,8,4
113,90291,0,114,2,2,1,gain6,no_gain4,G,E,42,43,objects,objects,50,50,Stimuli/Experimental_stims/objects/jess-bailey-nOeVi8DsN8U-unsplash.jpg,Stimuli/Experimental_stims/objects/jonathan-greenaway-Y4hGgeiFn3s-unsplash.jpg,0,NaN,NaN,NaN,chosen,,,,,2700,0,8,4
114,90291,0,115,2,2,1,gain6,no_gain3,G,F,10,29,outdoor_scenes,body_parts,50,50,Stimuli/Experimental_stims/outdoor_scenes/shannon-kunkle-dM8INmkyDas-unsplash.jpg,Stimuli/Experimental_stims/body_parts/manuel-schinner-ZwjFuJ7ebpk-unsplash.jpg,0,NaN,NaN,NaN,unchosen,,,,,1100,0,8,4
115,90291,0,116,2,2,0,no_gain6,gain4,K,I,32,27,body_parts,body_parts,50,50,Stimuli/Experimental_stims/body_parts/towfiqu-barbhuiya-3AsiVDsZnHg-unsplash.jpg,Stimuli/Experimental_stims/body_parts/heike-mintel-i_Gns0ELnLw-unsplash.jpg,0,NaN,NaN,NaN,chosen,,,,,1100,0,8,4
116,90291,0,117,2,2,0,no_gain1,gain3,J,H,44,3,objects,outdoor_scenes,50,50,Stimuli/Experimental_stims/objects/kuiye-chen-NuOGFo4PudE-unsplash.jpg,Stimuli/Experimental_stims/outdoor_scenes/henry-be-NLF6hTe4PAg-unsplash.jpg,0,NaN,NaN,NaN,unchosen,,,,,2400,0,8,4
117,90291,0,118,2,2,1,gain3,no_gain6,H,K,23,32,faces,body_parts,50,50,Stimuli/Experimental_stims/faces/rikonavt-HQjfrvdTfak-unsplash.jpg,Stimuli/Experimental_stims/body_parts/towfiqu-barbhuiya-3AsiVDsZnHg-unsplash.jpg,0,NaN,NaN,NaN,chosen,,,,,3400,1,8,4
118,90291,0,119,2,2,1,gain3,no_gain3,H,F,23,22,faces,faces,50,50,Stimuli/Experimental_stims/faces/rikonavt-HQjfrvdTfak-unsplash.jpg,Stimuli/Experimental_stims/faces/ravi-patel-VMGAbeeJTKo-unsplash.jpg,0,NaN,NaN,NaN,chosen,,,,,2000,0,8,4
119,90291,0,120,2,2,0,no_gain6,gain3,K,H,45,3,objects,outdoor_scenes,50,50,Stimuli/Experimental_stims/objects/leohoho-rngTKHXumy0-unsplash.jpg,Stimuli/Experimental_stims/outdoor_scenes/henry-be-NLF6hTe4PAg-unsplash.jpg,0,NaN,NaN,NaN,unchosen,,,,,2100,0,8,4
120,90291,0,121,2,2,0,no_gain2,gain6,A,G,38,10,objects,outdoor_scenes,50,50,Stimuli/Experimental_stims/objects/art-lasovsky-8XddFc6NkBY-unsplash.jpg,Stimuli/Experimental_stims/outdoor_scenes/shannon-kunkle-dM8INmkyDas-unsplash.jpg,0,NaN,NaN,NaN,unchosen,,,,,2500,0,8,4
121,90291,0,122,2,2,1,gain5,no_gain4,D,E,15,33,faces,body_parts,50,50,Stimuli/Experimental_stims/faces/erik-lucatero-d2MSDujJl2g-unsplash.jpg,Stimuli/Experimental_stims/body_parts/tucker-good-36skLT5jZcc-unsplash.jpg,0,NaN,NaN,NaN,unchosen,,,,,1600,0,8,4
122,90291,0,123,2,2,1,gain2,no_gain4,B,E,2,43,outdoor_scenes,objects,50,50,Stimuli/Experimental_stims/outdoor_scenes/bruno-van-der-kraan-qez8mNJ3ilU-unsplash.jpg,Stimuli/Experimental_stims/objects/jonathan-greenaway-Y4hGgeiFn3s-unsplash.jpg,0,NaN,NaN,NaN,chosen,,,,,2400,0,8,4
123,90291,0,124,2,2,1,gain4,no_gain1,I,J,27,17,body_parts,faces,50,50,Stimuli/Experimental_stims/body_parts/heike-mintel-i_Gns0ELnLw-unsplash.jpg,Stimuli/Experimental_stims/faces/good-faces-xmSWVeGEnJw-unsplash.jpg,0,NaN,NaN,NaN,chosen,,,,,1300,0,8,4
124,90291,0,125,2,2,1,gain3,no_gain4,H,E,3,33,outdoor_scenes,body_parts,50,50,Stimuli/Experimental_stims/outdoor_scenes/henry-be-NLF6hTe4PAg-unsplash.jpg,Stimuli/Experimental_stims/body_parts/tucker-good-36skLT5jZcc-unsplash.jpg,0,NaN,NaN,NaN,unchosen,,,,,1900,0,8,4
125,90291,0,126,2,2,1,gain2,no_gain1,B,J,2,17,outdoor_scenes,faces,50,50,Stimuli/Experimental_stims/outdoor_scenes/bruno-van-der-kraan-qez8mNJ3ilU-unsplash.jpg,Stimuli/Experimental_stims/faces/good-faces-xmSWVeGEnJw-unsplash.jpg,0,NaN,NaN,NaN,chosen,,,,,1600,0,8,4
126,90291,0,127,2,2,0,no_gain2,gain5,A,D,0,41,outdoor_scenes,objects,50,50,Stimuli/Experimental_stims/outdoor_scenes/aleksandra-boguslawska-MS7KD9Ti7FQ-unsplash.jpg,Stimuli/Experimental_stims/objects/insung-yoon-w2JtIQQXoRU-unsplash.jpg,0,NaN,NaN,NaN,chosen,,,,,1100,0,8,4
127,90291,0,128,2,2,1,gain3,no_gain2,H,A,3,38,outdoor_scenes,objects,50,50,Stimuli/Experimental_stims/outdoor_scenes/henry-be-NLF6hTe4PAg-unsplash.jpg,Stimuli/Experimental_stims/objects/art-lasovsky-8XddFc6NkBY-unsplash.jpg,0,NaN,NaN,NaN,unchosen,,,,,1200,0,8,4
128,90291,0,129,2,2,1,gain3,no_gain3,H,F,3,29,outdoor_scenes,body_parts,50,50,Stimuli/Experimental_stims/outdoor_scenes/henry-be-NLF6hTe4PAg-unsplash.jpg,Stimuli/Experimental_stims/body_parts/manuel-schinner-ZwjFuJ7ebpk-unsplash.jpg,0,NaN,NaN,NaN,unchosen,,,,,1300,0,8,4
129,90291,0,130,2,2,1,gain4,no_gain4,I,E,27,43,body_parts,objects,50,50,Stimuli/Experimental_stims/body_parts/heike-mintel-i_Gns0ELnLw-unsplash.jpg,Stimuli/Experimental_stims/objects/jonathan-greenaway-Y4hGgeiFn3s-unsplash.jpg,0,NaN,NaN,NaN,chosen,,,,,1000,0,8,4
130,90291,0,131,2,2,0,no_gain4,gain1,E,L,43,28,objects,body_parts,50,50,Stimuli/Experimental_stims/objects/jonathan-greenaway-Y4hGgeiFn3s-unsplash.jpg,Stimuli/Experimental_stims/body_parts/ira-vishnevskaya-8DQAvdCby1I-unsplash.jpg,0,NaN,NaN,NaN,chosen,,,,,2900,0,8,4
131,90291,0,132,2,2,0,no_gain2,gain6,A,G,0,42,outdoor_scenes,objects,50,50,Stimuli/Experimental_stims/outdoor_scenes/aleksandra-boguslawska-MS7KD9Ti7FQ-unsplash.jpg,Stimuli/Experimental_stims/objects/jess-bailey-nOeVi8DsN8U-unsplash.jpg,0,NaN,NaN,NaN,chosen,,,,,2200,0,8,4
132,90291,0,133,2,2,0,no_gain3,gain2,F,B,29,18,body_parts,faces,50,50,Stimuli/Experimental_stims/body_parts/manuel-schinner-ZwjFuJ7ebpk-unsplash.jpg,Stimuli/Experimental_stims/faces/jessica-radanavong-mrYkTuAesKE-unsplash.jpg,0,NaN,NaN,NaN,unchosen,,,,,3200,1,8,4
133,90291,0,134,2,2,1,gain1,no_gain3,L,F,19,29,faces,body_parts,50,50,Stimuli/Experimental_stims/faces/joel-mott-LaK153ghdig-unsplash.jpg,Stimuli/Experimental_stims/body_parts/manuel-schinner-ZwjFuJ7ebpk-unsplash.jpg,0,NaN,NaN,NaN,unchosen,,,,,2600,0,8,4
134,90291,0,135,2,2,0,no_gain6,gain6,K,G,45,10,objects,outdoor_scenes,50,50,Stimuli/Experimental_stims/objects/leohoho-rngTKHXumy0-unsplash.jpg,Stimuli/Experimental_stims/outdoor_scenes/shannon-kunkle-dM8INmkyDas-unsplash.jpg,0,NaN,NaN,NaN,unchosen,,,,,1200,0,8,4
135,90291,0,136,2,2,0,no_gain4,gain3,E,H,43,23,objects,faces,50,50,Stimuli/Experimental_stims/objects/jonathan-greenaway-Y4hGgeiFn3s-unsplash.jpg,Stimuli/Experimental_stims/faces/rikonavt-HQjfrvdTfak-unsplash.jpg,0,NaN,NaN,NaN,chosen,,,,,1100,0,8,4
136,90291,0,137,2,2,1,gain5,no_gain6,D,K,15,45,faces,objects,50,50,Stimuli/Experimental_stims/faces/erik-lucatero-d2MSDujJl2g-unsplash.jpg,Stimuli/Experimental_stims/objects/leohoho-rngTKHXumy0-unsplash.jpg,0,NaN,NaN,NaN,unchosen,,,,,2000,0,8,4
137,90291,0,138,2,2,0,no_gain6,gain2,K,B,32,2,body_parts,outdoor_scenes,50,50,Stimuli/Experimental_stims/body_parts/towfiqu-barbhuiya-3AsiVDsZnHg-unsplash.jpg,Stimuli/Experimental_stims/outdoor_scenes/bruno-van-der-kraan-qez8mNJ3ilU-unsplash.jpg,0,NaN,NaN,NaN,chosen,,,,,4100,1,8,4
138,90291,0,139,2,2,0,no_gain2,gain4,A,I,38,8,objects,outdoor_scenes,50,50,Stimuli/Experimental_stims/objects/art-lasovsky-8XddFc6NkBY-unsplash.jpg,Stimuli/Experimental_stims/outdoor_scenes/samsommer-vddccTqwal8-unsplash.jpg,0,NaN,NaN,NaN,unchosen,,,,,1700,0,8,4
139,90291,0,140,2,2,0,no_gain2,gain2,A,B,38,18,objects,faces,50,50,Stimuli/Experimental_stims/objects/art-lasovsky-8XddFc6NkBY-unsplash.jpg,Stimuli/Experimental_stims/faces/jessica-radanavong-mrYkTuAesKE-unsplash.jpg,0,NaN,NaN,NaN,unchosen,,,,,1200,0,8,4
140,90291,0,141,2,2,1,gain6,no_gain3,G,F,42,22,objects,faces,50,50,Stimuli/Experimental_stims/objects/jess-bailey-nOeVi8DsN8U-unsplash.jpg,Stimuli/Experimental_stims/faces/ravi-patel-VMGAbeeJTKo-unsplash.jpg,0,NaN,NaN,NaN,chosen,,,,,1000,0,8,4
141,90291,0,142,2,2,0,no_gain5,gain5,C,D,11,41,outdoor_scenes,objects,50,50,Stimuli/Experimental_stims/outdoor_scenes/stephen-leonardi-gyIRjKPXupE-unsplash.jpg,Stimuli/Experimental_stims/objects/insung-yoon-w2JtIQQXoRU-unsplash.jpg,0,NaN,NaN,NaN,chosen,,,,,1800,0,8,4
142,90291,0,143,2,2,0,no_gain5,gain6,C,G,11,42,outdoor_scenes,objects,50,50,Stimuli/Experimental_stims/outdoor_scenes/stephen-leonardi-gyIRjKPXupE-unsplash.jpg,Stimuli/Experimental_stims/objects/jess-bailey-nOeVi8DsN8U-unsplash.jpg,0,NaN,NaN,NaN,chosen,,,,,3500,1,8,4
143,90291,0,144,2,2,1,gain6,no_gain4,G,E,10,33,outdoor_scenes,body_parts,50,50,Stimuli/Experimental_stims/outdoor_scenes/shannon-kunkle-dM8INmkyDas-unsplash.jpg,Stimuli/Experimental_stims/body_parts/tucker-good-36skLT5jZcc-unsplash.jpg,0,NaN,NaN,NaN,unchosen,,,,,2700,0,8,4
144,90291,0,145,2,2,1,gain6,no_gain6,G,K,42,32,objects,body_parts,50,50,Stimuli/Experimental_stims/objects/jess-bailey-nOeVi8DsN8U-unsplash.jpg,Stimuli/Experimental_stims/body_parts/towfiqu-barbhuiya-3AsiVDsZnHg-unsplash.jpg,0,NaN,NaN,NaN,chosen,,,,,2400,0,8,4
145,90291,0,146,2,2,1,gain3,no_gain5,H,C,3,35,outdoor_scenes,body_parts,50,50,Stimuli/Experimental_stims/outdoor_scenes/henry-be-NLF6hTe4PAg-unsplash.jpg,Stimuli/Experimental_stims/body_parts/wc-so-KH4AAPjb-tI-unsplash.jpg,0,NaN,NaN,NaN,unchosen,,,,,1400,0,8,4
146,90291,0,147,2,2,1,gain5,no_gain4,D,E,41,43,objects,objects,50,50,Stimuli/Experimental_stims/objects/insung-yoon-w2JtIQQXoRU-unsplash.jpg,Stimuli/Experimental_stims/objects/jonathan-greenaway-Y4hGgeiFn3s-unsplash.jpg,0,NaN,NaN,NaN,chosen,,,,,1200,0,8,4
147,90291,0,148,2,2,0,no_gain5,gain3,C,H,11,23,outdoor_scenes,faces,50,50,Stimuli/Experimental_stims/outdoor_scenes/stephen-leonardi-gyIRjKPXupE-unsplash.jpg,Stimuli/Experimental_stims/faces/rikonavt-HQjfrvdTfak-unsplash.jpg,0,NaN,NaN,NaN,chosen,,,,,3300,1,8,4
148,90291,0,149,3,3,1,gain5,no_gain3,D,F,41,22,objects,faces,50,50,Stimuli/Experimental_stims/objects/insung-yoon-w2JtIQQXoRU-unsplash.jpg,Stimuli/Experimental_stims/faces/ravi-patel-VMGAbeeJTKo-unsplash.jpg,0,NaN,NaN,NaN,chosen,,,,,3900,1,7,4
149,90291,0,150,3,3,0,no_gain3,gain4,F,I,22,27,faces,body_parts,50,50,Stimuli/Experimental_stims/faces/ravi-patel-VMGAbeeJTKo-unsplash.jpg,Stimuli/Experimental_stims/body_parts/heike-mintel-i_Gns0ELnLw-unsplash.jpg,0,NaN,NaN,NaN,chosen,,,,,1200,0,7,4
150,90291,0,151,3,3,1,gain6,no_gain3,G,F,42,22,objects,faces,50,50,Stimuli/Experimental_stims/objects/jess-bailey-nOeVi8DsN8U-unsplash.jpg,Stimuli/Experimental_stims/faces/ravi-patel-VMGAbeeJTKo-unsplash.jpg,0,NaN,NaN,NaN,chosen,,,,,1500,0,7,4
151,90291,0,152,3,3,1,gain4,no_gain4,I,E,8,33,outdoor_scenes,body_parts,50,50,Stimuli/Experimental_stims/outdoor_scenes/samsommer-vddccTqwal8-unsplash.jpg,Stimuli/Experimental_stims/body_parts/tucker-good-36skLT5jZcc-unsplash.jpg,0,NaN,NaN,NaN,unchosen,,,,,2700,0,7,4
152,90291,0,153,3,3,1,gain5,no_gain5,D,C,15,35,faces,body_parts,50,50,Stimuli/Experimental_stims/faces/erik-lucatero-d2MSDujJl2g-unsplash.jpg,Stimuli/Experimental_stims/body_parts/wc-so-KH4AAPjb-tI-unsplash.jpg,0,NaN,NaN,NaN,unchosen,,,,,1300,0,7,4
153,90291,0,154,3,3,0,no_gain6,gain1,K,L,32,28,body_parts,body_parts,50,50,Stimuli/Experimental_stims/body_parts/towfiqu-barbhuiya-3AsiVDsZnHg-unsplash.jpg,Stimuli/Experimental_stims/body_parts/ira-vishnevskaya-8DQAvdCby1I-unsplash.jpg,0,NaN,NaN,NaN,chosen,,,,,1000,0,7,4
154,90291,0,155,3,3,1,gain1,no_gain3,L,F,28,22,body_parts,faces,50,50,Stimuli/Experimental_stims/body_parts/ira-vishnevskaya-8DQAvdCby1I-unsplash.jpg,Stimuli/Experimental_stims/faces/ravi-patel-VMGAbeeJTKo-unsplash.jpg,0,NaN,NaN,NaN,chosen,,,,,3000,1,7,4
155,90291,0,156,3,3,0,no_gain2,gain3,A,H,38,3,objects,outdoor_scenes,50,50,Stimuli/Experimental_stims/objects/art-lasovsky-8XddFc6NkBY-unsplash.jpg,Stimuli/Experimental_stims/outdoor_scenes/henry-be-NLF6hTe4PAg-unsplash.jpg,0,NaN,NaN,NaN,unchosen,,,,,2800,0,7,4
156,90291,0,157,3,3,1,gain3,no_gain5,H,C,23,11,faces,outdoor_scenes,50,50,Stimuli/Experimental_stims/faces/rikonavt-HQjfrvdTfak-unsplash.jpg,Stimuli/Experimental_stims/outdoor_scenes/stephen-leonardi-gyIRjKPXupE-unsplash.jpg,0,NaN,NaN,NaN,chosen,,,,,1400,0,7,4
157,90291,0,158,3,3,1,gain1,no_gain1,L,J,28,17,body_parts,faces,50,50,Stimuli/Experimental_stims/body_parts/ira-vishnevskaya-8DQAvdCby1I-unsplash.jpg,Stimuli/Experimental_stims/faces/good-faces-xmSWVeGEnJw-unsplash.jpg,0,NaN,NaN,NaN,chosen,,,,,2500,0,7,4
158,90291,0,159,3,3,0,no_gain3,gain2,F,B,29,18,body_parts,faces,50,50,Stimuli/Experimental_stims/body_parts/manuel-schinner-ZwjFuJ7ebpk-unsplash.jpg,Stimuli/Experimental_stims/faces/jessica-radanavong-mrYkTuAesKE-unsplash.jpg,0,NaN,NaN,NaN,unchosen,,,,,1600,0,7,4
159,90291,0,160,3,3,1,gain2,no_gain4,B,E,18,33,faces,body_parts,50,50,Stimuli/Experimental_stims/faces/jessica-radanavong-mrYkTuAesKE-unsplash.jpg,Stimuli/Experimental_stims/body_parts/tucker-good-36skLT5jZcc-unsplash.jpg,0,NaN,NaN,NaN,unchosen,,,,,3600,1,7,4
160,90291,0,161,3,3,0,no_gain4,gain5,E,D,33,15,body_parts,faces,50,50,Stimuli/Experimental_stims/body_parts/tucker-good-36skLT5jZcc-unsplash.jpg,Stimuli/Experimental_stims/faces/erik-lucatero-d2MSDujJl2g-unsplash.jpg,0,NaN,NaN,NaN,unchosen,,,,,1200,0,7,4
161,90291,0,162,3,3,0,no_gain5,gain4,C,I,11,27,outdoor_scenes,body_parts,50,50,Stimuli/Experimental_stims/outdoor_scenes/stephen-leonardi-gyIRjKPXupE-unsplash.jpg,Stimuli/Experimental_stims/body_parts/heike-mintel-i_Gns0ELnLw-unsplash.jpg,0,NaN,NaN,NaN,chosen,,,,,1800,0,7,4
162,90291,0,163,3,3,1,gain2,no_gain5,B,C,2,11,outdoor_scenes,outdoor_scenes,50,50,Stimuli/Experimental_stims/outdoor_scenes/bruno-van-der-kraan-qez8mNJ3ilU-unsplash.jpg,Stimuli/Experimental_stims/outdoor_scenes/stephen-leonardi-gyIRjKPXupE-unsplash.jpg,0,NaN,NaN,NaN,chosen,,,,,2800,0,7,4
163,90291,0,164,3,3,1,gain5,no_gain6,D,K,15,45,faces,objects,50,50,Stimuli/Experimental_stims/faces/erik-lucatero-d2MSDujJl2g-unsplash.jpg,Stimuli/Experimental_stims/objects/leohoho-rngTKHXumy0-unsplash.jpg,0,NaN,NaN,NaN,unchosen,,,,,2100,0,7,4
164,90291,0,165,3,3,0,no_gain4,gain3,E,H,43,23,objects,faces,50,50,Stimuli/Experimental_stims/objects/jonathan-greenaway-Y4hGgeiFn3s-unsplash.jpg,Stimuli/Experimental_stims/faces/rikonavt-HQjfrvdTfak-unsplash.jpg,0,NaN,NaN,NaN,chosen,,,,,1500,0,7,4
165,90291,0,166,3,3,0,no_gain1,gain5,J,D,17,41,faces,objects,50,50,Stimuli/Experimental_stims/faces/good-faces-xmSWVeGEnJw-unsplash.jpg,Stimuli/Experimental_stims/objects/insung-yoon-w2JtIQQXoRU-unsplash.jpg,0,NaN,NaN,NaN,chosen,,,,,2100,0,7,4
166,90291,0,167,3,3,0,no_gain3,gain2,F,B,22,2,faces,outdoor_scenes,50,50,Stimuli/Experimental_stims/faces/ravi-patel-VMGAbeeJTKo-unsplash.jpg,Stimuli/Experimental_stims/outdoor_scenes/bruno-van-der-kraan-qez8mNJ3ilU-unsplash.jpg,0,NaN,NaN,NaN,chosen,,,,,3600,1,7,4
167,90291,0,168,3,3,1,gain6,no_gain4,G,E,10,33,outdoor_scenes,body_parts,50,50,Stimuli/Experimental_stims/outdoor_scenes/shannon-kunkle-dM8INmkyDas-unsplash.jpg,Stimuli/Experimental_stims/body_parts/tucker-good-36skLT5jZcc-unsplash.jpg,0,NaN,NaN,NaN,unchosen,,,,,1300,0,7,4
168,90291,0,169,3,3,0,no_gain4,gain2,E,B,43,2,objects,outdoor_scenes,50,50,Stimuli/Experimental_stims/objects/jonathan-greenaway-Y4hGgeiFn3s-unsplash.jpg,Stimuli/Experimental_stims/outdoor_scenes/bruno-van-der-kraan-qez8mNJ3ilU-unsplash.jpg,0,NaN,NaN,NaN,chosen,,,,,2700,0,7,4
169,90291,0,170,3,3,1,gain1,no_gain4,L,E,19,33,faces,body_parts,50,50,Stimuli/Experimental_stims/faces/joel-mott-LaK153ghdig-unsplash.jpg,Stimuli/Experimental_stims/body_parts/tucker-good-36skLT5jZcc-unsplash.jpg,0,NaN,NaN,NaN,unchosen,,,,,1400,0,7,4
170,90291,0,171,3,3,0,no_gain2,gain4,A,I,38,8,objects,outdoor_scenes,50,50,Stimuli/Experimental_stims/objects/art-lasovsky-8XddFc6NkBY-unsplash.jpg,Stimuli/Experimental_stims/outdoor_scenes/samsommer-vddccTqwal8-unsplash.jpg,0,NaN,NaN,NaN,unchosen,,,,,2300,0,7,4
171,90291,0,172,3,3,0,no_gain1,gain1,J,L,44,19,objects,faces,50,50,Stimuli/Experimental_stims/objects/kuiye-chen-NuOGFo4PudE-unsplash.jpg,Stimuli/Experimental_stims/faces/joel-mott-LaK153ghdig-unsplash.jpg,0,NaN,NaN,NaN,unchosen,,,,,3400,1,7,4
172,90291,0,173,3,3,1,gain4,no_gain2,I,A,27,0,body_parts,outdoor_scenes,50,50,Stimuli/Experimental_stims/body_parts/heike-mintel-i_Gns0ELnLw-unsplash.jpg,Stimuli/Experimental_stims/outdoor_scenes/aleksandra-boguslawska-MS7KD9Ti7FQ-unsplash.jpg,0,NaN,NaN,NaN,chosen,,,,,1200,0,7,4
173,90291,0,174,3,3,0,no_gain6,gain6,K,G,45,10,objects,outdoor_scenes,50,50,Stimuli/Experimental_stims/objects/leohoho-rngTKHXumy0-unsplash.jpg,Stimuli/Experimental_stims/outdoor_scenes/shannon-kunkle-dM8INmkyDas-unsplash.jpg,0,NaN,NaN,NaN,unchosen,,,,,2500,0,7,4
174,90291,0,175,3,3,1,gain3,no_gain3,H,F,23,22,faces,faces,50,50,Stimuli/Experimental_stims/faces/rikonavt-HQjfrvdTfak-unsplash.jpg,Stimuli/Experimental_stims/faces/ravi-patel-VMGAbeeJTKo-unsplash.jpg,0,NaN,NaN,NaN,chosen,,,,,2600,0,7,4
175,90291,0,176,3,3,0,no_gain2,gain6,A,G,38,10,objects,outdoor_scenes,50,50,Stimuli/Experimental_stims/objects/art-lasovsky-8XddFc6NkBY-unsplash.jpg,Stimuli/Experimental_stims/outdoor_scenes/shannon-kunkle-dM8INmkyDas-unsplash.jpg,0,NaN,NaN,NaN,unchosen,,,,,2100,0,7,4
176,90291,0,177,3,3,1,gain1,no_gain5,L,C,28,11,body_parts,outdoor_scenes,50,50,Stimuli/Experimental_stims/body_parts/ira-vishnevskaya-8DQAvdCby1I-unsplash.jpg,Stimuli/Experimental_stims/outdoor_scenes/stephen-leonardi-gyIRjKPXupE-unsplash.jpg,0,NaN,NaN,NaN,chosen,,,,,3300,1,7,4
177,90291,0,178,3,3,0,no_gain1,gain5,J,D,44,15,objects,faces,50,50,Stimuli/Experimental_stims/objects/kuiye-chen-NuOGFo4PudE-unsplash.jpg,Stimuli/Experimental_stims/faces/erik-lucatero-d2MSDujJl2g-unsplash.jpg,0,NaN,NaN,NaN,unchosen,,,,,1200,0,7,4
178,90291,0,179,3,3,1,gain2,no_gain6,B,K,2,32,outdoor_scenes,body_parts,50,50,Stimuli/Experimental_stims/outdoor_scenes/bruno-van-der-kraan-qez8mNJ3ilU-unsplash.jpg,Stimuli/Experimental_stims/body_parts/towfiqu-barbhuiya-3AsiVDsZnHg-unsplash.jpg,0,NaN,NaN,NaN,chosen,,,,,1500,0,7,4
179,90291,0,180,3,3,1,gain3,no_gain6,H,K,3,45,outdoor_scenes,objects,50,50,Stimuli/Experimental_stims/outdoor_scenes/henry-be-NLF6hTe4PAg-unsplash.jpg,Stimuli/Experimental_stims/objects/leohoho-rngTKHXumy0-unsplash.jpg,0,NaN,NaN,NaN,unchosen,,,,,1700,0,7,4
180,90291,0,181,3,3,0,no_gain5,gain1,C,L,35,19,body_parts,faces,50,50,Stimuli/Experimental_stims/body_parts/wc-so-KH4AAPjb-tI-unsplash.jpg,Stimuli/Experimental_stims/faces/joel-mott-LaK153ghdig-unsplash.jpg,0,NaN,NaN,NaN,unchosen,,,,,1500,0,7,4
181,90291,0,182,3,3,1,gain2,no_gain6,B,K,18,45,faces,objects,50,50,Stimuli/Experimental_stims/faces/jessica-radanavong-mrYkTuAesKE-unsplash.jpg,Stimuli/Experimental_stims/objects/leohoho-rngTKHXumy0-unsplash.jpg,0,NaN,NaN,NaN,unchosen,,,,,1300,0,7,4
182,90291,0,183,3,3,1,gain1,no_gain4,L,E,28,43,body_parts,objects,50,50,Stimuli/Experimental_stims/body_parts/ira-vishnevskaya-8DQAvdCby1I-unsplash.jpg,Stimuli/Experimental_stims/objects/jonathan-greenaway-Y4hGgeiFn3s-unsplash.jpg,0,NaN,NaN,NaN,chosen,,,,,2000,0,7,4
183,90291,0,184,3,3,0,no_gain1,gain6,J,G,44,10,objects,outdoor_scenes,50,50,Stimuli/Experimental_stims/objects/kuiye-chen-NuOGFo4PudE-unsplash.jpg,Stimuli/Experimental_stims/outdoor_scenes/shannon-kunkle-dM8INmkyDas-unsplash.jpg,0,NaN,NaN,NaN,unchosen,,,,,1500,0,7,4
184,90291,0,185,3,3,1,gain5,no_gain5,D,C,41,11,objects,outdoor_scenes,50,50,Stimuli/Experimental_stims/objects/insung-yoon-w2JtIQQXoRU-unsplash.jpg,Stimuli/Experimental_stims/outdoor_scenes/stephen-leonardi-gyIRjKPXupE-unsplash.jpg,0,NaN,NaN,NaN,chosen,,,,,2200,0,7,4
185,90291,0,186,3,3,1,gain6,no_gain1,G,J,42,17,objects,faces,50,50,Stimuli/Experimental_stims/objects/jess-bailey-nOeVi8DsN8U-unsplash.jpg,Stimuli/Experimental_stims/faces/good-faces-xmSWVeGEnJw-unsplash.jpg,0,NaN,NaN,NaN,chosen,,,,,1300,0,7,4
186,90291,0,187,3,3,0,no_gain6,gain4,K,I,32,27,body_parts,body_parts,50,50,Stimuli/Experimental_stims/body_parts/towfiqu-barbhuiya-3AsiVDsZnHg-unsplash.jpg,Stimuli/Experimental_stims/body_parts/heike-mintel-i_Gns0ELnLw-unsplash.jpg,0,NaN,NaN,NaN,chosen,,,,,1000,0,7,4
187,90291,0,188,3,3,1,gain1,no_gain2,L,A,19,38,faces,objects,50,50,Stimuli/Experimental_stims/faces/joel-mott-LaK153ghdig-unsplash.jpg,Stimuli/Experimental_stims/objects/art-lasovsky-8XddFc6NkBY-unsplash.jpg,0,NaN,NaN,NaN,unchosen,,,,,3000,1,7,4
188,90291,0,189,3,3,0,no_gain2,gain5,A,D,38,15,objects,faces,50,50,Stimuli/Experimental_stims/objects/art-lasovsky-8XddFc6NkBY-unsplash.jpg,Stimuli/Experimental_stims/faces/erik-lucatero-d2MSDujJl2g-unsplash.jpg,0,NaN,NaN,NaN,unchosen,,,,,1300,0,7,4
189,90291,0,190,3,3,1,gain1,no_gain3,L,F,19,29,faces,body_parts,50,50,Stimuli/Experimental_stims/faces/joel-mott-LaK153ghdig-unsplash.jpg,Stimuli/Experimental_stims/body_parts/manuel-schinner-ZwjFuJ7ebpk-unsplash.jpg,0,NaN,NaN,NaN,unchosen,,,,,2200,0,7,4
190,90291,0,191,3,3,0,no_gain1,gain2,J,B,17,2,faces,outdoor_scenes,50,50,Stimuli/Experimental_stims/faces/good-faces-xmSWVeGEnJw-unsplash.jpg,Stimuli/Experimental_stims/outdoor_scenes/bruno-van-der-kraan-qez8mNJ3ilU-unsplash.jpg,0,NaN,NaN,NaN,chosen,,,,,1100,0,7,4
191,90291,0,192,3,3,0,no_gain3,gain5,F,D,29,15,body_parts,faces,50,50,Stimuli/Experimental_stims/body_parts/manuel-schinner-ZwjFuJ7ebpk-unsplash.jpg,Stimuli/Experimental_stims/faces/erik-lucatero-d2MSDujJl2g-unsplash.jpg,0,NaN,NaN,NaN,unchosen,,,,,2100,0,7,4
192,90291,0,193,3,3,0,no_gain2,gain6,A,G,0,42,outdoor_scenes,objects,50,50,Stimuli/Experimental_stims/outdoor_scenes/aleksandra-boguslawska-MS7KD9Ti7FQ-unsplash.jpg,Stimuli/Experimental_stims/objects/jess-bailey-nOeVi8DsN8U-unsplash.jpg,0,NaN,NaN,NaN,chosen,,,,,2300,0,7,4
193,90291,0,194,3,3,0,no_gain4,gain5,E,D,43,41,objects,objects,50,50,Stimuli/Experimental_stims/objects/jonathan-greenaway-Y4hGgeiFn3s-unsplash.jpg,Stimuli/Experimental_stims/objects/insung-yoon-w2JtIQQXoRU-unsplash.jpg,0,NaN,NaN,NaN,chosen,,,,,3900,1,7,4
194,90291,0,195,3,3,0,no_gain4,gain6,E,G,43,42,objects,objects,50,50,Stimuli/Experimental_stims/objects/jonathan-greenaway-Y4hGgeiFn3s-unsplash.jpg,Stimuli/Experimental_stims/objects/jess-bailey-nOeVi8DsN8U-unsplash.jpg,0,NaN,NaN,NaN,chosen,,,,,1700,0,7,4
195,90291,0,196,3,3,1,gain4,no_gain3,I,F,8,29,outdoor_scenes,body_parts,50,50,Stimuli/Experimental_stims/outdoor_scenes/samsommer-vddccTqwal8-unsplash.jpg,Stimuli/Experimental_stims/body_parts/manuel-schinner-ZwjFuJ7ebpk-unsplash.jpg,0,NaN,NaN,NaN,unchosen,,,,,1200,0,7,4
196,90291,0,197,3,3,0,no_gain1,gain4,J,I,44,8,objects,outdoor_scenes,50,50,Stimuli/Experimental_stims/objects/kuiye-chen-NuOGFo4PudE-unsplash.jpg,Stimuli/Experimental_stims/outdoor_scenes/samsommer-vddccTqwal8-unsplash.jpg,0,NaN,NaN,NaN,unchosen,,,,,1200,0,7,4
197,90291,0,198,3,3,1,gain2,no_gain2,B,A,18,38,faces,objects,50,50,Stimuli/Experimental_stims/faces/jessica-radanavong-mrYkTuAesKE-unsplash.jpg,Stimuli/Experimental_stims/objects/art-lasovsky-8XddFc6NkBY-unsplash.jpg,0,NaN,NaN,NaN,unchosen,,,,,1900,0,7,4
198,90291,0,199,3,3,0,no_gain6,gain3,K,H,32,23,body_parts,faces,50,50,Stimuli/Experimental_stims/body_parts/towfiqu-barbhuiya-3AsiVDsZnHg-unsplash.jpg,Stimuli/Experimental_stims/faces/rikonavt-HQjfrvdTfak-unsplash.jpg,0,NaN,NaN,NaN,chosen,,,,,1000,0,7,4
199,90291,0,200,3,3,0,no_gain4,gain4,E,I,43,27,objects,body_parts,50,50,Stimuli/Experimental_stims/objects/jonathan-greenaway-Y4hGgeiFn3s-unsplash.jpg,Stimuli/Experimental_stims/body_parts/heike-mintel-i_Gns0ELnLw-unsplash.jpg,0,NaN,NaN,NaN,chosen,,,,,3900,1,7,4
200,90291,0,201,3,3,0,no_gain6,gain5,K,D,32,41,body_parts,objects,50,50,Stimuli/Experimental_stims/body_parts/towfiqu-barbhuiya-3AsiVDsZnHg-unsplash.jpg,Stimuli/Experimental_stims/objects/insung-yoon-w2JtIQQXoRU-unsplash.jpg,0,NaN,NaN,NaN,chosen,,,,,2100,0,7,4
201,90291,0,202,3,3,1,gain6,no_gain5,G,C,10,35,outdoor_scenes,body_parts,50,50,Stimuli/Experimental_stims/outdoor_scenes/shannon-kunkle-dM8INmkyDas-unsplash.jpg,Stimuli/Experimental_stims/body_parts/wc-so-KH4AAPjb-tI-unsplash.jpg,0,NaN,NaN,NaN,unchosen,,,,,1300,0,7,4
202,90291,0,203,3,3,0,no_gain2,gain5,A,D,0,41,outdoor_scenes,objects,50,50,Stimuli/Experimental_stims/outdoor_scenes/aleksandra-boguslawska-MS7KD9Ti7FQ-unsplash.jpg,Stimuli/Experimental_stims/objects/insung-yoon-w2JtIQQXoRU-unsplash.jpg,0,NaN,NaN,NaN,chosen,,,,,1800,0,7,4
203,90291,0,204,3,3,1,gain4,no_gain1,I,J,27,17,body_parts,faces,50,50,Stimuli/Experimental_stims/body_parts/heike-mintel-i_Gns0ELnLw-unsplash.jpg,Stimuli/Experimental_stims/faces/good-faces-xmSWVeGEnJw-unsplash.jpg,0,NaN,NaN,NaN,chosen,,,,,1900,0,7,4
204,90291,0,205,3,3,1,gain6,no_gain3,G,F,10,29,outdoor_scenes,body_parts,50,50,Stimuli/Experimental_stims/outdoor_scenes/shannon-kunkle-dM8INmkyDas-unsplash.jpg,Stimuli/Experimental_stims/body_parts/manuel-schinner-ZwjFuJ7ebpk-unsplash.jpg,0,NaN,NaN,NaN,unchosen,,,,,2600,0,7,4
205,90291,0,206,3,3,1,gain4,no_gain6,I,K,8,45,outdoor_scenes,objects,50,50,Stimuli/Experimental_stims/outdoor_scenes/samsommer-vddccTqwal8-unsplash.jpg,Stimuli/Experimental_stims/objects/leohoho-rngTKHXumy0-unsplash.jpg,0,NaN,NaN,NaN,unchosen,,,,,2400,0,7,4
206,90291,0,207,3,3,0,no_gain5,gain4,C,I,35,8,body_parts,outdoor_scenes,50,50,Stimuli/Experimental_stims/body_parts/wc-so-KH4AAPjb-tI-unsplash.jpg,Stimuli/Experimental_stims/outdoor_scenes/samsommer-vddccTqwal8-unsplash.jpg,0,NaN,NaN,NaN,unchosen,,,,,2500,0,7,4
207,90291,0,208,3,3,0,no_gain5,gain6,C,G,11,42,outdoor_scenes,objects,50,50,Stimuli/Experimental_stims/outdoor_scenes/stephen-leonardi-gyIRjKPXupE-unsplash.jpg,Stimuli/Experimental_stims/objects/jess-bailey-nOeVi8DsN8U-unsplash.jpg,0,NaN,NaN,NaN,chosen,,,,,2900,1,7,4
208,90291,0,209,3,3,0,no_gain4,gain3,E,H,33,3,body_parts,outdoor_scenes,50,50,Stimuli/Experimental_stims/body_parts/tucker-good-36skLT5jZcc-unsplash.jpg,Stimuli/Experimental_stims/outdoor_scenes/henry-be-NLF6hTe4PAg-unsplash.jpg,0,NaN,NaN,NaN,unchosen,,,,,1000,0,7,4
209,90291,0,210,3,3,0,no_gain1,gain3,J,H,17,23,faces,faces,50,50,Stimuli/Experimental_stims/faces/good-faces-xmSWVeGEnJw-unsplash.jpg,Stimuli/Experimental_stims/faces/rikonavt-HQjfrvdTfak-unsplash.jpg,0,NaN,NaN,NaN,chosen,,,,,1500,0,7,4
210,90291,0,211,3,3,1,gain3,no_gain3,H,F,3,29,outdoor_scenes,body_parts,50,50,Stimuli/Experimental_stims/outdoor_scenes/henry-be-NLF6hTe4PAg-unsplash.jpg,Stimuli/Experimental_stims/body_parts/manuel-schinner-ZwjFuJ7ebpk-unsplash.jpg,0,NaN,NaN,NaN,unchosen,,,,,2000,0,7,4
211,90291,0,212,3,3,1,gain1,no_gain6,L,K,19,45,faces,objects,50,50,Stimuli/Experimental_stims/faces/joel-mott-LaK153ghdig-unsplash.jpg,Stimuli/Experimental_stims/objects/leohoho-rngTKHXumy0-unsplash.jpg,0,NaN,NaN,NaN,unchosen,,,,,1400,0,7,4
212,90291,0,213,3,3,0,no_gain5,gain2,C,B,35,18,body_parts,faces,50,50,Stimuli/Experimental_stims/body_parts/wc-so-KH4AAPjb-tI-unsplash.jpg,Stimuli/Experimental_stims/faces/jessica-radanavong-mrYkTuAesKE-unsplash.jpg,0,NaN,NaN,NaN,unchosen,,,,,1800,0,7,4
213,90291,0,214,3,3,1,gain6,no_gain6,G,K,42,32,objects,body_parts,50,50,Stimuli/Experimental_stims/objects/jess-bailey-nOeVi8DsN8U-unsplash.jpg,Stimuli/Experimental_stims/body_parts/towfiqu-barbhuiya-3AsiVDsZnHg-unsplash.jpg,0,NaN,NaN,NaN,chosen,,,,,2500,0,7,4
214,90291,0,215,3,3,1,gain1,no_gain2,L,A,28,0,body_parts,outdoor_scenes,50,50,Stimuli/Experimental_stims/body_parts/ira-vishnevskaya-8DQAvdCby1I-unsplash.jpg,Stimuli/Experimental_stims/outdoor_scenes/aleksandra-boguslawska-MS7KD9Ti7FQ-unsplash.jpg,0,NaN,NaN,NaN,chosen,,,,,1600,0,7,4
215,90291,0,216,3,3,0,no_gain1,gain2,J,B,44,18,objects,faces,50,50,Stimuli/Experimental_stims/objects/kuiye-chen-NuOGFo4PudE-unsplash.jpg,Stimuli/Experimental_stims/faces/jessica-radanavong-mrYkTuAesKE-unsplash.jpg,0,NaN,NaN,NaN,unchosen,,,,,3700,1,7,4
216,90291,0,217,3,3,0,no_gain5,gain3,C,H,35,3,body_parts,outdoor_scenes,50,50,Stimuli/Experimental_stims/body_parts/wc-so-KH4AAPjb-tI-unsplash.jpg,Stimuli/Experimental_stims/outdoor_scenes/henry-be-NLF6hTe4PAg-unsplash.jpg,0,NaN,NaN,NaN,unchosen,,,,,1200,0,7,4
217,90291,0,218,3,3,1,gain3,no_gain2,H,A,23,0,faces,outdoor_scenes,50,50,Stimuli/Experimental_stims/faces/rikonavt-HQjfrvdTfak-unsplash.jpg,Stimuli/Experimental_stims/outdoor_scenes/aleksandra-boguslawska-MS7KD9Ti7FQ-unsplash.jpg,0,NaN,NaN,NaN,chosen,,,,,1200,0,7,4
218,90291,0,219,3,3,1,gain3,no_gain1,H,J,3,44,outdoor_scenes,objects,50,50,Stimuli/Experimental_stims/outdoor_scenes/henry-be-NLF6hTe4PAg-unsplash.jpg,Stimuli/Experimental_stims/objects/kuiye-chen-NuOGFo4PudE-unsplash.jpg,0,NaN,NaN,NaN,unchosen,,,,,1100,0,7,4
219,90291,0,220,3,3,1,gain2,no_gain2,B,A,2,0,outdoor_scenes,outdoor_scenes,50,50,Stimuli/Experimental_stims/outdoor_scenes/bruno-van-der-kraan-qez8mNJ3ilU-unsplash.jpg,Stimuli/Experimental_stims/outdoor_scenes/aleksandra-boguslawska-MS7KD9Ti7FQ-unsplash.jpg,0,NaN,NaN,NaN,chosen,,,,,1100,0,7,4
220,90291,0,221,4,4,1,gain4,no_gain1,I,J,8,44,outdoor_scenes,objects,50,50,Stimuli/Experimental_stims/outdoor_scenes/samsommer-vddccTqwal8-unsplash.jpg,Stimuli/Experimental_stims/objects/kuiye-chen-NuOGFo4PudE-unsplash.jpg,0,NaN,NaN,NaN,unchosen,,,,,4000,1,8,4
221,90291,0,222,4,4,0,no_gain1,gain5,J,D,17,41,faces,objects,50,50,Stimuli/Experimental_stims/faces/good-faces-xmSWVeGEnJw-unsplash.jpg,Stimuli/Experimental_stims/objects/insung-yoon-w2JtIQQXoRU-unsplash.jpg,0,NaN,NaN,NaN,chosen,,,,,1900,0,8,4
222,90291,0,223,4,4,1,gain2,no_gain1,B,J,2,17,outdoor_scenes,faces,50,50,Stimuli/Experimental_stims/outdoor_scenes/bruno-van-der-kraan-qez8mNJ3ilU-unsplash.jpg,Stimuli/Experimental_stims/faces/good-faces-xmSWVeGEnJw-unsplash.jpg,0,NaN,NaN,NaN,chosen,,,,,1200,0,8,4
223,90291,0,224,4,4,1,gain4,no_gain6,I,K,8,45,outdoor_scenes,objects,50,50,Stimuli/Experimental_stims/outdoor_scenes/samsommer-vddccTqwal8-unsplash.jpg,Stimuli/Experimental_stims/objects/leohoho-rngTKHXumy0-unsplash.jpg,0,NaN,NaN,NaN,unchosen,,,,,1200,0,8,4
224,90291,0,225,4,4,1,gain4,no_gain3,I,F,8,29,outdoor_scenes,body_parts,50,50,Stimuli/Experimental_stims/outdoor_scenes/samsommer-vddccTqwal8-unsplash.jpg,Stimuli/Experimental_stims/body_parts/manuel-schinner-ZwjFuJ7ebpk-unsplash.jpg,0,NaN,NaN,NaN,unchosen,,,,,2900,0,8,4
225,90291,0,226,4,4,1,gain2,no_gain3,B,F,18,29,faces,body_parts,50,50,Stimuli/Experimental_stims/faces/jessica-radanavong-mrYkTuAesKE-unsplash.jpg,Stimuli/Experimental_stims/body_parts/manuel-schinner-ZwjFuJ7ebpk-unsplash.jpg,0,NaN,NaN,NaN,unchosen,,,,,1800,0,8,4
226,90291,0,227,4,4,1,gain1,no_gain3,L,F,28,22,body_parts,faces,50,50,Stimuli/Experimental_stims/body_parts/ira-vishnevskaya-8DQAvdCby1I-unsplash.jpg,Stimuli/Experimental_stims/faces/ravi-patel-VMGAbeeJTKo-unsplash.jpg,0,NaN,NaN,NaN,chosen,,,,,4700,1,8,4
227,90291,0,228,4,4,0,no_gain2,gain5,A,D,0,41,outdoor_scenes,objects,50,50,Stimuli/Experimental_stims/outdoor_scenes/aleksandra-boguslawska-MS7KD9Ti7FQ-unsplash.jpg,Stimuli/Experimental_stims/objects/insung-yoon-w2JtIQQXoRU-unsplash.jpg,0,NaN,NaN,NaN,chosen,,,,,2800,0,8,4
228,90291,0,229,4,4,1,gain5,no_gain1,D,J,15,44,faces,objects,50,50,Stimuli/Experimental_stims/faces/erik-lucatero-d2MSDujJl2g-unsplash.jpg,Stimuli/Experimental_stims/objects/kuiye-chen-NuOGFo4PudE-unsplash.jpg,0,NaN,NaN,NaN,unchosen,,,,,1100,0,8,4
229,90291,0,230,4,4,0,no_gain4,gain5,E,D,43,41,objects,objects,50,50,Stimuli/Experimental_stims/objects/jonathan-greenaway-Y4hGgeiFn3s-unsplash.jpg,Stimuli/Experimental_stims/objects/insung-yoon-w2JtIQQXoRU-unsplash.jpg,0,NaN,NaN,NaN,chosen,,,,,2200,0,8,4
230,90291,0,231,4,4,0,no_gain1,gain6,J,G,44,10,objects,outdoor_scenes,50,50,Stimuli/Experimental_stims/objects/kuiye-chen-NuOGFo4PudE-unsplash.jpg,Stimuli/Experimental_stims/outdoor_scenes/shannon-kunkle-dM8INmkyDas-unsplash.jpg,0,NaN,NaN,NaN,unchosen,,,,,2000,0,8,4
231,90291,0,232,4,4,1,gain3,no_gain5,H,C,3,35,outdoor_scenes,body_parts,50,50,Stimuli/Experimental_stims/outdoor_scenes/henry-be-NLF6hTe4PAg-unsplash.jpg,Stimuli/Experimental_stims/body_parts/wc-so-KH4AAPjb-tI-unsplash.jpg,0,NaN,NaN,NaN,unchosen,,,,,1100,0,8,4
232,90291,0,233,4,4,0,no_gain6,gain1,K,L,45,19,objects,faces,50,50,Stimuli/Experimental_stims/objects/leohoho-rngTKHXumy0-unsplash.jpg,Stimuli/Experimental_stims/faces/joel-mott-LaK153ghdig-unsplash.jpg,0,NaN,NaN,NaN,unchosen,,,,,3000,1,8,4
233,90291,0,234,4,4,1,gain3,no_gain5,H,C,23,11,faces,outdoor_scenes,50,50,Stimuli/Experimental_stims/faces/rikonavt-HQjfrvdTfak-unsplash.jpg,Stimuli/Experimental_stims/outdoor_scenes/stephen-leonardi-gyIRjKPXupE-unsplash.jpg,0,NaN,NaN,NaN,chosen,,,,,1800,0,8,4
234,90291,0,235,4,4,0,no_gain3,gain1,F,L,29,19,body_parts,faces,50,50,Stimuli/Experimental_stims/body_parts/manuel-schinner-ZwjFuJ7ebpk-unsplash.jpg,Stimuli/Experimental_stims/faces/joel-mott-LaK153ghdig-unsplash.jpg,0,NaN,NaN,NaN,unchosen,,,,,1700,0,8,4
235,90291,0,236,4,4,0,no_gain2,gain5,A,D,38,15,objects,faces,50,50,Stimuli/Experimental_stims/objects/art-lasovsky-8XddFc6NkBY-unsplash.jpg,Stimuli/Experimental_stims/faces/erik-lucatero-d2MSDujJl2g-unsplash.jpg,0,NaN,NaN,NaN,unchosen,,,,,1500,0,8,4
236,90291,0,237,4,4,0,no_gain2,gain1,A,L,38,19,objects,faces,50,50,Stimuli/Experimental_stims/objects/art-lasovsky-8XddFc6NkBY-unsplash.jpg,Stimuli/Experimental_stims/faces/joel-mott-LaK153ghdig-unsplash.jpg,0,NaN,NaN,NaN,unchosen,,,,,1400,0,8,4
237,90291,0,238,4,4,1,gain6,no_gain2,G,A,42,0,objects,outdoor_scenes,50,50,Stimuli/Experimental_stims/objects/jess-bailey-nOeVi8DsN8U-unsplash.jpg,Stimuli/Experimental_stims/outdoor_scenes/aleksandra-boguslawska-MS7KD9Ti7FQ-unsplash.jpg,0,NaN,NaN,NaN,chosen,,,,,3000,1,8,4
238,90291,0,239,4,4,1,gain4,no_gain2,I,A,8,38,outdoor_scenes,objects,50,50,Stimuli/Experimental_stims/outdoor_scenes/samsommer-vddccTqwal8-unsplash.jpg,Stimuli/Experimental_stims/objects/art-lasovsky-8XddFc6NkBY-unsplash.jpg,0,NaN,NaN,NaN,unchosen,,,,,1000,0,8,4
239,90291,0,240,4,4,0,no_gain1,gain2,J,B,44,18,objects,faces,50,50,Stimuli/Experimental_stims/objects/kuiye-chen-NuOGFo4PudE-unsplash.jpg,Stimuli/Experimental_stims/faces/jessica-radanavong-mrYkTuAesKE-unsplash.jpg,0,NaN,NaN,NaN,unchosen,,,,,1100,0,8,4
240,90291,0,241,4,4,0,no_gain4,gain3,E,H,33,3,body_parts,outdoor_scenes,50,50,Stimuli/Experimental_stims/body_parts/tucker-good-36skLT5jZcc-unsplash.jpg,Stimuli/Experimental_stims/outdoor_scenes/henry-be-NLF6hTe4PAg-unsplash.jpg,0,NaN,NaN,NaN,unchosen,,,,,1600,0,8,4
241,90291,0,242,4,4,0,no_gain5,gain4,C,I,11,27,outdoor_scenes,body_parts,50,50,Stimuli/Experimental_stims/outdoor_scenes/stephen-leonardi-gyIRjKPXupE-unsplash.jpg,Stimuli/Experimental_stims/body_parts/heike-mintel-i_Gns0ELnLw-unsplash.jpg,0,NaN,NaN,NaN,chosen,,,,,1100,0,8,4
242,90291,0,243,4,4,1,gain6,no_gain6,G,K,10,45,outdoor_scenes,objects,50,50,Stimuli/Experimental_stims/outdoor_scenes/shannon-kunkle-dM8INmkyDas-unsplash.jpg,Stimuli/Experimental_stims/objects/leohoho-rngTKHXumy0-unsplash.jpg,0,NaN,NaN,NaN,unchosen,,,,,1100,0,8,4
243,90291,0,244,4,4,1,gain3,no_gain2,H,A,23,0,faces,outdoor_scenes,50,50,Stimuli/Experimental_stims/faces/rikonavt-HQjfrvdTfak-unsplash.jpg,Stimuli/Experimental_stims/outdoor_scenes/aleksandra-boguslawska-MS7KD9Ti7FQ-unsplash.jpg,0,NaN,NaN,NaN,chosen,,,,,1800,0,8,4
244,90291,0,245,4,4,0,no_gain1,gain1,J,L,17,28,faces,body_parts,50,50,Stimuli/Experimental_stims/faces/good-faces-xmSWVeGEnJw-unsplash.jpg,Stimuli/Experimental_stims/body_parts/ira-vishnevskaya-8DQAvdCby1I-unsplash.jpg,0,NaN,NaN,NaN,chosen,,,,,1400,0,8,4
245,90291,0,246,4,4,0,no_gain4,gain5,E,D,33,15,body_parts,faces,50,50,Stimuli/Experimental_stims/body_parts/tucker-good-36skLT5jZcc-unsplash.jpg,Stimuli/Experimental_stims/faces/erik-lucatero-d2MSDujJl2g-unsplash.jpg,0,NaN,NaN,NaN,unchosen,,,,,1600,0,8,4
246,90291,0,247,4,4,1,gain2,no_gain2,B,A,2,0,outdoor_scenes,outdoor_scenes,50,50,Stimuli/Experimental_stims/outdoor_scenes/bruno-van-der-kraan-qez8mNJ3ilU-unsplash.jpg,Stimuli/Experimental_stims/outdoor_scenes/aleksandra-boguslawska-MS7KD9Ti7FQ-unsplash.jpg,0,NaN,NaN,NaN,chosen,,,,,2000,0,8,4
247,90291,0,248,4,4,0,no_gain1,gain3,J,H,44,3,objects,outdoor_scenes,50,50,Stimuli/Experimental_stims/objects/kuiye-chen-NuOGFo4PudE-unsplash.jpg,Stimuli/Experimental_stims/outdoor_scenes/henry-be-NLF6hTe4PAg-unsplash.jpg,0,NaN,NaN,NaN,unchosen,,,,,2200,0,8,4
248,90291,0,249,4,4,0,no_gain4,gain2,E,B,43,2,objects,outdoor_scenes,50,50,Stimuli/Experimental_stims/objects/jonathan-greenaway-Y4hGgeiFn3s-unsplash.jpg,Stimuli/Experimental_stims/outdoor_scenes/bruno-van-der-kraan-qez8mNJ3ilU-unsplash.jpg,0,NaN,NaN,NaN,chosen,,,,,2100,0,8,4
249,90291,0,250,4,4,0,no_gain3,gain2,F,B,22,2,faces,outdoor_scenes,50,50,Stimuli/Experimental_stims/faces/ravi-patel-VMGAbeeJTKo-unsplash.jpg,Stimuli/Experimental_stims/outdoor_scenes/bruno-van-der-kraan-qez8mNJ3ilU-unsplash.jpg,0,NaN,NaN,NaN,chosen,,,,,2900,0,8,4
250,90291,0,251,4,4,0,no_gain6,gain5,K,D,45,15,objects,faces,50,50,Stimuli/Experimental_stims/objects/leohoho-rngTKHXumy0-unsplash.jpg,Stimuli/Experimental_stims/faces/erik-lucatero-d2MSDujJl2g-unsplash.jpg,0,NaN,NaN,NaN,unchosen,,,,,1600,0,8,4
251,90291,0,252,4,4,1,gain3,no_gain4,H,E,23,43,faces,objects,50,50,Stimuli/Experimental_stims/faces/rikonavt-HQjfrvdTfak-unsplash.jpg,Stimuli/Experimental_stims/objects/jonathan-greenaway-Y4hGgeiFn3s-unsplash.jpg,0,NaN,NaN,NaN,chosen,,,,,1600,0,8,4
252,90291,0,253,4,4,0,no_gain1,gain1,J,L,44,19,objects,faces,50,50,Stimuli/Experimental_stims/objects/kuiye-chen-NuOGFo4PudE-unsplash.jpg,Stimuli/Experimental_stims/faces/joel-mott-LaK153ghdig-unsplash.jpg,0,NaN,NaN,NaN,unchosen,,,,,4900,1,8,4
253,90291,0,254,4,4,0,no_gain5,gain1,C,L,35,19,body_parts,faces,50,50,Stimuli/Experimental_stims/body_parts/wc-so-KH4AAPjb-tI-unsplash.jpg,Stimuli/Experimental_stims/faces/joel-mott-LaK153ghdig-unsplash.jpg,0,NaN,NaN,NaN,unchosen,,,,,2600,0,8,4
254,90291,0,255,4,4,1,gain5,no_gain5,D,C,41,11,objects,outdoor_scenes,50,50,Stimuli/Experimental_stims/objects/insung-yoon-w2JtIQQXoRU-unsplash.jpg,Stimuli/Experimental_stims/outdoor_scenes/stephen-leonardi-gyIRjKPXupE-unsplash.jpg,0,NaN,NaN,NaN,chosen,,,,,1800,0,8,4
255,90291,0,256,4,4,0,no_gain1,gain3,J,H,17,23,faces,faces,50,50,Stimuli/Experimental_stims/faces/good-faces-xmSWVeGEnJw-unsplash.jpg,Stimuli/Experimental_stims/faces/rikonavt-HQjfrvdTfak-unsplash.jpg,0,NaN,NaN,NaN,chosen,,,,,1500,0,8,4
256,90291,0,257,4,4,1,gain5,no_gain3,D,F,41,22,objects,faces,50,50,Stimuli/Experimental_stims/objects/insung-yoon-w2JtIQQXoRU-unsplash.jpg,Stimuli/Experimental_stims/faces/ravi-patel-VMGAbeeJTKo-unsplash.jpg,0,NaN,NaN,NaN,chosen,,,,,1700,0,8,4
257,90291,0,258,4,4,1,gain2,no_gain4,B,E,18,33,faces,body_parts,50,50,Stimuli/Experimental_stims/faces/jessica-radanavong-mrYkTuAesKE-unsplash.jpg,Stimuli/Experimental_stims/body_parts/tucker-good-36skLT5jZcc-unsplash.jpg,0,NaN,NaN,NaN,unchosen,,,,,3200,1,8,4
258,90291,0,259,4,4,1,gain3,no_gain3,H,F,23,22,faces,faces,50,50,Stimuli/Experimental_stims/faces/rikonavt-HQjfrvdTfak-unsplash.jpg,Stimuli/Experimental_stims/faces/ravi-patel-VMGAbeeJTKo-unsplash.jpg,0,NaN,NaN,NaN,chosen,,,,,2100,0,8,4
259,90291,0,260,4,4,0,no_gain6,gain1,K,L,32,28,body_parts,body_parts,50,50,Stimuli/Experimental_stims/body_parts/towfiqu-barbhuiya-3AsiVDsZnHg-unsplash.jpg,Stimuli/Experimental_stims/body_parts/ira-vishnevskaya-8DQAvdCby1I-unsplash.jpg,0,NaN,NaN,NaN,chosen,,,,,1600,0,8,4
260,90291,0,261,4,4,0,no_gain2,gain3,A,H,38,3,objects,outdoor_scenes,50,50,Stimuli/Experimental_stims/objects/art-lasovsky-8XddFc6NkBY-unsplash.jpg,Stimuli/Experimental_stims/outdoor_scenes/henry-be-NLF6hTe4PAg-unsplash.jpg,0,NaN,NaN,NaN,unchosen,,,,,1700,0,8,4
261,90291,0,262,4,4,0,no_gain4,gain4,E,I,43,27,objects,body_parts,50,50,Stimuli/Experimental_stims/objects/jonathan-greenaway-Y4hGgeiFn3s-unsplash.jpg,Stimuli/Experimental_stims/body_parts/heike-mintel-i_Gns0ELnLw-unsplash.jpg,0,NaN,NaN,NaN,chosen,,,,,1300,0,8,4
262,90291,0,263,4,4,1,gain6,no_gain1,G,J,42,17,objects,faces,50,50,Stimuli/Experimental_stims/objects/jess-bailey-nOeVi8DsN8U-unsplash.jpg,Stimuli/Experimental_stims/faces/good-faces-xmSWVeGEnJw-unsplash.jpg,0,NaN,NaN,NaN,chosen,,,,,3700,1,8,4
263,90291,0,264,4,4,1,gain1,no_gain4,L,E,19,33,faces,body_parts,50,50,Stimuli/Experimental_stims/faces/joel-mott-LaK153ghdig-unsplash.jpg,Stimuli/Experimental_stims/body_parts/tucker-good-36skLT5jZcc-unsplash.jpg,0,NaN,NaN,NaN,unchosen,,,,,1500,0,8,4
264,90291,0,265,4,4,1,gain4,no_gain1,I,J,27,17,body_parts,faces,50,50,Stimuli/Experimental_stims/body_parts/heike-mintel-i_Gns0ELnLw-unsplash.jpg,Stimuli/Experimental_stims/faces/good-faces-xmSWVeGEnJw-unsplash.jpg,0,NaN,NaN,NaN,chosen,,,,,1500,0,8,4
265,90291,0,266,4,4,1,gain2,no_gain5,B,C,18,35,faces,body_parts,50,50,Stimuli/Experimental_stims/faces/jessica-radanavong-mrYkTuAesKE-unsplash.jpg,Stimuli/Experimental_stims/body_parts/wc-so-KH4AAPjb-tI-unsplash.jpg,0,NaN,NaN,NaN,unchosen,,,,,1400,0,8,4
266,90291,0,267,4,4,0,no_gain2,gain4,A,I,0,27,outdoor_scenes,body_parts,50,50,Stimuli/Experimental_stims/outdoor_scenes/aleksandra-boguslawska-MS7KD9Ti7FQ-unsplash.jpg,Stimuli/Experimental_stims/body_parts/heike-mintel-i_Gns0ELnLw-unsplash.jpg,0,NaN,NaN,NaN,chosen,,,,,1700,0,8,4
267,90291,0,268,4,4,0,no_gain4,gain6,E,G,43,42,objects,objects,50,50,Stimuli/Experimental_stims/objects/jonathan-greenaway-Y4hGgeiFn3s-unsplash.jpg,Stimuli/Experimental_stims/objects/jess-bailey-nOeVi8DsN8U-unsplash.jpg,0,NaN,NaN,NaN,chosen,,,,,2500,0,8,4
268,90291,0,269,4,4,0,no_gain6,gain6,K,G,32,42,body_parts,objects,50,50,Stimuli/Experimental_stims/body_parts/towfiqu-barbhuiya-3AsiVDsZnHg-unsplash.jpg,Stimuli/Experimental_stims/objects/jess-bailey-nOeVi8DsN8U-unsplash.jpg,0,NaN,NaN,NaN,chosen,,,,,1800,0,8,4
269,90291,0,270,4,4,0,no_gain2,gain6,A,G,38,10,objects,outdoor_scenes,50,50,Stimuli/Experimental_stims/objects/art-lasovsky-8XddFc6NkBY-unsplash.jpg,Stimuli/Experimental_stims/outdoor_scenes/shannon-kunkle-dM8INmkyDas-unsplash.jpg,0,NaN,NaN,NaN,unchosen,,,,,2200,0,8,4
270,90291,0,271,4,4,0,no_gain5,gain6,C,G,35,10,body_parts,outdoor_scenes,50,50,Stimuli/Experimental_stims/body_parts/wc-so-KH4AAPjb-tI-unsplash.jpg,Stimuli/Experimental_stims/outdoor_scenes/shannon-kunkle-dM8INmkyDas-unsplash.jpg,0,NaN,NaN,NaN,unchosen,,,,,1400,0,8,4
271,90291,0,272,4,4,1,gain3,no_gain6,H,K,23,32,faces,body_parts,50,50,Stimuli/Experimental_stims/faces/rikonavt-HQjfrvdTfak-unsplash.jpg,Stimuli/Experimental_stims/body_parts/towfiqu-barbhuiya-3AsiVDsZnHg-unsplash.jpg,0,NaN,NaN,NaN,chosen,,,,,4200,1,8,4
272,90291,0,273,4,4,1,gain5,no_gain5,D,C,15,35,faces,body_parts,50,50,Stimuli/Experimental_stims/faces/erik-lucatero-d2MSDujJl2g-unsplash.jpg,Stimuli/Experimental_stims/body_parts/wc-so-KH4AAPjb-tI-unsplash.jpg,0,NaN,NaN,NaN,unchosen,,,,,2400,0,8,4
273,90291,0,274,4,4,0,no_gain4,gain6,E,G,33,10,body_parts,outdoor_scenes,50,50,Stimuli/Experimental_stims/body_parts/tucker-good-36skLT5jZcc-unsplash.jpg,Stimuli/Experimental_stims/outdoor_scenes/shannon-kunkle-dM8INmkyDas-unsplash.jpg,0,NaN,NaN,NaN,unchosen,,,,,1100,0,8,4
274,90291,0,275,4,4,0,no_gain2,gain1,A,L,0,28,outdoor_scenes,body_parts,50,50,Stimuli/Experimental_stims/outdoor_scenes/aleksandra-boguslawska-MS7KD9Ti7FQ-unsplash.jpg,Stimuli/Experimental_stims/body_parts/ira-vishnevskaya-8DQAvdCby1I-unsplash.jpg,0,NaN,NaN,NaN,chosen,,,,,1400,0,8,4
275,90291,0,276,4,4,0,no_gain3,gain3,F,H,29,3,body_parts,outdoor_scenes,50,50,Stimuli/Experimental_stims/body_parts/manuel-schinner-ZwjFuJ7ebpk-unsplash.jpg,Stimuli/Experimental_stims/outdoor_scenes/henry-be-NLF6hTe4PAg-unsplash.jpg,0,NaN,NaN,NaN,unchosen,,,,,1400,0,8,4
276,90291,0,277,4,4,1,gain5,no_gain6,D,K,41,32,objects,body_parts,50,50,Stimuli/Experimental_stims/objects/insung-yoon-w2JtIQQXoRU-unsplash.jpg,Stimuli/Experimental_stims/body_parts/towfiqu-barbhuiya-3AsiVDsZnHg-unsplash.jpg,0,NaN,NaN,NaN,chosen,,,,,1000,0,8,4
277,90291,0,278,4,4,1,gain1,no_gain5,L,C,28,11,body_parts,outdoor_scenes,50,50,Stimuli/Experimental_stims/body_parts/ira-vishnevskaya-8DQAvdCby1I-unsplash.jpg,Stimuli/Experimental_stims/outdoor_scenes/stephen-leonardi-gyIRjKPXupE-unsplash.jpg,0,NaN,NaN,NaN,chosen,,,,,1900,0,8,4
278,90291,0,279,4,4,1,gain2,no_gain6,B,K,18,45,faces,objects,50,50,Stimuli/Experimental_stims/faces/jessica-radanavong-mrYkTuAesKE-unsplash.jpg,Stimuli/Experimental_stims/objects/leohoho-rngTKHXumy0-unsplash.jpg,0,NaN,NaN,NaN,unchosen,,,,,2100,0,8,4
279,90291,0,280,4,4,1,gain2,no_gain2,B,A,18,38,faces,objects,50,50,Stimuli/Experimental_stims/faces/jessica-radanavong-mrYkTuAesKE-unsplash.jpg,Stimuli/Experimental_stims/objects/art-lasovsky-8XddFc6NkBY-unsplash.jpg,0,NaN,NaN,NaN,unchosen,,,,,1100,0,8,4
280,90291,0,281,4,4,1,gain3,no_gain6,H,K,3,45,outdoor_scenes,objects,50,50,Stimuli/Experimental_stims/outdoor_scenes/henry-be-NLF6hTe4PAg-unsplash.jpg,Stimuli/Experimental_stims/objects/leohoho-rngTKHXumy0-unsplash.jpg,0,NaN,NaN,NaN,unchosen,,,,,3800,1,8,4
281,90291,0,282,4,4,0,no_gain6,gain2,K,B,32,2,body_parts,outdoor_scenes,50,50,Stimuli/Experimental_stims/body_parts/towfiqu-barbhuiya-3AsiVDsZnHg-unsplash.jpg,Stimuli/Experimental_stims/outdoor_scenes/bruno-van-der-kraan-qez8mNJ3ilU-unsplash.jpg,0,NaN,NaN,NaN,chosen,,,,,1200,0,8,4
282,90291,0,283,4,4,0,no_gain3,gain4,F,I,22,27,faces,body_parts,50,50,Stimuli/Experimental_stims/faces/ravi-patel-VMGAbeeJTKo-unsplash.jpg,Stimuli/Experimental_stims/body_parts/heike-mintel-i_Gns0ELnLw-unsplash.jpg,0,NaN,NaN,NaN,chosen,,,,,2500,0,8,4
283,90291,0,284,4,4,0,no_gain6,gain4,K,I,32,27,body_parts,body_parts,50,50,Stimuli/Experimental_stims/body_parts/towfiqu-barbhuiya-3AsiVDsZnHg-unsplash.jpg,Stimuli/Experimental_stims/body_parts/heike-mintel-i_Gns0ELnLw-unsplash.jpg,0,NaN,NaN,NaN,chosen,,,,,1200,0,8,4
284,90291,0,285,4,4,1,gain4,no_gain5,I,C,8,35,outdoor_scenes,body_parts,50,50,Stimuli/Experimental_stims/outdoor_scenes/samsommer-vddccTqwal8-unsplash.jpg,Stimuli/Experimental_stims/body_parts/wc-so-KH4AAPjb-tI-unsplash.jpg,0,NaN,NaN,NaN,unchosen,,,,,1600,0,8,4
285,90291,0,286,4,4,1,gain6,no_gain5,G,C,42,11,objects,outdoor_scenes,50,50,Stimuli/Experimental_stims/objects/jess-bailey-nOeVi8DsN8U-unsplash.jpg,Stimuli/Experimental_stims/outdoor_scenes/stephen-leonardi-gyIRjKPXupE-unsplash.jpg,0,NaN,NaN,NaN,chosen,,,,,1900,0,8,4
286,90291,0,287,4,4,1,gain2,no_gain5,B,C,2,11,outdoor_scenes,outdoor_scenes,50,50,Stimuli/Experimental_stims/outdoor_scenes/bruno-van-der-kraan-qez8mNJ3ilU-unsplash.jpg,Stimuli/Experimental_stims/outdoor_scenes/stephen-leonardi-gyIRjKPXupE-unsplash.jpg,0,NaN,NaN,NaN,chosen,,,,,1000,0,8,4
287,90291,0,288,4,4,1,gain6,no_gain3,G,F,10,29,outdoor_scenes,body_parts,50,50,Stimuli/Experimental_stims/outdoor_scenes/shannon-kunkle-dM8INmkyDas-unsplash.jpg,Stimuli/Experimental_stims/body_parts/manuel-schinner-ZwjFuJ7ebpk-unsplash.jpg,0,NaN,NaN,NaN,unchosen,,,,,5000,1,8,4
288,90291,0,289,4,4,0,no_gain4,gain1,E,L,43,28,objects,body_parts,50,50,Stimuli/Experimental_stims/objects/jonathan-greenaway-Y4hGgeiFn3s-unsplash.jpg,Stimuli/Experimental_stims/body_parts/ira-vishnevskaya-8DQAvdCby1I-unsplash.jpg,0,NaN,NaN,NaN,chosen,,,,,2400,0,8,4
289,90291,0,290,4,4,0,no_gain3,gain5,F,D,29,15,body_parts,faces,50,50,Stimuli/Experimental_stims/body_parts/manuel-schinner-ZwjFuJ7ebpk-unsplash.jpg,Stimuli/Experimental_stims/faces/erik-lucatero-d2MSDujJl2g-unsplash.jpg,0,NaN,NaN,NaN,unchosen,,,,,1500,0,8,4
290,90291,0,291,4,4,1,gain6,no_gain3,G,F,42,22,objects,faces,50,50,Stimuli/Experimental_stims/objects/jess-bailey-nOeVi8DsN8U-unsplash.jpg,Stimuli/Experimental_stims/faces/ravi-patel-VMGAbeeJTKo-unsplash.jpg,0,NaN,NaN,NaN,chosen,,,,,1500,0,8,4