,PID,practice,trial,block,run,gain_left,left_item_id,right_item_id,left_pair_id,right_pair_id,left_stimulus,right_stimulus,left_category,right_category,left_rating,right_rating,left_path,right_path,no_response,left_chosen,rt,higher_outcome_chosen,choice_type,chosen_stimulus,unchosen_stimulus,chosen_category,unchosen_category,iti,long_iti,simulation,version
0,36963,1,1,0,0,0,,,,,,,,,,,Stimuli/Practice_stims/Final_decisions/debby-hudson-FmCSSSGge-0-unsplash.jpg,Stimuli/Practice_stims/Final_decisions/yassine-khalfalli-adsQ9d_Cx0c-unsplash.jpg,0,NaN,NaN,NaN,,NaN,NaN,NaN,NaN,3000,0,5,4
1,36963,1,2,0,0,0,,,,,,,,,,,Stimuli/Practice_stims/Final_decisions/florian-wehde-iVW7mZPwd4g-unsplash.jpg,Stimuli/Practice_stims/Final_decisions/patrick-perkins-3wylDrjxH-E-unsplash.jpg,0,NaN,NaN,NaN,,NaN,NaN,NaN,NaN,1500,0,5,4
2,36963,1,3,0,0,0,,,,,,,,,,,Stimuli/Practice_stims/Final_decisions/debby-hudson-FmCSSSGge-0-unsplash.jpg,Stimuli/Practice_stims/Final_decisions/florian-wehde-iVW7mZPwd4g-unsplash.jpg,0,NaN,NaN,NaN,,NaN,NaN,NaN,NaN,2000,0,5,4
3,36963,1,4,0,0,0,,,,,,,,,,,Stimuli/Practice_stims/Final_decisions/yassine-khalfalli-adsQ9d_Cx0c-unsplash.jpg,Stimuli/Practice_stims/Final_decisions/debby-hudson-FmCSSSGge-0-unsplash.jpg,0,NaN,NaN,NaN,,NaN,NaN,NaN,NaN,1000,0,5,4
4,36963,0,5,1,1,0,no_gain2,gain4,B,A,15,37,faces,objects,50,50,Stimuli/Experimental_stims/faces/erik-lucatero-d2MSDujJl2g-unsplash.jpg,Stimuli/Experimental_stims/objects/alexander-andrews-VLGWE_SumrA-unsplash.jpg,0,NaN,NaN,NaN,chosen,NaN,NaN,NaN,NaN,5000,1,5,4
5,36963,0,6,1,1,0,no_gain1,gain4,L,A,30,6,body_parts,outdoor_scenes,50,50,Stimuli/Experimental_stims/body_parts/mika-korhonen-Xodzxosar18-unsplash.jpg,Stimuli/Experimental_stims/outdoor_scenes/meng-ji-8BH_M-53CyA-unsplash.jpg,0,NaN,NaN,NaN,unchosen,NaN,NaN,NaN,NaN,1700,0,5,4
6,36963,0,7,1,1,1,gain2,no_gain4,D,J,17,47,faces,objects,50,50,Stimuli/Experimental_stims/faces/good-faces-xmSWVeGEnJw-unsplash.jpg,Stimuli/Experimental_stims/objects/ronaldo-arthur-vidal-Cdz_lvnl37k-unsplash.jpg,0,NaN,NaN,NaN,chosen,NaN,NaN,NaN,NaN,1600,0,5,4
7,36963,0,8,1,1,1,gain1,no_gain2,F,B,16,0,faces,outdoor_scenes,50,50,Stimuli/Experimental_stims/faces/freddy-kearney-o-ioeoATbIM-unsplash.jpg,Stimuli/Experimental_stims/outdoor_scenes/aleksandra-boguslawska-MS7KD9Ti7FQ-unsplash.jpg,0,NaN,NaN,NaN,unchosen,NaN,NaN,NaN,NaN,1800,0,5,4
8,36963,0,9,1,1,0,no_gain6,gain6,I,H,25,19,body_parts,faces,50,50,Stimuli/Experimental_stims/body_parts/engin-akyurt-Q2rfH3GW39c-unsplash.jpg,Stimuli/Experimental_stims/faces/joel-mott-LaK153ghdig-unsplash.jpg,0,NaN,NaN,NaN,unchosen,NaN,NaN,NaN,NaN,1300,0,5,4
9,36963,0,10,1,1,1,gain6,no_gain1,H,L,19,30,faces,body_parts,50,50,Stimuli/Experimental_stims/faces/joel-mott-LaK153ghdig-unsplash.jpg,Stimuli/Experimental_stims/body_parts/mika-korhonen-Xodzxosar18-unsplash.jpg,0,NaN,NaN,NaN,unchosen,NaN,NaN,NaN,NaN,1200,0,5,4
10,36963,0,11,1,1,0,no_gain4,gain5,J,K,47,40,objects,objects,50,50,Stimuli/Experimental_stims/objects/ronaldo-arthur-vidal-Cdz_lvnl37k-unsplash.jpg,Stimuli/Experimental_stims/objects/fabian-blank-pElSkGRA2NU-unsplash.jpg,0,NaN,NaN,NaN,chosen,NaN,NaN,NaN,NaN,3800,1,5,4
11,36963,0,12,1,1,0,no_gain3,gain2,G,D,4,17,outdoor_scenes,faces,50,50,Stimuli/Experimental_stims/outdoor_scenes/jarrett-kow-1ZOyYPOBn7I-unsplash.jpg,Stimuli/Experimental_stims/faces/good-faces-xmSWVeGEnJw-unsplash.jpg,0,NaN,NaN,NaN,chosen,NaN,NaN,NaN,NaN,1100,0,5,4
12,36963,0,13,1,1,1,gain5,no_gain4,K,J,26,23,body_parts,faces,50,50,Stimuli/Experimental_stims/body_parts/engin-akyurt-x_3gyC42btc-unsplash.jpg,Stimuli/Experimental_stims/faces/rikonavt-HQjfrvdTfak-unsplash.jpg,0,NaN,NaN,NaN,unchosen,NaN,NaN,NaN,NaN,2500,0,5,4
13,36963,0,14,1,1,0,no_gain3,gain3,G,C,4,34,outdoor_scenes,body_parts,50,50,Stimuli/Experimental_stims/outdoor_scenes/jarrett-kow-1ZOyYPOBn7I-unsplash.jpg,Stimuli/Experimental_stims/body_parts/wagner-santos-mBWMvIuVnso-unsplash.jpg,0,NaN,NaN,NaN,chosen,NaN,NaN,NaN,NaN,1500,0,5,4
14,36963,0,15,1,1,0,no_gain6,gain1,I,F,25,16,body_parts,faces,50,50,Stimuli/Experimental_stims/body_parts/engin-akyurt-Q2rfH3GW39c-unsplash.jpg,Stimuli/Experimental_stims/faces/freddy-kearney-o-ioeoATbIM-unsplash.jpg,0,NaN,NaN,NaN,unchosen,NaN,NaN,NaN,NaN,1400,0,5,4
15,36963,0,16,1,1,0,no_gain2,gain3,B,C,15,34,faces,body_parts,50,50,Stimuli/Experimental_stims/faces/erik-lucatero-d2MSDujJl2g-unsplash.jpg,Stimuli/Experimental_stims/body_parts/wagner-santos-mBWMvIuVnso-unsplash.jpg,0,NaN,NaN,NaN,chosen,NaN,NaN,NaN,NaN,3300,1,5,4
16,36963,0,17,1,1,0,no_gain3,gain3,G,C,42,5,objects,outdoor_scenes,50,50,Stimuli/Experimental_stims/objects/jess-bailey-nOeVi8DsN8U-unsplash.jpg,Stimuli/Experimental_stims/outdoor_scenes/jeff-king-bJHWJeiHfHc-unsplash.jpg,0,NaN,NaN,NaN,unchosen,NaN,NaN,NaN,NaN,1800,0,5,4
17,36963,0,18,1,1,0,no_gain1,gain3,L,C,30,5,body_parts,outdoor_scenes,50,50,Stimuli/Experimental_stims/body_parts/mika-korhonen-Xodzxosar18-unsplash.jpg,Stimuli/Experimental_stims/outdoor_scenes/jeff-king-bJHWJeiHfHc-unsplash.jpg,0,NaN,NaN,NaN,unchosen,NaN,NaN,NaN,NaN,1900,0,5,4
18,36963,0,19,1,1,0,no_gain6,gain4,I,A,25,6,body_parts,outdoor_scenes,50,50,Stimuli/Experimental_stims/body_parts/engin-akyurt-Q2rfH3GW39c-unsplash.jpg,Stimuli/Experimental_stims/outdoor_scenes/meng-ji-8BH_M-53CyA-unsplash.jpg,0,NaN,NaN,NaN,unchosen,NaN,NaN,NaN,NaN,1100,0,5,4
19,36963,0,20,1,1,0,no_gain2,gain1,B,F,15,35,faces,body_parts,50,50,Stimuli/Experimental_stims/faces/erik-lucatero-d2MSDujJl2g-unsplash.jpg,Stimuli/Experimental_stims/body_parts/wc-so-KH4AAPjb-tI-unsplash.jpg,0,NaN,NaN,NaN,chosen,NaN,NaN,NaN,NaN,1200,0,5,4
20,36963,0,21,1,1,1,gain4,no_gain4,A,J,6,23,outdoor_scenes,faces,50,50,Stimuli/Experimental_stims/outdoor_scenes/meng-ji-8BH_M-53CyA-unsplash.jpg,Stimuli/Experimental_stims/faces/rikonavt-HQjfrvdTfak-unsplash.jpg,0,NaN,NaN,NaN,unchosen,NaN,NaN,NaN,NaN,1400,0,5,4
21,36963,0,22,1,1,0,no_gain4,gain3,J,C,47,34,objects,body_parts,50,50,Stimuli/Experimental_stims/objects/ronaldo-arthur-vidal-Cdz_lvnl37k-unsplash.jpg,Stimuli/Experimental_stims/body_parts/wagner-santos-mBWMvIuVnso-unsplash.jpg,0,NaN,NaN,NaN,chosen,NaN,NaN,NaN,NaN,1100,0,5,4
22,36963,0,23,1,1,0,no_gain3,gain5,G,K,42,26,objects,body_parts,50,50,Stimuli/Experimental_stims/objects/jess-bailey-nOeVi8DsN8U-unsplash.jpg,Stimuli/Experimental_stims/body_parts/engin-akyurt-x_3gyC42btc-unsplash.jpg,0,NaN,NaN,NaN,unchosen,NaN,NaN,NaN,NaN,1500,0,5,4
23,36963,0,24,1,1,1,gain1,no_gain3,F,G,35,4,body_parts,outdoor_scenes,50,50,Stimuli/Experimental_stims/body_parts/wc-so-KH4AAPjb-tI-unsplash.jpg,Stimuli/Experimental_stims/outdoor_scenes/jarrett-kow-1ZOyYPOBn7I-unsplash.jpg,0,NaN,NaN,NaN,chosen,NaN,NaN,NaN,NaN,1600,0,5,4
24,36963,0,25,1,1,1,gain2,no_gain1,D,L,43,30,objects,body_parts,50,50,Stimuli/Experimental_stims/objects/jonathan-greenaway-Y4hGgeiFn3s-unsplash.jpg,Stimuli/Experimental_stims/body_parts/mika-korhonen-Xodzxosar18-unsplash.jpg,0,NaN,NaN,NaN,unchosen,NaN,NaN,NaN,NaN,3000,1,5,4
25,36963,0,26,1,1,1,gain6,no_gain4,H,J,8,47,outdoor_scenes,objects,50,50,Stimuli/Experimental_stims/outdoor_scenes/samsommer-vddccTqwal8-unsplash.jpg,Stimuli/Experimental_stims/objects/ronaldo-arthur-vidal-Cdz_lvnl37k-unsplash.jpg,0,NaN,NaN,NaN,chosen,NaN,NaN,NaN,NaN,1600,0,5,4
26,36963,0,27,1,1,0,no_gain1,gain1,L,F,30,16,body_parts,faces,50,50,Stimuli/Experimental_stims/body_parts/mika-korhonen-Xodzxosar18-unsplash.jpg,Stimuli/Experimental_stims/faces/freddy-kearney-o-ioeoATbIM-unsplash.jpg,0,NaN,NaN,NaN,unchosen,NaN,NaN,NaN,NaN,2900,0,5,4
27,36963,0,28,1,1,0,no_gain1,gain3,L,C,21,34,faces,body_parts,50,50,Stimuli/Experimental_stims/faces/leilani-angel-K84vnnzxmTQ-unsplash.jpg,Stimuli/Experimental_stims/body_parts/wagner-santos-mBWMvIuVnso-unsplash.jpg,0,NaN,NaN,NaN,chosen,NaN,NaN,NaN,NaN,2700,0,5,4
28,36963,0,29,1,1,1,gain5,no_gain3,K,G,40,4,objects,outdoor_scenes,50,50,Stimuli/Experimental_stims/objects/fabian-blank-pElSkGRA2NU-unsplash.jpg,Stimuli/Experimental_stims/outdoor_scenes/jarrett-kow-1ZOyYPOBn7I-unsplash.jpg,0,NaN,NaN,NaN,chosen,NaN,NaN,NaN,NaN,1800,0,5,4
29,36963,0,30,1,1,1,gain5,no_gain5,K,E,26,36,body_parts,objects,50,50,Stimuli/Experimental_stims/body_parts/engin-akyurt-x_3gyC42btc-unsplash.jpg,Stimuli/Experimental_stims/objects/alexander-andrews-JYGnB9gTCls-unsplash.jpg,0,NaN,NaN,NaN,unchosen,NaN,NaN,NaN,NaN,2300,0,5,4
30,36963,0,31,1,1,0,no_gain1,gain4,L,A,21,37,faces,objects,50,50,Stimuli/Experimental_stims/faces/leilani-angel-K84vnnzxmTQ-unsplash.jpg,Stimuli/Experimental_stims/objects/alexander-andrews-VLGWE_SumrA-unsplash.jpg,0,NaN,NaN,NaN,chosen,NaN,NaN,NaN,NaN,2000,0,5,4
31,36963,0,32,1,1,1,gain6,no_gain2,H,B,8,15,outdoor_scenes,faces,50,50,Stimuli/Experimental_stims/outdoor_scenes/samsommer-vddccTqwal8-unsplash.jpg,Stimuli/Experimental_stims/faces/erik-lucatero-d2MSDujJl2g-unsplash.jpg,0,NaN,NaN,NaN,chosen,NaN,NaN,NaN,NaN,2600,0,5,4
32,36963,0,33,1,1,1,gain4,no_gain3,A,G,6,42,outdoor_scenes,objects,50,50,Stimuli/Experimental_stims/outdoor_scenes/meng-ji-8BH_M-53CyA-unsplash.jpg,Stimuli/Experimental_stims/objects/jess-bailey-nOeVi8DsN8U-unsplash.jpg,0,NaN,NaN,NaN,unchosen,NaN,NaN,NaN,NaN,3500,1,5,4
33,36963,0,34,1,1,1,gain4,no_gain5,A,E,6,36,outdoor_scenes,objects,50,50,Stimuli/Experimental_stims/outdoor_scenes/meng-ji-8BH_M-53CyA-unsplash.jpg,Stimuli/Experimental_stims/objects/alexander-andrews-JYGnB9gTCls-unsplash.jpg,0,NaN,NaN,NaN,unchosen,NaN,NaN,NaN,NaN,1000,0,5,4
34,36963,0,35,1,1,0,no_gain5,gain6,E,H,28,8,body_parts,outdoor_scenes,50,50,Stimuli/Experimental_stims/body_parts/ira-vishnevskaya-8DQAvdCby1I-unsplash.jpg,Stimuli/Experimental_stims/outdoor_scenes/samsommer-vddccTqwal8-unsplash.jpg,0,NaN,NaN,NaN,chosen,NaN,NaN,NaN,NaN,1600,0,5,4
35,36963,0,36,1,1,1,gain1,no_gain5,F,E,35,28,body_parts,body_parts,50,50,Stimuli/Experimental_stims/body_parts/wc-so-KH4AAPjb-tI-unsplash.jpg,Stimuli/Experimental_stims/body_parts/ira-vishnevskaya-8DQAvdCby1I-unsplash.jpg,0,NaN,NaN,NaN,chosen,NaN,NaN,NaN,NaN,1200,0,5,4
36,36963,0,37,1,1,0,no_gain6,gain2,I,D,2,17,outdoor_scenes,faces,50,50,Stimuli/Experimental_stims/outdoor_scenes/bruno-van-der-kraan-qez8mNJ3ilU-unsplash.jpg,Stimuli/Experimental_stims/faces/good-faces-xmSWVeGEnJw-unsplash.jpg,0,NaN,NaN,NaN,chosen,NaN,NaN,NaN,NaN,1500,0,5,4
37,36963,0,38,1,1,1,gain2,no_gain6,D,I,43,25,objects,body_parts,50,50,Stimuli/Experimental_stims/objects/jonathan-greenaway-Y4hGgeiFn3s-unsplash.jpg,Stimuli/Experimental_stims/body_parts/engin-akyurt-Q2rfH3GW39c-unsplash.jpg,0,NaN,NaN,NaN,unchosen,NaN,NaN,NaN,NaN,4800,1,5,4
38,36963,0,39,1,1,1,gain2,no_gain2,D,B,17,15,faces,faces,50,50,Stimuli/Experimental_stims/faces/good-faces-xmSWVeGEnJw-unsplash.jpg,Stimuli/Experimental_stims/faces/erik-lucatero-d2MSDujJl2g-unsplash.jpg,0,NaN,NaN,NaN,chosen,NaN,NaN,NaN,NaN,1500,0,5,4
39,36963,0,40,1,1,0,no_gain5,gain1,E,F,36,16,objects,faces,50,50,Stimuli/Experimental_stims/objects/alexander-andrews-JYGnB9gTCls-unsplash.jpg,Stimuli/Experimental_stims/faces/freddy-kearney-o-ioeoATbIM-unsplash.jpg,0,NaN,NaN,NaN,unchosen,NaN,NaN,NaN,NaN,1700,0,5,4
40,36963,0,41,1,1,0,no_gain4,gain1,J,F,23,16,faces,faces,50,50,Stimuli/Experimental_stims/faces/rikonavt-HQjfrvdTfak-unsplash.jpg,Stimuli/Experimental_stims/faces/freddy-kearney-o-ioeoATbIM-unsplash.jpg,0,NaN,NaN,NaN,unchosen,NaN,NaN,NaN,NaN,1200,0,5,4
41,36963,0,42,1,1,1,gain5,no_gain2,K,B,26,0,body_parts,outdoor_scenes,50,50,Stimuli/Experimental_stims/body_parts/engin-akyurt-x_3gyC42btc-unsplash.jpg,Stimuli/Experimental_stims/outdoor_scenes/aleksandra-boguslawska-MS7KD9Ti7FQ-unsplash.jpg,0,NaN,NaN,NaN,unchosen,NaN,NaN,NaN,NaN,1400,0,5,4
42,36963,0,43,1,1,1,gain6,no_gain6,H,I,8,2,outdoor_scenes,outdoor_scenes,50,50,Stimuli/Experimental_stims/outdoor_scenes/samsommer-vddccTqwal8-unsplash.jpg,Stimuli/Experimental_stims/outdoor_scenes/bruno-van-der-kraan-qez8mNJ3ilU-unsplash.jpg,0,NaN,NaN,NaN,chosen,NaN,NaN,NaN,NaN,1800,0,5,4
43,36963,0,44,1,1,1,gain1,no_gain3,F,G,16,42,faces,objects,50,50,Stimuli/Experimental_stims/faces/freddy-kearney-o-ioeoATbIM-unsplash.jpg,Stimuli/Experimental_stims/objects/jess-bailey-nOeVi8DsN8U-unsplash.jpg,0,NaN,NaN,NaN,unchosen,NaN,NaN,NaN,NaN,3600,1,5,4
44,36963,0,45,1,1,1,gain2,no_gain5,D,E,17,28,faces,body_parts,50,50,Stimuli/Experimental_stims/faces/good-faces-xmSWVeGEnJw-unsplash.jpg,Stimuli/Experimental_stims/body_parts/ira-vishnevskaya-8DQAvdCby1I-unsplash.jpg,0,NaN,NaN,NaN,chosen,NaN,NaN,NaN,NaN,1200,0,5,4
45,36963,0,46,1,1,0,no_gain2,gain5,B,K,15,40,faces,objects,50,50,Stimuli/Experimental_stims/faces/erik-lucatero-d2MSDujJl2g-unsplash.jpg,Stimuli/Experimental_stims/objects/fabian-blank-pElSkGRA2NU-unsplash.jpg,0,NaN,NaN,NaN,chosen,NaN,NaN,NaN,NaN,2700,0,5,4
46,36963,0,47,1,1,0,no_gain4,gain3,J,C,23,5,faces,outdoor_scenes,50,50,Stimuli/Experimental_stims/faces/rikonavt-HQjfrvdTfak-unsplash.jpg,Stimuli/Experimental_stims/outdoor_scenes/jeff-king-bJHWJeiHfHc-unsplash.jpg,0,NaN,NaN,NaN,unchosen,NaN,NaN,NaN,NaN,2100,0,5,4
47,36963,0,48,1,1,1,gain6,no_gain4,H,J,19,23,faces,faces,50,50,Stimuli/Experimental_stims/faces/joel-mott-LaK153ghdig-unsplash.jpg,Stimuli/Experimental_stims/faces/rikonavt-HQjfrvdTfak-unsplash.jpg,0,NaN,NaN,NaN,unchosen,NaN,NaN,NaN,NaN,2500,0,5,4
48,36963,0,49,1,1,1,gain3,no_gain6,C,I,34,2,body_parts,outdoor_scenes,50,50,Stimuli/Experimental_stims/body_parts/wagner-santos-mBWMvIuVnso-unsplash.jpg,Stimuli/Experimental_stims/outdoor_scenes/bruno-van-der-kraan-qez8mNJ3ilU-unsplash.jpg,0,NaN,NaN,NaN,chosen,NaN,NaN,NaN,NaN,1500,0,5,4
49,36963,0,50,1,1,1,gain2,no_gain1,D,L,17,21,faces,faces,50,50,Stimuli/Experimental_stims/faces/good-faces-xmSWVeGEnJw-unsplash.jpg,Stimuli/Experimental_stims/faces/leilani-angel-K84vnnzxmTQ-unsplash.jpg,0,NaN,NaN,NaN,chosen,NaN,NaN,NaN,NaN,1300,0,5,4
50,36963,0,51,1,1,1,gain6,no_gain3,H,G,8,4,outdoor_scenes,outdoor_scenes,50,50,Stimuli/Experimental_stims/outdoor_scenes/samsommer-vddccTqwal8-unsplash.jpg,Stimuli/Experimental_stims/outdoor_scenes/jarrett-kow-1ZOyYPOBn7I-unsplash.jpg,0,NaN,NaN,NaN,chosen,NaN,NaN,NaN,NaN,1000,0,5,4
51,36963,0,52,1,1,1,gain6,no_gain3,H,G,19,42,faces,objects,50,50,Stimuli/Experimental_stims/faces/joel-mott-LaK153ghdig-unsplash.jpg,Stimuli/Experimental_stims/objects/jess-bailey-nOeVi8DsN8U-unsplash.jpg,0,NaN,NaN,NaN,unchosen,NaN,NaN,NaN,NaN,1500,0,5,4
52,36963,0,53,1,1,0,no_gain6,gain3,I,C,25,5,body_parts,outdoor_scenes,50,50,Stimuli/Experimental_stims/body_parts/engin-akyurt-Q2rfH3GW39c-unsplash.jpg,Stimuli/Experimental_stims/outdoor_scenes/jeff-king-bJHWJeiHfHc-unsplash.jpg,0,NaN,NaN,NaN,unchosen,NaN,NaN,NaN,NaN,2200,0,5,4
53,36963,0,54,1,1,1,gain2,no_gain5,D,E,43,36,objects,objects,50,50,Stimuli/Experimental_stims/objects/jonathan-greenaway-Y4hGgeiFn3s-unsplash.jpg,Stimuli/Experimental_stims/objects/alexander-andrews-JYGnB9gTCls-unsplash.jpg,0,NaN,NaN,NaN,unchosen,NaN,NaN,NaN,NaN,1300,0,5,4
54,36963,0,55,1,1,1,gain4,no_gain6,A,I,37,2,objects,outdoor_scenes,50,50,Stimuli/Experimental_stims/objects/alexander-andrews-VLGWE_SumrA-unsplash.jpg,Stimuli/Experimental_stims/outdoor_scenes/bruno-van-der-kraan-qez8mNJ3ilU-unsplash.jpg,0,NaN,NaN,NaN,chosen,NaN,NaN,NaN,NaN,3000,1,5,4
55,36963,0,56,1,1,1,gain4,no_gain2,A,B,6,0,outdoor_scenes,outdoor_scenes,50,50,Stimuli/Experimental_stims/outdoor_scenes/meng-ji-8BH_M-53CyA-unsplash.jpg,Stimuli/Experimental_stims/outdoor_scenes/aleksandra-boguslawska-MS7KD9Ti7FQ-unsplash.jpg,0,NaN,NaN,NaN,unchosen,NaN,NaN,NaN,NaN,1400,0,5,4
56,36963,0,57,1,1,1,gain3,no_gain2,C,B,5,0,outdoor_scenes,outdoor_scenes,50,50,Stimuli/Experimental_stims/outdoor_scenes/jeff-king-bJHWJeiHfHc-unsplash.jpg,Stimuli/Experimental_stims/outdoor_scenes/aleksandra-boguslawska-MS7KD9Ti7FQ-unsplash.jpg,0,NaN,NaN,NaN,unchosen,NaN,NaN,NaN,NaN,1500,0,5,4
57,36963,0,58,1,1,0,no_gain4,gain1,J,F,47,35,objects,body_parts,50,50,Stimuli/Experimental_stims/objects/ronaldo-arthur-vidal-Cdz_lvnl37k-unsplash.jpg,Stimuli/Experimental_stims/body_parts/wc-so-KH4AAPjb-tI-unsplash.jpg,0,NaN,NaN,NaN,chosen,NaN,NaN,NaN,NaN,1200,0,5,4
58,36963,0,59,1,1,0,no_gain2,gain2,B,D,0,43,outdoor_scenes,objects,50,50,Stimuli/Experimental_stims/outdoor_scenes/aleksandra-boguslawska-MS7KD9Ti7FQ-unsplash.jpg,Stimuli/Experimental_stims/objects/jonathan-greenaway-Y4hGgeiFn3s-unsplash.jpg,0,NaN,NaN,NaN,unchosen,NaN,NaN,NaN,NaN,1600,0,5,4
59,36963,0,60,1,1,0,no_gain6,gain1,I,F,2,35,outdoor_scenes,body_parts,50,50,Stimuli/Experimental_stims/outdoor_scenes/bruno-van-der-kraan-qez8mNJ3ilU-unsplash.jpg,Stimuli/Experimental_stims/body_parts/wc-so-KH4AAPjb-tI-unsplash.jpg,0,NaN,NaN,NaN,chosen,NaN,NaN,NaN,NaN,2300,0,5,4
60,36963,0,61,1,1,1,gain2,no_gain3,D,G,43,42,objects,objects,50,50,Stimuli/Experimental_stims/objects/jonathan-greenaway-Y4hGgeiFn3s-unsplash.jpg,Stimuli/Experimental_stims/objects/jess-bailey-nOeVi8DsN8U-unsplash.jpg,0,NaN,NaN,NaN,unchosen,NaN,NaN,NaN,NaN,1400,0,5,4
61,36963,0,62,1,1,0,no_gain5,gain4,E,A,28,37,body_parts,objects,50,50,Stimuli/Experimental_stims/body_parts/ira-vishnevskaya-8DQAvdCby1I-unsplash.jpg,Stimuli/Experimental_stims/objects/alexander-andrews-VLGWE_SumrA-unsplash.jpg,0,NaN,NaN,NaN,chosen,NaN,NaN,NaN,NaN,4400,1,5,4
62,36963,0,63,1,1,1,gain3,no_gain5,C,E,34,28,body_parts,body_parts,50,50,Stimuli/Experimental_stims/body_parts/wagner-santos-mBWMvIuVnso-unsplash.jpg,Stimuli/Experimental_stims/body_parts/ira-vishnevskaya-8DQAvdCby1I-unsplash.jpg,0,NaN,NaN,NaN,chosen,NaN,NaN,NaN,NaN,1900,0,5,4
63,36963,0,64,1,1,0,no_gain6,gain5,I,K,25,26,body_parts,body_parts,50,50,Stimuli/Experimental_stims/body_parts/engin-akyurt-Q2rfH3GW39c-unsplash.jpg,Stimuli/Experimental_stims/body_parts/engin-akyurt-x_3gyC42btc-unsplash.jpg,0,NaN,NaN,NaN,unchosen,NaN,NaN,NaN,NaN,2000,0,5,4
64,36963,0,65,1,1,0,no_gain5,gain6,E,H,36,19,objects,faces,50,50,Stimuli/Experimental_stims/objects/alexander-andrews-JYGnB9gTCls-unsplash.jpg,Stimuli/Experimental_stims/faces/joel-mott-LaK153ghdig-unsplash.jpg,0,NaN,NaN,NaN,unchosen,NaN,NaN,NaN,NaN,1500,0,5,4
65,36963,0,66,1,1,1,gain5,no_gain6,K,I,40,2,objects,outdoor_scenes,50,50,Stimuli/Experimental_stims/objects/fabian-blank-pElSkGRA2NU-unsplash.jpg,Stimuli/Experimental_stims/outdoor_scenes/bruno-van-der-kraan-qez8mNJ3ilU-unsplash.jpg,0,NaN,NaN,NaN,chosen,NaN,NaN,NaN,NaN,1600,0,5,4
66,36963,0,67,1,1,0,no_gain2,gain6,B,H,0,19,outdoor_scenes,faces,50,50,Stimuli/Experimental_stims/outdoor_scenes/aleksandra-boguslawska-MS7KD9Ti7FQ-unsplash.jpg,Stimuli/Experimental_stims/faces/joel-mott-LaK153ghdig-unsplash.jpg,0,NaN,NaN,NaN,unchosen,NaN,NaN,NaN,NaN,3000,1,5,4
67,36963,0,68,1,1,0,no_gain1,gain1,L,F,21,35,faces,body_parts,50,50,Stimuli/Experimental_stims/faces/leilani-angel-K84vnnzxmTQ-unsplash.jpg,Stimuli/Experimental_stims/body_parts/wc-so-KH4AAPjb-tI-unsplash.jpg,0,NaN,NaN,NaN,chosen,NaN,NaN,NaN,NaN,1900,0,5,4
68,36963,0,69,1,1,0,no_gain4,gain2,J,D,23,43,faces,objects,50,50,Stimuli/Experimental_stims/faces/rikonavt-HQjfrvdTfak-unsplash.jpg,Stimuli/Experimental_stims/objects/jonathan-greenaway-Y4hGgeiFn3s-unsplash.jpg,0,NaN,NaN,NaN,unchosen,NaN,NaN,NaN,NaN,1100,0,5,4
69,36963,0,70,1,1,1,gain4,no_gain3,A,G,37,4,objects,outdoor_scenes,50,50,Stimuli/Experimental_stims/objects/alexander-andrews-VLGWE_SumrA-unsplash.jpg,Stimuli/Experimental_stims/outdoor_scenes/jarrett-kow-1ZOyYPOBn7I-unsplash.jpg,0,NaN,NaN,NaN,chosen,NaN,NaN,NaN,NaN,1300,0,5,4
70,36963,0,71,1,1,1,gain6,no_gain1,H,L,8,21,outdoor_scenes,faces,50,50,Stimuli/Experimental_stims/outdoor_scenes/samsommer-vddccTqwal8-unsplash.jpg,Stimuli/Experimental_stims/faces/leilani-angel-K84vnnzxmTQ-unsplash.jpg,0,NaN,NaN,NaN,chosen,NaN,NaN,NaN,NaN,2600,0,5,4
71,36963,0,72,1,1,0,no_gain5,gain5,E,K,28,40,body_parts,objects,50,50,Stimuli/Experimental_stims/body_parts/ira-vishnevskaya-8DQAvdCby1I-unsplash.jpg,Stimuli/Experimental_stims/objects/fabian-blank-pElSkGRA2NU-unsplash.jpg,0,NaN,NaN,NaN,chosen,NaN,NaN,NaN,NaN,1100,0,5,4
72,36963,0,73,1,1,0,no_gain1,gain5,L,K,30,26,body_parts,body_parts,50,50,Stimuli/Experimental_stims/body_parts/mika-korhonen-Xodzxosar18-unsplash.jpg,Stimuli/Experimental_stims/body_parts/engin-akyurt-x_3gyC42btc-unsplash.jpg,0,NaN,NaN,NaN,unchosen,NaN,NaN,NaN,NaN,2500,0,5,4
73,36963,0,74,1,1,1,gain4,no_gain4,A,J,37,47,objects,objects,50,50,Stimuli/Experimental_stims/objects/alexander-andrews-VLGWE_SumrA-unsplash.jpg,Stimuli/Experimental_stims/objects/ronaldo-arthur-vidal-Cdz_lvnl37k-unsplash.jpg,0,NaN,NaN,NaN,chosen,NaN,NaN,NaN,NaN,2600,0,5,4
74,36963,0,75,1,1,0,no_gain1,gain5,L,K,21,40,faces,objects,50,50,Stimuli/Experimental_stims/faces/leilani-angel-K84vnnzxmTQ-unsplash.jpg,Stimuli/Experimental_stims/objects/fabian-blank-pElSkGRA2NU-unsplash.jpg,0,NaN,NaN,NaN,chosen,NaN,NaN,NaN,NaN,1100,0,5,4
75,36963,0,76,1,1,1,gain3,no_gain5,C,E,5,36,outdoor_scenes,objects,50,50,Stimuli/Experimental_stims/outdoor_scenes/jeff-king-bJHWJeiHfHc-unsplash.jpg,Stimuli/Experimental_stims/objects/alexander-andrews-JYGnB9gTCls-unsplash.jpg,0,NaN,NaN,NaN,unchosen,NaN,NaN,NaN,NaN,4200,1,5,4
76,36963,0,77,2,2,1,gain4,no_gain6,A,I,6,25,outdoor_scenes,body_parts,50,50,Stimuli/Experimental_stims/outdoor_scenes/meng-ji-8BH_M-53CyA-unsplash.jpg,Stimuli/Experimental_stims/body_parts/engin-akyurt-Q2rfH3GW39c-unsplash.jpg,0,NaN,NaN,NaN,unchosen,NaN,NaN,NaN,NaN,1200,0,8,4
77,36963,0,78,2,2,1,gain4,no_gain3,A,G,6,42,outdoor_scenes,objects,50,50,Stimuli/Experimental_stims/outdoor_scenes/meng-ji-8BH_M-53CyA-unsplash.jpg,Stimuli/Experimental_stims/objects/jess-bailey-nOeVi8DsN8U-unsplash.jpg,0,NaN,NaN,NaN,unchosen,NaN,NaN,NaN,NaN,1400,0,8,4
78,36963,0,79,2,2,1,gain5,no_gain2,K,B,26,0,body_parts,outdoor_scenes,50,50,Stimuli/Experimental_stims/body_parts/engin-akyurt-x_3gyC42btc-unsplash.jpg,Stimuli/Experimental_stims/outdoor_scenes/aleksandra-boguslawska-MS7KD9Ti7FQ-unsplash.jpg,0,NaN,NaN,NaN,unchosen,NaN,NaN,NaN,NaN,2800,0,8,4
79,36963,0,80,2,2,0,no_gain3,gain1,G,F,4,35,outdoor_scenes,body_parts,50,50,Stimuli/Experimental_stims/outdoor_scenes/jarrett-kow-1ZOyYPOBn7I-unsplash.jpg,Stimuli/Experimental_stims/body_parts/wc-so-KH4AAPjb-tI-unsplash.jpg,0,NaN,NaN,NaN,chosen,NaN,NaN,NaN,NaN,1700,0,8,4
80,36963,0,81,2,2,0,no_gain5,gain6,E,H,36,19,objects,faces,50,50,Stimuli/Experimental_stims/objects/alexander-andrews-JYGnB9gTCls-unsplash.jpg,Stimuli/Experimental_stims/faces/joel-mott-LaK153ghdig-unsplash.jpg,0,NaN,NaN,NaN,unchosen,NaN,NaN,NaN,NaN,3700,1,8,4
81,36963,0,82,2,2,1,gain1,no_gain4,F,J,16,23,faces,faces,50,50,Stimuli/Experimental_stims/faces/freddy-kearney-o-ioeoATbIM-unsplash.jpg,Stimuli/Experimental_stims/faces/rikonavt-HQjfrvdTfak-unsplash.jpg,0,NaN,NaN,NaN,unchosen,NaN,NaN,NaN,NaN,2300,0,8,4
82,36963,0,83,2,2,0,no_gain1,gain1,L,F,21,35,faces,body_parts,50,50,Stimuli/Experimental_stims/faces/leilani-angel-K84vnnzxmTQ-unsplash.jpg,Stimuli/Experimental_stims/body_parts/wc-so-KH4AAPjb-tI-unsplash.jpg,0,NaN,NaN,NaN,chosen,NaN,NaN,NaN,NaN,2900,0,8,4
83,36963,0,84,2,2,0,no_gain3,gain5,G,K,42,26,objects,body_parts,50,50,Stimuli/Experimental_stims/objects/jess-bailey-nOeVi8DsN8U-unsplash.jpg,Stimuli/Experimental_stims/body_parts/engin-akyurt-x_3gyC42btc-unsplash.jpg,0,NaN,NaN,NaN,unchosen,NaN,NaN,NaN,NaN,2300,0,8,4
84,36963,0,85,2,2,0,no_gain2,gain1,B,F,15,35,faces,body_parts,50,50,Stimuli/Experimental_stims/faces/erik-lucatero-d2MSDujJl2g-unsplash.jpg,Stimuli/Experimental_stims/body_parts/wc-so-KH4AAPjb-tI-unsplash.jpg,0,NaN,NaN,NaN,chosen,NaN,NaN,NaN,NaN,1200,0,8,4
85,36963,0,86,2,2,0,no_gain1,gain1,L,F,30,16,body_parts,faces,50,50,Stimuli/Experimental_stims/body_parts/mika-korhonen-Xodzxosar18-unsplash.jpg,Stimuli/Experimental_stims/faces/freddy-kearney-o-ioeoATbIM-unsplash.jpg,0,NaN,NaN,NaN,unchosen,NaN,NaN,NaN,NaN,3100,1,8,4
86,36963,0,87,2,2,0,no_gain2,gain4,B,A,15,37,faces,objects,50,50,Stimuli/Experimental_stims/faces/erik-lucatero-d2MSDujJl2g-unsplash.jpg,Stimuli/Experimental_stims/objects/alexander-andrews-VLGWE_SumrA-unsplash.jpg,0,NaN,NaN,NaN,chosen,NaN,NaN,NaN,NaN,1200,0,8,4
87,36963,0,88,2,2,0,no_gain5,gain2,E,D,36,43,objects,objects,50,50,Stimuli/Experimental_stims/objects/alexander-andrews-JYGnB9gTCls-unsplash.jpg,Stimuli/Experimental_stims/objects/jonathan-greenaway-Y4hGgeiFn3s-unsplash.jpg,0,NaN,NaN,NaN,unchosen,NaN,NaN,NaN,NaN,1900,0,8,4
88,36963,0,89,2,2,1,gain6,no_gain1,H,L,8,21,outdoor_scenes,faces,50,50,Stimuli/Experimental_stims/outdoor_scenes/samsommer-vddccTqwal8-unsplash.jpg,Stimuli/Experimental_stims/faces/leilani-angel-K84vnnzxmTQ-unsplash.jpg,0,NaN,NaN,NaN,chosen,NaN,NaN,NaN,NaN,2800,0,8,4
89,36963,0,90,2,2,1,gain5,no_gain3,K,G,40,4,objects,outdoor_scenes,50,50,Stimuli/Experimental_stims/objects/fabian-blank-pElSkGRA2NU-unsplash.jpg,Stimuli/Experimental_stims/outdoor_scenes/jarrett-kow-1ZOyYPOBn7I-unsplash.jpg,0,NaN,NaN,NaN,chosen,NaN,NaN,NaN,NaN,1200,0,8,4
90,36963,0,91,2,2,1,gain4,no_gain4,A,J,6,23,outdoor_scenes,faces,50,50,Stimuli/Experimental_stims/outdoor_scenes/meng-ji-8BH_M-53CyA-unsplash.jpg,Stimuli/Experimental_stims/faces/rikonavt-HQjfrvdTfak-unsplash.jpg,0,NaN,NaN,NaN,unchosen,NaN,NaN,NaN,NaN,3800,1,8,4
91,36963,0,92,2,2,0,no_gain1,gain2,L,D,30,43,body_parts,objects,50,50,Stimuli/Experimental_stims/body_parts/mika-korhonen-Xodzxosar18-unsplash.jpg,Stimuli/Experimental_stims/objects/jonathan-greenaway-Y4hGgeiFn3s-unsplash.jpg,0,NaN,NaN,NaN,unchosen,NaN,NaN,NaN,NaN,1800,0,8,4
92,36963,0,93,2,2,0,no_gain3,gain4,G,A,4,37,outdoor_scenes,objects,50,50,Stimuli/Experimental_stims/outdoor_scenes/jarrett-kow-1ZOyYPOBn7I-unsplash.jpg,Stimuli/Experimental_stims/objects/alexander-andrews-VLGWE_SumrA-unsplash.jpg,0,NaN,NaN,NaN,chosen,NaN,NaN,NaN,NaN,2300,0,8,4
93,36963,0,94,2,2,1,gain5,no_gain1,K,L,40,21,objects,faces,50,50,Stimuli/Experimental_stims/objects/fabian-blank-pElSkGRA2NU-unsplash.jpg,Stimuli/Experimental_stims/faces/leilani-angel-K84vnnzxmTQ-unsplash.jpg,0,NaN,NaN,NaN,chosen,NaN,NaN,NaN,NaN,1400,0,8,4
94,36963,0,95,2,2,0,no_gain5,gain4,E,A,36,6,objects,outdoor_scenes,50,50,Stimuli/Experimental_stims/objects/alexander-andrews-JYGnB9gTCls-unsplash.jpg,Stimuli/Experimental_stims/outdoor_scenes/meng-ji-8BH_M-53CyA-unsplash.jpg,0,NaN,NaN,NaN,unchosen,NaN,NaN,NaN,NaN,1300,0,8,4
95,36963,0,96,2,2,1,gain4,no_gain5,A,E,37,28,objects,body_parts,50,50,Stimuli/Experimental_stims/objects/alexander-andrews-VLGWE_SumrA-unsplash.jpg,Stimuli/Experimental_stims/body_parts/ira-vishnevskaya-8DQAvdCby1I-unsplash.jpg,0,NaN,NaN,NaN,chosen,NaN,NaN,NaN,NaN,1700,0,8,4
96,36963,0,97,2,2,1,gain5,no_gain1,K,L,26,30,body_parts,body_parts,50,50,Stimuli/Experimental_stims/body_parts/engin-akyurt-x_3gyC42btc-unsplash.jpg,Stimuli/Experimental_stims/body_parts/mika-korhonen-Xodzxosar18-unsplash.jpg,0,NaN,NaN,NaN,unchosen,NaN,NaN,NaN,NaN,3100,1,8,4
97,36963,0,98,2,2,1,gain1,no_gain6,F,I,35,2,body_parts,outdoor_scenes,50,50,Stimuli/Experimental_stims/body_parts/wc-so-KH4AAPjb-tI-unsplash.jpg,Stimuli/Experimental_stims/outdoor_scenes/bruno-van-der-kraan-qez8mNJ3ilU-unsplash.jpg,0,NaN,NaN,NaN,chosen,NaN,NaN,NaN,NaN,1300,0,8,4
98,36963,0,99,2,2,0,no_gain2,gain1,B,F,0,16,outdoor_scenes,faces,50,50,Stimuli/Experimental_stims/outdoor_scenes/aleksandra-boguslawska-MS7KD9Ti7FQ-unsplash.jpg,Stimuli/Experimental_stims/faces/freddy-kearney-o-ioeoATbIM-unsplash.jpg,0,NaN,NaN,NaN,unchosen,NaN,NaN,NaN,NaN,2100,0,8,4
99,36963,0,100,2,2,1,gain2,no_gain3,D,G,17,4,faces,outdoor_scenes,50,50,Stimuli/Experimental_stims/faces/good-faces-xmSWVeGEnJw-unsplash.jpg,Stimuli/Experimental_stims/outdoor_scenes/jarrett-kow-1ZOyYPOBn7I-unsplash.jpg,0,NaN,NaN,NaN,chosen,NaN,NaN,NaN,NaN,1000,0,8,4
100,36963,0,101,2,2,1,gain2,no_gain2,D,B,17,15,faces,faces,50,50,Stimuli/Experimental_stims/faces/good-faces-xmSWVeGEnJw-unsplash.jpg,Stimuli/Experimental_stims/faces/erik-lucatero-d2MSDujJl2g-unsplash.jpg,0,NaN,NaN,NaN,chosen,NaN,NaN,NaN,NaN,1200,0,8,4
101,36963,0,102,2,2,1,gain3,no_gain1,C,L,34,21,body_parts,faces,50,50,Stimuli/Experimental_stims/body_parts/wagner-santos-mBWMvIuVnso-unsplash.jpg,Stimuli/Experimental_stims/faces/leilani-angel-K84vnnzxmTQ-unsplash.jpg,0,NaN,NaN,NaN,chosen,NaN,NaN,NaN,NaN,1700,0,8,4
102,36963,0,103,2,2,0,no_gain5,gain5,E,K,36,26,objects,body_parts,50,50,Stimuli/Experimental_stims/objects/alexander-andrews-JYGnB9gTCls-unsplash.jpg,Stimuli/Experimental_stims/body_parts/engin-akyurt-x_3gyC42btc-unsplash.jpg,0,NaN,NaN,NaN,unchosen,NaN,NaN,NaN,NaN,1100,0,8,4
103,36963,0,104,2,2,0,no_gain6,gain5,I,K,2,40,outdoor_scenes,objects,50,50,Stimuli/Experimental_stims/outdoor_scenes/bruno-van-der-kraan-qez8mNJ3ilU-unsplash.jpg,Stimuli/Experimental_stims/objects/fabian-blank-pElSkGRA2NU-unsplash.jpg,0,NaN,NaN,NaN,chosen,NaN,NaN,NaN,NaN,1900,0,8,4
104,36963,0,105,2,2,0,no_gain2,gain3,B,C,15,34,faces,body_parts,50,50,Stimuli/Experimental_stims/faces/erik-lucatero-d2MSDujJl2g-unsplash.jpg,Stimuli/Experimental_stims/body_parts/wagner-santos-mBWMvIuVnso-unsplash.jpg,0,NaN,NaN,NaN,chosen,NaN,NaN,NaN,NaN,4100,1,8,4
105,36963,0,106,2,2,0,no_gain1,gain4,L,A,30,6,body_parts,outdoor_scenes,50,50,Stimuli/Experimental_stims/body_parts/mika-korhonen-Xodzxosar18-unsplash.jpg,Stimuli/Experimental_stims/outdoor_scenes/meng-ji-8BH_M-53CyA-unsplash.jpg,0,NaN,NaN,NaN,unchosen,NaN,NaN,NaN,NaN,1400,0,8,4
106,36963,0,107,2,2,0,no_gain4,gain2,J,D,23,43,faces,objects,50,50,Stimuli/Experimental_stims/faces/rikonavt-HQjfrvdTfak-unsplash.jpg,Stimuli/Experimental_stims/objects/jonathan-greenaway-Y4hGgeiFn3s-unsplash.jpg,0,NaN,NaN,NaN,unchosen,NaN,NaN,NaN,NaN,2400,0,8,4
107,36963,0,108,2,2,0,no_gain5,gain1,E,F,28,35,body_parts,body_parts,50,50,Stimuli/Experimental_stims/body_parts/ira-vishnevskaya-8DQAvdCby1I-unsplash.jpg,Stimuli/Experimental_stims/body_parts/wc-so-KH4AAPjb-tI-unsplash.jpg,0,NaN,NaN,NaN,chosen,NaN,NaN,NaN,NaN,1200,0,8,4
108,36963,0,109,2,2,1,gain6,no_gain1,H,L,19,30,faces,body_parts,50,50,Stimuli/Experimental_stims/faces/joel-mott-LaK153ghdig-unsplash.jpg,Stimuli/Experimental_stims/body_parts/mika-korhonen-Xodzxosar18-unsplash.jpg,0,NaN,NaN,NaN,unchosen,NaN,NaN,NaN,NaN,1500,0,8,4
109,36963,0,110,2,2,1,gain1,no_gain6,F,I,16,25,faces,body_parts,50,50,Stimuli/Experimental_stims/faces/freddy-kearney-o-ioeoATbIM-unsplash.jpg,Stimuli/Experimental_stims/body_parts/engin-akyurt-Q2rfH3GW39c-unsplash.jpg,0,NaN,NaN,NaN,unchosen,NaN,NaN,NaN,NaN,3200,1,8,4
110,36963,0,111,2,2,0,no_gain5,gain2,E,D,28,17,body_parts,faces,50,50,Stimuli/Experimental_stims/body_parts/ira-vishnevskaya-8DQAvdCby1I-unsplash.jpg,Stimuli/Experimental_stims/faces/good-faces-xmSWVeGEnJw-unsplash.jpg,0,NaN,NaN,NaN,chosen,NaN,NaN,NaN,NaN,1800,0,8,4
111,36963,0,112,2,2,0,no_gain5,gain1,E,F,36,16,objects,faces,50,50,Stimuli/Experimental_stims/objects/alexander-andrews-JYGnB9gTCls-unsplash.jpg,Stimuli/Experimental_stims/faces/freddy-kearney-o-ioeoATbIM-unsplash.jpg,0,NaN,NaN,NaN,unchosen,NaN,NaN,NaN,NaN,1100,0,8,4
112,36963,0,113,2,2,1,gain2,no_gain6,D,I,43,25,objects,body_parts,50,50,Stimuli/Experimental_stims/objects/jonathan-greenaway-Y4hGgeiFn3s-unsplash.jpg,Stimuli/Experimental_stims/body_parts/engin-akyurt-Q2rfH3GW39c-unsplash.jpg,0,NaN,NaN,NaN,unchosen,NaN,NaN,NaN,NaN,1700,0,8,4
113,36963,0,114,2,2,1,gain6,no_gain4,H,J,8,47,outdoor_scenes,objects,50,50,Stimuli/Experimental_stims/outdoor_scenes/samsommer-vddccTqwal8-unsplash.jpg,Stimuli/Experimental_stims/objects/ronaldo-arthur-vidal-Cdz_lvnl37k-unsplash.jpg,0,NaN,NaN,NaN,chosen,NaN,NaN,NaN,NaN,2700,0,8,4
114,36963,0,115,2,2,1,gain6,no_gain3,H,G,19,42,faces,objects,50,50,Stimuli/Experimental_stims/faces/joel-mott-LaK153ghdig-unsplash.jpg,Stimuli/Experimental_stims/objects/jess-bailey-nOeVi8DsN8U-unsplash.jpg,0,NaN,NaN,NaN,unchosen,NaN,NaN,NaN,NaN,1100,0,8,4
115,36963,0,116,2,2,0,no_gain6,gain4,I,A,2,37,outdoor_scenes,objects,50,50,Stimuli/Experimental_stims/outdoor_scenes/bruno-van-der-kraan-qez8mNJ3ilU-unsplash.jpg,Stimuli/Experimental_stims/objects/alexander-andrews-VLGWE_SumrA-unsplash.jpg,0,NaN,NaN,NaN,chosen,NaN,NaN,NaN,NaN,1100,0,8,4
116,36963,0,117,2,2,0,no_gain1,gain3,L,C,30,5,body_parts,outdoor_scenes,50,50,Stimuli/Experimental_stims/body_parts/mika-korhonen-Xodzxosar18-unsplash.jpg,Stimuli/Experimental_stims/outdoor_scenes/jeff-king-bJHWJeiHfHc-unsplash.jpg,0,NaN,NaN,NaN,unchosen,NaN,NaN,NaN,NaN,2400,0,8,4
117,36963,0,118,2,2,1,gain3,no_gain6,C,I,34,2,body_parts,outdoor_scenes,50,50,Stimuli/Experimental_stims/body_parts/wagner-santos-mBWMvIuVnso-unsplash.jpg,Stimuli/Experimental_stims/outdoor_scenes/bruno-van-der-kraan-qez8mNJ3ilU-unsplash.jpg,0,NaN,NaN,NaN,chosen,NaN,NaN,NaN,NaN,3400,1,8,4
118,36963,0,119,2,2,1,gain3,no_gain3,C,G,34,4,body_parts,outdoor_scenes,50,50,Stimuli/Experimental_stims/body_parts/wagner-santos-mBWMvIuVnso-unsplash.jpg,Stimuli/Experimental_stims/outdoor_scenes/jarrett-kow-1ZOyYPOBn7I-unsplash.jpg,0,NaN,NaN,NaN,chosen,NaN,NaN,NaN,NaN,2000,0,8,4
119,36963,0,120,2,2,0,no_gain6,gain3,I,C,25,5,body_parts,outdoor_scenes,50,50,Stimuli/Experimental_stims/body_parts/engin-akyurt-Q2rfH3GW39c-unsplash.jpg,Stimuli/Experimental_stims/outdoor_scenes/jeff-king-bJHWJeiHfHc-unsplash.jpg,0,NaN,NaN,NaN,unchosen,NaN,NaN,NaN,NaN,2100,0,8,4
120,36963,0,121,2,2,0,no_gain2,gain6,B,H,0,19,outdoor_scenes,faces,50,50,Stimuli/Experimental_stims/outdoor_scenes/aleksandra-boguslawska-MS7KD9Ti7FQ-unsplash.jpg,Stimuli/Experimental_stims/faces/joel-mott-LaK153ghdig-unsplash.jpg,0,NaN,NaN,NaN,unchosen,NaN,NaN,NaN,NaN,2500,0,8,4
121,36963,0,122,2,2,1,gain5,no_gain4,K,J,26,23,body_parts,faces,50,50,Stimuli/Experimental_stims/body_parts/engin-akyurt-x_3gyC42btc-unsplash.jpg,Stimuli/Experimental_stims/faces/rikonavt-HQjfrvdTfak-unsplash.jpg,0,NaN,NaN,NaN,unchosen,NaN,NaN,NaN,NaN,1600,0,8,4
122,36963,0,123,2,2,1,gain2,no_gain4,D,J,17,47,faces,objects,50,50,Stimuli/Experimental_stims/faces/good-faces-xmSWVeGEnJw-unsplash.jpg,Stimuli/Experimental_stims/objects/ronaldo-arthur-vidal-Cdz_lvnl37k-unsplash.jpg,0,NaN,NaN,NaN,chosen,NaN,NaN,NaN,NaN,2400,0,8,4
123,36963,0,124,2,2,1,gain4,no_gain1,A,L,37,21,objects,faces,50,50,Stimuli/Experimental_stims/objects/alexander-andrews-VLGWE_SumrA-unsplash.jpg,Stimuli/Experimental_stims/faces/leilani-angel-K84vnnzxmTQ-unsplash.jpg,0,NaN,NaN,NaN,chosen,NaN,NaN,NaN,NaN,1300,0,8,4
124,36963,0,125,2,2,1,gain3,no_gain4,C,J,5,23,outdoor_scenes,faces,50,50,Stimuli/Experimental_stims/outdoor_scenes/jeff-king-bJHWJeiHfHc-unsplash.jpg,Stimuli/Experimental_stims/faces/rikonavt-HQjfrvdTfak-unsplash.jpg,0,NaN,NaN,NaN,unchosen,NaN,NaN,NaN,NaN,1900,0,8,4
125,36963,0,126,2,2,1,gain2,no_gain1,D,L,17,21,faces,faces,50,50,Stimuli/Experimental_stims/faces/good-faces-xmSWVeGEnJw-unsplash.jpg,Stimuli/Experimental_stims/faces/leilani-angel-K84vnnzxmTQ-unsplash.jpg,0,NaN,NaN,NaN,chosen,NaN,NaN,NaN,NaN,1600,0,8,4
126,36963,0,127,2,2,0,no_gain2,gain5,B,K,15,40,faces,objects,50,50,Stimuli/Experimental_stims/faces/erik-lucatero-d2MSDujJl2g-unsplash.jpg,Stimuli/Experimental_stims/objects/fabian-blank-pElSkGRA2NU-unsplash.jpg,0,NaN,NaN,NaN,chosen,NaN,NaN,NaN,NaN,1100,0,8,4
127,36963,0,128,2,2,1,gain3,no_gain2,C,B,5,0,outdoor_scenes,outdoor_scenes,50,50,Stimuli/Experimental_stims/outdoor_scenes/jeff-king-bJHWJeiHfHc-unsplash.jpg,Stimuli/Experimental_stims/outdoor_scenes/aleksandra-boguslawska-MS7KD9Ti7FQ-unsplash.jpg,0,NaN,NaN,NaN,unchosen,NaN,NaN,NaN,NaN,1200,0,8,4
128,36963,0,129,2,2,1,gain3,no_gain3,C,G,5,42,outdoor_scenes,objects,50,50,Stimuli/Experimental_stims/outdoor_scenes/jeff-king-bJHWJeiHfHc-unsplash.jpg,Stimuli/Experimental_stims/objects/jess-bailey-nOeVi8DsN8U-unsplash.jpg,0,NaN,NaN,NaN,unchosen,NaN,NaN,NaN,NaN,1300,0,8,4
129,36963,0,130,2,2,1,gain4,no_gain4,A,J,37,47,objects,objects,50,50,Stimuli/Experimental_stims/objects/alexander-andrews-VLGWE_SumrA-unsplash.jpg,Stimuli/Experimental_stims/objects/ronaldo-arthur-vidal-Cdz_lvnl37k-unsplash.jpg,0,NaN,NaN,NaN,chosen,NaN,NaN,NaN,NaN,1000,0,8,4
130,36963,0,131,2,2,0,no_gain4,gain1,J,F,47,35,objects,body_parts,50,50,Stimuli/Experimental_stims/objects/ronaldo-arthur-vidal-Cdz_lvnl37k-unsplash.jpg,Stimuli/Experimental_stims/body_parts/wc-so-KH4AAPjb-tI-unsplash.jpg,0,NaN,NaN,NaN,chosen,NaN,NaN,NaN,NaN,2900,0,8,4
131,36963,0,132,2,2,0,no_gain2,gain6,B,H,15,8,faces,outdoor_scenes,50,50,Stimuli/Experimental_stims/faces/erik-lucatero-d2MSDujJl2g-unsplash.jpg,Stimuli/Experimental_stims/outdoor_scenes/samsommer-vddccTqwal8-unsplash.jpg,0,NaN,NaN,NaN,chosen,NaN,NaN,NaN,NaN,2200,0,8,4
132,36963,0,133,2,2,0,no_gain3,gain2,G,D,42,43,objects,objects,50,50,Stimuli/Experimental_stims/objects/jess-bailey-nOeVi8DsN8U-unsplash.jpg,Stimuli/Experimental_stims/objects/jonathan-greenaway-Y4hGgeiFn3s-unsplash.jpg,0,NaN,NaN,NaN,unchosen,NaN,NaN,NaN,NaN,3200,1,8,4
133,36963,0,134,2,2,1,gain1,no_gain3,F,G,16,42,faces,objects,50,50,Stimuli/Experimental_stims/faces/freddy-kearney-o-ioeoATbIM-unsplash.jpg,Stimuli/Experimental_stims/objects/jess-bailey-nOeVi8DsN8U-unsplash.jpg,0,NaN,NaN,NaN,unchosen,NaN,NaN,NaN,NaN,2600,0,8,4
134,36963,0,135,2,2,0,no_gain6,gain6,I,H,25,19,body_parts,faces,50,50,Stimuli/Experimental_stims/body_parts/engin-akyurt-Q2rfH3GW39c-unsplash.jpg,Stimuli/Experimental_stims/faces/joel-mott-LaK153ghdig-unsplash.jpg,0,NaN,NaN,NaN,unchosen,NaN,NaN,NaN,NaN,1200,0,8,4
135,36963,0,136,2,2,0,no_gain4,gain3,J,C,47,34,objects,body_parts,50,50,Stimuli/Experimental_stims/objects/ronaldo-arthur-vidal-Cdz_lvnl37k-unsplash.jpg,Stimuli/Experimental_stims/body_parts/wagner-santos-mBWMvIuVnso-unsplash.jpg,0,NaN,NaN,NaN,chosen,NaN,NaN,NaN,NaN,1100,0,8,4
136,36963,0,137,2,2,1,gain5,no_gain6,K,I,26,25,body_parts,body_parts,50,50,Stimuli/Experimental_stims/body_parts/engin-akyurt-x_3gyC42btc-unsplash.jpg,Stimuli/Experimental_stims/body_parts/engin-akyurt-Q2rfH3GW39c-unsplash.jpg,0,NaN,NaN,NaN,unchosen,NaN,NaN,NaN,NaN,2000,0,8,4
137,36963,0,138,2,2,0,no_gain6,gain2,I,D,2,17,outdoor_scenes,faces,50,50,Stimuli/Experimental_stims/outdoor_scenes/bruno-van-der-kraan-qez8mNJ3ilU-unsplash.jpg,Stimuli/Experimental_stims/faces/good-faces-xmSWVeGEnJw-unsplash.jpg,0,NaN,NaN,NaN,chosen,NaN,NaN,NaN,NaN,4100,1,8,4
138,36963,0,139,2,2,0,no_gain2,gain4,B,A,0,6,outdoor_scenes,outdoor_scenes,50,50,Stimuli/Experimental_stims/outdoor_scenes/aleksandra-boguslawska-MS7KD9Ti7FQ-unsplash.jpg,Stimuli/Experimental_stims/outdoor_scenes/meng-ji-8BH_M-53CyA-unsplash.jpg,0,NaN,NaN,NaN,unchosen,NaN,NaN,NaN,NaN,1700,0,8,4
139,36963,0,140,2,2,0,no_gain2,gain2,B,D,0,43,outdoor_scenes,objects,50,50,Stimuli/Experimental_stims/outdoor_scenes/aleksandra-boguslawska-MS7KD9Ti7FQ-unsplash.jpg,Stimuli/Experimental_stims/objects/jonathan-greenaway-Y4hGgeiFn3s-unsplash.jpg,0,NaN,NaN,NaN,unchosen,NaN,NaN,NaN,NaN,1200,0,8,4
140,36963,0,141,2,2,1,gain6,no_gain3,H,G,8,4,outdoor_scenes,outdoor_scenes,50,50,Stimuli/Experimental_stims/outdoor_scenes/samsommer-vddccTqwal8-unsplash.jpg,Stimuli/Experimental_stims/outdoor_scenes/jarrett-kow-1ZOyYPOBn7I-unsplash.jpg,0,NaN,NaN,NaN,chosen,NaN,NaN,NaN,NaN,1000,0,8,4
141,36963,0,142,2,2,0,no_gain5,gain5,E,K,28,40,body_parts,objects,50,50,Stimuli/Experimental_stims/body_parts/ira-vishnevskaya-8DQAvdCby1I-unsplash.jpg,Stimuli/Experimental_stims/objects/fabian-blank-pElSkGRA2NU-unsplash.jpg,0,NaN,NaN,NaN,chosen,NaN,NaN,NaN,NaN,1800,0,8,4
142,36963,0,143,2,2,0,no_gain5,gain6,E,H,28,8,body_parts,outdoor_scenes,50,50,Stimuli/Experimental_stims/body_parts/ira-vishnevskaya-8DQAvdCby1I-unsplash.jpg,Stimuli/Experimental_stims/outdoor_scenes/samsommer-vddccTqwal8-unsplash.jpg,0,NaN,NaN,NaN,chosen,NaN,NaN,NaN,NaN,3500,1,8,4
143,36963,0,144,2,2,1,gain6,no_gain4,H,J,19,23,faces,faces,50,50,Stimuli/Experimental_stims/faces/joel-mott-LaK153ghdig-unsplash.jpg,Stimuli/Experimental_stims/faces/rikonavt-HQjfrvdTfak-unsplash.jpg,0,NaN,NaN,NaN,unchosen,NaN,NaN,NaN,NaN,2700,0,8,4
144,36963,0,145,2,2,1,gain6,no_gain6,H,I,8,2,outdoor_scenes,outdoor_scenes,50,50,Stimuli/Experimental_stims/outdoor_scenes/samsommer-vddccTqwal8-unsplash.jpg,Stimuli/Experimental_stims/outdoor_scenes/bruno-van-der-kraan-qez8mNJ3ilU-unsplash.jpg,0,NaN,NaN,NaN,chosen,NaN,NaN,NaN,NaN,2400,0,8,4
145,36963,0,146,2,2,1,gain3,no_gain5,C,E,5,36,outdoor_scenes,objects,50,50,Stimuli/Experimental_stims/outdoor_scenes/jeff-king-bJHWJeiHfHc-unsplash.jpg,Stimuli/Experimental_stims/objects/alexander-andrews-JYGnB9gTCls-unsplash.jpg,0,NaN,NaN,NaN,unchosen,NaN,NaN,NaN,NaN,1400,0,8,4
146,36963,0,147,2,2,1,gain5,no_gain4,K,J,40,47,objects,objects,50,50,Stimuli/Experimental_stims/objects/fabian-blank-pElSkGRA2NU-unsplash.jpg,Stimuli/Experimental_stims/objects/ronaldo-arthur-vidal-Cdz_lvnl37k-unsplash.jpg,0,NaN,NaN,NaN,chosen,NaN,NaN,NaN,NaN,1200,0,8,4
147,36963,0,148,2,2,0,no_gain5,gain3,E,C,28,34,body_parts,body_parts,50,50,Stimuli/Experimental_stims/body_parts/ira-vishnevskaya-8DQAvdCby1I-unsplash.jpg,Stimuli/Experimental_stims/body_parts/wagner-santos-mBWMvIuVnso-unsplash.jpg,0,NaN,NaN,NaN,chosen,NaN,NaN,NaN,NaN,3300,1,8,4
148,36963,0,149,3,3,1,gain5,no_gain3,K,G,40,4,objects,outdoor_scenes,50,50,Stimuli/Experimental_stims/objects/fabian-blank-pElSkGRA2NU-unsplash.jpg,Stimuli/Experimental_stims/outdoor_scenes/jarrett-kow-1ZOyYPOBn7I-unsplash.jpg,0,NaN,NaN,NaN,chosen,NaN,NaN,NaN,NaN,3900,1,7,4
149,36963,0,150,3,3,0,no_gain3,gain4,G,A,4,37,outdoor_scenes,objects,50,50,Stimuli/Experimental_stims/outdoor_scenes/jarrett-kow-1ZOyYPOBn7I-unsplash.jpg,Stimuli/Experimental_stims/objects/alexander-andrews-VLGWE_SumrA-unsplash.jpg,0,NaN,NaN,NaN,chosen,NaN,NaN,NaN,NaN,1200,0,7,4
150,36963,0,151,3,3,1,gain6,no_gain3,H,G,8,4,outdoor_scenes,outdoor_scenes,50,50,Stimuli/Experimental_stims/outdoor_scenes/samsommer-vddccTqwal8-unsplash.jpg,Stimuli/Experimental_stims/outdoor_scenes/jarrett-kow-1ZOyYPOBn7I-unsplash.jpg,0,NaN,NaN,NaN,chosen,NaN,NaN,NaN,NaN,1500,0,7,4
151,36963,0,152,3,3,1,gain4,no_gain4,A,J,6,23,outdoor_scenes,faces,50,50,Stimuli/Experimental_stims/outdoor_scenes/meng-ji-8BH_M-53CyA-unsplash.jpg,Stimuli/Experimental_stims/faces/rikonavt-HQjfrvdTfak-unsplash.jpg,0,NaN,NaN,NaN,unchosen,NaN,NaN,NaN,NaN,2700,0,7,4
152,36963,0,153,3,3,1,gain5,no_gain5,K,E,26,36,body_parts,objects,50,50,Stimuli/Experimental_stims/body_parts/engin-akyurt-x_3gyC42btc-unsplash.jpg,Stimuli/Experimental_stims/objects/alexander-andrews-JYGnB9gTCls-unsplash.jpg,0,NaN,NaN,NaN,unchosen,NaN,NaN,NaN,NaN,1300,0,7,4
153,36963,0,154,3,3,0,no_gain6,gain1,I,F,2,35,outdoor_scenes,body_parts,50,50,Stimuli/Experimental_stims/outdoor_scenes/bruno-van-der-kraan-qez8mNJ3ilU-unsplash.jpg,Stimuli/Experimental_stims/body_parts/wc-so-KH4AAPjb-tI-unsplash.jpg,0,NaN,NaN,NaN,chosen,NaN,NaN,NaN,NaN,1000,0,7,4
154,36963,0,155,3,3,1,gain1,no_gain3,F,G,35,4,body_parts,outdoor_scenes,50,50,Stimuli/Experimental_stims/body_parts/wc-so-KH4AAPjb-tI-unsplash.jpg,Stimuli/Experimental_stims/outdoor_scenes/jarrett-kow-1ZOyYPOBn7I-unsplash.jpg,0,NaN,NaN,NaN,chosen,NaN,NaN,NaN,NaN,3000,1,7,4
155,36963,0,156,3,3,0,no_gain2,gain3,B,C,0,5,outdoor_scenes,outdoor_scenes,50,50,Stimuli/Experimental_stims/outdoor_scenes/aleksandra-boguslawska-MS7KD9Ti7FQ-unsplash.jpg,Stimuli/Experimental_stims/outdoor_scenes/jeff-king-bJHWJeiHfHc-unsplash.jpg,0,NaN,NaN,NaN,unchosen,NaN,NaN,NaN,NaN,2800,0,7,4
156,36963,0,157,3,3,1,gain3,no_gain5,C,E,34,28,body_parts,body_parts,50,50,Stimuli/Experimental_stims/body_parts/wagner-santos-mBWMvIuVnso-unsplash.jpg,Stimuli/Experimental_stims/body_parts/ira-vishnevskaya-8DQAvdCby1I-unsplash.jpg,0,NaN,NaN,NaN,chosen,NaN,NaN,NaN,NaN,1400,0,7,4
157,36963,0,158,3,3,1,gain1,no_gain1,F,L,35,21,body_parts,faces,50,50,Stimuli/Experimental_stims/body_parts/wc-so-KH4AAPjb-tI-unsplash.jpg,Stimuli/Experimental_stims/faces/leilani-angel-K84vnnzxmTQ-unsplash.jpg,0,NaN,NaN,NaN,chosen,NaN,NaN,NaN,NaN,2500,0,7,4
158,36963,0,159,3,3,0,no_gain3,gain2,G,D,42,43,objects,objects,50,50,Stimuli/Experimental_stims/objects/jess-bailey-nOeVi8DsN8U-unsplash.jpg,Stimuli/Experimental_stims/objects/jonathan-greenaway-Y4hGgeiFn3s-unsplash.jpg,0,NaN,NaN,NaN,unchosen,NaN,NaN,NaN,NaN,1600,0,7,4
159,36963,0,160,3,3,1,gain2,no_gain4,D,J,43,23,objects,faces,50,50,Stimuli/Experimental_stims/objects/jonathan-greenaway-Y4hGgeiFn3s-unsplash.jpg,Stimuli/Experimental_stims/faces/rikonavt-HQjfrvdTfak-unsplash.jpg,0,NaN,NaN,NaN,unchosen,NaN,NaN,NaN,NaN,3600,1,7,4
160,36963,0,161,3,3,0,no_gain4,gain5,J,K,23,26,faces,body_parts,50,50,Stimuli/Experimental_stims/faces/rikonavt-HQjfrvdTfak-unsplash.jpg,Stimuli/Experimental_stims/body_parts/engin-akyurt-x_3gyC42btc-unsplash.jpg,0,NaN,NaN,NaN,unchosen,NaN,NaN,NaN,NaN,1200,0,7,4
161,36963,0,162,3,3,0,no_gain5,gain4,E,A,28,37,body_parts,objects,50,50,Stimuli/Experimental_stims/body_parts/ira-vishnevskaya-8DQAvdCby1I-unsplash.jpg,Stimuli/Experimental_stims/objects/alexander-andrews-VLGWE_SumrA-unsplash.jpg,0,NaN,NaN,NaN,chosen,NaN,NaN,NaN,NaN,1800,0,7,4
162,36963,0,163,3,3,1,gain2,no_gain5,D,E,17,28,faces,body_parts,50,50,Stimuli/Experimental_stims/faces/good-faces-xmSWVeGEnJw-unsplash.jpg,Stimuli/Experimental_stims/body_parts/ira-vishnevskaya-8DQAvdCby1I-unsplash.jpg,0,NaN,NaN,NaN,chosen,NaN,NaN,NaN,NaN,2800,0,7,4
163,36963,0,164,3,3,1,gain5,no_gain6,K,I,26,25,body_parts,body_parts,50,50,Stimuli/Experimental_stims/body_parts/engin-akyurt-x_3gyC42btc-unsplash.jpg,Stimuli/Experimental_stims/body_parts/engin-akyurt-Q2rfH3GW39c-unsplash.jpg,0,NaN,NaN,NaN,unchosen,NaN,NaN,NaN,NaN,2100,0,7,4
164,36963,0,165,3,3,0,no_gain4,gain3,J,C,47,34,objects,body_parts,50,50,Stimuli/Experimental_stims/objects/ronaldo-arthur-vidal-Cdz_lvnl37k-unsplash.jpg,Stimuli/Experimental_stims/body_parts/wagner-santos-mBWMvIuVnso-unsplash.jpg,0,NaN,NaN,NaN,chosen,NaN,NaN,NaN,NaN,1500,0,7,4
165,36963,0,166,3,3,0,no_gain1,gain5,L,K,21,40,faces,objects,50,50,Stimuli/Experimental_stims/faces/leilani-angel-K84vnnzxmTQ-unsplash.jpg,Stimuli/Experimental_stims/objects/fabian-blank-pElSkGRA2NU-unsplash.jpg,0,NaN,NaN,NaN,chosen,NaN,NaN,NaN,NaN,2100,0,7,4
166,36963,0,167,3,3,0,no_gain3,gain2,G,D,4,17,outdoor_scenes,faces,50,50,Stimuli/Experimental_stims/outdoor_scenes/jarrett-kow-1ZOyYPOBn7I-unsplash.jpg,Stimuli/Experimental_stims/faces/good-faces-xmSWVeGEnJw-unsplash.jpg,0,NaN,NaN,NaN,chosen,NaN,NaN,NaN,NaN,3600,1,7,4
167,36963,0,168,3,3,1,gain6,no_gain4,H,J,19,23,faces,faces,50,50,Stimuli/Experimental_stims/faces/joel-mott-LaK153ghdig-unsplash.jpg,Stimuli/Experimental_stims/faces/rikonavt-HQjfrvdTfak-unsplash.jpg,0,NaN,NaN,NaN,unchosen,NaN,NaN,NaN,NaN,1300,0,7,4
168,36963,0,169,3,3,0,no_gain4,gain2,J,D,47,17,objects,faces,50,50,Stimuli/Experimental_stims/objects/ronaldo-arthur-vidal-Cdz_lvnl37k-unsplash.jpg,Stimuli/Experimental_stims/faces/good-faces-xmSWVeGEnJw-unsplash.jpg,0,NaN,NaN,NaN,chosen,NaN,NaN,NaN,NaN,2700,0,7,4
169,36963,0,170,3,3,1,gain1,no_gain4,F,J,16,23,faces,faces,50,50,Stimuli/Experimental_stims/faces/freddy-kearney-o-ioeoATbIM-unsplash.jpg,Stimuli/Experimental_stims/faces/rikonavt-HQjfrvdTfak-unsplash.jpg,0,NaN,NaN,NaN,unchosen,NaN,NaN,NaN,NaN,1400,0,7,4
170,36963,0,171,3,3,0,no_gain2,gain4,B,A,0,6,outdoor_scenes,outdoor_scenes,50,50,Stimuli/Experimental_stims/outdoor_scenes/aleksandra-boguslawska-MS7KD9Ti7FQ-unsplash.jpg,Stimuli/Experimental_stims/outdoor_scenes/meng-ji-8BH_M-53CyA-unsplash.jpg,0,NaN,NaN,NaN,unchosen,NaN,NaN,NaN,NaN,2300,0,7,4
171,36963,0,172,3,3,0,no_gain1,gain1,L,F,30,16,body_parts,faces,50,50,Stimuli/Experimental_stims/body_parts/mika-korhonen-Xodzxosar18-unsplash.jpg,Stimuli/Experimental_stims/faces/freddy-kearney-o-ioeoATbIM-unsplash.jpg,0,NaN,NaN,NaN,unchosen,NaN,NaN,NaN,NaN,3400,1,7,4
172,36963,0,173,3,3,1,gain4,no_gain2,A,B,37,15,objects,faces,50,50,Stimuli/Experimental_stims/objects/alexander-andrews-VLGWE_SumrA-unsplash.jpg,Stimuli/Experimental_stims/faces/erik-lucatero-d2MSDujJl2g-unsplash.jpg,0,NaN,NaN,NaN,chosen,NaN,NaN,NaN,NaN,1200,0,7,4
173,36963,0,174,3,3,0,no_gain6,gain6,I,H,25,19,body_parts,faces,50,50,Stimuli/Experimental_stims/body_parts/engin-akyurt-Q2rfH3GW39c-unsplash.jpg,Stimuli/Experimental_stims/faces/joel-mott-LaK153ghdig-unsplash.jpg,0,NaN,NaN,NaN,unchosen,NaN,NaN,NaN,NaN,2500,0,7,4
174,36963,0,175,3,3,1,gain3,no_gain3,C,G,34,4,body_parts,outdoor_scenes,50,50,Stimuli/Experimental_stims/body_parts/wagner-santos-mBWMvIuVnso-unsplash.jpg,Stimuli/Experimental_stims/outdoor_scenes/jarrett-kow-1ZOyYPOBn7I-unsplash.jpg,0,NaN,NaN,NaN,chosen,NaN,NaN,NaN,NaN,2600,0,7,4
175,36963,0,176,3,3,0,no_gain2,gain6,B,H,0,19,outdoor_scenes,faces,50,50,Stimuli/Experimental_stims/outdoor_scenes/aleksandra-boguslawska-MS7KD9Ti7FQ-unsplash.jpg,Stimuli/Experimental_stims/faces/joel-mott-LaK153ghdig-unsplash.jpg,0,NaN,NaN,NaN,unchosen,NaN,NaN,NaN,NaN,2100,0,7,4
176,36963,0,177,3,3,1,gain1,no_gain5,F,E,35,28,body_parts,body_parts,50,50,Stimuli/Experimental_stims/body_parts/wc-so-KH4AAPjb-tI-unsplash.jpg,Stimuli/Experimental_stims/body_parts/ira-vishnevskaya-8DQAvdCby1I-unsplash.jpg,0,NaN,NaN,NaN,chosen,NaN,NaN,NaN,NaN,3300,1,7,4
177,36963,0,178,3,3,0,no_gain1,gain5,L,K,30,26,body_parts,body_parts,50,50,Stimuli/Experimental_stims/body_parts/mika-korhonen-Xodzxosar18-unsplash.jpg,Stimuli/Experimental_stims/body_parts/engin-akyurt-x_3gyC42btc-unsplash.jpg,0,NaN,NaN,NaN,unchosen,NaN,NaN,NaN,NaN,1200,0,7,4
178,36963,0,179,3,3,1,gain2,no_gain6,D,I,17,2,faces,outdoor_scenes,50,50,Stimuli/Experimental_stims/faces/good-faces-xmSWVeGEnJw-unsplash.jpg,Stimuli/Experimental_stims/outdoor_scenes/bruno-van-der-kraan-qez8mNJ3ilU-unsplash.jpg,0,NaN,NaN,NaN,chosen,NaN,NaN,NaN,NaN,1500,0,7,4
179,36963,0,180,3,3,1,gain3,no_gain6,C,I,5,25,outdoor_scenes,body_parts,50,50,Stimuli/Experimental_stims/outdoor_scenes/jeff-king-bJHWJeiHfHc-unsplash.jpg,Stimuli/Experimental_stims/body_parts/engin-akyurt-Q2rfH3GW39c-unsplash.jpg,0,NaN,NaN,NaN,unchosen,NaN,NaN,NaN,NaN,1700,0,7,4
180,36963,0,181,3,3,0,no_gain5,gain1,E,F,36,16,objects,faces,50,50,Stimuli/Experimental_stims/objects/alexander-andrews-JYGnB9gTCls-unsplash.jpg,Stimuli/Experimental_stims/faces/freddy-kearney-o-ioeoATbIM-unsplash.jpg,0,NaN,NaN,NaN,unchosen,NaN,NaN,NaN,NaN,1500,0,7,4
181,36963,0,182,3,3,1,gain2,no_gain6,D,I,43,25,objects,body_parts,50,50,Stimuli/Experimental_stims/objects/jonathan-greenaway-Y4hGgeiFn3s-unsplash.jpg,Stimuli/Experimental_stims/body_parts/engin-akyurt-Q2rfH3GW39c-unsplash.jpg,0,NaN,NaN,NaN,unchosen,NaN,NaN,NaN,NaN,1300,0,7,4
182,36963,0,183,3,3,1,gain1,no_gain4,F,J,35,47,body_parts,objects,50,50,Stimuli/Experimental_stims/body_parts/wc-so-KH4AAPjb-tI-unsplash.jpg,Stimuli/Experimental_stims/objects/ronaldo-arthur-vidal-Cdz_lvnl37k-unsplash.jpg,0,NaN,NaN,NaN,chosen,NaN,NaN,NaN,NaN,2000,0,7,4
183,36963,0,184,3,3,0,no_gain1,gain6,L,H,30,19,body_parts,faces,50,50,Stimuli/Experimental_stims/body_parts/mika-korhonen-Xodzxosar18-unsplash.jpg,Stimuli/Experimental_stims/faces/joel-mott-LaK153ghdig-unsplash.jpg,0,NaN,NaN,NaN,unchosen,NaN,NaN,NaN,NaN,1500,0,7,4
184,36963,0,185,3,3,1,gain5,no_gain5,K,E,40,28,objects,body_parts,50,50,Stimuli/Experimental_stims/objects/fabian-blank-pElSkGRA2NU-unsplash.jpg,Stimuli/Experimental_stims/body_parts/ira-vishnevskaya-8DQAvdCby1I-unsplash.jpg,0,NaN,NaN,NaN,chosen,NaN,NaN,NaN,NaN,2200,0,7,4
185,36963,0,186,3,3,1,gain6,no_gain1,H,L,8,21,outdoor_scenes,faces,50,50,Stimuli/Experimental_stims/outdoor_scenes/samsommer-vddccTqwal8-unsplash.jpg,Stimuli/Experimental_stims/faces/leilani-angel-K84vnnzxmTQ-unsplash.jpg,0,NaN,NaN,NaN,chosen,NaN,NaN,NaN,NaN,1300,0,7,4
186,36963,0,187,3,3,0,no_gain6,gain4,I,A,2,37,outdoor_scenes,objects,50,50,Stimuli/Experimental_stims/outdoor_scenes/bruno-van-der-kraan-qez8mNJ3ilU-unsplash.jpg,Stimuli/Experimental_stims/objects/alexander-andrews-VLGWE_SumrA-unsplash.jpg,0,NaN,NaN,NaN,chosen,NaN,NaN,NaN,NaN,1000,0,7,4
187,36963,0,188,3,3,1,gain1,no_gain2,F,B,16,0,faces,outdoor_scenes,50,50,Stimuli/Experimental_stims/faces/freddy-kearney-o-ioeoATbIM-unsplash.jpg,Stimuli/Experimental_stims/outdoor_scenes/aleksandra-boguslawska-MS7KD9Ti7FQ-unsplash.jpg,0,NaN,NaN,NaN,unchosen,NaN,NaN,NaN,NaN,3000,1,7,4
188,36963,0,189,3,3,0,no_gain2,gain5,B,K,0,26,outdoor_scenes,body_parts,50,50,Stimuli/Experimental_stims/outdoor_scenes/aleksandra-boguslawska-MS7KD9Ti7FQ-unsplash.jpg,Stimuli/Experimental_stims/body_parts/engin-akyurt-x_3gyC42btc-unsplash.jpg,0,NaN,NaN,NaN,unchosen,NaN,NaN,NaN,NaN,1300,0,7,4
189,36963,0,190,3,3,1,gain1,no_gain3,F,G,16,42,faces,objects,50,50,Stimuli/Experimental_stims/faces/freddy-kearney-o-ioeoATbIM-unsplash.jpg,Stimuli/Experimental_stims/objects/jess-bailey-nOeVi8DsN8U-unsplash.jpg,0,NaN,NaN,NaN,unchosen,NaN,NaN,NaN,NaN,2200,0,7,4
190,36963,0,191,3,3,0,no_gain1,gain2,L,D,21,17,faces,faces,50,50,Stimuli/Experimental_stims/faces/leilani-angel-K84vnnzxmTQ-unsplash.jpg,Stimuli/Experimental_stims/faces/good-faces-xmSWVeGEnJw-unsplash.jpg,0,NaN,NaN,NaN,chosen,NaN,NaN,NaN,NaN,1100,0,7,4
191,36963,0,192,3,3,0,no_gain3,gain5,G,K,42,26,objects,body_parts,50,50,Stimuli/Experimental_stims/objects/jess-bailey-nOeVi8DsN8U-unsplash.jpg,Stimuli/Experimental_stims/body_parts/engin-akyurt-x_3gyC42btc-unsplash.jpg,0,NaN,NaN,NaN,unchosen,NaN,NaN,NaN,NaN,2100,0,7,4
192,36963,0,193,3,3,0,no_gain2,gain6,B,H,15,8,faces,outdoor_scenes,50,50,Stimuli/Experimental_stims/faces/erik-lucatero-d2MSDujJl2g-unsplash.jpg,Stimuli/Experimental_stims/outdoor_scenes/samsommer-vddccTqwal8-unsplash.jpg,0,NaN,NaN,NaN,chosen,NaN,NaN,NaN,NaN,2300,0,7,4
193,36963,0,194,3,3,0,no_gain4,gain5,J,K,47,40,objects,objects,50,50,Stimuli/Experimental_stims/objects/ronaldo-arthur-vidal-Cdz_lvnl37k-unsplash.jpg,Stimuli/Experimental_stims/objects/fabian-blank-pElSkGRA2NU-unsplash.jpg,0,NaN,NaN,NaN,chosen,NaN,NaN,NaN,NaN,3900,1,7,4
194,36963,0,195,3,3,0,no_gain4,gain6,J,H,47,8,objects,outdoor_scenes,50,50,Stimuli/Experimental_stims/objects/ronaldo-arthur-vidal-Cdz_lvnl37k-unsplash.jpg,Stimuli/Experimental_stims/outdoor_scenes/samsommer-vddccTqwal8-unsplash.jpg,0,NaN,NaN,NaN,chosen,NaN,NaN,NaN,NaN,1700,0,7,4
195,36963,0,196,3,3,1,gain4,no_gain3,A,G,6,42,outdoor_scenes,objects,50,50,Stimuli/Experimental_stims/outdoor_scenes/meng-ji-8BH_M-53CyA-unsplash.jpg,Stimuli/Experimental_stims/objects/jess-bailey-nOeVi8DsN8U-unsplash.jpg,0,NaN,NaN,NaN,unchosen,NaN,NaN,NaN,NaN,1200,0,7,4
196,36963,0,197,3,3,0,no_gain1,gain4,L,A,30,6,body_parts,outdoor_scenes,50,50,Stimuli/Experimental_stims/body_parts/mika-korhonen-Xodzxosar18-unsplash.jpg,Stimuli/Experimental_stims/outdoor_scenes/meng-ji-8BH_M-53CyA-unsplash.jpg,0,NaN,NaN,NaN,unchosen,NaN,NaN,NaN,NaN,1200,0,7,4
197,36963,0,198,3,3,1,gain2,no_gain2,D,B,43,0,objects,outdoor_scenes,50,50,Stimuli/Experimental_stims/objects/jonathan-greenaway-Y4hGgeiFn3s-unsplash.jpg,Stimuli/Experimental_stims/outdoor_scenes/aleksandra-boguslawska-MS7KD9Ti7FQ-unsplash.jpg,0,NaN,NaN,NaN,unchosen,NaN,NaN,NaN,NaN,1900,0,7,4
198,36963,0,199,3,3,0,no_gain6,gain3,I,C,2,34,outdoor_scenes,body_parts,50,50,Stimuli/Experimental_stims/outdoor_scenes/bruno-van-der-kraan-qez8mNJ3ilU-unsplash.jpg,Stimuli/Experimental_stims/body_parts/wagner-santos-mBWMvIuVnso-unsplash.jpg,0,NaN,NaN,NaN,chosen,NaN,NaN,NaN,NaN,1000,0,7,4
199,36963,0,200,3,3,0,no_gain4,gain4,J,A,47,37,objects,objects,50,50,Stimuli/Experimental_stims/objects/ronaldo-arthur-vidal-Cdz_lvnl37k-unsplash.jpg,Stimuli/Experimental_stims/objects/alexander-andrews-VLGWE_SumrA-unsplash.jpg,0,NaN,NaN,NaN,chosen,NaN,NaN,NaN,NaN,3900,1,7,4
200,36963,0,201,3,3,0,no_gain6,gain5,I,K,2,40,outdoor_scenes,objects,50,50,Stimuli/Experimental_stims/outdoor_scenes/bruno-van-der-kraan-qez8mNJ3ilU-unsplash.jpg,Stimuli/Experimental_stims/objects/fabian-blank-pElSkGRA2NU-unsplash.jpg,0,NaN,NaN,NaN,chosen,NaN,NaN,NaN,NaN,2100,0,7,4
201,36963,0,202,3,3,1,gain6,no_gain5,H,E,19,36,faces,objects,50,50,Stimuli/Experimental_stims/faces/joel-mott-LaK153ghdig-unsplash.jpg,Stimuli/Experimental_stims/objects/alexander-andrews-JYGnB9gTCls-unsplash.jpg,0,NaN,NaN,NaN,unchosen,NaN,NaN,NaN,NaN,1300,0,7,4
202,36963,0,203,3,3,0,no_gain2,gain5,B,K,15,40,faces,objects,50,50,Stimuli/Experimental_stims/faces/erik-lucatero-d2MSDujJl2g-unsplash.jpg,Stimuli/Experimental_stims/objects/fabian-blank-pElSkGRA2NU-unsplash.jpg,0,NaN,NaN,NaN,chosen,NaN,NaN,NaN,NaN,1800,0,7,4
203,36963,0,204,3,3,1,gain4,no_gain1,A,L,37,21,objects,faces,50,50,Stimuli/Experimental_stims/objects/alexander-andrews-VLGWE_SumrA-unsplash.jpg,Stimuli/Experimental_stims/faces/leilani-angel-K84vnnzxmTQ-unsplash.jpg,0,NaN,NaN,NaN,chosen,NaN,NaN,NaN,NaN,1900,0,7,4
204,36963,0,205,3,3,1,gain6,no_gain3,H,G,19,42,faces,objects,50,50,Stimuli/Experimental_stims/faces/joel-mott-LaK153ghdig-unsplash.jpg,Stimuli/Experimental_stims/objects/jess-bailey-nOeVi8DsN8U-unsplash.jpg,0,NaN,NaN,NaN,unchosen,NaN,NaN,NaN,NaN,2600,0,7,4
205,36963,0,206,3,3,1,gain4,no_gain6,A,I,6,25,outdoor_scenes,body_parts,50,50,Stimuli/Experimental_stims/outdoor_scenes/meng-ji-8BH_M-53CyA-unsplash.jpg,Stimuli/Experimental_stims/body_parts/engin-akyurt-Q2rfH3GW39c-unsplash.jpg,0,NaN,NaN,NaN,unchosen,NaN,NaN,NaN,NaN,2400,0,7,4
206,36963,0,207,3,3,0,no_gain5,gain4,E,A,36,6,objects,outdoor_scenes,50,50,Stimuli/Experimental_stims/objects/alexander-andrews-JYGnB9gTCls-unsplash.jpg,Stimuli/Experimental_stims/outdoor_scenes/meng-ji-8BH_M-53CyA-unsplash.jpg,0,NaN,NaN,NaN,unchosen,NaN,NaN,NaN,NaN,2500,0,7,4
207,36963,0,208,3,3,0,no_gain5,gain6,E,H,28,8,body_parts,outdoor_scenes,50,50,Stimuli/Experimental_stims/body_parts/ira-vishnevskaya-8DQAvdCby1I-unsplash.jpg,Stimuli/Experimental_stims/outdoor_scenes/samsommer-vddccTqwal8-unsplash.jpg,0,NaN,NaN,NaN,chosen,NaN,NaN,NaN,NaN,2900,1,7,4
208,36963,0,209,3,3,0,no_gain4,gain3,J,C,23,5,faces,outdoor_scenes,50,50,Stimuli/Experimental_stims/faces/rikonavt-HQjfrvdTfak-unsplash.jpg,Stimuli/Experimental_stims/outdoor_scenes/jeff-king-bJHWJeiHfHc-unsplash.jpg,0,NaN,NaN,NaN,unchosen,NaN,NaN,NaN,NaN,1000,0,7,4
209,36963,0,210,3,3,0,no_gain1,gain3,L,C,21,34,faces,body_parts,50,50,Stimuli/Experimental_stims/faces/leilani-angel-K84vnnzxmTQ-unsplash.jpg,Stimuli/Experimental_stims/body_parts/wagner-santos-mBWMvIuVnso-unsplash.jpg,0,NaN,NaN,NaN,chosen,NaN,NaN,NaN,NaN,1500,0,7,4
210,36963,0,211,3,3,1,gain3,no_gain3,C,G,5,42,outdoor_scenes,objects,50,50,Stimuli/Experimental_stims/outdoor_scenes/jeff-king-bJHWJeiHfHc-unsplash.jpg,Stimuli/Experimental_stims/objects/jess-bailey-nOeVi8DsN8U-unsplash.jpg,0,NaN,NaN,NaN,unchosen,NaN,NaN,NaN,NaN,2000,0,7,4
211,36963,0,212,3,3,1,gain1,no_gain6,F,I,16,25,faces,body_parts,50,50,Stimuli/Experimental_stims/faces/freddy-kearney-o-ioeoATbIM-unsplash.jpg,Stimuli/Experimental_stims/body_parts/engin-akyurt-Q2rfH3GW39c-unsplash.jpg,0,NaN,NaN,NaN,unchosen,NaN,NaN,NaN,NaN,1400,0,7,4
212,36963,0,213,3,3,0,no_gain5,gain2,E,D,36,43,objects,objects,50,50,Stimuli/Experimental_stims/objects/alexander-andrews-JYGnB9gTCls-unsplash.jpg,Stimuli/Experimental_stims/objects/jonathan-greenaway-Y4hGgeiFn3s-unsplash.jpg,0,NaN,NaN,NaN,unchosen,NaN,NaN,NaN,NaN,1800,0,7,4
213,36963,0,214,3,3,1,gain6,no_gain6,H,I,8,2,outdoor_scenes,outdoor_scenes,50,50,Stimuli/Experimental_stims/outdoor_scenes/samsommer-vddccTqwal8-unsplash.jpg,Stimuli/Experimental_stims/outdoor_scenes/bruno-van-der-kraan-qez8mNJ3ilU-unsplash.jpg,0,NaN,NaN,NaN,chosen,NaN,NaN,NaN,NaN,2500,0,7,4
214,36963,0,215,3,3,1,gain1,no_gain2,F,B,35,15,body_parts,faces,50,50,Stimuli/Experimental_stims/body_parts/wc-so-KH4AAPjb-tI-unsplash.jpg,Stimuli/Experimental_stims/faces/erik-lucatero-d2MSDujJl2g-unsplash.jpg,0,NaN,NaN,NaN,chosen,NaN,NaN,NaN,NaN,1600,0,7,4
215,36963,0,216,3,3,0,no_gain1,gain2,L,D,30,43,body_parts,objects,50,50,Stimuli/Experimental_stims/body_parts/mika-korhonen-Xodzxosar18-unsplash.jpg,Stimuli/Experimental_stims/objects/jonathan-greenaway-Y4hGgeiFn3s-unsplash.jpg,0,NaN,NaN,NaN,unchosen,NaN,NaN,NaN,NaN,3700,1,7,4
216,36963,0,217,3,3,0,no_gain5,gain3,E,C,36,5,objects,outdoor_scenes,50,50,Stimuli/Experimental_stims/objects/alexander-andrews-JYGnB9gTCls-unsplash.jpg,Stimuli/Experimental_stims/outdoor_scenes/jeff-king-bJHWJeiHfHc-unsplash.jpg,0,NaN,NaN,NaN,unchosen,NaN,NaN,NaN,NaN,1200,0,7,4
217,36963,0,218,3,3,1,gain3,no_gain2,C,B,34,15,body_parts,faces,50,50,Stimuli/Experimental_stims/body_parts/wagner-santos-mBWMvIuVnso-unsplash.jpg,Stimuli/Experimental_stims/faces/erik-lucatero-d2MSDujJl2g-unsplash.jpg,0,NaN,NaN,NaN,chosen,NaN,NaN,NaN,NaN,1200,0,7,4
218,36963,0,219,3,3,1,gain3,no_gain1,C,L,5,30,outdoor_scenes,body_parts,50,50,Stimuli/Experimental_stims/outdoor_scenes/jeff-king-bJHWJeiHfHc-unsplash.jpg,Stimuli/Experimental_stims/body_parts/mika-korhonen-Xodzxosar18-unsplash.jpg,0,NaN,NaN,NaN,unchosen,NaN,NaN,NaN,NaN,1100,0,7,4
219,36963,0,220,3,3,1,gain2,no_gain2,D,B,17,15,faces,faces,50,50,Stimuli/Experimental_stims/faces/good-faces-xmSWVeGEnJw-unsplash.jpg,Stimuli/Experimental_stims/faces/erik-lucatero-d2MSDujJl2g-unsplash.jpg,0,NaN,NaN,NaN,chosen,NaN,NaN,NaN,NaN,1100,0,7,4
220,36963,0,221,4,4,1,gain4,no_gain1,A,L,6,30,outdoor_scenes,body_parts,50,50,Stimuli/Experimental_stims/outdoor_scenes/meng-ji-8BH_M-53CyA-unsplash.jpg,Stimuli/Experimental_stims/body_parts/mika-korhonen-Xodzxosar18-unsplash.jpg,0,NaN,NaN,NaN,unchosen,NaN,NaN,NaN,NaN,4000,1,8,4
221,36963,0,222,4,4,0,no_gain1,gain5,L,K,21,40,faces,objects,50,50,Stimuli/Experimental_stims/faces/leilani-angel-K84vnnzxmTQ-unsplash.jpg,Stimuli/Experimental_stims/objects/fabian-blank-pElSkGRA2NU-unsplash.jpg,0,NaN,NaN,NaN,chosen,NaN,NaN,NaN,NaN,1900,0,8,4
222,36963,0,223,4,4,1,gain2,no_gain1,D,L,17,21,faces,faces,50,50,Stimuli/Experimental_stims/faces/good-faces-xmSWVeGEnJw-unsplash.jpg,Stimuli/Experimental_stims/faces/leilani-angel-K84vnnzxmTQ-unsplash.jpg,0,NaN,NaN,NaN,chosen,NaN,NaN,NaN,NaN,1200,0,8,4
223,36963,0,224,4,4,1,gain4,no_gain6,A,I,6,25,outdoor_scenes,body_parts,50,50,Stimuli/Experimental_stims/outdoor_scenes/meng-ji-8BH_M-53CyA-unsplash.jpg,Stimuli/Experimental_stims/body_parts/engin-akyurt-Q2rfH3GW39c-unsplash.jpg,0,NaN,NaN,NaN,unchosen,NaN,NaN,NaN,NaN,1200,0,8,4
224,36963,0,225,4,4,1,gain4,no_gain3,A,G,6,42,outdoor_scenes,objects,50,50,Stimuli/Experimental_stims/outdoor_scenes/meng-ji-8BH_M-53CyA-unsplash.jpg,Stimuli/Experimental_stims/objects/jess-bailey-nOeVi8DsN8U-unsplash.jpg,0,NaN,NaN,NaN,unchosen,NaN,NaN,NaN,NaN,2900,0,8,4
225,36963,0,226,4,4,1,gain2,no_gain3,D,G,43,42,objects,objects,50,50,Stimuli/Experimental_stims/objects/jonathan-greenaway-Y4hGgeiFn3s-unsplash.jpg,Stimuli/Experimental_stims/objects/jess-bailey-nOeVi8DsN8U-unsplash.jpg,0,NaN,NaN,NaN,unchosen,NaN,NaN,NaN,NaN,1800,0,8,4
226,36963,0,227,4,4,1,gain1,no_gain3,F,G,35,4,body_parts,outdoor_scenes,50,50,Stimuli/Experimental_stims/body_parts/wc-so-KH4AAPjb-tI-unsplash.jpg,Stimuli/Experimental_stims/outdoor_scenes/jarrett-kow-1ZOyYPOBn7I-unsplash.jpg,0,NaN,NaN,NaN,chosen,NaN,NaN,NaN,NaN,4700,1,8,4
227,36963,0,228,4,4,0,no_gain2,gain5,B,K,15,40,faces,objects,50,50,Stimuli/Experimental_stims/faces/erik-lucatero-d2MSDujJl2g-unsplash.jpg,Stimuli/Experimental_stims/objects/fabian-blank-pElSkGRA2NU-unsplash.jpg,0,NaN,NaN,NaN,chosen,NaN,NaN,NaN,NaN,2800,0,8,4
228,36963,0,229,4,4,1,gain5,no_gain1,K,L,26,30,body_parts,body_parts,50,50,Stimuli/Experimental_stims/body_parts/engin-akyurt-x_3gyC42btc-unsplash.jpg,Stimuli/Experimental_stims/body_parts/mika-korhonen-Xodzxosar18-unsplash.jpg,0,NaN,NaN,NaN,unchosen,NaN,NaN,NaN,NaN,1100,0,8,4
229,36963,0,230,4,4,0,no_gain4,gain5,J,K,47,40,objects,objects,50,50,Stimuli/Experimental_stims/objects/ronaldo-arthur-vidal-Cdz_lvnl37k-unsplash.jpg,Stimuli/Experimental_stims/objects/fabian-blank-pElSkGRA2NU-unsplash.jpg,0,NaN,NaN,NaN,chosen,NaN,NaN,NaN,NaN,2200,0,8,4
230,36963,0,231,4,4,0,no_gain1,gain6,L,H,30,19,body_parts,faces,50,50,Stimuli/Experimental_stims/body_parts/mika-korhonen-Xodzxosar18-unsplash.jpg,Stimuli/Experimental_stims/faces/joel-mott-LaK153ghdig-unsplash.jpg,0,NaN,NaN,NaN,unchosen,NaN,NaN,NaN,NaN,2000,0,8,4
231,36963,0,232,4,4,1,gain3,no_gain5,C,E,5,36,outdoor_scenes,objects,50,50,Stimuli/Experimental_stims/outdoor_scenes/jeff-king-bJHWJeiHfHc-unsplash.jpg,Stimuli/Experimental_stims/objects/alexander-andrews-JYGnB9gTCls-unsplash.jpg,0,NaN,NaN,NaN,unchosen,NaN,NaN,NaN,NaN,1100,0,8,4
232,36963,0,233,4,4,0,no_gain6,gain1,I,F,25,16,body_parts,faces,50,50,Stimuli/Experimental_stims/body_parts/engin-akyurt-Q2rfH3GW39c-unsplash.jpg,Stimuli/Experimental_stims/faces/freddy-kearney-o-ioeoATbIM-unsplash.jpg,0,NaN,NaN,NaN,unchosen,NaN,NaN,NaN,NaN,3000,1,8,4
233,36963,0,234,4,4,1,gain3,no_gain5,C,E,34,28,body_parts,body_parts,50,50,Stimuli/Experimental_stims/body_parts/wagner-santos-mBWMvIuVnso-unsplash.jpg,Stimuli/Experimental_stims/body_parts/ira-vishnevskaya-8DQAvdCby1I-unsplash.jpg,0,NaN,NaN,NaN,chosen,NaN,NaN,NaN,NaN,1800,0,8,4
234,36963,0,235,4,4,0,no_gain3,gain1,G,F,42,16,objects,faces,50,50,Stimuli/Experimental_stims/objects/jess-bailey-nOeVi8DsN8U-unsplash.jpg,Stimuli/Experimental_stims/faces/freddy-kearney-o-ioeoATbIM-unsplash.jpg,0,NaN,NaN,NaN,unchosen,NaN,NaN,NaN,NaN,1700,0,8,4
235,36963,0,236,4,4,0,no_gain2,gain5,B,K,0,26,outdoor_scenes,body_parts,50,50,Stimuli/Experimental_stims/outdoor_scenes/aleksandra-boguslawska-MS7KD9Ti7FQ-unsplash.jpg,Stimuli/Experimental_stims/body_parts/engin-akyurt-x_3gyC42btc-unsplash.jpg,0,NaN,NaN,NaN,unchosen,NaN,NaN,NaN,NaN,1500,0,8,4
236,36963,0,237,4,4,0,no_gain2,gain1,B,F,0,16,outdoor_scenes,faces,50,50,Stimuli/Experimental_stims/outdoor_scenes/aleksandra-boguslawska-MS7KD9Ti7FQ-unsplash.jpg,Stimuli/Experimental_stims/faces/freddy-kearney-o-ioeoATbIM-unsplash.jpg,0,NaN,NaN,NaN,unchosen,NaN,NaN,NaN,NaN,1400,0,8,4
237,36963,0,238,4,4,1,gain6,no_gain2,H,B,8,15,outdoor_scenes,faces,50,50,Stimuli/Experimental_stims/outdoor_scenes/samsommer-vddccTqwal8-unsplash.jpg,Stimuli/Experimental_stims/faces/erik-lucatero-d2MSDujJl2g-unsplash.jpg,0,NaN,NaN,NaN,chosen,NaN,NaN,NaN,NaN,3000,1,8,4
238,36963,0,239,4,4,1,gain4,no_gain2,A,B,6,0,outdoor_scenes,outdoor_scenes,50,50,Stimuli/Experimental_stims/outdoor_scenes/meng-ji-8BH_M-53CyA-unsplash.jpg,Stimuli/Experimental_stims/outdoor_scenes/aleksandra-boguslawska-MS7KD9Ti7FQ-unsplash.jpg,0,NaN,NaN,NaN,unchosen,NaN,NaN,NaN,NaN,1000,0,8,4
239,36963,0,240,4,4,0,no_gain1,gain2,L,D,30,43,body_parts,objects,50,50,Stimuli/Experimental_stims/body_parts/mika-korhonen-Xodzxosar18-unsplash.jpg,Stimuli/Experimental_stims/objects/jonathan-greenaway-Y4hGgeiFn3s-unsplash.jpg,0,NaN,NaN,NaN,unchosen,NaN,NaN,NaN,NaN,1100,0,8,4
240,36963,0,241,4,4,0,no_gain4,gain3,J,C,23,5,faces,outdoor_scenes,50,50,Stimuli/Experimental_stims/faces/rikonavt-HQjfrvdTfak-unsplash.jpg,Stimuli/Experimental_stims/outdoor_scenes/jeff-king-bJHWJeiHfHc-unsplash.jpg,0,NaN,NaN,NaN,unchosen,NaN,NaN,NaN,NaN,1600,0,8,4
241,36963,0,242,4,4,0,no_gain5,gain4,E,A,28,37,body_parts,objects,50,50,Stimuli/Experimental_stims/body_parts/ira-vishnevskaya-8DQAvdCby1I-unsplash.jpg,Stimuli/Experimental_stims/objects/alexander-andrews-VLGWE_SumrA-unsplash.jpg,0,NaN,NaN,NaN,chosen,NaN,NaN,NaN,NaN,1100,0,8,4
242,36963,0,243,4,4,1,gain6,no_gain6,H,I,19,25,faces,body_parts,50,50,Stimuli/Experimental_stims/faces/joel-mott-LaK153ghdig-unsplash.jpg,Stimuli/Experimental_stims/body_parts/engin-akyurt-Q2rfH3GW39c-unsplash.jpg,0,NaN,NaN,NaN,unchosen,NaN,NaN,NaN,NaN,1100,0,8,4
243,36963,0,244,4,4,1,gain3,no_gain2,C,B,34,15,body_parts,faces,50,50,Stimuli/Experimental_stims/body_parts/wagner-santos-mBWMvIuVnso-unsplash.jpg,Stimuli/Experimental_stims/faces/erik-lucatero-d2MSDujJl2g-unsplash.jpg,0,NaN,NaN,NaN,chosen,NaN,NaN,NaN,NaN,1800,0,8,4
244,36963,0,245,4,4,0,no_gain1,gain1,L,F,21,35,faces,body_parts,50,50,Stimuli/Experimental_stims/faces/leilani-angel-K84vnnzxmTQ-unsplash.jpg,Stimuli/Experimental_stims/body_parts/wc-so-KH4AAPjb-tI-unsplash.jpg,0,NaN,NaN,NaN,chosen,NaN,NaN,NaN,NaN,1400,0,8,4
245,36963,0,246,4,4,0,no_gain4,gain5,J,K,23,26,faces,body_parts,50,50,Stimuli/Experimental_stims/faces/rikonavt-HQjfrvdTfak-unsplash.jpg,Stimuli/Experimental_stims/body_parts/engin-akyurt-x_3gyC42btc-unsplash.jpg,0,NaN,NaN,NaN,unchosen,NaN,NaN,NaN,NaN,1600,0,8,4
246,36963,0,247,4,4,1,gain2,no_gain2,D,B,17,15,faces,faces,50,50,Stimuli/Experimental_stims/faces/good-faces-xmSWVeGEnJw-unsplash.jpg,Stimuli/Experimental_stims/faces/erik-lucatero-d2MSDujJl2g-unsplash.jpg,0,NaN,NaN,NaN,chosen,NaN,NaN,NaN,NaN,2000,0,8,4
247,36963,0,248,4,4,0,no_gain1,gain3,L,C,30,5,body_parts,outdoor_scenes,50,50,Stimuli/Experimental_stims/body_parts/mika-korhonen-Xodzxosar18-unsplash.jpg,Stimuli/Experimental_stims/outdoor_scenes/jeff-king-bJHWJeiHfHc-unsplash.jpg,0,NaN,NaN,NaN,unchosen,NaN,NaN,NaN,NaN,2200,0,8,4
248,36963,0,249,4,4,0,no_gain4,gain2,J,D,47,17,objects,faces,50,50,Stimuli/Experimental_stims/objects/ronaldo-arthur-vidal-Cdz_lvnl37k-unsplash.jpg,Stimuli/Experimental_stims/faces/good-faces-xmSWVeGEnJw-unsplash.jpg,0,NaN,NaN,NaN,chosen,NaN,NaN,NaN,NaN,2100,0,8,4
249,36963,0,250,4,4,0,no_gain3,gain2,G,D,4,17,outdoor_scenes,faces,50,50,Stimuli/Experimental_stims/outdoor_scenes/jarrett-kow-1ZOyYPOBn7I-unsplash.jpg,Stimuli/Experimental_stims/faces/good-faces-xmSWVeGEnJw-unsplash.jpg,0,NaN,NaN,NaN,chosen,NaN,NaN,NaN,NaN,2900,0,8,4
250,36963,0,251,4,4,0,no_gain6,gain5,I,K,25,26,body_parts,body_parts,50,50,Stimuli/Experimental_stims/body_parts/engin-akyurt-Q2rfH3GW39c-unsplash.jpg,Stimuli/Experimental_stims/body_parts/engin-akyurt-x_3gyC42btc-unsplash.jpg,0,NaN,NaN,NaN,unchosen,NaN,NaN,NaN,NaN,1600,0,8,4
251,36963,0,252,4,4,1,gain3,no_gain4,C,J,34,47,body_parts,objects,50,50,Stimuli/Experimental_stims/body_parts/wagner-santos-mBWMvIuVnso-unsplash.jpg,Stimuli/Experimental_stims/objects/ronaldo-arthur-vidal-Cdz_lvnl37k-unsplash.jpg,0,NaN,NaN,NaN,chosen,NaN,NaN,NaN,NaN,1600,0,8,4
252,36963,0,253,4,4,0,no_gain1,gain1,L,F,30,16,body_parts,faces,50,50,Stimuli/Experimental_stims/body_parts/mika-korhonen-Xodzxosar18-unsplash.jpg,Stimuli/Experimental_stims/faces/freddy-kearney-o-ioeoATbIM-unsplash.jpg,0,NaN,NaN,NaN,unchosen,NaN,NaN,NaN,NaN,4900,1,8,4
253,36963,0,254,4,4,0,no_gain5,gain1,E,F,36,16,objects,faces,50,50,Stimuli/Experimental_stims/objects/alexander-andrews-JYGnB9gTCls-unsplash.jpg,Stimuli/Experimental_stims/faces/freddy-kearney-o-ioeoATbIM-unsplash.jpg,0,NaN,NaN,NaN,unchosen,NaN,NaN,NaN,NaN,2600,0,8,4
254,36963,0,255,4,4,1,gain5,no_gain5,K,E,40,28,objects,body_parts,50,50,Stimuli/Experimental_stims/objects/fabian-blank-pElSkGRA2NU-unsplash.jpg,Stimuli/Experimental_stims/body_parts/ira-vishnevskaya-8DQAvdCby1I-unsplash.jpg,0,NaN,NaN,NaN,chosen,NaN,NaN,NaN,NaN,1800,0,8,4
255,36963,0,256,4,4,0,no_gain1,gain3,L,C,21,34,faces,body_parts,50,50,Stimuli/Experimental_stims/faces/leilani-angel-K84vnnzxmTQ-unsplash.jpg,Stimuli/Experimental_stims/body_parts/wagner-santos-mBWMvIuVnso-unsplash.jpg,0,NaN,NaN,NaN,chosen,NaN,NaN,NaN,NaN,1500,0,8,4
256,36963,0,257,4,4,1,gain5,no_gain3,K,G,40,4,objects,outdoor_scenes,50,50,Stimuli/Experimental_stims/objects/fabian-blank-pElSkGRA2NU-unsplash.jpg,Stimuli/Experimental_stims/outdoor_scenes/jarrett-kow-1ZOyYPOBn7I-unsplash.jpg,0,NaN,NaN,NaN,chosen,NaN,NaN,NaN,NaN,1700,0,8,4
257,36963,0,258,4,4,1,gain2,no_gain4,D,J,43,23,objects,faces,50,50,Stimuli/Experimental_stims/objects/jonathan-greenaway-Y4hGgeiFn3s-unsplash.jpg,Stimuli/Experimental_stims/faces/rikonavt-HQjfrvdTfak-unsplash.jpg,0,NaN,NaN,NaN,unchosen,NaN,NaN,NaN,NaN,3200,1,8,4
258,36963,0,259,4,4,1,gain3,no_gain3,C,G,34,4,body_parts,outdoor_scenes,50,50,Stimuli/Experimental_stims/body_parts/wagner-santos-mBWMvIuVnso-unsplash.jpg,Stimuli/Experimental_stims/outdoor_scenes/jarrett-kow-1ZOyYPOBn7I-unsplash.jpg,0,NaN,NaN,NaN,chosen,NaN,NaN,NaN,NaN,2100,0,8,4
259,36963,0,260,4,4,0,no_gain6,gain1,I,F,2,35,outdoor_scenes,body_parts,50,50,Stimuli/Experimental_stims/outdoor_scenes/bruno-van-der-kraan-qez8mNJ3ilU-unsplash.jpg,Stimuli/Experimental_stims/body_parts/wc-so-KH4AAPjb-tI-unsplash.jpg,0,NaN,NaN,NaN,chosen,NaN,NaN,NaN,NaN,1600,0,8,4
260,36963,0,261,4,4,0,no_gain2,gain3,B,C,0,5,outdoor_scenes,outdoor_scenes,50,50,Stimuli/Experimental_stims/outdoor_scenes/aleksandra-boguslawska-MS7KD9Ti7FQ-unsplash.jpg,Stimuli/Experimental_stims/outdoor_scenes/jeff-king-bJHWJeiHfHc-unsplash.jpg,0,NaN,NaN,NaN,unchosen,NaN,NaN,NaN,NaN,1700,0,8,4
261,36963,0,262,4,4,0,no_gain4,gain4,J,A,47,37,objects,objects,50,50,Stimuli/Experimental_stims/objects/ronaldo-arthur-vidal-Cdz_lvnl37k-unsplash.jpg,Stimuli/Experimental_stims/objects/alexander-andrews-VLGWE_SumrA-unsplash.jpg,0,NaN,NaN,NaN,chosen,NaN,NaN,NaN,NaN,1300,0,8,4
262,36963,0,263,4,4,1,gain6,no_gain1,H,L,8,21,outdoor_scenes,faces,50,50,Stimuli/Experimental_stims/outdoor_scenes/samsommer-vddccTqwal8-unsplash.jpg,Stimuli/Experimental_stims/faces/leilani-angel-K84vnnzxmTQ-unsplash.jpg,0,NaN,NaN,NaN,chosen,NaN,NaN,NaN,NaN,3700,1,8,4
263,36963,0,264,4,4,1,gain1,no_gain4,F,J,16,23,faces,faces,50,50,Stimuli/Experimental_stims/faces/freddy-kearney-o-ioeoATbIM-unsplash.jpg,Stimuli/Experimental_stims/faces/rikonavt-HQjfrvdTfak-unsplash.jpg,0,NaN,NaN,NaN,unchosen,NaN,NaN,NaN,NaN,1500,0,8,4
264,36963,0,265,4,4,1,gain4,no_gain1,A,L,37,21,objects,faces,50,50,Stimuli/Experimental_stims/objects/alexander-andrews-VLGWE_SumrA-unsplash.jpg,Stimuli/Experimental_stims/faces/leilani-angel-K84vnnzxmTQ-unsplash.jpg,0,NaN,NaN,NaN,chosen,NaN,NaN,NaN,NaN,1500,0,8,4
265,36963,0,266,4,4,1,gain2,no_gain5,D,E,43,36,objects,objects,50,50,Stimuli/Experimental_stims/objects/jonathan-greenaway-Y4hGgeiFn3s-unsplash.jpg,Stimuli/Experimental_stims/objects/alexander-andrews-JYGnB9gTCls-unsplash.jpg,0,NaN,NaN,NaN,unchosen,NaN,NaN,NaN,NaN,1400,0,8,4
266,36963,0,267,4,4,0,no_gain2,gain4,B,A,15,37,faces,objects,50,50,Stimuli/Experimental_stims/faces/erik-lucatero-d2MSDujJl2g-unsplash.jpg,Stimuli/Experimental_stims/objects/alexander-andrews-VLGWE_SumrA-unsplash.jpg,0,NaN,NaN,NaN,chosen,NaN,NaN,NaN,NaN,1700,0,8,4
267,36963,0,268,4,4,0,no_gain4,gain6,J,H,47,8,objects,outdoor_scenes,50,50,Stimuli/Experimental_stims/objects/ronaldo-arthur-vidal-Cdz_lvnl37k-unsplash.jpg,Stimuli/Experimental_stims/outdoor_scenes/samsommer-vddccTqwal8-unsplash.jpg,0,NaN,NaN,NaN,chosen,NaN,NaN,NaN,NaN,2500,0,8,4
268,36963,0,269,4,4,0,no_gain6,gain6,I,H,2,8,outdoor_scenes,outdoor_scenes,50,50,Stimuli/Experimental_stims/outdoor_scenes/bruno-van-der-kraan-qez8mNJ3ilU-unsplash.jpg,Stimuli/Experimental_stims/outdoor_scenes/samsommer-vddccTqwal8-unsplash.jpg,0,NaN,NaN,NaN,chosen,NaN,NaN,NaN,NaN,1800,0,8,4
269,36963,0,270,4,4,0,no_gain2,gain6,B,H,0,19,outdoor_scenes,faces,50,50,Stimuli/Experimental_stims/outdoor_scenes/aleksandra-boguslawska-MS7KD9Ti7FQ-unsplash.jpg,Stimuli/Experimental_stims/faces/joel-mott-LaK153ghdig-unsplash.jpg,0,NaN,NaN,NaN,unchosen,NaN,NaN,NaN,NaN,2200,0,8,4
270,36963,0,271,4,4,0,no_gain5,gain6,E,H,36,19,objects,faces,50,50,Stimuli/Experimental_stims/objects/alexander-andrews-JYGnB9gTCls-unsplash.jpg,Stimuli/Experimental_stims/faces/joel-mott-LaK153ghdig-unsplash.jpg,0,NaN,NaN,NaN,unchosen,NaN,NaN,NaN,NaN,1400,0,8,4
271,36963,0,272,4,4,1,gain3,no_gain6,C,I,34,2,body_parts,outdoor_scenes,50,50,Stimuli/Experimental_stims/body_parts/wagner-santos-mBWMvIuVnso-unsplash.jpg,Stimuli/Experimental_stims/outdoor_scenes/bruno-van-der-kraan-qez8mNJ3ilU-unsplash.jpg,0,NaN,NaN,NaN,chosen,NaN,NaN,NaN,NaN,4200,1,8,4
272,36963,0,273,4,4,1,gain5,no_gain5,K,E,26,36,body_parts,objects,50,50,Stimuli/Experimental_stims/body_parts/engin-akyurt-x_3gyC42btc-unsplash.jpg,Stimuli/Experimental_stims/objects/alexander-andrews-JYGnB9gTCls-unsplash.jpg,0,NaN,NaN,NaN,unchosen,NaN,NaN,NaN,NaN,2400,0,8,4
273,36963,0,274,4,4,0,no_gain4,gain6,J,H,23,19,faces,faces,50,50,Stimuli/Experimental_stims/faces/rikonavt-HQjfrvdTfak-unsplash.jpg,Stimuli/Experimental_stims/faces/joel-mott-LaK153ghdig-unsplash.jpg,0,NaN,NaN,NaN,unchosen,NaN,NaN,NaN,NaN,1100,0,8,4
274,36963,0,275,4,4,0,no_gain2,gain1,B,F,15,35,faces,body_parts,50,50,Stimuli/Experimental_stims/faces/erik-lucatero-d2MSDujJl2g-unsplash.jpg,Stimuli/Experimental_stims/body_parts/wc-so-KH4AAPjb-tI-unsplash.jpg,0,NaN,NaN,NaN,chosen,NaN,NaN,NaN,NaN,1400,0,8,4
275,36963,0,276,4,4,0,no_gain3,gain3,G,C,42,5,objects,outdoor_scenes,50,50,Stimuli/Experimental_stims/objects/jess-bailey-nOeVi8DsN8U-unsplash.jpg,Stimuli/Experimental_stims/outdoor_scenes/jeff-king-bJHWJeiHfHc-unsplash.jpg,0,NaN,NaN,NaN,unchosen,NaN,NaN,NaN,NaN,1400,0,8,4
276,36963,0,277,4,4,1,gain5,no_gain6,K,I,40,2,objects,outdoor_scenes,50,50,Stimuli/Experimental_stims/objects/fabian-blank-pElSkGRA2NU-unsplash.jpg,Stimuli/Experimental_stims/outdoor_scenes/bruno-van-der-kraan-qez8mNJ3ilU-unsplash.jpg,0,NaN,NaN,NaN,chosen,NaN,NaN,NaN,NaN,1000,0,8,4
277,36963,0,278,4,4,1,gain1,no_gain5,F,E,35,28,body_parts,body_parts,50,50,Stimuli/Experimental_stims/body_parts/wc-so-KH4AAPjb-tI-unsplash.jpg,Stimuli/Experimental_stims/body_parts/ira-vishnevskaya-8DQAvdCby1I-unsplash.jpg,0,NaN,NaN,NaN,chosen,NaN,NaN,NaN,NaN,1900,0,8,4
278,36963,0,279,4,4,1,gain2,no_gain6,D,I,43,25,objects,body_parts,50,50,Stimuli/Experimental_stims/objects/jonathan-greenaway-Y4hGgeiFn3s-unsplash.jpg,Stimuli/Experimental_stims/body_parts/engin-akyurt-Q2rfH3GW39c-unsplash.jpg,0,NaN,NaN,NaN,unchosen,NaN,NaN,NaN,NaN,2100,0,8,4
279,36963,0,280,4,4,1,gain2,no_gain2,D,B,43,0,objects,outdoor_scenes,50,50,Stimuli/Experimental_stims/objects/jonathan-greenaway-Y4hGgeiFn3s-unsplash.jpg,Stimuli/Experimental_stims/outdoor_scenes/aleksandra-boguslawska-MS7KD9Ti7FQ-unsplash.jpg,0,NaN,NaN,NaN,unchosen,NaN,NaN,NaN,NaN,1100,0,8,4
280,36963,0,281,4,4,1,gain3,no_gain6,C,I,5,25,outdoor_scenes,body_parts,50,50,Stimuli/Experimental_stims/outdoor_scenes/jeff-king-bJHWJeiHfHc-unsplash.jpg,Stimuli/Experimental_stims/body_parts/engin-akyurt-Q2rfH3GW39c-unsplash.jpg,0,NaN,NaN,NaN,unchosen,NaN,NaN,NaN,NaN,3800,1,8,4
281,36963,0,282,4,4,0,no_gain6,gain2,I,D,2,17,outdoor_scenes,faces,50,50,Stimuli/Experimental_stims/outdoor_scenes/bruno-van-der-kraan-qez8mNJ3ilU-unsplash.jpg,Stimuli/Experimental_stims/faces/good-faces-xmSWVeGEnJw-unsplash.jpg,0,NaN,NaN,NaN,chosen,NaN,NaN,NaN,NaN,1200,0,8,4
282,36963,0,283,4,4,0,no_gain3,gain4,G,A,4,37,outdoor_scenes,objects,50,50,Stimuli/Experimental_stims/outdoor_scenes/jarrett-kow-1ZOyYPOBn7I-unsplash.jpg,Stimuli/Experimental_stims/objects/alexander-andrews-VLGWE_SumrA-unsplash.jpg,0,NaN,NaN,NaN,chosen,NaN,NaN,NaN,NaN,2500,0,8,4
283,36963,0,284,4,4,0,no_gain6,gain4,I,A,2,37,outdoor_scenes,objects,50,50,Stimuli/Experimental_stims/outdoor_scenes/bruno-van-der-kraan-qez8mNJ3ilU-unsplash.jpg,Stimuli/Experimental_stims/objects/alexander-andrews-VLGWE_SumrA-unsplash.jpg,0,NaN,NaN,NaN,chosen,NaN,NaN,NaN,NaN,1200,0,8,4
284,36963,0,285,4,4,1,gain4,no_gain5,A,E,6,36,outdoor_scenes,objects,50,50,Stimuli/Experimental_stims/outdoor_scenes/meng-ji-8BH_M-53CyA-unsplash.jpg,Stimuli/Experimental_stims/objects/alexander-andrews-JYGnB9gTCls-unsplash.jpg,0,NaN,NaN,NaN,unchosen,NaN,NaN,NaN,NaN,1600,0,8,4
285,36963,0,286,4,4,1,gain6,no_gain5,H,E,8,28,outdoor_scenes,body_parts,50,50,Stimuli/Experimental_stims/outdoor_scenes/samsommer-vddccTqwal8-unsplash.jpg,Stimuli/Experimental_stims/body_parts/ira-vishnevskaya-8DQAvdCby1I-unsplash.jpg,0,NaN,NaN,NaN,chosen,NaN,NaN,NaN,NaN,1900,0,8,4
286,36963,0,287,4,4,1,gain2,no_gain5,D,E,17,28,faces,body_parts,50,50,Stimuli/Experimental_stims/faces/good-faces-xmSWVeGEnJw-unsplash.jpg,Stimuli/Experimental_stims/body_parts/ira-vishnevskaya-8DQAvdCby1I-unsplash.jpg,0,NaN,NaN,NaN,chosen,NaN,NaN,NaN,NaN,1000,0,8,4
287,36963,0,288,4,4,1,gain6,no_gain3,H,G,19,42,faces,objects,50,50,Stimuli/Experimental_stims/faces/joel-mott-LaK153ghdig-unsplash.jpg,Stimuli/Experimental_stims/objects/jess-bailey-nOeVi8DsN8U-unsplash.jpg,0,NaN,NaN,NaN,unchosen,NaN,NaN,NaN,NaN,5000,1,8,4
288,36963,0,289,4,4,0,no_gain4,gain1,J,F,47,35,objects,body_parts,50,50,Stimuli/Experimental_stims/objects/ronaldo-arthur-vidal-Cdz_lvnl37k-unsplash.jpg,Stimuli/Experimental_stims/body_parts/wc-so-KH4AAPjb-tI-unsplash.jpg,0,NaN,NaN,NaN,chosen,NaN,NaN,NaN,NaN,2400,0,8,4
289,36963,0,290,4,4,0,no_gain3,gain5,G,K,42,26,objects,body_parts,50,50,Stimuli/Experimental_stims/objects/jess-bailey-nOeVi8DsN8U-unsplash.jpg,Stimuli/Experimental_stims/body_parts/engin-akyurt-x_3gyC42btc-unsplash.jpg,0,NaN,NaN,NaN,unchosen,NaN,NaN,NaN,NaN,1500,0,8,4
290,36963,0,291,4,4,1,gain6,no_gain3,H,G,8,4,outdoor_scenes,outdoor_scenes,50,50,Stimuli/Experimental_stims/outdoor_scenes/samsommer-vddccTqwal8-unsplash.jpg,Stimuli/Experimental_stims/outdoor_scenes/jarrett-kow-1ZOyYPOBn7I-unsplash.jpg,0,NaN,NaN,NaN,chosen,NaN,NaN,NaN,NaN,1500,0,8,4
291,36963,0,292,4,4,1,gain4,no_gain4,A,J,6,23,outdoor_scenes,faces,50,50,Stimuli/Experimental_stims/outdoor_scenes/meng-ji-8BH_M-53CyA-unsplash.jpg,Stimuli/Experimental_stims/faces/rikonavt-HQjfrvdTfak-unsplash.jpg,0,NaN,NaN,NaN,unchosen,NaN,NaN,NaN,NaN,1300,0,8,4