,PID,practice,trial,block,run,gain_left,left_item_id,right_item_id,left_pair_id,right_pair_id,left_stimulus,right_stimulus,left_category,right_category,left_path,right_path,no_response,left_chosen,rt,higher_outcome_chosen,choice_type,iti,long_iti,simulation,version,chosen_stimulus,unchosen_stimulus,chosen_category,unchosen_category
0,34892,1,1,0,0,0,,,,,,,,,Stimuli/Practice_stims/Final_decisions/debby-hudson-FmCSSSGge-0-unsplash.jpg,Stimuli/Practice_stims/Final_decisions/yassine-khalfalli-adsQ9d_Cx0c-unsplash.jpg,1,NaN,,NaN,,3000,0,6,1,NaN,NaN,NaN,NaN
1,34892,1,2,0,0,0,,,,,,,,,Stimuli/Practice_stims/Final_decisions/florian-wehde-iVW7mZPwd4g-unsplash.jpg,Stimuli/Practice_stims/Final_decisions/patrick-perkins-3wylDrjxH-E-unsplash.jpg,1,NaN,,NaN,,1500,0,6,1,NaN,NaN,NaN,NaN
2,34892,1,3,0,0,0,,,,,,,,,Stimuli/Practice_stims/Final_decisions/debby-hudson-FmCSSSGge-0-unsplash.jpg,Stimuli/Practice_stims/Final_decisions/florian-wehde-iVW7mZPwd4g-unsplash.jpg,1,NaN,,NaN,,2000,0,6,1,NaN,NaN,NaN,NaN
3,34892,1,4,0,0,0,,,,,,,,,Stimuli/Practice_stims/Final_decisions/yassine-khalfalli-adsQ9d_Cx0c-unsplash.jpg,Stimuli/Practice_stims/Final_decisions/debby-hudson-FmCSSSGge-0-unsplash.jpg,1,NaN,,NaN,,1000,0,6,1,NaN,NaN,NaN,NaN
4,34892,0,5,1,1,0,no_gain4,gain5,E,B,45,9,objects,outdoor_scenes,Stimuli/Experimental_stims/objects/leohoho-rngTKHXumy0-unsplash.jpg,Stimuli/Experimental_stims/outdoor_scenes/sergey-pesterev-y-b_FOmJXdg-unsplash.jpg,1,NaN,,NaN,chosen,1800,0,6,1,50,50,NaN,NaN,NaN,NaN
5,34892,0,6,1,1,1,gain3,no_gain6,L,A,30,1,body_parts,outdoor_scenes,Stimuli/Experimental_stims/body_parts/mika-korhonen-Xodzxosar18-unsplash.jpg,Stimuli/Experimental_stims/outdoor_scenes/ashim-d-silva-S2Q5mdOrrVc-unsplash.jpg,0,1,49,1,chosen,1700,0,6,1,50,50,30,1,body_parts,outdoor_scenes
6,34892,0,7,1,1,1,gain6,no_gain3,H,F,6,25,outdoor_scenes,body_parts,Stimuli/Experimental_stims/outdoor_scenes/meng-ji-8BH_M-53CyA-unsplash.jpg,Stimuli/Experimental_stims/body_parts/engin-akyurt-Q2rfH3GW39c-unsplash.jpg,0,1,64,1,unchosen,2300,0,6,1,50,50,6,25,outdoor_scenes,body_parts
7,34892,0,8,1,1,0,no_gain2,gain3,C,L,10,30,outdoor_scenes,body_parts,Stimuli/Experimental_stims/outdoor_scenes/shannon-kunkle-dM8INmkyDas-unsplash.jpg,Stimuli/Experimental_stims/body_parts/mika-korhonen-Xodzxosar18-unsplash.jpg,0,1,63,0,chosen,1700,0,6,1,50,50,10,30,outdoor_scenes,body_parts
8,34892,0,9,1,1,1,gain4,no_gain5,D,K,19,47,faces,objects,Stimuli/Experimental_stims/faces/joel-mott-LaK153ghdig-unsplash.jpg,Stimuli/Experimental_stims/objects/ronaldo-arthur-vidal-Cdz_lvnl37k-unsplash.jpg,0,1,43,1,unchosen,3900,1,6,1,50,50,19,47,faces,objects
9,34892,0,10,1,1,1,gain2,no_gain5,I,K,3,47,outdoor_scenes,objects,Stimuli/Experimental_stims/outdoor_scenes/henry-be-NLF6hTe4PAg-unsplash.jpg,Stimuli/Experimental_stims/objects/ronaldo-arthur-vidal-Cdz_lvnl37k-unsplash.jpg,0,1,53,1,unchosen,1200,0,6,1,50,50,3,47,outdoor_scenes,objects
10,34892,0,11,1,1,1,gain2,no_gain5,I,K,35,32,body_parts,body_parts,Stimuli/Experimental_stims/body_parts/wc-so-KH4AAPjb-tI-unsplash.jpg,Stimuli/Experimental_stims/body_parts/towfiqu-barbhuiya-3AsiVDsZnHg-unsplash.jpg,0,1,45,1,chosen,1200,0,6,1,50,50,35,32,body_parts,body_parts
11,34892,0,12,1,1,0,no_gain5,gain5,K,B,32,9,body_parts,outdoor_scenes,Stimuli/Experimental_stims/body_parts/towfiqu-barbhuiya-3AsiVDsZnHg-unsplash.jpg,Stimuli/Experimental_stims/outdoor_scenes/sergey-pesterev-y-b_FOmJXdg-unsplash.jpg,0,1,51,0,chosen,2600,0,6,1,50,50,32,9,body_parts,outdoor_scenes
12,34892,0,13,1,1,0,no_gain1,gain4,J,D,43,19,objects,faces,Stimuli/Experimental_stims/objects/jonathan-greenaway-Y4hGgeiFn3s-unsplash.jpg,Stimuli/Experimental_stims/faces/joel-mott-LaK153ghdig-unsplash.jpg,0,1,55,0,unchosen,2200,0,6,1,50,50,43,19,objects,faces
13,34892,0,14,1,1,1,gain4,no_gain6,D,A,41,1,objects,outdoor_scenes,Stimuli/Experimental_stims/objects/insung-yoon-w2JtIQQXoRU-unsplash.jpg,Stimuli/Experimental_stims/outdoor_scenes/ashim-d-silva-S2Q5mdOrrVc-unsplash.jpg,0,1,59,1,chosen,1700,0,6,1,50,50,41,1,objects,outdoor_scenes
14,34892,0,15,1,1,1,gain4,no_gain4,D,E,41,45,objects,objects,Stimuli/Experimental_stims/objects/insung-yoon-w2JtIQQXoRU-unsplash.jpg,Stimuli/Experimental_stims/objects/leohoho-rngTKHXumy0-unsplash.jpg,0,1,46,1,chosen,3100,1,6,1,50,50,41,45,objects,objects
15,34892,0,16,1,1,1,gain2,no_gain1,I,J,3,43,outdoor_scenes,objects,Stimuli/Experimental_stims/outdoor_scenes/henry-be-NLF6hTe4PAg-unsplash.jpg,Stimuli/Experimental_stims/objects/jonathan-greenaway-Y4hGgeiFn3s-unsplash.jpg,0,1,60,1,unchosen,2100,0,6,1,50,50,3,43,outdoor_scenes,objects
16,34892,0,17,1,1,0,no_gain2,gain5,C,B,10,9,outdoor_scenes,outdoor_scenes,Stimuli/Experimental_stims/outdoor_scenes/shannon-kunkle-dM8INmkyDas-unsplash.jpg,Stimuli/Experimental_stims/outdoor_scenes/sergey-pesterev-y-b_FOmJXdg-unsplash.jpg,0,1,46,0,chosen,1900,0,6,1,50,50,10,9,outdoor_scenes,outdoor_scenes
17,34892,0,18,1,1,0,no_gain1,gain5,J,B,15,9,faces,outdoor_scenes,Stimuli/Experimental_stims/faces/erik-lucatero-d2MSDujJl2g-unsplash.jpg,Stimuli/Experimental_stims/outdoor_scenes/sergey-pesterev-y-b_FOmJXdg-unsplash.jpg,0,1,48,0,chosen,1400,0,6,1,50,50,15,9,faces,outdoor_scenes
18,34892,0,19,1,1,1,gain3,no_gain5,L,K,30,32,body_parts,body_parts,Stimuli/Experimental_stims/body_parts/mika-korhonen-Xodzxosar18-unsplash.jpg,Stimuli/Experimental_stims/body_parts/towfiqu-barbhuiya-3AsiVDsZnHg-unsplash.jpg,0,1,54,1,chosen,1500,0,6,1,50,50,30,32,body_parts,body_parts
19,34892,0,20,1,1,0,no_gain4,gain2,E,I,33,3,body_parts,outdoor_scenes,Stimuli/Experimental_stims/body_parts/tucker-good-36skLT5jZcc-unsplash.jpg,Stimuli/Experimental_stims/outdoor_scenes/henry-be-NLF6hTe4PAg-unsplash.jpg,0,1,58,0,unchosen,1600,0,6,1,50,50,33,3,body_parts,outdoor_scenes
20,34892,0,21,1,1,0,no_gain1,gain3,J,L,15,30,faces,body_parts,Stimuli/Experimental_stims/faces/erik-lucatero-d2MSDujJl2g-unsplash.jpg,Stimuli/Experimental_stims/body_parts/mika-korhonen-Xodzxosar18-unsplash.jpg,0,1,66,0,chosen,3200,1,6,1,50,50,15,30,faces,body_parts
21,34892,0,22,1,1,1,gain5,no_gain5,B,K,14,47,faces,objects,Stimuli/Experimental_stims/faces/david-siglin-UuW4psOb388-unsplash.jpg,Stimuli/Experimental_stims/objects/ronaldo-arthur-vidal-Cdz_lvnl37k-unsplash.jpg,0,1,51,1,unchosen,1900,0,6,1,50,50,14,47,faces,objects
22,34892,0,23,1,1,0,no_gain6,gain6,A,H,44,6,objects,outdoor_scenes,Stimuli/Experimental_stims/objects/kuiye-chen-NuOGFo4PudE-unsplash.jpg,Stimuli/Experimental_stims/outdoor_scenes/meng-ji-8BH_M-53CyA-unsplash.jpg,0,1,50,0,unchosen,1600,0,6,1,50,50,44,6,objects,outdoor_scenes
23,34892,0,24,1,1,0,no_gain6,gain2,A,I,1,35,outdoor_scenes,body_parts,Stimuli/Experimental_stims/outdoor_scenes/ashim-d-silva-S2Q5mdOrrVc-unsplash.jpg,Stimuli/Experimental_stims/body_parts/wc-so-KH4AAPjb-tI-unsplash.jpg,0,1,58,0,chosen,1100,0,6,1,50,50,1,35,outdoor_scenes,body_parts
24,34892,0,25,1,1,1,gain4,no_gain2,D,C,19,26,faces,body_parts,Stimuli/Experimental_stims/faces/joel-mott-LaK153ghdig-unsplash.jpg,Stimuli/Experimental_stims/body_parts/engin-akyurt-x_3gyC42btc-unsplash.jpg,0,1,57,1,unchosen,2200,0,6,1,50,50,19,26,faces,body_parts
25,34892,0,26,1,1,1,gain2,no_gain3,I,F,3,25,outdoor_scenes,body_parts,Stimuli/Experimental_stims/outdoor_scenes/henry-be-NLF6hTe4PAg-unsplash.jpg,Stimuli/Experimental_stims/body_parts/engin-akyurt-Q2rfH3GW39c-unsplash.jpg,0,1,59,1,unchosen,3300,1,6,1,50,50,3,25,outdoor_scenes,body_parts
26,34892,0,27,1,1,0,no_gain2,gain4,C,D,10,41,outdoor_scenes,objects,Stimuli/Experimental_stims/outdoor_scenes/shannon-kunkle-dM8INmkyDas-unsplash.jpg,Stimuli/Experimental_stims/objects/insung-yoon-w2JtIQQXoRU-unsplash.jpg,0,1,62,0,chosen,2100,0,6,1,50,50,10,41,outdoor_scenes,objects
27,34892,0,28,1,1,0,no_gain2,gain2,C,I,26,3,body_parts,outdoor_scenes,Stimuli/Experimental_stims/body_parts/engin-akyurt-x_3gyC42btc-unsplash.jpg,Stimuli/Experimental_stims/outdoor_scenes/henry-be-NLF6hTe4PAg-unsplash.jpg,0,1,63,0,unchosen,1000,0,6,1,50,50,26,3,body_parts,outdoor_scenes
28,34892,0,29,1,1,0,no_gain4,gain3,E,L,33,23,body_parts,faces,Stimuli/Experimental_stims/body_parts/tucker-good-36skLT5jZcc-unsplash.jpg,Stimuli/Experimental_stims/faces/rikonavt-HQjfrvdTfak-unsplash.jpg,0,1,47,0,unchosen,2600,0,6,1,50,50,33,23,body_parts,faces
29,34892,0,30,1,1,0,no_gain3,gain2,F,I,18,35,faces,body_parts,Stimuli/Experimental_stims/faces/jessica-radanavong-mrYkTuAesKE-unsplash.jpg,Stimuli/Experimental_stims/body_parts/wc-so-KH4AAPjb-tI-unsplash.jpg,0,1,58,0,chosen,1500,0,6,1,50,50,18,35,faces,body_parts
30,34892,0,31,1,1,1,gain5,no_gain4,B,E,14,33,faces,body_parts,Stimuli/Experimental_stims/faces/david-siglin-UuW4psOb388-unsplash.jpg,Stimuli/Experimental_stims/body_parts/tucker-good-36skLT5jZcc-unsplash.jpg,0,1,57,1,unchosen,1200,0,6,1,50,50,14,33,faces,body_parts
31,34892,0,32,1,1,0,no_gain3,gain5,F,B,25,14,body_parts,faces,Stimuli/Experimental_stims/body_parts/engin-akyurt-Q2rfH3GW39c-unsplash.jpg,Stimuli/Experimental_stims/faces/david-siglin-UuW4psOb388-unsplash.jpg,0,1,66,0,unchosen,2100,0,6,1,50,50,25,14,body_parts,faces
32,34892,0,33,1,1,0,no_gain5,gain4,K,D,32,41,body_parts,objects,Stimuli/Experimental_stims/body_parts/towfiqu-barbhuiya-3AsiVDsZnHg-unsplash.jpg,Stimuli/Experimental_stims/objects/insung-yoon-w2JtIQQXoRU-unsplash.jpg,0,1,61,0,chosen,4300,1,6,1,50,50,32,41,body_parts,objects
33,34892,0,34,1,1,0,no_gain1,gain5,J,B,43,14,objects,faces,Stimuli/Experimental_stims/objects/jonathan-greenaway-Y4hGgeiFn3s-unsplash.jpg,Stimuli/Experimental_stims/faces/david-siglin-UuW4psOb388-unsplash.jpg,0,1,59,0,unchosen,1000,0,6,1,50,50,43,14,objects,faces
34,34892,0,35,1,1,1,gain1,no_gain3,G,F,36,18,objects,faces,Stimuli/Experimental_stims/objects/alexander-andrews-JYGnB9gTCls-unsplash.jpg,Stimuli/Experimental_stims/faces/jessica-radanavong-mrYkTuAesKE-unsplash.jpg,0,1,66,1,chosen,2300,0,6,1,50,50,36,18,objects,faces
35,34892,0,36,1,1,0,no_gain6,gain5,A,B,44,14,objects,faces,Stimuli/Experimental_stims/objects/kuiye-chen-NuOGFo4PudE-unsplash.jpg,Stimuli/Experimental_stims/faces/david-siglin-UuW4psOb388-unsplash.jpg,0,1,59,0,unchosen,1200,0,6,1,50,50,44,14,objects,faces
36,34892,0,37,1,1,1,gain6,no_gain1,H,J,17,15,faces,faces,Stimuli/Experimental_stims/faces/good-faces-xmSWVeGEnJw-unsplash.jpg,Stimuli/Experimental_stims/faces/erik-lucatero-d2MSDujJl2g-unsplash.jpg,1,NaN,,NaN,chosen,1300,0,6,1,50,50,NaN,NaN,NaN,NaN
37,34892,0,38,1,1,1,gain4,no_gain3,D,F,41,18,objects,faces,Stimuli/Experimental_stims/objects/insung-yoon-w2JtIQQXoRU-unsplash.jpg,Stimuli/Experimental_stims/faces/jessica-radanavong-mrYkTuAesKE-unsplash.jpg,1,NaN,,NaN,chosen,1700,0,6,1,50,50,NaN,NaN,NaN,NaN
38,34892,0,39,1,1,1,gain1,no_gain5,G,K,36,32,objects,body_parts,Stimuli/Experimental_stims/objects/alexander-andrews-JYGnB9gTCls-unsplash.jpg,Stimuli/Experimental_stims/body_parts/towfiqu-barbhuiya-3AsiVDsZnHg-unsplash.jpg,1,NaN,,NaN,chosen,1300,0,6,1,50,50,NaN,NaN,NaN,NaN
39,34892,0,40,1,1,0,no_gain6,gain3,A,L,44,23,objects,faces,Stimuli/Experimental_stims/objects/kuiye-chen-NuOGFo4PudE-unsplash.jpg,Stimuli/Experimental_stims/faces/rikonavt-HQjfrvdTfak-unsplash.jpg,1,NaN,,NaN,unchosen,1200,0,6,1,50,50,NaN,NaN,NaN,NaN
40,34892,0,41,1,1,0,no_gain2,gain1,C,G,10,36,outdoor_scenes,objects,Stimuli/Experimental_stims/outdoor_scenes/shannon-kunkle-dM8INmkyDas-unsplash.jpg,Stimuli/Experimental_stims/objects/alexander-andrews-JYGnB9gTCls-unsplash.jpg,1,NaN,,NaN,chosen,1900,0,6,1,50,50,NaN,NaN,NaN,NaN
41,34892,0,42,1,1,1,gain4,no_gain3,D,F,19,25,faces,body_parts,Stimuli/Experimental_stims/faces/joel-mott-LaK153ghdig-unsplash.jpg,Stimuli/Experimental_stims/body_parts/engin-akyurt-Q2rfH3GW39c-unsplash.jpg,1,NaN,,NaN,unchosen,1200,0,6,1,50,50,NaN,NaN,NaN,NaN
42,34892,0,43,1,1,1,gain6,no_gain6,H,A,17,1,faces,outdoor_scenes,Stimuli/Experimental_stims/faces/good-faces-xmSWVeGEnJw-unsplash.jpg,Stimuli/Experimental_stims/outdoor_scenes/ashim-d-silva-S2Q5mdOrrVc-unsplash.jpg,1,NaN,,NaN,chosen,4000,1,6,1,50,50,NaN,NaN,NaN,NaN
43,34892,0,44,1,1,0,no_gain3,gain3,F,L,18,30,faces,body_parts,Stimuli/Experimental_stims/faces/jessica-radanavong-mrYkTuAesKE-unsplash.jpg,Stimuli/Experimental_stims/body_parts/mika-korhonen-Xodzxosar18-unsplash.jpg,1,NaN,,NaN,chosen,2300,0,6,1,50,50,NaN,NaN,NaN,NaN
44,34892,0,45,1,1,1,gain2,no_gain6,I,A,3,44,outdoor_scenes,objects,Stimuli/Experimental_stims/outdoor_scenes/henry-be-NLF6hTe4PAg-unsplash.jpg,Stimuli/Experimental_stims/objects/kuiye-chen-NuOGFo4PudE-unsplash.jpg,1,NaN,,NaN,unchosen,1500,0,6,1,50,50,NaN,NaN,NaN,NaN
45,34892,0,46,1,1,0,no_gain1,gain1,J,G,15,36,faces,objects,Stimuli/Experimental_stims/faces/erik-lucatero-d2MSDujJl2g-unsplash.jpg,Stimuli/Experimental_stims/objects/alexander-andrews-JYGnB9gTCls-unsplash.jpg,1,NaN,,NaN,chosen,1100,0,6,1,50,50,NaN,NaN,NaN,NaN
46,34892,0,47,1,1,0,no_gain5,gain6,K,H,47,6,objects,outdoor_scenes,Stimuli/Experimental_stims/objects/ronaldo-arthur-vidal-Cdz_lvnl37k-unsplash.jpg,Stimuli/Experimental_stims/outdoor_scenes/meng-ji-8BH_M-53CyA-unsplash.jpg,1,NaN,,NaN,unchosen,1100,0,6,1,50,50,NaN,NaN,NaN,NaN
47,34892,0,48,1,1,0,no_gain5,gain6,K,H,32,17,body_parts,faces,Stimuli/Experimental_stims/body_parts/towfiqu-barbhuiya-3AsiVDsZnHg-unsplash.jpg,Stimuli/Experimental_stims/faces/good-faces-xmSWVeGEnJw-unsplash.jpg,1,NaN,,NaN,chosen,3200,1,6,1,50,50,NaN,NaN,NaN,NaN
48,34892,0,49,1,1,0,no_gain2,gain6,C,H,26,6,body_parts,outdoor_scenes,Stimuli/Experimental_stims/body_parts/engin-akyurt-x_3gyC42btc-unsplash.jpg,Stimuli/Experimental_stims/outdoor_scenes/meng-ji-8BH_M-53CyA-unsplash.jpg,1,NaN,,NaN,unchosen,1900,0,6,1,50,50,NaN,NaN,NaN,NaN
49,34892,0,50,1,1,1,gain4,no_gain4,D,E,19,33,faces,body_parts,Stimuli/Experimental_stims/faces/joel-mott-LaK153ghdig-unsplash.jpg,Stimuli/Experimental_stims/body_parts/tucker-good-36skLT5jZcc-unsplash.jpg,1,NaN,,NaN,unchosen,2300,0,6,1,50,50,NaN,NaN,NaN,NaN
50,34892,0,51,1,1,1,gain6,no_gain4,H,E,6,33,outdoor_scenes,body_parts,Stimuli/Experimental_stims/outdoor_scenes/meng-ji-8BH_M-53CyA-unsplash.jpg,Stimuli/Experimental_stims/body_parts/tucker-good-36skLT5jZcc-unsplash.jpg,1,NaN,,NaN,unchosen,1200,0,6,1,50,50,NaN,NaN,NaN,NaN
51,34892,0,52,1,1,0,no_gain6,gain1,A,G,1,36,outdoor_scenes,objects,Stimuli/Experimental_stims/outdoor_scenes/ashim-d-silva-S2Q5mdOrrVc-unsplash.jpg,Stimuli/Experimental_stims/objects/alexander-andrews-JYGnB9gTCls-unsplash.jpg,1,NaN,,NaN,chosen,2400,0,6,1,50,50,NaN,NaN,NaN,NaN
52,34892,0,53,1,1,1,gain2,no_gain1,I,J,35,15,body_parts,faces,Stimuli/Experimental_stims/body_parts/wc-so-KH4AAPjb-tI-unsplash.jpg,Stimuli/Experimental_stims/faces/erik-lucatero-d2MSDujJl2g-unsplash.jpg,1,NaN,,NaN,chosen,1600,0,6,1,50,50,NaN,NaN,NaN,NaN
53,34892,0,54,1,1,1,gain5,no_gain6,B,A,9,1,outdoor_scenes,outdoor_scenes,Stimuli/Experimental_stims/outdoor_scenes/sergey-pesterev-y-b_FOmJXdg-unsplash.jpg,Stimuli/Experimental_stims/outdoor_scenes/ashim-d-silva-S2Q5mdOrrVc-unsplash.jpg,0,1,56,1,chosen,3100,1,6,1,50,50,9,1,outdoor_scenes,outdoor_scenes
54,34892,0,55,1,1,0,no_gain5,gain1,K,G,47,11,objects,outdoor_scenes,Stimuli/Experimental_stims/objects/ronaldo-arthur-vidal-Cdz_lvnl37k-unsplash.jpg,Stimuli/Experimental_stims/outdoor_scenes/stephen-leonardi-gyIRjKPXupE-unsplash.jpg,0,1,71,0,unchosen,2300,0,6,1,50,50,47,11,objects,outdoor_scenes
55,34892,0,56,1,1,1,gain2,no_gain2,I,C,35,10,body_parts,outdoor_scenes,Stimuli/Experimental_stims/body_parts/wc-so-KH4AAPjb-tI-unsplash.jpg,Stimuli/Experimental_stims/outdoor_scenes/shannon-kunkle-dM8INmkyDas-unsplash.jpg,0,1,68,1,chosen,2600,0,6,1,50,50,35,10,body_parts,outdoor_scenes
56,34892,0,57,1,1,1,gain3,no_gain2,L,C,23,26,faces,body_parts,Stimuli/Experimental_stims/faces/rikonavt-HQjfrvdTfak-unsplash.jpg,Stimuli/Experimental_stims/body_parts/engin-akyurt-x_3gyC42btc-unsplash.jpg,0,1,53,1,unchosen,1700,0,6,1,50,50,23,26,faces,body_parts
57,34892,0,58,1,1,0,no_gain1,gain3,J,L,43,23,objects,faces,Stimuli/Experimental_stims/objects/jonathan-greenaway-Y4hGgeiFn3s-unsplash.jpg,Stimuli/Experimental_stims/faces/rikonavt-HQjfrvdTfak-unsplash.jpg,0,1,77,0,unchosen,1100,0,6,1,50,50,43,23,objects,faces
58,34892,0,59,1,1,1,gain6,no_gain4,H,E,17,45,faces,objects,Stimuli/Experimental_stims/faces/good-faces-xmSWVeGEnJw-unsplash.jpg,Stimuli/Experimental_stims/objects/leohoho-rngTKHXumy0-unsplash.jpg,1,NaN,,NaN,chosen,2600,0,6,1,50,50,NaN,NaN,NaN,NaN
59,34892,0,60,1,1,1,gain6,no_gain1,H,J,6,43,outdoor_scenes,objects,Stimuli/Experimental_stims/outdoor_scenes/meng-ji-8BH_M-53CyA-unsplash.jpg,Stimuli/Experimental_stims/objects/jonathan-greenaway-Y4hGgeiFn3s-unsplash.jpg,0,1,5,1,unchosen,1000,0,6,1,50,50,6,43,outdoor_scenes,objects
60,34892,0,61,1,1,1,gain1,no_gain3,G,F,11,25,outdoor_scenes,body_parts,Stimuli/Experimental_stims/outdoor_scenes/stephen-leonardi-gyIRjKPXupE-unsplash.jpg,Stimuli/Experimental_stims/body_parts/engin-akyurt-Q2rfH3GW39c-unsplash.jpg,0,1,61,1,unchosen,2400,0,6,1,50,50,11,25,outdoor_scenes,body_parts
61,34892,0,62,1,1,0,no_gain6,gain4,A,D,44,19,objects,faces,Stimuli/Experimental_stims/objects/kuiye-chen-NuOGFo4PudE-unsplash.jpg,Stimuli/Experimental_stims/faces/joel-mott-LaK153ghdig-unsplash.jpg,0,1,82,0,unchosen,3500,1,6,1,50,50,44,19,objects,faces
62,34892,0,63,1,1,1,gain6,no_gain3,H,F,17,18,faces,faces,Stimuli/Experimental_stims/faces/good-faces-xmSWVeGEnJw-unsplash.jpg,Stimuli/Experimental_stims/faces/jessica-radanavong-mrYkTuAesKE-unsplash.jpg,0,1,65,1,chosen,1700,0,6,1,50,50,17,18,faces,faces
63,34892,0,64,1,1,1,gain2,no_gain4,I,E,35,45,body_parts,objects,Stimuli/Experimental_stims/body_parts/wc-so-KH4AAPjb-tI-unsplash.jpg,Stimuli/Experimental_stims/objects/leohoho-rngTKHXumy0-unsplash.jpg,0,1,76,1,chosen,1200,0,6,1,50,50,35,45,body_parts,objects
64,34892,0,65,1,1,0,no_gain6,gain1,A,G,44,11,objects,outdoor_scenes,Stimuli/Experimental_stims/objects/kuiye-chen-NuOGFo4PudE-unsplash.jpg,Stimuli/Experimental_stims/outdoor_scenes/stephen-leonardi-gyIRjKPXupE-unsplash.jpg,0,1,74,0,unchosen,1600,0,6,1,50,50,44,11,objects,outdoor_scenes
65,34892,0,66,1,1,0,no_gain4,gain1,E,G,33,11,body_parts,outdoor_scenes,Stimuli/Experimental_stims/body_parts/tucker-good-36skLT5jZcc-unsplash.jpg,Stimuli/Experimental_stims/outdoor_scenes/stephen-leonardi-gyIRjKPXupE-unsplash.jpg,0,1,69,0,unchosen,1200,0,6,1,50,50,33,11,body_parts,outdoor_scenes
66,34892,0,67,1,1,1,gain5,no_gain2,B,C,14,26,faces,body_parts,Stimuli/Experimental_stims/faces/david-siglin-UuW4psOb388-unsplash.jpg,Stimuli/Experimental_stims/body_parts/engin-akyurt-x_3gyC42btc-unsplash.jpg,0,1,67,1,unchosen,3400,1,6,1,50,50,14,26,faces,body_parts
67,34892,0,68,1,1,0,no_gain1,gain4,J,D,15,41,faces,objects,Stimuli/Experimental_stims/faces/erik-lucatero-d2MSDujJl2g-unsplash.jpg,Stimuli/Experimental_stims/objects/insung-yoon-w2JtIQQXoRU-unsplash.jpg,0,1,58,0,chosen,1900,0,6,1,50,50,15,41,faces,objects
68,34892,0,69,1,1,1,gain6,no_gain2,H,C,17,10,faces,outdoor_scenes,Stimuli/Experimental_stims/faces/good-faces-xmSWVeGEnJw-unsplash.jpg,Stimuli/Experimental_stims/outdoor_scenes/shannon-kunkle-dM8INmkyDas-unsplash.jpg,0,1,87,1,chosen,2200,0,6,1,50,50,17,10,faces,outdoor_scenes
69,34892,0,70,1,1,1,gain5,no_gain3,B,F,9,18,outdoor_scenes,faces,Stimuli/Experimental_stims/outdoor_scenes/sergey-pesterev-y-b_FOmJXdg-unsplash.jpg,Stimuli/Experimental_stims/faces/jessica-radanavong-mrYkTuAesKE-unsplash.jpg,0,1,82,1,chosen,1100,0,6,1,50,50,9,18,outdoor_scenes,faces
70,34892,0,71,1,1,0,no_gain1,gain1,J,G,43,11,objects,outdoor_scenes,Stimuli/Experimental_stims/objects/jonathan-greenaway-Y4hGgeiFn3s-unsplash.jpg,Stimuli/Experimental_stims/outdoor_scenes/stephen-leonardi-gyIRjKPXupE-unsplash.jpg,0,1,75,0,unchosen,2600,0,6,1,50,50,43,11,objects,outdoor_scenes
71,34892,0,72,1,1,1,gain1,no_gain2,G,C,11,26,outdoor_scenes,body_parts,Stimuli/Experimental_stims/outdoor_scenes/stephen-leonardi-gyIRjKPXupE-unsplash.jpg,Stimuli/Experimental_stims/body_parts/engin-akyurt-x_3gyC42btc-unsplash.jpg,0,1,80,1,unchosen,2100,0,6,1,50,50,11,26,outdoor_scenes,body_parts
72,34892,0,73,1,1,0,no_gain3,gain3,F,L,25,23,body_parts,faces,Stimuli/Experimental_stims/body_parts/engin-akyurt-Q2rfH3GW39c-unsplash.jpg,Stimuli/Experimental_stims/faces/rikonavt-HQjfrvdTfak-unsplash.jpg,0,1,87,0,unchosen,1600,0,6,1,50,50,25,23,body_parts,faces
73,34892,0,74,1,1,0,no_gain4,gain1,E,G,45,36,objects,objects,Stimuli/Experimental_stims/objects/leohoho-rngTKHXumy0-unsplash.jpg,Stimuli/Experimental_stims/objects/alexander-andrews-JYGnB9gTCls-unsplash.jpg,0,1,70,0,chosen,1200,0,6,1,50,50,45,36,objects,objects
74,34892,0,75,1,1,1,gain3,no_gain5,L,K,23,47,faces,objects,Stimuli/Experimental_stims/faces/rikonavt-HQjfrvdTfak-unsplash.jpg,Stimuli/Experimental_stims/objects/ronaldo-arthur-vidal-Cdz_lvnl37k-unsplash.jpg,0,1,86,1,unchosen,2600,0,6,1,50,50,23,47,faces,objects
75,34892,0,76,1,1,0,no_gain4,gain3,E,L,45,30,objects,body_parts,Stimuli/Experimental_stims/objects/leohoho-rngTKHXumy0-unsplash.jpg,Stimuli/Experimental_stims/body_parts/mika-korhonen-Xodzxosar18-unsplash.jpg,0,1,77,0,chosen,3600,1,6,1,50,50,45,30,objects,body_parts
76,34892,0,77,2,2,1,gain4,no_gain6,D,A,19,44,faces,objects,Stimuli/Experimental_stims/faces/joel-mott-LaK153ghdig-unsplash.jpg,Stimuli/Experimental_stims/objects/kuiye-chen-NuOGFo4PudE-unsplash.jpg,1,NaN,,NaN,unchosen,3100,1,4,1,50,50,NaN,NaN,NaN,NaN
77,34892,0,78,2,2,1,gain3,no_gain1,L,J,30,15,body_parts,faces,Stimuli/Experimental_stims/body_parts/mika-korhonen-Xodzxosar18-unsplash.jpg,Stimuli/Experimental_stims/faces/erik-lucatero-d2MSDujJl2g-unsplash.jpg,1,NaN,,NaN,chosen,2600,0,4,1,50,50,NaN,NaN,NaN,NaN
78,34892,0,79,2,2,0,no_gain5,gain5,K,B,32,9,body_parts,outdoor_scenes,Stimuli/Experimental_stims/body_parts/towfiqu-barbhuiya-3AsiVDsZnHg-unsplash.jpg,Stimuli/Experimental_stims/outdoor_scenes/sergey-pesterev-y-b_FOmJXdg-unsplash.jpg,1,NaN,,NaN,chosen,1800,0,4,1,50,50,NaN,NaN,NaN,NaN
79,34892,0,80,2,2,0,no_gain5,gain2,K,I,47,3,objects,outdoor_scenes,Stimuli/Experimental_stims/objects/ronaldo-arthur-vidal-Cdz_lvnl37k-unsplash.jpg,Stimuli/Experimental_stims/outdoor_scenes/henry-be-NLF6hTe4PAg-unsplash.jpg,1,NaN,,NaN,unchosen,1000,0,4,1,50,50,NaN,NaN,NaN,NaN
80,34892,0,81,2,2,0,no_gain5,gain6,K,H,32,17,body_parts,faces,Stimuli/Experimental_stims/body_parts/towfiqu-barbhuiya-3AsiVDsZnHg-unsplash.jpg,Stimuli/Experimental_stims/faces/good-faces-xmSWVeGEnJw-unsplash.jpg,0,1,14,0,chosen,2300,0,4,1,50,50,32,17,body_parts,faces
81,34892,0,82,2,2,1,gain2,no_gain1,I,J,35,15,body_parts,faces,Stimuli/Experimental_stims/body_parts/wc-so-KH4AAPjb-tI-unsplash.jpg,Stimuli/Experimental_stims/faces/erik-lucatero-d2MSDujJl2g-unsplash.jpg,0,1,94,1,chosen,1100,0,4,1,50,50,35,15,body_parts,faces
82,34892,0,83,2,2,1,gain6,no_gain4,H,E,17,45,faces,objects,Stimuli/Experimental_stims/faces/good-faces-xmSWVeGEnJw-unsplash.jpg,Stimuli/Experimental_stims/objects/leohoho-rngTKHXumy0-unsplash.jpg,0,1,71,1,chosen,1500,0,4,1,50,50,17,45,faces,objects
83,34892,0,84,2,2,1,gain1,no_gain4,G,E,11,33,outdoor_scenes,body_parts,Stimuli/Experimental_stims/outdoor_scenes/stephen-leonardi-gyIRjKPXupE-unsplash.jpg,Stimuli/Experimental_stims/body_parts/tucker-good-36skLT5jZcc-unsplash.jpg,0,1,85,1,unchosen,2400,0,4,1,50,50,11,33,outdoor_scenes,body_parts
84,34892,0,85,2,2,0,no_gain2,gain2,C,I,26,3,body_parts,outdoor_scenes,Stimuli/Experimental_stims/body_parts/engin-akyurt-x_3gyC42btc-unsplash.jpg,Stimuli/Experimental_stims/outdoor_scenes/henry-be-NLF6hTe4PAg-unsplash.jpg,0,1,74,0,unchosen,2300,0,4,1,50,50,26,3,body_parts,outdoor_scenes
85,34892,0,86,2,2,1,gain6,no_gain3,H,F,17,18,faces,faces,Stimuli/Experimental_stims/faces/good-faces-xmSWVeGEnJw-unsplash.jpg,Stimuli/Experimental_stims/faces/jessica-radanavong-mrYkTuAesKE-unsplash.jpg,0,1,90,1,chosen,1200,0,4,1,50,50,17,18,faces,faces
86,34892,0,87,2,2,0,no_gain5,gain4,K,D,47,19,objects,faces,Stimuli/Experimental_stims/objects/ronaldo-arthur-vidal-Cdz_lvnl37k-unsplash.jpg,Stimuli/Experimental_stims/faces/joel-mott-LaK153ghdig-unsplash.jpg,0,1,81,0,unchosen,1300,0,4,1,50,50,47,19,objects,faces
87,34892,0,88,2,2,1,gain2,no_gain2,I,C,35,10,body_parts,outdoor_scenes,Stimuli/Experimental_stims/body_parts/wc-so-KH4AAPjb-tI-unsplash.jpg,Stimuli/Experimental_stims/outdoor_scenes/shannon-kunkle-dM8INmkyDas-unsplash.jpg,0,1,92,1,chosen,3700,1,4,1,50,50,35,10,body_parts,outdoor_scenes
88,34892,0,89,2,2,1,gain5,no_gain3,B,F,9,18,outdoor_scenes,faces,Stimuli/Experimental_stims/outdoor_scenes/sergey-pesterev-y-b_FOmJXdg-unsplash.jpg,Stimuli/Experimental_stims/faces/jessica-radanavong-mrYkTuAesKE-unsplash.jpg,0,1,104,1,chosen,1600,0,4,1,50,50,9,18,outdoor_scenes,faces
89,34892,0,90,2,2,0,no_gain3,gain1,F,G,18,36,faces,objects,Stimuli/Experimental_stims/faces/jessica-radanavong-mrYkTuAesKE-unsplash.jpg,Stimuli/Experimental_stims/objects/alexander-andrews-JYGnB9gTCls-unsplash.jpg,0,1,96,0,chosen,1700,0,4,1,50,50,18,36,faces,objects
90,34892,0,91,2,2,0,no_gain2,gain1,C,G,26,11,body_parts,outdoor_scenes,Stimuli/Experimental_stims/body_parts/engin-akyurt-x_3gyC42btc-unsplash.jpg,Stimuli/Experimental_stims/outdoor_scenes/stephen-leonardi-gyIRjKPXupE-unsplash.jpg,0,1,96,0,unchosen,1200,0,4,1,50,50,26,11,body_parts,outdoor_scenes
91,34892,0,92,2,2,0,no_gain6,gain5,A,B,1,9,outdoor_scenes,outdoor_scenes,Stimuli/Experimental_stims/outdoor_scenes/ashim-d-silva-S2Q5mdOrrVc-unsplash.jpg,Stimuli/Experimental_stims/outdoor_scenes/sergey-pesterev-y-b_FOmJXdg-unsplash.jpg,0,1,80,0,chosen,1100,0,4,1,50,50,1,9,outdoor_scenes,outdoor_scenes
92,34892,0,93,2,2,0,no_gain4,gain3,E,L,45,30,objects,body_parts,Stimuli/Experimental_stims/objects/leohoho-rngTKHXumy0-unsplash.jpg,Stimuli/Experimental_stims/body_parts/mika-korhonen-Xodzxosar18-unsplash.jpg,0,1,84,0,chosen,1300,0,4,1,50,50,45,30,objects,body_parts
93,34892,0,94,2,2,1,gain4,no_gain5,D,K,41,32,objects,body_parts,Stimuli/Experimental_stims/objects/insung-yoon-w2JtIQQXoRU-unsplash.jpg,Stimuli/Experimental_stims/body_parts/towfiqu-barbhuiya-3AsiVDsZnHg-unsplash.jpg,0,1,86,1,chosen,4500,1,4,1,50,50,41,32,objects,body_parts
94,34892,0,95,2,2,0,no_gain5,gain1,K,G,47,11,objects,outdoor_scenes,Stimuli/Experimental_stims/objects/ronaldo-arthur-vidal-Cdz_lvnl37k-unsplash.jpg,Stimuli/Experimental_stims/outdoor_scenes/stephen-leonardi-gyIRjKPXupE-unsplash.jpg,0,1,76,0,unchosen,1900,0,4,1,50,50,47,11,objects,outdoor_scenes
95,34892,0,96,2,2,1,gain1,no_gain3,G,F,11,25,outdoor_scenes,body_parts,Stimuli/Experimental_stims/outdoor_scenes/stephen-leonardi-gyIRjKPXupE-unsplash.jpg,Stimuli/Experimental_stims/body_parts/engin-akyurt-Q2rfH3GW39c-unsplash.jpg,0,1,64,1,unchosen,1100,0,4,1,50,50,11,25,outdoor_scenes,body_parts
96,34892,0,97,2,2,1,gain3,no_gain3,L,F,23,25,faces,body_parts,Stimuli/Experimental_stims/faces/rikonavt-HQjfrvdTfak-unsplash.jpg,Stimuli/Experimental_stims/body_parts/engin-akyurt-Q2rfH3GW39c-unsplash.jpg,0,1,51,1,unchosen,2300,0,4,1,50,50,23,25,faces,body_parts
97,34892,0,98,2,2,0,no_gain5,gain1,K,G,32,36,body_parts,objects,Stimuli/Experimental_stims/body_parts/towfiqu-barbhuiya-3AsiVDsZnHg-unsplash.jpg,Stimuli/Experimental_stims/objects/alexander-andrews-JYGnB9gTCls-unsplash.jpg,1,NaN,,NaN,chosen,2800,0,4,1,50,50,NaN,NaN,NaN,NaN
98,34892,0,99,2,2,0,no_gain5,gain5,K,B,47,14,objects,faces,Stimuli/Experimental_stims/objects/ronaldo-arthur-vidal-Cdz_lvnl37k-unsplash.jpg,Stimuli/Experimental_stims/faces/david-siglin-UuW4psOb388-unsplash.jpg,1,NaN,,NaN,unchosen,3200,1,4,1,50,50,NaN,NaN,NaN,NaN
99,34892,0,100,2,2,1,gain5,no_gain1,B,J,9,15,outdoor_scenes,faces,Stimuli/Experimental_stims/outdoor_scenes/sergey-pesterev-y-b_FOmJXdg-unsplash.jpg,Stimuli/Experimental_stims/faces/erik-lucatero-d2MSDujJl2g-unsplash.jpg,1,NaN,,NaN,chosen,2000,0,4,1,50,50,NaN,NaN,NaN,NaN
100,34892,0,101,2,2,0,no_gain2,gain6,C,H,10,17,outdoor_scenes,faces,Stimuli/Experimental_stims/outdoor_scenes/shannon-kunkle-dM8INmkyDas-unsplash.jpg,Stimuli/Experimental_stims/faces/good-faces-xmSWVeGEnJw-unsplash.jpg,1,NaN,,NaN,chosen,2500,0,4,1,50,50,NaN,NaN,NaN,NaN
101,34892,0,102,2,2,1,gain3,no_gain5,L,K,23,47,faces,objects,Stimuli/Experimental_stims/faces/rikonavt-HQjfrvdTfak-unsplash.jpg,Stimuli/Experimental_stims/objects/ronaldo-arthur-vidal-Cdz_lvnl37k-unsplash.jpg,1,NaN,,NaN,unchosen,1300,0,4,1,50,50,NaN,NaN,NaN,NaN
102,34892,0,103,2,2,1,gain6,no_gain3,H,F,6,25,outdoor_scenes,body_parts,Stimuli/Experimental_stims/outdoor_scenes/meng-ji-8BH_M-53CyA-unsplash.jpg,Stimuli/Experimental_stims/body_parts/engin-akyurt-Q2rfH3GW39c-unsplash.jpg,1,NaN,,NaN,unchosen,1300,0,4,1,50,50,NaN,NaN,NaN,NaN
103,34892,0,104,2,2,1,gain4,no_gain4,D,E,19,33,faces,body_parts,Stimuli/Experimental_stims/faces/joel-mott-LaK153ghdig-unsplash.jpg,Stimuli/Experimental_stims/body_parts/tucker-good-36skLT5jZcc-unsplash.jpg,1,NaN,,NaN,unchosen,4500,1,4,1,50,50,NaN,NaN,NaN,NaN
104,34892,0,105,2,2,1,gain6,no_gain1,H,J,17,15,faces,faces,Stimuli/Experimental_stims/faces/good-faces-xmSWVeGEnJw-unsplash.jpg,Stimuli/Experimental_stims/faces/erik-lucatero-d2MSDujJl2g-unsplash.jpg,1,NaN,,NaN,chosen,1400,0,4,1,50,50,NaN,NaN,NaN,NaN
105,34892,0,106,2,2,1,gain2,no_gain6,I,A,3,44,outdoor_scenes,objects,Stimuli/Experimental_stims/outdoor_scenes/henry-be-NLF6hTe4PAg-unsplash.jpg,Stimuli/Experimental_stims/objects/kuiye-chen-NuOGFo4PudE-unsplash.jpg,1,NaN,,NaN,unchosen,2600,0,4,1,50,50,NaN,NaN,NaN,NaN
106,34892,0,107,2,2,1,gain4,no_gain4,D,E,41,45,objects,objects,Stimuli/Experimental_stims/objects/insung-yoon-w2JtIQQXoRU-unsplash.jpg,Stimuli/Experimental_stims/objects/leohoho-rngTKHXumy0-unsplash.jpg,1,NaN,,NaN,chosen,2100,0,4,1,50,50,NaN,NaN,NaN,NaN
107,34892,0,108,2,2,0,no_gain6,gain6,A,H,44,6,objects,outdoor_scenes,Stimuli/Experimental_stims/objects/kuiye-chen-NuOGFo4PudE-unsplash.jpg,Stimuli/Experimental_stims/outdoor_scenes/meng-ji-8BH_M-53CyA-unsplash.jpg,1,NaN,,NaN,unchosen,2100,0,4,1,50,50,NaN,NaN,NaN,NaN
108,34892,0,109,2,2,1,gain4,no_gain3,D,F,19,25,faces,body_parts,Stimuli/Experimental_stims/faces/joel-mott-LaK153ghdig-unsplash.jpg,Stimuli/Experimental_stims/body_parts/engin-akyurt-Q2rfH3GW39c-unsplash.jpg,1,NaN,,NaN,unchosen,2600,0,4,1,50,50,NaN,NaN,NaN,NaN
109,34892,0,110,2,2,0,no_gain1,gain1,J,G,15,36,faces,objects,Stimuli/Experimental_stims/faces/erik-lucatero-d2MSDujJl2g-unsplash.jpg,Stimuli/Experimental_stims/objects/alexander-andrews-JYGnB9gTCls-unsplash.jpg,1,NaN,,NaN,chosen,3000,1,4,1,50,50,NaN,NaN,NaN,NaN
110,34892,0,111,2,2,1,gain2,no_gain4,I,E,35,45,body_parts,objects,Stimuli/Experimental_stims/body_parts/wc-so-KH4AAPjb-tI-unsplash.jpg,Stimuli/Experimental_stims/objects/leohoho-rngTKHXumy0-unsplash.jpg,1,NaN,,NaN,chosen,1100,0,4,1,50,50,NaN,NaN,NaN,NaN
111,34892,0,112,2,2,0,no_gain1,gain3,J,L,43,23,objects,faces,Stimuli/Experimental_stims/objects/jonathan-greenaway-Y4hGgeiFn3s-unsplash.jpg,Stimuli/Experimental_stims/faces/rikonavt-HQjfrvdTfak-unsplash.jpg,1,NaN,,NaN,unchosen,1000,0,4,1,50,50,NaN,NaN,NaN,NaN
112,34892,0,113,2,2,1,gain5,no_gain1,B,J,14,43,faces,objects,Stimuli/Experimental_stims/faces/david-siglin-UuW4psOb388-unsplash.jpg,Stimuli/Experimental_stims/objects/jonathan-greenaway-Y4hGgeiFn3s-unsplash.jpg,1,NaN,,NaN,unchosen,1300,0,4,1,50,50,NaN,NaN,NaN,NaN
113,34892,0,114,2,2,1,gain3,no_gain6,L,A,30,1,body_parts,outdoor_scenes,Stimuli/Experimental_stims/body_parts/mika-korhonen-Xodzxosar18-unsplash.jpg,Stimuli/Experimental_stims/outdoor_scenes/ashim-d-silva-S2Q5mdOrrVc-unsplash.jpg,1,NaN,,NaN,chosen,1000,0,4,1,50,50,NaN,NaN,NaN,NaN
114,34892,0,115,2,2,0,no_gain1,gain1,J,G,43,11,objects,outdoor_scenes,Stimuli/Experimental_stims/objects/jonathan-greenaway-Y4hGgeiFn3s-unsplash.jpg,Stimuli/Experimental_stims/outdoor_scenes/stephen-leonardi-gyIRjKPXupE-unsplash.jpg,1,NaN,,NaN,unchosen,1200,0,4,1,50,50,NaN,NaN,NaN,NaN
115,34892,0,116,2,2,0,no_gain5,gain3,K,L,32,30,body_parts,body_parts,Stimuli/Experimental_stims/body_parts/towfiqu-barbhuiya-3AsiVDsZnHg-unsplash.jpg,Stimuli/Experimental_stims/body_parts/mika-korhonen-Xodzxosar18-unsplash.jpg,1,NaN,,NaN,chosen,1800,0,4,1,50,50,NaN,NaN,NaN,NaN
116,34892,0,117,2,2,1,gain5,no_gain2,B,C,14,26,faces,body_parts,Stimuli/Experimental_stims/faces/david-siglin-UuW4psOb388-unsplash.jpg,Stimuli/Experimental_stims/body_parts/engin-akyurt-x_3gyC42btc-unsplash.jpg,1,NaN,,NaN,unchosen,2300,0,4,1,50,50,NaN,NaN,NaN,NaN
117,34892,0,118,2,2,1,gain4,no_gain1,D,J,41,15,objects,faces,Stimuli/Experimental_stims/objects/insung-yoon-w2JtIQQXoRU-unsplash.jpg,Stimuli/Experimental_stims/faces/erik-lucatero-d2MSDujJl2g-unsplash.jpg,1,NaN,,NaN,chosen,3500,1,4,1,50,50,NaN,NaN,NaN,NaN
118,34892,0,119,2,2,0,no_gain2,gain6,C,H,26,6,body_parts,outdoor_scenes,Stimuli/Experimental_stims/body_parts/engin-akyurt-x_3gyC42btc-unsplash.jpg,Stimuli/Experimental_stims/outdoor_scenes/meng-ji-8BH_M-53CyA-unsplash.jpg,1,NaN,,NaN,unchosen,1300,0,4,1,50,50,NaN,NaN,NaN,NaN
119,34892,0,120,2,2,0,no_gain2,gain5,C,B,10,9,outdoor_scenes,outdoor_scenes,Stimuli/Experimental_stims/outdoor_scenes/shannon-kunkle-dM8INmkyDas-unsplash.jpg,Stimuli/Experimental_stims/outdoor_scenes/sergey-pesterev-y-b_FOmJXdg-unsplash.jpg,1,NaN,,NaN,chosen,1400,0,4,1,50,50,NaN,NaN,NaN,NaN
120,34892,0,121,2,2,1,gain3,no_gain3,L,F,30,18,body_parts,faces,Stimuli/Experimental_stims/body_parts/mika-korhonen-Xodzxosar18-unsplash.jpg,Stimuli/Experimental_stims/faces/jessica-radanavong-mrYkTuAesKE-unsplash.jpg,1,NaN,,NaN,chosen,1300,0,4,1,50,50,NaN,NaN,NaN,NaN
121,34892,0,122,2,2,1,gain6,no_gain1,H,J,6,43,outdoor_scenes,objects,Stimuli/Experimental_stims/outdoor_scenes/meng-ji-8BH_M-53CyA-unsplash.jpg,Stimuli/Experimental_stims/objects/jonathan-greenaway-Y4hGgeiFn3s-unsplash.jpg,1,NaN,,NaN,unchosen,2800,0,4,1,50,50,NaN,NaN,NaN,NaN
122,34892,0,123,2,2,1,gain5,no_gain6,B,A,14,44,faces,objects,Stimuli/Experimental_stims/faces/david-siglin-UuW4psOb388-unsplash.jpg,Stimuli/Experimental_stims/objects/kuiye-chen-NuOGFo4PudE-unsplash.jpg,1,NaN,,NaN,unchosen,1800,0,4,1,50,50,NaN,NaN,NaN,NaN
123,34892,0,124,2,2,0,no_gain2,gain4,C,D,26,19,body_parts,faces,Stimuli/Experimental_stims/body_parts/engin-akyurt-x_3gyC42btc-unsplash.jpg,Stimuli/Experimental_stims/faces/joel-mott-LaK153ghdig-unsplash.jpg,1,NaN,,NaN,unchosen,1200,0,4,1,50,50,NaN,NaN,NaN,NaN
124,34892,0,125,2,2,0,no_gain3,gain4,F,D,18,41,faces,objects,Stimuli/Experimental_stims/faces/jessica-radanavong-mrYkTuAesKE-unsplash.jpg,Stimuli/Experimental_stims/objects/insung-yoon-w2JtIQQXoRU-unsplash.jpg,1,NaN,,NaN,chosen,1000,0,4,1,50,50,NaN,NaN,NaN,NaN
125,34892,0,126,2,2,1,gain3,no_gain4,L,E,23,33,faces,body_parts,Stimuli/Experimental_stims/faces/rikonavt-HQjfrvdTfak-unsplash.jpg,Stimuli/Experimental_stims/body_parts/tucker-good-36skLT5jZcc-unsplash.jpg,1,NaN,,NaN,unchosen,1600,0,4,1,50,50,NaN,NaN,NaN,NaN
126,34892,0,127,2,2,0,no_gain2,gain4,C,D,10,41,outdoor_scenes,objects,Stimuli/Experimental_stims/outdoor_scenes/shannon-kunkle-dM8INmkyDas-unsplash.jpg,Stimuli/Experimental_stims/objects/insung-yoon-w2JtIQQXoRU-unsplash.jpg,1,NaN,,NaN,chosen,1500,0,4,1,50,50,NaN,NaN,NaN,NaN
127,34892,0,128,2,2,0,no_gain5,gain2,K,I,32,35,body_parts,body_parts,Stimuli/Experimental_stims/body_parts/towfiqu-barbhuiya-3AsiVDsZnHg-unsplash.jpg,Stimuli/Experimental_stims/body_parts/wc-so-KH4AAPjb-tI-unsplash.jpg,1,NaN,,NaN,chosen,3300,1,4,1,50,50,NaN,NaN,NaN,NaN
128,34892,0,129,2,2,0,no_gain4,gain1,E,G,45,36,objects,objects,Stimuli/Experimental_stims/objects/leohoho-rngTKHXumy0-unsplash.jpg,Stimuli/Experimental_stims/objects/alexander-andrews-JYGnB9gTCls-unsplash.jpg,1,NaN,,NaN,chosen,2200,0,4,1,50,50,NaN,NaN,NaN,NaN
129,34892,0,130,2,2,0,no_gain5,gain6,K,H,47,6,objects,outdoor_scenes,Stimuli/Experimental_stims/objects/ronaldo-arthur-vidal-Cdz_lvnl37k-unsplash.jpg,Stimuli/Experimental_stims/outdoor_scenes/meng-ji-8BH_M-53CyA-unsplash.jpg,1,NaN,,NaN,unchosen,2400,0,4,1,50,50,NaN,NaN,NaN,NaN
130,34892,0,131,2,2,1,gain2,no_gain3,I,F,35,18,body_parts,faces,Stimuli/Experimental_stims/body_parts/wc-so-KH4AAPjb-tI-unsplash.jpg,Stimuli/Experimental_stims/faces/jessica-radanavong-mrYkTuAesKE-unsplash.jpg,1,NaN,,NaN,chosen,1300,0,4,1,50,50,NaN,NaN,NaN,NaN
131,34892,0,132,2,2,1,gain6,no_gain4,H,E,6,33,outdoor_scenes,body_parts,Stimuli/Experimental_stims/outdoor_scenes/meng-ji-8BH_M-53CyA-unsplash.jpg,Stimuli/Experimental_stims/body_parts/tucker-good-36skLT5jZcc-unsplash.jpg,1,NaN,,NaN,unchosen,2400,0,4,1,50,50,NaN,NaN,NaN,NaN
132,34892,0,133,2,2,0,no_gain1,gain4,J,D,43,19,objects,faces,Stimuli/Experimental_stims/objects/jonathan-greenaway-Y4hGgeiFn3s-unsplash.jpg,Stimuli/Experimental_stims/faces/joel-mott-LaK153ghdig-unsplash.jpg,1,NaN,,NaN,unchosen,2200,0,4,1,50,50,NaN,NaN,NaN,NaN
133,34892,0,134,2,2,0,no_gain6,gain4,A,D,1,41,outdoor_scenes,objects,Stimuli/Experimental_stims/outdoor_scenes/ashim-d-silva-S2Q5mdOrrVc-unsplash.jpg,Stimuli/Experimental_stims/objects/insung-yoon-w2JtIQQXoRU-unsplash.jpg,1,NaN,,NaN,chosen,2900,1,4,1,50,50,NaN,NaN,NaN,NaN
134,34892,0,135,2,2,1,gain1,no_gain6,G,A,36,1,objects,outdoor_scenes,Stimuli/Experimental_stims/objects/alexander-andrews-JYGnB9gTCls-unsplash.jpg,Stimuli/Experimental_stims/outdoor_scenes/ashim-d-silva-S2Q5mdOrrVc-unsplash.jpg,1,NaN,,NaN,chosen,1900,0,4,1,50,50,NaN,NaN,NaN,NaN
135,34892,0,136,2,2,0,no_gain1,gain2,J,I,43,3,objects,outdoor_scenes,Stimuli/Experimental_stims/objects/jonathan-greenaway-Y4hGgeiFn3s-unsplash.jpg,Stimuli/Experimental_stims/outdoor_scenes/henry-be-NLF6hTe4PAg-unsplash.jpg,1,NaN,,NaN,unchosen,1700,0,4,1,50,50,NaN,NaN,NaN,NaN
136,34892,0,137,2,2,0,no_gain4,gain2,E,I,33,3,body_parts,outdoor_scenes,Stimuli/Experimental_stims/body_parts/tucker-good-36skLT5jZcc-unsplash.jpg,Stimuli/Experimental_stims/outdoor_scenes/henry-be-NLF6hTe4PAg-unsplash.jpg,1,NaN,,NaN,unchosen,1900,0,4,1,50,50,NaN,NaN,NaN,NaN
137,34892,0,138,2,2,1,gain6,no_gain6,H,A,17,1,faces,outdoor_scenes,Stimuli/Experimental_stims/faces/good-faces-xmSWVeGEnJw-unsplash.jpg,Stimuli/Experimental_stims/outdoor_scenes/ashim-d-silva-S2Q5mdOrrVc-unsplash.jpg,1,NaN,,NaN,chosen,1700,0,4,1,50,50,NaN,NaN,NaN,NaN
138,34892,0,139,2,2,0,no_gain3,gain2,F,I,25,3,body_parts,outdoor_scenes,Stimuli/Experimental_stims/body_parts/engin-akyurt-Q2rfH3GW39c-unsplash.jpg,Stimuli/Experimental_stims/outdoor_scenes/henry-be-NLF6hTe4PAg-unsplash.jpg,1,NaN,,NaN,unchosen,1300,0,4,1,50,50,NaN,NaN,NaN,NaN
139,34892,0,140,2,2,1,gain5,no_gain4,B,E,14,33,faces,body_parts,Stimuli/Experimental_stims/faces/david-siglin-UuW4psOb388-unsplash.jpg,Stimuli/Experimental_stims/body_parts/tucker-good-36skLT5jZcc-unsplash.jpg,1,NaN,,NaN,unchosen,3600,1,4,1,50,50,NaN,NaN,NaN,NaN
140,34892,0,141,2,2,1,gain5,no_gain4,B,E,9,45,outdoor_scenes,objects,Stimuli/Experimental_stims/outdoor_scenes/sergey-pesterev-y-b_FOmJXdg-unsplash.jpg,Stimuli/Experimental_stims/objects/leohoho-rngTKHXumy0-unsplash.jpg,1,NaN,,NaN,chosen,1700,0,4,1,50,50,NaN,NaN,NaN,NaN
141,34892,0,142,2,2,0,no_gain6,gain2,A,I,1,35,outdoor_scenes,body_parts,Stimuli/Experimental_stims/outdoor_scenes/ashim-d-silva-S2Q5mdOrrVc-unsplash.jpg,Stimuli/Experimental_stims/body_parts/wc-so-KH4AAPjb-tI-unsplash.jpg,1,NaN,,NaN,chosen,1900,0,4,1,50,50,NaN,NaN,NaN,NaN
142,34892,0,143,2,2,0,no_gain2,gain1,C,G,10,36,outdoor_scenes,objects,Stimuli/Experimental_stims/outdoor_scenes/shannon-kunkle-dM8INmkyDas-unsplash.jpg,Stimuli/Experimental_stims/objects/alexander-andrews-JYGnB9gTCls-unsplash.jpg,1,NaN,,NaN,chosen,2200,0,4,1,50,50,NaN,NaN,NaN,NaN
143,34892,0,144,2,2,0,no_gain3,gain5,F,B,25,14,body_parts,faces,Stimuli/Experimental_stims/body_parts/engin-akyurt-Q2rfH3GW39c-unsplash.jpg,Stimuli/Experimental_stims/faces/david-siglin-UuW4psOb388-unsplash.jpg,1,NaN,,NaN,unchosen,1800,0,4,1,50,50,NaN,NaN,NaN,NaN
144,34892,0,145,2,2,0,no_gain6,gain3,A,L,44,23,objects,faces,Stimuli/Experimental_stims/objects/kuiye-chen-NuOGFo4PudE-unsplash.jpg,Stimuli/Experimental_stims/faces/rikonavt-HQjfrvdTfak-unsplash.jpg,1,NaN,,NaN,unchosen,1400,0,4,1,50,50,NaN,NaN,NaN,NaN
145,34892,0,146,2,2,0,no_gain2,gain3,C,L,10,30,outdoor_scenes,body_parts,Stimuli/Experimental_stims/outdoor_scenes/shannon-kunkle-dM8INmkyDas-unsplash.jpg,Stimuli/Experimental_stims/body_parts/mika-korhonen-Xodzxosar18-unsplash.jpg,1,NaN,,NaN,chosen,1800,0,4,1,50,50,NaN,NaN,NaN,NaN
146,34892,0,147,2,2,1,gain3,no_gain2,L,C,23,26,faces,body_parts,Stimuli/Experimental_stims/faces/rikonavt-HQjfrvdTfak-unsplash.jpg,Stimuli/Experimental_stims/body_parts/engin-akyurt-x_3gyC42btc-unsplash.jpg,1,NaN,,NaN,unchosen,1300,0,4,1,50,50,NaN,NaN,NaN,NaN
147,34892,0,148,2,2,1,gain1,no_gain6,G,A,11,44,outdoor_scenes,objects,Stimuli/Experimental_stims/outdoor_scenes/stephen-leonardi-gyIRjKPXupE-unsplash.jpg,Stimuli/Experimental_stims/objects/kuiye-chen-NuOGFo4PudE-unsplash.jpg,1,NaN,,NaN,unchosen,3600,1,4,1,50,50,NaN,NaN,NaN,NaN
148,34892,0,149,3,3,1,gain3,no_gain6,L,A,23,44,faces,objects,Stimuli/Experimental_stims/faces/rikonavt-HQjfrvdTfak-unsplash.jpg,Stimuli/Experimental_stims/objects/kuiye-chen-NuOGFo4PudE-unsplash.jpg,1,NaN,,NaN,unchosen,1200,0,5,1,50,50,NaN,NaN,NaN,NaN
149,34892,0,150,3,3,1,gain3,no_gain3,L,F,30,18,body_parts,faces,Stimuli/Experimental_stims/body_parts/mika-korhonen-Xodzxosar18-unsplash.jpg,Stimuli/Experimental_stims/faces/jessica-radanavong-mrYkTuAesKE-unsplash.jpg,1,NaN,,NaN,chosen,1100,0,5,1,50,50,NaN,NaN,NaN,NaN
150,34892,0,151,3,3,1,gain1,no_gain4,G,E,36,45,objects,objects,Stimuli/Experimental_stims/objects/alexander-andrews-JYGnB9gTCls-unsplash.jpg,Stimuli/Experimental_stims/objects/leohoho-rngTKHXumy0-unsplash.jpg,1,NaN,,NaN,chosen,1100,0,5,1,50,50,NaN,NaN,NaN,NaN
151,34892,0,152,3,3,1,gain5,no_gain6,B,A,14,44,faces,objects,Stimuli/Experimental_stims/faces/david-siglin-UuW4psOb388-unsplash.jpg,Stimuli/Experimental_stims/objects/kuiye-chen-NuOGFo4PudE-unsplash.jpg,1,NaN,,NaN,unchosen,1300,0,5,1,50,50,NaN,NaN,NaN,NaN
152,34892,0,153,3,3,1,gain2,no_gain6,I,A,35,1,body_parts,outdoor_scenes,Stimuli/Experimental_stims/body_parts/wc-so-KH4AAPjb-tI-unsplash.jpg,Stimuli/Experimental_stims/outdoor_scenes/ashim-d-silva-S2Q5mdOrrVc-unsplash.jpg,1,NaN,,NaN,chosen,3300,1,5,1,50,50,NaN,NaN,NaN,NaN
153,34892,0,154,3,3,1,gain6,no_gain6,H,A,17,1,faces,outdoor_scenes,Stimuli/Experimental_stims/faces/good-faces-xmSWVeGEnJw-unsplash.jpg,Stimuli/Experimental_stims/outdoor_scenes/ashim-d-silva-S2Q5mdOrrVc-unsplash.jpg,0,1,8,1,chosen,1000,0,5,1,50,50,17,1,faces,outdoor_scenes
154,34892,0,155,3,3,1,gain1,no_gain2,G,C,11,26,outdoor_scenes,body_parts,Stimuli/Experimental_stims/outdoor_scenes/stephen-leonardi-gyIRjKPXupE-unsplash.jpg,Stimuli/Experimental_stims/body_parts/engin-akyurt-x_3gyC42btc-unsplash.jpg,0,1,79,1,unchosen,1300,0,5,1,50,50,11,26,outdoor_scenes,body_parts
155,34892,0,156,3,3,0,no_gain4,gain3,E,L,45,30,objects,body_parts,Stimuli/Experimental_stims/objects/leohoho-rngTKHXumy0-unsplash.jpg,Stimuli/Experimental_stims/body_parts/mika-korhonen-Xodzxosar18-unsplash.jpg,1,NaN,,NaN,chosen,1300,0,5,1,50,50,NaN,NaN,NaN,NaN
156,34892,0,157,3,3,0,no_gain4,gain4,E,D,45,41,objects,objects,Stimuli/Experimental_stims/objects/leohoho-rngTKHXumy0-unsplash.jpg,Stimuli/Experimental_stims/objects/insung-yoon-w2JtIQQXoRU-unsplash.jpg,0,1,38,0,chosen,1600,0,5,1,50,50,45,41,objects,objects
157,34892,0,158,3,3,1,gain6,no_gain3,H,F,17,18,faces,faces,Stimuli/Experimental_stims/faces/good-faces-xmSWVeGEnJw-unsplash.jpg,Stimuli/Experimental_stims/faces/jessica-radanavong-mrYkTuAesKE-unsplash.jpg,0,1,93,1,chosen,1400,0,5,1,50,50,17,18,faces,faces
158,34892,0,159,3,3,0,no_gain1,gain2,J,I,43,3,objects,outdoor_scenes,Stimuli/Experimental_stims/objects/jonathan-greenaway-Y4hGgeiFn3s-unsplash.jpg,Stimuli/Experimental_stims/outdoor_scenes/henry-be-NLF6hTe4PAg-unsplash.jpg,0,1,75,0,unchosen,2100,0,5,1,50,50,43,3,objects,outdoor_scenes
159,34892,0,160,3,3,0,no_gain4,gain3,E,L,33,23,body_parts,faces,Stimuli/Experimental_stims/body_parts/tucker-good-36skLT5jZcc-unsplash.jpg,Stimuli/Experimental_stims/faces/rikonavt-HQjfrvdTfak-unsplash.jpg,0,1,63,0,unchosen,1200,0,5,1,50,50,33,23,body_parts,faces
160,34892,0,161,3,3,0,no_gain1,gain3,J,L,15,30,faces,body_parts,Stimuli/Experimental_stims/faces/erik-lucatero-d2MSDujJl2g-unsplash.jpg,Stimuli/Experimental_stims/body_parts/mika-korhonen-Xodzxosar18-unsplash.jpg,0,1,65,0,chosen,4100,1,5,1,50,50,15,30,faces,body_parts
161,34892,0,162,3,3,0,no_gain1,gain4,J,D,43,19,objects,faces,Stimuli/Experimental_stims/objects/jonathan-greenaway-Y4hGgeiFn3s-unsplash.jpg,Stimuli/Experimental_stims/faces/joel-mott-LaK153ghdig-unsplash.jpg,0,1,74,0,unchosen,1900,0,5,1,50,50,43,19,objects,faces
162,34892,0,163,3,3,1,gain5,no_gain5,B,K,9,32,outdoor_scenes,body_parts,Stimuli/Experimental_stims/outdoor_scenes/sergey-pesterev-y-b_FOmJXdg-unsplash.jpg,Stimuli/Experimental_stims/body_parts/towfiqu-barbhuiya-3AsiVDsZnHg-unsplash.jpg,0,1,82,1,chosen,2000,0,5,1,50,50,9,32,outdoor_scenes,body_parts
163,34892,0,164,3,3,0,no_gain2,gain5,C,B,26,14,body_parts,faces,Stimuli/Experimental_stims/body_parts/engin-akyurt-x_3gyC42btc-unsplash.jpg,Stimuli/Experimental_stims/faces/david-siglin-UuW4psOb388-unsplash.jpg,0,1,89,0,unchosen,2600,0,5,1,50,50,26,14,body_parts,faces
164,34892,0,165,3,3,1,gain1,no_gain4,G,E,11,33,outdoor_scenes,body_parts,Stimuli/Experimental_stims/outdoor_scenes/stephen-leonardi-gyIRjKPXupE-unsplash.jpg,Stimuli/Experimental_stims/body_parts/tucker-good-36skLT5jZcc-unsplash.jpg,0,1,81,1,unchosen,1100,0,5,1,50,50,11,33,outdoor_scenes,body_parts
165,34892,0,166,3,3,0,no_gain4,gain5,E,B,45,9,objects,outdoor_scenes,Stimuli/Experimental_stims/objects/leohoho-rngTKHXumy0-unsplash.jpg,Stimuli/Experimental_stims/outdoor_scenes/sergey-pesterev-y-b_FOmJXdg-unsplash.jpg,0,1,99,0,chosen,4400,1,5,1,50,50,45,9,objects,outdoor_scenes
166,34892,0,167,3,3,0,no_gain5,gain4,K,D,47,19,objects,faces,Stimuli/Experimental_stims/objects/ronaldo-arthur-vidal-Cdz_lvnl37k-unsplash.jpg,Stimuli/Experimental_stims/faces/joel-mott-LaK153ghdig-unsplash.jpg,0,1,88,0,unchosen,1200,0,5,1,50,50,47,19,objects,faces
167,34892,0,168,3,3,0,no_gain5,gain6,K,H,32,17,body_parts,faces,Stimuli/Experimental_stims/body_parts/towfiqu-barbhuiya-3AsiVDsZnHg-unsplash.jpg,Stimuli/Experimental_stims/faces/good-faces-xmSWVeGEnJw-unsplash.jpg,0,1,83,0,chosen,1100,0,5,1,50,50,32,17,body_parts,faces
168,34892,0,169,3,3,1,gain1,no_gain6,G,A,11,44,outdoor_scenes,objects,Stimuli/Experimental_stims/outdoor_scenes/stephen-leonardi-gyIRjKPXupE-unsplash.jpg,Stimuli/Experimental_stims/objects/kuiye-chen-NuOGFo4PudE-unsplash.jpg,0,1,76,1,unchosen,1700,0,5,1,50,50,11,44,outdoor_scenes,objects
169,34892,0,170,3,3,1,gain2,no_gain2,I,C,35,10,body_parts,outdoor_scenes,Stimuli/Experimental_stims/body_parts/wc-so-KH4AAPjb-tI-unsplash.jpg,Stimuli/Experimental_stims/outdoor_scenes/shannon-kunkle-dM8INmkyDas-unsplash.jpg,0,1,88,1,chosen,1100,0,5,1,50,50,35,10,body_parts,outdoor_scenes
170,34892,0,171,3,3,0,no_gain2,gain4,C,D,26,19,body_parts,faces,Stimuli/Experimental_stims/body_parts/engin-akyurt-x_3gyC42btc-unsplash.jpg,Stimuli/Experimental_stims/faces/joel-mott-LaK153ghdig-unsplash.jpg,0,1,93,0,unchosen,3300,1,5,1,50,50,26,19,body_parts,faces
171,34892,0,172,3,3,0,no_gain3,gain2,F,I,18,35,faces,body_parts,Stimuli/Experimental_stims/faces/jessica-radanavong-mrYkTuAesKE-unsplash.jpg,Stimuli/Experimental_stims/body_parts/wc-so-KH4AAPjb-tI-unsplash.jpg,0,1,108,0,chosen,2800,0,5,1,50,50,18,35,faces,body_parts
172,34892,0,173,3,3,0,no_gain4,gain2,E,I,45,35,objects,body_parts,Stimuli/Experimental_stims/objects/leohoho-rngTKHXumy0-unsplash.jpg,Stimuli/Experimental_stims/body_parts/wc-so-KH4AAPjb-tI-unsplash.jpg,0,1,97,0,chosen,1000,0,5,1,50,50,45,35,objects,body_parts
173,34892,0,174,3,3,0,no_gain1,gain6,J,H,43,6,objects,outdoor_scenes,Stimuli/Experimental_stims/objects/jonathan-greenaway-Y4hGgeiFn3s-unsplash.jpg,Stimuli/Experimental_stims/outdoor_scenes/meng-ji-8BH_M-53CyA-unsplash.jpg,0,1,84,0,unchosen,3100,0,5,1,50,50,43,6,objects,outdoor_scenes
174,34892,0,175,3,3,1,gain4,no_gain1,D,J,41,15,objects,faces,Stimuli/Experimental_stims/objects/insung-yoon-w2JtIQQXoRU-unsplash.jpg,Stimuli/Experimental_stims/faces/erik-lucatero-d2MSDujJl2g-unsplash.jpg,0,1,91,1,chosen,2000,0,5,1,50,50,41,15,objects,faces
175,34892,0,176,3,3,0,no_gain6,gain6,A,H,44,6,objects,outdoor_scenes,Stimuli/Experimental_stims/objects/kuiye-chen-NuOGFo4PudE-unsplash.jpg,Stimuli/Experimental_stims/outdoor_scenes/meng-ji-8BH_M-53CyA-unsplash.jpg,0,1,81,0,unchosen,2300,0,5,1,50,50,44,6,objects,outdoor_scenes
176,34892,0,177,3,3,0,no_gain2,gain5,C,B,10,9,outdoor_scenes,outdoor_scenes,Stimuli/Experimental_stims/outdoor_scenes/shannon-kunkle-dM8INmkyDas-unsplash.jpg,Stimuli/Experimental_stims/outdoor_scenes/sergey-pesterev-y-b_FOmJXdg-unsplash.jpg,0,1,62,0,chosen,1500,0,5,1,50,50,10,9,outdoor_scenes,outdoor_scenes
177,34892,0,178,3,3,0,no_gain5,gain2,K,I,47,3,objects,outdoor_scenes,Stimuli/Experimental_stims/objects/ronaldo-arthur-vidal-Cdz_lvnl37k-unsplash.jpg,Stimuli/Experimental_stims/outdoor_scenes/henry-be-NLF6hTe4PAg-unsplash.jpg,0,1,61,0,unchosen,1600,0,5,1,50,50,47,3,objects,outdoor_scenes
178,34892,0,179,3,3,1,gain6,no_gain1,H,J,17,15,faces,faces,Stimuli/Experimental_stims/faces/good-faces-xmSWVeGEnJw-unsplash.jpg,Stimuli/Experimental_stims/faces/erik-lucatero-d2MSDujJl2g-unsplash.jpg,0,1,71,1,chosen,4200,1,5,1,50,50,17,15,faces,faces
179,34892,0,180,3,3,0,no_gain5,gain4,K,D,32,41,body_parts,objects,Stimuli/Experimental_stims/body_parts/towfiqu-barbhuiya-3AsiVDsZnHg-unsplash.jpg,Stimuli/Experimental_stims/objects/insung-yoon-w2JtIQQXoRU-unsplash.jpg,0,1,67,0,chosen,1000,0,5,1,50,50,32,41,body_parts,objects
180,34892,0,181,3,3,0,no_gain6,gain3,A,L,1,30,outdoor_scenes,body_parts,Stimuli/Experimental_stims/outdoor_scenes/ashim-d-silva-S2Q5mdOrrVc-unsplash.jpg,Stimuli/Experimental_stims/body_parts/mika-korhonen-Xodzxosar18-unsplash.jpg,0,1,70,0,chosen,2000,0,5,1,50,50,1,30,outdoor_scenes,body_parts
181,34892,0,182,3,3,1,gain4,no_gain3,D,F,19,25,faces,body_parts,Stimuli/Experimental_stims/faces/joel-mott-LaK153ghdig-unsplash.jpg,Stimuli/Experimental_stims/body_parts/engin-akyurt-Q2rfH3GW39c-unsplash.jpg,0,1,77,1,unchosen,1700,0,5,1,50,50,19,25,faces,body_parts
182,34892,0,183,3,3,1,gain2,no_gain6,I,A,3,44,outdoor_scenes,objects,Stimuli/Experimental_stims/outdoor_scenes/henry-be-NLF6hTe4PAg-unsplash.jpg,Stimuli/Experimental_stims/objects/kuiye-chen-NuOGFo4PudE-unsplash.jpg,0,1,72,1,unchosen,2300,0,5,1,50,50,3,44,outdoor_scenes,objects
183,34892,0,184,3,3,1,gain4,no_gain4,D,E,19,33,faces,body_parts,Stimuli/Experimental_stims/faces/joel-mott-LaK153ghdig-unsplash.jpg,Stimuli/Experimental_stims/body_parts/tucker-good-36skLT5jZcc-unsplash.jpg,0,1,69,1,unchosen,3300,1,5,1,50,50,19,33,faces,body_parts
184,34892,0,185,3,3,0,no_gain1,gain2,J,I,15,35,faces,body_parts,Stimuli/Experimental_stims/faces/erik-lucatero-d2MSDujJl2g-unsplash.jpg,Stimuli/Experimental_stims/body_parts/wc-so-KH4AAPjb-tI-unsplash.jpg,0,1,84,0,chosen,1100,0,5,1,50,50,15,35,faces,body_parts
185,34892,0,186,3,3,0,no_gain4,gain6,E,H,45,17,objects,faces,Stimuli/Experimental_stims/objects/leohoho-rngTKHXumy0-unsplash.jpg,Stimuli/Experimental_stims/faces/good-faces-xmSWVeGEnJw-unsplash.jpg,0,1,85,0,chosen,1900,0,5,1,50,50,45,17,objects,faces
186,34892,0,187,3,3,1,gain3,no_gain5,L,K,30,32,body_parts,body_parts,Stimuli/Experimental_stims/body_parts/mika-korhonen-Xodzxosar18-unsplash.jpg,Stimuli/Experimental_stims/body_parts/towfiqu-barbhuiya-3AsiVDsZnHg-unsplash.jpg,0,1,88,1,chosen,2400,0,5,1,50,50,30,32,body_parts,body_parts
187,34892,0,188,3,3,0,no_gain2,gain6,C,H,26,6,body_parts,outdoor_scenes,Stimuli/Experimental_stims/body_parts/engin-akyurt-x_3gyC42btc-unsplash.jpg,Stimuli/Experimental_stims/outdoor_scenes/meng-ji-8BH_M-53CyA-unsplash.jpg,0,1,70,0,unchosen,1900,0,5,1,50,50,26,6,body_parts,outdoor_scenes
188,34892,0,189,3,3,0,no_gain1,gain1,J,G,43,11,objects,outdoor_scenes,Stimuli/Experimental_stims/objects/jonathan-greenaway-Y4hGgeiFn3s-unsplash.jpg,Stimuli/Experimental_stims/outdoor_scenes/stephen-leonardi-gyIRjKPXupE-unsplash.jpg,0,1,72,0,unchosen,3300,1,5,1,50,50,43,11,objects,outdoor_scenes
189,34892,0,190,3,3,0,no_gain3,gain5,F,B,25,14,body_parts,faces,Stimuli/Experimental_stims/body_parts/engin-akyurt-Q2rfH3GW39c-unsplash.jpg,Stimuli/Experimental_stims/faces/david-siglin-UuW4psOb388-unsplash.jpg,0,1,76,0,unchosen,1200,0,5,1,50,50,25,14,body_parts,faces
190,34892,0,191,3,3,1,gain1,no_gain1,G,J,36,15,objects,faces,Stimuli/Experimental_stims/objects/alexander-andrews-JYGnB9gTCls-unsplash.jpg,Stimuli/Experimental_stims/faces/erik-lucatero-d2MSDujJl2g-unsplash.jpg,0,1,95,1,chosen,1100,0,5,1,50,50,36,15,objects,faces
191,34892,0,192,3,3,0,no_gain4,gain5,E,B,33,14,body_parts,faces,Stimuli/Experimental_stims/body_parts/tucker-good-36skLT5jZcc-unsplash.jpg,Stimuli/Experimental_stims/faces/david-siglin-UuW4psOb388-unsplash.jpg,1,NaN,,NaN,unchosen,1400,0,5,1,50,50,NaN,NaN,NaN,NaN
192,34892,0,193,3,3,1,gain3,no_gain1,L,J,23,43,faces,objects,Stimuli/Experimental_stims/faces/rikonavt-HQjfrvdTfak-unsplash.jpg,Stimuli/Experimental_stims/objects/jonathan-greenaway-Y4hGgeiFn3s-unsplash.jpg,1,NaN,,NaN,unchosen,2600,0,5,1,50,50,NaN,NaN,NaN,NaN
193,34892,0,194,3,3,1,gain6,no_gain4,H,E,6,33,outdoor_scenes,body_parts,Stimuli/Experimental_stims/outdoor_scenes/meng-ji-8BH_M-53CyA-unsplash.jpg,Stimuli/Experimental_stims/body_parts/tucker-good-36skLT5jZcc-unsplash.jpg,0,1,68,1,unchosen,1100,0,5,1,50,50,6,33,outdoor_scenes,body_parts
194,34892,0,195,3,3,1,gain1,no_gain3,G,F,36,18,objects,faces,Stimuli/Experimental_stims/objects/alexander-andrews-JYGnB9gTCls-unsplash.jpg,Stimuli/Experimental_stims/faces/jessica-radanavong-mrYkTuAesKE-unsplash.jpg,0,1,96,1,chosen,4100,1,5,1,50,50,36,18,objects,faces
195,34892,0,196,3,3,1,gain6,no_gain3,H,F,6,25,outdoor_scenes,body_parts,Stimuli/Experimental_stims/outdoor_scenes/meng-ji-8BH_M-53CyA-unsplash.jpg,Stimuli/Experimental_stims/body_parts/engin-akyurt-Q2rfH3GW39c-unsplash.jpg,0,1,99,1,unchosen,1000,0,5,1,50,50,6,25,outdoor_scenes,body_parts
196,34892,0,197,3,3,0,no_gain3,gain4,F,D,18,41,faces,objects,Stimuli/Experimental_stims/faces/jessica-radanavong-mrYkTuAesKE-unsplash.jpg,Stimuli/Experimental_stims/objects/insung-yoon-w2JtIQQXoRU-unsplash.jpg,0,1,99,0,chosen,1800,0,5,1,50,50,18,41,faces,objects
197,34892,0,198,3,3,1,gain1,no_gain3,G,F,11,25,outdoor_scenes,body_parts,Stimuli/Experimental_stims/outdoor_scenes/stephen-leonardi-gyIRjKPXupE-unsplash.jpg,Stimuli/Experimental_stims/body_parts/engin-akyurt-Q2rfH3GW39c-unsplash.jpg,0,1,89,1,unchosen,1600,0,5,1,50,50,11,25,outdoor_scenes,body_parts
198,34892,0,199,3,3,1,gain4,no_gain6,D,A,19,44,faces,objects,Stimuli/Experimental_stims/faces/joel-mott-LaK153ghdig-unsplash.jpg,Stimuli/Experimental_stims/objects/kuiye-chen-NuOGFo4PudE-unsplash.jpg,0,1,83,1,unchosen,2100,0,5,1,50,50,19,44,faces,objects
199,34892,0,200,3,3,1,gain2,no_gain4,I,E,3,33,outdoor_scenes,body_parts,Stimuli/Experimental_stims/outdoor_scenes/henry-be-NLF6hTe4PAg-unsplash.jpg,Stimuli/Experimental_stims/body_parts/tucker-good-36skLT5jZcc-unsplash.jpg,1,NaN,,NaN,unchosen,1700,0,5,1,50,50,NaN,NaN,NaN,NaN
200,34892,0,201,3,3,1,gain5,no_gain3,B,F,9,18,outdoor_scenes,faces,Stimuli/Experimental_stims/outdoor_scenes/sergey-pesterev-y-b_FOmJXdg-unsplash.jpg,Stimuli/Experimental_stims/faces/jessica-radanavong-mrYkTuAesKE-unsplash.jpg,0,1,0,1,chosen,3200,1,5,1,50,50,9,18,outdoor_scenes,faces
201,34892,0,202,3,3,0,no_gain6,gain4,A,D,1,41,outdoor_scenes,objects,Stimuli/Experimental_stims/outdoor_scenes/ashim-d-silva-S2Q5mdOrrVc-unsplash.jpg,Stimuli/Experimental_stims/objects/insung-yoon-w2JtIQQXoRU-unsplash.jpg,0,1,101,0,chosen,1100,0,5,1,50,50,1,41,outdoor_scenes,objects
202,34892,0,203,3,3,1,gain2,no_gain2,I,C,3,26,outdoor_scenes,body_parts,Stimuli/Experimental_stims/outdoor_scenes/henry-be-NLF6hTe4PAg-unsplash.jpg,Stimuli/Experimental_stims/body_parts/engin-akyurt-x_3gyC42btc-unsplash.jpg,1,NaN,,NaN,unchosen,2800,0,5,1,50,50,NaN,NaN,NaN,NaN
203,34892,0,204,3,3,1,gain2,no_gain5,I,K,35,32,body_parts,body_parts,Stimuli/Experimental_stims/body_parts/wc-so-KH4AAPjb-tI-unsplash.jpg,Stimuli/Experimental_stims/body_parts/towfiqu-barbhuiya-3AsiVDsZnHg-unsplash.jpg,0,1,6,1,chosen,1400,0,5,1,50,50,35,32,body_parts,body_parts
204,34892,0,205,3,3,1,gain1,no_gain2,G,C,36,10,objects,outdoor_scenes,Stimuli/Experimental_stims/objects/alexander-andrews-JYGnB9gTCls-unsplash.jpg,Stimuli/Experimental_stims/outdoor_scenes/shannon-kunkle-dM8INmkyDas-unsplash.jpg,1,NaN,,NaN,chosen,2200,0,5,1,50,50,NaN,NaN,NaN,NaN
205,34892,0,206,3,3,1,gain3,no_gain3,L,F,23,25,faces,body_parts,Stimuli/Experimental_stims/faces/rikonavt-HQjfrvdTfak-unsplash.jpg,Stimuli/Experimental_stims/body_parts/engin-akyurt-Q2rfH3GW39c-unsplash.jpg,0,1,19,1,unchosen,1200,0,5,1,50,50,23,25,faces,body_parts
206,34892,0,207,3,3,0,no_gain6,gain5,A,B,1,9,outdoor_scenes,outdoor_scenes,Stimuli/Experimental_stims/outdoor_scenes/ashim-d-silva-S2Q5mdOrrVc-unsplash.jpg,Stimuli/Experimental_stims/outdoor_scenes/sergey-pesterev-y-b_FOmJXdg-unsplash.jpg,0,1,83,0,chosen,2100,0,5,1,50,50,1,9,outdoor_scenes,outdoor_scenes
207,34892,0,208,3,3,1,gain1,no_gain5,G,K,36,32,objects,body_parts,Stimuli/Experimental_stims/objects/alexander-andrews-JYGnB9gTCls-unsplash.jpg,Stimuli/Experimental_stims/body_parts/towfiqu-barbhuiya-3AsiVDsZnHg-unsplash.jpg,0,1,93,1,chosen,2600,0,5,1,50,50,36,32,objects,body_parts
208,34892,0,209,3,3,0,no_gain2,gain3,C,L,26,23,body_parts,faces,Stimuli/Experimental_stims/body_parts/engin-akyurt-x_3gyC42btc-unsplash.jpg,Stimuli/Experimental_stims/faces/rikonavt-HQjfrvdTfak-unsplash.jpg,0,1,96,0,unchosen,3800,1,5,1,50,50,26,23,body_parts,faces
209,34892,0,210,3,3,0,no_gain6,gain1,A,G,1,36,outdoor_scenes,objects,Stimuli/Experimental_stims/outdoor_scenes/ashim-d-silva-S2Q5mdOrrVc-unsplash.jpg,Stimuli/Experimental_stims/objects/alexander-andrews-JYGnB9gTCls-unsplash.jpg,0,1,81,0,chosen,2300,0,5,1,50,50,1,36,outdoor_scenes,objects
210,34892,0,211,3,3,1,gain3,no_gain2,L,C,30,10,body_parts,outdoor_scenes,Stimuli/Experimental_stims/body_parts/mika-korhonen-Xodzxosar18-unsplash.jpg,Stimuli/Experimental_stims/outdoor_scenes/shannon-kunkle-dM8INmkyDas-unsplash.jpg,0,1,86,1,chosen,1500,0,5,1,50,50,30,10,body_parts,outdoor_scenes
211,34892,0,212,3,3,0,no_gain3,gain2,F,I,25,3,body_parts,outdoor_scenes,Stimuli/Experimental_stims/body_parts/engin-akyurt-Q2rfH3GW39c-unsplash.jpg,Stimuli/Experimental_stims/outdoor_scenes/henry-be-NLF6hTe4PAg-unsplash.jpg,0,1,84,0,unchosen,1700,0,5,1,50,50,25,3,body_parts,outdoor_scenes
212,34892,0,213,3,3,1,gain5,no_gain5,B,K,14,47,faces,objects,Stimuli/Experimental_stims/faces/david-siglin-UuW4psOb388-unsplash.jpg,Stimuli/Experimental_stims/objects/ronaldo-arthur-vidal-Cdz_lvnl37k-unsplash.jpg,0,1,99,1,unchosen,1000,0,5,1,50,50,14,47,faces,objects
213,34892,0,214,3,3,1,gain6,no_gain5,H,K,6,47,outdoor_scenes,objects,Stimuli/Experimental_stims/outdoor_scenes/meng-ji-8BH_M-53CyA-unsplash.jpg,Stimuli/Experimental_stims/objects/ronaldo-arthur-vidal-Cdz_lvnl37k-unsplash.jpg,0,1,90,1,unchosen,2800,0,5,1,50,50,6,47,outdoor_scenes,objects
214,34892,0,215,3,3,0,no_gain1,gain5,J,B,15,9,faces,outdoor_scenes,Stimuli/Experimental_stims/faces/erik-lucatero-d2MSDujJl2g-unsplash.jpg,Stimuli/Experimental_stims/outdoor_scenes/sergey-pesterev-y-b_FOmJXdg-unsplash.jpg,0,1,75,0,chosen,2400,0,5,1,50,50,15,9,faces,outdoor_scenes
215,34892,0,216,3,3,0,no_gain1,gain5,J,B,43,14,objects,faces,Stimuli/Experimental_stims/objects/jonathan-greenaway-Y4hGgeiFn3s-unsplash.jpg,Stimuli/Experimental_stims/faces/david-siglin-UuW4psOb388-unsplash.jpg,0,1,96,0,unchosen,3800,1,5,1,50,50,43,14,objects,faces
216,34892,0,217,3,3,0,no_gain5,gain3,K,L,47,23,objects,faces,Stimuli/Experimental_stims/objects/ronaldo-arthur-vidal-Cdz_lvnl37k-unsplash.jpg,Stimuli/Experimental_stims/faces/rikonavt-HQjfrvdTfak-unsplash.jpg,0,1,82,0,unchosen,1500,0,5,1,50,50,47,23,objects,faces
217,34892,0,218,3,3,0,no_gain5,gain1,K,G,47,11,objects,outdoor_scenes,Stimuli/Experimental_stims/objects/ronaldo-arthur-vidal-Cdz_lvnl37k-unsplash.jpg,Stimuli/Experimental_stims/outdoor_scenes/stephen-leonardi-gyIRjKPXupE-unsplash.jpg,0,1,100,0,unchosen,1100,0,5,1,50,50,47,11,objects,outdoor_scenes
218,34892,0,219,3,3,1,gain4,no_gain2,D,C,41,10,objects,outdoor_scenes,Stimuli/Experimental_stims/objects/insung-yoon-w2JtIQQXoRU-unsplash.jpg,Stimuli/Experimental_stims/outdoor_scenes/shannon-kunkle-dM8INmkyDas-unsplash.jpg,1,NaN,,NaN,chosen,1500,0,5,1,50,50,NaN,NaN,NaN,NaN
219,34892,0,220,3,3,0,no_gain2,gain6,C,H,10,17,outdoor_scenes,faces,Stimuli/Experimental_stims/outdoor_scenes/shannon-kunkle-dM8INmkyDas-unsplash.jpg,Stimuli/Experimental_stims/faces/good-faces-xmSWVeGEnJw-unsplash.jpg,1,NaN,,NaN,chosen,2500,0,5,1,50,50,NaN,NaN,NaN,NaN
220,34892,0,221,4,4,0,no_gain5,gain1,K,G,47,11,objects,outdoor_scenes,Stimuli/Experimental_stims/objects/ronaldo-arthur-vidal-Cdz_lvnl37k-unsplash.jpg,Stimuli/Experimental_stims/outdoor_scenes/stephen-leonardi-gyIRjKPXupE-unsplash.jpg,1,NaN,,NaN,unchosen,3400,1,3,1,50,50,NaN,NaN,NaN,NaN
221,34892,0,222,4,4,0,no_gain5,gain4,K,D,32,41,body_parts,objects,Stimuli/Experimental_stims/body_parts/towfiqu-barbhuiya-3AsiVDsZnHg-unsplash.jpg,Stimuli/Experimental_stims/objects/insung-yoon-w2JtIQQXoRU-unsplash.jpg,1,NaN,,NaN,chosen,1500,0,3,1,50,50,NaN,NaN,NaN,NaN
222,34892,0,223,4,4,0,no_gain2,gain3,C,L,26,23,body_parts,faces,Stimuli/Experimental_stims/body_parts/engin-akyurt-x_3gyC42btc-unsplash.jpg,Stimuli/Experimental_stims/faces/rikonavt-HQjfrvdTfak-unsplash.jpg,1,NaN,,NaN,unchosen,2000,0,3,1,50,50,NaN,NaN,NaN,NaN
223,34892,0,224,4,4,0,no_gain4,gain3,E,L,33,23,body_parts,faces,Stimuli/Experimental_stims/body_parts/tucker-good-36skLT5jZcc-unsplash.jpg,Stimuli/Experimental_stims/faces/rikonavt-HQjfrvdTfak-unsplash.jpg,1,NaN,,NaN,unchosen,1100,0,3,1,50,50,NaN,NaN,NaN,NaN
224,34892,0,225,4,4,0,no_gain1,gain6,J,H,43,6,objects,outdoor_scenes,Stimuli/Experimental_stims/objects/jonathan-greenaway-Y4hGgeiFn3s-unsplash.jpg,Stimuli/Experimental_stims/outdoor_scenes/meng-ji-8BH_M-53CyA-unsplash.jpg,0,1,8,0,unchosen,2700,0,3,1,50,50,43,6,objects,outdoor_scenes
225,34892,0,226,4,4,0,no_gain4,gain2,E,I,45,35,objects,body_parts,Stimuli/Experimental_stims/objects/leohoho-rngTKHXumy0-unsplash.jpg,Stimuli/Experimental_stims/body_parts/wc-so-KH4AAPjb-tI-unsplash.jpg,0,1,71,0,chosen,1700,0,3,1,50,50,45,35,objects,body_parts
226,34892,0,227,4,4,0,no_gain1,gain1,J,G,15,36,faces,objects,Stimuli/Experimental_stims/faces/erik-lucatero-d2MSDujJl2g-unsplash.jpg,Stimuli/Experimental_stims/objects/alexander-andrews-JYGnB9gTCls-unsplash.jpg,0,1,82,0,chosen,3500,1,3,1,50,50,15,36,faces,objects
227,34892,0,228,4,4,0,no_gain3,gain3,F,L,25,23,body_parts,faces,Stimuli/Experimental_stims/body_parts/engin-akyurt-Q2rfH3GW39c-unsplash.jpg,Stimuli/Experimental_stims/faces/rikonavt-HQjfrvdTfak-unsplash.jpg,0,1,59,0,unchosen,2700,0,3,1,50,50,25,23,body_parts,faces
228,34892,0,229,4,4,1,gain4,no_gain5,D,K,19,47,faces,objects,Stimuli/Experimental_stims/faces/joel-mott-LaK153ghdig-unsplash.jpg,Stimuli/Experimental_stims/objects/ronaldo-arthur-vidal-Cdz_lvnl37k-unsplash.jpg,0,1,85,1,unchosen,1500,0,3,1,50,50,19,47,faces,objects
229,34892,0,230,4,4,0,no_gain6,gain1,A,G,1,36,outdoor_scenes,objects,Stimuli/Experimental_stims/outdoor_scenes/ashim-d-silva-S2Q5mdOrrVc-unsplash.jpg,Stimuli/Experimental_stims/objects/alexander-andrews-JYGnB9gTCls-unsplash.jpg,0,1,78,0,chosen,1700,0,3,1,50,50,1,36,outdoor_scenes,objects
230,34892,0,231,4,4,0,no_gain1,gain2,J,I,43,3,objects,outdoor_scenes,Stimuli/Experimental_stims/objects/jonathan-greenaway-Y4hGgeiFn3s-unsplash.jpg,Stimuli/Experimental_stims/outdoor_scenes/henry-be-NLF6hTe4PAg-unsplash.jpg,0,1,81,0,unchosen,2300,0,3,1,50,50,43,3,objects,outdoor_scenes
231,34892,0,232,4,4,0,no_gain4,gain6,E,H,45,17,objects,faces,Stimuli/Experimental_stims/objects/leohoho-rngTKHXumy0-unsplash.jpg,Stimuli/Experimental_stims/faces/good-faces-xmSWVeGEnJw-unsplash.jpg,0,1,73,0,chosen,3100,1,3,1,50,50,45,17,objects,faces
232,34892,0,233,4,4,1,gain5,no_gain3,B,F,9,18,outdoor_scenes,faces,Stimuli/Experimental_stims/outdoor_scenes/sergey-pesterev-y-b_FOmJXdg-unsplash.jpg,Stimuli/Experimental_stims/faces/jessica-radanavong-mrYkTuAesKE-unsplash.jpg,0,1,72,1,chosen,1300,0,3,1,50,50,9,18,outdoor_scenes,faces
233,34892,0,234,4,4,1,gain1,no_gain3,G,F,36,18,objects,faces,Stimuli/Experimental_stims/objects/alexander-andrews-JYGnB9gTCls-unsplash.jpg,Stimuli/Experimental_stims/faces/jessica-radanavong-mrYkTuAesKE-unsplash.jpg,1,NaN,,NaN,chosen,1400,0,3,1,50,50,NaN,NaN,NaN,NaN
234,34892,0,235,4,4,1,gain2,no_gain4,I,E,3,33,outdoor_scenes,body_parts,Stimuli/Experimental_stims/outdoor_scenes/henry-be-NLF6hTe4PAg-unsplash.jpg,Stimuli/Experimental_stims/body_parts/tucker-good-36skLT5jZcc-unsplash.jpg,1,NaN,,NaN,unchosen,2500,0,3,1,50,50,NaN,NaN,NaN,NaN
235,34892,0,236,4,4,1,gain2,no_gain5,I,K,3,47,outdoor_scenes,objects,Stimuli/Experimental_stims/outdoor_scenes/henry-be-NLF6hTe4PAg-unsplash.jpg,Stimuli/Experimental_stims/objects/ronaldo-arthur-vidal-Cdz_lvnl37k-unsplash.jpg,1,NaN,,NaN,unchosen,1500,0,3,1,50,50,NaN,NaN,NaN,NaN
236,34892,0,237,4,4,1,gain4,no_gain1,D,J,19,43,faces,objects,Stimuli/Experimental_stims/faces/joel-mott-LaK153ghdig-unsplash.jpg,Stimuli/Experimental_stims/objects/jonathan-greenaway-Y4hGgeiFn3s-unsplash.jpg,0,1,18,1,unchosen,1900,0,3,1,50,50,19,43,faces,objects
237,34892,0,238,4,4,1,gain6,no_gain3,H,F,17,18,faces,faces,Stimuli/Experimental_stims/faces/good-faces-xmSWVeGEnJw-unsplash.jpg,Stimuli/Experimental_stims/faces/jessica-radanavong-mrYkTuAesKE-unsplash.jpg,0,1,69,1,chosen,1200,0,3,1,50,50,17,18,faces,faces
238,34892,0,239,4,4,1,gain2,no_gain5,I,K,35,32,body_parts,body_parts,Stimuli/Experimental_stims/body_parts/wc-so-KH4AAPjb-tI-unsplash.jpg,Stimuli/Experimental_stims/body_parts/towfiqu-barbhuiya-3AsiVDsZnHg-unsplash.jpg,0,1,68,1,chosen,3500,1,3,1,50,50,35,32,body_parts,body_parts
239,34892,0,240,4,4,0,no_gain2,gain6,C,H,26,6,body_parts,outdoor_scenes,Stimuli/Experimental_stims/body_parts/engin-akyurt-x_3gyC42btc-unsplash.jpg,Stimuli/Experimental_stims/outdoor_scenes/meng-ji-8BH_M-53CyA-unsplash.jpg,0,1,53,0,unchosen,1500,0,3,1,50,50,26,6,body_parts,outdoor_scenes
240,34892,0,241,4,4,1,gain5,no_gain6,B,A,9,1,outdoor_scenes,outdoor_scenes,Stimuli/Experimental_stims/outdoor_scenes/sergey-pesterev-y-b_FOmJXdg-unsplash.jpg,Stimuli/Experimental_stims/outdoor_scenes/ashim-d-silva-S2Q5mdOrrVc-unsplash.jpg,0,1,57,1,chosen,2200,0,3,1,50,50,9,1,outdoor_scenes,outdoor_scenes
241,34892,0,242,4,4,1,gain6,no_gain2,H,C,17,10,faces,outdoor_scenes,Stimuli/Experimental_stims/faces/good-faces-xmSWVeGEnJw-unsplash.jpg,Stimuli/Experimental_stims/outdoor_scenes/shannon-kunkle-dM8INmkyDas-unsplash.jpg,0,1,67,1,chosen,1100,0,3,1,50,50,17,10,faces,outdoor_scenes
242,34892,0,243,4,4,0,no_gain3,gain2,F,I,18,35,faces,body_parts,Stimuli/Experimental_stims/faces/jessica-radanavong-mrYkTuAesKE-unsplash.jpg,Stimuli/Experimental_stims/body_parts/wc-so-KH4AAPjb-tI-unsplash.jpg,0,1,61,0,chosen,1300,0,3,1,50,50,18,35,faces,body_parts
243,34892,0,244,4,4,0,no_gain3,gain5,F,B,25,14,body_parts,faces,Stimuli/Experimental_stims/body_parts/engin-akyurt-Q2rfH3GW39c-unsplash.jpg,Stimuli/Experimental_stims/faces/david-siglin-UuW4psOb388-unsplash.jpg,0,1,70,0,unchosen,1500,0,3,1,50,50,25,14,body_parts,faces
244,34892,0,245,4,4,0,no_gain6,gain6,A,H,1,17,outdoor_scenes,faces,Stimuli/Experimental_stims/outdoor_scenes/ashim-d-silva-S2Q5mdOrrVc-unsplash.jpg,Stimuli/Experimental_stims/faces/good-faces-xmSWVeGEnJw-unsplash.jpg,0,1,75,0,chosen,1100,0,3,1,50,50,1,17,outdoor_scenes,faces
245,34892,0,246,4,4,1,gain3,no_gain6,L,A,30,1,body_parts,outdoor_scenes,Stimuli/Experimental_stims/body_parts/mika-korhonen-Xodzxosar18-unsplash.jpg,Stimuli/Experimental_stims/outdoor_scenes/ashim-d-silva-S2Q5mdOrrVc-unsplash.jpg,0,1,77,1,chosen,2000,0,3,1,50,50,30,1,body_parts,outdoor_scenes
246,34892,0,247,4,4,0,no_gain2,gain5,C,B,26,14,body_parts,faces,Stimuli/Experimental_stims/body_parts/engin-akyurt-x_3gyC42btc-unsplash.jpg,Stimuli/Experimental_stims/faces/david-siglin-UuW4psOb388-unsplash.jpg,0,1,77,0,unchosen,4700,1,3,1,50,50,26,14,body_parts,faces
247,34892,0,248,4,4,0,no_gain1,gain3,J,L,15,30,faces,body_parts,Stimuli/Experimental_stims/faces/erik-lucatero-d2MSDujJl2g-unsplash.jpg,Stimuli/Experimental_stims/body_parts/mika-korhonen-Xodzxosar18-unsplash.jpg,0,1,68,0,chosen,2400,0,3,1,50,50,15,30,faces,body_parts
248,34892,0,249,4,4,1,gain4,no_gain2,D,C,19,26,faces,body_parts,Stimuli/Experimental_stims/faces/joel-mott-LaK153ghdig-unsplash.jpg,Stimuli/Experimental_stims/body_parts/engin-akyurt-x_3gyC42btc-unsplash.jpg,0,1,72,1,unchosen,1100,0,3,1,50,50,19,26,faces,body_parts
249,34892,0,250,4,4,1,gain6,no_gain5,H,K,17,32,faces,body_parts,Stimuli/Experimental_stims/faces/good-faces-xmSWVeGEnJw-unsplash.jpg,Stimuli/Experimental_stims/body_parts/towfiqu-barbhuiya-3AsiVDsZnHg-unsplash.jpg,0,1,101,1,chosen,2400,0,3,1,50,50,17,32,faces,body_parts
250,34892,0,251,4,4,1,gain4,no_gain6,D,A,19,44,faces,objects,Stimuli/Experimental_stims/faces/joel-mott-LaK153ghdig-unsplash.jpg,Stimuli/Experimental_stims/objects/kuiye-chen-NuOGFo4PudE-unsplash.jpg,0,1,74,1,unchosen,1600,0,3,1,50,50,19,44,faces,objects
251,34892,0,252,4,4,0,no_gain1,gain1,J,G,43,11,objects,outdoor_scenes,Stimuli/Experimental_stims/objects/jonathan-greenaway-Y4hGgeiFn3s-unsplash.jpg,Stimuli/Experimental_stims/outdoor_scenes/stephen-leonardi-gyIRjKPXupE-unsplash.jpg,0,1,83,0,unchosen,2300,0,3,1,50,50,43,11,objects,outdoor_scenes
252,34892,0,253,4,4,0,no_gain3,gain4,F,D,18,41,faces,objects,Stimuli/Experimental_stims/faces/jessica-radanavong-mrYkTuAesKE-unsplash.jpg,Stimuli/Experimental_stims/objects/insung-yoon-w2JtIQQXoRU-unsplash.jpg,1,NaN,,NaN,chosen,2500,0,3,1,50,50,NaN,NaN,NaN,NaN
253,34892,0,254,4,4,1,gain3,no_gain5,L,K,30,32,body_parts,body_parts,Stimuli/Experimental_stims/body_parts/mika-korhonen-Xodzxosar18-unsplash.jpg,Stimuli/Experimental_stims/body_parts/towfiqu-barbhuiya-3AsiVDsZnHg-unsplash.jpg,1,NaN,,NaN,chosen,3700,1,3,1,50,50,NaN,NaN,NaN,NaN
254,34892,0,255,4,4,1,gain2,no_gain1,I,J,35,15,body_parts,faces,Stimuli/Experimental_stims/body_parts/wc-so-KH4AAPjb-tI-unsplash.jpg,Stimuli/Experimental_stims/faces/erik-lucatero-d2MSDujJl2g-unsplash.jpg,0,1,52,1,chosen,2100,0,3,1,50,50,35,15,body_parts,faces
255,34892,0,256,4,4,1,gain6,no_gain3,H,F,6,25,outdoor_scenes,body_parts,Stimuli/Experimental_stims/outdoor_scenes/meng-ji-8BH_M-53CyA-unsplash.jpg,Stimuli/Experimental_stims/body_parts/engin-akyurt-Q2rfH3GW39c-unsplash.jpg,0,1,30,1,unchosen,2300,0,3,1,50,50,6,25,outdoor_scenes,body_parts
256,34892,0,257,4,4,0,no_gain6,gain1,A,G,44,11,objects,outdoor_scenes,Stimuli/Experimental_stims/objects/kuiye-chen-NuOGFo4PudE-unsplash.jpg,Stimuli/Experimental_stims/outdoor_scenes/stephen-leonardi-gyIRjKPXupE-unsplash.jpg,0,1,33,0,unchosen,1700,0,3,1,50,50,44,11,objects,outdoor_scenes
257,34892,0,258,4,4,0,no_gain4,gain6,E,H,33,6,body_parts,outdoor_scenes,Stimuli/Experimental_stims/body_parts/tucker-good-36skLT5jZcc-unsplash.jpg,Stimuli/Experimental_stims/outdoor_scenes/meng-ji-8BH_M-53CyA-unsplash.jpg,0,1,31,0,unchosen,2900,0,3,1,50,50,33,6,body_parts,outdoor_scenes
258,34892,0,259,4,4,0,no_gain4,gain1,E,G,45,36,objects,objects,Stimuli/Experimental_stims/objects/leohoho-rngTKHXumy0-unsplash.jpg,Stimuli/Experimental_stims/objects/alexander-andrews-JYGnB9gTCls-unsplash.jpg,0,1,31,0,chosen,3000,1,3,1,50,50,45,36,objects,objects
259,34892,0,260,4,4,1,gain2,no_gain3,I,F,3,25,outdoor_scenes,body_parts,Stimuli/Experimental_stims/outdoor_scenes/henry-be-NLF6hTe4PAg-unsplash.jpg,Stimuli/Experimental_stims/body_parts/engin-akyurt-Q2rfH3GW39c-unsplash.jpg,0,1,29,1,unchosen,2600,0,3,1,50,50,3,25,outdoor_scenes,body_parts
260,34892,0,261,4,4,0,no_gain6,gain5,A,B,44,14,objects,faces,Stimuli/Experimental_stims/objects/kuiye-chen-NuOGFo4PudE-unsplash.jpg,Stimuli/Experimental_stims/faces/david-siglin-UuW4psOb388-unsplash.jpg,0,1,38,0,unchosen,1700,0,3,1,50,50,44,14,objects,faces
261,34892,0,262,4,4,0,no_gain3,gain1,F,G,25,11,body_parts,outdoor_scenes,Stimuli/Experimental_stims/body_parts/engin-akyurt-Q2rfH3GW39c-unsplash.jpg,Stimuli/Experimental_stims/outdoor_scenes/stephen-leonardi-gyIRjKPXupE-unsplash.jpg,0,1,20,0,unchosen,1800,0,3,1,50,50,25,11,body_parts,outdoor_scenes
262,34892,0,263,4,4,1,gain5,no_gain5,B,K,9,32,outdoor_scenes,body_parts,Stimuli/Experimental_stims/outdoor_scenes/sergey-pesterev-y-b_FOmJXdg-unsplash.jpg,Stimuli/Experimental_stims/body_parts/towfiqu-barbhuiya-3AsiVDsZnHg-unsplash.jpg,0,1,38,1,chosen,1400,0,3,1,50,50,9,32,outdoor_scenes,body_parts
263,34892,0,264,4,4,0,no_gain2,gain1,C,G,10,36,outdoor_scenes,objects,Stimuli/Experimental_stims/outdoor_scenes/shannon-kunkle-dM8INmkyDas-unsplash.jpg,Stimuli/Experimental_stims/objects/alexander-andrews-JYGnB9gTCls-unsplash.jpg,0,1,26,0,chosen,2200,0,3,1,50,50,10,36,outdoor_scenes,objects
264,34892,0,265,4,4,0,no_gain2,gain1,C,G,26,11,body_parts,outdoor_scenes,Stimuli/Experimental_stims/body_parts/engin-akyurt-x_3gyC42btc-unsplash.jpg,Stimuli/Experimental_stims/outdoor_scenes/stephen-leonardi-gyIRjKPXupE-unsplash.jpg,0,1,30,0,unchosen,3500,1,3,1,50,50,26,11,body_parts,outdoor_scenes
265,34892,0,266,4,4,1,gain3,no_gain3,L,F,30,18,body_parts,faces,Stimuli/Experimental_stims/body_parts/mika-korhonen-Xodzxosar18-unsplash.jpg,Stimuli/Experimental_stims/faces/jessica-radanavong-mrYkTuAesKE-unsplash.jpg,0,1,35,1,chosen,1400,0,3,1,50,50,30,18,body_parts,faces
266,34892,0,267,4,4,0,no_gain2,gain4,C,D,10,41,outdoor_scenes,objects,Stimuli/Experimental_stims/outdoor_scenes/shannon-kunkle-dM8INmkyDas-unsplash.jpg,Stimuli/Experimental_stims/objects/insung-yoon-w2JtIQQXoRU-unsplash.jpg,0,1,31,0,chosen,1100,0,3,1,50,50,10,41,outdoor_scenes,objects
267,34892,0,268,4,4,1,gain6,no_gain1,H,J,17,15,faces,faces,Stimuli/Experimental_stims/faces/good-faces-xmSWVeGEnJw-unsplash.jpg,Stimuli/Experimental_stims/faces/erik-lucatero-d2MSDujJl2g-unsplash.jpg,0,1,33,1,chosen,1300,0,3,1,50,50,17,15,faces,faces
268,34892,0,269,4,4,0,no_gain1,gain3,J,L,43,23,objects,faces,Stimuli/Experimental_stims/objects/jonathan-greenaway-Y4hGgeiFn3s-unsplash.jpg,Stimuli/Experimental_stims/faces/rikonavt-HQjfrvdTfak-unsplash.jpg,0,1,32,0,unchosen,2600,0,3,1,50,50,43,23,objects,faces
269,34892,0,270,4,4,0,no_gain4,gain4,E,D,45,41,objects,objects,Stimuli/Experimental_stims/objects/leohoho-rngTKHXumy0-unsplash.jpg,Stimuli/Experimental_stims/objects/insung-yoon-w2JtIQQXoRU-unsplash.jpg,0,1,34,0,chosen,1100,0,3,1,50,50,45,41,objects,objects
270,34892,0,271,4,4,1,gain1,no_gain4,G,E,11,33,outdoor_scenes,body_parts,Stimuli/Experimental_stims/outdoor_scenes/stephen-leonardi-gyIRjKPXupE-unsplash.jpg,Stimuli/Experimental_stims/body_parts/tucker-good-36skLT5jZcc-unsplash.jpg,0,1,37,1,unchosen,1400,0,3,1,50,50,11,33,outdoor_scenes,body_parts
271,34892,0,272,4,4,1,gain4,no_gain3,D,F,19,25,faces,body_parts,Stimuli/Experimental_stims/faces/joel-mott-LaK153ghdig-unsplash.jpg,Stimuli/Experimental_stims/body_parts/engin-akyurt-Q2rfH3GW39c-unsplash.jpg,0,1,45,1,unchosen,3200,1,3,1,50,50,19,25,faces,body_parts
272,34892,0,273,4,4,0,no_gain6,gain2,A,I,1,35,outdoor_scenes,body_parts,Stimuli/Experimental_stims/outdoor_scenes/ashim-d-silva-S2Q5mdOrrVc-unsplash.jpg,Stimuli/Experimental_stims/body_parts/wc-so-KH4AAPjb-tI-unsplash.jpg,0,1,37,0,chosen,1600,0,3,1,50,50,1,35,outdoor_scenes,body_parts
273,34892,0,274,4,4,0,no_gain2,gain5,C,B,10,9,outdoor_scenes,outdoor_scenes,Stimuli/Experimental_stims/outdoor_scenes/shannon-kunkle-dM8INmkyDas-unsplash.jpg,Stimuli/Experimental_stims/outdoor_scenes/sergey-pesterev-y-b_FOmJXdg-unsplash.jpg,0,1,29,0,chosen,1000,0,3,1,50,50,10,9,outdoor_scenes,outdoor_scenes
274,34892,0,275,4,4,1,gain1,no_gain5,G,K,36,32,objects,body_parts,Stimuli/Experimental_stims/objects/alexander-andrews-JYGnB9gTCls-unsplash.jpg,Stimuli/Experimental_stims/body_parts/towfiqu-barbhuiya-3AsiVDsZnHg-unsplash.jpg,0,1,33,1,chosen,1700,0,3,1,50,50,36,32,objects,body_parts
275,34892,0,276,4,4,1,gain4,no_gain4,D,E,19,33,faces,body_parts,Stimuli/Experimental_stims/faces/joel-mott-LaK153ghdig-unsplash.jpg,Stimuli/Experimental_stims/body_parts/tucker-good-36skLT5jZcc-unsplash.jpg,0,1,34,1,unchosen,1200,0,3,1,50,50,19,33,faces,body_parts
276,34892,0,277,4,4,1,gain3,no_gain5,L,K,23,47,faces,objects,Stimuli/Experimental_stims/faces/rikonavt-HQjfrvdTfak-unsplash.jpg,Stimuli/Experimental_stims/objects/ronaldo-arthur-vidal-Cdz_lvnl37k-unsplash.jpg,0,1,46,1,unchosen,2200,0,3,1,50,50,23,47,faces,objects
277,34892,0,278,4,4,0,no_gain5,gain6,K,H,47,6,objects,outdoor_scenes,Stimuli/Experimental_stims/objects/ronaldo-arthur-vidal-Cdz_lvnl37k-unsplash.jpg,Stimuli/Experimental_stims/outdoor_scenes/meng-ji-8BH_M-53CyA-unsplash.jpg,0,1,43,0,unchosen,2000,0,3,1,50,50,47,6,objects,outdoor_scenes
278,34892,0,279,4,4,1,gain3,no_gain4,L,E,30,45,body_parts,objects,Stimuli/Experimental_stims/body_parts/mika-korhonen-Xodzxosar18-unsplash.jpg,Stimuli/Experimental_stims/objects/leohoho-rngTKHXumy0-unsplash.jpg,0,1,34,1,chosen,3100,1,3,1,50,50,30,45,body_parts,objects
279,34892,0,280,4,4,1,gain5,no_gain5,B,K,14,47,faces,objects,Stimuli/Experimental_stims/faces/david-siglin-UuW4psOb388-unsplash.jpg,Stimuli/Experimental_stims/objects/ronaldo-arthur-vidal-Cdz_lvnl37k-unsplash.jpg,0,1,54,1,unchosen,2400,0,3,1,50,50,14,47,faces,objects
280,34892,0,281,4,4,1,gain4,no_gain1,D,J,41,15,objects,faces,Stimuli/Experimental_stims/objects/insung-yoon-w2JtIQQXoRU-unsplash.jpg,Stimuli/Experimental_stims/faces/erik-lucatero-d2MSDujJl2g-unsplash.jpg,0,1,24,1,chosen,1000,0,3,1,50,50,41,15,objects,faces
281,34892,0,282,4,4,0,no_gain1,gain5,J,B,15,9,faces,outdoor_scenes,Stimuli/Experimental_stims/faces/erik-lucatero-d2MSDujJl2g-unsplash.jpg,Stimuli/Experimental_stims/outdoor_scenes/sergey-pesterev-y-b_FOmJXdg-unsplash.jpg,0,1,18,0,chosen,1900,0,3,1,50,50,15,9,faces,outdoor_scenes
282,34892,0,283,4,4,0,no_gain4,gain5,E,B,33,14,body_parts,faces,Stimuli/Experimental_stims/body_parts/tucker-good-36skLT5jZcc-unsplash.jpg,Stimuli/Experimental_stims/faces/david-siglin-UuW4psOb388-unsplash.jpg,0,1,50,0,unchosen,2400,0,3,1,50,50,33,14,body_parts,faces
283,34892,0,284,4,4,1,gain2,no_gain2,I,C,35,10,body_parts,outdoor_scenes,Stimuli/Experimental_stims/body_parts/wc-so-KH4AAPjb-tI-unsplash.jpg,Stimuli/Experimental_stims/outdoor_scenes/shannon-kunkle-dM8INmkyDas-unsplash.jpg,0,1,32,1,chosen,1300,0,3,1,50,50,35,10,body_parts,outdoor_scenes
284,34892,0,285,4,4,0,no_gain4,gain5,E,B,45,9,objects,outdoor_scenes,Stimuli/Experimental_stims/objects/leohoho-rngTKHXumy0-unsplash.jpg,Stimuli/Experimental_stims/outdoor_scenes/sergey-pesterev-y-b_FOmJXdg-unsplash.jpg,0,1,29,0,chosen,1600,0,3,1,50,50,45,9,objects,outdoor_scenes
285,34892,0,286,4,4,1,gain6,no_gain6,H,A,6,44,outdoor_scenes,objects,Stimuli/Experimental_stims/outdoor_scenes/meng-ji-8BH_M-53CyA-unsplash.jpg,Stimuli/Experimental_stims/objects/kuiye-chen-NuOGFo4PudE-unsplash.jpg,0,1,18,1,unchosen,1000,0,3,1,50,50,6,44,outdoor_scenes,objects
286,34892,0,287,4,4,0,no_gain6,gain4,A,D,1,41,outdoor_scenes,objects,Stimuli/Experimental_stims/outdoor_scenes/ashim-d-silva-S2Q5mdOrrVc-unsplash.jpg,Stimuli/Experimental_stims/objects/insung-yoon-w2JtIQQXoRU-unsplash.jpg,1,NaN,,NaN,chosen,1500,0,3,1,50,50,NaN,NaN,NaN,NaN
287,34892,0,288,4,4,1,gain5,no_gain1,B,J,14,43,faces,objects,Stimuli/Experimental_stims/faces/david-siglin-UuW4psOb388-unsplash.jpg,Stimuli/Experimental_stims/objects/jonathan-greenaway-Y4hGgeiFn3s-unsplash.jpg,1,NaN,,NaN,unchosen,1900,0,3,1,50,50,NaN,NaN,NaN,NaN
288,34892,0,289,4,4,1,gain3,no_gain2,L,C,30,10,body_parts,outdoor_scenes,Stimuli/Experimental_stims/body_parts/mika-korhonen-Xodzxosar18-unsplash.jpg,Stimuli/Experimental_stims/outdoor_scenes/shannon-kunkle-dM8INmkyDas-unsplash.jpg,1,NaN,,NaN,chosen,1600,0,3,1,50,50,NaN,NaN,NaN,NaN
289,34892,0,290,4,4,1,gain3,no_gain6,L,A,23,44,faces,objects,Stimuli/Experimental_stims/faces/rikonavt-HQjfrvdTfak-unsplash.jpg,Stimuli/Experimental_stims/objects/kuiye-chen-NuOGFo4PudE-unsplash.jpg,1,NaN,,NaN,unchosen,1200,0,3,1,50,50,NaN,NaN,NaN,NaN
290,34892,0,291,4,4,1,gain2,no_gain2,I,C,3,26,outdoor_scenes,body_parts,Stimuli/Experimental_stims/outdoor_scenes/henry-be-NLF6hTe4PAg-unsplash.jpg,Stimuli/Experimental_stims/body_parts/engin-akyurt-x_3gyC42btc-unsplash.jpg,1,NaN,,NaN,unchosen,1000,0,3,1,50,50,NaN,NaN,NaN,NaN
291,34892,0,292,4,4,1,gain2,no_gain6,I,A,3,44,outdoor_scenes,objects,Stimuli/Experimental_stims/outdoor_scenes/henry-be-NLF6hTe4PAg-unsplash.jpg,Stimuli/Experimental_stims/objects/kuiye-chen-NuOGFo4PudE-unsplash.jpg,1,NaN,,NaN,unchosen,3200,1,3,1,50,50,NaN,NaN,NaN,NaN