,PID,practice,trial,block,run,gain_left,left_item_id,right_item_id,left_pair_id,right_pair_id,left_stimulus,right_stimulus,left_category,right_category,left_rating,right_rating,left_path,right_path,no_response,left_chosen,rt,higher_outcome_chosen,choice_type,chosen_stimulus,unchosen_stimulus,chosen_category,unchosen_category,iti,long_iti,simulation,version
0,71512,1,1,0,0,0,,,,,,,,,,,Stimuli/Practice_stims/Final_decisions/debby-hudson-FmCSSSGge-0-unsplash.jpg,Stimuli/Practice_stims/Final_decisions/yassine-khalfalli-adsQ9d_Cx0c-unsplash.jpg,1,NaN,,NaN,,NaN,NaN,NaN,NaN,3000,0,6,1
1,71512,1,2,0,0,0,,,,,,,,,,,Stimuli/Practice_stims/Final_decisions/florian-wehde-iVW7mZPwd4g-unsplash.jpg,Stimuli/Practice_stims/Final_decisions/patrick-perkins-3wylDrjxH-E-unsplash.jpg,1,NaN,,NaN,,NaN,NaN,NaN,NaN,1500,0,6,1
2,71512,1,3,0,0,0,,,,,,,,,,,Stimuli/Practice_stims/Final_decisions/debby-hudson-FmCSSSGge-0-unsplash.jpg,Stimuli/Practice_stims/Final_decisions/florian-wehde-iVW7mZPwd4g-unsplash.jpg,1,NaN,,NaN,,NaN,NaN,NaN,NaN,2000,0,6,1
3,71512,1,4,0,0,0,,,,,,,,,,,Stimuli/Practice_stims/Final_decisions/yassine-khalfalli-adsQ9d_Cx0c-unsplash.jpg,Stimuli/Practice_stims/Final_decisions/debby-hudson-FmCSSSGge-0-unsplash.jpg,1,NaN,,NaN,,NaN,NaN,NaN,NaN,1000,0,6,1
4,71512,0,5,1,1,0,no_gain4,gain5,C,G,0,40,outdoor_scenes,objects,50,50,Stimuli/Experimental_stims/outdoor_scenes/aleksandra-boguslawska-MS7KD9Ti7FQ-unsplash.jpg,Stimuli/Experimental_stims/objects/fabian-blank-pElSkGRA2NU-unsplash.jpg,1,NaN,,NaN,chosen,NaN,NaN,NaN,NaN,1800,0,6,1
5,71512,0,6,1,1,1,gain3,no_gain6,I,A,35,1,body_parts,outdoor_scenes,50,50,Stimuli/Experimental_stims/body_parts/wc-so-KH4AAPjb-tI-unsplash.jpg,Stimuli/Experimental_stims/outdoor_scenes/ashim-d-silva-S2Q5mdOrrVc-unsplash.jpg,0,1,52,1,chosen,35,1,body_parts,outdoor_scenes,1700,0,6,1
6,71512,0,7,1,1,1,gain6,no_gain3,D,E,16,24,faces,body_parts,50,50,Stimuli/Experimental_stims/faces/freddy-kearney-o-ioeoATbIM-unsplash.jpg,Stimuli/Experimental_stims/body_parts/clay-banks-LjqARJaJotc-unsplash.jpg,1,NaN,,NaN,unchosen,NaN,NaN,NaN,NaN,2300,0,6,1
7,71512,0,8,1,1,0,no_gain2,gain3,J,I,14,35,faces,body_parts,50,50,Stimuli/Experimental_stims/faces/david-siglin-UuW4psOb388-unsplash.jpg,Stimuli/Experimental_stims/body_parts/wc-so-KH4AAPjb-tI-unsplash.jpg,1,NaN,,NaN,chosen,NaN,NaN,NaN,NaN,1700,0,6,1
8,71512,0,9,1,1,1,gain4,no_gain5,L,F,21,29,faces,body_parts,50,50,Stimuli/Experimental_stims/faces/leilani-angel-K84vnnzxmTQ-unsplash.jpg,Stimuli/Experimental_stims/body_parts/manuel-schinner-ZwjFuJ7ebpk-unsplash.jpg,0,1,5,1,unchosen,21,29,faces,body_parts,3900,1,6,1
9,71512,0,10,1,1,1,gain2,no_gain5,B,F,22,29,faces,body_parts,50,50,Stimuli/Experimental_stims/faces/ravi-patel-VMGAbeeJTKo-unsplash.jpg,Stimuli/Experimental_stims/body_parts/manuel-schinner-ZwjFuJ7ebpk-unsplash.jpg,0,1,50,1,unchosen,22,29,faces,body_parts,1200,0,6,1
10,71512,0,11,1,1,1,gain2,no_gain5,B,F,11,23,outdoor_scenes,faces,50,50,Stimuli/Experimental_stims/outdoor_scenes/stephen-leonardi-gyIRjKPXupE-unsplash.jpg,Stimuli/Experimental_stims/faces/rikonavt-HQjfrvdTfak-unsplash.jpg,0,1,51,1,chosen,11,23,outdoor_scenes,faces,1200,0,6,1
11,71512,0,12,1,1,0,no_gain5,gain5,F,G,23,40,faces,objects,50,50,Stimuli/Experimental_stims/faces/rikonavt-HQjfrvdTfak-unsplash.jpg,Stimuli/Experimental_stims/objects/fabian-blank-pElSkGRA2NU-unsplash.jpg,0,1,41,0,chosen,23,40,faces,objects,2600,0,6,1
12,71512,0,13,1,1,0,no_gain1,gain4,K,L,39,21,objects,faces,50,50,Stimuli/Experimental_stims/objects/charlesdeluvio-1-nx1QR5dTE-unsplash.jpg,Stimuli/Experimental_stims/faces/leilani-angel-K84vnnzxmTQ-unsplash.jpg,0,1,56,0,unchosen,39,21,objects,faces,2200,0,6,1
13,71512,0,14,1,1,1,gain4,no_gain6,L,A,31,1,body_parts,outdoor_scenes,50,50,Stimuli/Experimental_stims/body_parts/sincerely-media-VN6DbKajo5s-unsplash.jpg,Stimuli/Experimental_stims/outdoor_scenes/ashim-d-silva-S2Q5mdOrrVc-unsplash.jpg,0,1,63,1,chosen,31,1,body_parts,outdoor_scenes,1700,0,6,1
14,71512,0,15,1,1,1,gain4,no_gain4,L,C,31,0,body_parts,outdoor_scenes,50,50,Stimuli/Experimental_stims/body_parts/sincerely-media-VN6DbKajo5s-unsplash.jpg,Stimuli/Experimental_stims/outdoor_scenes/aleksandra-boguslawska-MS7KD9Ti7FQ-unsplash.jpg,0,1,58,1,chosen,31,0,body_parts,outdoor_scenes,3100,1,6,1
15,71512,0,16,1,1,1,gain2,no_gain1,B,K,22,39,faces,objects,50,50,Stimuli/Experimental_stims/faces/ravi-patel-VMGAbeeJTKo-unsplash.jpg,Stimuli/Experimental_stims/objects/charlesdeluvio-1-nx1QR5dTE-unsplash.jpg,0,1,62,1,unchosen,22,39,faces,objects,2100,0,6,1
16,71512,0,17,1,1,0,no_gain2,gain5,J,G,14,40,faces,objects,50,50,Stimuli/Experimental_stims/faces/david-siglin-UuW4psOb388-unsplash.jpg,Stimuli/Experimental_stims/objects/fabian-blank-pElSkGRA2NU-unsplash.jpg,0,1,63,0,chosen,14,40,faces,objects,1900,0,6,1
17,71512,0,18,1,1,0,no_gain1,gain5,K,G,26,40,body_parts,objects,50,50,Stimuli/Experimental_stims/body_parts/engin-akyurt-x_3gyC42btc-unsplash.jpg,Stimuli/Experimental_stims/objects/fabian-blank-pElSkGRA2NU-unsplash.jpg,0,1,65,0,chosen,26,40,body_parts,objects,1400,0,6,1
18,71512,0,19,1,1,1,gain3,no_gain5,I,F,35,23,body_parts,faces,50,50,Stimuli/Experimental_stims/body_parts/wc-so-KH4AAPjb-tI-unsplash.jpg,Stimuli/Experimental_stims/faces/rikonavt-HQjfrvdTfak-unsplash.jpg,0,1,56,1,chosen,35,23,body_parts,faces,1500,0,6,1
19,71512,0,20,1,1,0,no_gain4,gain2,C,B,27,22,body_parts,faces,50,50,Stimuli/Experimental_stims/body_parts/heike-mintel-i_Gns0ELnLw-unsplash.jpg,Stimuli/Experimental_stims/faces/ravi-patel-VMGAbeeJTKo-unsplash.jpg,0,1,52,0,unchosen,27,22,body_parts,faces,1600,0,6,1
20,71512,0,21,1,1,0,no_gain1,gain3,K,I,26,35,body_parts,body_parts,50,50,Stimuli/Experimental_stims/body_parts/engin-akyurt-x_3gyC42btc-unsplash.jpg,Stimuli/Experimental_stims/body_parts/wc-so-KH4AAPjb-tI-unsplash.jpg,0,1,65,0,chosen,26,35,body_parts,body_parts,3200,1,6,1
21,71512,0,22,1,1,1,gain5,no_gain5,G,F,9,29,outdoor_scenes,body_parts,50,50,Stimuli/Experimental_stims/outdoor_scenes/sergey-pesterev-y-b_FOmJXdg-unsplash.jpg,Stimuli/Experimental_stims/body_parts/manuel-schinner-ZwjFuJ7ebpk-unsplash.jpg,0,1,28,1,unchosen,9,29,outdoor_scenes,body_parts,1900,0,6,1
22,71512,0,23,1,1,0,no_gain6,gain6,A,D,44,16,objects,faces,50,50,Stimuli/Experimental_stims/objects/kuiye-chen-NuOGFo4PudE-unsplash.jpg,Stimuli/Experimental_stims/faces/freddy-kearney-o-ioeoATbIM-unsplash.jpg,0,0,30,1,unchosen,16,44,faces,objects,1600,0,6,1
23,71512,0,24,1,1,0,no_gain6,gain2,A,B,1,11,outdoor_scenes,outdoor_scenes,50,50,Stimuli/Experimental_stims/outdoor_scenes/ashim-d-silva-S2Q5mdOrrVc-unsplash.jpg,Stimuli/Experimental_stims/outdoor_scenes/stephen-leonardi-gyIRjKPXupE-unsplash.jpg,0,0,28,1,chosen,11,1,outdoor_scenes,outdoor_scenes,1100,0,6,1
24,71512,0,25,1,1,1,gain4,no_gain2,L,J,21,47,faces,objects,50,50,Stimuli/Experimental_stims/faces/leilani-angel-K84vnnzxmTQ-unsplash.jpg,Stimuli/Experimental_stims/objects/ronaldo-arthur-vidal-Cdz_lvnl37k-unsplash.jpg,0,0,39,0,unchosen,47,21,objects,faces,2200,0,6,1
25,71512,0,26,1,1,1,gain2,no_gain3,B,E,22,24,faces,body_parts,50,50,Stimuli/Experimental_stims/faces/ravi-patel-VMGAbeeJTKo-unsplash.jpg,Stimuli/Experimental_stims/body_parts/clay-banks-LjqARJaJotc-unsplash.jpg,0,0,47,0,unchosen,24,22,body_parts,faces,3300,1,6,1
26,71512,0,27,1,1,0,no_gain2,gain4,J,L,14,31,faces,body_parts,50,50,Stimuli/Experimental_stims/faces/david-siglin-UuW4psOb388-unsplash.jpg,Stimuli/Experimental_stims/body_parts/sincerely-media-VN6DbKajo5s-unsplash.jpg,0,0,38,1,chosen,31,14,body_parts,faces,2100,0,6,1
27,71512,0,28,1,1,0,no_gain2,gain2,J,B,47,22,objects,faces,50,50,Stimuli/Experimental_stims/objects/ronaldo-arthur-vidal-Cdz_lvnl37k-unsplash.jpg,Stimuli/Experimental_stims/faces/ravi-patel-VMGAbeeJTKo-unsplash.jpg,0,0,22,1,unchosen,22,47,faces,objects,1000,0,6,1
28,71512,0,29,1,1,0,no_gain4,gain3,C,I,27,4,body_parts,outdoor_scenes,50,50,Stimuli/Experimental_stims/body_parts/heike-mintel-i_Gns0ELnLw-unsplash.jpg,Stimuli/Experimental_stims/outdoor_scenes/jarrett-kow-1ZOyYPOBn7I-unsplash.jpg,0,0,49,1,unchosen,4,27,outdoor_scenes,body_parts,2600,0,6,1
29,71512,0,30,1,1,0,no_gain3,gain2,E,B,42,11,objects,outdoor_scenes,50,50,Stimuli/Experimental_stims/objects/jess-bailey-nOeVi8DsN8U-unsplash.jpg,Stimuli/Experimental_stims/outdoor_scenes/stephen-leonardi-gyIRjKPXupE-unsplash.jpg,0,0,36,1,chosen,11,42,outdoor_scenes,objects,1500,0,6,1
30,71512,0,31,1,1,1,gain5,no_gain4,G,C,9,27,outdoor_scenes,body_parts,50,50,Stimuli/Experimental_stims/outdoor_scenes/sergey-pesterev-y-b_FOmJXdg-unsplash.jpg,Stimuli/Experimental_stims/body_parts/heike-mintel-i_Gns0ELnLw-unsplash.jpg,0,0,49,0,unchosen,27,9,body_parts,outdoor_scenes,1200,0,6,1
31,71512,0,32,1,1,0,no_gain3,gain5,E,G,24,9,body_parts,outdoor_scenes,50,50,Stimuli/Experimental_stims/body_parts/clay-banks-LjqARJaJotc-unsplash.jpg,Stimuli/Experimental_stims/outdoor_scenes/sergey-pesterev-y-b_FOmJXdg-unsplash.jpg,0,0,45,1,unchosen,9,24,outdoor_scenes,body_parts,2100,0,6,1
32,71512,0,33,1,1,0,no_gain5,gain4,F,L,23,31,faces,body_parts,50,50,Stimuli/Experimental_stims/faces/rikonavt-HQjfrvdTfak-unsplash.jpg,Stimuli/Experimental_stims/body_parts/sincerely-media-VN6DbKajo5s-unsplash.jpg,0,0,34,1,chosen,31,23,body_parts,faces,4300,1,6,1
33,71512,0,34,1,1,0,no_gain1,gain5,K,G,39,9,objects,outdoor_scenes,50,50,Stimuli/Experimental_stims/objects/charlesdeluvio-1-nx1QR5dTE-unsplash.jpg,Stimuli/Experimental_stims/outdoor_scenes/sergey-pesterev-y-b_FOmJXdg-unsplash.jpg,0,0,32,1,unchosen,9,39,outdoor_scenes,objects,1000,0,6,1
34,71512,0,35,1,1,1,gain1,no_gain3,H,E,15,42,faces,objects,50,50,Stimuli/Experimental_stims/faces/erik-lucatero-d2MSDujJl2g-unsplash.jpg,Stimuli/Experimental_stims/objects/jess-bailey-nOeVi8DsN8U-unsplash.jpg,0,0,38,0,chosen,42,15,objects,faces,2300,0,6,1
35,71512,0,36,1,1,0,no_gain6,gain5,A,G,44,9,objects,outdoor_scenes,50,50,Stimuli/Experimental_stims/objects/kuiye-chen-NuOGFo4PudE-unsplash.jpg,Stimuli/Experimental_stims/outdoor_scenes/sergey-pesterev-y-b_FOmJXdg-unsplash.jpg,0,0,34,1,unchosen,9,44,outdoor_scenes,objects,1200,0,6,1
36,71512,0,37,1,1,1,gain6,no_gain1,D,K,45,26,objects,body_parts,50,50,Stimuli/Experimental_stims/objects/leohoho-rngTKHXumy0-unsplash.jpg,Stimuli/Experimental_stims/body_parts/engin-akyurt-x_3gyC42btc-unsplash.jpg,0,0,35,0,chosen,26,45,body_parts,objects,1300,0,6,1
37,71512,0,38,1,1,1,gain4,no_gain3,L,E,31,42,body_parts,objects,50,50,Stimuli/Experimental_stims/body_parts/sincerely-media-VN6DbKajo5s-unsplash.jpg,Stimuli/Experimental_stims/objects/jess-bailey-nOeVi8DsN8U-unsplash.jpg,0,0,43,0,chosen,42,31,objects,body_parts,1700,0,6,1
38,71512,0,39,1,1,1,gain1,no_gain5,H,F,15,23,faces,faces,50,50,Stimuli/Experimental_stims/faces/erik-lucatero-d2MSDujJl2g-unsplash.jpg,Stimuli/Experimental_stims/faces/rikonavt-HQjfrvdTfak-unsplash.jpg,0,0,31,0,chosen,23,15,faces,faces,1300,0,6,1
39,71512,0,40,1,1,0,no_gain6,gain3,A,I,44,4,objects,outdoor_scenes,50,50,Stimuli/Experimental_stims/objects/kuiye-chen-NuOGFo4PudE-unsplash.jpg,Stimuli/Experimental_stims/outdoor_scenes/jarrett-kow-1ZOyYPOBn7I-unsplash.jpg,0,0,43,1,unchosen,4,44,outdoor_scenes,objects,1200,0,6,1
40,71512,0,41,1,1,0,no_gain2,gain1,J,H,14,15,faces,faces,50,50,Stimuli/Experimental_stims/faces/david-siglin-UuW4psOb388-unsplash.jpg,Stimuli/Experimental_stims/faces/erik-lucatero-d2MSDujJl2g-unsplash.jpg,0,0,46,1,chosen,15,14,faces,faces,1900,0,6,1
41,71512,0,42,1,1,1,gain4,no_gain3,L,E,21,24,faces,body_parts,50,50,Stimuli/Experimental_stims/faces/leilani-angel-K84vnnzxmTQ-unsplash.jpg,Stimuli/Experimental_stims/body_parts/clay-banks-LjqARJaJotc-unsplash.jpg,0,0,50,0,unchosen,24,21,body_parts,faces,1200,0,6,1
42,71512,0,43,1,1,1,gain6,no_gain6,D,A,45,1,objects,outdoor_scenes,50,50,Stimuli/Experimental_stims/objects/leohoho-rngTKHXumy0-unsplash.jpg,Stimuli/Experimental_stims/outdoor_scenes/ashim-d-silva-S2Q5mdOrrVc-unsplash.jpg,0,0,41,0,chosen,1,45,outdoor_scenes,objects,4000,1,6,1
43,71512,0,44,1,1,0,no_gain3,gain3,E,I,42,35,objects,body_parts,50,50,Stimuli/Experimental_stims/objects/jess-bailey-nOeVi8DsN8U-unsplash.jpg,Stimuli/Experimental_stims/body_parts/wc-so-KH4AAPjb-tI-unsplash.jpg,0,0,38,1,chosen,35,42,body_parts,objects,2300,0,6,1
44,71512,0,45,1,1,1,gain2,no_gain6,B,A,22,44,faces,objects,50,50,Stimuli/Experimental_stims/faces/ravi-patel-VMGAbeeJTKo-unsplash.jpg,Stimuli/Experimental_stims/objects/kuiye-chen-NuOGFo4PudE-unsplash.jpg,0,0,36,0,unchosen,44,22,objects,faces,1500,0,6,1
45,71512,0,46,1,1,0,no_gain1,gain1,K,H,26,15,body_parts,faces,50,50,Stimuli/Experimental_stims/body_parts/engin-akyurt-x_3gyC42btc-unsplash.jpg,Stimuli/Experimental_stims/faces/erik-lucatero-d2MSDujJl2g-unsplash.jpg,0,0,45,1,chosen,15,26,faces,body_parts,1100,0,6,1
46,71512,0,47,1,1,0,no_gain5,gain6,F,D,29,16,body_parts,faces,50,50,Stimuli/Experimental_stims/body_parts/manuel-schinner-ZwjFuJ7ebpk-unsplash.jpg,Stimuli/Experimental_stims/faces/freddy-kearney-o-ioeoATbIM-unsplash.jpg,0,0,40,1,unchosen,16,29,faces,body_parts,1100,0,6,1
47,71512,0,48,1,1,0,no_gain5,gain6,F,D,23,45,faces,objects,50,50,Stimuli/Experimental_stims/faces/rikonavt-HQjfrvdTfak-unsplash.jpg,Stimuli/Experimental_stims/objects/leohoho-rngTKHXumy0-unsplash.jpg,0,0,28,1,chosen,45,23,objects,faces,3200,1,6,1
48,71512,0,49,1,1,0,no_gain2,gain6,J,D,47,16,objects,faces,50,50,Stimuli/Experimental_stims/objects/ronaldo-arthur-vidal-Cdz_lvnl37k-unsplash.jpg,Stimuli/Experimental_stims/faces/freddy-kearney-o-ioeoATbIM-unsplash.jpg,1,NaN,,NaN,unchosen,NaN,NaN,NaN,NaN,1900,0,6,1
49,71512,0,50,1,1,1,gain4,no_gain4,L,C,21,27,faces,body_parts,50,50,Stimuli/Experimental_stims/faces/leilani-angel-K84vnnzxmTQ-unsplash.jpg,Stimuli/Experimental_stims/body_parts/heike-mintel-i_Gns0ELnLw-unsplash.jpg,1,NaN,,NaN,unchosen,NaN,NaN,NaN,NaN,2300,0,6,1
50,71512,0,51,1,1,1,gain6,no_gain4,D,C,16,27,faces,body_parts,50,50,Stimuli/Experimental_stims/faces/freddy-kearney-o-ioeoATbIM-unsplash.jpg,Stimuli/Experimental_stims/body_parts/heike-mintel-i_Gns0ELnLw-unsplash.jpg,1,NaN,,NaN,unchosen,NaN,NaN,NaN,NaN,1200,0,6,1
51,71512,0,52,1,1,0,no_gain6,gain1,A,H,1,15,outdoor_scenes,faces,50,50,Stimuli/Experimental_stims/outdoor_scenes/ashim-d-silva-S2Q5mdOrrVc-unsplash.jpg,Stimuli/Experimental_stims/faces/erik-lucatero-d2MSDujJl2g-unsplash.jpg,1,NaN,,NaN,chosen,NaN,NaN,NaN,NaN,2400,0,6,1
52,71512,0,53,1,1,1,gain2,no_gain1,B,K,11,26,outdoor_scenes,body_parts,50,50,Stimuli/Experimental_stims/outdoor_scenes/stephen-leonardi-gyIRjKPXupE-unsplash.jpg,Stimuli/Experimental_stims/body_parts/engin-akyurt-x_3gyC42btc-unsplash.jpg,1,NaN,,NaN,chosen,NaN,NaN,NaN,NaN,1600,0,6,1
53,71512,0,54,1,1,1,gain5,no_gain6,G,A,40,1,objects,outdoor_scenes,50,50,Stimuli/Experimental_stims/objects/fabian-blank-pElSkGRA2NU-unsplash.jpg,Stimuli/Experimental_stims/outdoor_scenes/ashim-d-silva-S2Q5mdOrrVc-unsplash.jpg,1,NaN,,NaN,chosen,NaN,NaN,NaN,NaN,3100,1,6,1
54,71512,0,55,1,1,0,no_gain5,gain1,F,H,29,8,body_parts,outdoor_scenes,50,50,Stimuli/Experimental_stims/body_parts/manuel-schinner-ZwjFuJ7ebpk-unsplash.jpg,Stimuli/Experimental_stims/outdoor_scenes/samsommer-vddccTqwal8-unsplash.jpg,1,NaN,,NaN,unchosen,NaN,NaN,NaN,NaN,2300,0,6,1
55,71512,0,56,1,1,1,gain2,no_gain2,B,J,11,14,outdoor_scenes,faces,50,50,Stimuli/Experimental_stims/outdoor_scenes/stephen-leonardi-gyIRjKPXupE-unsplash.jpg,Stimuli/Experimental_stims/faces/david-siglin-UuW4psOb388-unsplash.jpg,1,NaN,,NaN,chosen,NaN,NaN,NaN,NaN,2600,0,6,1
56,71512,0,57,1,1,1,gain3,no_gain2,I,J,4,47,outdoor_scenes,objects,50,50,Stimuli/Experimental_stims/outdoor_scenes/jarrett-kow-1ZOyYPOBn7I-unsplash.jpg,Stimuli/Experimental_stims/objects/ronaldo-arthur-vidal-Cdz_lvnl37k-unsplash.jpg,0,1,83,1,unchosen,4,47,outdoor_scenes,objects,1700,0,6,1
57,71512,0,58,1,1,0,no_gain1,gain3,K,I,39,4,objects,outdoor_scenes,50,50,Stimuli/Experimental_stims/objects/charlesdeluvio-1-nx1QR5dTE-unsplash.jpg,Stimuli/Experimental_stims/outdoor_scenes/jarrett-kow-1ZOyYPOBn7I-unsplash.jpg,0,1,29,0,unchosen,39,4,objects,outdoor_scenes,1100,0,6,1
58,71512,0,59,1,1,1,gain6,no_gain4,D,C,45,0,objects,outdoor_scenes,50,50,Stimuli/Experimental_stims/objects/leohoho-rngTKHXumy0-unsplash.jpg,Stimuli/Experimental_stims/outdoor_scenes/aleksandra-boguslawska-MS7KD9Ti7FQ-unsplash.jpg,0,1,36,1,chosen,45,0,objects,outdoor_scenes,2600,0,6,1
59,71512,0,60,1,1,1,gain6,no_gain1,D,K,16,39,faces,objects,50,50,Stimuli/Experimental_stims/faces/freddy-kearney-o-ioeoATbIM-unsplash.jpg,Stimuli/Experimental_stims/objects/charlesdeluvio-1-nx1QR5dTE-unsplash.jpg,0,1,23,1,unchosen,16,39,faces,objects,1000,0,6,1
60,71512,0,61,1,1,1,gain1,no_gain3,H,E,8,24,outdoor_scenes,body_parts,50,50,Stimuli/Experimental_stims/outdoor_scenes/samsommer-vddccTqwal8-unsplash.jpg,Stimuli/Experimental_stims/body_parts/clay-banks-LjqARJaJotc-unsplash.jpg,0,1,30,1,unchosen,8,24,outdoor_scenes,body_parts,2400,0,6,1
61,71512,0,62,1,1,0,no_gain6,gain4,A,L,44,21,objects,faces,50,50,Stimuli/Experimental_stims/objects/kuiye-chen-NuOGFo4PudE-unsplash.jpg,Stimuli/Experimental_stims/faces/leilani-angel-K84vnnzxmTQ-unsplash.jpg,0,1,30,0,unchosen,44,21,objects,faces,3500,1,6,1
62,71512,0,63,1,1,1,gain6,no_gain3,D,E,45,42,objects,objects,50,50,Stimuli/Experimental_stims/objects/leohoho-rngTKHXumy0-unsplash.jpg,Stimuli/Experimental_stims/objects/jess-bailey-nOeVi8DsN8U-unsplash.jpg,0,1,29,1,chosen,45,42,objects,objects,1700,0,6,1
63,71512,0,64,1,1,1,gain2,no_gain4,B,C,11,0,outdoor_scenes,outdoor_scenes,50,50,Stimuli/Experimental_stims/outdoor_scenes/stephen-leonardi-gyIRjKPXupE-unsplash.jpg,Stimuli/Experimental_stims/outdoor_scenes/aleksandra-boguslawska-MS7KD9Ti7FQ-unsplash.jpg,0,1,28,1,chosen,11,0,outdoor_scenes,outdoor_scenes,1200,0,6,1
64,71512,0,65,1,1,0,no_gain6,gain1,A,H,44,8,objects,outdoor_scenes,50,50,Stimuli/Experimental_stims/objects/kuiye-chen-NuOGFo4PudE-unsplash.jpg,Stimuli/Experimental_stims/outdoor_scenes/samsommer-vddccTqwal8-unsplash.jpg,0,1,26,0,unchosen,44,8,objects,outdoor_scenes,1600,0,6,1
65,71512,0,66,1,1,0,no_gain4,gain1,C,H,27,8,body_parts,outdoor_scenes,50,50,Stimuli/Experimental_stims/body_parts/heike-mintel-i_Gns0ELnLw-unsplash.jpg,Stimuli/Experimental_stims/outdoor_scenes/samsommer-vddccTqwal8-unsplash.jpg,0,1,25,0,unchosen,27,8,body_parts,outdoor_scenes,1200,0,6,1
66,71512,0,67,1,1,1,gain5,no_gain2,G,J,9,47,outdoor_scenes,objects,50,50,Stimuli/Experimental_stims/outdoor_scenes/sergey-pesterev-y-b_FOmJXdg-unsplash.jpg,Stimuli/Experimental_stims/objects/ronaldo-arthur-vidal-Cdz_lvnl37k-unsplash.jpg,0,1,36,1,unchosen,9,47,outdoor_scenes,objects,3400,1,6,1
67,71512,0,68,1,1,0,no_gain1,gain4,K,L,26,31,body_parts,body_parts,50,50,Stimuli/Experimental_stims/body_parts/engin-akyurt-x_3gyC42btc-unsplash.jpg,Stimuli/Experimental_stims/body_parts/sincerely-media-VN6DbKajo5s-unsplash.jpg,0,1,39,0,chosen,26,31,body_parts,body_parts,1900,0,6,1
68,71512,0,69,1,1,1,gain6,no_gain2,D,J,45,14,objects,faces,50,50,Stimuli/Experimental_stims/objects/leohoho-rngTKHXumy0-unsplash.jpg,Stimuli/Experimental_stims/faces/david-siglin-UuW4psOb388-unsplash.jpg,0,1,31,1,chosen,45,14,objects,faces,2200,0,6,1
69,71512,0,70,1,1,1,gain5,no_gain3,G,E,40,42,objects,objects,50,50,Stimuli/Experimental_stims/objects/fabian-blank-pElSkGRA2NU-unsplash.jpg,Stimuli/Experimental_stims/objects/jess-bailey-nOeVi8DsN8U-unsplash.jpg,0,1,28,1,chosen,40,42,objects,objects,1100,0,6,1
70,71512,0,71,1,1,0,no_gain1,gain1,K,H,39,8,objects,outdoor_scenes,50,50,Stimuli/Experimental_stims/objects/charlesdeluvio-1-nx1QR5dTE-unsplash.jpg,Stimuli/Experimental_stims/outdoor_scenes/samsommer-vddccTqwal8-unsplash.jpg,0,1,45,0,unchosen,39,8,objects,outdoor_scenes,2600,0,6,1
71,71512,0,72,1,1,1,gain1,no_gain2,H,J,8,47,outdoor_scenes,objects,50,50,Stimuli/Experimental_stims/outdoor_scenes/samsommer-vddccTqwal8-unsplash.jpg,Stimuli/Experimental_stims/objects/ronaldo-arthur-vidal-Cdz_lvnl37k-unsplash.jpg,0,1,47,1,unchosen,8,47,outdoor_scenes,objects,2100,0,6,1
72,71512,0,73,1,1,0,no_gain3,gain3,E,I,24,4,body_parts,outdoor_scenes,50,50,Stimuli/Experimental_stims/body_parts/clay-banks-LjqARJaJotc-unsplash.jpg,Stimuli/Experimental_stims/outdoor_scenes/jarrett-kow-1ZOyYPOBn7I-unsplash.jpg,0,1,44,0,unchosen,24,4,body_parts,outdoor_scenes,1600,0,6,1
73,71512,0,74,1,1,0,no_gain4,gain1,C,H,0,15,outdoor_scenes,faces,50,50,Stimuli/Experimental_stims/outdoor_scenes/aleksandra-boguslawska-MS7KD9Ti7FQ-unsplash.jpg,Stimuli/Experimental_stims/faces/erik-lucatero-d2MSDujJl2g-unsplash.jpg,0,1,47,0,chosen,0,15,outdoor_scenes,faces,1200,0,6,1
74,71512,0,75,1,1,1,gain3,no_gain5,I,F,4,29,outdoor_scenes,body_parts,50,50,Stimuli/Experimental_stims/outdoor_scenes/jarrett-kow-1ZOyYPOBn7I-unsplash.jpg,Stimuli/Experimental_stims/body_parts/manuel-schinner-ZwjFuJ7ebpk-unsplash.jpg,0,1,39,1,unchosen,4,29,outdoor_scenes,body_parts,2600,0,6,1
75,71512,0,76,1,1,0,no_gain4,gain3,C,I,0,35,outdoor_scenes,body_parts,50,50,Stimuli/Experimental_stims/outdoor_scenes/aleksandra-boguslawska-MS7KD9Ti7FQ-unsplash.jpg,Stimuli/Experimental_stims/body_parts/wc-so-KH4AAPjb-tI-unsplash.jpg,0,1,30,0,chosen,0,35,outdoor_scenes,body_parts,3600,1,6,1
76,71512,0,77,2,2,1,gain4,no_gain6,L,A,21,44,faces,objects,50,50,Stimuli/Experimental_stims/faces/leilani-angel-K84vnnzxmTQ-unsplash.jpg,Stimuli/Experimental_stims/objects/kuiye-chen-NuOGFo4PudE-unsplash.jpg,1,NaN,,NaN,unchosen,NaN,NaN,NaN,NaN,3100,1,4,1
77,71512,0,78,2,2,1,gain3,no_gain1,I,K,35,26,body_parts,body_parts,50,50,Stimuli/Experimental_stims/body_parts/wc-so-KH4AAPjb-tI-unsplash.jpg,Stimuli/Experimental_stims/body_parts/engin-akyurt-x_3gyC42btc-unsplash.jpg,1,NaN,,NaN,chosen,NaN,NaN,NaN,NaN,2600,0,4,1
78,71512,0,79,2,2,0,no_gain5,gain5,F,G,23,40,faces,objects,50,50,Stimuli/Experimental_stims/faces/rikonavt-HQjfrvdTfak-unsplash.jpg,Stimuli/Experimental_stims/objects/fabian-blank-pElSkGRA2NU-unsplash.jpg,1,NaN,,NaN,chosen,NaN,NaN,NaN,NaN,1800,0,4,1
79,71512,0,80,2,2,0,no_gain5,gain2,F,B,29,22,body_parts,faces,50,50,Stimuli/Experimental_stims/body_parts/manuel-schinner-ZwjFuJ7ebpk-unsplash.jpg,Stimuli/Experimental_stims/faces/ravi-patel-VMGAbeeJTKo-unsplash.jpg,1,NaN,,NaN,unchosen,NaN,NaN,NaN,NaN,1000,0,4,1
80,71512,0,81,2,2,0,no_gain5,gain6,F,D,23,45,faces,objects,50,50,Stimuli/Experimental_stims/faces/rikonavt-HQjfrvdTfak-unsplash.jpg,Stimuli/Experimental_stims/objects/leohoho-rngTKHXumy0-unsplash.jpg,1,NaN,,NaN,chosen,NaN,NaN,NaN,NaN,2300,0,4,1
81,71512,0,82,2,2,1,gain2,no_gain1,B,K,11,26,outdoor_scenes,body_parts,50,50,Stimuli/Experimental_stims/outdoor_scenes/stephen-leonardi-gyIRjKPXupE-unsplash.jpg,Stimuli/Experimental_stims/body_parts/engin-akyurt-x_3gyC42btc-unsplash.jpg,1,NaN,,NaN,chosen,NaN,NaN,NaN,NaN,1100,0,4,1
82,71512,0,83,2,2,1,gain6,no_gain4,D,C,45,0,objects,outdoor_scenes,50,50,Stimuli/Experimental_stims/objects/leohoho-rngTKHXumy0-unsplash.jpg,Stimuli/Experimental_stims/outdoor_scenes/aleksandra-boguslawska-MS7KD9Ti7FQ-unsplash.jpg,1,NaN,,NaN,chosen,NaN,NaN,NaN,NaN,1500,0,4,1
83,71512,0,84,2,2,1,gain1,no_gain4,H,C,8,27,outdoor_scenes,body_parts,50,50,Stimuli/Experimental_stims/outdoor_scenes/samsommer-vddccTqwal8-unsplash.jpg,Stimuli/Experimental_stims/body_parts/heike-mintel-i_Gns0ELnLw-unsplash.jpg,1,NaN,,NaN,unchosen,NaN,NaN,NaN,NaN,2400,0,4,1
84,71512,0,85,2,2,0,no_gain2,gain2,J,B,47,22,objects,faces,50,50,Stimuli/Experimental_stims/objects/ronaldo-arthur-vidal-Cdz_lvnl37k-unsplash.jpg,Stimuli/Experimental_stims/faces/ravi-patel-VMGAbeeJTKo-unsplash.jpg,1,NaN,,NaN,unchosen,NaN,NaN,NaN,NaN,2300,0,4,1
85,71512,0,86,2,2,1,gain6,no_gain3,D,E,45,42,objects,objects,50,50,Stimuli/Experimental_stims/objects/leohoho-rngTKHXumy0-unsplash.jpg,Stimuli/Experimental_stims/objects/jess-bailey-nOeVi8DsN8U-unsplash.jpg,1,NaN,,NaN,chosen,NaN,NaN,NaN,NaN,1200,0,4,1
86,71512,0,87,2,2,0,no_gain5,gain4,F,L,29,21,body_parts,faces,50,50,Stimuli/Experimental_stims/body_parts/manuel-schinner-ZwjFuJ7ebpk-unsplash.jpg,Stimuli/Experimental_stims/faces/leilani-angel-K84vnnzxmTQ-unsplash.jpg,1,NaN,,NaN,unchosen,NaN,NaN,NaN,NaN,1300,0,4,1
87,71512,0,88,2,2,1,gain2,no_gain2,B,J,11,14,outdoor_scenes,faces,50,50,Stimuli/Experimental_stims/outdoor_scenes/stephen-leonardi-gyIRjKPXupE-unsplash.jpg,Stimuli/Experimental_stims/faces/david-siglin-UuW4psOb388-unsplash.jpg,1,NaN,,NaN,chosen,NaN,NaN,NaN,NaN,3700,1,4,1
88,71512,0,89,2,2,1,gain5,no_gain3,G,E,40,42,objects,objects,50,50,Stimuli/Experimental_stims/objects/fabian-blank-pElSkGRA2NU-unsplash.jpg,Stimuli/Experimental_stims/objects/jess-bailey-nOeVi8DsN8U-unsplash.jpg,1,NaN,,NaN,chosen,NaN,NaN,NaN,NaN,1600,0,4,1
89,71512,0,90,2,2,0,no_gain3,gain1,E,H,42,15,objects,faces,50,50,Stimuli/Experimental_stims/objects/jess-bailey-nOeVi8DsN8U-unsplash.jpg,Stimuli/Experimental_stims/faces/erik-lucatero-d2MSDujJl2g-unsplash.jpg,1,NaN,,NaN,chosen,NaN,NaN,NaN,NaN,1700,0,4,1
90,71512,0,91,2,2,0,no_gain2,gain1,J,H,47,8,objects,outdoor_scenes,50,50,Stimuli/Experimental_stims/objects/ronaldo-arthur-vidal-Cdz_lvnl37k-unsplash.jpg,Stimuli/Experimental_stims/outdoor_scenes/samsommer-vddccTqwal8-unsplash.jpg,1,NaN,,NaN,unchosen,NaN,NaN,NaN,NaN,1200,0,4,1
91,71512,0,92,2,2,0,no_gain6,gain5,A,G,1,40,outdoor_scenes,objects,50,50,Stimuli/Experimental_stims/outdoor_scenes/ashim-d-silva-S2Q5mdOrrVc-unsplash.jpg,Stimuli/Experimental_stims/objects/fabian-blank-pElSkGRA2NU-unsplash.jpg,1,NaN,,NaN,chosen,NaN,NaN,NaN,NaN,1100,0,4,1
92,71512,0,93,2,2,0,no_gain4,gain3,C,I,0,35,outdoor_scenes,body_parts,50,50,Stimuli/Experimental_stims/outdoor_scenes/aleksandra-boguslawska-MS7KD9Ti7FQ-unsplash.jpg,Stimuli/Experimental_stims/body_parts/wc-so-KH4AAPjb-tI-unsplash.jpg,1,NaN,,NaN,chosen,NaN,NaN,NaN,NaN,1300,0,4,1
93,71512,0,94,2,2,1,gain4,no_gain5,L,F,31,23,body_parts,faces,50,50,Stimuli/Experimental_stims/body_parts/sincerely-media-VN6DbKajo5s-unsplash.jpg,Stimuli/Experimental_stims/faces/rikonavt-HQjfrvdTfak-unsplash.jpg,1,NaN,,NaN,chosen,NaN,NaN,NaN,NaN,4500,1,4,1
94,71512,0,95,2,2,0,no_gain5,gain1,F,H,29,8,body_parts,outdoor_scenes,50,50,Stimuli/Experimental_stims/body_parts/manuel-schinner-ZwjFuJ7ebpk-unsplash.jpg,Stimuli/Experimental_stims/outdoor_scenes/samsommer-vddccTqwal8-unsplash.jpg,1,NaN,,NaN,unchosen,NaN,NaN,NaN,NaN,1900,0,4,1
95,71512,0,96,2,2,1,gain1,no_gain3,H,E,8,24,outdoor_scenes,body_parts,50,50,Stimuli/Experimental_stims/outdoor_scenes/samsommer-vddccTqwal8-unsplash.jpg,Stimuli/Experimental_stims/body_parts/clay-banks-LjqARJaJotc-unsplash.jpg,1,NaN,,NaN,unchosen,NaN,NaN,NaN,NaN,1100,0,4,1
96,71512,0,97,2,2,1,gain3,no_gain3,I,E,4,24,outdoor_scenes,body_parts,50,50,Stimuli/Experimental_stims/outdoor_scenes/jarrett-kow-1ZOyYPOBn7I-unsplash.jpg,Stimuli/Experimental_stims/body_parts/clay-banks-LjqARJaJotc-unsplash.jpg,1,NaN,,NaN,unchosen,NaN,NaN,NaN,NaN,2300,0,4,1
97,71512,0,98,2,2,0,no_gain5,gain1,F,H,23,15,faces,faces,50,50,Stimuli/Experimental_stims/faces/rikonavt-HQjfrvdTfak-unsplash.jpg,Stimuli/Experimental_stims/faces/erik-lucatero-d2MSDujJl2g-unsplash.jpg,1,NaN,,NaN,chosen,NaN,NaN,NaN,NaN,2800,0,4,1
98,71512,0,99,2,2,0,no_gain5,gain5,F,G,29,9,body_parts,outdoor_scenes,50,50,Stimuli/Experimental_stims/body_parts/manuel-schinner-ZwjFuJ7ebpk-unsplash.jpg,Stimuli/Experimental_stims/outdoor_scenes/sergey-pesterev-y-b_FOmJXdg-unsplash.jpg,1,NaN,,NaN,unchosen,NaN,NaN,NaN,NaN,3200,1,4,1
99,71512,0,100,2,2,1,gain5,no_gain1,G,K,40,26,objects,body_parts,50,50,Stimuli/Experimental_stims/objects/fabian-blank-pElSkGRA2NU-unsplash.jpg,Stimuli/Experimental_stims/body_parts/engin-akyurt-x_3gyC42btc-unsplash.jpg,1,NaN,,NaN,chosen,NaN,NaN,NaN,NaN,2000,0,4,1
100,71512,0,101,2,2,0,no_gain2,gain6,J,D,14,45,faces,objects,50,50,Stimuli/Experimental_stims/faces/david-siglin-UuW4psOb388-unsplash.jpg,Stimuli/Experimental_stims/objects/leohoho-rngTKHXumy0-unsplash.jpg,1,NaN,,NaN,chosen,NaN,NaN,NaN,NaN,2500,0,4,1
101,71512,0,102,2,2,1,gain3,no_gain5,I,F,4,29,outdoor_scenes,body_parts,50,50,Stimuli/Experimental_stims/outdoor_scenes/jarrett-kow-1ZOyYPOBn7I-unsplash.jpg,Stimuli/Experimental_stims/body_parts/manuel-schinner-ZwjFuJ7ebpk-unsplash.jpg,1,NaN,,NaN,unchosen,NaN,NaN,NaN,NaN,1300,0,4,1
102,71512,0,103,2,2,1,gain6,no_gain3,D,E,16,24,faces,body_parts,50,50,Stimuli/Experimental_stims/faces/freddy-kearney-o-ioeoATbIM-unsplash.jpg,Stimuli/Experimental_stims/body_parts/clay-banks-LjqARJaJotc-unsplash.jpg,1,NaN,,NaN,unchosen,NaN,NaN,NaN,NaN,1300,0,4,1
103,71512,0,104,2,2,1,gain4,no_gain4,L,C,21,27,faces,body_parts,50,50,Stimuli/Experimental_stims/faces/leilani-angel-K84vnnzxmTQ-unsplash.jpg,Stimuli/Experimental_stims/body_parts/heike-mintel-i_Gns0ELnLw-unsplash.jpg,1,NaN,,NaN,unchosen,NaN,NaN,NaN,NaN,4500,1,4,1
104,71512,0,105,2,2,1,gain6,no_gain1,D,K,45,26,objects,body_parts,50,50,Stimuli/Experimental_stims/objects/leohoho-rngTKHXumy0-unsplash.jpg,Stimuli/Experimental_stims/body_parts/engin-akyurt-x_3gyC42btc-unsplash.jpg,1,NaN,,NaN,chosen,NaN,NaN,NaN,NaN,1400,0,4,1
105,71512,0,106,2,2,1,gain2,no_gain6,B,A,22,44,faces,objects,50,50,Stimuli/Experimental_stims/faces/ravi-patel-VMGAbeeJTKo-unsplash.jpg,Stimuli/Experimental_stims/objects/kuiye-chen-NuOGFo4PudE-unsplash.jpg,1,NaN,,NaN,unchosen,NaN,NaN,NaN,NaN,2600,0,4,1
106,71512,0,107,2,2,1,gain4,no_gain4,L,C,31,0,body_parts,outdoor_scenes,50,50,Stimuli/Experimental_stims/body_parts/sincerely-media-VN6DbKajo5s-unsplash.jpg,Stimuli/Experimental_stims/outdoor_scenes/aleksandra-boguslawska-MS7KD9Ti7FQ-unsplash.jpg,1,NaN,,NaN,chosen,NaN,NaN,NaN,NaN,2100,0,4,1
107,71512,0,108,2,2,0,no_gain6,gain6,A,D,44,16,objects,faces,50,50,Stimuli/Experimental_stims/objects/kuiye-chen-NuOGFo4PudE-unsplash.jpg,Stimuli/Experimental_stims/faces/freddy-kearney-o-ioeoATbIM-unsplash.jpg,1,NaN,,NaN,unchosen,NaN,NaN,NaN,NaN,2100,0,4,1
108,71512,0,109,2,2,1,gain4,no_gain3,L,E,21,24,faces,body_parts,50,50,Stimuli/Experimental_stims/faces/leilani-angel-K84vnnzxmTQ-unsplash.jpg,Stimuli/Experimental_stims/body_parts/clay-banks-LjqARJaJotc-unsplash.jpg,1,NaN,,NaN,unchosen,NaN,NaN,NaN,NaN,2600,0,4,1
109,71512,0,110,2,2,0,no_gain1,gain1,K,H,26,15,body_parts,faces,50,50,Stimuli/Experimental_stims/body_parts/engin-akyurt-x_3gyC42btc-unsplash.jpg,Stimuli/Experimental_stims/faces/erik-lucatero-d2MSDujJl2g-unsplash.jpg,1,NaN,,NaN,chosen,NaN,NaN,NaN,NaN,3000,1,4,1
110,71512,0,111,2,2,1,gain2,no_gain4,B,C,11,0,outdoor_scenes,outdoor_scenes,50,50,Stimuli/Experimental_stims/outdoor_scenes/stephen-leonardi-gyIRjKPXupE-unsplash.jpg,Stimuli/Experimental_stims/outdoor_scenes/aleksandra-boguslawska-MS7KD9Ti7FQ-unsplash.jpg,1,NaN,,NaN,chosen,NaN,NaN,NaN,NaN,1100,0,4,1
111,71512,0,112,2,2,0,no_gain1,gain3,K,I,39,4,objects,outdoor_scenes,50,50,Stimuli/Experimental_stims/objects/charlesdeluvio-1-nx1QR5dTE-unsplash.jpg,Stimuli/Experimental_stims/outdoor_scenes/jarrett-kow-1ZOyYPOBn7I-unsplash.jpg,1,NaN,,NaN,unchosen,NaN,NaN,NaN,NaN,1000,0,4,1
112,71512,0,113,2,2,1,gain5,no_gain1,G,K,9,39,outdoor_scenes,objects,50,50,Stimuli/Experimental_stims/outdoor_scenes/sergey-pesterev-y-b_FOmJXdg-unsplash.jpg,Stimuli/Experimental_stims/objects/charlesdeluvio-1-nx1QR5dTE-unsplash.jpg,1,NaN,,NaN,unchosen,NaN,NaN,NaN,NaN,1300,0,4,1
113,71512,0,114,2,2,1,gain3,no_gain6,I,A,35,1,body_parts,outdoor_scenes,50,50,Stimuli/Experimental_stims/body_parts/wc-so-KH4AAPjb-tI-unsplash.jpg,Stimuli/Experimental_stims/outdoor_scenes/ashim-d-silva-S2Q5mdOrrVc-unsplash.jpg,1,NaN,,NaN,chosen,NaN,NaN,NaN,NaN,1000,0,4,1
114,71512,0,115,2,2,0,no_gain1,gain1,K,H,39,8,objects,outdoor_scenes,50,50,Stimuli/Experimental_stims/objects/charlesdeluvio-1-nx1QR5dTE-unsplash.jpg,Stimuli/Experimental_stims/outdoor_scenes/samsommer-vddccTqwal8-unsplash.jpg,1,NaN,,NaN,unchosen,NaN,NaN,NaN,NaN,1200,0,4,1
115,71512,0,116,2,2,0,no_gain5,gain3,F,I,23,35,faces,body_parts,50,50,Stimuli/Experimental_stims/faces/rikonavt-HQjfrvdTfak-unsplash.jpg,Stimuli/Experimental_stims/body_parts/wc-so-KH4AAPjb-tI-unsplash.jpg,1,NaN,,NaN,chosen,NaN,NaN,NaN,NaN,1800,0,4,1
116,71512,0,117,2,2,1,gain5,no_gain2,G,J,9,47,outdoor_scenes,objects,50,50,Stimuli/Experimental_stims/outdoor_scenes/sergey-pesterev-y-b_FOmJXdg-unsplash.jpg,Stimuli/Experimental_stims/objects/ronaldo-arthur-vidal-Cdz_lvnl37k-unsplash.jpg,1,NaN,,NaN,unchosen,NaN,NaN,NaN,NaN,2300,0,4,1
117,71512,0,118,2,2,1,gain4,no_gain1,L,K,31,26,body_parts,body_parts,50,50,Stimuli/Experimental_stims/body_parts/sincerely-media-VN6DbKajo5s-unsplash.jpg,Stimuli/Experimental_stims/body_parts/engin-akyurt-x_3gyC42btc-unsplash.jpg,1,NaN,,NaN,chosen,NaN,NaN,NaN,NaN,3500,1,4,1
118,71512,0,119,2,2,0,no_gain2,gain6,J,D,47,16,objects,faces,50,50,Stimuli/Experimental_stims/objects/ronaldo-arthur-vidal-Cdz_lvnl37k-unsplash.jpg,Stimuli/Experimental_stims/faces/freddy-kearney-o-ioeoATbIM-unsplash.jpg,1,NaN,,NaN,unchosen,NaN,NaN,NaN,NaN,1300,0,4,1
119,71512,0,120,2,2,0,no_gain2,gain5,J,G,14,40,faces,objects,50,50,Stimuli/Experimental_stims/faces/david-siglin-UuW4psOb388-unsplash.jpg,Stimuli/Experimental_stims/objects/fabian-blank-pElSkGRA2NU-unsplash.jpg,1,NaN,,NaN,chosen,NaN,NaN,NaN,NaN,1400,0,4,1
120,71512,0,121,2,2,1,gain3,no_gain3,I,E,35,42,body_parts,objects,50,50,Stimuli/Experimental_stims/body_parts/wc-so-KH4AAPjb-tI-unsplash.jpg,Stimuli/Experimental_stims/objects/jess-bailey-nOeVi8DsN8U-unsplash.jpg,1,NaN,,NaN,chosen,NaN,NaN,NaN,NaN,1300,0,4,1
121,71512,0,122,2,2,1,gain6,no_gain1,D,K,16,39,faces,objects,50,50,Stimuli/Experimental_stims/faces/freddy-kearney-o-ioeoATbIM-unsplash.jpg,Stimuli/Experimental_stims/objects/charlesdeluvio-1-nx1QR5dTE-unsplash.jpg,1,NaN,,NaN,unchosen,NaN,NaN,NaN,NaN,2800,0,4,1
122,71512,0,123,2,2,1,gain5,no_gain6,G,A,9,44,outdoor_scenes,objects,50,50,Stimuli/Experimental_stims/outdoor_scenes/sergey-pesterev-y-b_FOmJXdg-unsplash.jpg,Stimuli/Experimental_stims/objects/kuiye-chen-NuOGFo4PudE-unsplash.jpg,1,NaN,,NaN,unchosen,NaN,NaN,NaN,NaN,1800,0,4,1
123,71512,0,124,2,2,0,no_gain2,gain4,J,L,47,21,objects,faces,50,50,Stimuli/Experimental_stims/objects/ronaldo-arthur-vidal-Cdz_lvnl37k-unsplash.jpg,Stimuli/Experimental_stims/faces/leilani-angel-K84vnnzxmTQ-unsplash.jpg,1,NaN,,NaN,unchosen,NaN,NaN,NaN,NaN,1200,0,4,1
124,71512,0,125,2,2,0,no_gain3,gain4,E,L,42,31,objects,body_parts,50,50,Stimuli/Experimental_stims/objects/jess-bailey-nOeVi8DsN8U-unsplash.jpg,Stimuli/Experimental_stims/body_parts/sincerely-media-VN6DbKajo5s-unsplash.jpg,1,NaN,,NaN,chosen,NaN,NaN,NaN,NaN,1000,0,4,1
125,71512,0,126,2,2,1,gain3,no_gain4,I,C,4,27,outdoor_scenes,body_parts,50,50,Stimuli/Experimental_stims/outdoor_scenes/jarrett-kow-1ZOyYPOBn7I-unsplash.jpg,Stimuli/Experimental_stims/body_parts/heike-mintel-i_Gns0ELnLw-unsplash.jpg,1,NaN,,NaN,unchosen,NaN,NaN,NaN,NaN,1600,0,4,1
126,71512,0,127,2,2,0,no_gain2,gain4,J,L,14,31,faces,body_parts,50,50,Stimuli/Experimental_stims/faces/david-siglin-UuW4psOb388-unsplash.jpg,Stimuli/Experimental_stims/body_parts/sincerely-media-VN6DbKajo5s-unsplash.jpg,1,NaN,,NaN,chosen,NaN,NaN,NaN,NaN,1500,0,4,1
127,71512,0,128,2,2,0,no_gain5,gain2,F,B,23,11,faces,outdoor_scenes,50,50,Stimuli/Experimental_stims/faces/rikonavt-HQjfrvdTfak-unsplash.jpg,Stimuli/Experimental_stims/outdoor_scenes/stephen-leonardi-gyIRjKPXupE-unsplash.jpg,1,NaN,,NaN,chosen,NaN,NaN,NaN,NaN,3300,1,4,1
128,71512,0,129,2,2,0,no_gain4,gain1,C,H,0,15,outdoor_scenes,faces,50,50,Stimuli/Experimental_stims/outdoor_scenes/aleksandra-boguslawska-MS7KD9Ti7FQ-unsplash.jpg,Stimuli/Experimental_stims/faces/erik-lucatero-d2MSDujJl2g-unsplash.jpg,1,NaN,,NaN,chosen,NaN,NaN,NaN,NaN,2200,0,4,1
129,71512,0,130,2,2,0,no_gain5,gain6,F,D,29,16,body_parts,faces,50,50,Stimuli/Experimental_stims/body_parts/manuel-schinner-ZwjFuJ7ebpk-unsplash.jpg,Stimuli/Experimental_stims/faces/freddy-kearney-o-ioeoATbIM-unsplash.jpg,1,NaN,,NaN,unchosen,NaN,NaN,NaN,NaN,2400,0,4,1
130,71512,0,131,2,2,1,gain2,no_gain3,B,E,11,42,outdoor_scenes,objects,50,50,Stimuli/Experimental_stims/outdoor_scenes/stephen-leonardi-gyIRjKPXupE-unsplash.jpg,Stimuli/Experimental_stims/objects/jess-bailey-nOeVi8DsN8U-unsplash.jpg,1,NaN,,NaN,chosen,NaN,NaN,NaN,NaN,1300,0,4,1
131,71512,0,132,2,2,1,gain6,no_gain4,D,C,16,27,faces,body_parts,50,50,Stimuli/Experimental_stims/faces/freddy-kearney-o-ioeoATbIM-unsplash.jpg,Stimuli/Experimental_stims/body_parts/heike-mintel-i_Gns0ELnLw-unsplash.jpg,1,NaN,,NaN,unchosen,NaN,NaN,NaN,NaN,2400,0,4,1
132,71512,0,133,2,2,0,no_gain1,gain4,K,L,39,21,objects,faces,50,50,Stimuli/Experimental_stims/objects/charlesdeluvio-1-nx1QR5dTE-unsplash.jpg,Stimuli/Experimental_stims/faces/leilani-angel-K84vnnzxmTQ-unsplash.jpg,1,NaN,,NaN,unchosen,NaN,NaN,NaN,NaN,2200,0,4,1
133,71512,0,134,2,2,0,no_gain6,gain4,A,L,1,31,outdoor_scenes,body_parts,50,50,Stimuli/Experimental_stims/outdoor_scenes/ashim-d-silva-S2Q5mdOrrVc-unsplash.jpg,Stimuli/Experimental_stims/body_parts/sincerely-media-VN6DbKajo5s-unsplash.jpg,1,NaN,,NaN,chosen,NaN,NaN,NaN,NaN,2900,1,4,1
134,71512,0,135,2,2,1,gain1,no_gain6,H,A,15,1,faces,outdoor_scenes,50,50,Stimuli/Experimental_stims/faces/erik-lucatero-d2MSDujJl2g-unsplash.jpg,Stimuli/Experimental_stims/outdoor_scenes/ashim-d-silva-S2Q5mdOrrVc-unsplash.jpg,1,NaN,,NaN,chosen,NaN,NaN,NaN,NaN,1900,0,4,1
135,71512,0,136,2,2,0,no_gain1,gain2,K,B,39,22,objects,faces,50,50,Stimuli/Experimental_stims/objects/charlesdeluvio-1-nx1QR5dTE-unsplash.jpg,Stimuli/Experimental_stims/faces/ravi-patel-VMGAbeeJTKo-unsplash.jpg,1,NaN,,NaN,unchosen,NaN,NaN,NaN,NaN,1700,0,4,1
136,71512,0,137,2,2,0,no_gain4,gain2,C,B,27,22,body_parts,faces,50,50,Stimuli/Experimental_stims/body_parts/heike-mintel-i_Gns0ELnLw-unsplash.jpg,Stimuli/Experimental_stims/faces/ravi-patel-VMGAbeeJTKo-unsplash.jpg,1,NaN,,NaN,unchosen,NaN,NaN,NaN,NaN,1900,0,4,1
137,71512,0,138,2,2,1,gain6,no_gain6,D,A,45,1,objects,outdoor_scenes,50,50,Stimuli/Experimental_stims/objects/leohoho-rngTKHXumy0-unsplash.jpg,Stimuli/Experimental_stims/outdoor_scenes/ashim-d-silva-S2Q5mdOrrVc-unsplash.jpg,1,NaN,,NaN,chosen,NaN,NaN,NaN,NaN,1700,0,4,1
138,71512,0,139,2,2,0,no_gain3,gain2,E,B,24,22,body_parts,faces,50,50,Stimuli/Experimental_stims/body_parts/clay-banks-LjqARJaJotc-unsplash.jpg,Stimuli/Experimental_stims/faces/ravi-patel-VMGAbeeJTKo-unsplash.jpg,1,NaN,,NaN,unchosen,NaN,NaN,NaN,NaN,1300,0,4,1
139,71512,0,140,2,2,1,gain5,no_gain4,G,C,9,27,outdoor_scenes,body_parts,50,50,Stimuli/Experimental_stims/outdoor_scenes/sergey-pesterev-y-b_FOmJXdg-unsplash.jpg,Stimuli/Experimental_stims/body_parts/heike-mintel-i_Gns0ELnLw-unsplash.jpg,1,NaN,,NaN,unchosen,NaN,NaN,NaN,NaN,3600,1,4,1
140,71512,0,141,2,2,1,gain5,no_gain4,G,C,40,0,objects,outdoor_scenes,50,50,Stimuli/Experimental_stims/objects/fabian-blank-pElSkGRA2NU-unsplash.jpg,Stimuli/Experimental_stims/outdoor_scenes/aleksandra-boguslawska-MS7KD9Ti7FQ-unsplash.jpg,1,NaN,,NaN,chosen,NaN,NaN,NaN,NaN,1700,0,4,1
141,71512,0,142,2,2,0,no_gain6,gain2,A,B,1,11,outdoor_scenes,outdoor_scenes,50,50,Stimuli/Experimental_stims/outdoor_scenes/ashim-d-silva-S2Q5mdOrrVc-unsplash.jpg,Stimuli/Experimental_stims/outdoor_scenes/stephen-leonardi-gyIRjKPXupE-unsplash.jpg,1,NaN,,NaN,chosen,NaN,NaN,NaN,NaN,1900,0,4,1
142,71512,0,143,2,2,0,no_gain2,gain1,J,H,14,15,faces,faces,50,50,Stimuli/Experimental_stims/faces/david-siglin-UuW4psOb388-unsplash.jpg,Stimuli/Experimental_stims/faces/erik-lucatero-d2MSDujJl2g-unsplash.jpg,1,NaN,,NaN,chosen,NaN,NaN,NaN,NaN,2200,0,4,1
143,71512,0,144,2,2,0,no_gain3,gain5,E,G,24,9,body_parts,outdoor_scenes,50,50,Stimuli/Experimental_stims/body_parts/clay-banks-LjqARJaJotc-unsplash.jpg,Stimuli/Experimental_stims/outdoor_scenes/sergey-pesterev-y-b_FOmJXdg-unsplash.jpg,1,NaN,,NaN,unchosen,NaN,NaN,NaN,NaN,1800,0,4,1
144,71512,0,145,2,2,0,no_gain6,gain3,A,I,44,4,objects,outdoor_scenes,50,50,Stimuli/Experimental_stims/objects/kuiye-chen-NuOGFo4PudE-unsplash.jpg,Stimuli/Experimental_stims/outdoor_scenes/jarrett-kow-1ZOyYPOBn7I-unsplash.jpg,1,NaN,,NaN,unchosen,NaN,NaN,NaN,NaN,1400,0,4,1
145,71512,0,146,2,2,0,no_gain2,gain3,J,I,14,35,faces,body_parts,50,50,Stimuli/Experimental_stims/faces/david-siglin-UuW4psOb388-unsplash.jpg,Stimuli/Experimental_stims/body_parts/wc-so-KH4AAPjb-tI-unsplash.jpg,1,NaN,,NaN,chosen,NaN,NaN,NaN,NaN,1800,0,4,1
146,71512,0,147,2,2,1,gain3,no_gain2,I,J,4,47,outdoor_scenes,objects,50,50,Stimuli/Experimental_stims/outdoor_scenes/jarrett-kow-1ZOyYPOBn7I-unsplash.jpg,Stimuli/Experimental_stims/objects/ronaldo-arthur-vidal-Cdz_lvnl37k-unsplash.jpg,1,NaN,,NaN,unchosen,NaN,NaN,NaN,NaN,1300,0,4,1
147,71512,0,148,2,2,1,gain1,no_gain6,H,A,8,44,outdoor_scenes,objects,50,50,Stimuli/Experimental_stims/outdoor_scenes/samsommer-vddccTqwal8-unsplash.jpg,Stimuli/Experimental_stims/objects/kuiye-chen-NuOGFo4PudE-unsplash.jpg,1,NaN,,NaN,unchosen,NaN,NaN,NaN,NaN,3600,1,4,1
148,71512,0,149,3,3,1,gain3,no_gain6,I,A,4,44,outdoor_scenes,objects,50,50,Stimuli/Experimental_stims/outdoor_scenes/jarrett-kow-1ZOyYPOBn7I-unsplash.jpg,Stimuli/Experimental_stims/objects/kuiye-chen-NuOGFo4PudE-unsplash.jpg,1,NaN,,NaN,unchosen,NaN,NaN,NaN,NaN,1200,0,5,1
149,71512,0,150,3,3,1,gain3,no_gain3,I,E,35,42,body_parts,objects,50,50,Stimuli/Experimental_stims/body_parts/wc-so-KH4AAPjb-tI-unsplash.jpg,Stimuli/Experimental_stims/objects/jess-bailey-nOeVi8DsN8U-unsplash.jpg,1,NaN,,NaN,chosen,NaN,NaN,NaN,NaN,1100,0,5,1
150,71512,0,151,3,3,1,gain1,no_gain4,H,C,15,0,faces,outdoor_scenes,50,50,Stimuli/Experimental_stims/faces/erik-lucatero-d2MSDujJl2g-unsplash.jpg,Stimuli/Experimental_stims/outdoor_scenes/aleksandra-boguslawska-MS7KD9Ti7FQ-unsplash.jpg,1,NaN,,NaN,chosen,NaN,NaN,NaN,NaN,1100,0,5,1
151,71512,0,152,3,3,1,gain5,no_gain6,G,A,9,44,outdoor_scenes,objects,50,50,Stimuli/Experimental_stims/outdoor_scenes/sergey-pesterev-y-b_FOmJXdg-unsplash.jpg,Stimuli/Experimental_stims/objects/kuiye-chen-NuOGFo4PudE-unsplash.jpg,1,NaN,,NaN,unchosen,NaN,NaN,NaN,NaN,1300,0,5,1
152,71512,0,153,3,3,1,gain2,no_gain6,B,A,11,1,outdoor_scenes,outdoor_scenes,50,50,Stimuli/Experimental_stims/outdoor_scenes/stephen-leonardi-gyIRjKPXupE-unsplash.jpg,Stimuli/Experimental_stims/outdoor_scenes/ashim-d-silva-S2Q5mdOrrVc-unsplash.jpg,0,1,46,1,chosen,11,1,outdoor_scenes,outdoor_scenes,3300,1,5,1
153,71512,0,154,3,3,1,gain6,no_gain6,D,A,45,1,objects,outdoor_scenes,50,50,Stimuli/Experimental_stims/objects/leohoho-rngTKHXumy0-unsplash.jpg,Stimuli/Experimental_stims/outdoor_scenes/ashim-d-silva-S2Q5mdOrrVc-unsplash.jpg,0,1,60,1,chosen,45,1,objects,outdoor_scenes,1000,0,5,1
154,71512,0,155,3,3,1,gain1,no_gain2,H,J,8,47,outdoor_scenes,objects,50,50,Stimuli/Experimental_stims/outdoor_scenes/samsommer-vddccTqwal8-unsplash.jpg,Stimuli/Experimental_stims/objects/ronaldo-arthur-vidal-Cdz_lvnl37k-unsplash.jpg,0,1,57,1,unchosen,8,47,outdoor_scenes,objects,1300,0,5,1
155,71512,0,156,3,3,0,no_gain4,gain3,C,I,0,35,outdoor_scenes,body_parts,50,50,Stimuli/Experimental_stims/outdoor_scenes/aleksandra-boguslawska-MS7KD9Ti7FQ-unsplash.jpg,Stimuli/Experimental_stims/body_parts/wc-so-KH4AAPjb-tI-unsplash.jpg,0,1,58,0,chosen,0,35,outdoor_scenes,body_parts,1300,0,5,1
156,71512,0,157,3,3,0,no_gain4,gain4,C,L,0,31,outdoor_scenes,body_parts,50,50,Stimuli/Experimental_stims/outdoor_scenes/aleksandra-boguslawska-MS7KD9Ti7FQ-unsplash.jpg,Stimuli/Experimental_stims/body_parts/sincerely-media-VN6DbKajo5s-unsplash.jpg,0,1,50,0,chosen,0,31,outdoor_scenes,body_parts,1600,0,5,1
157,71512,0,158,3,3,1,gain6,no_gain3,D,E,45,42,objects,objects,50,50,Stimuli/Experimental_stims/objects/leohoho-rngTKHXumy0-unsplash.jpg,Stimuli/Experimental_stims/objects/jess-bailey-nOeVi8DsN8U-unsplash.jpg,0,1,50,1,chosen,45,42,objects,objects,1400,0,5,1
158,71512,0,159,3,3,0,no_gain1,gain2,K,B,39,22,objects,faces,50,50,Stimuli/Experimental_stims/objects/charlesdeluvio-1-nx1QR5dTE-unsplash.jpg,Stimuli/Experimental_stims/faces/ravi-patel-VMGAbeeJTKo-unsplash.jpg,0,1,56,0,unchosen,39,22,objects,faces,2100,0,5,1
159,71512,0,160,3,3,0,no_gain4,gain3,C,I,27,4,body_parts,outdoor_scenes,50,50,Stimuli/Experimental_stims/body_parts/heike-mintel-i_Gns0ELnLw-unsplash.jpg,Stimuli/Experimental_stims/outdoor_scenes/jarrett-kow-1ZOyYPOBn7I-unsplash.jpg,0,1,52,0,unchosen,27,4,body_parts,outdoor_scenes,1200,0,5,1
160,71512,0,161,3,3,0,no_gain1,gain3,K,I,26,35,body_parts,body_parts,50,50,Stimuli/Experimental_stims/body_parts/engin-akyurt-x_3gyC42btc-unsplash.jpg,Stimuli/Experimental_stims/body_parts/wc-so-KH4AAPjb-tI-unsplash.jpg,0,1,65,0,chosen,26,35,body_parts,body_parts,4100,1,5,1
161,71512,0,162,3,3,0,no_gain1,gain4,K,L,39,21,objects,faces,50,50,Stimuli/Experimental_stims/objects/charlesdeluvio-1-nx1QR5dTE-unsplash.jpg,Stimuli/Experimental_stims/faces/leilani-angel-K84vnnzxmTQ-unsplash.jpg,0,1,71,0,unchosen,39,21,objects,faces,1900,0,5,1
162,71512,0,163,3,3,1,gain5,no_gain5,G,F,40,23,objects,faces,50,50,Stimuli/Experimental_stims/objects/fabian-blank-pElSkGRA2NU-unsplash.jpg,Stimuli/Experimental_stims/faces/rikonavt-HQjfrvdTfak-unsplash.jpg,0,1,65,1,chosen,40,23,objects,faces,2000,0,5,1
163,71512,0,164,3,3,0,no_gain2,gain5,J,G,47,9,objects,outdoor_scenes,50,50,Stimuli/Experimental_stims/objects/ronaldo-arthur-vidal-Cdz_lvnl37k-unsplash.jpg,Stimuli/Experimental_stims/outdoor_scenes/sergey-pesterev-y-b_FOmJXdg-unsplash.jpg,0,1,65,0,unchosen,47,9,objects,outdoor_scenes,2600,0,5,1
164,71512,0,165,3,3,1,gain1,no_gain4,H,C,8,27,outdoor_scenes,body_parts,50,50,Stimuli/Experimental_stims/outdoor_scenes/samsommer-vddccTqwal8-unsplash.jpg,Stimuli/Experimental_stims/body_parts/heike-mintel-i_Gns0ELnLw-unsplash.jpg,0,1,71,1,unchosen,8,27,outdoor_scenes,body_parts,1100,0,5,1
165,71512,0,166,3,3,0,no_gain4,gain5,C,G,0,40,outdoor_scenes,objects,50,50,Stimuli/Experimental_stims/outdoor_scenes/aleksandra-boguslawska-MS7KD9Ti7FQ-unsplash.jpg,Stimuli/Experimental_stims/objects/fabian-blank-pElSkGRA2NU-unsplash.jpg,0,1,81,0,chosen,0,40,outdoor_scenes,objects,4400,1,5,1
166,71512,0,167,3,3,0,no_gain5,gain4,F,L,29,21,body_parts,faces,50,50,Stimuli/Experimental_stims/body_parts/manuel-schinner-ZwjFuJ7ebpk-unsplash.jpg,Stimuli/Experimental_stims/faces/leilani-angel-K84vnnzxmTQ-unsplash.jpg,0,1,61,0,unchosen,29,21,body_parts,faces,1200,0,5,1
167,71512,0,168,3,3,0,no_gain5,gain6,F,D,23,45,faces,objects,50,50,Stimuli/Experimental_stims/faces/rikonavt-HQjfrvdTfak-unsplash.jpg,Stimuli/Experimental_stims/objects/leohoho-rngTKHXumy0-unsplash.jpg,0,1,63,0,chosen,23,45,faces,objects,1100,0,5,1
168,71512,0,169,3,3,1,gain1,no_gain6,H,A,8,44,outdoor_scenes,objects,50,50,Stimuli/Experimental_stims/outdoor_scenes/samsommer-vddccTqwal8-unsplash.jpg,Stimuli/Experimental_stims/objects/kuiye-chen-NuOGFo4PudE-unsplash.jpg,0,1,34,1,unchosen,8,44,outdoor_scenes,objects,1700,0,5,1
169,71512,0,170,3,3,1,gain2,no_gain2,B,J,11,14,outdoor_scenes,faces,50,50,Stimuli/Experimental_stims/outdoor_scenes/stephen-leonardi-gyIRjKPXupE-unsplash.jpg,Stimuli/Experimental_stims/faces/david-siglin-UuW4psOb388-unsplash.jpg,0,0,8,0,chosen,14,11,faces,outdoor_scenes,1100,0,5,1
170,71512,0,171,3,3,0,no_gain2,gain4,J,L,47,21,objects,faces,50,50,Stimuli/Experimental_stims/objects/ronaldo-arthur-vidal-Cdz_lvnl37k-unsplash.jpg,Stimuli/Experimental_stims/faces/leilani-angel-K84vnnzxmTQ-unsplash.jpg,0,0,40,1,unchosen,21,47,faces,objects,3300,1,5,1
171,71512,0,172,3,3,0,no_gain3,gain2,E,B,42,11,objects,outdoor_scenes,50,50,Stimuli/Experimental_stims/objects/jess-bailey-nOeVi8DsN8U-unsplash.jpg,Stimuli/Experimental_stims/outdoor_scenes/stephen-leonardi-gyIRjKPXupE-unsplash.jpg,0,0,24,1,chosen,11,42,outdoor_scenes,objects,2800,0,5,1
172,71512,0,173,3,3,0,no_gain4,gain2,C,B,0,11,outdoor_scenes,outdoor_scenes,50,50,Stimuli/Experimental_stims/outdoor_scenes/aleksandra-boguslawska-MS7KD9Ti7FQ-unsplash.jpg,Stimuli/Experimental_stims/outdoor_scenes/stephen-leonardi-gyIRjKPXupE-unsplash.jpg,0,0,8,1,chosen,11,0,outdoor_scenes,outdoor_scenes,1000,0,5,1
173,71512,0,174,3,3,0,no_gain1,gain6,K,D,39,16,objects,faces,50,50,Stimuli/Experimental_stims/objects/charlesdeluvio-1-nx1QR5dTE-unsplash.jpg,Stimuli/Experimental_stims/faces/freddy-kearney-o-ioeoATbIM-unsplash.jpg,0,0,13,1,unchosen,16,39,faces,objects,3100,0,5,1
174,71512,0,175,3,3,1,gain4,no_gain1,L,K,31,26,body_parts,body_parts,50,50,Stimuli/Experimental_stims/body_parts/sincerely-media-VN6DbKajo5s-unsplash.jpg,Stimuli/Experimental_stims/body_parts/engin-akyurt-x_3gyC42btc-unsplash.jpg,0,0,8,0,chosen,26,31,body_parts,body_parts,2000,0,5,1
175,71512,0,176,3,3,0,no_gain6,gain6,A,D,44,16,objects,faces,50,50,Stimuli/Experimental_stims/objects/kuiye-chen-NuOGFo4PudE-unsplash.jpg,Stimuli/Experimental_stims/faces/freddy-kearney-o-ioeoATbIM-unsplash.jpg,0,0,24,1,unchosen,16,44,faces,objects,2300,0,5,1
176,71512,0,177,3,3,0,no_gain2,gain5,J,G,14,40,faces,objects,50,50,Stimuli/Experimental_stims/faces/david-siglin-UuW4psOb388-unsplash.jpg,Stimuli/Experimental_stims/objects/fabian-blank-pElSkGRA2NU-unsplash.jpg,0,0,13,1,chosen,40,14,objects,faces,1500,0,5,1
177,71512,0,178,3,3,0,no_gain5,gain2,F,B,29,22,body_parts,faces,50,50,Stimuli/Experimental_stims/body_parts/manuel-schinner-ZwjFuJ7ebpk-unsplash.jpg,Stimuli/Experimental_stims/faces/ravi-patel-VMGAbeeJTKo-unsplash.jpg,0,0,8,1,unchosen,22,29,faces,body_parts,1600,0,5,1
178,71512,0,179,3,3,1,gain6,no_gain1,D,K,45,26,objects,body_parts,50,50,Stimuli/Experimental_stims/objects/leohoho-rngTKHXumy0-unsplash.jpg,Stimuli/Experimental_stims/body_parts/engin-akyurt-x_3gyC42btc-unsplash.jpg,0,0,11,0,chosen,26,45,body_parts,objects,4200,1,5,1
179,71512,0,180,3,3,0,no_gain5,gain4,F,L,23,31,faces,body_parts,50,50,Stimuli/Experimental_stims/faces/rikonavt-HQjfrvdTfak-unsplash.jpg,Stimuli/Experimental_stims/body_parts/sincerely-media-VN6DbKajo5s-unsplash.jpg,0,0,19,1,chosen,31,23,body_parts,faces,1000,0,5,1
180,71512,0,181,3,3,0,no_gain6,gain3,A,I,1,35,outdoor_scenes,body_parts,50,50,Stimuli/Experimental_stims/outdoor_scenes/ashim-d-silva-S2Q5mdOrrVc-unsplash.jpg,Stimuli/Experimental_stims/body_parts/wc-so-KH4AAPjb-tI-unsplash.jpg,0,0,19,1,chosen,35,1,body_parts,outdoor_scenes,2000,0,5,1
181,71512,0,182,3,3,1,gain4,no_gain3,L,E,21,24,faces,body_parts,50,50,Stimuli/Experimental_stims/faces/leilani-angel-K84vnnzxmTQ-unsplash.jpg,Stimuli/Experimental_stims/body_parts/clay-banks-LjqARJaJotc-unsplash.jpg,0,0,24,0,unchosen,24,21,body_parts,faces,1700,0,5,1
182,71512,0,183,3,3,1,gain2,no_gain6,B,A,22,44,faces,objects,50,50,Stimuli/Experimental_stims/faces/ravi-patel-VMGAbeeJTKo-unsplash.jpg,Stimuli/Experimental_stims/objects/kuiye-chen-NuOGFo4PudE-unsplash.jpg,0,0,13,0,unchosen,44,22,objects,faces,2300,0,5,1
183,71512,0,184,3,3,1,gain4,no_gain4,L,C,21,27,faces,body_parts,50,50,Stimuli/Experimental_stims/faces/leilani-angel-K84vnnzxmTQ-unsplash.jpg,Stimuli/Experimental_stims/body_parts/heike-mintel-i_Gns0ELnLw-unsplash.jpg,0,0,31,0,unchosen,27,21,body_parts,faces,3300,1,5,1
184,71512,0,185,3,3,0,no_gain1,gain2,K,B,26,11,body_parts,outdoor_scenes,50,50,Stimuli/Experimental_stims/body_parts/engin-akyurt-x_3gyC42btc-unsplash.jpg,Stimuli/Experimental_stims/outdoor_scenes/stephen-leonardi-gyIRjKPXupE-unsplash.jpg,0,0,29,1,chosen,11,26,outdoor_scenes,body_parts,1100,0,5,1
185,71512,0,186,3,3,0,no_gain4,gain6,C,D,0,45,outdoor_scenes,objects,50,50,Stimuli/Experimental_stims/outdoor_scenes/aleksandra-boguslawska-MS7KD9Ti7FQ-unsplash.jpg,Stimuli/Experimental_stims/objects/leohoho-rngTKHXumy0-unsplash.jpg,0,0,31,1,chosen,45,0,objects,outdoor_scenes,1900,0,5,1
186,71512,0,187,3,3,1,gain3,no_gain5,I,F,35,23,body_parts,faces,50,50,Stimuli/Experimental_stims/body_parts/wc-so-KH4AAPjb-tI-unsplash.jpg,Stimuli/Experimental_stims/faces/rikonavt-HQjfrvdTfak-unsplash.jpg,0,0,36,0,chosen,23,35,faces,body_parts,2400,0,5,1
187,71512,0,188,3,3,0,no_gain2,gain6,J,D,47,16,objects,faces,50,50,Stimuli/Experimental_stims/objects/ronaldo-arthur-vidal-Cdz_lvnl37k-unsplash.jpg,Stimuli/Experimental_stims/faces/freddy-kearney-o-ioeoATbIM-unsplash.jpg,0,0,46,1,unchosen,16,47,faces,objects,1900,0,5,1
188,71512,0,189,3,3,0,no_gain1,gain1,K,H,39,8,objects,outdoor_scenes,50,50,Stimuli/Experimental_stims/objects/charlesdeluvio-1-nx1QR5dTE-unsplash.jpg,Stimuli/Experimental_stims/outdoor_scenes/samsommer-vddccTqwal8-unsplash.jpg,0,0,46,1,unchosen,8,39,outdoor_scenes,objects,3300,1,5,1
189,71512,0,190,3,3,0,no_gain3,gain5,E,G,24,9,body_parts,outdoor_scenes,50,50,Stimuli/Experimental_stims/body_parts/clay-banks-LjqARJaJotc-unsplash.jpg,Stimuli/Experimental_stims/outdoor_scenes/sergey-pesterev-y-b_FOmJXdg-unsplash.jpg,0,0,31,1,unchosen,9,24,outdoor_scenes,body_parts,1200,0,5,1
190,71512,0,191,3,3,1,gain1,no_gain1,H,K,15,26,faces,body_parts,50,50,Stimuli/Experimental_stims/faces/erik-lucatero-d2MSDujJl2g-unsplash.jpg,Stimuli/Experimental_stims/body_parts/engin-akyurt-x_3gyC42btc-unsplash.jpg,0,0,56,0,chosen,26,15,body_parts,faces,1100,0,5,1
191,71512,0,192,3,3,0,no_gain4,gain5,C,G,27,9,body_parts,outdoor_scenes,50,50,Stimuli/Experimental_stims/body_parts/heike-mintel-i_Gns0ELnLw-unsplash.jpg,Stimuli/Experimental_stims/outdoor_scenes/sergey-pesterev-y-b_FOmJXdg-unsplash.jpg,0,0,34,1,unchosen,9,27,outdoor_scenes,body_parts,1400,0,5,1
192,71512,0,193,3,3,1,gain3,no_gain1,I,K,4,39,outdoor_scenes,objects,50,50,Stimuli/Experimental_stims/outdoor_scenes/jarrett-kow-1ZOyYPOBn7I-unsplash.jpg,Stimuli/Experimental_stims/objects/charlesdeluvio-1-nx1QR5dTE-unsplash.jpg,0,0,58,0,unchosen,39,4,objects,outdoor_scenes,2600,0,5,1
193,71512,0,194,3,3,1,gain6,no_gain4,D,C,16,27,faces,body_parts,50,50,Stimuli/Experimental_stims/faces/freddy-kearney-o-ioeoATbIM-unsplash.jpg,Stimuli/Experimental_stims/body_parts/heike-mintel-i_Gns0ELnLw-unsplash.jpg,0,0,51,0,unchosen,27,16,body_parts,faces,1100,0,5,1
194,71512,0,195,3,3,1,gain1,no_gain3,H,E,15,42,faces,objects,50,50,Stimuli/Experimental_stims/faces/erik-lucatero-d2MSDujJl2g-unsplash.jpg,Stimuli/Experimental_stims/objects/jess-bailey-nOeVi8DsN8U-unsplash.jpg,0,0,45,0,chosen,42,15,objects,faces,4100,1,5,1
195,71512,0,196,3,3,1,gain6,no_gain3,D,E,16,24,faces,body_parts,50,50,Stimuli/Experimental_stims/faces/freddy-kearney-o-ioeoATbIM-unsplash.jpg,Stimuli/Experimental_stims/body_parts/clay-banks-LjqARJaJotc-unsplash.jpg,0,0,56,0,unchosen,24,16,body_parts,faces,1000,0,5,1
196,71512,0,197,3,3,0,no_gain3,gain4,E,L,42,31,objects,body_parts,50,50,Stimuli/Experimental_stims/objects/jess-bailey-nOeVi8DsN8U-unsplash.jpg,Stimuli/Experimental_stims/body_parts/sincerely-media-VN6DbKajo5s-unsplash.jpg,0,0,46,1,chosen,31,42,body_parts,objects,1800,0,5,1
197,71512,0,198,3,3,1,gain1,no_gain3,H,E,8,24,outdoor_scenes,body_parts,50,50,Stimuli/Experimental_stims/outdoor_scenes/samsommer-vddccTqwal8-unsplash.jpg,Stimuli/Experimental_stims/body_parts/clay-banks-LjqARJaJotc-unsplash.jpg,0,0,61,0,unchosen,24,8,body_parts,outdoor_scenes,1600,0,5,1
198,71512,0,199,3,3,1,gain4,no_gain6,L,A,21,44,faces,objects,50,50,Stimuli/Experimental_stims/faces/leilani-angel-K84vnnzxmTQ-unsplash.jpg,Stimuli/Experimental_stims/objects/kuiye-chen-NuOGFo4PudE-unsplash.jpg,0,0,54,0,unchosen,44,21,objects,faces,2100,0,5,1
199,71512,0,200,3,3,1,gain2,no_gain4,B,C,22,27,faces,body_parts,50,50,Stimuli/Experimental_stims/faces/ravi-patel-VMGAbeeJTKo-unsplash.jpg,Stimuli/Experimental_stims/body_parts/heike-mintel-i_Gns0ELnLw-unsplash.jpg,0,0,60,0,unchosen,27,22,body_parts,faces,1700,0,5,1
200,71512,0,201,3,3,1,gain5,no_gain3,G,E,40,42,objects,objects,50,50,Stimuli/Experimental_stims/objects/fabian-blank-pElSkGRA2NU-unsplash.jpg,Stimuli/Experimental_stims/objects/jess-bailey-nOeVi8DsN8U-unsplash.jpg,0,0,73,0,chosen,42,40,objects,objects,3200,1,5,1
201,71512,0,202,3,3,0,no_gain6,gain4,A,L,1,31,outdoor_scenes,body_parts,50,50,Stimuli/Experimental_stims/outdoor_scenes/ashim-d-silva-S2Q5mdOrrVc-unsplash.jpg,Stimuli/Experimental_stims/body_parts/sincerely-media-VN6DbKajo5s-unsplash.jpg,0,0,67,1,chosen,31,1,body_parts,outdoor_scenes,1100,0,5,1
202,71512,0,203,3,3,1,gain2,no_gain2,B,J,22,47,faces,objects,50,50,Stimuli/Experimental_stims/faces/ravi-patel-VMGAbeeJTKo-unsplash.jpg,Stimuli/Experimental_stims/objects/ronaldo-arthur-vidal-Cdz_lvnl37k-unsplash.jpg,0,0,79,0,unchosen,47,22,objects,faces,2800,0,5,1
203,71512,0,204,3,3,1,gain2,no_gain5,B,F,11,23,outdoor_scenes,faces,50,50,Stimuli/Experimental_stims/outdoor_scenes/stephen-leonardi-gyIRjKPXupE-unsplash.jpg,Stimuli/Experimental_stims/faces/rikonavt-HQjfrvdTfak-unsplash.jpg,0,0,85,0,chosen,23,11,faces,outdoor_scenes,1400,0,5,1
204,71512,0,205,3,3,1,gain1,no_gain2,H,J,15,14,faces,faces,50,50,Stimuli/Experimental_stims/faces/erik-lucatero-d2MSDujJl2g-unsplash.jpg,Stimuli/Experimental_stims/faces/david-siglin-UuW4psOb388-unsplash.jpg,0,0,85,0,chosen,14,15,faces,faces,2200,0,5,1
205,71512,0,206,3,3,1,gain3,no_gain3,I,E,4,24,outdoor_scenes,body_parts,50,50,Stimuli/Experimental_stims/outdoor_scenes/jarrett-kow-1ZOyYPOBn7I-unsplash.jpg,Stimuli/Experimental_stims/body_parts/clay-banks-LjqARJaJotc-unsplash.jpg,0,0,58,0,unchosen,24,4,body_parts,outdoor_scenes,1200,0,5,1
206,71512,0,207,3,3,0,no_gain6,gain5,A,G,1,40,outdoor_scenes,objects,50,50,Stimuli/Experimental_stims/outdoor_scenes/ashim-d-silva-S2Q5mdOrrVc-unsplash.jpg,Stimuli/Experimental_stims/objects/fabian-blank-pElSkGRA2NU-unsplash.jpg,0,0,39,1,chosen,40,1,objects,outdoor_scenes,2100,0,5,1
207,71512,0,208,3,3,1,gain1,no_gain5,H,F,15,23,faces,faces,50,50,Stimuli/Experimental_stims/faces/erik-lucatero-d2MSDujJl2g-unsplash.jpg,Stimuli/Experimental_stims/faces/rikonavt-HQjfrvdTfak-unsplash.jpg,1,NaN,,NaN,chosen,NaN,NaN,NaN,NaN,2600,0,5,1
208,71512,0,209,3,3,0,no_gain2,gain3,J,I,47,4,objects,outdoor_scenes,50,50,Stimuli/Experimental_stims/objects/ronaldo-arthur-vidal-Cdz_lvnl37k-unsplash.jpg,Stimuli/Experimental_stims/outdoor_scenes/jarrett-kow-1ZOyYPOBn7I-unsplash.jpg,1,NaN,,NaN,unchosen,NaN,NaN,NaN,NaN,3800,1,5,1
209,71512,0,210,3,3,0,no_gain6,gain1,A,H,1,15,outdoor_scenes,faces,50,50,Stimuli/Experimental_stims/outdoor_scenes/ashim-d-silva-S2Q5mdOrrVc-unsplash.jpg,Stimuli/Experimental_stims/faces/erik-lucatero-d2MSDujJl2g-unsplash.jpg,1,NaN,,NaN,chosen,NaN,NaN,NaN,NaN,2300,0,5,1
210,71512,0,211,3,3,1,gain3,no_gain2,I,J,35,14,body_parts,faces,50,50,Stimuli/Experimental_stims/body_parts/wc-so-KH4AAPjb-tI-unsplash.jpg,Stimuli/Experimental_stims/faces/david-siglin-UuW4psOb388-unsplash.jpg,1,NaN,,NaN,chosen,NaN,NaN,NaN,NaN,1500,0,5,1
211,71512,0,212,3,3,0,no_gain3,gain2,E,B,24,22,body_parts,faces,50,50,Stimuli/Experimental_stims/body_parts/clay-banks-LjqARJaJotc-unsplash.jpg,Stimuli/Experimental_stims/faces/ravi-patel-VMGAbeeJTKo-unsplash.jpg,1,NaN,,NaN,unchosen,NaN,NaN,NaN,NaN,1700,0,5,1
212,71512,0,213,3,3,1,gain5,no_gain5,G,F,9,29,outdoor_scenes,body_parts,50,50,Stimuli/Experimental_stims/outdoor_scenes/sergey-pesterev-y-b_FOmJXdg-unsplash.jpg,Stimuli/Experimental_stims/body_parts/manuel-schinner-ZwjFuJ7ebpk-unsplash.jpg,1,NaN,,NaN,unchosen,NaN,NaN,NaN,NaN,1000,0,5,1
213,71512,0,214,3,3,1,gain6,no_gain5,D,F,16,29,faces,body_parts,50,50,Stimuli/Experimental_stims/faces/freddy-kearney-o-ioeoATbIM-unsplash.jpg,Stimuli/Experimental_stims/body_parts/manuel-schinner-ZwjFuJ7ebpk-unsplash.jpg,1,NaN,,NaN,unchosen,NaN,NaN,NaN,NaN,2800,0,5,1
214,71512,0,215,3,3,0,no_gain1,gain5,K,G,26,40,body_parts,objects,50,50,Stimuli/Experimental_stims/body_parts/engin-akyurt-x_3gyC42btc-unsplash.jpg,Stimuli/Experimental_stims/objects/fabian-blank-pElSkGRA2NU-unsplash.jpg,1,NaN,,NaN,chosen,NaN,NaN,NaN,NaN,2400,0,5,1
215,71512,0,216,3,3,0,no_gain1,gain5,K,G,39,9,objects,outdoor_scenes,50,50,Stimuli/Experimental_stims/objects/charlesdeluvio-1-nx1QR5dTE-unsplash.jpg,Stimuli/Experimental_stims/outdoor_scenes/sergey-pesterev-y-b_FOmJXdg-unsplash.jpg,1,NaN,,NaN,unchosen,NaN,NaN,NaN,NaN,3800,1,5,1
216,71512,0,217,3,3,0,no_gain5,gain3,F,I,29,4,body_parts,outdoor_scenes,50,50,Stimuli/Experimental_stims/body_parts/manuel-schinner-ZwjFuJ7ebpk-unsplash.jpg,Stimuli/Experimental_stims/outdoor_scenes/jarrett-kow-1ZOyYPOBn7I-unsplash.jpg,1,NaN,,NaN,unchosen,NaN,NaN,NaN,NaN,1500,0,5,1
217,71512,0,218,3,3,0,no_gain5,gain1,F,H,29,8,body_parts,outdoor_scenes,50,50,Stimuli/Experimental_stims/body_parts/manuel-schinner-ZwjFuJ7ebpk-unsplash.jpg,Stimuli/Experimental_stims/outdoor_scenes/samsommer-vddccTqwal8-unsplash.jpg,1,NaN,,NaN,unchosen,NaN,NaN,NaN,NaN,1100,0,5,1
218,71512,0,219,3,3,1,gain4,no_gain2,L,J,31,14,body_parts,faces,50,50,Stimuli/Experimental_stims/body_parts/sincerely-media-VN6DbKajo5s-unsplash.jpg,Stimuli/Experimental_stims/faces/david-siglin-UuW4psOb388-unsplash.jpg,1,NaN,,NaN,chosen,NaN,NaN,NaN,NaN,1500,0,5,1
219,71512,0,220,3,3,0,no_gain2,gain6,J,D,14,45,faces,objects,50,50,Stimuli/Experimental_stims/faces/david-siglin-UuW4psOb388-unsplash.jpg,Stimuli/Experimental_stims/objects/leohoho-rngTKHXumy0-unsplash.jpg,1,NaN,,NaN,chosen,NaN,NaN,NaN,NaN,2500,0,5,1
220,71512,0,221,4,4,0,no_gain5,gain1,F,H,29,8,body_parts,outdoor_scenes,50,50,Stimuli/Experimental_stims/body_parts/manuel-schinner-ZwjFuJ7ebpk-unsplash.jpg,Stimuli/Experimental_stims/outdoor_scenes/samsommer-vddccTqwal8-unsplash.jpg,1,NaN,,NaN,unchosen,NaN,NaN,NaN,NaN,3400,1,3,1
221,71512,0,222,4,4,0,no_gain5,gain4,F,L,23,31,faces,body_parts,50,50,Stimuli/Experimental_stims/faces/rikonavt-HQjfrvdTfak-unsplash.jpg,Stimuli/Experimental_stims/body_parts/sincerely-media-VN6DbKajo5s-unsplash.jpg,1,NaN,,NaN,chosen,NaN,NaN,NaN,NaN,1500,0,3,1
222,71512,0,223,4,4,0,no_gain2,gain3,J,I,47,4,objects,outdoor_scenes,50,50,Stimuli/Experimental_stims/objects/ronaldo-arthur-vidal-Cdz_lvnl37k-unsplash.jpg,Stimuli/Experimental_stims/outdoor_scenes/jarrett-kow-1ZOyYPOBn7I-unsplash.jpg,1,NaN,,NaN,unchosen,NaN,NaN,NaN,NaN,2000,0,3,1
223,71512,0,224,4,4,0,no_gain4,gain3,C,I,27,4,body_parts,outdoor_scenes,50,50,Stimuli/Experimental_stims/body_parts/heike-mintel-i_Gns0ELnLw-unsplash.jpg,Stimuli/Experimental_stims/outdoor_scenes/jarrett-kow-1ZOyYPOBn7I-unsplash.jpg,1,NaN,,NaN,unchosen,NaN,NaN,NaN,NaN,1100,0,3,1
224,71512,0,225,4,4,0,no_gain1,gain6,K,D,39,16,objects,faces,50,50,Stimuli/Experimental_stims/objects/charlesdeluvio-1-nx1QR5dTE-unsplash.jpg,Stimuli/Experimental_stims/faces/freddy-kearney-o-ioeoATbIM-unsplash.jpg,1,NaN,,NaN,unchosen,NaN,NaN,NaN,NaN,2700,0,3,1
225,71512,0,226,4,4,0,no_gain4,gain2,C,B,0,11,outdoor_scenes,outdoor_scenes,50,50,Stimuli/Experimental_stims/outdoor_scenes/aleksandra-boguslawska-MS7KD9Ti7FQ-unsplash.jpg,Stimuli/Experimental_stims/outdoor_scenes/stephen-leonardi-gyIRjKPXupE-unsplash.jpg,1,NaN,,NaN,chosen,NaN,NaN,NaN,NaN,1700,0,3,1
226,71512,0,227,4,4,0,no_gain1,gain1,K,H,26,15,body_parts,faces,50,50,Stimuli/Experimental_stims/body_parts/engin-akyurt-x_3gyC42btc-unsplash.jpg,Stimuli/Experimental_stims/faces/erik-lucatero-d2MSDujJl2g-unsplash.jpg,1,NaN,,NaN,chosen,NaN,NaN,NaN,NaN,3500,1,3,1
227,71512,0,228,4,4,0,no_gain3,gain3,E,I,24,4,body_parts,outdoor_scenes,50,50,Stimuli/Experimental_stims/body_parts/clay-banks-LjqARJaJotc-unsplash.jpg,Stimuli/Experimental_stims/outdoor_scenes/jarrett-kow-1ZOyYPOBn7I-unsplash.jpg,1,NaN,,NaN,unchosen,NaN,NaN,NaN,NaN,2700,0,3,1
228,71512,0,229,4,4,1,gain4,no_gain5,L,F,21,29,faces,body_parts,50,50,Stimuli/Experimental_stims/faces/leilani-angel-K84vnnzxmTQ-unsplash.jpg,Stimuli/Experimental_stims/body_parts/manuel-schinner-ZwjFuJ7ebpk-unsplash.jpg,1,NaN,,NaN,unchosen,NaN,NaN,NaN,NaN,1500,0,3,1
229,71512,0,230,4,4,0,no_gain6,gain1,A,H,1,15,outdoor_scenes,faces,50,50,Stimuli/Experimental_stims/outdoor_scenes/ashim-d-silva-S2Q5mdOrrVc-unsplash.jpg,Stimuli/Experimental_stims/faces/erik-lucatero-d2MSDujJl2g-unsplash.jpg,1,NaN,,NaN,chosen,NaN,NaN,NaN,NaN,1700,0,3,1
230,71512,0,231,4,4,0,no_gain1,gain2,K,B,39,22,objects,faces,50,50,Stimuli/Experimental_stims/objects/charlesdeluvio-1-nx1QR5dTE-unsplash.jpg,Stimuli/Experimental_stims/faces/ravi-patel-VMGAbeeJTKo-unsplash.jpg,1,NaN,,NaN,unchosen,NaN,NaN,NaN,NaN,2300,0,3,1
231,71512,0,232,4,4,0,no_gain4,gain6,C,D,0,45,outdoor_scenes,objects,50,50,Stimuli/Experimental_stims/outdoor_scenes/aleksandra-boguslawska-MS7KD9Ti7FQ-unsplash.jpg,Stimuli/Experimental_stims/objects/leohoho-rngTKHXumy0-unsplash.jpg,1,NaN,,NaN,chosen,NaN,NaN,NaN,NaN,3100,1,3,1
232,71512,0,233,4,4,1,gain5,no_gain3,G,E,40,42,objects,objects,50,50,Stimuli/Experimental_stims/objects/fabian-blank-pElSkGRA2NU-unsplash.jpg,Stimuli/Experimental_stims/objects/jess-bailey-nOeVi8DsN8U-unsplash.jpg,1,NaN,,NaN,chosen,NaN,NaN,NaN,NaN,1300,0,3,1
233,71512,0,234,4,4,1,gain1,no_gain3,H,E,15,42,faces,objects,50,50,Stimuli/Experimental_stims/faces/erik-lucatero-d2MSDujJl2g-unsplash.jpg,Stimuli/Experimental_stims/objects/jess-bailey-nOeVi8DsN8U-unsplash.jpg,1,NaN,,NaN,chosen,NaN,NaN,NaN,NaN,1400,0,3,1
234,71512,0,235,4,4,1,gain2,no_gain4,B,C,22,27,faces,body_parts,50,50,Stimuli/Experimental_stims/faces/ravi-patel-VMGAbeeJTKo-unsplash.jpg,Stimuli/Experimental_stims/body_parts/heike-mintel-i_Gns0ELnLw-unsplash.jpg,1,NaN,,NaN,unchosen,NaN,NaN,NaN,NaN,2500,0,3,1
235,71512,0,236,4,4,1,gain2,no_gain5,B,F,22,29,faces,body_parts,50,50,Stimuli/Experimental_stims/faces/ravi-patel-VMGAbeeJTKo-unsplash.jpg,Stimuli/Experimental_stims/body_parts/manuel-schinner-ZwjFuJ7ebpk-unsplash.jpg,1,NaN,,NaN,unchosen,NaN,NaN,NaN,NaN,1500,0,3,1
236,71512,0,237,4,4,1,gain4,no_gain1,L,K,21,39,faces,objects,50,50,Stimuli/Experimental_stims/faces/leilani-angel-K84vnnzxmTQ-unsplash.jpg,Stimuli/Experimental_stims/objects/charlesdeluvio-1-nx1QR5dTE-unsplash.jpg,1,NaN,,NaN,unchosen,NaN,NaN,NaN,NaN,1900,0,3,1
237,71512,0,238,4,4,1,gain6,no_gain3,D,E,45,42,objects,objects,50,50,Stimuli/Experimental_stims/objects/leohoho-rngTKHXumy0-unsplash.jpg,Stimuli/Experimental_stims/objects/jess-bailey-nOeVi8DsN8U-unsplash.jpg,1,NaN,,NaN,chosen,NaN,NaN,NaN,NaN,1200,0,3,1
238,71512,0,239,4,4,1,gain2,no_gain5,B,F,11,23,outdoor_scenes,faces,50,50,Stimuli/Experimental_stims/outdoor_scenes/stephen-leonardi-gyIRjKPXupE-unsplash.jpg,Stimuli/Experimental_stims/faces/rikonavt-HQjfrvdTfak-unsplash.jpg,1,NaN,,NaN,chosen,NaN,NaN,NaN,NaN,3500,1,3,1
239,71512,0,240,4,4,0,no_gain2,gain6,J,D,47,16,objects,faces,50,50,Stimuli/Experimental_stims/objects/ronaldo-arthur-vidal-Cdz_lvnl37k-unsplash.jpg,Stimuli/Experimental_stims/faces/freddy-kearney-o-ioeoATbIM-unsplash.jpg,1,NaN,,NaN,unchosen,NaN,NaN,NaN,NaN,1500,0,3,1
240,71512,0,241,4,4,1,gain5,no_gain6,G,A,40,1,objects,outdoor_scenes,50,50,Stimuli/Experimental_stims/objects/fabian-blank-pElSkGRA2NU-unsplash.jpg,Stimuli/Experimental_stims/outdoor_scenes/ashim-d-silva-S2Q5mdOrrVc-unsplash.jpg,1,NaN,,NaN,chosen,NaN,NaN,NaN,NaN,2200,0,3,1
241,71512,0,242,4,4,1,gain6,no_gain2,D,J,45,14,objects,faces,50,50,Stimuli/Experimental_stims/objects/leohoho-rngTKHXumy0-unsplash.jpg,Stimuli/Experimental_stims/faces/david-siglin-UuW4psOb388-unsplash.jpg,1,NaN,,NaN,chosen,NaN,NaN,NaN,NaN,1100,0,3,1
242,71512,0,243,4,4,0,no_gain3,gain2,E,B,42,11,objects,outdoor_scenes,50,50,Stimuli/Experimental_stims/objects/jess-bailey-nOeVi8DsN8U-unsplash.jpg,Stimuli/Experimental_stims/outdoor_scenes/stephen-leonardi-gyIRjKPXupE-unsplash.jpg,1,NaN,,NaN,chosen,NaN,NaN,NaN,NaN,1300,0,3,1
243,71512,0,244,4,4,0,no_gain3,gain5,E,G,24,9,body_parts,outdoor_scenes,50,50,Stimuli/Experimental_stims/body_parts/clay-banks-LjqARJaJotc-unsplash.jpg,Stimuli/Experimental_stims/outdoor_scenes/sergey-pesterev-y-b_FOmJXdg-unsplash.jpg,1,NaN,,NaN,unchosen,NaN,NaN,NaN,NaN,1500,0,3,1
244,71512,0,245,4,4,0,no_gain6,gain6,A,D,1,45,outdoor_scenes,objects,50,50,Stimuli/Experimental_stims/outdoor_scenes/ashim-d-silva-S2Q5mdOrrVc-unsplash.jpg,Stimuli/Experimental_stims/objects/leohoho-rngTKHXumy0-unsplash.jpg,1,NaN,,NaN,chosen,NaN,NaN,NaN,NaN,1100,0,3,1
245,71512,0,246,4,4,1,gain3,no_gain6,I,A,35,1,body_parts,outdoor_scenes,50,50,Stimuli/Experimental_stims/body_parts/wc-so-KH4AAPjb-tI-unsplash.jpg,Stimuli/Experimental_stims/outdoor_scenes/ashim-d-silva-S2Q5mdOrrVc-unsplash.jpg,1,NaN,,NaN,chosen,NaN,NaN,NaN,NaN,2000,0,3,1
246,71512,0,247,4,4,0,no_gain2,gain5,J,G,47,9,objects,outdoor_scenes,50,50,Stimuli/Experimental_stims/objects/ronaldo-arthur-vidal-Cdz_lvnl37k-unsplash.jpg,Stimuli/Experimental_stims/outdoor_scenes/sergey-pesterev-y-b_FOmJXdg-unsplash.jpg,1,NaN,,NaN,unchosen,NaN,NaN,NaN,NaN,4700,1,3,1
247,71512,0,248,4,4,0,no_gain1,gain3,K,I,26,35,body_parts,body_parts,50,50,Stimuli/Experimental_stims/body_parts/engin-akyurt-x_3gyC42btc-unsplash.jpg,Stimuli/Experimental_stims/body_parts/wc-so-KH4AAPjb-tI-unsplash.jpg,1,NaN,,NaN,chosen,NaN,NaN,NaN,NaN,2400,0,3,1
248,71512,0,249,4,4,1,gain4,no_gain2,L,J,21,47,faces,objects,50,50,Stimuli/Experimental_stims/faces/leilani-angel-K84vnnzxmTQ-unsplash.jpg,Stimuli/Experimental_stims/objects/ronaldo-arthur-vidal-Cdz_lvnl37k-unsplash.jpg,1,NaN,,NaN,unchosen,NaN,NaN,NaN,NaN,1100,0,3,1
249,71512,0,250,4,4,1,gain6,no_gain5,D,F,45,23,objects,faces,50,50,Stimuli/Experimental_stims/objects/leohoho-rngTKHXumy0-unsplash.jpg,Stimuli/Experimental_stims/faces/rikonavt-HQjfrvdTfak-unsplash.jpg,1,NaN,,NaN,chosen,NaN,NaN,NaN,NaN,2400,0,3,1
250,71512,0,251,4,4,1,gain4,no_gain6,L,A,21,44,faces,objects,50,50,Stimuli/Experimental_stims/faces/leilani-angel-K84vnnzxmTQ-unsplash.jpg,Stimuli/Experimental_stims/objects/kuiye-chen-NuOGFo4PudE-unsplash.jpg,1,NaN,,NaN,unchosen,NaN,NaN,NaN,NaN,1600,0,3,1
251,71512,0,252,4,4,0,no_gain1,gain1,K,H,39,8,objects,outdoor_scenes,50,50,Stimuli/Experimental_stims/objects/charlesdeluvio-1-nx1QR5dTE-unsplash.jpg,Stimuli/Experimental_stims/outdoor_scenes/samsommer-vddccTqwal8-unsplash.jpg,1,NaN,,NaN,unchosen,NaN,NaN,NaN,NaN,2300,0,3,1
252,71512,0,253,4,4,0,no_gain3,gain4,E,L,42,31,objects,body_parts,50,50,Stimuli/Experimental_stims/objects/jess-bailey-nOeVi8DsN8U-unsplash.jpg,Stimuli/Experimental_stims/body_parts/sincerely-media-VN6DbKajo5s-unsplash.jpg,1,NaN,,NaN,chosen,NaN,NaN,NaN,NaN,2500,0,3,1
253,71512,0,254,4,4,1,gain3,no_gain5,I,F,35,23,body_parts,faces,50,50,Stimuli/Experimental_stims/body_parts/wc-so-KH4AAPjb-tI-unsplash.jpg,Stimuli/Experimental_stims/faces/rikonavt-HQjfrvdTfak-unsplash.jpg,1,NaN,,NaN,chosen,NaN,NaN,NaN,NaN,3700,1,3,1
254,71512,0,255,4,4,1,gain2,no_gain1,B,K,11,26,outdoor_scenes,body_parts,50,50,Stimuli/Experimental_stims/outdoor_scenes/stephen-leonardi-gyIRjKPXupE-unsplash.jpg,Stimuli/Experimental_stims/body_parts/engin-akyurt-x_3gyC42btc-unsplash.jpg,1,NaN,,NaN,chosen,NaN,NaN,NaN,NaN,2100,0,3,1
255,71512,0,256,4,4,1,gain6,no_gain3,D,E,16,24,faces,body_parts,50,50,Stimuli/Experimental_stims/faces/freddy-kearney-o-ioeoATbIM-unsplash.jpg,Stimuli/Experimental_stims/body_parts/clay-banks-LjqARJaJotc-unsplash.jpg,1,NaN,,NaN,unchosen,NaN,NaN,NaN,NaN,2300,0,3,1
256,71512,0,257,4,4,0,no_gain6,gain1,A,H,44,8,objects,outdoor_scenes,50,50,Stimuli/Experimental_stims/objects/kuiye-chen-NuOGFo4PudE-unsplash.jpg,Stimuli/Experimental_stims/outdoor_scenes/samsommer-vddccTqwal8-unsplash.jpg,1,NaN,,NaN,unchosen,NaN,NaN,NaN,NaN,1700,0,3,1
257,71512,0,258,4,4,0,no_gain4,gain6,C,D,27,16,body_parts,faces,50,50,Stimuli/Experimental_stims/body_parts/heike-mintel-i_Gns0ELnLw-unsplash.jpg,Stimuli/Experimental_stims/faces/freddy-kearney-o-ioeoATbIM-unsplash.jpg,1,NaN,,NaN,unchosen,NaN,NaN,NaN,NaN,2900,0,3,1
258,71512,0,259,4,4,0,no_gain4,gain1,C,H,0,15,outdoor_scenes,faces,50,50,Stimuli/Experimental_stims/outdoor_scenes/aleksandra-boguslawska-MS7KD9Ti7FQ-unsplash.jpg,Stimuli/Experimental_stims/faces/erik-lucatero-d2MSDujJl2g-unsplash.jpg,1,NaN,,NaN,chosen,NaN,NaN,NaN,NaN,3000,1,3,1
259,71512,0,260,4,4,1,gain2,no_gain3,B,E,22,24,faces,body_parts,50,50,Stimuli/Experimental_stims/faces/ravi-patel-VMGAbeeJTKo-unsplash.jpg,Stimuli/Experimental_stims/body_parts/clay-banks-LjqARJaJotc-unsplash.jpg,1,NaN,,NaN,unchosen,NaN,NaN,NaN,NaN,2600,0,3,1
260,71512,0,261,4,4,0,no_gain6,gain5,A,G,44,9,objects,outdoor_scenes,50,50,Stimuli/Experimental_stims/objects/kuiye-chen-NuOGFo4PudE-unsplash.jpg,Stimuli/Experimental_stims/outdoor_scenes/sergey-pesterev-y-b_FOmJXdg-unsplash.jpg,1,NaN,,NaN,unchosen,NaN,NaN,NaN,NaN,1700,0,3,1
261,71512,0,262,4,4,0,no_gain3,gain1,E,H,24,8,body_parts,outdoor_scenes,50,50,Stimuli/Experimental_stims/body_parts/clay-banks-LjqARJaJotc-unsplash.jpg,Stimuli/Experimental_stims/outdoor_scenes/samsommer-vddccTqwal8-unsplash.jpg,1,NaN,,NaN,unchosen,NaN,NaN,NaN,NaN,1800,0,3,1
262,71512,0,263,4,4,1,gain5,no_gain5,G,F,40,23,objects,faces,50,50,Stimuli/Experimental_stims/objects/fabian-blank-pElSkGRA2NU-unsplash.jpg,Stimuli/Experimental_stims/faces/rikonavt-HQjfrvdTfak-unsplash.jpg,1,NaN,,NaN,chosen,NaN,NaN,NaN,NaN,1400,0,3,1
263,71512,0,264,4,4,0,no_gain2,gain1,J,H,14,15,faces,faces,50,50,Stimuli/Experimental_stims/faces/david-siglin-UuW4psOb388-unsplash.jpg,Stimuli/Experimental_stims/faces/erik-lucatero-d2MSDujJl2g-unsplash.jpg,1,NaN,,NaN,chosen,NaN,NaN,NaN,NaN,2200,0,3,1
264,71512,0,265,4,4,0,no_gain2,gain1,J,H,47,8,objects,outdoor_scenes,50,50,Stimuli/Experimental_stims/objects/ronaldo-arthur-vidal-Cdz_lvnl37k-unsplash.jpg,Stimuli/Experimental_stims/outdoor_scenes/samsommer-vddccTqwal8-unsplash.jpg,1,NaN,,NaN,unchosen,NaN,NaN,NaN,NaN,3500,1,3,1
265,71512,0,266,4,4,1,gain3,no_gain3,I,E,35,42,body_parts,objects,50,50,Stimuli/Experimental_stims/body_parts/wc-so-KH4AAPjb-tI-unsplash.jpg,Stimuli/Experimental_stims/objects/jess-bailey-nOeVi8DsN8U-unsplash.jpg,1,NaN,,NaN,chosen,NaN,NaN,NaN,NaN,1400,0,3,1
266,71512,0,267,4,4,0,no_gain2,gain4,J,L,14,31,faces,body_parts,50,50,Stimuli/Experimental_stims/faces/david-siglin-UuW4psOb388-unsplash.jpg,Stimuli/Experimental_stims/body_parts/sincerely-media-VN6DbKajo5s-unsplash.jpg,1,NaN,,NaN,chosen,NaN,NaN,NaN,NaN,1100,0,3,1
267,71512,0,268,4,4,1,gain6,no_gain1,D,K,45,26,objects,body_parts,50,50,Stimuli/Experimental_stims/objects/leohoho-rngTKHXumy0-unsplash.jpg,Stimuli/Experimental_stims/body_parts/engin-akyurt-x_3gyC42btc-unsplash.jpg,1,NaN,,NaN,chosen,NaN,NaN,NaN,NaN,1300,0,3,1
268,71512,0,269,4,4,0,no_gain1,gain3,K,I,39,4,objects,outdoor_scenes,50,50,Stimuli/Experimental_stims/objects/charlesdeluvio-1-nx1QR5dTE-unsplash.jpg,Stimuli/Experimental_stims/outdoor_scenes/jarrett-kow-1ZOyYPOBn7I-unsplash.jpg,1,NaN,,NaN,unchosen,NaN,NaN,NaN,NaN,2600,0,3,1
269,71512,0,270,4,4,0,no_gain4,gain4,C,L,0,31,outdoor_scenes,body_parts,50,50,Stimuli/Experimental_stims/outdoor_scenes/aleksandra-boguslawska-MS7KD9Ti7FQ-unsplash.jpg,Stimuli/Experimental_stims/body_parts/sincerely-media-VN6DbKajo5s-unsplash.jpg,1,NaN,,NaN,chosen,NaN,NaN,NaN,NaN,1100,0,3,1
270,71512,0,271,4,4,1,gain1,no_gain4,H,C,8,27,outdoor_scenes,body_parts,50,50,Stimuli/Experimental_stims/outdoor_scenes/samsommer-vddccTqwal8-unsplash.jpg,Stimuli/Experimental_stims/body_parts/heike-mintel-i_Gns0ELnLw-unsplash.jpg,1,NaN,,NaN,unchosen,NaN,NaN,NaN,NaN,1400,0,3,1
271,71512,0,272,4,4,1,gain4,no_gain3,L,E,21,24,faces,body_parts,50,50,Stimuli/Experimental_stims/faces/leilani-angel-K84vnnzxmTQ-unsplash.jpg,Stimuli/Experimental_stims/body_parts/clay-banks-LjqARJaJotc-unsplash.jpg,1,NaN,,NaN,unchosen,NaN,NaN,NaN,NaN,3200,1,3,1
272,71512,0,273,4,4,0,no_gain6,gain2,A,B,1,11,outdoor_scenes,outdoor_scenes,50,50,Stimuli/Experimental_stims/outdoor_scenes/ashim-d-silva-S2Q5mdOrrVc-unsplash.jpg,Stimuli/Experimental_stims/outdoor_scenes/stephen-leonardi-gyIRjKPXupE-unsplash.jpg,1,NaN,,NaN,chosen,NaN,NaN,NaN,NaN,1600,0,3,1
273,71512,0,274,4,4,0,no_gain2,gain5,J,G,14,40,faces,objects,50,50,Stimuli/Experimental_stims/faces/david-siglin-UuW4psOb388-unsplash.jpg,Stimuli/Experimental_stims/objects/fabian-blank-pElSkGRA2NU-unsplash.jpg,1,NaN,,NaN,chosen,NaN,NaN,NaN,NaN,1000,0,3,1
274,71512,0,275,4,4,1,gain1,no_gain5,H,F,15,23,faces,faces,50,50,Stimuli/Experimental_stims/faces/erik-lucatero-d2MSDujJl2g-unsplash.jpg,Stimuli/Experimental_stims/faces/rikonavt-HQjfrvdTfak-unsplash.jpg,1,NaN,,NaN,chosen,NaN,NaN,NaN,NaN,1700,0,3,1
275,71512,0,276,4,4,1,gain4,no_gain4,L,C,21,27,faces,body_parts,50,50,Stimuli/Experimental_stims/faces/leilani-angel-K84vnnzxmTQ-unsplash.jpg,Stimuli/Experimental_stims/body_parts/heike-mintel-i_Gns0ELnLw-unsplash.jpg,1,NaN,,NaN,unchosen,NaN,NaN,NaN,NaN,1200,0,3,1
276,71512,0,277,4,4,1,gain3,no_gain5,I,F,4,29,outdoor_scenes,body_parts,50,50,Stimuli/Experimental_stims/outdoor_scenes/jarrett-kow-1ZOyYPOBn7I-unsplash.jpg,Stimuli/Experimental_stims/body_parts/manuel-schinner-ZwjFuJ7ebpk-unsplash.jpg,1,NaN,,NaN,unchosen,NaN,NaN,NaN,NaN,2200,0,3,1
277,71512,0,278,4,4,0,no_gain5,gain6,F,D,29,16,body_parts,faces,50,50,Stimuli/Experimental_stims/body_parts/manuel-schinner-ZwjFuJ7ebpk-unsplash.jpg,Stimuli/Experimental_stims/faces/freddy-kearney-o-ioeoATbIM-unsplash.jpg,1,NaN,,NaN,unchosen,NaN,NaN,NaN,NaN,2000,0,3,1
278,71512,0,279,4,4,1,gain3,no_gain4,I,C,35,0,body_parts,outdoor_scenes,50,50,Stimuli/Experimental_stims/body_parts/wc-so-KH4AAPjb-tI-unsplash.jpg,Stimuli/Experimental_stims/outdoor_scenes/aleksandra-boguslawska-MS7KD9Ti7FQ-unsplash.jpg,1,NaN,,NaN,chosen,NaN,NaN,NaN,NaN,3100,1,3,1
279,71512,0,280,4,4,1,gain5,no_gain5,G,F,9,29,outdoor_scenes,body_parts,50,50,Stimuli/Experimental_stims/outdoor_scenes/sergey-pesterev-y-b_FOmJXdg-unsplash.jpg,Stimuli/Experimental_stims/body_parts/manuel-schinner-ZwjFuJ7ebpk-unsplash.jpg,1,NaN,,NaN,unchosen,NaN,NaN,NaN,NaN,2400,0,3,1
280,71512,0,281,4,4,1,gain4,no_gain1,L,K,31,26,body_parts,body_parts,50,50,Stimuli/Experimental_stims/body_parts/sincerely-media-VN6DbKajo5s-unsplash.jpg,Stimuli/Experimental_stims/body_parts/engin-akyurt-x_3gyC42btc-unsplash.jpg,1,NaN,,NaN,chosen,NaN,NaN,NaN,NaN,1000,0,3,1
281,71512,0,282,4,4,0,no_gain1,gain5,K,G,26,40,body_parts,objects,50,50,Stimuli/Experimental_stims/body_parts/engin-akyurt-x_3gyC42btc-unsplash.jpg,Stimuli/Experimental_stims/objects/fabian-blank-pElSkGRA2NU-unsplash.jpg,1,NaN,,NaN,chosen,NaN,NaN,NaN,NaN,1900,0,3,1
282,71512,0,283,4,4,0,no_gain4,gain5,C,G,27,9,body_parts,outdoor_scenes,50,50,Stimuli/Experimental_stims/body_parts/heike-mintel-i_Gns0ELnLw-unsplash.jpg,Stimuli/Experimental_stims/outdoor_scenes/sergey-pesterev-y-b_FOmJXdg-unsplash.jpg,1,NaN,,NaN,unchosen,NaN,NaN,NaN,NaN,2400,0,3,1
283,71512,0,284,4,4,1,gain2,no_gain2,B,J,11,14,outdoor_scenes,faces,50,50,Stimuli/Experimental_stims/outdoor_scenes/stephen-leonardi-gyIRjKPXupE-unsplash.jpg,Stimuli/Experimental_stims/faces/david-siglin-UuW4psOb388-unsplash.jpg,1,NaN,,NaN,chosen,NaN,NaN,NaN,NaN,1300,0,3,1
284,71512,0,285,4,4,0,no_gain4,gain5,C,G,0,40,outdoor_scenes,objects,50,50,Stimuli/Experimental_stims/outdoor_scenes/aleksandra-boguslawska-MS7KD9Ti7FQ-unsplash.jpg,Stimuli/Experimental_stims/objects/fabian-blank-pElSkGRA2NU-unsplash.jpg,1,NaN,,NaN,chosen,NaN,NaN,NaN,NaN,1600,0,3,1
285,71512,0,286,4,4,1,gain6,no_gain6,D,A,16,44,faces,objects,50,50,Stimuli/Experimental_stims/faces/freddy-kearney-o-ioeoATbIM-unsplash.jpg,Stimuli/Experimental_stims/objects/kuiye-chen-NuOGFo4PudE-unsplash.jpg,1,NaN,,NaN,unchosen,NaN,NaN,NaN,NaN,1000,0,3,1
286,71512,0,287,4,4,0,no_gain6,gain4,A,L,1,31,outdoor_scenes,body_parts,50,50,Stimuli/Experimental_stims/outdoor_scenes/ashim-d-silva-S2Q5mdOrrVc-unsplash.jpg,Stimuli/Experimental_stims/body_parts/sincerely-media-VN6DbKajo5s-unsplash.jpg,1,NaN,,NaN,chosen,NaN,NaN,NaN,NaN,1500,0,3,1
287,71512,0,288,4,4,1,gain5,no_gain1,G,K,9,39,outdoor_scenes,objects,50,50,Stimuli/Experimental_stims/outdoor_scenes/sergey-pesterev-y-b_FOmJXdg-unsplash.jpg,Stimuli/Experimental_stims/objects/charlesdeluvio-1-nx1QR5dTE-unsplash.jpg,1,NaN,,NaN,unchosen,NaN,NaN,NaN,NaN,1900,0,3,1
288,71512,0,289,4,4,1,gain3,no_gain2,I,J,35,14,body_parts,faces,50,50,Stimuli/Experimental_stims/body_parts/wc-so-KH4AAPjb-tI-unsplash.jpg,Stimuli/Experimental_stims/faces/david-siglin-UuW4psOb388-unsplash.jpg,1,NaN,,NaN,chosen,NaN,NaN,NaN,NaN,1600,0,3,1
289,71512,0,290,4,4,1,gain3,no_gain6,I,A,4,44,outdoor_scenes,objects,50,50,Stimuli/Experimental_stims/outdoor_scenes/jarrett-kow-1ZOyYPOBn7I-unsplash.jpg,Stimuli/Experimental_stims/objects/kuiye-chen-NuOGFo4PudE-unsplash.jpg,1,NaN,,NaN,unchosen,NaN,NaN,NaN,NaN,1200,0,3,1
290,71512,0,291,4,4,1,gain2,no_gain2,B,J,22,47,faces,objects,50,50,Stimuli/Experimental_stims/faces/ravi-patel-VMGAbeeJTKo-unsplash.jpg,Stimuli/Experimental_stims/objects/ronaldo-arthur-vidal-Cdz_lvnl37k-unsplash.jpg,1,NaN,,NaN,unchosen,NaN,NaN,NaN,NaN,1000,0,3,1
291,71512,0,292,4,4,1,gain2,no_gain6,B,A,22,44,faces,objects,50,50,Stimuli/Experimental_stims/faces/ravi-patel-VMGAbeeJTKo-unsplash.jpg,Stimuli/Experimental_stims/objects/kuiye-chen-NuOGFo4PudE-unsplash.jpg,1,NaN,,NaN,unchosen,NaN,NaN,NaN,NaN,3200,1,3,1