PID,trial,rt,old_rating,new_rating,stimulus_index,type,category,stimulus,path,iti,stim_type,deliberated_stim,choice,outcome
77890,1,5216,NA,50,74,scramble,body_parts,scrambled_engin-akyurt-x_3gyC42btc-unsplash.jpg,Stimuli/Experimental_stims/scramble/body_parts/scrambled_engin-akyurt-x_3gyC42btc-unsplash.jpg,,scramble,deliberated,unchosen,no_gain
77890,3,155,NA,50,58,scramble,outdoor_scenes,scrambled_shannon-kunkle-dM8INmkyDas-unsplash.jpg,Stimuli/Experimental_stims/scramble/outdoor_scenes/scrambled_shannon-kunkle-dM8INmkyDas-unsplash.jpg,,scramble,deliberated,chosen,no_gain
77890,4,179,NA,50,73,scramble,body_parts,scrambled_engin-akyurt-Q2rfH3GW39c-unsplash.jpg,Stimuli/Experimental_stims/scramble/body_parts/scrambled_engin-akyurt-Q2rfH3GW39c-unsplash.jpg,,scramble,deliberated,unchosen,no_gain
77890,5,195,NA,50,65,scramble,faces,scrambled_good-faces-xmSWVeGEnJw-unsplash.jpg,Stimuli/Experimental_stims/scramble/faces/scrambled_good-faces-xmSWVeGEnJw-unsplash.jpg,,scramble,deliberated,unchosen,no_gain
77890,7,164,50,50,10,original,outdoor_scenes,shannon-kunkle-dM8INmkyDas-unsplash.jpg,Stimuli/Experimental_stims/outdoor_scenes/shannon-kunkle-dM8INmkyDas-unsplash.jpg,,original,deliberated,chosen,no_gain
77890,8,178,50,50,18,original,faces,jessica-radanavong-mrYkTuAesKE-unsplash.jpg,Stimuli/Experimental_stims/faces/jessica-radanavong-mrYkTuAesKE-unsplash.jpg,,original,not_deliberated,NaN,NaN
77890,9,180,50,50,26,original,body_parts,engin-akyurt-x_3gyC42btc-unsplash.jpg,Stimuli/Experimental_stims/body_parts/engin-akyurt-x_3gyC42btc-unsplash.jpg,,original,deliberated,chosen,gain
77890,10,186,NA,50,62,scramble,faces,scrambled_david-siglin-UuW4psOb388-unsplash.jpg,Stimuli/Experimental_stims/scramble/faces/scrambled_david-siglin-UuW4psOb388-unsplash.jpg,,scramble,deliberated,chosen,no_gain
77890,11,1725,50,50,42,original,objects,jess-bailey-nOeVi8DsN8U-unsplash.jpg,Stimuli/Experimental_stims/objects/jess-bailey-nOeVi8DsN8U-unsplash.jpg,,original,deliberated,chosen,no_gain
77890,12,185,50,50,24,original,body_parts,clay-banks-LjqARJaJotc-unsplash.jpg,Stimuli/Experimental_stims/body_parts/clay-banks-LjqARJaJotc-unsplash.jpg,,original,not_deliberated,NaN,NaN
77890,15,177,NA,50,68,scramble,faces,scrambled_justin-chen-J7Cf1Gch49E-unsplash.jpg,Stimuli/Experimental_stims/scramble/faces/scrambled_justin-chen-J7Cf1Gch49E-unsplash.jpg,,scramble,deliberated,unchosen,no_gain
77890,16,161,50,50,6,original,outdoor_scenes,meng-ji-8BH_M-53CyA-unsplash.jpg,Stimuli/Experimental_stims/outdoor_scenes/meng-ji-8BH_M-53CyA-unsplash.jpg,,original,not_deliberated,NaN,NaN
77890,19,246,50,50,29,original,body_parts,manuel-schinner-ZwjFuJ7ebpk-unsplash.jpg,Stimuli/Experimental_stims/body_parts/manuel-schinner-ZwjFuJ7ebpk-unsplash.jpg,,original,deliberated,chosen,no_gain
77890,20,171,50,50,9,original,outdoor_scenes,sergey-pesterev-y-b_FOmJXdg-unsplash.jpg,Stimuli/Experimental_stims/outdoor_scenes/sergey-pesterev-y-b_FOmJXdg-unsplash.jpg,,original,not_deliberated,NaN,NaN
77890,21,155,50,50,4,original,outdoor_scenes,jarrett-kow-1ZOyYPOBn7I-unsplash.jpg,Stimuli/Experimental_stims/outdoor_scenes/jarrett-kow-1ZOyYPOBn7I-unsplash.jpg,,original,deliberated,unchosen,no_gain
77890,23,171,50,50,38,original,objects,art-lasovsky-8XddFc6NkBY-unsplash.jpg,Stimuli/Experimental_stims/objects/art-lasovsky-8XddFc6NkBY-unsplash.jpg,,original,not_deliberated,NaN,NaN
77890,24,162,NA,50,59,scramble,outdoor_scenes,scrambled_stephen-leonardi-gyIRjKPXupE-unsplash.jpg,Stimuli/Experimental_stims/scramble/outdoor_scenes/scrambled_stephen-leonardi-gyIRjKPXupE-unsplash.jpg,,scramble,deliberated,unchosen,no_gain
77890,25,171,NA,50,90,scramble,objects,scrambled_jess-bailey-nOeVi8DsN8U-unsplash.jpg,Stimuli/Experimental_stims/scramble/objects/scrambled_jess-bailey-nOeVi8DsN8U-unsplash.jpg,,scramble,deliberated,chosen,no_gain
77890,27,158,NA,50,85,scramble,objects,scrambled_alexander-andrews-VLGWE_SumrA-unsplash.jpg,Stimuli/Experimental_stims/scramble/objects/scrambled_alexander-andrews-VLGWE_SumrA-unsplash.jpg,,scramble,deliberated,chosen,no_gain
77890,28,174,50,50,19,original,faces,joel-mott-LaK153ghdig-unsplash.jpg,Stimuli/Experimental_stims/faces/joel-mott-LaK153ghdig-unsplash.jpg,,original,deliberated,chosen,no_gain
77890,30,167,50,50,39,original,objects,charlesdeluvio-1-nx1QR5dTE-unsplash.jpg,Stimuli/Experimental_stims/objects/charlesdeluvio-1-nx1QR5dTE-unsplash.jpg,,original,deliberated,unchosen,no_gain
77890,31,163,NA,50,87,scramble,objects,scrambled_charlesdeluvio-1-nx1QR5dTE-unsplash.jpg,Stimuli/Experimental_stims/scramble/objects/scrambled_charlesdeluvio-1-nx1QR5dTE-unsplash.jpg,,scramble,deliberated,unchosen,no_gain
77890,33,146,50,50,37,original,objects,alexander-andrews-VLGWE_SumrA-unsplash.jpg,Stimuli/Experimental_stims/objects/alexander-andrews-VLGWE_SumrA-unsplash.jpg,,original,deliberated,chosen,gain
77890,35,170,50,50,46,original,objects,mockup-graphics-PNsj6RiHAF4-unsplash.jpg,Stimuli/Experimental_stims/objects/mockup-graphics-PNsj6RiHAF4-unsplash.jpg,,original,deliberated,chosen,no_gain
77890,37,187,50,50,1,original,outdoor_scenes,ashim-d-silva-S2Q5mdOrrVc-unsplash.jpg,Stimuli/Experimental_stims/outdoor_scenes/ashim-d-silva-S2Q5mdOrrVc-unsplash.jpg,,original,not_deliberated,NaN,NaN
77890,38,218,50,50,22,original,faces,ravi-patel-VMGAbeeJTKo-unsplash.jpg,Stimuli/Experimental_stims/faces/ravi-patel-VMGAbeeJTKo-unsplash.jpg,,original,deliberated,chosen,gain
77890,39,187,NA,50,51,scramble,outdoor_scenes,scrambled_henry-be-NLF6hTe4PAg-unsplash.jpg,Stimuli/Experimental_stims/scramble/outdoor_scenes/scrambled_henry-be-NLF6hTe4PAg-unsplash.jpg,,scramble,deliberated,chosen,no_gain
77890,40,195,50,50,40,original,objects,fabian-blank-pElSkGRA2NU-unsplash.jpg,Stimuli/Experimental_stims/objects/fabian-blank-pElSkGRA2NU-unsplash.jpg,,original,not_deliberated,NaN,NaN
77890,41,219,NA,50,52,scramble,outdoor_scenes,scrambled_jarrett-kow-1ZOyYPOBn7I-unsplash.jpg,Stimuli/Experimental_stims/scramble/outdoor_scenes/scrambled_jarrett-kow-1ZOyYPOBn7I-unsplash.jpg,,scramble,deliberated,unchosen,no_gain
77890,42,204,50,50,27,original,body_parts,heike-mintel-i_Gns0ELnLw-unsplash.jpg,Stimuli/Experimental_stims/body_parts/heike-mintel-i_Gns0ELnLw-unsplash.jpg,,original,not_deliberated,NaN,NaN
77890,43,170,50,50,43,original,objects,jonathan-greenaway-Y4hGgeiFn3s-unsplash.jpg,Stimuli/Experimental_stims/objects/jonathan-greenaway-Y4hGgeiFn3s-unsplash.jpg,,original,not_deliberated,NaN,NaN
77890,44,203,50,50,21,original,faces,leilani-angel-K84vnnzxmTQ-unsplash.jpg,Stimuli/Experimental_stims/faces/leilani-angel-K84vnnzxmTQ-unsplash.jpg,,original,not_deliberated,NaN,NaN
77890,45,188,NA,50,67,scramble,faces,scrambled_joel-mott-LaK153ghdig-unsplash.jpg,Stimuli/Experimental_stims/scramble/faces/scrambled_joel-mott-LaK153ghdig-unsplash.jpg,,scramble,deliberated,unchosen,no_gain
77890,46,211,50,50,14,original,faces,david-siglin-UuW4psOb388-unsplash.jpg,Stimuli/Experimental_stims/faces/david-siglin-UuW4psOb388-unsplash.jpg,,original,deliberated,chosen,no_gain
77890,47,187,50,50,5,original,outdoor_scenes,jeff-king-bJHWJeiHfHc-unsplash.jpg,Stimuli/Experimental_stims/outdoor_scenes/jeff-king-bJHWJeiHfHc-unsplash.jpg,,original,not_deliberated,NaN,NaN
77890,49,796,NA,50,61,scramble,faces,scrambled_daniel-rigdon-dXmXKPP2L4E-unsplash.jpg,Stimuli/Experimental_stims/scramble/faces/scrambled_daniel-rigdon-dXmXKPP2L4E-unsplash.jpg,,scramble,deliberated,unchosen,no_gain
77890,50,219,50,50,25,original,body_parts,engin-akyurt-Q2rfH3GW39c-unsplash.jpg,Stimuli/Experimental_stims/body_parts/engin-akyurt-Q2rfH3GW39c-unsplash.jpg,,original,deliberated,chosen,no_gain
77890,51,183,50,50,7,original,outdoor_scenes,petr-vysohlid-9fqwGqGLUxc-unsplash.jpg,Stimuli/Experimental_stims/outdoor_scenes/petr-vysohlid-9fqwGqGLUxc-unsplash.jpg,,original,not_deliberated,NaN,NaN
77890,52,574,50,50,17,original,faces,good-faces-xmSWVeGEnJw-unsplash.jpg,Stimuli/Experimental_stims/faces/good-faces-xmSWVeGEnJw-unsplash.jpg,,original,deliberated,chosen,no_gain
77890,53,187,50,50,28,original,body_parts,ira-vishnevskaya-8DQAvdCby1I-unsplash.jpg,Stimuli/Experimental_stims/body_parts/ira-vishnevskaya-8DQAvdCby1I-unsplash.jpg,,original,deliberated,unchosen,no_gain
77890,54,195,NA,50,70,scramble,faces,scrambled_ravi-patel-VMGAbeeJTKo-unsplash.jpg,Stimuli/Experimental_stims/scramble/faces/scrambled_ravi-patel-VMGAbeeJTKo-unsplash.jpg,,scramble,deliberated,unchosen,no_gain
77890,56,187,50,50,44,original,objects,kuiye-chen-NuOGFo4PudE-unsplash.jpg,Stimuli/Experimental_stims/objects/kuiye-chen-NuOGFo4PudE-unsplash.jpg,,original,not_deliberated,NaN,NaN
77890,57,179,50,50,20,original,faces,justin-chen-J7Cf1Gch49E-unsplash.jpg,Stimuli/Experimental_stims/faces/justin-chen-J7Cf1Gch49E-unsplash.jpg,,original,deliberated,chosen,no_gain
77890,58,185,50,50,3,original,outdoor_scenes,henry-be-NLF6hTe4PAg-unsplash.jpg,Stimuli/Experimental_stims/outdoor_scenes/henry-be-NLF6hTe4PAg-unsplash.jpg,,original,deliberated,chosen,gain
77890,60,178,50,50,0,original,outdoor_scenes,aleksandra-boguslawska-MS7KD9Ti7FQ-unsplash.jpg,Stimuli/Experimental_stims/outdoor_scenes/aleksandra-boguslawska-MS7KD9Ti7FQ-unsplash.jpg,,original,not_deliberated,NaN,NaN
77890,61,204,50,50,35,original,body_parts,wc-so-KH4AAPjb-tI-unsplash.jpg,Stimuli/Experimental_stims/body_parts/wc-so-KH4AAPjb-tI-unsplash.jpg,,original,deliberated,unchosen,no_gain
77890,62,187,50,50,45,original,objects,leohoho-rngTKHXumy0-unsplash.jpg,Stimuli/Experimental_stims/objects/leohoho-rngTKHXumy0-unsplash.jpg,,original,not_deliberated,NaN,NaN
77890,63,194,50,50,41,original,objects,insung-yoon-w2JtIQQXoRU-unsplash.jpg,Stimuli/Experimental_stims/objects/insung-yoon-w2JtIQQXoRU-unsplash.jpg,,original,deliberated,chosen,no_gain
77890,64,203,NA,50,50,scramble,outdoor_scenes,scrambled_bruno-van-der-kraan-qez8mNJ3ilU-unsplash.jpg,Stimuli/Experimental_stims/scramble/outdoor_scenes/scrambled_bruno-van-der-kraan-qez8mNJ3ilU-unsplash.jpg,,scramble,deliberated,unchosen,no_gain
77890,65,202,NA,50,76,scramble,body_parts,scrambled_ira-vishnevskaya-8DQAvdCby1I-unsplash.jpg,Stimuli/Experimental_stims/scramble/body_parts/scrambled_ira-vishnevskaya-8DQAvdCby1I-unsplash.jpg,,scramble,deliberated,unchosen,no_gain
77890,67,235,50,50,32,original,body_parts,towfiqu-barbhuiya-3AsiVDsZnHg-unsplash.jpg,Stimuli/Experimental_stims/body_parts/towfiqu-barbhuiya-3AsiVDsZnHg-unsplash.jpg,,original,not_deliberated,NaN,NaN
77890,69,187,50,50,16,original,faces,freddy-kearney-o-ioeoATbIM-unsplash.jpg,Stimuli/Experimental_stims/faces/freddy-kearney-o-ioeoATbIM-unsplash.jpg,,original,not_deliberated,NaN,NaN
77890,70,211,NA,50,56,scramble,outdoor_scenes,scrambled_samsommer-vddccTqwal8-unsplash.jpg,Stimuli/Experimental_stims/scramble/outdoor_scenes/scrambled_samsommer-vddccTqwal8-unsplash.jpg,,scramble,deliberated,unchosen,no_gain
77890,71,413,NA,50,95,scramble,objects,scrambled_ronaldo-arthur-vidal-Cdz_lvnl37k-unsplash.jpg,Stimuli/Experimental_stims/scramble/objects/scrambled_ronaldo-arthur-vidal-Cdz_lvnl37k-unsplash.jpg,,scramble,deliberated,chosen,no_gain
77890,73,187,50,50,15,original,faces,erik-lucatero-d2MSDujJl2g-unsplash.jpg,Stimuli/Experimental_stims/faces/erik-lucatero-d2MSDujJl2g-unsplash.jpg,,original,not_deliberated,NaN,NaN
77890,74,195,NA,50,81,scramble,body_parts,scrambled_tucker-good-36skLT5jZcc-unsplash.jpg,Stimuli/Experimental_stims/scramble/body_parts/scrambled_tucker-good-36skLT5jZcc-unsplash.jpg,,scramble,deliberated,chosen,no_gain
77890,75,227,NA,50,77,scramble,body_parts,scrambled_manuel-schinner-ZwjFuJ7ebpk-unsplash.jpg,Stimuli/Experimental_stims/scramble/body_parts/scrambled_manuel-schinner-ZwjFuJ7ebpk-unsplash.jpg,,scramble,deliberated,unchosen,no_gain
77890,76,202,50,50,2,original,outdoor_scenes,bruno-van-der-kraan-qez8mNJ3ilU-unsplash.jpg,Stimuli/Experimental_stims/outdoor_scenes/bruno-van-der-kraan-qez8mNJ3ilU-unsplash.jpg,,original,deliberated,chosen,no_gain
77890,77,473,NA,50,83,scramble,body_parts,scrambled_wc-so-KH4AAPjb-tI-unsplash.jpg,Stimuli/Experimental_stims/scramble/body_parts/scrambled_wc-so-KH4AAPjb-tI-unsplash.jpg,,scramble,deliberated,unchosen,no_gain
77890,78,171,50,50,36,original,objects,alexander-andrews-JYGnB9gTCls-unsplash.jpg,Stimuli/Experimental_stims/objects/alexander-andrews-JYGnB9gTCls-unsplash.jpg,,original,not_deliberated,NaN,NaN
77890,79,348,50,50,31,original,body_parts,sincerely-media-VN6DbKajo5s-unsplash.jpg,Stimuli/Experimental_stims/body_parts/sincerely-media-VN6DbKajo5s-unsplash.jpg,,original,not_deliberated,NaN,NaN
77890,80,165,50,50,34,original,body_parts,wagner-santos-mBWMvIuVnso-unsplash.jpg,Stimuli/Experimental_stims/body_parts/wagner-santos-mBWMvIuVnso-unsplash.jpg,,original,not_deliberated,NaN,NaN
77890,81,163,NA,50,94,scramble,objects,scrambled_mockup-graphics-PNsj6RiHAF4-unsplash.jpg,Stimuli/Experimental_stims/scramble/objects/scrambled_mockup-graphics-PNsj6RiHAF4-unsplash.jpg,,scramble,deliberated,unchosen,no_gain
77890,82,162,50,50,13,original,faces,daniel-rigdon-dXmXKPP2L4E-unsplash.jpg,Stimuli/Experimental_stims/faces/daniel-rigdon-dXmXKPP2L4E-unsplash.jpg,,original,deliberated,unchosen,no_gain
77890,83,163,50,50,33,original,body_parts,tucker-good-36skLT5jZcc-unsplash.jpg,Stimuli/Experimental_stims/body_parts/tucker-good-36skLT5jZcc-unsplash.jpg,,original,deliberated,chosen,gain
77890,84,167,50,50,12,original,faces,aiony-haust-jmATI5Q_YgY-unsplash.jpg,Stimuli/Experimental_stims/faces/aiony-haust-jmATI5Q_YgY-unsplash.jpg,,original,not_deliberated,NaN,NaN
77890,88,190,50,50,23,original,faces,rikonavt-HQjfrvdTfak-unsplash.jpg,Stimuli/Experimental_stims/faces/rikonavt-HQjfrvdTfak-unsplash.jpg,,original,not_deliberated,NaN,NaN
77890,89,196,NA,50,89,scramble,objects,scrambled_insung-yoon-w2JtIQQXoRU-unsplash.jpg,Stimuli/Experimental_stims/scramble/objects/scrambled_insung-yoon-w2JtIQQXoRU-unsplash.jpg,,scramble,deliberated,unchosen,no_gain
77890,91,179,50,50,8,original,outdoor_scenes,samsommer-vddccTqwal8-unsplash.jpg,Stimuli/Experimental_stims/outdoor_scenes/samsommer-vddccTqwal8-unsplash.jpg,,original,deliberated,chosen,no_gain
77890,92,179,50,50,47,original,objects,ronaldo-arthur-vidal-Cdz_lvnl37k-unsplash.jpg,Stimuli/Experimental_stims/objects/ronaldo-arthur-vidal-Cdz_lvnl37k-unsplash.jpg,,original,deliberated,chosen,gain
77890,94,178,50,50,30,original,body_parts,mika-korhonen-Xodzxosar18-unsplash.jpg,Stimuli/Experimental_stims/body_parts/mika-korhonen-Xodzxosar18-unsplash.jpg,,original,not_deliberated,NaN,NaN
77890,95,209,50,50,11,original,outdoor_scenes,stephen-leonardi-gyIRjKPXupE-unsplash.jpg,Stimuli/Experimental_stims/outdoor_scenes/stephen-leonardi-gyIRjKPXupE-unsplash.jpg,,original,deliberated,unchosen,no_gain