,PID,practice,trial,block,run,gain_left,left_item_id,right_item_id,left_pair_id,right_pair_id,left_stimulus,right_stimulus,left_category,right_category,left_path,right_path,no_response,left_chosen,rt,higher_outcome_chosen,choice_type,iti,long_iti,simulation,version,chosen_stimulus,unchosen_stimulus,chosen_category
0,67183,1,1,0,0,0,,,,,,,,,Stimuli/Practice_stims/Final_decisions/debby-hudson-FmCSSSGge-0-unsplash.jpg,Stimuli/Practice_stims/Final_decisions/yassine-khalfalli-adsQ9d_Cx0c-unsplash.jpg,1,NaN,,NaN,,3000,0,5,4,NaN,NaN,NaN
1,67183,1,2,0,0,0,,,,,,,,,Stimuli/Practice_stims/Final_decisions/florian-wehde-iVW7mZPwd4g-unsplash.jpg,Stimuli/Practice_stims/Final_decisions/patrick-perkins-3wylDrjxH-E-unsplash.jpg,1,NaN,,NaN,,1500,0,5,4,NaN,NaN,NaN
2,67183,1,3,0,0,0,,,,,,,,,Stimuli/Practice_stims/Final_decisions/debby-hudson-FmCSSSGge-0-unsplash.jpg,Stimuli/Practice_stims/Final_decisions/florian-wehde-iVW7mZPwd4g-unsplash.jpg,1,NaN,,NaN,,2000,0,5,4,NaN,NaN,NaN
3,67183,1,4,0,0,0,,,,,,,,,Stimuli/Practice_stims/Final_decisions/yassine-khalfalli-adsQ9d_Cx0c-unsplash.jpg,Stimuli/Practice_stims/Final_decisions/debby-hudson-FmCSSSGge-0-unsplash.jpg,1,NaN,,NaN,,1000,0,5,4,NaN,NaN,NaN
4,67183,0,5,1,1,0,no_gain2,gain4,A,B,1,11,outdoor_scenes,outdoor_scenes,Stimuli/Experimental_stims/outdoor_scenes/ashim-d-silva-S2Q5mdOrrVc-unsplash.jpg,Stimuli/Experimental_stims/outdoor_scenes/stephen-leonardi-gyIRjKPXupE-unsplash.jpg,1,NaN,,NaN,chosen,5000,1,5,4,50,50,NaN,NaN,NaN
5,67183,0,6,1,1,0,no_gain1,gain4,F,B,32,19,body_parts,faces,Stimuli/Experimental_stims/body_parts/towfiqu-barbhuiya-3AsiVDsZnHg-unsplash.jpg,Stimuli/Experimental_stims/faces/joel-mott-LaK153ghdig-unsplash.jpg,1,NaN,,NaN,unchosen,1700,0,5,4,50,50,NaN,NaN,NaN
6,67183,0,7,1,1,1,gain2,no_gain4,G,J,41,14,objects,faces,Stimuli/Experimental_stims/objects/insung-yoon-w2JtIQQXoRU-unsplash.jpg,Stimuli/Experimental_stims/faces/david-siglin-UuW4psOb388-unsplash.jpg,1,NaN,,NaN,chosen,1600,0,5,4,50,50,NaN,NaN,NaN
7,67183,0,8,1,1,1,gain1,no_gain2,I,A,6,43,outdoor_scenes,objects,Stimuli/Experimental_stims/outdoor_scenes/meng-ji-8BH_M-53CyA-unsplash.jpg,Stimuli/Experimental_stims/objects/jonathan-greenaway-Y4hGgeiFn3s-unsplash.jpg,1,NaN,,NaN,unchosen,1800,0,5,4,50,50,NaN,NaN,NaN
8,67183,0,9,1,1,0,no_gain6,gain6,K,L,45,12,objects,faces,Stimuli/Experimental_stims/objects/leohoho-rngTKHXumy0-unsplash.jpg,Stimuli/Experimental_stims/faces/aiony-haust-jmATI5Q_YgY-unsplash.jpg,1,NaN,,NaN,unchosen,1300,0,5,4,50,50,NaN,NaN,NaN
9,67183,0,10,1,1,1,gain6,no_gain1,L,F,12,32,faces,body_parts,Stimuli/Experimental_stims/faces/aiony-haust-jmATI5Q_YgY-unsplash.jpg,Stimuli/Experimental_stims/body_parts/towfiqu-barbhuiya-3AsiVDsZnHg-unsplash.jpg,1,NaN,,NaN,unchosen,1200,0,5,4,50,50,NaN,NaN,NaN
10,67183,0,11,1,1,0,no_gain4,gain5,J,D,14,42,faces,objects,Stimuli/Experimental_stims/faces/david-siglin-UuW4psOb388-unsplash.jpg,Stimuli/Experimental_stims/objects/jess-bailey-nOeVi8DsN8U-unsplash.jpg,1,NaN,,NaN,chosen,3800,1,5,4,50,50,NaN,NaN,NaN
11,67183,0,12,1,1,0,no_gain3,gain2,E,G,38,41,objects,objects,Stimuli/Experimental_stims/objects/art-lasovsky-8XddFc6NkBY-unsplash.jpg,Stimuli/Experimental_stims/objects/insung-yoon-w2JtIQQXoRU-unsplash.jpg,1,NaN,,NaN,chosen,1100,0,5,4,50,50,NaN,NaN,NaN
12,67183,0,13,1,1,1,gain5,no_gain4,D,J,17,39,faces,objects,Stimuli/Experimental_stims/faces/good-faces-xmSWVeGEnJw-unsplash.jpg,Stimuli/Experimental_stims/objects/charlesdeluvio-1-nx1QR5dTE-unsplash.jpg,1,NaN,,NaN,unchosen,2500,0,5,4,50,50,NaN,NaN,NaN
13,67183,0,14,1,1,0,no_gain3,gain3,E,H,38,20,objects,faces,Stimuli/Experimental_stims/objects/art-lasovsky-8XddFc6NkBY-unsplash.jpg,Stimuli/Experimental_stims/faces/justin-chen-J7Cf1Gch49E-unsplash.jpg,1,NaN,,NaN,chosen,1500,0,5,4,50,50,NaN,NaN,NaN
14,67183,0,15,1,1,0,no_gain6,gain1,K,I,45,6,objects,outdoor_scenes,Stimuli/Experimental_stims/objects/leohoho-rngTKHXumy0-unsplash.jpg,Stimuli/Experimental_stims/outdoor_scenes/meng-ji-8BH_M-53CyA-unsplash.jpg,1,NaN,,NaN,unchosen,1400,0,5,4,50,50,NaN,NaN,NaN
15,67183,0,16,1,1,0,no_gain2,gain3,A,H,1,20,outdoor_scenes,faces,Stimuli/Experimental_stims/outdoor_scenes/ashim-d-silva-S2Q5mdOrrVc-unsplash.jpg,Stimuli/Experimental_stims/faces/justin-chen-J7Cf1Gch49E-unsplash.jpg,1,NaN,,NaN,chosen,3300,1,5,4,50,50,NaN,NaN,NaN
16,67183,0,17,1,1,0,no_gain3,gain3,E,H,25,10,body_parts,outdoor_scenes,Stimuli/Experimental_stims/body_parts/engin-akyurt-Q2rfH3GW39c-unsplash.jpg,Stimuli/Experimental_stims/outdoor_scenes/shannon-kunkle-dM8INmkyDas-unsplash.jpg,1,NaN,,NaN,unchosen,1800,0,5,4,50,50,NaN,NaN,NaN
17,67183,0,18,1,1,0,no_gain1,gain3,F,H,32,10,body_parts,outdoor_scenes,Stimuli/Experimental_stims/body_parts/towfiqu-barbhuiya-3AsiVDsZnHg-unsplash.jpg,Stimuli/Experimental_stims/outdoor_scenes/shannon-kunkle-dM8INmkyDas-unsplash.jpg,1,NaN,,NaN,unchosen,1900,0,5,4,50,50,NaN,NaN,NaN
18,67183,0,19,1,1,0,no_gain6,gain4,K,B,45,19,objects,faces,Stimuli/Experimental_stims/objects/leohoho-rngTKHXumy0-unsplash.jpg,Stimuli/Experimental_stims/faces/joel-mott-LaK153ghdig-unsplash.jpg,1,NaN,,NaN,unchosen,1100,0,5,4,50,50,NaN,NaN,NaN
19,67183,0,20,1,1,0,no_gain2,gain1,A,I,1,26,outdoor_scenes,body_parts,Stimuli/Experimental_stims/outdoor_scenes/ashim-d-silva-S2Q5mdOrrVc-unsplash.jpg,Stimuli/Experimental_stims/body_parts/engin-akyurt-x_3gyC42btc-unsplash.jpg,1,NaN,,NaN,chosen,1200,0,5,4,50,50,NaN,NaN,NaN
20,67183,0,21,1,1,1,gain4,no_gain4,B,J,19,39,faces,objects,Stimuli/Experimental_stims/faces/joel-mott-LaK153ghdig-unsplash.jpg,Stimuli/Experimental_stims/objects/charlesdeluvio-1-nx1QR5dTE-unsplash.jpg,1,NaN,,NaN,unchosen,1400,0,5,4,50,50,NaN,NaN,NaN
21,67183,0,22,1,1,0,no_gain4,gain3,J,H,14,20,faces,faces,Stimuli/Experimental_stims/faces/david-siglin-UuW4psOb388-unsplash.jpg,Stimuli/Experimental_stims/faces/justin-chen-J7Cf1Gch49E-unsplash.jpg,1,NaN,,NaN,chosen,1100,0,5,4,50,50,NaN,NaN,NaN
22,67183,0,23,1,1,0,no_gain3,gain5,E,D,25,17,body_parts,faces,Stimuli/Experimental_stims/body_parts/engin-akyurt-Q2rfH3GW39c-unsplash.jpg,Stimuli/Experimental_stims/faces/good-faces-xmSWVeGEnJw-unsplash.jpg,1,NaN,,NaN,unchosen,1500,0,5,4,50,50,NaN,NaN,NaN
23,67183,0,24,1,1,1,gain1,no_gain3,I,E,26,38,body_parts,objects,Stimuli/Experimental_stims/body_parts/engin-akyurt-x_3gyC42btc-unsplash.jpg,Stimuli/Experimental_stims/objects/art-lasovsky-8XddFc6NkBY-unsplash.jpg,1,NaN,,NaN,chosen,1600,0,5,4,50,50,NaN,NaN,NaN
24,67183,0,25,1,1,1,gain2,no_gain1,G,F,4,32,outdoor_scenes,body_parts,Stimuli/Experimental_stims/outdoor_scenes/jarrett-kow-1ZOyYPOBn7I-unsplash.jpg,Stimuli/Experimental_stims/body_parts/towfiqu-barbhuiya-3AsiVDsZnHg-unsplash.jpg,1,NaN,,NaN,unchosen,3000,1,5,4,50,50,NaN,NaN,NaN
25,67183,0,26,1,1,1,gain6,no_gain4,L,J,24,14,body_parts,faces,Stimuli/Experimental_stims/body_parts/clay-banks-LjqARJaJotc-unsplash.jpg,Stimuli/Experimental_stims/faces/david-siglin-UuW4psOb388-unsplash.jpg,1,NaN,,NaN,chosen,1600,0,5,4,50,50,NaN,NaN,NaN
26,67183,0,27,1,1,0,no_gain1,gain1,F,I,32,6,body_parts,outdoor_scenes,Stimuli/Experimental_stims/body_parts/towfiqu-barbhuiya-3AsiVDsZnHg-unsplash.jpg,Stimuli/Experimental_stims/outdoor_scenes/meng-ji-8BH_M-53CyA-unsplash.jpg,1,NaN,,NaN,unchosen,2900,0,5,4,50,50,NaN,NaN,NaN
27,67183,0,28,1,1,0,no_gain1,gain3,F,H,13,20,faces,faces,Stimuli/Experimental_stims/faces/daniel-rigdon-dXmXKPP2L4E-unsplash.jpg,Stimuli/Experimental_stims/faces/justin-chen-J7Cf1Gch49E-unsplash.jpg,1,NaN,,NaN,chosen,2700,0,5,4,50,50,NaN,NaN,NaN
28,67183,0,29,1,1,1,gain5,no_gain3,D,E,42,38,objects,objects,Stimuli/Experimental_stims/objects/jess-bailey-nOeVi8DsN8U-unsplash.jpg,Stimuli/Experimental_stims/objects/art-lasovsky-8XddFc6NkBY-unsplash.jpg,1,NaN,,NaN,chosen,1800,0,5,4,50,50,NaN,NaN,NaN
29,67183,0,30,1,1,1,gain5,no_gain5,D,C,17,31,faces,body_parts,Stimuli/Experimental_stims/faces/good-faces-xmSWVeGEnJw-unsplash.jpg,Stimuli/Experimental_stims/body_parts/sincerely-media-VN6DbKajo5s-unsplash.jpg,1,NaN,,NaN,unchosen,2300,0,5,4,50,50,NaN,NaN,NaN
30,67183,0,31,1,1,0,no_gain1,gain4,F,B,13,11,faces,outdoor_scenes,Stimuli/Experimental_stims/faces/daniel-rigdon-dXmXKPP2L4E-unsplash.jpg,Stimuli/Experimental_stims/outdoor_scenes/stephen-leonardi-gyIRjKPXupE-unsplash.jpg,1,NaN,,NaN,chosen,2000,0,5,4,50,50,NaN,NaN,NaN
31,67183,0,32,1,1,1,gain6,no_gain2,L,A,24,1,body_parts,outdoor_scenes,Stimuli/Experimental_stims/body_parts/clay-banks-LjqARJaJotc-unsplash.jpg,Stimuli/Experimental_stims/outdoor_scenes/ashim-d-silva-S2Q5mdOrrVc-unsplash.jpg,1,NaN,,NaN,chosen,2600,0,5,4,50,50,NaN,NaN,NaN
32,67183,0,33,1,1,1,gain4,no_gain3,B,E,19,25,faces,body_parts,Stimuli/Experimental_stims/faces/joel-mott-LaK153ghdig-unsplash.jpg,Stimuli/Experimental_stims/body_parts/engin-akyurt-Q2rfH3GW39c-unsplash.jpg,1,NaN,,NaN,unchosen,3500,1,5,4,50,50,NaN,NaN,NaN
33,67183,0,34,1,1,1,gain4,no_gain5,B,C,19,31,faces,body_parts,Stimuli/Experimental_stims/faces/joel-mott-LaK153ghdig-unsplash.jpg,Stimuli/Experimental_stims/body_parts/sincerely-media-VN6DbKajo5s-unsplash.jpg,1,NaN,,NaN,unchosen,1000,0,5,4,50,50,NaN,NaN,NaN
34,67183,0,35,1,1,0,no_gain5,gain6,C,L,7,24,outdoor_scenes,body_parts,Stimuli/Experimental_stims/outdoor_scenes/petr-vysohlid-9fqwGqGLUxc-unsplash.jpg,Stimuli/Experimental_stims/body_parts/clay-banks-LjqARJaJotc-unsplash.jpg,1,NaN,,NaN,chosen,1600,0,5,4,50,50,NaN,NaN,NaN
35,67183,0,36,1,1,1,gain1,no_gain5,I,C,26,7,body_parts,outdoor_scenes,Stimuli/Experimental_stims/body_parts/engin-akyurt-x_3gyC42btc-unsplash.jpg,Stimuli/Experimental_stims/outdoor_scenes/petr-vysohlid-9fqwGqGLUxc-unsplash.jpg,1,NaN,,NaN,chosen,1200,0,5,4,50,50,NaN,NaN,NaN
36,67183,0,37,1,1,0,no_gain6,gain2,K,G,34,41,body_parts,objects,Stimuli/Experimental_stims/body_parts/wagner-santos-mBWMvIuVnso-unsplash.jpg,Stimuli/Experimental_stims/objects/insung-yoon-w2JtIQQXoRU-unsplash.jpg,1,NaN,,NaN,chosen,1500,0,5,4,50,50,NaN,NaN,NaN
37,67183,0,38,1,1,1,gain2,no_gain6,G,K,4,45,outdoor_scenes,objects,Stimuli/Experimental_stims/outdoor_scenes/jarrett-kow-1ZOyYPOBn7I-unsplash.jpg,Stimuli/Experimental_stims/objects/leohoho-rngTKHXumy0-unsplash.jpg,1,NaN,,NaN,unchosen,4800,1,5,4,50,50,NaN,NaN,NaN
38,67183,0,39,1,1,1,gain2,no_gain2,G,A,41,1,objects,outdoor_scenes,Stimuli/Experimental_stims/objects/insung-yoon-w2JtIQQXoRU-unsplash.jpg,Stimuli/Experimental_stims/outdoor_scenes/ashim-d-silva-S2Q5mdOrrVc-unsplash.jpg,1,NaN,,NaN,chosen,1500,0,5,4,50,50,NaN,NaN,NaN
39,67183,0,40,1,1,0,no_gain5,gain1,C,I,31,6,body_parts,outdoor_scenes,Stimuli/Experimental_stims/body_parts/sincerely-media-VN6DbKajo5s-unsplash.jpg,Stimuli/Experimental_stims/outdoor_scenes/meng-ji-8BH_M-53CyA-unsplash.jpg,1,NaN,,NaN,unchosen,1700,0,5,4,50,50,NaN,NaN,NaN
40,67183,0,41,1,1,0,no_gain4,gain1,J,I,39,6,objects,outdoor_scenes,Stimuli/Experimental_stims/objects/charlesdeluvio-1-nx1QR5dTE-unsplash.jpg,Stimuli/Experimental_stims/outdoor_scenes/meng-ji-8BH_M-53CyA-unsplash.jpg,1,NaN,,NaN,unchosen,1200,0,5,4,50,50,NaN,NaN,NaN
41,67183,0,42,1,1,1,gain5,no_gain2,D,A,17,43,faces,objects,Stimuli/Experimental_stims/faces/good-faces-xmSWVeGEnJw-unsplash.jpg,Stimuli/Experimental_stims/objects/jonathan-greenaway-Y4hGgeiFn3s-unsplash.jpg,1,NaN,,NaN,unchosen,1400,0,5,4,50,50,NaN,NaN,NaN
42,67183,0,43,1,1,1,gain6,no_gain6,L,K,24,34,body_parts,body_parts,Stimuli/Experimental_stims/body_parts/clay-banks-LjqARJaJotc-unsplash.jpg,Stimuli/Experimental_stims/body_parts/wagner-santos-mBWMvIuVnso-unsplash.jpg,1,NaN,,NaN,chosen,1800,0,5,4,50,50,NaN,NaN,NaN
43,67183,0,44,1,1,1,gain1,no_gain3,I,E,6,25,outdoor_scenes,body_parts,Stimuli/Experimental_stims/outdoor_scenes/meng-ji-8BH_M-53CyA-unsplash.jpg,Stimuli/Experimental_stims/body_parts/engin-akyurt-Q2rfH3GW39c-unsplash.jpg,1,NaN,,NaN,unchosen,3600,1,5,4,50,50,NaN,NaN,NaN
44,67183,0,45,1,1,1,gain2,no_gain5,G,C,41,7,objects,outdoor_scenes,Stimuli/Experimental_stims/objects/insung-yoon-w2JtIQQXoRU-unsplash.jpg,Stimuli/Experimental_stims/outdoor_scenes/petr-vysohlid-9fqwGqGLUxc-unsplash.jpg,1,NaN,,NaN,chosen,1200,0,5,4,50,50,NaN,NaN,NaN
45,67183,0,46,1,1,0,no_gain2,gain5,A,D,1,42,outdoor_scenes,objects,Stimuli/Experimental_stims/outdoor_scenes/ashim-d-silva-S2Q5mdOrrVc-unsplash.jpg,Stimuli/Experimental_stims/objects/jess-bailey-nOeVi8DsN8U-unsplash.jpg,1,NaN,,NaN,chosen,2700,0,5,4,50,50,NaN,NaN,NaN
46,67183,0,47,1,1,0,no_gain4,gain3,J,H,39,10,objects,outdoor_scenes,Stimuli/Experimental_stims/objects/charlesdeluvio-1-nx1QR5dTE-unsplash.jpg,Stimuli/Experimental_stims/outdoor_scenes/shannon-kunkle-dM8INmkyDas-unsplash.jpg,1,NaN,,NaN,unchosen,2100,0,5,4,50,50,NaN,NaN,NaN
47,67183,0,48,1,1,1,gain6,no_gain4,L,J,12,39,faces,objects,Stimuli/Experimental_stims/faces/aiony-haust-jmATI5Q_YgY-unsplash.jpg,Stimuli/Experimental_stims/objects/charlesdeluvio-1-nx1QR5dTE-unsplash.jpg,1,NaN,,NaN,unchosen,2500,0,5,4,50,50,NaN,NaN,NaN
48,67183,0,49,1,1,1,gain3,no_gain6,H,K,20,34,faces,body_parts,Stimuli/Experimental_stims/faces/justin-chen-J7Cf1Gch49E-unsplash.jpg,Stimuli/Experimental_stims/body_parts/wagner-santos-mBWMvIuVnso-unsplash.jpg,1,NaN,,NaN,chosen,1500,0,5,4,50,50,NaN,NaN,NaN
49,67183,0,50,1,1,1,gain2,no_gain1,G,F,41,13,objects,faces,Stimuli/Experimental_stims/objects/insung-yoon-w2JtIQQXoRU-unsplash.jpg,Stimuli/Experimental_stims/faces/daniel-rigdon-dXmXKPP2L4E-unsplash.jpg,1,NaN,,NaN,chosen,1300,0,5,4,50,50,NaN,NaN,NaN
50,67183,0,51,1,1,1,gain6,no_gain3,L,E,24,38,body_parts,objects,Stimuli/Experimental_stims/body_parts/clay-banks-LjqARJaJotc-unsplash.jpg,Stimuli/Experimental_stims/objects/art-lasovsky-8XddFc6NkBY-unsplash.jpg,1,NaN,,NaN,chosen,1000,0,5,4,50,50,NaN,NaN,NaN
51,67183,0,52,1,1,1,gain6,no_gain3,L,E,12,25,faces,body_parts,Stimuli/Experimental_stims/faces/aiony-haust-jmATI5Q_YgY-unsplash.jpg,Stimuli/Experimental_stims/body_parts/engin-akyurt-Q2rfH3GW39c-unsplash.jpg,1,NaN,,NaN,unchosen,1500,0,5,4,50,50,NaN,NaN,NaN
52,67183,0,53,1,1,0,no_gain6,gain3,K,H,45,10,objects,outdoor_scenes,Stimuli/Experimental_stims/objects/leohoho-rngTKHXumy0-unsplash.jpg,Stimuli/Experimental_stims/outdoor_scenes/shannon-kunkle-dM8INmkyDas-unsplash.jpg,1,NaN,,NaN,unchosen,2200,0,5,4,50,50,NaN,NaN,NaN
53,67183,0,54,1,1,1,gain2,no_gain5,G,C,4,31,outdoor_scenes,body_parts,Stimuli/Experimental_stims/outdoor_scenes/jarrett-kow-1ZOyYPOBn7I-unsplash.jpg,Stimuli/Experimental_stims/body_parts/sincerely-media-VN6DbKajo5s-unsplash.jpg,1,NaN,,NaN,unchosen,1300,0,5,4,50,50,NaN,NaN,NaN
54,67183,0,55,1,1,1,gain4,no_gain6,B,K,11,34,outdoor_scenes,body_parts,Stimuli/Experimental_stims/outdoor_scenes/stephen-leonardi-gyIRjKPXupE-unsplash.jpg,Stimuli/Experimental_stims/body_parts/wagner-santos-mBWMvIuVnso-unsplash.jpg,1,NaN,,NaN,chosen,3000,1,5,4,50,50,NaN,NaN,NaN
55,67183,0,56,1,1,1,gain4,no_gain2,B,A,19,43,faces,objects,Stimuli/Experimental_stims/faces/joel-mott-LaK153ghdig-unsplash.jpg,Stimuli/Experimental_stims/objects/jonathan-greenaway-Y4hGgeiFn3s-unsplash.jpg,1,NaN,,NaN,unchosen,1400,0,5,4,50,50,NaN,NaN,NaN
56,67183,0,57,1,1,1,gain3,no_gain2,H,A,10,43,outdoor_scenes,objects,Stimuli/Experimental_stims/outdoor_scenes/shannon-kunkle-dM8INmkyDas-unsplash.jpg,Stimuli/Experimental_stims/objects/jonathan-greenaway-Y4hGgeiFn3s-unsplash.jpg,1,NaN,,NaN,unchosen,1500,0,5,4,50,50,NaN,NaN,NaN
57,67183,0,58,1,1,0,no_gain4,gain1,J,I,14,26,faces,body_parts,Stimuli/Experimental_stims/faces/david-siglin-UuW4psOb388-unsplash.jpg,Stimuli/Experimental_stims/body_parts/engin-akyurt-x_3gyC42btc-unsplash.jpg,1,NaN,,NaN,chosen,1200,0,5,4,50,50,NaN,NaN,NaN
58,67183,0,59,1,1,0,no_gain2,gain2,A,G,43,4,objects,outdoor_scenes,Stimuli/Experimental_stims/objects/jonathan-greenaway-Y4hGgeiFn3s-unsplash.jpg,Stimuli/Experimental_stims/outdoor_scenes/jarrett-kow-1ZOyYPOBn7I-unsplash.jpg,1,NaN,,NaN,unchosen,1600,0,5,4,50,50,NaN,NaN,NaN
59,67183,0,60,1,1,0,no_gain6,gain1,K,I,34,26,body_parts,body_parts,Stimuli/Experimental_stims/body_parts/wagner-santos-mBWMvIuVnso-unsplash.jpg,Stimuli/Experimental_stims/body_parts/engin-akyurt-x_3gyC42btc-unsplash.jpg,1,NaN,,NaN,chosen,2300,0,5,4,50,50,NaN,NaN,NaN
60,67183,0,61,1,1,1,gain2,no_gain3,G,E,4,25,outdoor_scenes,body_parts,Stimuli/Experimental_stims/outdoor_scenes/jarrett-kow-1ZOyYPOBn7I-unsplash.jpg,Stimuli/Experimental_stims/body_parts/engin-akyurt-Q2rfH3GW39c-unsplash.jpg,1,NaN,,NaN,unchosen,1400,0,5,4,50,50,NaN,NaN,NaN
61,67183,0,62,1,1,0,no_gain5,gain4,C,B,7,11,outdoor_scenes,outdoor_scenes,Stimuli/Experimental_stims/outdoor_scenes/petr-vysohlid-9fqwGqGLUxc-unsplash.jpg,Stimuli/Experimental_stims/outdoor_scenes/stephen-leonardi-gyIRjKPXupE-unsplash.jpg,1,NaN,,NaN,chosen,4400,1,5,4,50,50,NaN,NaN,NaN
62,67183,0,63,1,1,1,gain3,no_gain5,H,C,20,7,faces,outdoor_scenes,Stimuli/Experimental_stims/faces/justin-chen-J7Cf1Gch49E-unsplash.jpg,Stimuli/Experimental_stims/outdoor_scenes/petr-vysohlid-9fqwGqGLUxc-unsplash.jpg,1,NaN,,NaN,chosen,1900,0,5,4,50,50,NaN,NaN,NaN
63,67183,0,64,1,1,0,no_gain6,gain5,K,D,45,17,objects,faces,Stimuli/Experimental_stims/objects/leohoho-rngTKHXumy0-unsplash.jpg,Stimuli/Experimental_stims/faces/good-faces-xmSWVeGEnJw-unsplash.jpg,1,NaN,,NaN,unchosen,2000,0,5,4,50,50,NaN,NaN,NaN
64,67183,0,65,1,1,0,no_gain5,gain6,C,L,31,12,body_parts,faces,Stimuli/Experimental_stims/body_parts/sincerely-media-VN6DbKajo5s-unsplash.jpg,Stimuli/Experimental_stims/faces/aiony-haust-jmATI5Q_YgY-unsplash.jpg,1,NaN,,NaN,unchosen,1500,0,5,4,50,50,NaN,NaN,NaN
65,67183,0,66,1,1,1,gain5,no_gain6,D,K,42,34,objects,body_parts,Stimuli/Experimental_stims/objects/jess-bailey-nOeVi8DsN8U-unsplash.jpg,Stimuli/Experimental_stims/body_parts/wagner-santos-mBWMvIuVnso-unsplash.jpg,1,NaN,,NaN,chosen,1600,0,5,4,50,50,NaN,NaN,NaN
66,67183,0,67,1,1,0,no_gain2,gain6,A,L,43,12,objects,faces,Stimuli/Experimental_stims/objects/jonathan-greenaway-Y4hGgeiFn3s-unsplash.jpg,Stimuli/Experimental_stims/faces/aiony-haust-jmATI5Q_YgY-unsplash.jpg,1,NaN,,NaN,unchosen,3000,1,5,4,50,50,NaN,NaN,NaN
67,67183,0,68,1,1,0,no_gain1,gain1,F,I,13,26,faces,body_parts,Stimuli/Experimental_stims/faces/daniel-rigdon-dXmXKPP2L4E-unsplash.jpg,Stimuli/Experimental_stims/body_parts/engin-akyurt-x_3gyC42btc-unsplash.jpg,1,NaN,,NaN,chosen,1900,0,5,4,50,50,NaN,NaN,NaN
68,67183,0,69,1,1,0,no_gain4,gain2,J,G,39,4,objects,outdoor_scenes,Stimuli/Experimental_stims/objects/charlesdeluvio-1-nx1QR5dTE-unsplash.jpg,Stimuli/Experimental_stims/outdoor_scenes/jarrett-kow-1ZOyYPOBn7I-unsplash.jpg,1,NaN,,NaN,unchosen,1100,0,5,4,50,50,NaN,NaN,NaN
69,67183,0,70,1,1,1,gain4,no_gain3,B,E,11,38,outdoor_scenes,objects,Stimuli/Experimental_stims/outdoor_scenes/stephen-leonardi-gyIRjKPXupE-unsplash.jpg,Stimuli/Experimental_stims/objects/art-lasovsky-8XddFc6NkBY-unsplash.jpg,1,NaN,,NaN,chosen,1300,0,5,4,50,50,NaN,NaN,NaN
70,67183,0,71,1,1,1,gain6,no_gain1,L,F,24,13,body_parts,faces,Stimuli/Experimental_stims/body_parts/clay-banks-LjqARJaJotc-unsplash.jpg,Stimuli/Experimental_stims/faces/daniel-rigdon-dXmXKPP2L4E-unsplash.jpg,1,NaN,,NaN,chosen,2600,0,5,4,50,50,NaN,NaN,NaN
71,67183,0,72,1,1,0,no_gain5,gain5,C,D,7,42,outdoor_scenes,objects,Stimuli/Experimental_stims/outdoor_scenes/petr-vysohlid-9fqwGqGLUxc-unsplash.jpg,Stimuli/Experimental_stims/objects/jess-bailey-nOeVi8DsN8U-unsplash.jpg,1,NaN,,NaN,chosen,1100,0,5,4,50,50,NaN,NaN,NaN
72,67183,0,73,1,1,0,no_gain1,gain5,F,D,32,17,body_parts,faces,Stimuli/Experimental_stims/body_parts/towfiqu-barbhuiya-3AsiVDsZnHg-unsplash.jpg,Stimuli/Experimental_stims/faces/good-faces-xmSWVeGEnJw-unsplash.jpg,1,NaN,,NaN,unchosen,2500,0,5,4,50,50,NaN,NaN,NaN
73,67183,0,74,1,1,1,gain4,no_gain4,B,J,11,14,outdoor_scenes,faces,Stimuli/Experimental_stims/outdoor_scenes/stephen-leonardi-gyIRjKPXupE-unsplash.jpg,Stimuli/Experimental_stims/faces/david-siglin-UuW4psOb388-unsplash.jpg,1,NaN,,NaN,chosen,2600,0,5,4,50,50,NaN,NaN,NaN
74,67183,0,75,1,1,0,no_gain1,gain5,F,D,13,42,faces,objects,Stimuli/Experimental_stims/faces/daniel-rigdon-dXmXKPP2L4E-unsplash.jpg,Stimuli/Experimental_stims/objects/jess-bailey-nOeVi8DsN8U-unsplash.jpg,1,NaN,,NaN,chosen,1100,0,5,4,50,50,NaN,NaN,NaN
75,67183,0,76,1,1,1,gain3,no_gain5,H,C,10,31,outdoor_scenes,body_parts,Stimuli/Experimental_stims/outdoor_scenes/shannon-kunkle-dM8INmkyDas-unsplash.jpg,Stimuli/Experimental_stims/body_parts/sincerely-media-VN6DbKajo5s-unsplash.jpg,1,NaN,,NaN,unchosen,4200,1,5,4,50,50,NaN,NaN,NaN
76,67183,0,77,2,2,1,gain4,no_gain6,B,K,19,45,faces,objects,Stimuli/Experimental_stims/faces/joel-mott-LaK153ghdig-unsplash.jpg,Stimuli/Experimental_stims/objects/leohoho-rngTKHXumy0-unsplash.jpg,1,NaN,,NaN,unchosen,1200,0,8,4,50,50,NaN,NaN,NaN
77,67183,0,78,2,2,1,gain4,no_gain3,B,E,19,25,faces,body_parts,Stimuli/Experimental_stims/faces/joel-mott-LaK153ghdig-unsplash.jpg,Stimuli/Experimental_stims/body_parts/engin-akyurt-Q2rfH3GW39c-unsplash.jpg,1,NaN,,NaN,unchosen,1400,0,8,4,50,50,NaN,NaN,NaN
78,67183,0,79,2,2,1,gain5,no_gain2,D,A,17,43,faces,objects,Stimuli/Experimental_stims/faces/good-faces-xmSWVeGEnJw-unsplash.jpg,Stimuli/Experimental_stims/objects/jonathan-greenaway-Y4hGgeiFn3s-unsplash.jpg,1,NaN,,NaN,unchosen,2800,0,8,4,50,50,NaN,NaN,NaN
79,67183,0,80,2,2,0,no_gain3,gain1,E,I,38,26,objects,body_parts,Stimuli/Experimental_stims/objects/art-lasovsky-8XddFc6NkBY-unsplash.jpg,Stimuli/Experimental_stims/body_parts/engin-akyurt-x_3gyC42btc-unsplash.jpg,1,NaN,,NaN,chosen,1700,0,8,4,50,50,NaN,NaN,NaN
80,67183,0,81,2,2,0,no_gain5,gain6,C,L,31,12,body_parts,faces,Stimuli/Experimental_stims/body_parts/sincerely-media-VN6DbKajo5s-unsplash.jpg,Stimuli/Experimental_stims/faces/aiony-haust-jmATI5Q_YgY-unsplash.jpg,1,NaN,,NaN,unchosen,3700,1,8,4,50,50,NaN,NaN,NaN
81,67183,0,82,2,2,1,gain1,no_gain4,I,J,6,39,outdoor_scenes,objects,Stimuli/Experimental_stims/outdoor_scenes/meng-ji-8BH_M-53CyA-unsplash.jpg,Stimuli/Experimental_stims/objects/charlesdeluvio-1-nx1QR5dTE-unsplash.jpg,1,NaN,,NaN,unchosen,2300,0,8,4,50,50,NaN,NaN,NaN
82,67183,0,83,2,2,0,no_gain1,gain1,F,I,13,26,faces,body_parts,Stimuli/Experimental_stims/faces/daniel-rigdon-dXmXKPP2L4E-unsplash.jpg,Stimuli/Experimental_stims/body_parts/engin-akyurt-x_3gyC42btc-unsplash.jpg,1,NaN,,NaN,chosen,2900,0,8,4,50,50,NaN,NaN,NaN
83,67183,0,84,2,2,0,no_gain3,gain5,E,D,25,17,body_parts,faces,Stimuli/Experimental_stims/body_parts/engin-akyurt-Q2rfH3GW39c-unsplash.jpg,Stimuli/Experimental_stims/faces/good-faces-xmSWVeGEnJw-unsplash.jpg,1,NaN,,NaN,unchosen,2300,0,8,4,50,50,NaN,NaN,NaN
84,67183,0,85,2,2,0,no_gain2,gain1,A,I,1,26,outdoor_scenes,body_parts,Stimuli/Experimental_stims/outdoor_scenes/ashim-d-silva-S2Q5mdOrrVc-unsplash.jpg,Stimuli/Experimental_stims/body_parts/engin-akyurt-x_3gyC42btc-unsplash.jpg,1,NaN,,NaN,chosen,1200,0,8,4,50,50,NaN,NaN,NaN
85,67183,0,86,2,2,0,no_gain1,gain1,F,I,32,6,body_parts,outdoor_scenes,Stimuli/Experimental_stims/body_parts/towfiqu-barbhuiya-3AsiVDsZnHg-unsplash.jpg,Stimuli/Experimental_stims/outdoor_scenes/meng-ji-8BH_M-53CyA-unsplash.jpg,1,NaN,,NaN,unchosen,3100,1,8,4,50,50,NaN,NaN,NaN
86,67183,0,87,2,2,0,no_gain2,gain4,A,B,1,11,outdoor_scenes,outdoor_scenes,Stimuli/Experimental_stims/outdoor_scenes/ashim-d-silva-S2Q5mdOrrVc-unsplash.jpg,Stimuli/Experimental_stims/outdoor_scenes/stephen-leonardi-gyIRjKPXupE-unsplash.jpg,1,NaN,,NaN,chosen,1200,0,8,4,50,50,NaN,NaN,NaN
87,67183,0,88,2,2,0,no_gain5,gain2,C,G,31,4,body_parts,outdoor_scenes,Stimuli/Experimental_stims/body_parts/sincerely-media-VN6DbKajo5s-unsplash.jpg,Stimuli/Experimental_stims/outdoor_scenes/jarrett-kow-1ZOyYPOBn7I-unsplash.jpg,1,NaN,,NaN,unchosen,1900,0,8,4,50,50,NaN,NaN,NaN
88,67183,0,89,2,2,1,gain6,no_gain1,L,F,24,13,body_parts,faces,Stimuli/Experimental_stims/body_parts/clay-banks-LjqARJaJotc-unsplash.jpg,Stimuli/Experimental_stims/faces/daniel-rigdon-dXmXKPP2L4E-unsplash.jpg,1,NaN,,NaN,chosen,2800,0,8,4,50,50,NaN,NaN,NaN
89,67183,0,90,2,2,1,gain5,no_gain3,D,E,42,38,objects,objects,Stimuli/Experimental_stims/objects/jess-bailey-nOeVi8DsN8U-unsplash.jpg,Stimuli/Experimental_stims/objects/art-lasovsky-8XddFc6NkBY-unsplash.jpg,1,NaN,,NaN,chosen,1200,0,8,4,50,50,NaN,NaN,NaN
90,67183,0,91,2,2,1,gain4,no_gain4,B,J,19,39,faces,objects,Stimuli/Experimental_stims/faces/joel-mott-LaK153ghdig-unsplash.jpg,Stimuli/Experimental_stims/objects/charlesdeluvio-1-nx1QR5dTE-unsplash.jpg,1,NaN,,NaN,unchosen,3800,1,8,4,50,50,NaN,NaN,NaN
91,67183,0,92,2,2,0,no_gain1,gain2,F,G,32,4,body_parts,outdoor_scenes,Stimuli/Experimental_stims/body_parts/towfiqu-barbhuiya-3AsiVDsZnHg-unsplash.jpg,Stimuli/Experimental_stims/outdoor_scenes/jarrett-kow-1ZOyYPOBn7I-unsplash.jpg,1,NaN,,NaN,unchosen,1800,0,8,4,50,50,NaN,NaN,NaN
92,67183,0,93,2,2,0,no_gain3,gain4,E,B,38,11,objects,outdoor_scenes,Stimuli/Experimental_stims/objects/art-lasovsky-8XddFc6NkBY-unsplash.jpg,Stimuli/Experimental_stims/outdoor_scenes/stephen-leonardi-gyIRjKPXupE-unsplash.jpg,1,NaN,,NaN,chosen,2300,0,8,4,50,50,NaN,NaN,NaN
93,67183,0,94,2,2,1,gain5,no_gain1,D,F,42,13,objects,faces,Stimuli/Experimental_stims/objects/jess-bailey-nOeVi8DsN8U-unsplash.jpg,Stimuli/Experimental_stims/faces/daniel-rigdon-dXmXKPP2L4E-unsplash.jpg,1,NaN,,NaN,chosen,1400,0,8,4,50,50,NaN,NaN,NaN
94,67183,0,95,2,2,0,no_gain5,gain4,C,B,31,19,body_parts,faces,Stimuli/Experimental_stims/body_parts/sincerely-media-VN6DbKajo5s-unsplash.jpg,Stimuli/Experimental_stims/faces/joel-mott-LaK153ghdig-unsplash.jpg,1,NaN,,NaN,unchosen,1300,0,8,4,50,50,NaN,NaN,NaN
95,67183,0,96,2,2,1,gain4,no_gain5,B,C,11,7,outdoor_scenes,outdoor_scenes,Stimuli/Experimental_stims/outdoor_scenes/stephen-leonardi-gyIRjKPXupE-unsplash.jpg,Stimuli/Experimental_stims/outdoor_scenes/petr-vysohlid-9fqwGqGLUxc-unsplash.jpg,1,NaN,,NaN,chosen,1700,0,8,4,50,50,NaN,NaN,NaN
96,67183,0,97,2,2,1,gain5,no_gain1,D,F,17,32,faces,body_parts,Stimuli/Experimental_stims/faces/good-faces-xmSWVeGEnJw-unsplash.jpg,Stimuli/Experimental_stims/body_parts/towfiqu-barbhuiya-3AsiVDsZnHg-unsplash.jpg,1,NaN,,NaN,unchosen,3100,1,8,4,50,50,NaN,NaN,NaN
97,67183,0,98,2,2,1,gain1,no_gain6,I,K,26,34,body_parts,body_parts,Stimuli/Experimental_stims/body_parts/engin-akyurt-x_3gyC42btc-unsplash.jpg,Stimuli/Experimental_stims/body_parts/wagner-santos-mBWMvIuVnso-unsplash.jpg,1,NaN,,NaN,chosen,1300,0,8,4,50,50,NaN,NaN,NaN
98,67183,0,99,2,2,0,no_gain2,gain1,A,I,43,6,objects,outdoor_scenes,Stimuli/Experimental_stims/objects/jonathan-greenaway-Y4hGgeiFn3s-unsplash.jpg,Stimuli/Experimental_stims/outdoor_scenes/meng-ji-8BH_M-53CyA-unsplash.jpg,1,NaN,,NaN,unchosen,2100,0,8,4,50,50,NaN,NaN,NaN
99,67183,0,100,2,2,1,gain2,no_gain3,G,E,41,38,objects,objects,Stimuli/Experimental_stims/objects/insung-yoon-w2JtIQQXoRU-unsplash.jpg,Stimuli/Experimental_stims/objects/art-lasovsky-8XddFc6NkBY-unsplash.jpg,1,NaN,,NaN,chosen,1000,0,8,4,50,50,NaN,NaN,NaN
100,67183,0,101,2,2,1,gain2,no_gain2,G,A,41,1,objects,outdoor_scenes,Stimuli/Experimental_stims/objects/insung-yoon-w2JtIQQXoRU-unsplash.jpg,Stimuli/Experimental_stims/outdoor_scenes/ashim-d-silva-S2Q5mdOrrVc-unsplash.jpg,1,NaN,,NaN,chosen,1200,0,8,4,50,50,NaN,NaN,NaN
101,67183,0,102,2,2,1,gain3,no_gain1,H,F,20,13,faces,faces,Stimuli/Experimental_stims/faces/justin-chen-J7Cf1Gch49E-unsplash.jpg,Stimuli/Experimental_stims/faces/daniel-rigdon-dXmXKPP2L4E-unsplash.jpg,1,NaN,,NaN,chosen,1700,0,8,4,50,50,NaN,NaN,NaN
102,67183,0,103,2,2,0,no_gain5,gain5,C,D,31,17,body_parts,faces,Stimuli/Experimental_stims/body_parts/sincerely-media-VN6DbKajo5s-unsplash.jpg,Stimuli/Experimental_stims/faces/good-faces-xmSWVeGEnJw-unsplash.jpg,1,NaN,,NaN,unchosen,1100,0,8,4,50,50,NaN,NaN,NaN
103,67183,0,104,2,2,0,no_gain6,gain5,K,D,34,42,body_parts,objects,Stimuli/Experimental_stims/body_parts/wagner-santos-mBWMvIuVnso-unsplash.jpg,Stimuli/Experimental_stims/objects/jess-bailey-nOeVi8DsN8U-unsplash.jpg,1,NaN,,NaN,chosen,1900,0,8,4,50,50,NaN,NaN,NaN
104,67183,0,105,2,2,0,no_gain2,gain3,A,H,1,20,outdoor_scenes,faces,Stimuli/Experimental_stims/outdoor_scenes/ashim-d-silva-S2Q5mdOrrVc-unsplash.jpg,Stimuli/Experimental_stims/faces/justin-chen-J7Cf1Gch49E-unsplash.jpg,1,NaN,,NaN,chosen,4100,1,8,4,50,50,NaN,NaN,NaN
105,67183,0,106,2,2,0,no_gain1,gain4,F,B,32,19,body_parts,faces,Stimuli/Experimental_stims/body_parts/towfiqu-barbhuiya-3AsiVDsZnHg-unsplash.jpg,Stimuli/Experimental_stims/faces/joel-mott-LaK153ghdig-unsplash.jpg,1,NaN,,NaN,unchosen,1400,0,8,4,50,50,NaN,NaN,NaN
106,67183,0,107,2,2,0,no_gain4,gain2,J,G,39,4,objects,outdoor_scenes,Stimuli/Experimental_stims/objects/charlesdeluvio-1-nx1QR5dTE-unsplash.jpg,Stimuli/Experimental_stims/outdoor_scenes/jarrett-kow-1ZOyYPOBn7I-unsplash.jpg,1,NaN,,NaN,unchosen,2400,0,8,4,50,50,NaN,NaN,NaN
107,67183,0,108,2,2,0,no_gain5,gain1,C,I,7,26,outdoor_scenes,body_parts,Stimuli/Experimental_stims/outdoor_scenes/petr-vysohlid-9fqwGqGLUxc-unsplash.jpg,Stimuli/Experimental_stims/body_parts/engin-akyurt-x_3gyC42btc-unsplash.jpg,1,NaN,,NaN,chosen,1200,0,8,4,50,50,NaN,NaN,NaN
108,67183,0,109,2,2,1,gain6,no_gain1,L,F,12,32,faces,body_parts,Stimuli/Experimental_stims/faces/aiony-haust-jmATI5Q_YgY-unsplash.jpg,Stimuli/Experimental_stims/body_parts/towfiqu-barbhuiya-3AsiVDsZnHg-unsplash.jpg,1,NaN,,NaN,unchosen,1500,0,8,4,50,50,NaN,NaN,NaN
109,67183,0,110,2,2,1,gain1,no_gain6,I,K,6,45,outdoor_scenes,objects,Stimuli/Experimental_stims/outdoor_scenes/meng-ji-8BH_M-53CyA-unsplash.jpg,Stimuli/Experimental_stims/objects/leohoho-rngTKHXumy0-unsplash.jpg,1,NaN,,NaN,unchosen,3200,1,8,4,50,50,NaN,NaN,NaN
110,67183,0,111,2,2,0,no_gain5,gain2,C,G,7,41,outdoor_scenes,objects,Stimuli/Experimental_stims/outdoor_scenes/petr-vysohlid-9fqwGqGLUxc-unsplash.jpg,Stimuli/Experimental_stims/objects/insung-yoon-w2JtIQQXoRU-unsplash.jpg,1,NaN,,NaN,chosen,1800,0,8,4,50,50,NaN,NaN,NaN
111,67183,0,112,2,2,0,no_gain5,gain1,C,I,31,6,body_parts,outdoor_scenes,Stimuli/Experimental_stims/body_parts/sincerely-media-VN6DbKajo5s-unsplash.jpg,Stimuli/Experimental_stims/outdoor_scenes/meng-ji-8BH_M-53CyA-unsplash.jpg,1,NaN,,NaN,unchosen,1100,0,8,4,50,50,NaN,NaN,NaN
112,67183,0,113,2,2,1,gain2,no_gain6,G,K,4,45,outdoor_scenes,objects,Stimuli/Experimental_stims/outdoor_scenes/jarrett-kow-1ZOyYPOBn7I-unsplash.jpg,Stimuli/Experimental_stims/objects/leohoho-rngTKHXumy0-unsplash.jpg,1,NaN,,NaN,unchosen,1700,0,8,4,50,50,NaN,NaN,NaN
113,67183,0,114,2,2,1,gain6,no_gain4,L,J,24,14,body_parts,faces,Stimuli/Experimental_stims/body_parts/clay-banks-LjqARJaJotc-unsplash.jpg,Stimuli/Experimental_stims/faces/david-siglin-UuW4psOb388-unsplash.jpg,1,NaN,,NaN,chosen,2700,0,8,4,50,50,NaN,NaN,NaN
114,67183,0,115,2,2,1,gain6,no_gain3,L,E,12,25,faces,body_parts,Stimuli/Experimental_stims/faces/aiony-haust-jmATI5Q_YgY-unsplash.jpg,Stimuli/Experimental_stims/body_parts/engin-akyurt-Q2rfH3GW39c-unsplash.jpg,1,NaN,,NaN,unchosen,1100,0,8,4,50,50,NaN,NaN,NaN
115,67183,0,116,2,2,0,no_gain6,gain4,K,B,34,11,body_parts,outdoor_scenes,Stimuli/Experimental_stims/body_parts/wagner-santos-mBWMvIuVnso-unsplash.jpg,Stimuli/Experimental_stims/outdoor_scenes/stephen-leonardi-gyIRjKPXupE-unsplash.jpg,1,NaN,,NaN,chosen,1100,0,8,4,50,50,NaN,NaN,NaN
116,67183,0,117,2,2,0,no_gain1,gain3,F,H,32,10,body_parts,outdoor_scenes,Stimuli/Experimental_stims/body_parts/towfiqu-barbhuiya-3AsiVDsZnHg-unsplash.jpg,Stimuli/Experimental_stims/outdoor_scenes/shannon-kunkle-dM8INmkyDas-unsplash.jpg,1,NaN,,NaN,unchosen,2400,0,8,4,50,50,NaN,NaN,NaN
117,67183,0,118,2,2,1,gain3,no_gain6,H,K,20,34,faces,body_parts,Stimuli/Experimental_stims/faces/justin-chen-J7Cf1Gch49E-unsplash.jpg,Stimuli/Experimental_stims/body_parts/wagner-santos-mBWMvIuVnso-unsplash.jpg,1,NaN,,NaN,chosen,3400,1,8,4,50,50,NaN,NaN,NaN
118,67183,0,119,2,2,1,gain3,no_gain3,H,E,20,38,faces,objects,Stimuli/Experimental_stims/faces/justin-chen-J7Cf1Gch49E-unsplash.jpg,Stimuli/Experimental_stims/objects/art-lasovsky-8XddFc6NkBY-unsplash.jpg,1,NaN,,NaN,chosen,2000,0,8,4,50,50,NaN,NaN,NaN
119,67183,0,120,2,2,0,no_gain6,gain3,K,H,45,10,objects,outdoor_scenes,Stimuli/Experimental_stims/objects/leohoho-rngTKHXumy0-unsplash.jpg,Stimuli/Experimental_stims/outdoor_scenes/shannon-kunkle-dM8INmkyDas-unsplash.jpg,1,NaN,,NaN,unchosen,2100,0,8,4,50,50,NaN,NaN,NaN
120,67183,0,121,2,2,0,no_gain2,gain6,A,L,43,12,objects,faces,Stimuli/Experimental_stims/objects/jonathan-greenaway-Y4hGgeiFn3s-unsplash.jpg,Stimuli/Experimental_stims/faces/aiony-haust-jmATI5Q_YgY-unsplash.jpg,1,NaN,,NaN,unchosen,2500,0,8,4,50,50,NaN,NaN,NaN
121,67183,0,122,2,2,1,gain5,no_gain4,D,J,17,39,faces,objects,Stimuli/Experimental_stims/faces/good-faces-xmSWVeGEnJw-unsplash.jpg,Stimuli/Experimental_stims/objects/charlesdeluvio-1-nx1QR5dTE-unsplash.jpg,1,NaN,,NaN,unchosen,1600,0,8,4,50,50,NaN,NaN,NaN
122,67183,0,123,2,2,1,gain2,no_gain4,G,J,41,14,objects,faces,Stimuli/Experimental_stims/objects/insung-yoon-w2JtIQQXoRU-unsplash.jpg,Stimuli/Experimental_stims/faces/david-siglin-UuW4psOb388-unsplash.jpg,1,NaN,,NaN,chosen,2400,0,8,4,50,50,NaN,NaN,NaN
123,67183,0,124,2,2,1,gain4,no_gain1,B,F,11,13,outdoor_scenes,faces,Stimuli/Experimental_stims/outdoor_scenes/stephen-leonardi-gyIRjKPXupE-unsplash.jpg,Stimuli/Experimental_stims/faces/daniel-rigdon-dXmXKPP2L4E-unsplash.jpg,1,NaN,,NaN,chosen,1300,0,8,4,50,50,NaN,NaN,NaN
124,67183,0,125,2,2,1,gain3,no_gain4,H,J,10,39,outdoor_scenes,objects,Stimuli/Experimental_stims/outdoor_scenes/shannon-kunkle-dM8INmkyDas-unsplash.jpg,Stimuli/Experimental_stims/objects/charlesdeluvio-1-nx1QR5dTE-unsplash.jpg,1,NaN,,NaN,unchosen,1900,0,8,4,50,50,NaN,NaN,NaN
125,67183,0,126,2,2,1,gain2,no_gain1,G,F,41,13,objects,faces,Stimuli/Experimental_stims/objects/insung-yoon-w2JtIQQXoRU-unsplash.jpg,Stimuli/Experimental_stims/faces/daniel-rigdon-dXmXKPP2L4E-unsplash.jpg,1,NaN,,NaN,chosen,1600,0,8,4,50,50,NaN,NaN,NaN
126,67183,0,127,2,2,0,no_gain2,gain5,A,D,1,42,outdoor_scenes,objects,Stimuli/Experimental_stims/outdoor_scenes/ashim-d-silva-S2Q5mdOrrVc-unsplash.jpg,Stimuli/Experimental_stims/objects/jess-bailey-nOeVi8DsN8U-unsplash.jpg,1,NaN,,NaN,chosen,1100,0,8,4,50,50,NaN,NaN,NaN
127,67183,0,128,2,2,1,gain3,no_gain2,H,A,10,43,outdoor_scenes,objects,Stimuli/Experimental_stims/outdoor_scenes/shannon-kunkle-dM8INmkyDas-unsplash.jpg,Stimuli/Experimental_stims/objects/jonathan-greenaway-Y4hGgeiFn3s-unsplash.jpg,1,NaN,,NaN,unchosen,1200,0,8,4,50,50,NaN,NaN,NaN
128,67183,0,129,2,2,1,gain3,no_gain3,H,E,10,25,outdoor_scenes,body_parts,Stimuli/Experimental_stims/outdoor_scenes/shannon-kunkle-dM8INmkyDas-unsplash.jpg,Stimuli/Experimental_stims/body_parts/engin-akyurt-Q2rfH3GW39c-unsplash.jpg,1,NaN,,NaN,unchosen,1300,0,8,4,50,50,NaN,NaN,NaN
129,67183,0,130,2,2,1,gain4,no_gain4,B,J,11,14,outdoor_scenes,faces,Stimuli/Experimental_stims/outdoor_scenes/stephen-leonardi-gyIRjKPXupE-unsplash.jpg,Stimuli/Experimental_stims/faces/david-siglin-UuW4psOb388-unsplash.jpg,1,NaN,,NaN,chosen,1000,0,8,4,50,50,NaN,NaN,NaN
130,67183,0,131,2,2,0,no_gain4,gain1,J,I,14,26,faces,body_parts,Stimuli/Experimental_stims/faces/david-siglin-UuW4psOb388-unsplash.jpg,Stimuli/Experimental_stims/body_parts/engin-akyurt-x_3gyC42btc-unsplash.jpg,1,NaN,,NaN,chosen,2900,0,8,4,50,50,NaN,NaN,NaN
131,67183,0,132,2,2,0,no_gain2,gain6,A,L,1,24,outdoor_scenes,body_parts,Stimuli/Experimental_stims/outdoor_scenes/ashim-d-silva-S2Q5mdOrrVc-unsplash.jpg,Stimuli/Experimental_stims/body_parts/clay-banks-LjqARJaJotc-unsplash.jpg,1,NaN,,NaN,chosen,2200,0,8,4,50,50,NaN,NaN,NaN
132,67183,0,133,2,2,0,no_gain3,gain2,E,G,25,4,body_parts,outdoor_scenes,Stimuli/Experimental_stims/body_parts/engin-akyurt-Q2rfH3GW39c-unsplash.jpg,Stimuli/Experimental_stims/outdoor_scenes/jarrett-kow-1ZOyYPOBn7I-unsplash.jpg,1,NaN,,NaN,unchosen,3200,1,8,4,50,50,NaN,NaN,NaN
133,67183,0,134,2,2,1,gain1,no_gain3,I,E,6,25,outdoor_scenes,body_parts,Stimuli/Experimental_stims/outdoor_scenes/meng-ji-8BH_M-53CyA-unsplash.jpg,Stimuli/Experimental_stims/body_parts/engin-akyurt-Q2rfH3GW39c-unsplash.jpg,1,NaN,,NaN,unchosen,2600,0,8,4,50,50,NaN,NaN,NaN
134,67183,0,135,2,2,0,no_gain6,gain6,K,L,45,12,objects,faces,Stimuli/Experimental_stims/objects/leohoho-rngTKHXumy0-unsplash.jpg,Stimuli/Experimental_stims/faces/aiony-haust-jmATI5Q_YgY-unsplash.jpg,1,NaN,,NaN,unchosen,1200,0,8,4,50,50,NaN,NaN,NaN
135,67183,0,136,2,2,0,no_gain4,gain3,J,H,14,20,faces,faces,Stimuli/Experimental_stims/faces/david-siglin-UuW4psOb388-unsplash.jpg,Stimuli/Experimental_stims/faces/justin-chen-J7Cf1Gch49E-unsplash.jpg,1,NaN,,NaN,chosen,1100,0,8,4,50,50,NaN,NaN,NaN
136,67183,0,137,2,2,1,gain5,no_gain6,D,K,17,45,faces,objects,Stimuli/Experimental_stims/faces/good-faces-xmSWVeGEnJw-unsplash.jpg,Stimuli/Experimental_stims/objects/leohoho-rngTKHXumy0-unsplash.jpg,1,NaN,,NaN,unchosen,2000,0,8,4,50,50,NaN,NaN,NaN
137,67183,0,138,2,2,0,no_gain6,gain2,K,G,34,41,body_parts,objects,Stimuli/Experimental_stims/body_parts/wagner-santos-mBWMvIuVnso-unsplash.jpg,Stimuli/Experimental_stims/objects/insung-yoon-w2JtIQQXoRU-unsplash.jpg,1,NaN,,NaN,chosen,4100,1,8,4,50,50,NaN,NaN,NaN
138,67183,0,139,2,2,0,no_gain2,gain4,A,B,43,19,objects,faces,Stimuli/Experimental_stims/objects/jonathan-greenaway-Y4hGgeiFn3s-unsplash.jpg,Stimuli/Experimental_stims/faces/joel-mott-LaK153ghdig-unsplash.jpg,1,NaN,,NaN,unchosen,1700,0,8,4,50,50,NaN,NaN,NaN
139,67183,0,140,2,2,0,no_gain2,gain2,A,G,43,4,objects,outdoor_scenes,Stimuli/Experimental_stims/objects/jonathan-greenaway-Y4hGgeiFn3s-unsplash.jpg,Stimuli/Experimental_stims/outdoor_scenes/jarrett-kow-1ZOyYPOBn7I-unsplash.jpg,1,NaN,,NaN,unchosen,1200,0,8,4,50,50,NaN,NaN,NaN
140,67183,0,141,2,2,1,gain6,no_gain3,L,E,24,38,body_parts,objects,Stimuli/Experimental_stims/body_parts/clay-banks-LjqARJaJotc-unsplash.jpg,Stimuli/Experimental_stims/objects/art-lasovsky-8XddFc6NkBY-unsplash.jpg,1,NaN,,NaN,chosen,1000,0,8,4,50,50,NaN,NaN,NaN
141,67183,0,142,2,2,0,no_gain5,gain5,C,D,7,42,outdoor_scenes,objects,Stimuli/Experimental_stims/outdoor_scenes/petr-vysohlid-9fqwGqGLUxc-unsplash.jpg,Stimuli/Experimental_stims/objects/jess-bailey-nOeVi8DsN8U-unsplash.jpg,1,NaN,,NaN,chosen,1800,0,8,4,50,50,NaN,NaN,NaN
142,67183,0,143,2,2,0,no_gain5,gain6,C,L,7,24,outdoor_scenes,body_parts,Stimuli/Experimental_stims/outdoor_scenes/petr-vysohlid-9fqwGqGLUxc-unsplash.jpg,Stimuli/Experimental_stims/body_parts/clay-banks-LjqARJaJotc-unsplash.jpg,1,NaN,,NaN,chosen,3500,1,8,4,50,50,NaN,NaN,NaN
143,67183,0,144,2,2,1,gain6,no_gain4,L,J,12,39,faces,objects,Stimuli/Experimental_stims/faces/aiony-haust-jmATI5Q_YgY-unsplash.jpg,Stimuli/Experimental_stims/objects/charlesdeluvio-1-nx1QR5dTE-unsplash.jpg,1,NaN,,NaN,unchosen,2700,0,8,4,50,50,NaN,NaN,NaN
144,67183,0,145,2,2,1,gain6,no_gain6,L,K,24,34,body_parts,body_parts,Stimuli/Experimental_stims/body_parts/clay-banks-LjqARJaJotc-unsplash.jpg,Stimuli/Experimental_stims/body_parts/wagner-santos-mBWMvIuVnso-unsplash.jpg,1,NaN,,NaN,chosen,2400,0,8,4,50,50,NaN,NaN,NaN
145,67183,0,146,2,2,1,gain3,no_gain5,H,C,10,31,outdoor_scenes,body_parts,Stimuli/Experimental_stims/outdoor_scenes/shannon-kunkle-dM8INmkyDas-unsplash.jpg,Stimuli/Experimental_stims/body_parts/sincerely-media-VN6DbKajo5s-unsplash.jpg,1,NaN,,NaN,unchosen,1400,0,8,4,50,50,NaN,NaN,NaN
146,67183,0,147,2,2,1,gain5,no_gain4,D,J,42,14,objects,faces,Stimuli/Experimental_stims/objects/jess-bailey-nOeVi8DsN8U-unsplash.jpg,Stimuli/Experimental_stims/faces/david-siglin-UuW4psOb388-unsplash.jpg,1,NaN,,NaN,chosen,1200,0,8,4,50,50,NaN,NaN,NaN
147,67183,0,148,2,2,0,no_gain5,gain3,C,H,7,20,outdoor_scenes,faces,Stimuli/Experimental_stims/outdoor_scenes/petr-vysohlid-9fqwGqGLUxc-unsplash.jpg,Stimuli/Experimental_stims/faces/justin-chen-J7Cf1Gch49E-unsplash.jpg,1,NaN,,NaN,chosen,3300,1,8,4,50,50,NaN,NaN,NaN
148,67183,0,149,3,3,1,gain5,no_gain3,D,E,42,38,objects,objects,Stimuli/Experimental_stims/objects/jess-bailey-nOeVi8DsN8U-unsplash.jpg,Stimuli/Experimental_stims/objects/art-lasovsky-8XddFc6NkBY-unsplash.jpg,1,NaN,,NaN,chosen,3900,1,7,4,50,50,NaN,NaN,NaN
149,67183,0,150,3,3,0,no_gain3,gain4,E,B,38,11,objects,outdoor_scenes,Stimuli/Experimental_stims/objects/art-lasovsky-8XddFc6NkBY-unsplash.jpg,Stimuli/Experimental_stims/outdoor_scenes/stephen-leonardi-gyIRjKPXupE-unsplash.jpg,1,NaN,,NaN,chosen,1200,0,7,4,50,50,NaN,NaN,NaN
150,67183,0,151,3,3,1,gain6,no_gain3,L,E,24,38,body_parts,objects,Stimuli/Experimental_stims/body_parts/clay-banks-LjqARJaJotc-unsplash.jpg,Stimuli/Experimental_stims/objects/art-lasovsky-8XddFc6NkBY-unsplash.jpg,1,NaN,,NaN,chosen,1500,0,7,4,50,50,NaN,NaN,NaN
151,67183,0,152,3,3,1,gain4,no_gain4,B,J,19,39,faces,objects,Stimuli/Experimental_stims/faces/joel-mott-LaK153ghdig-unsplash.jpg,Stimuli/Experimental_stims/objects/charlesdeluvio-1-nx1QR5dTE-unsplash.jpg,1,NaN,,NaN,unchosen,2700,0,7,4,50,50,NaN,NaN,NaN
152,67183,0,153,3,3,1,gain5,no_gain5,D,C,17,31,faces,body_parts,Stimuli/Experimental_stims/faces/good-faces-xmSWVeGEnJw-unsplash.jpg,Stimuli/Experimental_stims/body_parts/sincerely-media-VN6DbKajo5s-unsplash.jpg,1,NaN,,NaN,unchosen,1300,0,7,4,50,50,NaN,NaN,NaN
153,67183,0,154,3,3,0,no_gain6,gain1,K,I,34,26,body_parts,body_parts,Stimuli/Experimental_stims/body_parts/wagner-santos-mBWMvIuVnso-unsplash.jpg,Stimuli/Experimental_stims/body_parts/engin-akyurt-x_3gyC42btc-unsplash.jpg,1,NaN,,NaN,chosen,1000,0,7,4,50,50,NaN,NaN,NaN
154,67183,0,155,3,3,1,gain1,no_gain3,I,E,26,38,body_parts,objects,Stimuli/Experimental_stims/body_parts/engin-akyurt-x_3gyC42btc-unsplash.jpg,Stimuli/Experimental_stims/objects/art-lasovsky-8XddFc6NkBY-unsplash.jpg,1,NaN,,NaN,chosen,3000,1,7,4,50,50,NaN,NaN,NaN
155,67183,0,156,3,3,0,no_gain2,gain3,A,H,43,10,objects,outdoor_scenes,Stimuli/Experimental_stims/objects/jonathan-greenaway-Y4hGgeiFn3s-unsplash.jpg,Stimuli/Experimental_stims/outdoor_scenes/shannon-kunkle-dM8INmkyDas-unsplash.jpg,1,NaN,,NaN,unchosen,2800,0,7,4,50,50,NaN,NaN,NaN
156,67183,0,157,3,3,1,gain3,no_gain5,H,C,20,7,faces,outdoor_scenes,Stimuli/Experimental_stims/faces/justin-chen-J7Cf1Gch49E-unsplash.jpg,Stimuli/Experimental_stims/outdoor_scenes/petr-vysohlid-9fqwGqGLUxc-unsplash.jpg,1,NaN,,NaN,chosen,1400,0,7,4,50,50,NaN,NaN,NaN
157,67183,0,158,3,3,1,gain1,no_gain1,I,F,26,13,body_parts,faces,Stimuli/Experimental_stims/body_parts/engin-akyurt-x_3gyC42btc-unsplash.jpg,Stimuli/Experimental_stims/faces/daniel-rigdon-dXmXKPP2L4E-unsplash.jpg,1,NaN,,NaN,chosen,2500,0,7,4,50,50,NaN,NaN,NaN
158,67183,0,159,3,3,0,no_gain3,gain2,E,G,25,4,body_parts,outdoor_scenes,Stimuli/Experimental_stims/body_parts/engin-akyurt-Q2rfH3GW39c-unsplash.jpg,Stimuli/Experimental_stims/outdoor_scenes/jarrett-kow-1ZOyYPOBn7I-unsplash.jpg,1,NaN,,NaN,unchosen,1600,0,7,4,50,50,NaN,NaN,NaN
159,67183,0,160,3,3,1,gain2,no_gain4,G,J,4,39,outdoor_scenes,objects,Stimuli/Experimental_stims/outdoor_scenes/jarrett-kow-1ZOyYPOBn7I-unsplash.jpg,Stimuli/Experimental_stims/objects/charlesdeluvio-1-nx1QR5dTE-unsplash.jpg,1,NaN,,NaN,unchosen,3600,1,7,4,50,50,NaN,NaN,NaN
160,67183,0,161,3,3,0,no_gain4,gain5,J,D,39,17,objects,faces,Stimuli/Experimental_stims/objects/charlesdeluvio-1-nx1QR5dTE-unsplash.jpg,Stimuli/Experimental_stims/faces/good-faces-xmSWVeGEnJw-unsplash.jpg,1,NaN,,NaN,unchosen,1200,0,7,4,50,50,NaN,NaN,NaN
161,67183,0,162,3,3,0,no_gain5,gain4,C,B,7,11,outdoor_scenes,outdoor_scenes,Stimuli/Experimental_stims/outdoor_scenes/petr-vysohlid-9fqwGqGLUxc-unsplash.jpg,Stimuli/Experimental_stims/outdoor_scenes/stephen-leonardi-gyIRjKPXupE-unsplash.jpg,1,NaN,,NaN,chosen,1800,0,7,4,50,50,NaN,NaN,NaN
162,67183,0,163,3,3,1,gain2,no_gain5,G,C,41,7,objects,outdoor_scenes,Stimuli/Experimental_stims/objects/insung-yoon-w2JtIQQXoRU-unsplash.jpg,Stimuli/Experimental_stims/outdoor_scenes/petr-vysohlid-9fqwGqGLUxc-unsplash.jpg,1,NaN,,NaN,chosen,2800,0,7,4,50,50,NaN,NaN,NaN
163,67183,0,164,3,3,1,gain5,no_gain6,D,K,17,45,faces,objects,Stimuli/Experimental_stims/faces/good-faces-xmSWVeGEnJw-unsplash.jpg,Stimuli/Experimental_stims/objects/leohoho-rngTKHXumy0-unsplash.jpg,1,NaN,,NaN,unchosen,2100,0,7,4,50,50,NaN,NaN,NaN
164,67183,0,165,3,3,0,no_gain4,gain3,J,H,14,20,faces,faces,Stimuli/Experimental_stims/faces/david-siglin-UuW4psOb388-unsplash.jpg,Stimuli/Experimental_stims/faces/justin-chen-J7Cf1Gch49E-unsplash.jpg,1,NaN,,NaN,chosen,1500,0,7,4,50,50,NaN,NaN,NaN
165,67183,0,166,3,3,0,no_gain1,gain5,F,D,13,42,faces,objects,Stimuli/Experimental_stims/faces/daniel-rigdon-dXmXKPP2L4E-unsplash.jpg,Stimuli/Experimental_stims/objects/jess-bailey-nOeVi8DsN8U-unsplash.jpg,1,NaN,,NaN,chosen,2100,0,7,4,50,50,NaN,NaN,NaN
166,67183,0,167,3,3,0,no_gain3,gain2,E,G,38,41,objects,objects,Stimuli/Experimental_stims/objects/art-lasovsky-8XddFc6NkBY-unsplash.jpg,Stimuli/Experimental_stims/objects/insung-yoon-w2JtIQQXoRU-unsplash.jpg,1,NaN,,NaN,chosen,3600,1,7,4,50,50,NaN,NaN,NaN
167,67183,0,168,3,3,1,gain6,no_gain4,L,J,12,39,faces,objects,Stimuli/Experimental_stims/faces/aiony-haust-jmATI5Q_YgY-unsplash.jpg,Stimuli/Experimental_stims/objects/charlesdeluvio-1-nx1QR5dTE-unsplash.jpg,1,NaN,,NaN,unchosen,1300,0,7,4,50,50,NaN,NaN,NaN
168,67183,0,169,3,3,0,no_gain4,gain2,J,G,14,41,faces,objects,Stimuli/Experimental_stims/faces/david-siglin-UuW4psOb388-unsplash.jpg,Stimuli/Experimental_stims/objects/insung-yoon-w2JtIQQXoRU-unsplash.jpg,1,NaN,,NaN,chosen,2700,0,7,4,50,50,NaN,NaN,NaN
169,67183,0,170,3,3,1,gain1,no_gain4,I,J,6,39,outdoor_scenes,objects,Stimuli/Experimental_stims/outdoor_scenes/meng-ji-8BH_M-53CyA-unsplash.jpg,Stimuli/Experimental_stims/objects/charlesdeluvio-1-nx1QR5dTE-unsplash.jpg,1,NaN,,NaN,unchosen,1400,0,7,4,50,50,NaN,NaN,NaN
170,67183,0,171,3,3,0,no_gain2,gain4,A,B,43,19,objects,faces,Stimuli/Experimental_stims/objects/jonathan-greenaway-Y4hGgeiFn3s-unsplash.jpg,Stimuli/Experimental_stims/faces/joel-mott-LaK153ghdig-unsplash.jpg,1,NaN,,NaN,unchosen,2300,0,7,4,50,50,NaN,NaN,NaN
171,67183,0,172,3,3,0,no_gain1,gain1,F,I,32,6,body_parts,outdoor_scenes,Stimuli/Experimental_stims/body_parts/towfiqu-barbhuiya-3AsiVDsZnHg-unsplash.jpg,Stimuli/Experimental_stims/outdoor_scenes/meng-ji-8BH_M-53CyA-unsplash.jpg,1,NaN,,NaN,unchosen,3400,1,7,4,50,50,NaN,NaN,NaN
172,67183,0,173,3,3,1,gain4,no_gain2,B,A,11,1,outdoor_scenes,outdoor_scenes,Stimuli/Experimental_stims/outdoor_scenes/stephen-leonardi-gyIRjKPXupE-unsplash.jpg,Stimuli/Experimental_stims/outdoor_scenes/ashim-d-silva-S2Q5mdOrrVc-unsplash.jpg,1,NaN,,NaN,chosen,1200,0,7,4,50,50,NaN,NaN,NaN
173,67183,0,174,3,3,0,no_gain6,gain6,K,L,45,12,objects,faces,Stimuli/Experimental_stims/objects/leohoho-rngTKHXumy0-unsplash.jpg,Stimuli/Experimental_stims/faces/aiony-haust-jmATI5Q_YgY-unsplash.jpg,1,NaN,,NaN,unchosen,2500,0,7,4,50,50,NaN,NaN,NaN
174,67183,0,175,3,3,1,gain3,no_gain3,H,E,20,38,faces,objects,Stimuli/Experimental_stims/faces/justin-chen-J7Cf1Gch49E-unsplash.jpg,Stimuli/Experimental_stims/objects/art-lasovsky-8XddFc6NkBY-unsplash.jpg,1,NaN,,NaN,chosen,2600,0,7,4,50,50,NaN,NaN,NaN
175,67183,0,176,3,3,0,no_gain2,gain6,A,L,43,12,objects,faces,Stimuli/Experimental_stims/objects/jonathan-greenaway-Y4hGgeiFn3s-unsplash.jpg,Stimuli/Experimental_stims/faces/aiony-haust-jmATI5Q_YgY-unsplash.jpg,1,NaN,,NaN,unchosen,2100,0,7,4,50,50,NaN,NaN,NaN
176,67183,0,177,3,3,1,gain1,no_gain5,I,C,26,7,body_parts,outdoor_scenes,Stimuli/Experimental_stims/body_parts/engin-akyurt-x_3gyC42btc-unsplash.jpg,Stimuli/Experimental_stims/outdoor_scenes/petr-vysohlid-9fqwGqGLUxc-unsplash.jpg,1,NaN,,NaN,chosen,3300,1,7,4,50,50,NaN,NaN,NaN
177,67183,0,178,3,3,0,no_gain1,gain5,F,D,32,17,body_parts,faces,Stimuli/Experimental_stims/body_parts/towfiqu-barbhuiya-3AsiVDsZnHg-unsplash.jpg,Stimuli/Experimental_stims/faces/good-faces-xmSWVeGEnJw-unsplash.jpg,1,NaN,,NaN,unchosen,1200,0,7,4,50,50,NaN,NaN,NaN
178,67183,0,179,3,3,1,gain2,no_gain6,G,K,41,34,objects,body_parts,Stimuli/Experimental_stims/objects/insung-yoon-w2JtIQQXoRU-unsplash.jpg,Stimuli/Experimental_stims/body_parts/wagner-santos-mBWMvIuVnso-unsplash.jpg,1,NaN,,NaN,chosen,1500,0,7,4,50,50,NaN,NaN,NaN
179,67183,0,180,3,3,1,gain3,no_gain6,H,K,10,45,outdoor_scenes,objects,Stimuli/Experimental_stims/outdoor_scenes/shannon-kunkle-dM8INmkyDas-unsplash.jpg,Stimuli/Experimental_stims/objects/leohoho-rngTKHXumy0-unsplash.jpg,1,NaN,,NaN,unchosen,1700,0,7,4,50,50,NaN,NaN,NaN
180,67183,0,181,3,3,0,no_gain5,gain1,C,I,31,6,body_parts,outdoor_scenes,Stimuli/Experimental_stims/body_parts/sincerely-media-VN6DbKajo5s-unsplash.jpg,Stimuli/Experimental_stims/outdoor_scenes/meng-ji-8BH_M-53CyA-unsplash.jpg,1,NaN,,NaN,unchosen,1500,0,7,4,50,50,NaN,NaN,NaN
181,67183,0,182,3,3,1,gain2,no_gain6,G,K,4,45,outdoor_scenes,objects,Stimuli/Experimental_stims/outdoor_scenes/jarrett-kow-1ZOyYPOBn7I-unsplash.jpg,Stimuli/Experimental_stims/objects/leohoho-rngTKHXumy0-unsplash.jpg,1,NaN,,NaN,unchosen,1300,0,7,4,50,50,NaN,NaN,NaN
182,67183,0,183,3,3,1,gain1,no_gain4,I,J,26,14,body_parts,faces,Stimuli/Experimental_stims/body_parts/engin-akyurt-x_3gyC42btc-unsplash.jpg,Stimuli/Experimental_stims/faces/david-siglin-UuW4psOb388-unsplash.jpg,1,NaN,,NaN,chosen,2000,0,7,4,50,50,NaN,NaN,NaN
183,67183,0,184,3,3,0,no_gain1,gain6,F,L,32,12,body_parts,faces,Stimuli/Experimental_stims/body_parts/towfiqu-barbhuiya-3AsiVDsZnHg-unsplash.jpg,Stimuli/Experimental_stims/faces/aiony-haust-jmATI5Q_YgY-unsplash.jpg,1,NaN,,NaN,unchosen,1500,0,7,4,50,50,NaN,NaN,NaN
184,67183,0,185,3,3,1,gain5,no_gain5,D,C,42,7,objects,outdoor_scenes,Stimuli/Experimental_stims/objects/jess-bailey-nOeVi8DsN8U-unsplash.jpg,Stimuli/Experimental_stims/outdoor_scenes/petr-vysohlid-9fqwGqGLUxc-unsplash.jpg,1,NaN,,NaN,chosen,2200,0,7,4,50,50,NaN,NaN,NaN
185,67183,0,186,3,3,1,gain6,no_gain1,L,F,24,13,body_parts,faces,Stimuli/Experimental_stims/body_parts/clay-banks-LjqARJaJotc-unsplash.jpg,Stimuli/Experimental_stims/faces/daniel-rigdon-dXmXKPP2L4E-unsplash.jpg,1,NaN,,NaN,chosen,1300,0,7,4,50,50,NaN,NaN,NaN
186,67183,0,187,3,3,0,no_gain6,gain4,K,B,34,11,body_parts,outdoor_scenes,Stimuli/Experimental_stims/body_parts/wagner-santos-mBWMvIuVnso-unsplash.jpg,Stimuli/Experimental_stims/outdoor_scenes/stephen-leonardi-gyIRjKPXupE-unsplash.jpg,1,NaN,,NaN,chosen,1000,0,7,4,50,50,NaN,NaN,NaN
187,67183,0,188,3,3,1,gain1,no_gain2,I,A,6,43,outdoor_scenes,objects,Stimuli/Experimental_stims/outdoor_scenes/meng-ji-8BH_M-53CyA-unsplash.jpg,Stimuli/Experimental_stims/objects/jonathan-greenaway-Y4hGgeiFn3s-unsplash.jpg,1,NaN,,NaN,unchosen,3000,1,7,4,50,50,NaN,NaN,NaN
188,67183,0,189,3,3,0,no_gain2,gain5,A,D,43,17,objects,faces,Stimuli/Experimental_stims/objects/jonathan-greenaway-Y4hGgeiFn3s-unsplash.jpg,Stimuli/Experimental_stims/faces/good-faces-xmSWVeGEnJw-unsplash.jpg,1,NaN,,NaN,unchosen,1300,0,7,4,50,50,NaN,NaN,NaN
189,67183,0,190,3,3,1,gain1,no_gain3,I,E,6,25,outdoor_scenes,body_parts,Stimuli/Experimental_stims/outdoor_scenes/meng-ji-8BH_M-53CyA-unsplash.jpg,Stimuli/Experimental_stims/body_parts/engin-akyurt-Q2rfH3GW39c-unsplash.jpg,1,NaN,,NaN,unchosen,2200,0,7,4,50,50,NaN,NaN,NaN
190,67183,0,191,3,3,0,no_gain1,gain2,F,G,13,41,faces,objects,Stimuli/Experimental_stims/faces/daniel-rigdon-dXmXKPP2L4E-unsplash.jpg,Stimuli/Experimental_stims/objects/insung-yoon-w2JtIQQXoRU-unsplash.jpg,1,NaN,,NaN,chosen,1100,0,7,4,50,50,NaN,NaN,NaN
191,67183,0,192,3,3,0,no_gain3,gain5,E,D,25,17,body_parts,faces,Stimuli/Experimental_stims/body_parts/engin-akyurt-Q2rfH3GW39c-unsplash.jpg,Stimuli/Experimental_stims/faces/good-faces-xmSWVeGEnJw-unsplash.jpg,1,NaN,,NaN,unchosen,2100,0,7,4,50,50,NaN,NaN,NaN
192,67183,0,193,3,3,0,no_gain2,gain6,A,L,1,24,outdoor_scenes,body_parts,Stimuli/Experimental_stims/outdoor_scenes/ashim-d-silva-S2Q5mdOrrVc-unsplash.jpg,Stimuli/Experimental_stims/body_parts/clay-banks-LjqARJaJotc-unsplash.jpg,1,NaN,,NaN,chosen,2300,0,7,4,50,50,NaN,NaN,NaN
193,67183,0,194,3,3,0,no_gain4,gain5,J,D,14,42,faces,objects,Stimuli/Experimental_stims/faces/david-siglin-UuW4psOb388-unsplash.jpg,Stimuli/Experimental_stims/objects/jess-bailey-nOeVi8DsN8U-unsplash.jpg,1,NaN,,NaN,chosen,3900,1,7,4,50,50,NaN,NaN,NaN
194,67183,0,195,3,3,0,no_gain4,gain6,J,L,14,24,faces,body_parts,Stimuli/Experimental_stims/faces/david-siglin-UuW4psOb388-unsplash.jpg,Stimuli/Experimental_stims/body_parts/clay-banks-LjqARJaJotc-unsplash.jpg,1,NaN,,NaN,chosen,1700,0,7,4,50,50,NaN,NaN,NaN
195,67183,0,196,3,3,1,gain4,no_gain3,B,E,19,25,faces,body_parts,Stimuli/Experimental_stims/faces/joel-mott-LaK153ghdig-unsplash.jpg,Stimuli/Experimental_stims/body_parts/engin-akyurt-Q2rfH3GW39c-unsplash.jpg,1,NaN,,NaN,unchosen,1200,0,7,4,50,50,NaN,NaN,NaN
196,67183,0,197,3,3,0,no_gain1,gain4,F,B,32,19,body_parts,faces,Stimuli/Experimental_stims/body_parts/towfiqu-barbhuiya-3AsiVDsZnHg-unsplash.jpg,Stimuli/Experimental_stims/faces/joel-mott-LaK153ghdig-unsplash.jpg,1,NaN,,NaN,unchosen,1200,0,7,4,50,50,NaN,NaN,NaN
197,67183,0,198,3,3,1,gain2,no_gain2,G,A,4,43,outdoor_scenes,objects,Stimuli/Experimental_stims/outdoor_scenes/jarrett-kow-1ZOyYPOBn7I-unsplash.jpg,Stimuli/Experimental_stims/objects/jonathan-greenaway-Y4hGgeiFn3s-unsplash.jpg,1,NaN,,NaN,unchosen,1900,0,7,4,50,50,NaN,NaN,NaN
198,67183,0,199,3,3,0,no_gain6,gain3,K,H,34,20,body_parts,faces,Stimuli/Experimental_stims/body_parts/wagner-santos-mBWMvIuVnso-unsplash.jpg,Stimuli/Experimental_stims/faces/justin-chen-J7Cf1Gch49E-unsplash.jpg,1,NaN,,NaN,chosen,1000,0,7,4,50,50,NaN,NaN,NaN
199,67183,0,200,3,3,0,no_gain4,gain4,J,B,14,11,faces,outdoor_scenes,Stimuli/Experimental_stims/faces/david-siglin-UuW4psOb388-unsplash.jpg,Stimuli/Experimental_stims/outdoor_scenes/stephen-leonardi-gyIRjKPXupE-unsplash.jpg,1,NaN,,NaN,chosen,3900,1,7,4,50,50,NaN,NaN,NaN
200,67183,0,201,3,3,0,no_gain6,gain5,K,D,34,42,body_parts,objects,Stimuli/Experimental_stims/body_parts/wagner-santos-mBWMvIuVnso-unsplash.jpg,Stimuli/Experimental_stims/objects/jess-bailey-nOeVi8DsN8U-unsplash.jpg,1,NaN,,NaN,chosen,2100,0,7,4,50,50,NaN,NaN,NaN
201,67183,0,202,3,3,1,gain6,no_gain5,L,C,12,31,faces,body_parts,Stimuli/Experimental_stims/faces/aiony-haust-jmATI5Q_YgY-unsplash.jpg,Stimuli/Experimental_stims/body_parts/sincerely-media-VN6DbKajo5s-unsplash.jpg,1,NaN,,NaN,unchosen,1300,0,7,4,50,50,NaN,NaN,NaN
202,67183,0,203,3,3,0,no_gain2,gain5,A,D,1,42,outdoor_scenes,objects,Stimuli/Experimental_stims/outdoor_scenes/ashim-d-silva-S2Q5mdOrrVc-unsplash.jpg,Stimuli/Experimental_stims/objects/jess-bailey-nOeVi8DsN8U-unsplash.jpg,1,NaN,,NaN,chosen,1800,0,7,4,50,50,NaN,NaN,NaN
203,67183,0,204,3,3,1,gain4,no_gain1,B,F,11,13,outdoor_scenes,faces,Stimuli/Experimental_stims/outdoor_scenes/stephen-leonardi-gyIRjKPXupE-unsplash.jpg,Stimuli/Experimental_stims/faces/daniel-rigdon-dXmXKPP2L4E-unsplash.jpg,1,NaN,,NaN,chosen,1900,0,7,4,50,50,NaN,NaN,NaN
204,67183,0,205,3,3,1,gain6,no_gain3,L,E,12,25,faces,body_parts,Stimuli/Experimental_stims/faces/aiony-haust-jmATI5Q_YgY-unsplash.jpg,Stimuli/Experimental_stims/body_parts/engin-akyurt-Q2rfH3GW39c-unsplash.jpg,1,NaN,,NaN,unchosen,2600,0,7,4,50,50,NaN,NaN,NaN
205,67183,0,206,3,3,1,gain4,no_gain6,B,K,19,45,faces,objects,Stimuli/Experimental_stims/faces/joel-mott-LaK153ghdig-unsplash.jpg,Stimuli/Experimental_stims/objects/leohoho-rngTKHXumy0-unsplash.jpg,1,NaN,,NaN,unchosen,2400,0,7,4,50,50,NaN,NaN,NaN
206,67183,0,207,3,3,0,no_gain5,gain4,C,B,31,19,body_parts,faces,Stimuli/Experimental_stims/body_parts/sincerely-media-VN6DbKajo5s-unsplash.jpg,Stimuli/Experimental_stims/faces/joel-mott-LaK153ghdig-unsplash.jpg,1,NaN,,NaN,unchosen,2500,0,7,4,50,50,NaN,NaN,NaN
207,67183,0,208,3,3,0,no_gain5,gain6,C,L,7,24,outdoor_scenes,body_parts,Stimuli/Experimental_stims/outdoor_scenes/petr-vysohlid-9fqwGqGLUxc-unsplash.jpg,Stimuli/Experimental_stims/body_parts/clay-banks-LjqARJaJotc-unsplash.jpg,1,NaN,,NaN,chosen,2900,1,7,4,50,50,NaN,NaN,NaN
208,67183,0,209,3,3,0,no_gain4,gain3,J,H,39,10,objects,outdoor_scenes,Stimuli/Experimental_stims/objects/charlesdeluvio-1-nx1QR5dTE-unsplash.jpg,Stimuli/Experimental_stims/outdoor_scenes/shannon-kunkle-dM8INmkyDas-unsplash.jpg,1,NaN,,NaN,unchosen,1000,0,7,4,50,50,NaN,NaN,NaN
209,67183,0,210,3,3,0,no_gain1,gain3,F,H,13,20,faces,faces,Stimuli/Experimental_stims/faces/daniel-rigdon-dXmXKPP2L4E-unsplash.jpg,Stimuli/Experimental_stims/faces/justin-chen-J7Cf1Gch49E-unsplash.jpg,1,NaN,,NaN,chosen,1500,0,7,4,50,50,NaN,NaN,NaN
210,67183,0,211,3,3,1,gain3,no_gain3,H,E,10,25,outdoor_scenes,body_parts,Stimuli/Experimental_stims/outdoor_scenes/shannon-kunkle-dM8INmkyDas-unsplash.jpg,Stimuli/Experimental_stims/body_parts/engin-akyurt-Q2rfH3GW39c-unsplash.jpg,1,NaN,,NaN,unchosen,2000,0,7,4,50,50,NaN,NaN,NaN
211,67183,0,212,3,3,1,gain1,no_gain6,I,K,6,45,outdoor_scenes,objects,Stimuli/Experimental_stims/outdoor_scenes/meng-ji-8BH_M-53CyA-unsplash.jpg,Stimuli/Experimental_stims/objects/leohoho-rngTKHXumy0-unsplash.jpg,1,NaN,,NaN,unchosen,1400,0,7,4,50,50,NaN,NaN,NaN
212,67183,0,213,3,3,0,no_gain5,gain2,C,G,31,4,body_parts,outdoor_scenes,Stimuli/Experimental_stims/body_parts/sincerely-media-VN6DbKajo5s-unsplash.jpg,Stimuli/Experimental_stims/outdoor_scenes/jarrett-kow-1ZOyYPOBn7I-unsplash.jpg,1,NaN,,NaN,unchosen,1800,0,7,4,50,50,NaN,NaN,NaN
213,67183,0,214,3,3,1,gain6,no_gain6,L,K,24,34,body_parts,body_parts,Stimuli/Experimental_stims/body_parts/clay-banks-LjqARJaJotc-unsplash.jpg,Stimuli/Experimental_stims/body_parts/wagner-santos-mBWMvIuVnso-unsplash.jpg,1,NaN,,NaN,chosen,2500,0,7,4,50,50,NaN,NaN,NaN
214,67183,0,215,3,3,1,gain1,no_gain2,I,A,26,1,body_parts,outdoor_scenes,Stimuli/Experimental_stims/body_parts/engin-akyurt-x_3gyC42btc-unsplash.jpg,Stimuli/Experimental_stims/outdoor_scenes/ashim-d-silva-S2Q5mdOrrVc-unsplash.jpg,1,NaN,,NaN,chosen,1600,0,7,4,50,50,NaN,NaN,NaN
215,67183,0,216,3,3,0,no_gain1,gain2,F,G,32,4,body_parts,outdoor_scenes,Stimuli/Experimental_stims/body_parts/towfiqu-barbhuiya-3AsiVDsZnHg-unsplash.jpg,Stimuli/Experimental_stims/outdoor_scenes/jarrett-kow-1ZOyYPOBn7I-unsplash.jpg,1,NaN,,NaN,unchosen,3700,1,7,4,50,50,NaN,NaN,NaN
216,67183,0,217,3,3,0,no_gain5,gain3,C,H,31,10,body_parts,outdoor_scenes,Stimuli/Experimental_stims/body_parts/sincerely-media-VN6DbKajo5s-unsplash.jpg,Stimuli/Experimental_stims/outdoor_scenes/shannon-kunkle-dM8INmkyDas-unsplash.jpg,1,NaN,,NaN,unchosen,1200,0,7,4,50,50,NaN,NaN,NaN
217,67183,0,218,3,3,1,gain3,no_gain2,H,A,20,1,faces,outdoor_scenes,Stimuli/Experimental_stims/faces/justin-chen-J7Cf1Gch49E-unsplash.jpg,Stimuli/Experimental_stims/outdoor_scenes/ashim-d-silva-S2Q5mdOrrVc-unsplash.jpg,1,NaN,,NaN,chosen,1200,0,7,4,50,50,NaN,NaN,NaN
218,67183,0,219,3,3,1,gain3,no_gain1,H,F,10,32,outdoor_scenes,body_parts,Stimuli/Experimental_stims/outdoor_scenes/shannon-kunkle-dM8INmkyDas-unsplash.jpg,Stimuli/Experimental_stims/body_parts/towfiqu-barbhuiya-3AsiVDsZnHg-unsplash.jpg,1,NaN,,NaN,unchosen,1100,0,7,4,50,50,NaN,NaN,NaN
219,67183,0,220,3,3,1,gain2,no_gain2,G,A,41,1,objects,outdoor_scenes,Stimuli/Experimental_stims/objects/insung-yoon-w2JtIQQXoRU-unsplash.jpg,Stimuli/Experimental_stims/outdoor_scenes/ashim-d-silva-S2Q5mdOrrVc-unsplash.jpg,1,NaN,,NaN,chosen,1100,0,7,4,50,50,NaN,NaN,NaN
220,67183,0,221,4,4,1,gain4,no_gain1,B,F,19,32,faces,body_parts,Stimuli/Experimental_stims/faces/joel-mott-LaK153ghdig-unsplash.jpg,Stimuli/Experimental_stims/body_parts/towfiqu-barbhuiya-3AsiVDsZnHg-unsplash.jpg,1,NaN,,NaN,unchosen,4000,1,8,4,50,50,NaN,NaN,NaN
221,67183,0,222,4,4,0,no_gain1,gain5,F,D,13,42,faces,objects,Stimuli/Experimental_stims/faces/daniel-rigdon-dXmXKPP2L4E-unsplash.jpg,Stimuli/Experimental_stims/objects/jess-bailey-nOeVi8DsN8U-unsplash.jpg,1,NaN,,NaN,chosen,1900,0,8,4,50,50,NaN,NaN,NaN
222,67183,0,223,4,4,1,gain2,no_gain1,G,F,41,13,objects,faces,Stimuli/Experimental_stims/objects/insung-yoon-w2JtIQQXoRU-unsplash.jpg,Stimuli/Experimental_stims/faces/daniel-rigdon-dXmXKPP2L4E-unsplash.jpg,1,NaN,,NaN,chosen,1200,0,8,4,50,50,NaN,NaN,NaN
223,67183,0,224,4,4,1,gain4,no_gain6,B,K,19,45,faces,objects,Stimuli/Experimental_stims/faces/joel-mott-LaK153ghdig-unsplash.jpg,Stimuli/Experimental_stims/objects/leohoho-rngTKHXumy0-unsplash.jpg,1,NaN,,NaN,unchosen,1200,0,8,4,50,50,NaN,NaN,NaN
224,67183,0,225,4,4,1,gain4,no_gain3,B,E,19,25,faces,body_parts,Stimuli/Experimental_stims/faces/joel-mott-LaK153ghdig-unsplash.jpg,Stimuli/Experimental_stims/body_parts/engin-akyurt-Q2rfH3GW39c-unsplash.jpg,1,NaN,,NaN,unchosen,2900,0,8,4,50,50,NaN,NaN,NaN
225,67183,0,226,4,4,1,gain2,no_gain3,G,E,4,25,outdoor_scenes,body_parts,Stimuli/Experimental_stims/outdoor_scenes/jarrett-kow-1ZOyYPOBn7I-unsplash.jpg,Stimuli/Experimental_stims/body_parts/engin-akyurt-Q2rfH3GW39c-unsplash.jpg,1,NaN,,NaN,unchosen,1800,0,8,4,50,50,NaN,NaN,NaN
226,67183,0,227,4,4,1,gain1,no_gain3,I,E,26,38,body_parts,objects,Stimuli/Experimental_stims/body_parts/engin-akyurt-x_3gyC42btc-unsplash.jpg,Stimuli/Experimental_stims/objects/art-lasovsky-8XddFc6NkBY-unsplash.jpg,1,NaN,,NaN,chosen,4700,1,8,4,50,50,NaN,NaN,NaN
227,67183,0,228,4,4,0,no_gain2,gain5,A,D,1,42,outdoor_scenes,objects,Stimuli/Experimental_stims/outdoor_scenes/ashim-d-silva-S2Q5mdOrrVc-unsplash.jpg,Stimuli/Experimental_stims/objects/jess-bailey-nOeVi8DsN8U-unsplash.jpg,1,NaN,,NaN,chosen,2800,0,8,4,50,50,NaN,NaN,NaN
228,67183,0,229,4,4,1,gain5,no_gain1,D,F,17,32,faces,body_parts,Stimuli/Experimental_stims/faces/good-faces-xmSWVeGEnJw-unsplash.jpg,Stimuli/Experimental_stims/body_parts/towfiqu-barbhuiya-3AsiVDsZnHg-unsplash.jpg,1,NaN,,NaN,unchosen,1100,0,8,4,50,50,NaN,NaN,NaN
229,67183,0,230,4,4,0,no_gain4,gain5,J,D,14,42,faces,objects,Stimuli/Experimental_stims/faces/david-siglin-UuW4psOb388-unsplash.jpg,Stimuli/Experimental_stims/objects/jess-bailey-nOeVi8DsN8U-unsplash.jpg,1,NaN,,NaN,chosen,2200,0,8,4,50,50,NaN,NaN,NaN
230,67183,0,231,4,4,0,no_gain1,gain6,F,L,32,12,body_parts,faces,Stimuli/Experimental_stims/body_parts/towfiqu-barbhuiya-3AsiVDsZnHg-unsplash.jpg,Stimuli/Experimental_stims/faces/aiony-haust-jmATI5Q_YgY-unsplash.jpg,1,NaN,,NaN,unchosen,2000,0,8,4,50,50,NaN,NaN,NaN
231,67183,0,232,4,4,1,gain3,no_gain5,H,C,10,31,outdoor_scenes,body_parts,Stimuli/Experimental_stims/outdoor_scenes/shannon-kunkle-dM8INmkyDas-unsplash.jpg,Stimuli/Experimental_stims/body_parts/sincerely-media-VN6DbKajo5s-unsplash.jpg,1,NaN,,NaN,unchosen,1100,0,8,4,50,50,NaN,NaN,NaN
232,67183,0,233,4,4,0,no_gain6,gain1,K,I,45,6,objects,outdoor_scenes,Stimuli/Experimental_stims/objects/leohoho-rngTKHXumy0-unsplash.jpg,Stimuli/Experimental_stims/outdoor_scenes/meng-ji-8BH_M-53CyA-unsplash.jpg,1,NaN,,NaN,unchosen,3000,1,8,4,50,50,NaN,NaN,NaN
233,67183,0,234,4,4,1,gain3,no_gain5,H,C,20,7,faces,outdoor_scenes,Stimuli/Experimental_stims/faces/justin-chen-J7Cf1Gch49E-unsplash.jpg,Stimuli/Experimental_stims/outdoor_scenes/petr-vysohlid-9fqwGqGLUxc-unsplash.jpg,1,NaN,,NaN,chosen,1800,0,8,4,50,50,NaN,NaN,NaN
234,67183,0,235,4,4,0,no_gain3,gain1,E,I,25,6,body_parts,outdoor_scenes,Stimuli/Experimental_stims/body_parts/engin-akyurt-Q2rfH3GW39c-unsplash.jpg,Stimuli/Experimental_stims/outdoor_scenes/meng-ji-8BH_M-53CyA-unsplash.jpg,1,NaN,,NaN,unchosen,1700,0,8,4,50,50,NaN,NaN,NaN
235,67183,0,236,4,4,0,no_gain2,gain5,A,D,43,17,objects,faces,Stimuli/Experimental_stims/objects/jonathan-greenaway-Y4hGgeiFn3s-unsplash.jpg,Stimuli/Experimental_stims/faces/good-faces-xmSWVeGEnJw-unsplash.jpg,1,NaN,,NaN,unchosen,1500,0,8,4,50,50,NaN,NaN,NaN
236,67183,0,237,4,4,0,no_gain2,gain1,A,I,43,6,objects,outdoor_scenes,Stimuli/Experimental_stims/objects/jonathan-greenaway-Y4hGgeiFn3s-unsplash.jpg,Stimuli/Experimental_stims/outdoor_scenes/meng-ji-8BH_M-53CyA-unsplash.jpg,1,NaN,,NaN,unchosen,1400,0,8,4,50,50,NaN,NaN,NaN
237,67183,0,238,4,4,1,gain6,no_gain2,L,A,24,1,body_parts,outdoor_scenes,Stimuli/Experimental_stims/body_parts/clay-banks-LjqARJaJotc-unsplash.jpg,Stimuli/Experimental_stims/outdoor_scenes/ashim-d-silva-S2Q5mdOrrVc-unsplash.jpg,1,NaN,,NaN,chosen,3000,1,8,4,50,50,NaN,NaN,NaN
238,67183,0,239,4,4,1,gain4,no_gain2,B,A,19,43,faces,objects,Stimuli/Experimental_stims/faces/joel-mott-LaK153ghdig-unsplash.jpg,Stimuli/Experimental_stims/objects/jonathan-greenaway-Y4hGgeiFn3s-unsplash.jpg,1,NaN,,NaN,unchosen,1000,0,8,4,50,50,NaN,NaN,NaN
239,67183,0,240,4,4,0,no_gain1,gain2,F,G,32,4,body_parts,outdoor_scenes,Stimuli/Experimental_stims/body_parts/towfiqu-barbhuiya-3AsiVDsZnHg-unsplash.jpg,Stimuli/Experimental_stims/outdoor_scenes/jarrett-kow-1ZOyYPOBn7I-unsplash.jpg,1,NaN,,NaN,unchosen,1100,0,8,4,50,50,NaN,NaN,NaN
240,67183,0,241,4,4,0,no_gain4,gain3,J,H,39,10,objects,outdoor_scenes,Stimuli/Experimental_stims/objects/charlesdeluvio-1-nx1QR5dTE-unsplash.jpg,Stimuli/Experimental_stims/outdoor_scenes/shannon-kunkle-dM8INmkyDas-unsplash.jpg,1,NaN,,NaN,unchosen,1600,0,8,4,50,50,NaN,NaN,NaN
241,67183,0,242,4,4,0,no_gain5,gain4,C,B,7,11,outdoor_scenes,outdoor_scenes,Stimuli/Experimental_stims/outdoor_scenes/petr-vysohlid-9fqwGqGLUxc-unsplash.jpg,Stimuli/Experimental_stims/outdoor_scenes/stephen-leonardi-gyIRjKPXupE-unsplash.jpg,1,NaN,,NaN,chosen,1100,0,8,4,50,50,NaN,NaN,NaN
242,67183,0,243,4,4,1,gain6,no_gain6,L,K,12,45,faces,objects,Stimuli/Experimental_stims/faces/aiony-haust-jmATI5Q_YgY-unsplash.jpg,Stimuli/Experimental_stims/objects/leohoho-rngTKHXumy0-unsplash.jpg,1,NaN,,NaN,unchosen,1100,0,8,4,50,50,NaN,NaN,NaN
243,67183,0,244,4,4,1,gain3,no_gain2,H,A,20,1,faces,outdoor_scenes,Stimuli/Experimental_stims/faces/justin-chen-J7Cf1Gch49E-unsplash.jpg,Stimuli/Experimental_stims/outdoor_scenes/ashim-d-silva-S2Q5mdOrrVc-unsplash.jpg,1,NaN,,NaN,chosen,1800,0,8,4,50,50,NaN,NaN,NaN
244,67183,0,245,4,4,0,no_gain1,gain1,F,I,13,26,faces,body_parts,Stimuli/Experimental_stims/faces/daniel-rigdon-dXmXKPP2L4E-unsplash.jpg,Stimuli/Experimental_stims/body_parts/engin-akyurt-x_3gyC42btc-unsplash.jpg,1,NaN,,NaN,chosen,1400,0,8,4,50,50,NaN,NaN,NaN
245,67183,0,246,4,4,0,no_gain4,gain5,J,D,39,17,objects,faces,Stimuli/Experimental_stims/objects/charlesdeluvio-1-nx1QR5dTE-unsplash.jpg,Stimuli/Experimental_stims/faces/good-faces-xmSWVeGEnJw-unsplash.jpg,1,NaN,,NaN,unchosen,1600,0,8,4,50,50,NaN,NaN,NaN
246,67183,0,247,4,4,1,gain2,no_gain2,G,A,41,1,objects,outdoor_scenes,Stimuli/Experimental_stims/objects/insung-yoon-w2JtIQQXoRU-unsplash.jpg,Stimuli/Experimental_stims/outdoor_scenes/ashim-d-silva-S2Q5mdOrrVc-unsplash.jpg,1,NaN,,NaN,chosen,2000,0,8,4,50,50,NaN,NaN,NaN
247,67183,0,248,4,4,0,no_gain1,gain3,F,H,32,10,body_parts,outdoor_scenes,Stimuli/Experimental_stims/body_parts/towfiqu-barbhuiya-3AsiVDsZnHg-unsplash.jpg,Stimuli/Experimental_stims/outdoor_scenes/shannon-kunkle-dM8INmkyDas-unsplash.jpg,1,NaN,,NaN,unchosen,2200,0,8,4,50,50,NaN,NaN,NaN
248,67183,0,249,4,4,0,no_gain4,gain2,J,G,14,41,faces,objects,Stimuli/Experimental_stims/faces/david-siglin-UuW4psOb388-unsplash.jpg,Stimuli/Experimental_stims/objects/insung-yoon-w2JtIQQXoRU-unsplash.jpg,1,NaN,,NaN,chosen,2100,0,8,4,50,50,NaN,NaN,NaN
249,67183,0,250,4,4,0,no_gain3,gain2,E,G,38,41,objects,objects,Stimuli/Experimental_stims/objects/art-lasovsky-8XddFc6NkBY-unsplash.jpg,Stimuli/Experimental_stims/objects/insung-yoon-w2JtIQQXoRU-unsplash.jpg,1,NaN,,NaN,chosen,2900,0,8,4,50,50,NaN,NaN,NaN
250,67183,0,251,4,4,0,no_gain6,gain5,K,D,45,17,objects,faces,Stimuli/Experimental_stims/objects/leohoho-rngTKHXumy0-unsplash.jpg,Stimuli/Experimental_stims/faces/good-faces-xmSWVeGEnJw-unsplash.jpg,1,NaN,,NaN,unchosen,1600,0,8,4,50,50,NaN,NaN,NaN
251,67183,0,252,4,4,1,gain3,no_gain4,H,J,20,14,faces,faces,Stimuli/Experimental_stims/faces/justin-chen-J7Cf1Gch49E-unsplash.jpg,Stimuli/Experimental_stims/faces/david-siglin-UuW4psOb388-unsplash.jpg,1,NaN,,NaN,chosen,1600,0,8,4,50,50,NaN,NaN,NaN
252,67183,0,253,4,4,0,no_gain1,gain1,F,I,32,6,body_parts,outdoor_scenes,Stimuli/Experimental_stims/body_parts/towfiqu-barbhuiya-3AsiVDsZnHg-unsplash.jpg,Stimuli/Experimental_stims/outdoor_scenes/meng-ji-8BH_M-53CyA-unsplash.jpg,1,NaN,,NaN,unchosen,4900,1,8,4,50,50,NaN,NaN,NaN
253,67183,0,254,4,4,0,no_gain5,gain1,C,I,31,6,body_parts,outdoor_scenes,Stimuli/Experimental_stims/body_parts/sincerely-media-VN6DbKajo5s-unsplash.jpg,Stimuli/Experimental_stims/outdoor_scenes/meng-ji-8BH_M-53CyA-unsplash.jpg,1,NaN,,NaN,unchosen,2600,0,8,4,50,50,NaN,NaN,NaN
254,67183,0,255,4,4,1,gain5,no_gain5,D,C,42,7,objects,outdoor_scenes,Stimuli/Experimental_stims/objects/jess-bailey-nOeVi8DsN8U-unsplash.jpg,Stimuli/Experimental_stims/outdoor_scenes/petr-vysohlid-9fqwGqGLUxc-unsplash.jpg,1,NaN,,NaN,chosen,1800,0,8,4,50,50,NaN,NaN,NaN
255,67183,0,256,4,4,0,no_gain1,gain3,F,H,13,20,faces,faces,Stimuli/Experimental_stims/faces/daniel-rigdon-dXmXKPP2L4E-unsplash.jpg,Stimuli/Experimental_stims/faces/justin-chen-J7Cf1Gch49E-unsplash.jpg,1,NaN,,NaN,chosen,1500,0,8,4,50,50,NaN,NaN,NaN
256,67183,0,257,4,4,1,gain5,no_gain3,D,E,42,38,objects,objects,Stimuli/Experimental_stims/objects/jess-bailey-nOeVi8DsN8U-unsplash.jpg,Stimuli/Experimental_stims/objects/art-lasovsky-8XddFc6NkBY-unsplash.jpg,1,NaN,,NaN,chosen,1700,0,8,4,50,50,NaN,NaN,NaN
257,67183,0,258,4,4,1,gain2,no_gain4,G,J,4,39,outdoor_scenes,objects,Stimuli/Experimental_stims/outdoor_scenes/jarrett-kow-1ZOyYPOBn7I-unsplash.jpg,Stimuli/Experimental_stims/objects/charlesdeluvio-1-nx1QR5dTE-unsplash.jpg,1,NaN,,NaN,unchosen,3200,1,8,4,50,50,NaN,NaN,NaN
258,67183,0,259,4,4,1,gain3,no_gain3,H,E,20,38,faces,objects,Stimuli/Experimental_stims/faces/justin-chen-J7Cf1Gch49E-unsplash.jpg,Stimuli/Experimental_stims/objects/art-lasovsky-8XddFc6NkBY-unsplash.jpg,1,NaN,,NaN,chosen,2100,0,8,4,50,50,NaN,NaN,NaN
259,67183,0,260,4,4,0,no_gain6,gain1,K,I,34,26,body_parts,body_parts,Stimuli/Experimental_stims/body_parts/wagner-santos-mBWMvIuVnso-unsplash.jpg,Stimuli/Experimental_stims/body_parts/engin-akyurt-x_3gyC42btc-unsplash.jpg,1,NaN,,NaN,chosen,1600,0,8,4,50,50,NaN,NaN,NaN
260,67183,0,261,4,4,0,no_gain2,gain3,A,H,43,10,objects,outdoor_scenes,Stimuli/Experimental_stims/objects/jonathan-greenaway-Y4hGgeiFn3s-unsplash.jpg,Stimuli/Experimental_stims/outdoor_scenes/shannon-kunkle-dM8INmkyDas-unsplash.jpg,1,NaN,,NaN,unchosen,1700,0,8,4,50,50,NaN,NaN,NaN
261,67183,0,262,4,4,0,no_gain4,gain4,J,B,14,11,faces,outdoor_scenes,Stimuli/Experimental_stims/faces/david-siglin-UuW4psOb388-unsplash.jpg,Stimuli/Experimental_stims/outdoor_scenes/stephen-leonardi-gyIRjKPXupE-unsplash.jpg,1,NaN,,NaN,chosen,1300,0,8,4,50,50,NaN,NaN,NaN
262,67183,0,263,4,4,1,gain6,no_gain1,L,F,24,13,body_parts,faces,Stimuli/Experimental_stims/body_parts/clay-banks-LjqARJaJotc-unsplash.jpg,Stimuli/Experimental_stims/faces/daniel-rigdon-dXmXKPP2L4E-unsplash.jpg,1,NaN,,NaN,chosen,3700,1,8,4,50,50,NaN,NaN,NaN
263,67183,0,264,4,4,1,gain1,no_gain4,I,J,6,39,outdoor_scenes,objects,Stimuli/Experimental_stims/outdoor_scenes/meng-ji-8BH_M-53CyA-unsplash.jpg,Stimuli/Experimental_stims/objects/charlesdeluvio-1-nx1QR5dTE-unsplash.jpg,1,NaN,,NaN,unchosen,1500,0,8,4,50,50,NaN,NaN,NaN
264,67183,0,265,4,4,1,gain4,no_gain1,B,F,11,13,outdoor_scenes,faces,Stimuli/Experimental_stims/outdoor_scenes/stephen-leonardi-gyIRjKPXupE-unsplash.jpg,Stimuli/Experimental_stims/faces/daniel-rigdon-dXmXKPP2L4E-unsplash.jpg,1,NaN,,NaN,chosen,1500,0,8,4,50,50,NaN,NaN,NaN
265,67183,0,266,4,4,1,gain2,no_gain5,G,C,4,31,outdoor_scenes,body_parts,Stimuli/Experimental_stims/outdoor_scenes/jarrett-kow-1ZOyYPOBn7I-unsplash.jpg,Stimuli/Experimental_stims/body_parts/sincerely-media-VN6DbKajo5s-unsplash.jpg,1,NaN,,NaN,unchosen,1400,0,8,4,50,50,NaN,NaN,NaN
266,67183,0,267,4,4,0,no_gain2,gain4,A,B,1,11,outdoor_scenes,outdoor_scenes,Stimuli/Experimental_stims/outdoor_scenes/ashim-d-silva-S2Q5mdOrrVc-unsplash.jpg,Stimuli/Experimental_stims/outdoor_scenes/stephen-leonardi-gyIRjKPXupE-unsplash.jpg,1,NaN,,NaN,chosen,1700,0,8,4,50,50,NaN,NaN,NaN
267,67183,0,268,4,4,0,no_gain4,gain6,J,L,14,24,faces,body_parts,Stimuli/Experimental_stims/faces/david-siglin-UuW4psOb388-unsplash.jpg,Stimuli/Experimental_stims/body_parts/clay-banks-LjqARJaJotc-unsplash.jpg,1,NaN,,NaN,chosen,2500,0,8,4,50,50,NaN,NaN,NaN
268,67183,0,269,4,4,0,no_gain6,gain6,K,L,34,24,body_parts,body_parts,Stimuli/Experimental_stims/body_parts/wagner-santos-mBWMvIuVnso-unsplash.jpg,Stimuli/Experimental_stims/body_parts/clay-banks-LjqARJaJotc-unsplash.jpg,1,NaN,,NaN,chosen,1800,0,8,4,50,50,NaN,NaN,NaN
269,67183,0,270,4,4,0,no_gain2,gain6,A,L,43,12,objects,faces,Stimuli/Experimental_stims/objects/jonathan-greenaway-Y4hGgeiFn3s-unsplash.jpg,Stimuli/Experimental_stims/faces/aiony-haust-jmATI5Q_YgY-unsplash.jpg,1,NaN,,NaN,unchosen,2200,0,8,4,50,50,NaN,NaN,NaN
270,67183,0,271,4,4,0,no_gain5,gain6,C,L,31,12,body_parts,faces,Stimuli/Experimental_stims/body_parts/sincerely-media-VN6DbKajo5s-unsplash.jpg,Stimuli/Experimental_stims/faces/aiony-haust-jmATI5Q_YgY-unsplash.jpg,1,NaN,,NaN,unchosen,1400,0,8,4,50,50,NaN,NaN,NaN
271,67183,0,272,4,4,1,gain3,no_gain6,H,K,20,34,faces,body_parts,Stimuli/Experimental_stims/faces/justin-chen-J7Cf1Gch49E-unsplash.jpg,Stimuli/Experimental_stims/body_parts/wagner-santos-mBWMvIuVnso-unsplash.jpg,1,NaN,,NaN,chosen,4200,1,8,4,50,50,NaN,NaN,NaN
272,67183,0,273,4,4,1,gain5,no_gain5,D,C,17,31,faces,body_parts,Stimuli/Experimental_stims/faces/good-faces-xmSWVeGEnJw-unsplash.jpg,Stimuli/Experimental_stims/body_parts/sincerely-media-VN6DbKajo5s-unsplash.jpg,1,NaN,,NaN,unchosen,2400,0,8,4,50,50,NaN,NaN,NaN
273,67183,0,274,4,4,0,no_gain4,gain6,J,L,39,12,objects,faces,Stimuli/Experimental_stims/objects/charlesdeluvio-1-nx1QR5dTE-unsplash.jpg,Stimuli/Experimental_stims/faces/aiony-haust-jmATI5Q_YgY-unsplash.jpg,1,NaN,,NaN,unchosen,1100,0,8,4,50,50,NaN,NaN,NaN
274,67183,0,275,4,4,0,no_gain2,gain1,A,I,1,26,outdoor_scenes,body_parts,Stimuli/Experimental_stims/outdoor_scenes/ashim-d-silva-S2Q5mdOrrVc-unsplash.jpg,Stimuli/Experimental_stims/body_parts/engin-akyurt-x_3gyC42btc-unsplash.jpg,1,NaN,,NaN,chosen,1400,0,8,4,50,50,NaN,NaN,NaN
275,67183,0,276,4,4,0,no_gain3,gain3,E,H,25,10,body_parts,outdoor_scenes,Stimuli/Experimental_stims/body_parts/engin-akyurt-Q2rfH3GW39c-unsplash.jpg,Stimuli/Experimental_stims/outdoor_scenes/shannon-kunkle-dM8INmkyDas-unsplash.jpg,1,NaN,,NaN,unchosen,1400,0,8,4,50,50,NaN,NaN,NaN
276,67183,0,277,4,4,1,gain5,no_gain6,D,K,42,34,objects,body_parts,Stimuli/Experimental_stims/objects/jess-bailey-nOeVi8DsN8U-unsplash.jpg,Stimuli/Experimental_stims/body_parts/wagner-santos-mBWMvIuVnso-unsplash.jpg,1,NaN,,NaN,chosen,1000,0,8,4,50,50,NaN,NaN,NaN
277,67183,0,278,4,4,1,gain1,no_gain5,I,C,26,7,body_parts,outdoor_scenes,Stimuli/Experimental_stims/body_parts/engin-akyurt-x_3gyC42btc-unsplash.jpg,Stimuli/Experimental_stims/outdoor_scenes/petr-vysohlid-9fqwGqGLUxc-unsplash.jpg,1,NaN,,NaN,chosen,1900,0,8,4,50,50,NaN,NaN,NaN
278,67183,0,279,4,4,1,gain2,no_gain6,G,K,4,45,outdoor_scenes,objects,Stimuli/Experimental_stims/outdoor_scenes/jarrett-kow-1ZOyYPOBn7I-unsplash.jpg,Stimuli/Experimental_stims/objects/leohoho-rngTKHXumy0-unsplash.jpg,1,NaN,,NaN,unchosen,2100,0,8,4,50,50,NaN,NaN,NaN
279,67183,0,280,4,4,1,gain2,no_gain2,G,A,4,43,outdoor_scenes,objects,Stimuli/Experimental_stims/outdoor_scenes/jarrett-kow-1ZOyYPOBn7I-unsplash.jpg,Stimuli/Experimental_stims/objects/jonathan-greenaway-Y4hGgeiFn3s-unsplash.jpg,1,NaN,,NaN,unchosen,1100,0,8,4,50,50,NaN,NaN,NaN
280,67183,0,281,4,4,1,gain3,no_gain6,H,K,10,45,outdoor_scenes,objects,Stimuli/Experimental_stims/outdoor_scenes/shannon-kunkle-dM8INmkyDas-unsplash.jpg,Stimuli/Experimental_stims/objects/leohoho-rngTKHXumy0-unsplash.jpg,1,NaN,,NaN,unchosen,3800,1,8,4,50,50,NaN,NaN,NaN
281,67183,0,282,4,4,0,no_gain6,gain2,K,G,34,41,body_parts,objects,Stimuli/Experimental_stims/body_parts/wagner-santos-mBWMvIuVnso-unsplash.jpg,Stimuli/Experimental_stims/objects/insung-yoon-w2JtIQQXoRU-unsplash.jpg,1,NaN,,NaN,chosen,1200,0,8,4,50,50,NaN,NaN,NaN
282,67183,0,283,4,4,0,no_gain3,gain4,E,B,38,11,objects,outdoor_scenes,Stimuli/Experimental_stims/objects/art-lasovsky-8XddFc6NkBY-unsplash.jpg,Stimuli/Experimental_stims/outdoor_scenes/stephen-leonardi-gyIRjKPXupE-unsplash.jpg,1,NaN,,NaN,chosen,2500,0,8,4,50,50,NaN,NaN,NaN
283,67183,0,284,4,4,0,no_gain6,gain4,K,B,34,11,body_parts,outdoor_scenes,Stimuli/Experimental_stims/body_parts/wagner-santos-mBWMvIuVnso-unsplash.jpg,Stimuli/Experimental_stims/outdoor_scenes/stephen-leonardi-gyIRjKPXupE-unsplash.jpg,1,NaN,,NaN,chosen,1200,0,8,4,50,50,NaN,NaN,NaN
284,67183,0,285,4,4,1,gain4,no_gain5,B,C,19,31,faces,body_parts,Stimuli/Experimental_stims/faces/joel-mott-LaK153ghdig-unsplash.jpg,Stimuli/Experimental_stims/body_parts/sincerely-media-VN6DbKajo5s-unsplash.jpg,1,NaN,,NaN,unchosen,1600,0,8,4,50,50,NaN,NaN,NaN
285,67183,0,286,4,4,1,gain6,no_gain5,L,C,24,7,body_parts,outdoor_scenes,Stimuli/Experimental_stims/body_parts/clay-banks-LjqARJaJotc-unsplash.jpg,Stimuli/Experimental_stims/outdoor_scenes/petr-vysohlid-9fqwGqGLUxc-unsplash.jpg,1,NaN,,NaN,chosen,1900,0,8,4,50,50,NaN,NaN,NaN
286,67183,0,287,4,4,1,gain2,no_gain5,G,C,41,7,objects,outdoor_scenes,Stimuli/Experimental_stims/objects/insung-yoon-w2JtIQQXoRU-unsplash.jpg,Stimuli/Experimental_stims/outdoor_scenes/petr-vysohlid-9fqwGqGLUxc-unsplash.jpg,1,NaN,,NaN,chosen,1000,0,8,4,50,50,NaN,NaN,NaN
287,67183,0,288,4,4,1,gain6,no_gain3,L,E,12,25,faces,body_parts,Stimuli/Experimental_stims/faces/aiony-haust-jmATI5Q_YgY-unsplash.jpg,Stimuli/Experimental_stims/body_parts/engin-akyurt-Q2rfH3GW39c-unsplash.jpg,1,NaN,,NaN,unchosen,5000,1,8,4,50,50,NaN,NaN,NaN
288,67183,0,289,4,4,0,no_gain4,gain1,J,I,14,26,faces,body_parts,Stimuli/Experimental_stims/faces/david-siglin-UuW4psOb388-unsplash.jpg,Stimuli/Experimental_stims/body_parts/engin-akyurt-x_3gyC42btc-unsplash.jpg,1,NaN,,NaN,chosen,2400,0,8,4,50,50,NaN,NaN,NaN
289,67183,0,290,4,4,0,no_gain3,gain5,E,D,25,17,body_parts,faces,Stimuli/Experimental_stims/body_parts/engin-akyurt-Q2rfH3GW39c-unsplash.jpg,Stimuli/Experimental_stims/faces/good-faces-xmSWVeGEnJw-unsplash.jpg,1,NaN,,NaN,unchosen,1500,0,8,4,50,50,NaN,NaN,NaN
290,67183,0,291,4,4,1,gain6,no_gain3,L,E,24,38,body_parts,objects,Stimuli/Experimental_stims/body_parts/clay-banks-LjqARJaJotc-unsplash.jpg,Stimuli/Experimental_stims/objects/art-lasovsky-8XddFc6NkBY-unsplash.jpg,1,NaN,,NaN,chosen,1500,0,8,4,50,50,NaN,NaN,NaN
291,67183,0,292,4,4,1,gain4,no_gain4,B,J,19,39,faces,objects,Stimuli/Experimental_stims/faces/joel-mott-LaK153ghdig-unsplash.jpg,Stimuli/Experimental_stims/objects/charlesdeluvio-1-nx1QR5dTE-unsplash.jpg,1,NaN,,NaN,unchosen,1300,0,8,4,50,50,NaN,NaN,NaN