,PID,practice,trial,block,run,gain_left,left_item_id,right_item_id,left_pair_id,right_pair_id,left_stimulus,right_stimulus,left_category,right_category,left_path,right_path,no_response,left_chosen,rt,higher_outcome_chosen,choice_type,iti,long_iti,simulation,version,chosen_stimulus,unchosen_stimulus,chosen_category
0,90251,1,1,0,0,0,,,,,,,,,Stimuli/Practice_stims/Final_decisions/debby-hudson-FmCSSSGge-0-unsplash.jpg,Stimuli/Practice_stims/Final_decisions/yassine-khalfalli-adsQ9d_Cx0c-unsplash.jpg,0,1,1153,0,,3000,0,5,4,,,
1,90251,1,2,0,0,0,,,,,,,,,Stimuli/Practice_stims/Final_decisions/florian-wehde-iVW7mZPwd4g-unsplash.jpg,Stimuli/Practice_stims/Final_decisions/patrick-perkins-3wylDrjxH-E-unsplash.jpg,0,1,516,0,,1500,0,5,4,,,
2,90251,1,3,0,0,0,,,,,,,,,Stimuli/Practice_stims/Final_decisions/debby-hudson-FmCSSSGge-0-unsplash.jpg,Stimuli/Practice_stims/Final_decisions/florian-wehde-iVW7mZPwd4g-unsplash.jpg,0,1,342,0,,2000,0,5,4,,,
3,90251,1,4,0,0,0,,,,,,,,,Stimuli/Practice_stims/Final_decisions/yassine-khalfalli-adsQ9d_Cx0c-unsplash.jpg,Stimuli/Practice_stims/Final_decisions/debby-hudson-FmCSSSGge-0-unsplash.jpg,0,1,227,0,,1000,0,5,4,,,
4,90251,0,5,1,1,0,no_gain2,gain4,J,K,42,39,objects,objects,Stimuli/Experimental_stims/objects/jess-bailey-nOeVi8DsN8U-unsplash.jpg,Stimuli/Experimental_stims/objects/charlesdeluvio-1-nx1QR5dTE-unsplash.jpg,1,NaN,,NaN,chosen,5000,1,5,4,50,50,NaN,NaN,NaN
5,90251,0,6,1,1,0,no_gain1,gain4,G,K,43,34,objects,body_parts,Stimuli/Experimental_stims/objects/jonathan-greenaway-Y4hGgeiFn3s-unsplash.jpg,Stimuli/Experimental_stims/body_parts/wagner-santos-mBWMvIuVnso-unsplash.jpg,0,1,817,0,unchosen,1700,0,5,4,50,50,43,body_parts,objects
6,90251,0,7,1,1,1,gain2,no_gain4,A,L,45,21,objects,faces,Stimuli/Experimental_stims/objects/leohoho-rngTKHXumy0-unsplash.jpg,Stimuli/Experimental_stims/faces/leilani-angel-K84vnnzxmTQ-unsplash.jpg,1,NaN,,NaN,chosen,1600,0,5,4,50,50,NaN,NaN,NaN
7,90251,0,8,1,1,1,gain1,no_gain2,H,J,18,15,faces,faces,Stimuli/Experimental_stims/faces/jessica-radanavong-mrYkTuAesKE-unsplash.jpg,Stimuli/Experimental_stims/faces/erik-lucatero-d2MSDujJl2g-unsplash.jpg,1,NaN,,NaN,unchosen,1800,0,5,4,50,50,NaN,NaN,NaN
8,90251,0,9,1,1,0,no_gain6,gain6,I,F,29,17,body_parts,faces,Stimuli/Experimental_stims/body_parts/manuel-schinner-ZwjFuJ7ebpk-unsplash.jpg,Stimuli/Experimental_stims/faces/good-faces-xmSWVeGEnJw-unsplash.jpg,1,NaN,,NaN,unchosen,1300,0,5,4,50,50,NaN,NaN,NaN
9,90251,0,10,1,1,1,gain6,no_gain1,F,G,17,43,faces,objects,Stimuli/Experimental_stims/faces/good-faces-xmSWVeGEnJw-unsplash.jpg,Stimuli/Experimental_stims/objects/jonathan-greenaway-Y4hGgeiFn3s-unsplash.jpg,1,NaN,,NaN,unchosen,1200,0,5,4,50,50,NaN,NaN,NaN
10,90251,0,11,1,1,0,no_gain4,gain5,L,C,21,30,faces,body_parts,Stimuli/Experimental_stims/faces/leilani-angel-K84vnnzxmTQ-unsplash.jpg,Stimuli/Experimental_stims/body_parts/mika-korhonen-Xodzxosar18-unsplash.jpg,1,NaN,,NaN,chosen,3800,1,5,4,50,50,NaN,NaN,NaN
11,90251,0,12,1,1,0,no_gain3,gain2,B,A,13,45,faces,objects,Stimuli/Experimental_stims/faces/daniel-rigdon-dXmXKPP2L4E-unsplash.jpg,Stimuli/Experimental_stims/objects/leohoho-rngTKHXumy0-unsplash.jpg,1,NaN,,NaN,chosen,1100,0,5,4,50,50,NaN,NaN,NaN
12,90251,0,13,1,1,1,gain5,no_gain4,C,L,2,24,outdoor_scenes,body_parts,Stimuli/Experimental_stims/outdoor_scenes/bruno-van-der-kraan-qez8mNJ3ilU-unsplash.jpg,Stimuli/Experimental_stims/body_parts/clay-banks-LjqARJaJotc-unsplash.jpg,1,NaN,,NaN,unchosen,2500,0,5,4,50,50,NaN,NaN,NaN
13,90251,0,14,1,1,0,no_gain3,gain3,B,D,13,23,faces,faces,Stimuli/Experimental_stims/faces/daniel-rigdon-dXmXKPP2L4E-unsplash.jpg,Stimuli/Experimental_stims/faces/rikonavt-HQjfrvdTfak-unsplash.jpg,1,NaN,,NaN,chosen,1500,0,5,4,50,50,NaN,NaN,NaN
14,90251,0,15,1,1,0,no_gain6,gain1,I,H,29,18,body_parts,faces,Stimuli/Experimental_stims/body_parts/manuel-schinner-ZwjFuJ7ebpk-unsplash.jpg,Stimuli/Experimental_stims/faces/jessica-radanavong-mrYkTuAesKE-unsplash.jpg,1,NaN,,NaN,unchosen,1400,0,5,4,50,50,NaN,NaN,NaN
15,90251,0,16,1,1,0,no_gain2,gain3,J,D,42,23,objects,faces,Stimuli/Experimental_stims/objects/jess-bailey-nOeVi8DsN8U-unsplash.jpg,Stimuli/Experimental_stims/faces/rikonavt-HQjfrvdTfak-unsplash.jpg,1,NaN,,NaN,chosen,3300,1,5,4,50,50,NaN,NaN,NaN
16,90251,0,17,1,1,0,no_gain3,gain3,B,D,5,37,outdoor_scenes,objects,Stimuli/Experimental_stims/outdoor_scenes/jeff-king-bJHWJeiHfHc-unsplash.jpg,Stimuli/Experimental_stims/objects/alexander-andrews-VLGWE_SumrA-unsplash.jpg,1,NaN,,NaN,unchosen,1800,0,5,4,50,50,NaN,NaN,NaN
17,90251,0,18,1,1,0,no_gain1,gain3,G,D,43,37,objects,objects,Stimuli/Experimental_stims/objects/jonathan-greenaway-Y4hGgeiFn3s-unsplash.jpg,Stimuli/Experimental_stims/objects/alexander-andrews-VLGWE_SumrA-unsplash.jpg,1,NaN,,NaN,unchosen,1900,0,5,4,50,50,NaN,NaN,NaN
18,90251,0,19,1,1,0,no_gain6,gain4,I,K,29,34,body_parts,body_parts,Stimuli/Experimental_stims/body_parts/manuel-schinner-ZwjFuJ7ebpk-unsplash.jpg,Stimuli/Experimental_stims/body_parts/wagner-santos-mBWMvIuVnso-unsplash.jpg,1,NaN,,NaN,unchosen,1100,0,5,4,50,50,NaN,NaN,NaN
19,90251,0,20,1,1,0,no_gain2,gain1,J,H,42,11,objects,outdoor_scenes,Stimuli/Experimental_stims/objects/jess-bailey-nOeVi8DsN8U-unsplash.jpg,Stimuli/Experimental_stims/outdoor_scenes/stephen-leonardi-gyIRjKPXupE-unsplash.jpg,1,NaN,,NaN,chosen,1200,0,5,4,50,50,NaN,NaN,NaN
20,90251,0,21,1,1,1,gain4,no_gain4,K,L,34,24,body_parts,body_parts,Stimuli/Experimental_stims/body_parts/wagner-santos-mBWMvIuVnso-unsplash.jpg,Stimuli/Experimental_stims/body_parts/clay-banks-LjqARJaJotc-unsplash.jpg,1,NaN,,NaN,unchosen,1400,0,5,4,50,50,NaN,NaN,NaN
21,90251,0,22,1,1,0,no_gain4,gain3,L,D,21,23,faces,faces,Stimuli/Experimental_stims/faces/leilani-angel-K84vnnzxmTQ-unsplash.jpg,Stimuli/Experimental_stims/faces/rikonavt-HQjfrvdTfak-unsplash.jpg,1,NaN,,NaN,chosen,1100,0,5,4,50,50,NaN,NaN,NaN
22,90251,0,23,1,1,0,no_gain3,gain5,B,C,5,2,outdoor_scenes,outdoor_scenes,Stimuli/Experimental_stims/outdoor_scenes/jeff-king-bJHWJeiHfHc-unsplash.jpg,Stimuli/Experimental_stims/outdoor_scenes/bruno-van-der-kraan-qez8mNJ3ilU-unsplash.jpg,1,NaN,,NaN,unchosen,1500,0,5,4,50,50,NaN,NaN,NaN
23,90251,0,24,1,1,1,gain1,no_gain3,H,B,11,13,outdoor_scenes,faces,Stimuli/Experimental_stims/outdoor_scenes/stephen-leonardi-gyIRjKPXupE-unsplash.jpg,Stimuli/Experimental_stims/faces/daniel-rigdon-dXmXKPP2L4E-unsplash.jpg,1,NaN,,NaN,chosen,1600,0,5,4,50,50,NaN,NaN,NaN
24,90251,0,25,1,1,1,gain2,no_gain1,A,G,7,43,outdoor_scenes,objects,Stimuli/Experimental_stims/outdoor_scenes/petr-vysohlid-9fqwGqGLUxc-unsplash.jpg,Stimuli/Experimental_stims/objects/jonathan-greenaway-Y4hGgeiFn3s-unsplash.jpg,1,NaN,,NaN,unchosen,3000,1,5,4,50,50,NaN,NaN,NaN
25,90251,0,26,1,1,1,gain6,no_gain4,F,L,35,21,body_parts,faces,Stimuli/Experimental_stims/body_parts/wc-so-KH4AAPjb-tI-unsplash.jpg,Stimuli/Experimental_stims/faces/leilani-angel-K84vnnzxmTQ-unsplash.jpg,1,NaN,,NaN,chosen,1600,0,5,4,50,50,NaN,NaN,NaN
26,90251,0,27,1,1,0,no_gain1,gain1,G,H,43,18,objects,faces,Stimuli/Experimental_stims/objects/jonathan-greenaway-Y4hGgeiFn3s-unsplash.jpg,Stimuli/Experimental_stims/faces/jessica-radanavong-mrYkTuAesKE-unsplash.jpg,1,NaN,,NaN,unchosen,2900,0,5,4,50,50,NaN,NaN,NaN
27,90251,0,28,1,1,0,no_gain1,gain3,G,D,0,23,outdoor_scenes,faces,Stimuli/Experimental_stims/outdoor_scenes/aleksandra-boguslawska-MS7KD9Ti7FQ-unsplash.jpg,Stimuli/Experimental_stims/faces/rikonavt-HQjfrvdTfak-unsplash.jpg,1,NaN,,NaN,chosen,2700,0,5,4,50,50,NaN,NaN,NaN
28,90251,0,29,1,1,1,gain5,no_gain3,C,B,30,13,body_parts,faces,Stimuli/Experimental_stims/body_parts/mika-korhonen-Xodzxosar18-unsplash.jpg,Stimuli/Experimental_stims/faces/daniel-rigdon-dXmXKPP2L4E-unsplash.jpg,1,NaN,,NaN,chosen,1800,0,5,4,50,50,NaN,NaN,NaN
29,90251,0,30,1,1,1,gain5,no_gain5,C,E,2,41,outdoor_scenes,objects,Stimuli/Experimental_stims/outdoor_scenes/bruno-van-der-kraan-qez8mNJ3ilU-unsplash.jpg,Stimuli/Experimental_stims/objects/insung-yoon-w2JtIQQXoRU-unsplash.jpg,1,NaN,,NaN,unchosen,2300,0,5,4,50,50,NaN,NaN,NaN
30,90251,0,31,1,1,0,no_gain1,gain4,G,K,0,39,outdoor_scenes,objects,Stimuli/Experimental_stims/outdoor_scenes/aleksandra-boguslawska-MS7KD9Ti7FQ-unsplash.jpg,Stimuli/Experimental_stims/objects/charlesdeluvio-1-nx1QR5dTE-unsplash.jpg,1,NaN,,NaN,chosen,2000,0,5,4,50,50,NaN,NaN,NaN
31,90251,0,32,1,1,1,gain6,no_gain2,F,J,35,42,body_parts,objects,Stimuli/Experimental_stims/body_parts/wc-so-KH4AAPjb-tI-unsplash.jpg,Stimuli/Experimental_stims/objects/jess-bailey-nOeVi8DsN8U-unsplash.jpg,1,NaN,,NaN,chosen,2600,0,5,4,50,50,NaN,NaN,NaN
32,90251,0,33,1,1,1,gain4,no_gain3,K,B,34,5,body_parts,outdoor_scenes,Stimuli/Experimental_stims/body_parts/wagner-santos-mBWMvIuVnso-unsplash.jpg,Stimuli/Experimental_stims/outdoor_scenes/jeff-king-bJHWJeiHfHc-unsplash.jpg,1,NaN,,NaN,unchosen,3500,1,5,4,50,50,NaN,NaN,NaN
33,90251,0,34,1,1,1,gain4,no_gain5,K,E,34,41,body_parts,objects,Stimuli/Experimental_stims/body_parts/wagner-santos-mBWMvIuVnso-unsplash.jpg,Stimuli/Experimental_stims/objects/insung-yoon-w2JtIQQXoRU-unsplash.jpg,1,NaN,,NaN,unchosen,1000,0,5,4,50,50,NaN,NaN,NaN
34,90251,0,35,1,1,0,no_gain5,gain6,E,F,26,35,body_parts,body_parts,Stimuli/Experimental_stims/body_parts/engin-akyurt-x_3gyC42btc-unsplash.jpg,Stimuli/Experimental_stims/body_parts/wc-so-KH4AAPjb-tI-unsplash.jpg,1,NaN,,NaN,chosen,1600,0,5,4,50,50,NaN,NaN,NaN
35,90251,0,36,1,1,1,gain1,no_gain5,H,E,11,26,outdoor_scenes,body_parts,Stimuli/Experimental_stims/outdoor_scenes/stephen-leonardi-gyIRjKPXupE-unsplash.jpg,Stimuli/Experimental_stims/body_parts/engin-akyurt-x_3gyC42btc-unsplash.jpg,1,NaN,,NaN,chosen,1200,0,5,4,50,50,NaN,NaN,NaN
36,90251,0,37,1,1,0,no_gain6,gain2,I,A,8,45,outdoor_scenes,objects,Stimuli/Experimental_stims/outdoor_scenes/samsommer-vddccTqwal8-unsplash.jpg,Stimuli/Experimental_stims/objects/leohoho-rngTKHXumy0-unsplash.jpg,1,NaN,,NaN,chosen,1500,0,5,4,50,50,NaN,NaN,NaN
37,90251,0,38,1,1,1,gain2,no_gain6,A,I,7,29,outdoor_scenes,body_parts,Stimuli/Experimental_stims/outdoor_scenes/petr-vysohlid-9fqwGqGLUxc-unsplash.jpg,Stimuli/Experimental_stims/body_parts/manuel-schinner-ZwjFuJ7ebpk-unsplash.jpg,1,NaN,,NaN,unchosen,4800,1,5,4,50,50,NaN,NaN,NaN
38,90251,0,39,1,1,1,gain2,no_gain2,A,J,45,42,objects,objects,Stimuli/Experimental_stims/objects/leohoho-rngTKHXumy0-unsplash.jpg,Stimuli/Experimental_stims/objects/jess-bailey-nOeVi8DsN8U-unsplash.jpg,1,NaN,,NaN,chosen,1500,0,5,4,50,50,NaN,NaN,NaN
39,90251,0,40,1,1,0,no_gain5,gain1,E,H,41,18,objects,faces,Stimuli/Experimental_stims/objects/insung-yoon-w2JtIQQXoRU-unsplash.jpg,Stimuli/Experimental_stims/faces/jessica-radanavong-mrYkTuAesKE-unsplash.jpg,1,NaN,,NaN,unchosen,1700,0,5,4,50,50,NaN,NaN,NaN
40,90251,0,41,1,1,0,no_gain4,gain1,L,H,24,18,body_parts,faces,Stimuli/Experimental_stims/body_parts/clay-banks-LjqARJaJotc-unsplash.jpg,Stimuli/Experimental_stims/faces/jessica-radanavong-mrYkTuAesKE-unsplash.jpg,1,NaN,,NaN,unchosen,1200,0,5,4,50,50,NaN,NaN,NaN
41,90251,0,42,1,1,1,gain5,no_gain2,C,J,2,15,outdoor_scenes,faces,Stimuli/Experimental_stims/outdoor_scenes/bruno-van-der-kraan-qez8mNJ3ilU-unsplash.jpg,Stimuli/Experimental_stims/faces/erik-lucatero-d2MSDujJl2g-unsplash.jpg,1,NaN,,NaN,unchosen,1400,0,5,4,50,50,NaN,NaN,NaN
42,90251,0,43,1,1,1,gain6,no_gain6,F,I,35,8,body_parts,outdoor_scenes,Stimuli/Experimental_stims/body_parts/wc-so-KH4AAPjb-tI-unsplash.jpg,Stimuli/Experimental_stims/outdoor_scenes/samsommer-vddccTqwal8-unsplash.jpg,1,NaN,,NaN,chosen,1800,0,5,4,50,50,NaN,NaN,NaN
43,90251,0,44,1,1,1,gain1,no_gain3,H,B,18,5,faces,outdoor_scenes,Stimuli/Experimental_stims/faces/jessica-radanavong-mrYkTuAesKE-unsplash.jpg,Stimuli/Experimental_stims/outdoor_scenes/jeff-king-bJHWJeiHfHc-unsplash.jpg,1,NaN,,NaN,unchosen,3600,1,5,4,50,50,NaN,NaN,NaN
44,90251,0,45,1,1,1,gain2,no_gain5,A,E,45,26,objects,body_parts,Stimuli/Experimental_stims/objects/leohoho-rngTKHXumy0-unsplash.jpg,Stimuli/Experimental_stims/body_parts/engin-akyurt-x_3gyC42btc-unsplash.jpg,1,NaN,,NaN,chosen,1200,0,5,4,50,50,NaN,NaN,NaN
45,90251,0,46,1,1,0,no_gain2,gain5,J,C,42,30,objects,body_parts,Stimuli/Experimental_stims/objects/jess-bailey-nOeVi8DsN8U-unsplash.jpg,Stimuli/Experimental_stims/body_parts/mika-korhonen-Xodzxosar18-unsplash.jpg,1,NaN,,NaN,chosen,2700,0,5,4,50,50,NaN,NaN,NaN
46,90251,0,47,1,1,0,no_gain4,gain3,L,D,24,37,body_parts,objects,Stimuli/Experimental_stims/body_parts/clay-banks-LjqARJaJotc-unsplash.jpg,Stimuli/Experimental_stims/objects/alexander-andrews-VLGWE_SumrA-unsplash.jpg,1,NaN,,NaN,unchosen,2100,0,5,4,50,50,NaN,NaN,NaN
47,90251,0,48,1,1,1,gain6,no_gain4,F,L,17,24,faces,body_parts,Stimuli/Experimental_stims/faces/good-faces-xmSWVeGEnJw-unsplash.jpg,Stimuli/Experimental_stims/body_parts/clay-banks-LjqARJaJotc-unsplash.jpg,1,NaN,,NaN,unchosen,2500,0,5,4,50,50,NaN,NaN,NaN
48,90251,0,49,1,1,1,gain3,no_gain6,D,I,23,8,faces,outdoor_scenes,Stimuli/Experimental_stims/faces/rikonavt-HQjfrvdTfak-unsplash.jpg,Stimuli/Experimental_stims/outdoor_scenes/samsommer-vddccTqwal8-unsplash.jpg,1,NaN,,NaN,chosen,1500,0,5,4,50,50,NaN,NaN,NaN
49,90251,0,50,1,1,1,gain2,no_gain1,A,G,45,0,objects,outdoor_scenes,Stimuli/Experimental_stims/objects/leohoho-rngTKHXumy0-unsplash.jpg,Stimuli/Experimental_stims/outdoor_scenes/aleksandra-boguslawska-MS7KD9Ti7FQ-unsplash.jpg,1,NaN,,NaN,chosen,1300,0,5,4,50,50,NaN,NaN,NaN
50,90251,0,51,1,1,1,gain6,no_gain3,F,B,35,13,body_parts,faces,Stimuli/Experimental_stims/body_parts/wc-so-KH4AAPjb-tI-unsplash.jpg,Stimuli/Experimental_stims/faces/daniel-rigdon-dXmXKPP2L4E-unsplash.jpg,1,NaN,,NaN,chosen,1000,0,5,4,50,50,NaN,NaN,NaN
51,90251,0,52,1,1,1,gain6,no_gain3,F,B,17,5,faces,outdoor_scenes,Stimuli/Experimental_stims/faces/good-faces-xmSWVeGEnJw-unsplash.jpg,Stimuli/Experimental_stims/outdoor_scenes/jeff-king-bJHWJeiHfHc-unsplash.jpg,1,NaN,,NaN,unchosen,1500,0,5,4,50,50,NaN,NaN,NaN
52,90251,0,53,1,1,0,no_gain6,gain3,I,D,29,37,body_parts,objects,Stimuli/Experimental_stims/body_parts/manuel-schinner-ZwjFuJ7ebpk-unsplash.jpg,Stimuli/Experimental_stims/objects/alexander-andrews-VLGWE_SumrA-unsplash.jpg,1,NaN,,NaN,unchosen,2200,0,5,4,50,50,NaN,NaN,NaN
53,90251,0,54,1,1,1,gain2,no_gain5,A,E,7,41,outdoor_scenes,objects,Stimuli/Experimental_stims/outdoor_scenes/petr-vysohlid-9fqwGqGLUxc-unsplash.jpg,Stimuli/Experimental_stims/objects/insung-yoon-w2JtIQQXoRU-unsplash.jpg,1,NaN,,NaN,unchosen,1300,0,5,4,50,50,NaN,NaN,NaN
54,90251,0,55,1,1,1,gain4,no_gain6,K,I,39,8,objects,outdoor_scenes,Stimuli/Experimental_stims/objects/charlesdeluvio-1-nx1QR5dTE-unsplash.jpg,Stimuli/Experimental_stims/outdoor_scenes/samsommer-vddccTqwal8-unsplash.jpg,1,NaN,,NaN,chosen,3000,1,5,4,50,50,NaN,NaN,NaN
55,90251,0,56,1,1,1,gain4,no_gain2,K,J,34,15,body_parts,faces,Stimuli/Experimental_stims/body_parts/wagner-santos-mBWMvIuVnso-unsplash.jpg,Stimuli/Experimental_stims/faces/erik-lucatero-d2MSDujJl2g-unsplash.jpg,1,NaN,,NaN,unchosen,1400,0,5,4,50,50,NaN,NaN,NaN
56,90251,0,57,1,1,1,gain3,no_gain2,D,J,37,15,objects,faces,Stimuli/Experimental_stims/objects/alexander-andrews-VLGWE_SumrA-unsplash.jpg,Stimuli/Experimental_stims/faces/erik-lucatero-d2MSDujJl2g-unsplash.jpg,1,NaN,,NaN,unchosen,1500,0,5,4,50,50,NaN,NaN,NaN
57,90251,0,58,1,1,0,no_gain4,gain1,L,H,21,11,faces,outdoor_scenes,Stimuli/Experimental_stims/faces/leilani-angel-K84vnnzxmTQ-unsplash.jpg,Stimuli/Experimental_stims/outdoor_scenes/stephen-leonardi-gyIRjKPXupE-unsplash.jpg,1,NaN,,NaN,chosen,1200,0,5,4,50,50,NaN,NaN,NaN
58,90251,0,59,1,1,0,no_gain2,gain2,J,A,15,7,faces,outdoor_scenes,Stimuli/Experimental_stims/faces/erik-lucatero-d2MSDujJl2g-unsplash.jpg,Stimuli/Experimental_stims/outdoor_scenes/petr-vysohlid-9fqwGqGLUxc-unsplash.jpg,1,NaN,,NaN,unchosen,1600,0,5,4,50,50,NaN,NaN,NaN
59,90251,0,60,1,1,0,no_gain6,gain1,I,H,8,11,outdoor_scenes,outdoor_scenes,Stimuli/Experimental_stims/outdoor_scenes/samsommer-vddccTqwal8-unsplash.jpg,Stimuli/Experimental_stims/outdoor_scenes/stephen-leonardi-gyIRjKPXupE-unsplash.jpg,1,NaN,,NaN,chosen,2300,0,5,4,50,50,NaN,NaN,NaN
60,90251,0,61,1,1,1,gain2,no_gain3,A,B,7,5,outdoor_scenes,outdoor_scenes,Stimuli/Experimental_stims/outdoor_scenes/petr-vysohlid-9fqwGqGLUxc-unsplash.jpg,Stimuli/Experimental_stims/outdoor_scenes/jeff-king-bJHWJeiHfHc-unsplash.jpg,1,NaN,,NaN,unchosen,1400,0,5,4,50,50,NaN,NaN,NaN
61,90251,0,62,1,1,0,no_gain5,gain4,E,K,26,39,body_parts,objects,Stimuli/Experimental_stims/body_parts/engin-akyurt-x_3gyC42btc-unsplash.jpg,Stimuli/Experimental_stims/objects/charlesdeluvio-1-nx1QR5dTE-unsplash.jpg,1,NaN,,NaN,chosen,4400,1,5,4,50,50,NaN,NaN,NaN
62,90251,0,63,1,1,1,gain3,no_gain5,D,E,23,26,faces,body_parts,Stimuli/Experimental_stims/faces/rikonavt-HQjfrvdTfak-unsplash.jpg,Stimuli/Experimental_stims/body_parts/engin-akyurt-x_3gyC42btc-unsplash.jpg,1,NaN,,NaN,chosen,1900,0,5,4,50,50,NaN,NaN,NaN
63,90251,0,64,1,1,0,no_gain6,gain5,I,C,29,2,body_parts,outdoor_scenes,Stimuli/Experimental_stims/body_parts/manuel-schinner-ZwjFuJ7ebpk-unsplash.jpg,Stimuli/Experimental_stims/outdoor_scenes/bruno-van-der-kraan-qez8mNJ3ilU-unsplash.jpg,1,NaN,,NaN,unchosen,2000,0,5,4,50,50,NaN,NaN,NaN
64,90251,0,65,1,1,0,no_gain5,gain6,E,F,41,17,objects,faces,Stimuli/Experimental_stims/objects/insung-yoon-w2JtIQQXoRU-unsplash.jpg,Stimuli/Experimental_stims/faces/good-faces-xmSWVeGEnJw-unsplash.jpg,1,NaN,,NaN,unchosen,1500,0,5,4,50,50,NaN,NaN,NaN
65,90251,0,66,1,1,1,gain5,no_gain6,C,I,30,8,body_parts,outdoor_scenes,Stimuli/Experimental_stims/body_parts/mika-korhonen-Xodzxosar18-unsplash.jpg,Stimuli/Experimental_stims/outdoor_scenes/samsommer-vddccTqwal8-unsplash.jpg,1,NaN,,NaN,chosen,1600,0,5,4,50,50,NaN,NaN,NaN
66,90251,0,67,1,1,0,no_gain2,gain6,J,F,15,17,faces,faces,Stimuli/Experimental_stims/faces/erik-lucatero-d2MSDujJl2g-unsplash.jpg,Stimuli/Experimental_stims/faces/good-faces-xmSWVeGEnJw-unsplash.jpg,1,NaN,,NaN,unchosen,3000,1,5,4,50,50,NaN,NaN,NaN
67,90251,0,68,1,1,0,no_gain1,gain1,G,H,0,11,outdoor_scenes,outdoor_scenes,Stimuli/Experimental_stims/outdoor_scenes/aleksandra-boguslawska-MS7KD9Ti7FQ-unsplash.jpg,Stimuli/Experimental_stims/outdoor_scenes/stephen-leonardi-gyIRjKPXupE-unsplash.jpg,1,NaN,,NaN,chosen,1900,0,5,4,50,50,NaN,NaN,NaN
68,90251,0,69,1,1,0,no_gain4,gain2,L,A,24,7,body_parts,outdoor_scenes,Stimuli/Experimental_stims/body_parts/clay-banks-LjqARJaJotc-unsplash.jpg,Stimuli/Experimental_stims/outdoor_scenes/petr-vysohlid-9fqwGqGLUxc-unsplash.jpg,1,NaN,,NaN,unchosen,1100,0,5,4,50,50,NaN,NaN,NaN
69,90251,0,70,1,1,1,gain4,no_gain3,K,B,39,13,objects,faces,Stimuli/Experimental_stims/objects/charlesdeluvio-1-nx1QR5dTE-unsplash.jpg,Stimuli/Experimental_stims/faces/daniel-rigdon-dXmXKPP2L4E-unsplash.jpg,1,NaN,,NaN,chosen,1300,0,5,4,50,50,NaN,NaN,NaN
70,90251,0,71,1,1,1,gain6,no_gain1,F,G,35,0,body_parts,outdoor_scenes,Stimuli/Experimental_stims/body_parts/wc-so-KH4AAPjb-tI-unsplash.jpg,Stimuli/Experimental_stims/outdoor_scenes/aleksandra-boguslawska-MS7KD9Ti7FQ-unsplash.jpg,1,NaN,,NaN,chosen,2600,0,5,4,50,50,NaN,NaN,NaN
71,90251,0,72,1,1,0,no_gain5,gain5,E,C,26,30,body_parts,body_parts,Stimuli/Experimental_stims/body_parts/engin-akyurt-x_3gyC42btc-unsplash.jpg,Stimuli/Experimental_stims/body_parts/mika-korhonen-Xodzxosar18-unsplash.jpg,1,NaN,,NaN,chosen,1100,0,5,4,50,50,NaN,NaN,NaN
72,90251,0,73,1,1,0,no_gain1,gain5,G,C,43,2,objects,outdoor_scenes,Stimuli/Experimental_stims/objects/jonathan-greenaway-Y4hGgeiFn3s-unsplash.jpg,Stimuli/Experimental_stims/outdoor_scenes/bruno-van-der-kraan-qez8mNJ3ilU-unsplash.jpg,1,NaN,,NaN,unchosen,2500,0,5,4,50,50,NaN,NaN,NaN
73,90251,0,74,1,1,1,gain4,no_gain4,K,L,39,21,objects,faces,Stimuli/Experimental_stims/objects/charlesdeluvio-1-nx1QR5dTE-unsplash.jpg,Stimuli/Experimental_stims/faces/leilani-angel-K84vnnzxmTQ-unsplash.jpg,1,NaN,,NaN,chosen,2600,0,5,4,50,50,NaN,NaN,NaN
74,90251,0,75,1,1,0,no_gain1,gain5,G,C,0,30,outdoor_scenes,body_parts,Stimuli/Experimental_stims/outdoor_scenes/aleksandra-boguslawska-MS7KD9Ti7FQ-unsplash.jpg,Stimuli/Experimental_stims/body_parts/mika-korhonen-Xodzxosar18-unsplash.jpg,1,NaN,,NaN,chosen,1100,0,5,4,50,50,NaN,NaN,NaN
75,90251,0,76,1,1,1,gain3,no_gain5,D,E,37,41,objects,objects,Stimuli/Experimental_stims/objects/alexander-andrews-VLGWE_SumrA-unsplash.jpg,Stimuli/Experimental_stims/objects/insung-yoon-w2JtIQQXoRU-unsplash.jpg,1,NaN,,NaN,unchosen,4200,1,5,4,50,50,NaN,NaN,NaN
76,90251,0,77,2,2,1,gain4,no_gain6,K,I,34,29,body_parts,body_parts,Stimuli/Experimental_stims/body_parts/wagner-santos-mBWMvIuVnso-unsplash.jpg,Stimuli/Experimental_stims/body_parts/manuel-schinner-ZwjFuJ7ebpk-unsplash.jpg,1,NaN,,NaN,unchosen,1200,0,8,4,50,50,NaN,NaN,NaN
77,90251,0,78,2,2,1,gain4,no_gain3,K,B,34,5,body_parts,outdoor_scenes,Stimuli/Experimental_stims/body_parts/wagner-santos-mBWMvIuVnso-unsplash.jpg,Stimuli/Experimental_stims/outdoor_scenes/jeff-king-bJHWJeiHfHc-unsplash.jpg,1,NaN,,NaN,unchosen,1400,0,8,4,50,50,NaN,NaN,NaN
78,90251,0,79,2,2,1,gain5,no_gain2,C,J,2,15,outdoor_scenes,faces,Stimuli/Experimental_stims/outdoor_scenes/bruno-van-der-kraan-qez8mNJ3ilU-unsplash.jpg,Stimuli/Experimental_stims/faces/erik-lucatero-d2MSDujJl2g-unsplash.jpg,1,NaN,,NaN,unchosen,2800,0,8,4,50,50,NaN,NaN,NaN
79,90251,0,80,2,2,0,no_gain3,gain1,B,H,13,11,faces,outdoor_scenes,Stimuli/Experimental_stims/faces/daniel-rigdon-dXmXKPP2L4E-unsplash.jpg,Stimuli/Experimental_stims/outdoor_scenes/stephen-leonardi-gyIRjKPXupE-unsplash.jpg,1,NaN,,NaN,chosen,1700,0,8,4,50,50,NaN,NaN,NaN
80,90251,0,81,2,2,0,no_gain5,gain6,E,F,41,17,objects,faces,Stimuli/Experimental_stims/objects/insung-yoon-w2JtIQQXoRU-unsplash.jpg,Stimuli/Experimental_stims/faces/good-faces-xmSWVeGEnJw-unsplash.jpg,1,NaN,,NaN,unchosen,3700,1,8,4,50,50,NaN,NaN,NaN
81,90251,0,82,2,2,1,gain1,no_gain4,H,L,18,24,faces,body_parts,Stimuli/Experimental_stims/faces/jessica-radanavong-mrYkTuAesKE-unsplash.jpg,Stimuli/Experimental_stims/body_parts/clay-banks-LjqARJaJotc-unsplash.jpg,1,NaN,,NaN,unchosen,2300,0,8,4,50,50,NaN,NaN,NaN
82,90251,0,83,2,2,0,no_gain1,gain1,G,H,0,11,outdoor_scenes,outdoor_scenes,Stimuli/Experimental_stims/outdoor_scenes/aleksandra-boguslawska-MS7KD9Ti7FQ-unsplash.jpg,Stimuli/Experimental_stims/outdoor_scenes/stephen-leonardi-gyIRjKPXupE-unsplash.jpg,1,NaN,,NaN,chosen,2900,0,8,4,50,50,NaN,NaN,NaN
83,90251,0,84,2,2,0,no_gain3,gain5,B,C,5,2,outdoor_scenes,outdoor_scenes,Stimuli/Experimental_stims/outdoor_scenes/jeff-king-bJHWJeiHfHc-unsplash.jpg,Stimuli/Experimental_stims/outdoor_scenes/bruno-van-der-kraan-qez8mNJ3ilU-unsplash.jpg,1,NaN,,NaN,unchosen,2300,0,8,4,50,50,NaN,NaN,NaN
84,90251,0,85,2,2,0,no_gain2,gain1,J,H,42,11,objects,outdoor_scenes,Stimuli/Experimental_stims/objects/jess-bailey-nOeVi8DsN8U-unsplash.jpg,Stimuli/Experimental_stims/outdoor_scenes/stephen-leonardi-gyIRjKPXupE-unsplash.jpg,1,NaN,,NaN,chosen,1200,0,8,4,50,50,NaN,NaN,NaN
85,90251,0,86,2,2,0,no_gain1,gain1,G,H,43,18,objects,faces,Stimuli/Experimental_stims/objects/jonathan-greenaway-Y4hGgeiFn3s-unsplash.jpg,Stimuli/Experimental_stims/faces/jessica-radanavong-mrYkTuAesKE-unsplash.jpg,1,NaN,,NaN,unchosen,3100,1,8,4,50,50,NaN,NaN,NaN
86,90251,0,87,2,2,0,no_gain2,gain4,J,K,42,39,objects,objects,Stimuli/Experimental_stims/objects/jess-bailey-nOeVi8DsN8U-unsplash.jpg,Stimuli/Experimental_stims/objects/charlesdeluvio-1-nx1QR5dTE-unsplash.jpg,1,NaN,,NaN,chosen,1200,0,8,4,50,50,NaN,NaN,NaN
87,90251,0,88,2,2,0,no_gain5,gain2,E,A,41,7,objects,outdoor_scenes,Stimuli/Experimental_stims/objects/insung-yoon-w2JtIQQXoRU-unsplash.jpg,Stimuli/Experimental_stims/outdoor_scenes/petr-vysohlid-9fqwGqGLUxc-unsplash.jpg,1,NaN,,NaN,unchosen,1900,0,8,4,50,50,NaN,NaN,NaN
88,90251,0,89,2,2,1,gain6,no_gain1,F,G,35,0,body_parts,outdoor_scenes,Stimuli/Experimental_stims/body_parts/wc-so-KH4AAPjb-tI-unsplash.jpg,Stimuli/Experimental_stims/outdoor_scenes/aleksandra-boguslawska-MS7KD9Ti7FQ-unsplash.jpg,1,NaN,,NaN,chosen,2800,0,8,4,50,50,NaN,NaN,NaN
89,90251,0,90,2,2,1,gain5,no_gain3,C,B,30,13,body_parts,faces,Stimuli/Experimental_stims/body_parts/mika-korhonen-Xodzxosar18-unsplash.jpg,Stimuli/Experimental_stims/faces/daniel-rigdon-dXmXKPP2L4E-unsplash.jpg,1,NaN,,NaN,chosen,1200,0,8,4,50,50,NaN,NaN,NaN
90,90251,0,91,2,2,1,gain4,no_gain4,K,L,34,24,body_parts,body_parts,Stimuli/Experimental_stims/body_parts/wagner-santos-mBWMvIuVnso-unsplash.jpg,Stimuli/Experimental_stims/body_parts/clay-banks-LjqARJaJotc-unsplash.jpg,1,NaN,,NaN,unchosen,3800,1,8,4,50,50,NaN,NaN,NaN
91,90251,0,92,2,2,0,no_gain1,gain2,G,A,43,7,objects,outdoor_scenes,Stimuli/Experimental_stims/objects/jonathan-greenaway-Y4hGgeiFn3s-unsplash.jpg,Stimuli/Experimental_stims/outdoor_scenes/petr-vysohlid-9fqwGqGLUxc-unsplash.jpg,1,NaN,,NaN,unchosen,1800,0,8,4,50,50,NaN,NaN,NaN
92,90251,0,93,2,2,0,no_gain3,gain4,B,K,13,39,faces,objects,Stimuli/Experimental_stims/faces/daniel-rigdon-dXmXKPP2L4E-unsplash.jpg,Stimuli/Experimental_stims/objects/charlesdeluvio-1-nx1QR5dTE-unsplash.jpg,1,NaN,,NaN,chosen,2300,0,8,4,50,50,NaN,NaN,NaN
93,90251,0,94,2,2,1,gain5,no_gain1,C,G,30,0,body_parts,outdoor_scenes,Stimuli/Experimental_stims/body_parts/mika-korhonen-Xodzxosar18-unsplash.jpg,Stimuli/Experimental_stims/outdoor_scenes/aleksandra-boguslawska-MS7KD9Ti7FQ-unsplash.jpg,0,1,749,1,chosen,1400,0,8,4,50,50,30,outdoor_scenes,body_parts
94,90251,0,95,2,2,0,no_gain5,gain4,E,K,41,34,objects,body_parts,Stimuli/Experimental_stims/objects/insung-yoon-w2JtIQQXoRU-unsplash.jpg,Stimuli/Experimental_stims/body_parts/wagner-santos-mBWMvIuVnso-unsplash.jpg,0,1,429,0,unchosen,1300,0,8,4,50,50,41,body_parts,objects
95,90251,0,96,2,2,1,gain4,no_gain5,K,E,39,26,objects,body_parts,Stimuli/Experimental_stims/objects/charlesdeluvio-1-nx1QR5dTE-unsplash.jpg,Stimuli/Experimental_stims/body_parts/engin-akyurt-x_3gyC42btc-unsplash.jpg,0,1,329,1,chosen,1700,0,8,4,50,50,39,body_parts,objects
96,90251,0,97,2,2,1,gain5,no_gain1,C,G,2,43,outdoor_scenes,objects,Stimuli/Experimental_stims/outdoor_scenes/bruno-van-der-kraan-qez8mNJ3ilU-unsplash.jpg,Stimuli/Experimental_stims/objects/jonathan-greenaway-Y4hGgeiFn3s-unsplash.jpg,0,1,293,1,unchosen,3100,1,8,4,50,50,2,objects,outdoor_scenes
97,90251,0,98,2,2,1,gain1,no_gain6,H,I,11,8,outdoor_scenes,outdoor_scenes,Stimuli/Experimental_stims/outdoor_scenes/stephen-leonardi-gyIRjKPXupE-unsplash.jpg,Stimuli/Experimental_stims/outdoor_scenes/samsommer-vddccTqwal8-unsplash.jpg,0,1,456,1,chosen,1300,0,8,4,50,50,11,outdoor_scenes,outdoor_scenes
98,90251,0,99,2,2,0,no_gain2,gain1,J,H,15,18,faces,faces,Stimuli/Experimental_stims/faces/erik-lucatero-d2MSDujJl2g-unsplash.jpg,Stimuli/Experimental_stims/faces/jessica-radanavong-mrYkTuAesKE-unsplash.jpg,0,1,434,0,unchosen,2100,0,8,4,50,50,15,faces,faces
99,90251,0,100,2,2,1,gain2,no_gain3,A,B,45,13,objects,faces,Stimuli/Experimental_stims/objects/leohoho-rngTKHXumy0-unsplash.jpg,Stimuli/Experimental_stims/faces/daniel-rigdon-dXmXKPP2L4E-unsplash.jpg,0,0,458,0,chosen,1000,0,8,4,50,50,13,objects,faces
100,90251,0,101,2,2,1,gain2,no_gain2,A,J,45,42,objects,objects,Stimuli/Experimental_stims/objects/leohoho-rngTKHXumy0-unsplash.jpg,Stimuli/Experimental_stims/objects/jess-bailey-nOeVi8DsN8U-unsplash.jpg,0,0,528,0,chosen,1200,0,8,4,50,50,42,objects,objects
101,90251,0,102,2,2,1,gain3,no_gain1,D,G,23,0,faces,outdoor_scenes,Stimuli/Experimental_stims/faces/rikonavt-HQjfrvdTfak-unsplash.jpg,Stimuli/Experimental_stims/outdoor_scenes/aleksandra-boguslawska-MS7KD9Ti7FQ-unsplash.jpg,0,0,470,0,chosen,1700,0,8,4,50,50,0,faces,outdoor_scenes
102,90251,0,103,2,2,0,no_gain5,gain5,E,C,41,2,objects,outdoor_scenes,Stimuli/Experimental_stims/objects/insung-yoon-w2JtIQQXoRU-unsplash.jpg,Stimuli/Experimental_stims/outdoor_scenes/bruno-van-der-kraan-qez8mNJ3ilU-unsplash.jpg,0,0,357,1,unchosen,1100,0,8,4,50,50,2,objects,outdoor_scenes
103,90251,0,104,2,2,0,no_gain6,gain5,I,C,8,30,outdoor_scenes,body_parts,Stimuli/Experimental_stims/outdoor_scenes/samsommer-vddccTqwal8-unsplash.jpg,Stimuli/Experimental_stims/body_parts/mika-korhonen-Xodzxosar18-unsplash.jpg,0,0,512,1,chosen,1900,0,8,4,50,50,30,outdoor_scenes,body_parts
104,90251,0,105,2,2,0,no_gain2,gain3,J,D,42,23,objects,faces,Stimuli/Experimental_stims/objects/jess-bailey-nOeVi8DsN8U-unsplash.jpg,Stimuli/Experimental_stims/faces/rikonavt-HQjfrvdTfak-unsplash.jpg,0,0,556,1,chosen,4100,1,8,4,50,50,23,objects,faces
105,90251,0,106,2,2,0,no_gain1,gain4,G,K,43,34,objects,body_parts,Stimuli/Experimental_stims/objects/jonathan-greenaway-Y4hGgeiFn3s-unsplash.jpg,Stimuli/Experimental_stims/body_parts/wagner-santos-mBWMvIuVnso-unsplash.jpg,0,0,403,1,unchosen,1400,0,8,4,50,50,34,objects,body_parts
106,90251,0,107,2,2,0,no_gain4,gain2,L,A,24,7,body_parts,outdoor_scenes,Stimuli/Experimental_stims/body_parts/clay-banks-LjqARJaJotc-unsplash.jpg,Stimuli/Experimental_stims/outdoor_scenes/petr-vysohlid-9fqwGqGLUxc-unsplash.jpg,1,NaN,,NaN,unchosen,2400,0,8,4,50,50,NaN,NaN,NaN
107,90251,0,108,2,2,0,no_gain5,gain1,E,H,26,11,body_parts,outdoor_scenes,Stimuli/Experimental_stims/body_parts/engin-akyurt-x_3gyC42btc-unsplash.jpg,Stimuli/Experimental_stims/outdoor_scenes/stephen-leonardi-gyIRjKPXupE-unsplash.jpg,1,NaN,,NaN,chosen,1200,0,8,4,50,50,NaN,NaN,NaN
108,90251,0,109,2,2,1,gain6,no_gain1,F,G,17,43,faces,objects,Stimuli/Experimental_stims/faces/good-faces-xmSWVeGEnJw-unsplash.jpg,Stimuli/Experimental_stims/objects/jonathan-greenaway-Y4hGgeiFn3s-unsplash.jpg,1,NaN,,NaN,unchosen,1500,0,8,4,50,50,NaN,NaN,NaN
109,90251,0,110,2,2,1,gain1,no_gain6,H,I,18,29,faces,body_parts,Stimuli/Experimental_stims/faces/jessica-radanavong-mrYkTuAesKE-unsplash.jpg,Stimuli/Experimental_stims/body_parts/manuel-schinner-ZwjFuJ7ebpk-unsplash.jpg,1,NaN,,NaN,unchosen,3200,1,8,4,50,50,NaN,NaN,NaN
110,90251,0,111,2,2,0,no_gain5,gain2,E,A,26,45,body_parts,objects,Stimuli/Experimental_stims/body_parts/engin-akyurt-x_3gyC42btc-unsplash.jpg,Stimuli/Experimental_stims/objects/leohoho-rngTKHXumy0-unsplash.jpg,1,NaN,,NaN,chosen,1800,0,8,4,50,50,NaN,NaN,NaN
111,90251,0,112,2,2,0,no_gain5,gain1,E,H,41,18,objects,faces,Stimuli/Experimental_stims/objects/insung-yoon-w2JtIQQXoRU-unsplash.jpg,Stimuli/Experimental_stims/faces/jessica-radanavong-mrYkTuAesKE-unsplash.jpg,1,NaN,,NaN,unchosen,1100,0,8,4,50,50,NaN,NaN,NaN
112,90251,0,113,2,2,1,gain2,no_gain6,A,I,7,29,outdoor_scenes,body_parts,Stimuli/Experimental_stims/outdoor_scenes/petr-vysohlid-9fqwGqGLUxc-unsplash.jpg,Stimuli/Experimental_stims/body_parts/manuel-schinner-ZwjFuJ7ebpk-unsplash.jpg,1,NaN,,NaN,unchosen,1700,0,8,4,50,50,NaN,NaN,NaN
113,90251,0,114,2,2,1,gain6,no_gain4,F,L,35,21,body_parts,faces,Stimuli/Experimental_stims/body_parts/wc-so-KH4AAPjb-tI-unsplash.jpg,Stimuli/Experimental_stims/faces/leilani-angel-K84vnnzxmTQ-unsplash.jpg,1,NaN,,NaN,chosen,2700,0,8,4,50,50,NaN,NaN,NaN
114,90251,0,115,2,2,1,gain6,no_gain3,F,B,17,5,faces,outdoor_scenes,Stimuli/Experimental_stims/faces/good-faces-xmSWVeGEnJw-unsplash.jpg,Stimuli/Experimental_stims/outdoor_scenes/jeff-king-bJHWJeiHfHc-unsplash.jpg,1,NaN,,NaN,unchosen,1100,0,8,4,50,50,NaN,NaN,NaN
115,90251,0,116,2,2,0,no_gain6,gain4,I,K,8,39,outdoor_scenes,objects,Stimuli/Experimental_stims/outdoor_scenes/samsommer-vddccTqwal8-unsplash.jpg,Stimuli/Experimental_stims/objects/charlesdeluvio-1-nx1QR5dTE-unsplash.jpg,1,NaN,,NaN,chosen,1100,0,8,4,50,50,NaN,NaN,NaN
116,90251,0,117,2,2,0,no_gain1,gain3,G,D,43,37,objects,objects,Stimuli/Experimental_stims/objects/jonathan-greenaway-Y4hGgeiFn3s-unsplash.jpg,Stimuli/Experimental_stims/objects/alexander-andrews-VLGWE_SumrA-unsplash.jpg,1,NaN,,NaN,unchosen,2400,0,8,4,50,50,NaN,NaN,NaN
117,90251,0,118,2,2,1,gain3,no_gain6,D,I,23,8,faces,outdoor_scenes,Stimuli/Experimental_stims/faces/rikonavt-HQjfrvdTfak-unsplash.jpg,Stimuli/Experimental_stims/outdoor_scenes/samsommer-vddccTqwal8-unsplash.jpg,1,NaN,,NaN,chosen,3400,1,8,4,50,50,NaN,NaN,NaN
118,90251,0,119,2,2,1,gain3,no_gain3,D,B,23,13,faces,faces,Stimuli/Experimental_stims/faces/rikonavt-HQjfrvdTfak-unsplash.jpg,Stimuli/Experimental_stims/faces/daniel-rigdon-dXmXKPP2L4E-unsplash.jpg,1,NaN,,NaN,chosen,2000,0,8,4,50,50,NaN,NaN,NaN
119,90251,0,120,2,2,0,no_gain6,gain3,I,D,29,37,body_parts,objects,Stimuli/Experimental_stims/body_parts/manuel-schinner-ZwjFuJ7ebpk-unsplash.jpg,Stimuli/Experimental_stims/objects/alexander-andrews-VLGWE_SumrA-unsplash.jpg,1,NaN,,NaN,unchosen,2100,0,8,4,50,50,NaN,NaN,NaN
120,90251,0,121,2,2,0,no_gain2,gain6,J,F,15,17,faces,faces,Stimuli/Experimental_stims/faces/erik-lucatero-d2MSDujJl2g-unsplash.jpg,Stimuli/Experimental_stims/faces/good-faces-xmSWVeGEnJw-unsplash.jpg,1,NaN,,NaN,unchosen,2500,0,8,4,50,50,NaN,NaN,NaN
121,90251,0,122,2,2,1,gain5,no_gain4,C,L,2,24,outdoor_scenes,body_parts,Stimuli/Experimental_stims/outdoor_scenes/bruno-van-der-kraan-qez8mNJ3ilU-unsplash.jpg,Stimuli/Experimental_stims/body_parts/clay-banks-LjqARJaJotc-unsplash.jpg,1,NaN,,NaN,unchosen,1600,0,8,4,50,50,NaN,NaN,NaN
122,90251,0,123,2,2,1,gain2,no_gain4,A,L,45,21,objects,faces,Stimuli/Experimental_stims/objects/leohoho-rngTKHXumy0-unsplash.jpg,Stimuli/Experimental_stims/faces/leilani-angel-K84vnnzxmTQ-unsplash.jpg,1,NaN,,NaN,chosen,2400,0,8,4,50,50,NaN,NaN,NaN
123,90251,0,124,2,2,1,gain4,no_gain1,K,G,39,0,objects,outdoor_scenes,Stimuli/Experimental_stims/objects/charlesdeluvio-1-nx1QR5dTE-unsplash.jpg,Stimuli/Experimental_stims/outdoor_scenes/aleksandra-boguslawska-MS7KD9Ti7FQ-unsplash.jpg,1,NaN,,NaN,chosen,1300,0,8,4,50,50,NaN,NaN,NaN
124,90251,0,125,2,2,1,gain3,no_gain4,D,L,37,24,objects,body_parts,Stimuli/Experimental_stims/objects/alexander-andrews-VLGWE_SumrA-unsplash.jpg,Stimuli/Experimental_stims/body_parts/clay-banks-LjqARJaJotc-unsplash.jpg,1,NaN,,NaN,unchosen,1900,0,8,4,50,50,NaN,NaN,NaN
125,90251,0,126,2,2,1,gain2,no_gain1,A,G,45,0,objects,outdoor_scenes,Stimuli/Experimental_stims/objects/leohoho-rngTKHXumy0-unsplash.jpg,Stimuli/Experimental_stims/outdoor_scenes/aleksandra-boguslawska-MS7KD9Ti7FQ-unsplash.jpg,1,NaN,,NaN,chosen,1600,0,8,4,50,50,NaN,NaN,NaN
126,90251,0,127,2,2,0,no_gain2,gain5,J,C,42,30,objects,body_parts,Stimuli/Experimental_stims/objects/jess-bailey-nOeVi8DsN8U-unsplash.jpg,Stimuli/Experimental_stims/body_parts/mika-korhonen-Xodzxosar18-unsplash.jpg,1,NaN,,NaN,chosen,1100,0,8,4,50,50,NaN,NaN,NaN
127,90251,0,128,2,2,1,gain3,no_gain2,D,J,37,15,objects,faces,Stimuli/Experimental_stims/objects/alexander-andrews-VLGWE_SumrA-unsplash.jpg,Stimuli/Experimental_stims/faces/erik-lucatero-d2MSDujJl2g-unsplash.jpg,1,NaN,,NaN,unchosen,1200,0,8,4,50,50,NaN,NaN,NaN
128,90251,0,129,2,2,1,gain3,no_gain3,D,B,37,5,objects,outdoor_scenes,Stimuli/Experimental_stims/objects/alexander-andrews-VLGWE_SumrA-unsplash.jpg,Stimuli/Experimental_stims/outdoor_scenes/jeff-king-bJHWJeiHfHc-unsplash.jpg,1,NaN,,NaN,unchosen,1300,0,8,4,50,50,NaN,NaN,NaN
129,90251,0,130,2,2,1,gain4,no_gain4,K,L,39,21,objects,faces,Stimuli/Experimental_stims/objects/charlesdeluvio-1-nx1QR5dTE-unsplash.jpg,Stimuli/Experimental_stims/faces/leilani-angel-K84vnnzxmTQ-unsplash.jpg,1,NaN,,NaN,chosen,1000,0,8,4,50,50,NaN,NaN,NaN
130,90251,0,131,2,2,0,no_gain4,gain1,L,H,21,11,faces,outdoor_scenes,Stimuli/Experimental_stims/faces/leilani-angel-K84vnnzxmTQ-unsplash.jpg,Stimuli/Experimental_stims/outdoor_scenes/stephen-leonardi-gyIRjKPXupE-unsplash.jpg,1,NaN,,NaN,chosen,2900,0,8,4,50,50,NaN,NaN,NaN
131,90251,0,132,2,2,0,no_gain2,gain6,J,F,42,35,objects,body_parts,Stimuli/Experimental_stims/objects/jess-bailey-nOeVi8DsN8U-unsplash.jpg,Stimuli/Experimental_stims/body_parts/wc-so-KH4AAPjb-tI-unsplash.jpg,1,NaN,,NaN,chosen,2200,0,8,4,50,50,NaN,NaN,NaN
132,90251,0,133,2,2,0,no_gain3,gain2,B,A,5,7,outdoor_scenes,outdoor_scenes,Stimuli/Experimental_stims/outdoor_scenes/jeff-king-bJHWJeiHfHc-unsplash.jpg,Stimuli/Experimental_stims/outdoor_scenes/petr-vysohlid-9fqwGqGLUxc-unsplash.jpg,1,NaN,,NaN,unchosen,3200,1,8,4,50,50,NaN,NaN,NaN
133,90251,0,134,2,2,1,gain1,no_gain3,H,B,18,5,faces,outdoor_scenes,Stimuli/Experimental_stims/faces/jessica-radanavong-mrYkTuAesKE-unsplash.jpg,Stimuli/Experimental_stims/outdoor_scenes/jeff-king-bJHWJeiHfHc-unsplash.jpg,1,NaN,,NaN,unchosen,2600,0,8,4,50,50,NaN,NaN,NaN
134,90251,0,135,2,2,0,no_gain6,gain6,I,F,29,17,body_parts,faces,Stimuli/Experimental_stims/body_parts/manuel-schinner-ZwjFuJ7ebpk-unsplash.jpg,Stimuli/Experimental_stims/faces/good-faces-xmSWVeGEnJw-unsplash.jpg,1,NaN,,NaN,unchosen,1200,0,8,4,50,50,NaN,NaN,NaN
135,90251,0,136,2,2,0,no_gain4,gain3,L,D,21,23,faces,faces,Stimuli/Experimental_stims/faces/leilani-angel-K84vnnzxmTQ-unsplash.jpg,Stimuli/Experimental_stims/faces/rikonavt-HQjfrvdTfak-unsplash.jpg,1,NaN,,NaN,chosen,1100,0,8,4,50,50,NaN,NaN,NaN
136,90251,0,137,2,2,1,gain5,no_gain6,C,I,2,29,outdoor_scenes,body_parts,Stimuli/Experimental_stims/outdoor_scenes/bruno-van-der-kraan-qez8mNJ3ilU-unsplash.jpg,Stimuli/Experimental_stims/body_parts/manuel-schinner-ZwjFuJ7ebpk-unsplash.jpg,1,NaN,,NaN,unchosen,2000,0,8,4,50,50,NaN,NaN,NaN
137,90251,0,138,2,2,0,no_gain6,gain2,I,A,8,45,outdoor_scenes,objects,Stimuli/Experimental_stims/outdoor_scenes/samsommer-vddccTqwal8-unsplash.jpg,Stimuli/Experimental_stims/objects/leohoho-rngTKHXumy0-unsplash.jpg,1,NaN,,NaN,chosen,4100,1,8,4,50,50,NaN,NaN,NaN
138,90251,0,139,2,2,0,no_gain2,gain4,J,K,15,34,faces,body_parts,Stimuli/Experimental_stims/faces/erik-lucatero-d2MSDujJl2g-unsplash.jpg,Stimuli/Experimental_stims/body_parts/wagner-santos-mBWMvIuVnso-unsplash.jpg,1,NaN,,NaN,unchosen,1700,0,8,4,50,50,NaN,NaN,NaN
139,90251,0,140,2,2,0,no_gain2,gain2,J,A,15,7,faces,outdoor_scenes,Stimuli/Experimental_stims/faces/erik-lucatero-d2MSDujJl2g-unsplash.jpg,Stimuli/Experimental_stims/outdoor_scenes/petr-vysohlid-9fqwGqGLUxc-unsplash.jpg,1,NaN,,NaN,unchosen,1200,0,8,4,50,50,NaN,NaN,NaN
140,90251,0,141,2,2,1,gain6,no_gain3,F,B,35,13,body_parts,faces,Stimuli/Experimental_stims/body_parts/wc-so-KH4AAPjb-tI-unsplash.jpg,Stimuli/Experimental_stims/faces/daniel-rigdon-dXmXKPP2L4E-unsplash.jpg,1,NaN,,NaN,chosen,1000,0,8,4,50,50,NaN,NaN,NaN
141,90251,0,142,2,2,0,no_gain5,gain5,E,C,26,30,body_parts,body_parts,Stimuli/Experimental_stims/body_parts/engin-akyurt-x_3gyC42btc-unsplash.jpg,Stimuli/Experimental_stims/body_parts/mika-korhonen-Xodzxosar18-unsplash.jpg,1,NaN,,NaN,chosen,1800,0,8,4,50,50,NaN,NaN,NaN
142,90251,0,143,2,2,0,no_gain5,gain6,E,F,26,35,body_parts,body_parts,Stimuli/Experimental_stims/body_parts/engin-akyurt-x_3gyC42btc-unsplash.jpg,Stimuli/Experimental_stims/body_parts/wc-so-KH4AAPjb-tI-unsplash.jpg,1,NaN,,NaN,chosen,3500,1,8,4,50,50,NaN,NaN,NaN
143,90251,0,144,2,2,1,gain6,no_gain4,F,L,17,24,faces,body_parts,Stimuli/Experimental_stims/faces/good-faces-xmSWVeGEnJw-unsplash.jpg,Stimuli/Experimental_stims/body_parts/clay-banks-LjqARJaJotc-unsplash.jpg,1,NaN,,NaN,unchosen,2700,0,8,4,50,50,NaN,NaN,NaN
144,90251,0,145,2,2,1,gain6,no_gain6,F,I,35,8,body_parts,outdoor_scenes,Stimuli/Experimental_stims/body_parts/wc-so-KH4AAPjb-tI-unsplash.jpg,Stimuli/Experimental_stims/outdoor_scenes/samsommer-vddccTqwal8-unsplash.jpg,1,NaN,,NaN,chosen,2400,0,8,4,50,50,NaN,NaN,NaN
145,90251,0,146,2,2,1,gain3,no_gain5,D,E,37,41,objects,objects,Stimuli/Experimental_stims/objects/alexander-andrews-VLGWE_SumrA-unsplash.jpg,Stimuli/Experimental_stims/objects/insung-yoon-w2JtIQQXoRU-unsplash.jpg,1,NaN,,NaN,unchosen,1400,0,8,4,50,50,NaN,NaN,NaN
146,90251,0,147,2,2,1,gain5,no_gain4,C,L,30,21,body_parts,faces,Stimuli/Experimental_stims/body_parts/mika-korhonen-Xodzxosar18-unsplash.jpg,Stimuli/Experimental_stims/faces/leilani-angel-K84vnnzxmTQ-unsplash.jpg,1,NaN,,NaN,chosen,1200,0,8,4,50,50,NaN,NaN,NaN
147,90251,0,148,2,2,0,no_gain5,gain3,E,D,26,23,body_parts,faces,Stimuli/Experimental_stims/body_parts/engin-akyurt-x_3gyC42btc-unsplash.jpg,Stimuli/Experimental_stims/faces/rikonavt-HQjfrvdTfak-unsplash.jpg,1,NaN,,NaN,chosen,3300,1,8,4,50,50,NaN,NaN,NaN
148,90251,0,149,3,3,1,gain5,no_gain3,C,B,30,13,body_parts,faces,Stimuli/Experimental_stims/body_parts/mika-korhonen-Xodzxosar18-unsplash.jpg,Stimuli/Experimental_stims/faces/daniel-rigdon-dXmXKPP2L4E-unsplash.jpg,1,NaN,,NaN,chosen,3900,1,7,4,50,50,NaN,NaN,NaN
149,90251,0,150,3,3,0,no_gain3,gain4,B,K,13,39,faces,objects,Stimuli/Experimental_stims/faces/daniel-rigdon-dXmXKPP2L4E-unsplash.jpg,Stimuli/Experimental_stims/objects/charlesdeluvio-1-nx1QR5dTE-unsplash.jpg,1,NaN,,NaN,chosen,1200,0,7,4,50,50,NaN,NaN,NaN
150,90251,0,151,3,3,1,gain6,no_gain3,F,B,35,13,body_parts,faces,Stimuli/Experimental_stims/body_parts/wc-so-KH4AAPjb-tI-unsplash.jpg,Stimuli/Experimental_stims/faces/daniel-rigdon-dXmXKPP2L4E-unsplash.jpg,1,NaN,,NaN,chosen,1500,0,7,4,50,50,NaN,NaN,NaN
151,90251,0,152,3,3,1,gain4,no_gain4,K,L,34,24,body_parts,body_parts,Stimuli/Experimental_stims/body_parts/wagner-santos-mBWMvIuVnso-unsplash.jpg,Stimuli/Experimental_stims/body_parts/clay-banks-LjqARJaJotc-unsplash.jpg,1,NaN,,NaN,unchosen,2700,0,7,4,50,50,NaN,NaN,NaN
152,90251,0,153,3,3,1,gain5,no_gain5,C,E,2,41,outdoor_scenes,objects,Stimuli/Experimental_stims/outdoor_scenes/bruno-van-der-kraan-qez8mNJ3ilU-unsplash.jpg,Stimuli/Experimental_stims/objects/insung-yoon-w2JtIQQXoRU-unsplash.jpg,1,NaN,,NaN,unchosen,1300,0,7,4,50,50,NaN,NaN,NaN
153,90251,0,154,3,3,0,no_gain6,gain1,I,H,8,11,outdoor_scenes,outdoor_scenes,Stimuli/Experimental_stims/outdoor_scenes/samsommer-vddccTqwal8-unsplash.jpg,Stimuli/Experimental_stims/outdoor_scenes/stephen-leonardi-gyIRjKPXupE-unsplash.jpg,1,NaN,,NaN,chosen,1000,0,7,4,50,50,NaN,NaN,NaN
154,90251,0,155,3,3,1,gain1,no_gain3,H,B,11,13,outdoor_scenes,faces,Stimuli/Experimental_stims/outdoor_scenes/stephen-leonardi-gyIRjKPXupE-unsplash.jpg,Stimuli/Experimental_stims/faces/daniel-rigdon-dXmXKPP2L4E-unsplash.jpg,1,NaN,,NaN,chosen,3000,1,7,4,50,50,NaN,NaN,NaN
155,90251,0,156,3,3,0,no_gain2,gain3,J,D,15,37,faces,objects,Stimuli/Experimental_stims/faces/erik-lucatero-d2MSDujJl2g-unsplash.jpg,Stimuli/Experimental_stims/objects/alexander-andrews-VLGWE_SumrA-unsplash.jpg,1,NaN,,NaN,unchosen,2800,0,7,4,50,50,NaN,NaN,NaN
156,90251,0,157,3,3,1,gain3,no_gain5,D,E,23,26,faces,body_parts,Stimuli/Experimental_stims/faces/rikonavt-HQjfrvdTfak-unsplash.jpg,Stimuli/Experimental_stims/body_parts/engin-akyurt-x_3gyC42btc-unsplash.jpg,1,NaN,,NaN,chosen,1400,0,7,4,50,50,NaN,NaN,NaN
157,90251,0,158,3,3,1,gain1,no_gain1,H,G,11,0,outdoor_scenes,outdoor_scenes,Stimuli/Experimental_stims/outdoor_scenes/stephen-leonardi-gyIRjKPXupE-unsplash.jpg,Stimuli/Experimental_stims/outdoor_scenes/aleksandra-boguslawska-MS7KD9Ti7FQ-unsplash.jpg,1,NaN,,NaN,chosen,2500,0,7,4,50,50,NaN,NaN,NaN
158,90251,0,159,3,3,0,no_gain3,gain2,B,A,5,7,outdoor_scenes,outdoor_scenes,Stimuli/Experimental_stims/outdoor_scenes/jeff-king-bJHWJeiHfHc-unsplash.jpg,Stimuli/Experimental_stims/outdoor_scenes/petr-vysohlid-9fqwGqGLUxc-unsplash.jpg,1,NaN,,NaN,unchosen,1600,0,7,4,50,50,NaN,NaN,NaN
159,90251,0,160,3,3,1,gain2,no_gain4,A,L,7,24,outdoor_scenes,body_parts,Stimuli/Experimental_stims/outdoor_scenes/petr-vysohlid-9fqwGqGLUxc-unsplash.jpg,Stimuli/Experimental_stims/body_parts/clay-banks-LjqARJaJotc-unsplash.jpg,1,NaN,,NaN,unchosen,3600,1,7,4,50,50,NaN,NaN,NaN
160,90251,0,161,3,3,0,no_gain4,gain5,L,C,24,2,body_parts,outdoor_scenes,Stimuli/Experimental_stims/body_parts/clay-banks-LjqARJaJotc-unsplash.jpg,Stimuli/Experimental_stims/outdoor_scenes/bruno-van-der-kraan-qez8mNJ3ilU-unsplash.jpg,1,NaN,,NaN,unchosen,1200,0,7,4,50,50,NaN,NaN,NaN
161,90251,0,162,3,3,0,no_gain5,gain4,E,K,26,39,body_parts,objects,Stimuli/Experimental_stims/body_parts/engin-akyurt-x_3gyC42btc-unsplash.jpg,Stimuli/Experimental_stims/objects/charlesdeluvio-1-nx1QR5dTE-unsplash.jpg,1,NaN,,NaN,chosen,1800,0,7,4,50,50,NaN,NaN,NaN
162,90251,0,163,3,3,1,gain2,no_gain5,A,E,45,26,objects,body_parts,Stimuli/Experimental_stims/objects/leohoho-rngTKHXumy0-unsplash.jpg,Stimuli/Experimental_stims/body_parts/engin-akyurt-x_3gyC42btc-unsplash.jpg,1,NaN,,NaN,chosen,2800,0,7,4,50,50,NaN,NaN,NaN
163,90251,0,164,3,3,1,gain5,no_gain6,C,I,2,29,outdoor_scenes,body_parts,Stimuli/Experimental_stims/outdoor_scenes/bruno-van-der-kraan-qez8mNJ3ilU-unsplash.jpg,Stimuli/Experimental_stims/body_parts/manuel-schinner-ZwjFuJ7ebpk-unsplash.jpg,1,NaN,,NaN,unchosen,2100,0,7,4,50,50,NaN,NaN,NaN
164,90251,0,165,3,3,0,no_gain4,gain3,L,D,21,23,faces,faces,Stimuli/Experimental_stims/faces/leilani-angel-K84vnnzxmTQ-unsplash.jpg,Stimuli/Experimental_stims/faces/rikonavt-HQjfrvdTfak-unsplash.jpg,1,NaN,,NaN,chosen,1500,0,7,4,50,50,NaN,NaN,NaN
165,90251,0,166,3,3,0,no_gain1,gain5,G,C,0,30,outdoor_scenes,body_parts,Stimuli/Experimental_stims/outdoor_scenes/aleksandra-boguslawska-MS7KD9Ti7FQ-unsplash.jpg,Stimuli/Experimental_stims/body_parts/mika-korhonen-Xodzxosar18-unsplash.jpg,1,NaN,,NaN,chosen,2100,0,7,4,50,50,NaN,NaN,NaN
166,90251,0,167,3,3,0,no_gain3,gain2,B,A,13,45,faces,objects,Stimuli/Experimental_stims/faces/daniel-rigdon-dXmXKPP2L4E-unsplash.jpg,Stimuli/Experimental_stims/objects/leohoho-rngTKHXumy0-unsplash.jpg,1,NaN,,NaN,chosen,3600,1,7,4,50,50,NaN,NaN,NaN
167,90251,0,168,3,3,1,gain6,no_gain4,F,L,17,24,faces,body_parts,Stimuli/Experimental_stims/faces/good-faces-xmSWVeGEnJw-unsplash.jpg,Stimuli/Experimental_stims/body_parts/clay-banks-LjqARJaJotc-unsplash.jpg,1,NaN,,NaN,unchosen,1300,0,7,4,50,50,NaN,NaN,NaN
168,90251,0,169,3,3,0,no_gain4,gain2,L,A,21,45,faces,objects,Stimuli/Experimental_stims/faces/leilani-angel-K84vnnzxmTQ-unsplash.jpg,Stimuli/Experimental_stims/objects/leohoho-rngTKHXumy0-unsplash.jpg,1,NaN,,NaN,chosen,2700,0,7,4,50,50,NaN,NaN,NaN
169,90251,0,170,3,3,1,gain1,no_gain4,H,L,18,24,faces,body_parts,Stimuli/Experimental_stims/faces/jessica-radanavong-mrYkTuAesKE-unsplash.jpg,Stimuli/Experimental_stims/body_parts/clay-banks-LjqARJaJotc-unsplash.jpg,1,NaN,,NaN,unchosen,1400,0,7,4,50,50,NaN,NaN,NaN
170,90251,0,171,3,3,0,no_gain2,gain4,J,K,15,34,faces,body_parts,Stimuli/Experimental_stims/faces/erik-lucatero-d2MSDujJl2g-unsplash.jpg,Stimuli/Experimental_stims/body_parts/wagner-santos-mBWMvIuVnso-unsplash.jpg,1,NaN,,NaN,unchosen,2300,0,7,4,50,50,NaN,NaN,NaN
171,90251,0,172,3,3,0,no_gain1,gain1,G,H,43,18,objects,faces,Stimuli/Experimental_stims/objects/jonathan-greenaway-Y4hGgeiFn3s-unsplash.jpg,Stimuli/Experimental_stims/faces/jessica-radanavong-mrYkTuAesKE-unsplash.jpg,1,NaN,,NaN,unchosen,3400,1,7,4,50,50,NaN,NaN,NaN
172,90251,0,173,3,3,1,gain4,no_gain2,K,J,39,42,objects,objects,Stimuli/Experimental_stims/objects/charlesdeluvio-1-nx1QR5dTE-unsplash.jpg,Stimuli/Experimental_stims/objects/jess-bailey-nOeVi8DsN8U-unsplash.jpg,1,NaN,,NaN,chosen,1200,0,7,4,50,50,NaN,NaN,NaN
173,90251,0,174,3,3,0,no_gain6,gain6,I,F,29,17,body_parts,faces,Stimuli/Experimental_stims/body_parts/manuel-schinner-ZwjFuJ7ebpk-unsplash.jpg,Stimuli/Experimental_stims/faces/good-faces-xmSWVeGEnJw-unsplash.jpg,1,NaN,,NaN,unchosen,2500,0,7,4,50,50,NaN,NaN,NaN
174,90251,0,175,3,3,1,gain3,no_gain3,D,B,23,13,faces,faces,Stimuli/Experimental_stims/faces/rikonavt-HQjfrvdTfak-unsplash.jpg,Stimuli/Experimental_stims/faces/daniel-rigdon-dXmXKPP2L4E-unsplash.jpg,1,NaN,,NaN,chosen,2600,0,7,4,50,50,NaN,NaN,NaN
175,90251,0,176,3,3,0,no_gain2,gain6,J,F,15,17,faces,faces,Stimuli/Experimental_stims/faces/erik-lucatero-d2MSDujJl2g-unsplash.jpg,Stimuli/Experimental_stims/faces/good-faces-xmSWVeGEnJw-unsplash.jpg,1,NaN,,NaN,unchosen,2100,0,7,4,50,50,NaN,NaN,NaN
176,90251,0,177,3,3,1,gain1,no_gain5,H,E,11,26,outdoor_scenes,body_parts,Stimuli/Experimental_stims/outdoor_scenes/stephen-leonardi-gyIRjKPXupE-unsplash.jpg,Stimuli/Experimental_stims/body_parts/engin-akyurt-x_3gyC42btc-unsplash.jpg,1,NaN,,NaN,chosen,3300,1,7,4,50,50,NaN,NaN,NaN
177,90251,0,178,3,3,0,no_gain1,gain5,G,C,43,2,objects,outdoor_scenes,Stimuli/Experimental_stims/objects/jonathan-greenaway-Y4hGgeiFn3s-unsplash.jpg,Stimuli/Experimental_stims/outdoor_scenes/bruno-van-der-kraan-qez8mNJ3ilU-unsplash.jpg,1,NaN,,NaN,unchosen,1200,0,7,4,50,50,NaN,NaN,NaN
178,90251,0,179,3,3,1,gain2,no_gain6,A,I,45,8,objects,outdoor_scenes,Stimuli/Experimental_stims/objects/leohoho-rngTKHXumy0-unsplash.jpg,Stimuli/Experimental_stims/outdoor_scenes/samsommer-vddccTqwal8-unsplash.jpg,1,NaN,,NaN,chosen,1500,0,7,4,50,50,NaN,NaN,NaN
179,90251,0,180,3,3,1,gain3,no_gain6,D,I,37,29,objects,body_parts,Stimuli/Experimental_stims/objects/alexander-andrews-VLGWE_SumrA-unsplash.jpg,Stimuli/Experimental_stims/body_parts/manuel-schinner-ZwjFuJ7ebpk-unsplash.jpg,1,NaN,,NaN,unchosen,1700,0,7,4,50,50,NaN,NaN,NaN
180,90251,0,181,3,3,0,no_gain5,gain1,E,H,41,18,objects,faces,Stimuli/Experimental_stims/objects/insung-yoon-w2JtIQQXoRU-unsplash.jpg,Stimuli/Experimental_stims/faces/jessica-radanavong-mrYkTuAesKE-unsplash.jpg,1,NaN,,NaN,unchosen,1500,0,7,4,50,50,NaN,NaN,NaN
181,90251,0,182,3,3,1,gain2,no_gain6,A,I,7,29,outdoor_scenes,body_parts,Stimuli/Experimental_stims/outdoor_scenes/petr-vysohlid-9fqwGqGLUxc-unsplash.jpg,Stimuli/Experimental_stims/body_parts/manuel-schinner-ZwjFuJ7ebpk-unsplash.jpg,1,NaN,,NaN,unchosen,1300,0,7,4,50,50,NaN,NaN,NaN
182,90251,0,183,3,3,1,gain1,no_gain4,H,L,11,21,outdoor_scenes,faces,Stimuli/Experimental_stims/outdoor_scenes/stephen-leonardi-gyIRjKPXupE-unsplash.jpg,Stimuli/Experimental_stims/faces/leilani-angel-K84vnnzxmTQ-unsplash.jpg,1,NaN,,NaN,chosen,2000,0,7,4,50,50,NaN,NaN,NaN
183,90251,0,184,3,3,0,no_gain1,gain6,G,F,43,17,objects,faces,Stimuli/Experimental_stims/objects/jonathan-greenaway-Y4hGgeiFn3s-unsplash.jpg,Stimuli/Experimental_stims/faces/good-faces-xmSWVeGEnJw-unsplash.jpg,1,NaN,,NaN,unchosen,1500,0,7,4,50,50,NaN,NaN,NaN
184,90251,0,185,3,3,1,gain5,no_gain5,C,E,30,26,body_parts,body_parts,Stimuli/Experimental_stims/body_parts/mika-korhonen-Xodzxosar18-unsplash.jpg,Stimuli/Experimental_stims/body_parts/engin-akyurt-x_3gyC42btc-unsplash.jpg,1,NaN,,NaN,chosen,2200,0,7,4,50,50,NaN,NaN,NaN
185,90251,0,186,3,3,1,gain6,no_gain1,F,G,35,0,body_parts,outdoor_scenes,Stimuli/Experimental_stims/body_parts/wc-so-KH4AAPjb-tI-unsplash.jpg,Stimuli/Experimental_stims/outdoor_scenes/aleksandra-boguslawska-MS7KD9Ti7FQ-unsplash.jpg,1,NaN,,NaN,chosen,1300,0,7,4,50,50,NaN,NaN,NaN
186,90251,0,187,3,3,0,no_gain6,gain4,I,K,8,39,outdoor_scenes,objects,Stimuli/Experimental_stims/outdoor_scenes/samsommer-vddccTqwal8-unsplash.jpg,Stimuli/Experimental_stims/objects/charlesdeluvio-1-nx1QR5dTE-unsplash.jpg,1,NaN,,NaN,chosen,1000,0,7,4,50,50,NaN,NaN,NaN
187,90251,0,188,3,3,1,gain1,no_gain2,H,J,18,15,faces,faces,Stimuli/Experimental_stims/faces/jessica-radanavong-mrYkTuAesKE-unsplash.jpg,Stimuli/Experimental_stims/faces/erik-lucatero-d2MSDujJl2g-unsplash.jpg,1,NaN,,NaN,unchosen,3000,1,7,4,50,50,NaN,NaN,NaN
188,90251,0,189,3,3,0,no_gain2,gain5,J,C,15,2,faces,outdoor_scenes,Stimuli/Experimental_stims/faces/erik-lucatero-d2MSDujJl2g-unsplash.jpg,Stimuli/Experimental_stims/outdoor_scenes/bruno-van-der-kraan-qez8mNJ3ilU-unsplash.jpg,1,NaN,,NaN,unchosen,1300,0,7,4,50,50,NaN,NaN,NaN
189,90251,0,190,3,3,1,gain1,no_gain3,H,B,18,5,faces,outdoor_scenes,Stimuli/Experimental_stims/faces/jessica-radanavong-mrYkTuAesKE-unsplash.jpg,Stimuli/Experimental_stims/outdoor_scenes/jeff-king-bJHWJeiHfHc-unsplash.jpg,1,NaN,,NaN,unchosen,2200,0,7,4,50,50,NaN,NaN,NaN
190,90251,0,191,3,3,0,no_gain1,gain2,G,A,0,45,outdoor_scenes,objects,Stimuli/Experimental_stims/outdoor_scenes/aleksandra-boguslawska-MS7KD9Ti7FQ-unsplash.jpg,Stimuli/Experimental_stims/objects/leohoho-rngTKHXumy0-unsplash.jpg,1,NaN,,NaN,chosen,1100,0,7,4,50,50,NaN,NaN,NaN
191,90251,0,192,3,3,0,no_gain3,gain5,B,C,5,2,outdoor_scenes,outdoor_scenes,Stimuli/Experimental_stims/outdoor_scenes/jeff-king-bJHWJeiHfHc-unsplash.jpg,Stimuli/Experimental_stims/outdoor_scenes/bruno-van-der-kraan-qez8mNJ3ilU-unsplash.jpg,1,NaN,,NaN,unchosen,2100,0,7,4,50,50,NaN,NaN,NaN
192,90251,0,193,3,3,0,no_gain2,gain6,J,F,42,35,objects,body_parts,Stimuli/Experimental_stims/objects/jess-bailey-nOeVi8DsN8U-unsplash.jpg,Stimuli/Experimental_stims/body_parts/wc-so-KH4AAPjb-tI-unsplash.jpg,1,NaN,,NaN,chosen,2300,0,7,4,50,50,NaN,NaN,NaN
193,90251,0,194,3,3,0,no_gain4,gain5,L,C,21,30,faces,body_parts,Stimuli/Experimental_stims/faces/leilani-angel-K84vnnzxmTQ-unsplash.jpg,Stimuli/Experimental_stims/body_parts/mika-korhonen-Xodzxosar18-unsplash.jpg,1,NaN,,NaN,chosen,3900,1,7,4,50,50,NaN,NaN,NaN
194,90251,0,195,3,3,0,no_gain4,gain6,L,F,21,35,faces,body_parts,Stimuli/Experimental_stims/faces/leilani-angel-K84vnnzxmTQ-unsplash.jpg,Stimuli/Experimental_stims/body_parts/wc-so-KH4AAPjb-tI-unsplash.jpg,1,NaN,,NaN,chosen,1700,0,7,4,50,50,NaN,NaN,NaN
195,90251,0,196,3,3,1,gain4,no_gain3,K,B,34,5,body_parts,outdoor_scenes,Stimuli/Experimental_stims/body_parts/wagner-santos-mBWMvIuVnso-unsplash.jpg,Stimuli/Experimental_stims/outdoor_scenes/jeff-king-bJHWJeiHfHc-unsplash.jpg,1,NaN,,NaN,unchosen,1200,0,7,4,50,50,NaN,NaN,NaN
196,90251,0,197,3,3,0,no_gain1,gain4,G,K,43,34,objects,body_parts,Stimuli/Experimental_stims/objects/jonathan-greenaway-Y4hGgeiFn3s-unsplash.jpg,Stimuli/Experimental_stims/body_parts/wagner-santos-mBWMvIuVnso-unsplash.jpg,1,NaN,,NaN,unchosen,1200,0,7,4,50,50,NaN,NaN,NaN
197,90251,0,198,3,3,1,gain2,no_gain2,A,J,7,15,outdoor_scenes,faces,Stimuli/Experimental_stims/outdoor_scenes/petr-vysohlid-9fqwGqGLUxc-unsplash.jpg,Stimuli/Experimental_stims/faces/erik-lucatero-d2MSDujJl2g-unsplash.jpg,1,NaN,,NaN,unchosen,1900,0,7,4,50,50,NaN,NaN,NaN
198,90251,0,199,3,3,0,no_gain6,gain3,I,D,8,23,outdoor_scenes,faces,Stimuli/Experimental_stims/outdoor_scenes/samsommer-vddccTqwal8-unsplash.jpg,Stimuli/Experimental_stims/faces/rikonavt-HQjfrvdTfak-unsplash.jpg,1,NaN,,NaN,chosen,1000,0,7,4,50,50,NaN,NaN,NaN
199,90251,0,200,3,3,0,no_gain4,gain4,L,K,21,39,faces,objects,Stimuli/Experimental_stims/faces/leilani-angel-K84vnnzxmTQ-unsplash.jpg,Stimuli/Experimental_stims/objects/charlesdeluvio-1-nx1QR5dTE-unsplash.jpg,1,NaN,,NaN,chosen,3900,1,7,4,50,50,NaN,NaN,NaN
200,90251,0,201,3,3,0,no_gain6,gain5,I,C,8,30,outdoor_scenes,body_parts,Stimuli/Experimental_stims/outdoor_scenes/samsommer-vddccTqwal8-unsplash.jpg,Stimuli/Experimental_stims/body_parts/mika-korhonen-Xodzxosar18-unsplash.jpg,1,NaN,,NaN,chosen,2100,0,7,4,50,50,NaN,NaN,NaN
201,90251,0,202,3,3,1,gain6,no_gain5,F,E,17,41,faces,objects,Stimuli/Experimental_stims/faces/good-faces-xmSWVeGEnJw-unsplash.jpg,Stimuli/Experimental_stims/objects/insung-yoon-w2JtIQQXoRU-unsplash.jpg,1,NaN,,NaN,unchosen,1300,0,7,4,50,50,NaN,NaN,NaN
202,90251,0,203,3,3,0,no_gain2,gain5,J,C,42,30,objects,body_parts,Stimuli/Experimental_stims/objects/jess-bailey-nOeVi8DsN8U-unsplash.jpg,Stimuli/Experimental_stims/body_parts/mika-korhonen-Xodzxosar18-unsplash.jpg,1,NaN,,NaN,chosen,1800,0,7,4,50,50,NaN,NaN,NaN
203,90251,0,204,3,3,1,gain4,no_gain1,K,G,39,0,objects,outdoor_scenes,Stimuli/Experimental_stims/objects/charlesdeluvio-1-nx1QR5dTE-unsplash.jpg,Stimuli/Experimental_stims/outdoor_scenes/aleksandra-boguslawska-MS7KD9Ti7FQ-unsplash.jpg,1,NaN,,NaN,chosen,1900,0,7,4,50,50,NaN,NaN,NaN
204,90251,0,205,3,3,1,gain6,no_gain3,F,B,17,5,faces,outdoor_scenes,Stimuli/Experimental_stims/faces/good-faces-xmSWVeGEnJw-unsplash.jpg,Stimuli/Experimental_stims/outdoor_scenes/jeff-king-bJHWJeiHfHc-unsplash.jpg,1,NaN,,NaN,unchosen,2600,0,7,4,50,50,NaN,NaN,NaN
205,90251,0,206,3,3,1,gain4,no_gain6,K,I,34,29,body_parts,body_parts,Stimuli/Experimental_stims/body_parts/wagner-santos-mBWMvIuVnso-unsplash.jpg,Stimuli/Experimental_stims/body_parts/manuel-schinner-ZwjFuJ7ebpk-unsplash.jpg,1,NaN,,NaN,unchosen,2400,0,7,4,50,50,NaN,NaN,NaN
206,90251,0,207,3,3,0,no_gain5,gain4,E,K,41,34,objects,body_parts,Stimuli/Experimental_stims/objects/insung-yoon-w2JtIQQXoRU-unsplash.jpg,Stimuli/Experimental_stims/body_parts/wagner-santos-mBWMvIuVnso-unsplash.jpg,1,NaN,,NaN,unchosen,2500,0,7,4,50,50,NaN,NaN,NaN
207,90251,0,208,3,3,0,no_gain5,gain6,E,F,26,35,body_parts,body_parts,Stimuli/Experimental_stims/body_parts/engin-akyurt-x_3gyC42btc-unsplash.jpg,Stimuli/Experimental_stims/body_parts/wc-so-KH4AAPjb-tI-unsplash.jpg,1,NaN,,NaN,chosen,2900,1,7,4,50,50,NaN,NaN,NaN
208,90251,0,209,3,3,0,no_gain4,gain3,L,D,24,37,body_parts,objects,Stimuli/Experimental_stims/body_parts/clay-banks-LjqARJaJotc-unsplash.jpg,Stimuli/Experimental_stims/objects/alexander-andrews-VLGWE_SumrA-unsplash.jpg,1,NaN,,NaN,unchosen,1000,0,7,4,50,50,NaN,NaN,NaN
209,90251,0,210,3,3,0,no_gain1,gain3,G,D,0,23,outdoor_scenes,faces,Stimuli/Experimental_stims/outdoor_scenes/aleksandra-boguslawska-MS7KD9Ti7FQ-unsplash.jpg,Stimuli/Experimental_stims/faces/rikonavt-HQjfrvdTfak-unsplash.jpg,1,NaN,,NaN,chosen,1500,0,7,4,50,50,NaN,NaN,NaN
210,90251,0,211,3,3,1,gain3,no_gain3,D,B,37,5,objects,outdoor_scenes,Stimuli/Experimental_stims/objects/alexander-andrews-VLGWE_SumrA-unsplash.jpg,Stimuli/Experimental_stims/outdoor_scenes/jeff-king-bJHWJeiHfHc-unsplash.jpg,1,NaN,,NaN,unchosen,2000,0,7,4,50,50,NaN,NaN,NaN
211,90251,0,212,3,3,1,gain1,no_gain6,H,I,18,29,faces,body_parts,Stimuli/Experimental_stims/faces/jessica-radanavong-mrYkTuAesKE-unsplash.jpg,Stimuli/Experimental_stims/body_parts/manuel-schinner-ZwjFuJ7ebpk-unsplash.jpg,1,NaN,,NaN,unchosen,1400,0,7,4,50,50,NaN,NaN,NaN
212,90251,0,213,3,3,0,no_gain5,gain2,E,A,41,7,objects,outdoor_scenes,Stimuli/Experimental_stims/objects/insung-yoon-w2JtIQQXoRU-unsplash.jpg,Stimuli/Experimental_stims/outdoor_scenes/petr-vysohlid-9fqwGqGLUxc-unsplash.jpg,1,NaN,,NaN,unchosen,1800,0,7,4,50,50,NaN,NaN,NaN
213,90251,0,214,3,3,1,gain6,no_gain6,F,I,35,8,body_parts,outdoor_scenes,Stimuli/Experimental_stims/body_parts/wc-so-KH4AAPjb-tI-unsplash.jpg,Stimuli/Experimental_stims/outdoor_scenes/samsommer-vddccTqwal8-unsplash.jpg,1,NaN,,NaN,chosen,2500,0,7,4,50,50,NaN,NaN,NaN
214,90251,0,215,3,3,1,gain1,no_gain2,H,J,11,42,outdoor_scenes,objects,Stimuli/Experimental_stims/outdoor_scenes/stephen-leonardi-gyIRjKPXupE-unsplash.jpg,Stimuli/Experimental_stims/objects/jess-bailey-nOeVi8DsN8U-unsplash.jpg,1,NaN,,NaN,chosen,1600,0,7,4,50,50,NaN,NaN,NaN
215,90251,0,216,3,3,0,no_gain1,gain2,G,A,43,7,objects,outdoor_scenes,Stimuli/Experimental_stims/objects/jonathan-greenaway-Y4hGgeiFn3s-unsplash.jpg,Stimuli/Experimental_stims/outdoor_scenes/petr-vysohlid-9fqwGqGLUxc-unsplash.jpg,1,NaN,,NaN,unchosen,3700,1,7,4,50,50,NaN,NaN,NaN
216,90251,0,217,3,3,0,no_gain5,gain3,E,D,41,37,objects,objects,Stimuli/Experimental_stims/objects/insung-yoon-w2JtIQQXoRU-unsplash.jpg,Stimuli/Experimental_stims/objects/alexander-andrews-VLGWE_SumrA-unsplash.jpg,1,NaN,,NaN,unchosen,1200,0,7,4,50,50,NaN,NaN,NaN
217,90251,0,218,3,3,1,gain3,no_gain2,D,J,23,42,faces,objects,Stimuli/Experimental_stims/faces/rikonavt-HQjfrvdTfak-unsplash.jpg,Stimuli/Experimental_stims/objects/jess-bailey-nOeVi8DsN8U-unsplash.jpg,1,NaN,,NaN,chosen,1200,0,7,4,50,50,NaN,NaN,NaN
218,90251,0,219,3,3,1,gain3,no_gain1,D,G,37,43,objects,objects,Stimuli/Experimental_stims/objects/alexander-andrews-VLGWE_SumrA-unsplash.jpg,Stimuli/Experimental_stims/objects/jonathan-greenaway-Y4hGgeiFn3s-unsplash.jpg,1,NaN,,NaN,unchosen,1100,0,7,4,50,50,NaN,NaN,NaN
219,90251,0,220,3,3,1,gain2,no_gain2,A,J,45,42,objects,objects,Stimuli/Experimental_stims/objects/leohoho-rngTKHXumy0-unsplash.jpg,Stimuli/Experimental_stims/objects/jess-bailey-nOeVi8DsN8U-unsplash.jpg,1,NaN,,NaN,chosen,1100,0,7,4,50,50,NaN,NaN,NaN
220,90251,0,221,4,4,1,gain4,no_gain1,K,G,34,43,body_parts,objects,Stimuli/Experimental_stims/body_parts/wagner-santos-mBWMvIuVnso-unsplash.jpg,Stimuli/Experimental_stims/objects/jonathan-greenaway-Y4hGgeiFn3s-unsplash.jpg,1,NaN,,NaN,unchosen,4000,1,8,4,50,50,NaN,NaN,NaN
221,90251,0,222,4,4,0,no_gain1,gain5,G,C,0,30,outdoor_scenes,body_parts,Stimuli/Experimental_stims/outdoor_scenes/aleksandra-boguslawska-MS7KD9Ti7FQ-unsplash.jpg,Stimuli/Experimental_stims/body_parts/mika-korhonen-Xodzxosar18-unsplash.jpg,1,NaN,,NaN,chosen,1900,0,8,4,50,50,NaN,NaN,NaN
222,90251,0,223,4,4,1,gain2,no_gain1,A,G,45,0,objects,outdoor_scenes,Stimuli/Experimental_stims/objects/leohoho-rngTKHXumy0-unsplash.jpg,Stimuli/Experimental_stims/outdoor_scenes/aleksandra-boguslawska-MS7KD9Ti7FQ-unsplash.jpg,1,NaN,,NaN,chosen,1200,0,8,4,50,50,NaN,NaN,NaN
223,90251,0,224,4,4,1,gain4,no_gain6,K,I,34,29,body_parts,body_parts,Stimuli/Experimental_stims/body_parts/wagner-santos-mBWMvIuVnso-unsplash.jpg,Stimuli/Experimental_stims/body_parts/manuel-schinner-ZwjFuJ7ebpk-unsplash.jpg,1,NaN,,NaN,unchosen,1200,0,8,4,50,50,NaN,NaN,NaN
224,90251,0,225,4,4,1,gain4,no_gain3,K,B,34,5,body_parts,outdoor_scenes,Stimuli/Experimental_stims/body_parts/wagner-santos-mBWMvIuVnso-unsplash.jpg,Stimuli/Experimental_stims/outdoor_scenes/jeff-king-bJHWJeiHfHc-unsplash.jpg,1,NaN,,NaN,unchosen,2900,0,8,4,50,50,NaN,NaN,NaN
225,90251,0,226,4,4,1,gain2,no_gain3,A,B,7,5,outdoor_scenes,outdoor_scenes,Stimuli/Experimental_stims/outdoor_scenes/petr-vysohlid-9fqwGqGLUxc-unsplash.jpg,Stimuli/Experimental_stims/outdoor_scenes/jeff-king-bJHWJeiHfHc-unsplash.jpg,1,NaN,,NaN,unchosen,1800,0,8,4,50,50,NaN,NaN,NaN
226,90251,0,227,4,4,1,gain1,no_gain3,H,B,11,13,outdoor_scenes,faces,Stimuli/Experimental_stims/outdoor_scenes/stephen-leonardi-gyIRjKPXupE-unsplash.jpg,Stimuli/Experimental_stims/faces/daniel-rigdon-dXmXKPP2L4E-unsplash.jpg,1,NaN,,NaN,chosen,4700,1,8,4,50,50,NaN,NaN,NaN
227,90251,0,228,4,4,0,no_gain2,gain5,J,C,42,30,objects,body_parts,Stimuli/Experimental_stims/objects/jess-bailey-nOeVi8DsN8U-unsplash.jpg,Stimuli/Experimental_stims/body_parts/mika-korhonen-Xodzxosar18-unsplash.jpg,1,NaN,,NaN,chosen,2800,0,8,4,50,50,NaN,NaN,NaN
228,90251,0,229,4,4,1,gain5,no_gain1,C,G,2,43,outdoor_scenes,objects,Stimuli/Experimental_stims/outdoor_scenes/bruno-van-der-kraan-qez8mNJ3ilU-unsplash.jpg,Stimuli/Experimental_stims/objects/jonathan-greenaway-Y4hGgeiFn3s-unsplash.jpg,1,NaN,,NaN,unchosen,1100,0,8,4,50,50,NaN,NaN,NaN
229,90251,0,230,4,4,0,no_gain4,gain5,L,C,21,30,faces,body_parts,Stimuli/Experimental_stims/faces/leilani-angel-K84vnnzxmTQ-unsplash.jpg,Stimuli/Experimental_stims/body_parts/mika-korhonen-Xodzxosar18-unsplash.jpg,1,NaN,,NaN,chosen,2200,0,8,4,50,50,NaN,NaN,NaN
230,90251,0,231,4,4,0,no_gain1,gain6,G,F,43,17,objects,faces,Stimuli/Experimental_stims/objects/jonathan-greenaway-Y4hGgeiFn3s-unsplash.jpg,Stimuli/Experimental_stims/faces/good-faces-xmSWVeGEnJw-unsplash.jpg,1,NaN,,NaN,unchosen,2000,0,8,4,50,50,NaN,NaN,NaN
231,90251,0,232,4,4,1,gain3,no_gain5,D,E,37,41,objects,objects,Stimuli/Experimental_stims/objects/alexander-andrews-VLGWE_SumrA-unsplash.jpg,Stimuli/Experimental_stims/objects/insung-yoon-w2JtIQQXoRU-unsplash.jpg,1,NaN,,NaN,unchosen,1100,0,8,4,50,50,NaN,NaN,NaN
232,90251,0,233,4,4,0,no_gain6,gain1,I,H,29,18,body_parts,faces,Stimuli/Experimental_stims/body_parts/manuel-schinner-ZwjFuJ7ebpk-unsplash.jpg,Stimuli/Experimental_stims/faces/jessica-radanavong-mrYkTuAesKE-unsplash.jpg,1,NaN,,NaN,unchosen,3000,1,8,4,50,50,NaN,NaN,NaN
233,90251,0,234,4,4,1,gain3,no_gain5,D,E,23,26,faces,body_parts,Stimuli/Experimental_stims/faces/rikonavt-HQjfrvdTfak-unsplash.jpg,Stimuli/Experimental_stims/body_parts/engin-akyurt-x_3gyC42btc-unsplash.jpg,1,NaN,,NaN,chosen,1800,0,8,4,50,50,NaN,NaN,NaN
234,90251,0,235,4,4,0,no_gain3,gain1,B,H,5,18,outdoor_scenes,faces,Stimuli/Experimental_stims/outdoor_scenes/jeff-king-bJHWJeiHfHc-unsplash.jpg,Stimuli/Experimental_stims/faces/jessica-radanavong-mrYkTuAesKE-unsplash.jpg,1,NaN,,NaN,unchosen,1700,0,8,4,50,50,NaN,NaN,NaN
235,90251,0,236,4,4,0,no_gain2,gain5,J,C,15,2,faces,outdoor_scenes,Stimuli/Experimental_stims/faces/erik-lucatero-d2MSDujJl2g-unsplash.jpg,Stimuli/Experimental_stims/outdoor_scenes/bruno-van-der-kraan-qez8mNJ3ilU-unsplash.jpg,1,NaN,,NaN,unchosen,1500,0,8,4,50,50,NaN,NaN,NaN
236,90251,0,237,4,4,0,no_gain2,gain1,J,H,15,18,faces,faces,Stimuli/Experimental_stims/faces/erik-lucatero-d2MSDujJl2g-unsplash.jpg,Stimuli/Experimental_stims/faces/jessica-radanavong-mrYkTuAesKE-unsplash.jpg,1,NaN,,NaN,unchosen,1400,0,8,4,50,50,NaN,NaN,NaN
237,90251,0,238,4,4,1,gain6,no_gain2,F,J,35,42,body_parts,objects,Stimuli/Experimental_stims/body_parts/wc-so-KH4AAPjb-tI-unsplash.jpg,Stimuli/Experimental_stims/objects/jess-bailey-nOeVi8DsN8U-unsplash.jpg,1,NaN,,NaN,chosen,3000,1,8,4,50,50,NaN,NaN,NaN
238,90251,0,239,4,4,1,gain4,no_gain2,K,J,34,15,body_parts,faces,Stimuli/Experimental_stims/body_parts/wagner-santos-mBWMvIuVnso-unsplash.jpg,Stimuli/Experimental_stims/faces/erik-lucatero-d2MSDujJl2g-unsplash.jpg,1,NaN,,NaN,unchosen,1000,0,8,4,50,50,NaN,NaN,NaN
239,90251,0,240,4,4,0,no_gain1,gain2,G,A,43,7,objects,outdoor_scenes,Stimuli/Experimental_stims/objects/jonathan-greenaway-Y4hGgeiFn3s-unsplash.jpg,Stimuli/Experimental_stims/outdoor_scenes/petr-vysohlid-9fqwGqGLUxc-unsplash.jpg,1,NaN,,NaN,unchosen,1100,0,8,4,50,50,NaN,NaN,NaN
240,90251,0,241,4,4,0,no_gain4,gain3,L,D,24,37,body_parts,objects,Stimuli/Experimental_stims/body_parts/clay-banks-LjqARJaJotc-unsplash.jpg,Stimuli/Experimental_stims/objects/alexander-andrews-VLGWE_SumrA-unsplash.jpg,1,NaN,,NaN,unchosen,1600,0,8,4,50,50,NaN,NaN,NaN
241,90251,0,242,4,4,0,no_gain5,gain4,E,K,26,39,body_parts,objects,Stimuli/Experimental_stims/body_parts/engin-akyurt-x_3gyC42btc-unsplash.jpg,Stimuli/Experimental_stims/objects/charlesdeluvio-1-nx1QR5dTE-unsplash.jpg,1,NaN,,NaN,chosen,1100,0,8,4,50,50,NaN,NaN,NaN
242,90251,0,243,4,4,1,gain6,no_gain6,F,I,17,29,faces,body_parts,Stimuli/Experimental_stims/faces/good-faces-xmSWVeGEnJw-unsplash.jpg,Stimuli/Experimental_stims/body_parts/manuel-schinner-ZwjFuJ7ebpk-unsplash.jpg,1,NaN,,NaN,unchosen,1100,0,8,4,50,50,NaN,NaN,NaN
243,90251,0,244,4,4,1,gain3,no_gain2,D,J,23,42,faces,objects,Stimuli/Experimental_stims/faces/rikonavt-HQjfrvdTfak-unsplash.jpg,Stimuli/Experimental_stims/objects/jess-bailey-nOeVi8DsN8U-unsplash.jpg,1,NaN,,NaN,chosen,1800,0,8,4,50,50,NaN,NaN,NaN
244,90251,0,245,4,4,0,no_gain1,gain1,G,H,0,11,outdoor_scenes,outdoor_scenes,Stimuli/Experimental_stims/outdoor_scenes/aleksandra-boguslawska-MS7KD9Ti7FQ-unsplash.jpg,Stimuli/Experimental_stims/outdoor_scenes/stephen-leonardi-gyIRjKPXupE-unsplash.jpg,1,NaN,,NaN,chosen,1400,0,8,4,50,50,NaN,NaN,NaN
245,90251,0,246,4,4,0,no_gain4,gain5,L,C,24,2,body_parts,outdoor_scenes,Stimuli/Experimental_stims/body_parts/clay-banks-LjqARJaJotc-unsplash.jpg,Stimuli/Experimental_stims/outdoor_scenes/bruno-van-der-kraan-qez8mNJ3ilU-unsplash.jpg,1,NaN,,NaN,unchosen,1600,0,8,4,50,50,NaN,NaN,NaN
246,90251,0,247,4,4,1,gain2,no_gain2,A,J,45,42,objects,objects,Stimuli/Experimental_stims/objects/leohoho-rngTKHXumy0-unsplash.jpg,Stimuli/Experimental_stims/objects/jess-bailey-nOeVi8DsN8U-unsplash.jpg,1,NaN,,NaN,chosen,2000,0,8,4,50,50,NaN,NaN,NaN
247,90251,0,248,4,4,0,no_gain1,gain3,G,D,43,37,objects,objects,Stimuli/Experimental_stims/objects/jonathan-greenaway-Y4hGgeiFn3s-unsplash.jpg,Stimuli/Experimental_stims/objects/alexander-andrews-VLGWE_SumrA-unsplash.jpg,1,NaN,,NaN,unchosen,2200,0,8,4,50,50,NaN,NaN,NaN
248,90251,0,249,4,4,0,no_gain4,gain2,L,A,21,45,faces,objects,Stimuli/Experimental_stims/faces/leilani-angel-K84vnnzxmTQ-unsplash.jpg,Stimuli/Experimental_stims/objects/leohoho-rngTKHXumy0-unsplash.jpg,1,NaN,,NaN,chosen,2100,0,8,4,50,50,NaN,NaN,NaN
249,90251,0,250,4,4,0,no_gain3,gain2,B,A,13,45,faces,objects,Stimuli/Experimental_stims/faces/daniel-rigdon-dXmXKPP2L4E-unsplash.jpg,Stimuli/Experimental_stims/objects/leohoho-rngTKHXumy0-unsplash.jpg,1,NaN,,NaN,chosen,2900,0,8,4,50,50,NaN,NaN,NaN
250,90251,0,251,4,4,0,no_gain6,gain5,I,C,29,2,body_parts,outdoor_scenes,Stimuli/Experimental_stims/body_parts/manuel-schinner-ZwjFuJ7ebpk-unsplash.jpg,Stimuli/Experimental_stims/outdoor_scenes/bruno-van-der-kraan-qez8mNJ3ilU-unsplash.jpg,1,NaN,,NaN,unchosen,1600,0,8,4,50,50,NaN,NaN,NaN
251,90251,0,252,4,4,1,gain3,no_gain4,D,L,23,21,faces,faces,Stimuli/Experimental_stims/faces/rikonavt-HQjfrvdTfak-unsplash.jpg,Stimuli/Experimental_stims/faces/leilani-angel-K84vnnzxmTQ-unsplash.jpg,1,NaN,,NaN,chosen,1600,0,8,4,50,50,NaN,NaN,NaN
252,90251,0,253,4,4,0,no_gain1,gain1,G,H,43,18,objects,faces,Stimuli/Experimental_stims/objects/jonathan-greenaway-Y4hGgeiFn3s-unsplash.jpg,Stimuli/Experimental_stims/faces/jessica-radanavong-mrYkTuAesKE-unsplash.jpg,1,NaN,,NaN,unchosen,4900,1,8,4,50,50,NaN,NaN,NaN
253,90251,0,254,4,4,0,no_gain5,gain1,E,H,41,18,objects,faces,Stimuli/Experimental_stims/objects/insung-yoon-w2JtIQQXoRU-unsplash.jpg,Stimuli/Experimental_stims/faces/jessica-radanavong-mrYkTuAesKE-unsplash.jpg,1,NaN,,NaN,unchosen,2600,0,8,4,50,50,NaN,NaN,NaN
254,90251,0,255,4,4,1,gain5,no_gain5,C,E,30,26,body_parts,body_parts,Stimuli/Experimental_stims/body_parts/mika-korhonen-Xodzxosar18-unsplash.jpg,Stimuli/Experimental_stims/body_parts/engin-akyurt-x_3gyC42btc-unsplash.jpg,1,NaN,,NaN,chosen,1800,0,8,4,50,50,NaN,NaN,NaN
255,90251,0,256,4,4,0,no_gain1,gain3,G,D,0,23,outdoor_scenes,faces,Stimuli/Experimental_stims/outdoor_scenes/aleksandra-boguslawska-MS7KD9Ti7FQ-unsplash.jpg,Stimuli/Experimental_stims/faces/rikonavt-HQjfrvdTfak-unsplash.jpg,1,NaN,,NaN,chosen,1500,0,8,4,50,50,NaN,NaN,NaN
256,90251,0,257,4,4,1,gain5,no_gain3,C,B,30,13,body_parts,faces,Stimuli/Experimental_stims/body_parts/mika-korhonen-Xodzxosar18-unsplash.jpg,Stimuli/Experimental_stims/faces/daniel-rigdon-dXmXKPP2L4E-unsplash.jpg,1,NaN,,NaN,chosen,1700,0,8,4,50,50,NaN,NaN,NaN
257,90251,0,258,4,4,1,gain2,no_gain4,A,L,7,24,outdoor_scenes,body_parts,Stimuli/Experimental_stims/outdoor_scenes/petr-vysohlid-9fqwGqGLUxc-unsplash.jpg,Stimuli/Experimental_stims/body_parts/clay-banks-LjqARJaJotc-unsplash.jpg,1,NaN,,NaN,unchosen,3200,1,8,4,50,50,NaN,NaN,NaN
258,90251,0,259,4,4,1,gain3,no_gain3,D,B,23,13,faces,faces,Stimuli/Experimental_stims/faces/rikonavt-HQjfrvdTfak-unsplash.jpg,Stimuli/Experimental_stims/faces/daniel-rigdon-dXmXKPP2L4E-unsplash.jpg,1,NaN,,NaN,chosen,2100,0,8,4,50,50,NaN,NaN,NaN
259,90251,0,260,4,4,0,no_gain6,gain1,I,H,8,11,outdoor_scenes,outdoor_scenes,Stimuli/Experimental_stims/outdoor_scenes/samsommer-vddccTqwal8-unsplash.jpg,Stimuli/Experimental_stims/outdoor_scenes/stephen-leonardi-gyIRjKPXupE-unsplash.jpg,1,NaN,,NaN,chosen,1600,0,8,4,50,50,NaN,NaN,NaN
260,90251,0,261,4,4,0,no_gain2,gain3,J,D,15,37,faces,objects,Stimuli/Experimental_stims/faces/erik-lucatero-d2MSDujJl2g-unsplash.jpg,Stimuli/Experimental_stims/objects/alexander-andrews-VLGWE_SumrA-unsplash.jpg,1,NaN,,NaN,unchosen,1700,0,8,4,50,50,NaN,NaN,NaN
261,90251,0,262,4,4,0,no_gain4,gain4,L,K,21,39,faces,objects,Stimuli/Experimental_stims/faces/leilani-angel-K84vnnzxmTQ-unsplash.jpg,Stimuli/Experimental_stims/objects/charlesdeluvio-1-nx1QR5dTE-unsplash.jpg,1,NaN,,NaN,chosen,1300,0,8,4,50,50,NaN,NaN,NaN
262,90251,0,263,4,4,1,gain6,no_gain1,F,G,35,0,body_parts,outdoor_scenes,Stimuli/Experimental_stims/body_parts/wc-so-KH4AAPjb-tI-unsplash.jpg,Stimuli/Experimental_stims/outdoor_scenes/aleksandra-boguslawska-MS7KD9Ti7FQ-unsplash.jpg,1,NaN,,NaN,chosen,3700,1,8,4,50,50,NaN,NaN,NaN
263,90251,0,264,4,4,1,gain1,no_gain4,H,L,18,24,faces,body_parts,Stimuli/Experimental_stims/faces/jessica-radanavong-mrYkTuAesKE-unsplash.jpg,Stimuli/Experimental_stims/body_parts/clay-banks-LjqARJaJotc-unsplash.jpg,0,0,1435,0,unchosen,1500,0,8,4,50,50,24,faces,body_parts
264,90251,0,265,4,4,1,gain4,no_gain1,K,G,39,0,objects,outdoor_scenes,Stimuli/Experimental_stims/objects/charlesdeluvio-1-nx1QR5dTE-unsplash.jpg,Stimuli/Experimental_stims/outdoor_scenes/aleksandra-boguslawska-MS7KD9Ti7FQ-unsplash.jpg,0,0,143,0,chosen,1500,0,8,4,50,50,0,objects,outdoor_scenes
265,90251,0,266,4,4,1,gain2,no_gain5,A,E,7,41,outdoor_scenes,objects,Stimuli/Experimental_stims/outdoor_scenes/petr-vysohlid-9fqwGqGLUxc-unsplash.jpg,Stimuli/Experimental_stims/objects/insung-yoon-w2JtIQQXoRU-unsplash.jpg,0,0,154,0,unchosen,1400,0,8,4,50,50,41,outdoor_scenes,objects
266,90251,0,267,4,4,0,no_gain2,gain4,J,K,42,39,objects,objects,Stimuli/Experimental_stims/objects/jess-bailey-nOeVi8DsN8U-unsplash.jpg,Stimuli/Experimental_stims/objects/charlesdeluvio-1-nx1QR5dTE-unsplash.jpg,1,NaN,,NaN,chosen,1700,0,8,4,50,50,NaN,NaN,NaN
267,90251,0,268,4,4,0,no_gain4,gain6,L,F,21,35,faces,body_parts,Stimuli/Experimental_stims/faces/leilani-angel-K84vnnzxmTQ-unsplash.jpg,Stimuli/Experimental_stims/body_parts/wc-so-KH4AAPjb-tI-unsplash.jpg,1,NaN,,NaN,chosen,2500,0,8,4,50,50,NaN,NaN,NaN
268,90251,0,269,4,4,0,no_gain6,gain6,I,F,8,35,outdoor_scenes,body_parts,Stimuli/Experimental_stims/outdoor_scenes/samsommer-vddccTqwal8-unsplash.jpg,Stimuli/Experimental_stims/body_parts/wc-so-KH4AAPjb-tI-unsplash.jpg,1,NaN,,NaN,chosen,1800,0,8,4,50,50,NaN,NaN,NaN
269,90251,0,270,4,4,0,no_gain2,gain6,J,F,15,17,faces,faces,Stimuli/Experimental_stims/faces/erik-lucatero-d2MSDujJl2g-unsplash.jpg,Stimuli/Experimental_stims/faces/good-faces-xmSWVeGEnJw-unsplash.jpg,1,NaN,,NaN,unchosen,2200,0,8,4,50,50,NaN,NaN,NaN
270,90251,0,271,4,4,0,no_gain5,gain6,E,F,41,17,objects,faces,Stimuli/Experimental_stims/objects/insung-yoon-w2JtIQQXoRU-unsplash.jpg,Stimuli/Experimental_stims/faces/good-faces-xmSWVeGEnJw-unsplash.jpg,1,NaN,,NaN,unchosen,1400,0,8,4,50,50,NaN,NaN,NaN
271,90251,0,272,4,4,1,gain3,no_gain6,D,I,23,8,faces,outdoor_scenes,Stimuli/Experimental_stims/faces/rikonavt-HQjfrvdTfak-unsplash.jpg,Stimuli/Experimental_stims/outdoor_scenes/samsommer-vddccTqwal8-unsplash.jpg,1,NaN,,NaN,chosen,4200,1,8,4,50,50,NaN,NaN,NaN
272,90251,0,273,4,4,1,gain5,no_gain5,C,E,2,41,outdoor_scenes,objects,Stimuli/Experimental_stims/outdoor_scenes/bruno-van-der-kraan-qez8mNJ3ilU-unsplash.jpg,Stimuli/Experimental_stims/objects/insung-yoon-w2JtIQQXoRU-unsplash.jpg,1,NaN,,NaN,unchosen,2400,0,8,4,50,50,NaN,NaN,NaN
273,90251,0,274,4,4,0,no_gain4,gain6,L,F,24,17,body_parts,faces,Stimuli/Experimental_stims/body_parts/clay-banks-LjqARJaJotc-unsplash.jpg,Stimuli/Experimental_stims/faces/good-faces-xmSWVeGEnJw-unsplash.jpg,1,NaN,,NaN,unchosen,1100,0,8,4,50,50,NaN,NaN,NaN
274,90251,0,275,4,4,0,no_gain2,gain1,J,H,42,11,objects,outdoor_scenes,Stimuli/Experimental_stims/objects/jess-bailey-nOeVi8DsN8U-unsplash.jpg,Stimuli/Experimental_stims/outdoor_scenes/stephen-leonardi-gyIRjKPXupE-unsplash.jpg,1,NaN,,NaN,chosen,1400,0,8,4,50,50,NaN,NaN,NaN
275,90251,0,276,4,4,0,no_gain3,gain3,B,D,5,37,outdoor_scenes,objects,Stimuli/Experimental_stims/outdoor_scenes/jeff-king-bJHWJeiHfHc-unsplash.jpg,Stimuli/Experimental_stims/objects/alexander-andrews-VLGWE_SumrA-unsplash.jpg,1,NaN,,NaN,unchosen,1400,0,8,4,50,50,NaN,NaN,NaN
276,90251,0,277,4,4,1,gain5,no_gain6,C,I,30,8,body_parts,outdoor_scenes,Stimuli/Experimental_stims/body_parts/mika-korhonen-Xodzxosar18-unsplash.jpg,Stimuli/Experimental_stims/outdoor_scenes/samsommer-vddccTqwal8-unsplash.jpg,1,NaN,,NaN,chosen,1000,0,8,4,50,50,NaN,NaN,NaN
277,90251,0,278,4,4,1,gain1,no_gain5,H,E,11,26,outdoor_scenes,body_parts,Stimuli/Experimental_stims/outdoor_scenes/stephen-leonardi-gyIRjKPXupE-unsplash.jpg,Stimuli/Experimental_stims/body_parts/engin-akyurt-x_3gyC42btc-unsplash.jpg,1,NaN,,NaN,chosen,1900,0,8,4,50,50,NaN,NaN,NaN
278,90251,0,279,4,4,1,gain2,no_gain6,A,I,7,29,outdoor_scenes,body_parts,Stimuli/Experimental_stims/outdoor_scenes/petr-vysohlid-9fqwGqGLUxc-unsplash.jpg,Stimuli/Experimental_stims/body_parts/manuel-schinner-ZwjFuJ7ebpk-unsplash.jpg,1,NaN,,NaN,unchosen,2100,0,8,4,50,50,NaN,NaN,NaN
279,90251,0,280,4,4,1,gain2,no_gain2,A,J,7,15,outdoor_scenes,faces,Stimuli/Experimental_stims/outdoor_scenes/petr-vysohlid-9fqwGqGLUxc-unsplash.jpg,Stimuli/Experimental_stims/faces/erik-lucatero-d2MSDujJl2g-unsplash.jpg,1,NaN,,NaN,unchosen,1100,0,8,4,50,50,NaN,NaN,NaN
280,90251,0,281,4,4,1,gain3,no_gain6,D,I,37,29,objects,body_parts,Stimuli/Experimental_stims/objects/alexander-andrews-VLGWE_SumrA-unsplash.jpg,Stimuli/Experimental_stims/body_parts/manuel-schinner-ZwjFuJ7ebpk-unsplash.jpg,1,NaN,,NaN,unchosen,3800,1,8,4,50,50,NaN,NaN,NaN
281,90251,0,282,4,4,0,no_gain6,gain2,I,A,8,45,outdoor_scenes,objects,Stimuli/Experimental_stims/outdoor_scenes/samsommer-vddccTqwal8-unsplash.jpg,Stimuli/Experimental_stims/objects/leohoho-rngTKHXumy0-unsplash.jpg,1,NaN,,NaN,chosen,1200,0,8,4,50,50,NaN,NaN,NaN
282,90251,0,283,4,4,0,no_gain3,gain4,B,K,13,39,faces,objects,Stimuli/Experimental_stims/faces/daniel-rigdon-dXmXKPP2L4E-unsplash.jpg,Stimuli/Experimental_stims/objects/charlesdeluvio-1-nx1QR5dTE-unsplash.jpg,1,NaN,,NaN,chosen,2500,0,8,4,50,50,NaN,NaN,NaN
283,90251,0,284,4,4,0,no_gain6,gain4,I,K,8,39,outdoor_scenes,objects,Stimuli/Experimental_stims/outdoor_scenes/samsommer-vddccTqwal8-unsplash.jpg,Stimuli/Experimental_stims/objects/charlesdeluvio-1-nx1QR5dTE-unsplash.jpg,1,NaN,,NaN,chosen,1200,0,8,4,50,50,NaN,NaN,NaN
284,90251,0,285,4,4,1,gain4,no_gain5,K,E,34,41,body_parts,objects,Stimuli/Experimental_stims/body_parts/wagner-santos-mBWMvIuVnso-unsplash.jpg,Stimuli/Experimental_stims/objects/insung-yoon-w2JtIQQXoRU-unsplash.jpg,1,NaN,,NaN,unchosen,1600,0,8,4,50,50,NaN,NaN,NaN
285,90251,0,286,4,4,1,gain6,no_gain5,F,E,35,26,body_parts,body_parts,Stimuli/Experimental_stims/body_parts/wc-so-KH4AAPjb-tI-unsplash.jpg,Stimuli/Experimental_stims/body_parts/engin-akyurt-x_3gyC42btc-unsplash.jpg,1,NaN,,NaN,chosen,1900,0,8,4,50,50,NaN,NaN,NaN
286,90251,0,287,4,4,1,gain2,no_gain5,A,E,45,26,objects,body_parts,Stimuli/Experimental_stims/objects/leohoho-rngTKHXumy0-unsplash.jpg,Stimuli/Experimental_stims/body_parts/engin-akyurt-x_3gyC42btc-unsplash.jpg,1,NaN,,NaN,chosen,1000,0,8,4,50,50,NaN,NaN,NaN
287,90251,0,288,4,4,1,gain6,no_gain3,F,B,17,5,faces,outdoor_scenes,Stimuli/Experimental_stims/faces/good-faces-xmSWVeGEnJw-unsplash.jpg,Stimuli/Experimental_stims/outdoor_scenes/jeff-king-bJHWJeiHfHc-unsplash.jpg,1,NaN,,NaN,unchosen,5000,1,8,4,50,50,NaN,NaN,NaN
288,90251,0,289,4,4,0,no_gain4,gain1,L,H,21,11,faces,outdoor_scenes,Stimuli/Experimental_stims/faces/leilani-angel-K84vnnzxmTQ-unsplash.jpg,Stimuli/Experimental_stims/outdoor_scenes/stephen-leonardi-gyIRjKPXupE-unsplash.jpg,1,NaN,,NaN,chosen,2400,0,8,4,50,50,NaN,NaN,NaN
289,90251,0,290,4,4,0,no_gain3,gain5,B,C,5,2,outdoor_scenes,outdoor_scenes,Stimuli/Experimental_stims/outdoor_scenes/jeff-king-bJHWJeiHfHc-unsplash.jpg,Stimuli/Experimental_stims/outdoor_scenes/bruno-van-der-kraan-qez8mNJ3ilU-unsplash.jpg,1,NaN,,NaN,unchosen,1500,0,8,4,50,50,NaN,NaN,NaN
290,90251,0,291,4,4,1,gain6,no_gain3,F,B,35,13,body_parts,faces,Stimuli/Experimental_stims/body_parts/wc-so-KH4AAPjb-tI-unsplash.jpg,Stimuli/Experimental_stims/faces/daniel-rigdon-dXmXKPP2L4E-unsplash.jpg,1,NaN,,NaN,chosen,1500,0,8,4,50,50,NaN,NaN,NaN
291,90251,0,292,4,4,1,gain4,no_gain4,K,L,34,24,body_parts,body_parts,Stimuli/Experimental_stims/body_parts/wagner-santos-mBWMvIuVnso-unsplash.jpg,Stimuli/Experimental_stims/body_parts/clay-banks-LjqARJaJotc-unsplash.jpg,1,NaN,,NaN,unchosen,1300,0,8,4,50,50,NaN,NaN,NaN