,PID,practice,run,block,trial,pair_type,old_pair,chosen_left,pair_id,chosen_id,iti,left_stimulus,right_stimulus,left_path,right_path,old_response,pair_acc,pair_rt,long_iti,simulation,version,left_category,right_category,pairs_rt,no_response
0,56445,1,0,0,1,,0,0,,,1500,,,Stimuli/Practice_stims/Memory/annie-spratt-g9KFpAfQ5bc-unsplash.jpg,Stimuli/Practice_stims/Memory/charl-durand-bsfXvI25iNg-unsplash.jpg,NaN,0,NaN,0,12,2,NaN,NaN,,1
1,56445,1,0,0,2,,0,0,,,1000,,,Stimuli/Practice_stims/Memory/charl-durand-bsfXvI25iNg-unsplash.jpg,Stimuli/Practice_stims/Memory/jimmy-dean-Yn0l7uwBrpw-unsplash.jpg,NaN,0,NaN,0,12,2,NaN,NaN,,1
2,56445,1,0,0,3,,0,0,,,3000,,,Stimuli/Practice_stims/Memory/jimmy-dean-Yn0l7uwBrpw-unsplash.jpg,Stimuli/Practice_stims/Memory/annie-spratt-g9KFpAfQ5bc-unsplash.jpg,NaN,0,NaN,0,12,2,NaN,NaN,,1
3,56445,0,1,1,4,recombined,0,1,,K,1200,29,4,Stimuli/Experimental_stims/body_parts/manuel-schinner-ZwjFuJ7ebpk-unsplash.jpg,Stimuli/Experimental_stims/outdoor_scenes/jarrett-kow-1ZOyYPOBn7I-unsplash.jpg,NaN,0,NaN,0,12,2,body_parts,outdoor_scenes,,1
4,56445,0,1,1,5,recombined,0,0,,C,2100,24,7,Stimuli/Experimental_stims/body_parts/clay-banks-LjqARJaJotc-unsplash.jpg,Stimuli/Experimental_stims/outdoor_scenes/petr-vysohlid-9fqwGqGLUxc-unsplash.jpg,NaN,0,NaN,0,12,2,body_parts,outdoor_scenes,,1
5,56445,0,1,1,6,intact,1,1,K,K,2300,29,40,Stimuli/Experimental_stims/body_parts/manuel-schinner-ZwjFuJ7ebpk-unsplash.jpg,Stimuli/Experimental_stims/objects/fabian-blank-pElSkGRA2NU-unsplash.jpg,NaN,0,NaN,0,12,2,body_parts,objects,,1
6,56445,0,1,1,7,recombined,0,1,,J,1800,13,46,Stimuli/Experimental_stims/faces/daniel-rigdon-dXmXKPP2L4E-unsplash.jpg,Stimuli/Experimental_stims/objects/mockup-graphics-PNsj6RiHAF4-unsplash.jpg,NaN,0,NaN,0,12,2,faces,objects,,1
7,56445,0,1,1,8,recombined,0,0,,B,1600,34,6,Stimuli/Experimental_stims/body_parts/wagner-santos-mBWMvIuVnso-unsplash.jpg,Stimuli/Experimental_stims/outdoor_scenes/meng-ji-8BH_M-53CyA-unsplash.jpg,NaN,0,NaN,0,12,2,body_parts,outdoor_scenes,,1
8,56445,0,1,1,9,intact,1,1,J,J,2100,13,42,Stimuli/Experimental_stims/faces/daniel-rigdon-dXmXKPP2L4E-unsplash.jpg,Stimuli/Experimental_stims/objects/jess-bailey-nOeVi8DsN8U-unsplash.jpg,NaN,0,NaN,0,12,2,faces,objects,,1
9,56445,0,1,1,10,intact,1,1,D,D,2600,39,21,Stimuli/Experimental_stims/objects/charlesdeluvio-1-nx1QR5dTE-unsplash.jpg,Stimuli/Experimental_stims/faces/leilani-angel-K84vnnzxmTQ-unsplash.jpg,NaN,0,NaN,0,12,2,objects,faces,,1
10,56445,0,1,1,11,recombined,0,0,,E,1300,21,43,Stimuli/Experimental_stims/faces/leilani-angel-K84vnnzxmTQ-unsplash.jpg,Stimuli/Experimental_stims/objects/jonathan-greenaway-Y4hGgeiFn3s-unsplash.jpg,NaN,0,NaN,0,12,2,faces,objects,,1
11,56445,0,1,1,12,recombined,0,1,,F,4800,15,42,Stimuli/Experimental_stims/faces/erik-lucatero-d2MSDujJl2g-unsplash.jpg,Stimuli/Experimental_stims/objects/jess-bailey-nOeVi8DsN8U-unsplash.jpg,1,0,NaN,1,12,2,faces,objects,1,0
12,56445,0,1,1,13,intact,1,1,H,H,2000,18,11,Stimuli/Experimental_stims/faces/jessica-radanavong-mrYkTuAesKE-unsplash.jpg,Stimuli/Experimental_stims/outdoor_scenes/stephen-leonardi-gyIRjKPXupE-unsplash.jpg,NaN,0,NaN,0,12,2,faces,outdoor_scenes,,1
13,56445,0,1,1,14,recombined,0,1,,L,1900,26,11,Stimuli/Experimental_stims/body_parts/engin-akyurt-x_3gyC42btc-unsplash.jpg,Stimuli/Experimental_stims/outdoor_scenes/stephen-leonardi-gyIRjKPXupE-unsplash.jpg,NaN,0,NaN,0,12,2,body_parts,outdoor_scenes,,1
14,56445,0,1,1,15,intact,1,1,I,I,1600,32,4,Stimuli/Experimental_stims/body_parts/towfiqu-barbhuiya-3AsiVDsZnHg-unsplash.jpg,Stimuli/Experimental_stims/outdoor_scenes/jarrett-kow-1ZOyYPOBn7I-unsplash.jpg,1,1,NaN,0,12,2,body_parts,outdoor_scenes,67,0
15,56445,0,1,1,16,recombined,0,1,,A,1700,8,30,Stimuli/Experimental_stims/outdoor_scenes/samsommer-vddccTqwal8-unsplash.jpg,Stimuli/Experimental_stims/body_parts/mika-korhonen-Xodzxosar18-unsplash.jpg,1,0,NaN,0,12,2,outdoor_scenes,body_parts,7,0
16,56445,0,1,1,17,intact,1,1,B,B,1200,6,22,Stimuli/Experimental_stims/outdoor_scenes/meng-ji-8BH_M-53CyA-unsplash.jpg,Stimuli/Experimental_stims/faces/ravi-patel-VMGAbeeJTKo-unsplash.jpg,NaN,0,NaN,0,12,2,outdoor_scenes,faces,,1
17,56445,0,1,1,18,recombined,0,1,,D,4200,39,17,Stimuli/Experimental_stims/objects/charlesdeluvio-1-nx1QR5dTE-unsplash.jpg,Stimuli/Experimental_stims/faces/good-faces-xmSWVeGEnJw-unsplash.jpg,NaN,0,NaN,1,12,2,objects,faces,,1
18,56445,0,1,1,19,intact,1,1,A,A,1100,8,46,Stimuli/Experimental_stims/outdoor_scenes/samsommer-vddccTqwal8-unsplash.jpg,Stimuli/Experimental_stims/objects/mockup-graphics-PNsj6RiHAF4-unsplash.jpg,NaN,0,NaN,0,12,2,outdoor_scenes,objects,,1
19,56445,0,1,1,20,intact,1,1,E,E,2900,43,34,Stimuli/Experimental_stims/objects/jonathan-greenaway-Y4hGgeiFn3s-unsplash.jpg,Stimuli/Experimental_stims/body_parts/wagner-santos-mBWMvIuVnso-unsplash.jpg,NaN,0,NaN,0,12,2,objects,body_parts,,1
20,56445,0,1,1,21,recombined,0,0,,G,1000,22,36,Stimuli/Experimental_stims/faces/ravi-patel-VMGAbeeJTKo-unsplash.jpg,Stimuli/Experimental_stims/objects/alexander-andrews-JYGnB9gTCls-unsplash.jpg,0,1,NaN,0,12,2,faces,objects,0,0
21,56445,0,1,1,22,intact,1,1,G,G,2900,36,9,Stimuli/Experimental_stims/objects/alexander-andrews-JYGnB9gTCls-unsplash.jpg,Stimuli/Experimental_stims/outdoor_scenes/sergey-pesterev-y-b_FOmJXdg-unsplash.jpg,0,0,NaN,0,12,2,objects,outdoor_scenes,70,0
22,56445,0,1,1,23,intact,1,1,L,L,1600,26,17,Stimuli/Experimental_stims/body_parts/engin-akyurt-x_3gyC42btc-unsplash.jpg,Stimuli/Experimental_stims/faces/good-faces-xmSWVeGEnJw-unsplash.jpg,0,0,NaN,0,12,2,body_parts,faces,0,0
23,56445,0,1,1,24,recombined,0,0,,I,3000,9,32,Stimuli/Experimental_stims/outdoor_scenes/sergey-pesterev-y-b_FOmJXdg-unsplash.jpg,Stimuli/Experimental_stims/body_parts/towfiqu-barbhuiya-3AsiVDsZnHg-unsplash.jpg,0,1,NaN,1,12,2,outdoor_scenes,body_parts,81,0
24,56445,0,1,1,25,intact,1,1,C,C,2100,7,30,Stimuli/Experimental_stims/outdoor_scenes/petr-vysohlid-9fqwGqGLUxc-unsplash.jpg,Stimuli/Experimental_stims/body_parts/mika-korhonen-Xodzxosar18-unsplash.jpg,0,0,NaN,0,12,2,outdoor_scenes,body_parts,10,0
25,56445,0,1,1,26,recombined,0,0,,H,1400,40,18,Stimuli/Experimental_stims/objects/fabian-blank-pElSkGRA2NU-unsplash.jpg,Stimuli/Experimental_stims/faces/jessica-radanavong-mrYkTuAesKE-unsplash.jpg,0,1,NaN,0,12,2,objects,faces,99,0
26,56445,0,1,1,27,intact,1,1,F,F,1200,15,24,Stimuli/Experimental_stims/faces/erik-lucatero-d2MSDujJl2g-unsplash.jpg,Stimuli/Experimental_stims/body_parts/clay-banks-LjqARJaJotc-unsplash.jpg,0,0,NaN,0,12,2,faces,body_parts,45,0
27,56445,0,1,2,28,recombined,0,1,,K,1300,29,4,Stimuli/Experimental_stims/body_parts/manuel-schinner-ZwjFuJ7ebpk-unsplash.jpg,Stimuli/Experimental_stims/outdoor_scenes/jarrett-kow-1ZOyYPOBn7I-unsplash.jpg,NaN,0,NaN,0,12,2,body_parts,outdoor_scenes,,1
28,56445,0,1,2,29,intact,1,1,D,D,2600,39,21,Stimuli/Experimental_stims/objects/charlesdeluvio-1-nx1QR5dTE-unsplash.jpg,Stimuli/Experimental_stims/faces/leilani-angel-K84vnnzxmTQ-unsplash.jpg,NaN,0,NaN,0,12,2,objects,faces,,1
29,56445,0,1,2,30,intact,1,1,E,E,1900,43,34,Stimuli/Experimental_stims/objects/jonathan-greenaway-Y4hGgeiFn3s-unsplash.jpg,Stimuli/Experimental_stims/body_parts/wagner-santos-mBWMvIuVnso-unsplash.jpg,NaN,0,NaN,0,12,2,objects,body_parts,,1
30,56445,0,1,2,31,recombined,0,1,,J,2600,13,46,Stimuli/Experimental_stims/faces/daniel-rigdon-dXmXKPP2L4E-unsplash.jpg,Stimuli/Experimental_stims/objects/mockup-graphics-PNsj6RiHAF4-unsplash.jpg,0,1,NaN,0,12,2,faces,objects,106,0
31,56445,0,1,2,32,recombined,0,1,,A,3000,8,30,Stimuli/Experimental_stims/outdoor_scenes/samsommer-vddccTqwal8-unsplash.jpg,Stimuli/Experimental_stims/body_parts/mika-korhonen-Xodzxosar18-unsplash.jpg,0,1,NaN,1,12,2,outdoor_scenes,body_parts,33,0
32,56445,0,1,2,33,intact,1,1,I,I,1200,32,4,Stimuli/Experimental_stims/body_parts/towfiqu-barbhuiya-3AsiVDsZnHg-unsplash.jpg,Stimuli/Experimental_stims/outdoor_scenes/jarrett-kow-1ZOyYPOBn7I-unsplash.jpg,NaN,0,NaN,0,12,2,body_parts,outdoor_scenes,,1
33,56445,0,1,2,34,recombined,0,0,,B,1400,34,6,Stimuli/Experimental_stims/body_parts/wagner-santos-mBWMvIuVnso-unsplash.jpg,Stimuli/Experimental_stims/outdoor_scenes/meng-ji-8BH_M-53CyA-unsplash.jpg,NaN,0,NaN,0,12,2,body_parts,outdoor_scenes,,1
34,56445,0,1,2,35,intact,1,1,J,J,1300,13,42,Stimuli/Experimental_stims/faces/daniel-rigdon-dXmXKPP2L4E-unsplash.jpg,Stimuli/Experimental_stims/objects/jess-bailey-nOeVi8DsN8U-unsplash.jpg,NaN,0,NaN,0,12,2,faces,objects,,1
35,56445,0,1,2,36,recombined,0,0,,E,1400,21,43,Stimuli/Experimental_stims/faces/leilani-angel-K84vnnzxmTQ-unsplash.jpg,Stimuli/Experimental_stims/objects/jonathan-greenaway-Y4hGgeiFn3s-unsplash.jpg,NaN,0,NaN,0,12,2,faces,objects,,1
36,56445,0,1,2,37,recombined,0,0,,I,4500,9,32,Stimuli/Experimental_stims/outdoor_scenes/sergey-pesterev-y-b_FOmJXdg-unsplash.jpg,Stimuli/Experimental_stims/body_parts/towfiqu-barbhuiya-3AsiVDsZnHg-unsplash.jpg,NaN,0,NaN,1,12,2,outdoor_scenes,body_parts,,1
37,56445,0,1,2,38,intact,1,1,G,G,1800,36,9,Stimuli/Experimental_stims/objects/alexander-andrews-JYGnB9gTCls-unsplash.jpg,Stimuli/Experimental_stims/outdoor_scenes/sergey-pesterev-y-b_FOmJXdg-unsplash.jpg,NaN,0,NaN,0,12,2,objects,outdoor_scenes,,1
38,56445,0,1,2,39,recombined,0,1,,L,1200,26,11,Stimuli/Experimental_stims/body_parts/engin-akyurt-x_3gyC42btc-unsplash.jpg,Stimuli/Experimental_stims/outdoor_scenes/stephen-leonardi-gyIRjKPXupE-unsplash.jpg,0,1,NaN,0,12,2,body_parts,outdoor_scenes,66,0
39,56445,0,1,2,40,intact,1,1,B,B,2500,6,22,Stimuli/Experimental_stims/outdoor_scenes/meng-ji-8BH_M-53CyA-unsplash.jpg,Stimuli/Experimental_stims/faces/ravi-patel-VMGAbeeJTKo-unsplash.jpg,NaN,0,NaN,0,12,2,outdoor_scenes,faces,,1
40,56445,0,1,2,41,intact,1,1,L,L,1300,26,17,Stimuli/Experimental_stims/body_parts/engin-akyurt-x_3gyC42btc-unsplash.jpg,Stimuli/Experimental_stims/faces/good-faces-xmSWVeGEnJw-unsplash.jpg,NaN,0,NaN,0,12,2,body_parts,faces,,1
41,56445,0,1,2,42,recombined,0,0,,F,3000,42,15,Stimuli/Experimental_stims/objects/jess-bailey-nOeVi8DsN8U-unsplash.jpg,Stimuli/Experimental_stims/faces/erik-lucatero-d2MSDujJl2g-unsplash.jpg,NaN,0,NaN,1,12,2,objects,faces,,1
42,56445,0,1,2,43,recombined,0,0,,C,1800,24,7,Stimuli/Experimental_stims/body_parts/clay-banks-LjqARJaJotc-unsplash.jpg,Stimuli/Experimental_stims/outdoor_scenes/petr-vysohlid-9fqwGqGLUxc-unsplash.jpg,NaN,0,NaN,0,12,2,body_parts,outdoor_scenes,,1
43,56445,0,1,2,44,intact,1,1,K,K,1300,29,40,Stimuli/Experimental_stims/body_parts/manuel-schinner-ZwjFuJ7ebpk-unsplash.jpg,Stimuli/Experimental_stims/objects/fabian-blank-pElSkGRA2NU-unsplash.jpg,NaN,0,NaN,0,12,2,body_parts,objects,,1
44,56445,0,1,2,45,intact,1,1,A,A,1000,8,46,Stimuli/Experimental_stims/outdoor_scenes/samsommer-vddccTqwal8-unsplash.jpg,Stimuli/Experimental_stims/objects/mockup-graphics-PNsj6RiHAF4-unsplash.jpg,NaN,0,NaN,0,12,2,outdoor_scenes,objects,,1
45,56445,0,1,2,46,recombined,0,1,,D,2000,39,17,Stimuli/Experimental_stims/objects/charlesdeluvio-1-nx1QR5dTE-unsplash.jpg,Stimuli/Experimental_stims/faces/good-faces-xmSWVeGEnJw-unsplash.jpg,NaN,0,NaN,0,12,2,objects,faces,,1
46,56445,0,1,2,47,intact,1,1,H,H,1700,18,11,Stimuli/Experimental_stims/faces/jessica-radanavong-mrYkTuAesKE-unsplash.jpg,Stimuli/Experimental_stims/outdoor_scenes/stephen-leonardi-gyIRjKPXupE-unsplash.jpg,NaN,0,NaN,0,12,2,faces,outdoor_scenes,,1
47,56445,0,1,2,48,recombined,0,0,,H,1000,40,18,Stimuli/Experimental_stims/objects/fabian-blank-pElSkGRA2NU-unsplash.jpg,Stimuli/Experimental_stims/faces/jessica-radanavong-mrYkTuAesKE-unsplash.jpg,NaN,0,NaN,0,12,2,objects,faces,,1
48,56445,0,1,2,49,recombined,0,1,,G,1800,36,22,Stimuli/Experimental_stims/objects/alexander-andrews-JYGnB9gTCls-unsplash.jpg,Stimuli/Experimental_stims/faces/ravi-patel-VMGAbeeJTKo-unsplash.jpg,NaN,0,NaN,0,12,2,objects,faces,,1
49,56445,0,1,2,50,intact,1,1,C,C,1300,7,30,Stimuli/Experimental_stims/outdoor_scenes/petr-vysohlid-9fqwGqGLUxc-unsplash.jpg,Stimuli/Experimental_stims/body_parts/mika-korhonen-Xodzxosar18-unsplash.jpg,NaN,0,NaN,0,12,2,outdoor_scenes,body_parts,,1
50,56445,0,1,2,51,intact,1,1,F,F,3500,15,24,Stimuli/Experimental_stims/faces/erik-lucatero-d2MSDujJl2g-unsplash.jpg,Stimuli/Experimental_stims/body_parts/clay-banks-LjqARJaJotc-unsplash.jpg,NaN,0,NaN,1,12,2,faces,body_parts,,1
51,56445,0,1,3,52,recombined,0,1,,L,2800,26,11,Stimuli/Experimental_stims/body_parts/engin-akyurt-x_3gyC42btc-unsplash.jpg,Stimuli/Experimental_stims/outdoor_scenes/stephen-leonardi-gyIRjKPXupE-unsplash.jpg,NaN,0,NaN,1,37,2,body_parts,outdoor_scenes,,1
52,56445,0,1,3,53,intact,1,1,C,C,1100,7,30,Stimuli/Experimental_stims/outdoor_scenes/petr-vysohlid-9fqwGqGLUxc-unsplash.jpg,Stimuli/Experimental_stims/body_parts/mika-korhonen-Xodzxosar18-unsplash.jpg,NaN,0,NaN,0,37,2,outdoor_scenes,body_parts,,1
53,56445,0,1,3,54,recombined,0,1,,D,2400,39,17,Stimuli/Experimental_stims/objects/charlesdeluvio-1-nx1QR5dTE-unsplash.jpg,Stimuli/Experimental_stims/faces/good-faces-xmSWVeGEnJw-unsplash.jpg,NaN,0,NaN,0,37,2,objects,faces,,1
54,56445,0,1,3,55,intact,1,1,G,G,1500,36,9,Stimuli/Experimental_stims/objects/alexander-andrews-JYGnB9gTCls-unsplash.jpg,Stimuli/Experimental_stims/outdoor_scenes/sergey-pesterev-y-b_FOmJXdg-unsplash.jpg,NaN,0,NaN,0,37,2,objects,outdoor_scenes,,1
55,56445,0,1,3,56,recombined,0,0,,F,1200,42,15,Stimuli/Experimental_stims/objects/jess-bailey-nOeVi8DsN8U-unsplash.jpg,Stimuli/Experimental_stims/faces/erik-lucatero-d2MSDujJl2g-unsplash.jpg,NaN,0,NaN,0,37,2,objects,faces,,1
56,56445,0,1,3,57,recombined,0,0,,G,1900,22,36,Stimuli/Experimental_stims/faces/ravi-patel-VMGAbeeJTKo-unsplash.jpg,Stimuli/Experimental_stims/objects/alexander-andrews-JYGnB9gTCls-unsplash.jpg,NaN,0,NaN,0,37,2,faces,objects,,1
57,56445,0,1,3,58,intact,1,1,H,H,2900,18,11,Stimuli/Experimental_stims/faces/jessica-radanavong-mrYkTuAesKE-unsplash.jpg,Stimuli/Experimental_stims/outdoor_scenes/stephen-leonardi-gyIRjKPXupE-unsplash.jpg,NaN,0,NaN,1,37,2,faces,outdoor_scenes,,1
58,56445,0,1,3,59,intact,1,1,B,B,1500,6,22,Stimuli/Experimental_stims/outdoor_scenes/meng-ji-8BH_M-53CyA-unsplash.jpg,Stimuli/Experimental_stims/faces/ravi-patel-VMGAbeeJTKo-unsplash.jpg,NaN,0,NaN,0,37,2,outdoor_scenes,faces,,1
59,56445,0,1,3,60,recombined,0,1,,B,2200,6,34,Stimuli/Experimental_stims/outdoor_scenes/meng-ji-8BH_M-53CyA-unsplash.jpg,Stimuli/Experimental_stims/body_parts/wagner-santos-mBWMvIuVnso-unsplash.jpg,NaN,0,NaN,0,37,2,outdoor_scenes,body_parts,,1
60,56445,0,1,3,61,intact,1,1,F,F,2400,15,24,Stimuli/Experimental_stims/faces/erik-lucatero-d2MSDujJl2g-unsplash.jpg,Stimuli/Experimental_stims/body_parts/clay-banks-LjqARJaJotc-unsplash.jpg,NaN,0,NaN,0,37,2,faces,body_parts,,1
61,56445,0,1,3,62,recombined,0,1,,J,2500,13,46,Stimuli/Experimental_stims/faces/daniel-rigdon-dXmXKPP2L4E-unsplash.jpg,Stimuli/Experimental_stims/objects/mockup-graphics-PNsj6RiHAF4-unsplash.jpg,NaN,0,NaN,0,37,2,faces,objects,,1
62,56445,0,1,3,63,intact,1,1,K,K,1700,29,40,Stimuli/Experimental_stims/body_parts/manuel-schinner-ZwjFuJ7ebpk-unsplash.jpg,Stimuli/Experimental_stims/objects/fabian-blank-pElSkGRA2NU-unsplash.jpg,NaN,0,NaN,0,37,2,body_parts,objects,,1
63,56445,0,1,3,64,recombined,0,0,,A,1400,30,8,Stimuli/Experimental_stims/body_parts/mika-korhonen-Xodzxosar18-unsplash.jpg,Stimuli/Experimental_stims/outdoor_scenes/samsommer-vddccTqwal8-unsplash.jpg,NaN,0,NaN,0,37,2,body_parts,outdoor_scenes,,1
64,56445,0,1,3,65,intact,1,1,L,L,3000,26,17,Stimuli/Experimental_stims/body_parts/engin-akyurt-x_3gyC42btc-unsplash.jpg,Stimuli/Experimental_stims/faces/good-faces-xmSWVeGEnJw-unsplash.jpg,NaN,0,NaN,1,37,2,body_parts,faces,,1
65,56445,0,1,3,66,recombined,0,0,,E,2500,21,43,Stimuli/Experimental_stims/faces/leilani-angel-K84vnnzxmTQ-unsplash.jpg,Stimuli/Experimental_stims/objects/jonathan-greenaway-Y4hGgeiFn3s-unsplash.jpg,NaN,0,NaN,0,37,2,faces,objects,,1
66,56445,0,1,3,67,recombined,0,1,,I,2400,32,9,Stimuli/Experimental_stims/body_parts/towfiqu-barbhuiya-3AsiVDsZnHg-unsplash.jpg,Stimuli/Experimental_stims/outdoor_scenes/sergey-pesterev-y-b_FOmJXdg-unsplash.jpg,NaN,0,NaN,0,37,2,body_parts,outdoor_scenes,,1
67,56445,0,1,3,68,intact,1,1,D,D,1600,39,21,Stimuli/Experimental_stims/objects/charlesdeluvio-1-nx1QR5dTE-unsplash.jpg,Stimuli/Experimental_stims/faces/leilani-angel-K84vnnzxmTQ-unsplash.jpg,NaN,0,NaN,0,37,2,objects,faces,,1
68,56445,0,1,3,69,intact,1,1,J,J,2400,13,42,Stimuli/Experimental_stims/faces/daniel-rigdon-dXmXKPP2L4E-unsplash.jpg,Stimuli/Experimental_stims/objects/jess-bailey-nOeVi8DsN8U-unsplash.jpg,NaN,0,NaN,0,37,2,faces,objects,,1
69,56445,0,1,3,70,recombined,0,1,,H,1700,18,40,Stimuli/Experimental_stims/faces/jessica-radanavong-mrYkTuAesKE-unsplash.jpg,Stimuli/Experimental_stims/objects/fabian-blank-pElSkGRA2NU-unsplash.jpg,NaN,0,NaN,0,37,2,faces,objects,,1
70,56445,0,1,3,71,intact,1,1,E,E,2200,43,34,Stimuli/Experimental_stims/objects/jonathan-greenaway-Y4hGgeiFn3s-unsplash.jpg,Stimuli/Experimental_stims/body_parts/wagner-santos-mBWMvIuVnso-unsplash.jpg,NaN,0,NaN,0,37,2,objects,body_parts,,1
71,56445,0,1,3,72,recombined,0,0,,K,2900,4,29,Stimuli/Experimental_stims/outdoor_scenes/jarrett-kow-1ZOyYPOBn7I-unsplash.jpg,Stimuli/Experimental_stims/body_parts/manuel-schinner-ZwjFuJ7ebpk-unsplash.jpg,NaN,0,NaN,1,37,2,outdoor_scenes,body_parts,,1
72,56445,0,1,3,73,intact,1,1,I,I,1500,32,4,Stimuli/Experimental_stims/body_parts/towfiqu-barbhuiya-3AsiVDsZnHg-unsplash.jpg,Stimuli/Experimental_stims/outdoor_scenes/jarrett-kow-1ZOyYPOBn7I-unsplash.jpg,NaN,0,NaN,0,37,2,body_parts,outdoor_scenes,,1
73,56445,0,1,3,74,intact,1,1,A,A,1800,8,46,Stimuli/Experimental_stims/outdoor_scenes/samsommer-vddccTqwal8-unsplash.jpg,Stimuli/Experimental_stims/objects/mockup-graphics-PNsj6RiHAF4-unsplash.jpg,NaN,0,NaN,0,37,2,outdoor_scenes,objects,,1
74,56445,0,1,3,75,recombined,0,0,,C,1200,24,7,Stimuli/Experimental_stims/body_parts/clay-banks-LjqARJaJotc-unsplash.jpg,Stimuli/Experimental_stims/outdoor_scenes/petr-vysohlid-9fqwGqGLUxc-unsplash.jpg,NaN,0,NaN,0,37,2,body_parts,outdoor_scenes,,1
75,56445,0,1,4,76,intact,1,1,F,F,2200,15,24,Stimuli/Experimental_stims/faces/erik-lucatero-d2MSDujJl2g-unsplash.jpg,Stimuli/Experimental_stims/body_parts/clay-banks-LjqARJaJotc-unsplash.jpg,NaN,0,NaN,0,37,2,faces,body_parts,,1
76,56445,0,1,4,77,intact,1,1,B,B,1200,6,22,Stimuli/Experimental_stims/outdoor_scenes/meng-ji-8BH_M-53CyA-unsplash.jpg,Stimuli/Experimental_stims/faces/ravi-patel-VMGAbeeJTKo-unsplash.jpg,NaN,0,NaN,0,37,2,outdoor_scenes,faces,,1
77,56445,0,1,4,78,recombined,0,1,,E,1000,43,21,Stimuli/Experimental_stims/objects/jonathan-greenaway-Y4hGgeiFn3s-unsplash.jpg,Stimuli/Experimental_stims/faces/leilani-angel-K84vnnzxmTQ-unsplash.jpg,NaN,0,NaN,0,37,2,objects,faces,,1
78,56445,0,1,4,79,recombined,0,0,,L,1000,11,26,Stimuli/Experimental_stims/outdoor_scenes/stephen-leonardi-gyIRjKPXupE-unsplash.jpg,Stimuli/Experimental_stims/body_parts/engin-akyurt-x_3gyC42btc-unsplash.jpg,NaN,0,NaN,0,37,2,outdoor_scenes,body_parts,,1
79,56445,0,1,4,80,intact,1,1,E,E,1700,43,34,Stimuli/Experimental_stims/objects/jonathan-greenaway-Y4hGgeiFn3s-unsplash.jpg,Stimuli/Experimental_stims/body_parts/wagner-santos-mBWMvIuVnso-unsplash.jpg,NaN,0,NaN,0,37,2,objects,body_parts,,1
80,56445,0,1,4,81,recombined,0,1,,D,1800,39,17,Stimuli/Experimental_stims/objects/charlesdeluvio-1-nx1QR5dTE-unsplash.jpg,Stimuli/Experimental_stims/faces/good-faces-xmSWVeGEnJw-unsplash.jpg,NaN,0,NaN,0,37,2,objects,faces,,1
81,56445,0,1,4,82,intact,1,1,L,L,1200,26,17,Stimuli/Experimental_stims/body_parts/engin-akyurt-x_3gyC42btc-unsplash.jpg,Stimuli/Experimental_stims/faces/good-faces-xmSWVeGEnJw-unsplash.jpg,NaN,0,NaN,0,37,2,body_parts,faces,,1
82,56445,0,1,4,83,recombined,0,0,,K,2000,4,29,Stimuli/Experimental_stims/outdoor_scenes/jarrett-kow-1ZOyYPOBn7I-unsplash.jpg,Stimuli/Experimental_stims/body_parts/manuel-schinner-ZwjFuJ7ebpk-unsplash.jpg,NaN,0,NaN,0,37,2,outdoor_scenes,body_parts,,1
83,56445,0,1,4,84,intact,1,1,I,I,1800,32,4,Stimuli/Experimental_stims/body_parts/towfiqu-barbhuiya-3AsiVDsZnHg-unsplash.jpg,Stimuli/Experimental_stims/outdoor_scenes/jarrett-kow-1ZOyYPOBn7I-unsplash.jpg,NaN,0,NaN,0,37,2,body_parts,outdoor_scenes,,1
84,56445,0,1,4,85,intact,1,1,A,A,3700,8,46,Stimuli/Experimental_stims/outdoor_scenes/samsommer-vddccTqwal8-unsplash.jpg,Stimuli/Experimental_stims/objects/mockup-graphics-PNsj6RiHAF4-unsplash.jpg,NaN,0,NaN,1,37,2,outdoor_scenes,objects,,1
85,56445,0,1,4,86,recombined,0,0,,A,2200,30,8,Stimuli/Experimental_stims/body_parts/mika-korhonen-Xodzxosar18-unsplash.jpg,Stimuli/Experimental_stims/outdoor_scenes/samsommer-vddccTqwal8-unsplash.jpg,NaN,0,NaN,0,37,2,body_parts,outdoor_scenes,,1
86,56445,0,1,4,87,recombined,0,1,,G,1300,36,22,Stimuli/Experimental_stims/objects/alexander-andrews-JYGnB9gTCls-unsplash.jpg,Stimuli/Experimental_stims/faces/ravi-patel-VMGAbeeJTKo-unsplash.jpg,NaN,0,NaN,0,37,2,objects,faces,,1
87,56445,0,1,4,88,intact,1,1,G,G,2000,36,9,Stimuli/Experimental_stims/objects/alexander-andrews-JYGnB9gTCls-unsplash.jpg,Stimuli/Experimental_stims/outdoor_scenes/sergey-pesterev-y-b_FOmJXdg-unsplash.jpg,NaN,0,NaN,0,37,2,objects,outdoor_scenes,,1
88,56445,0,1,4,89,intact,1,1,C,C,2100,7,30,Stimuli/Experimental_stims/outdoor_scenes/petr-vysohlid-9fqwGqGLUxc-unsplash.jpg,Stimuli/Experimental_stims/body_parts/mika-korhonen-Xodzxosar18-unsplash.jpg,NaN,0,NaN,0,37,2,outdoor_scenes,body_parts,,1
89,56445,0,1,4,90,recombined,0,0,,C,2100,24,7,Stimuli/Experimental_stims/body_parts/clay-banks-LjqARJaJotc-unsplash.jpg,Stimuli/Experimental_stims/outdoor_scenes/petr-vysohlid-9fqwGqGLUxc-unsplash.jpg,NaN,0,NaN,0,37,2,body_parts,outdoor_scenes,,1
90,56445,0,1,4,91,recombined,0,1,,H,2300,18,40,Stimuli/Experimental_stims/faces/jessica-radanavong-mrYkTuAesKE-unsplash.jpg,Stimuli/Experimental_stims/objects/fabian-blank-pElSkGRA2NU-unsplash.jpg,NaN,0,NaN,0,37,2,faces,objects,,1
91,56445,0,1,4,92,intact,1,1,D,D,4500,39,21,Stimuli/Experimental_stims/objects/charlesdeluvio-1-nx1QR5dTE-unsplash.jpg,Stimuli/Experimental_stims/faces/leilani-angel-K84vnnzxmTQ-unsplash.jpg,NaN,0,NaN,1,37,2,objects,faces,,1
92,56445,0,1,4,93,intact,1,1,J,J,1200,13,42,Stimuli/Experimental_stims/faces/daniel-rigdon-dXmXKPP2L4E-unsplash.jpg,Stimuli/Experimental_stims/objects/jess-bailey-nOeVi8DsN8U-unsplash.jpg,NaN,0,NaN,0,37,2,faces,objects,,1
93,56445,0,1,4,94,recombined,0,1,,J,2200,13,46,Stimuli/Experimental_stims/faces/daniel-rigdon-dXmXKPP2L4E-unsplash.jpg,Stimuli/Experimental_stims/objects/mockup-graphics-PNsj6RiHAF4-unsplash.jpg,NaN,0,NaN,0,37,2,faces,objects,,1
94,56445,0,1,4,95,recombined,0,0,,I,1300,9,32,Stimuli/Experimental_stims/outdoor_scenes/sergey-pesterev-y-b_FOmJXdg-unsplash.jpg,Stimuli/Experimental_stims/body_parts/towfiqu-barbhuiya-3AsiVDsZnHg-unsplash.jpg,NaN,0,NaN,0,37,2,outdoor_scenes,body_parts,,1
95,56445,0,1,4,96,intact,1,1,K,K,1400,29,40,Stimuli/Experimental_stims/body_parts/manuel-schinner-ZwjFuJ7ebpk-unsplash.jpg,Stimuli/Experimental_stims/objects/fabian-blank-pElSkGRA2NU-unsplash.jpg,NaN,0,NaN,0,37,2,body_parts,objects,,1
96,56445,0,1,4,97,recombined,0,0,,F,2000,42,15,Stimuli/Experimental_stims/objects/jess-bailey-nOeVi8DsN8U-unsplash.jpg,Stimuli/Experimental_stims/faces/erik-lucatero-d2MSDujJl2g-unsplash.jpg,NaN,0,NaN,0,37,2,objects,faces,,1
97,56445,0,1,4,98,recombined,0,1,,B,1000,6,34,Stimuli/Experimental_stims/outdoor_scenes/meng-ji-8BH_M-53CyA-unsplash.jpg,Stimuli/Experimental_stims/body_parts/wagner-santos-mBWMvIuVnso-unsplash.jpg,NaN,0,NaN,0,37,2,outdoor_scenes,body_parts,,1
98,56445,0,1,4,99,intact,1,1,H,H,4100,18,11,Stimuli/Experimental_stims/faces/jessica-radanavong-mrYkTuAesKE-unsplash.jpg,Stimuli/Experimental_stims/outdoor_scenes/stephen-leonardi-gyIRjKPXupE-unsplash.jpg,NaN,0,NaN,1,37,2,faces,outdoor_scenes,,1