,PID,practice,run,block,trial,pair_type,old_pair,chosen_left,pair_id,chosen_id,iti,left_stimulus,right_stimulus,left_path,right_path,old_response,pair_acc,pair_rt,long_iti,simulation,version,left_category,right_category
0,98647,1,0,0,1,,0,0,,,1500,,,Stimuli/Practice_stims/Memory/annie-spratt-g9KFpAfQ5bc-unsplash.jpg,Stimuli/Practice_stims/Memory/charl-durand-bsfXvI25iNg-unsplash.jpg,NaN,NaN,NaN,0,30,4,NaN,NaN
1,98647,1,0,0,2,,0,0,,,1000,,,Stimuli/Practice_stims/Memory/charl-durand-bsfXvI25iNg-unsplash.jpg,Stimuli/Practice_stims/Memory/jimmy-dean-Yn0l7uwBrpw-unsplash.jpg,NaN,NaN,NaN,0,30,4,NaN,NaN
2,98647,1,0,0,3,,0,0,,,3000,,,Stimuli/Practice_stims/Memory/jimmy-dean-Yn0l7uwBrpw-unsplash.jpg,Stimuli/Practice_stims/Memory/annie-spratt-g9KFpAfQ5bc-unsplash.jpg,NaN,NaN,NaN,0,30,4,NaN,NaN
3,98647,0,1,1,4,intact,1,0,H,H,3800,23,7,Stimuli/Experimental_stims/faces/rikonavt-HQjfrvdTfak-unsplash.jpg,Stimuli/Experimental_stims/outdoor_scenes/petr-vysohlid-9fqwGqGLUxc-unsplash.jpg,NaN,NaN,NaN,1,30,4,faces,outdoor_scenes
4,98647,0,1,1,5,intact,1,0,A,A,1300,5,36,Stimuli/Experimental_stims/outdoor_scenes/jeff-king-bJHWJeiHfHc-unsplash.jpg,Stimuli/Experimental_stims/objects/alexander-andrews-JYGnB9gTCls-unsplash.jpg,NaN,NaN,NaN,0,30,4,outdoor_scenes,objects
5,98647,0,1,1,6,recombined,0,1,,L,1400,15,42,Stimuli/Experimental_stims/faces/erik-lucatero-d2MSDujJl2g-unsplash.jpg,Stimuli/Experimental_stims/objects/jess-bailey-nOeVi8DsN8U-unsplash.jpg,NaN,NaN,NaN,0,30,4,faces,objects
6,98647,0,1,1,7,intact,1,0,J,J,1100,12,44,Stimuli/Experimental_stims/faces/aiony-haust-jmATI5Q_YgY-unsplash.jpg,Stimuli/Experimental_stims/objects/kuiye-chen-NuOGFo4PudE-unsplash.jpg,NaN,NaN,NaN,0,30,4,faces,objects
7,98647,0,1,1,8,intact,1,0,D,D,2700,42,14,Stimuli/Experimental_stims/objects/jess-bailey-nOeVi8DsN8U-unsplash.jpg,Stimuli/Experimental_stims/faces/david-siglin-UuW4psOb388-unsplash.jpg,NaN,NaN,NaN,0,30,4,objects,faces
8,98647,0,1,1,9,recombined,0,1,,F,2800,30,10,Stimuli/Experimental_stims/body_parts/mika-korhonen-Xodzxosar18-unsplash.jpg,Stimuli/Experimental_stims/outdoor_scenes/shannon-kunkle-dM8INmkyDas-unsplash.jpg,NaN,NaN,NaN,1,30,4,body_parts,outdoor_scenes
9,98647,0,1,1,10,recombined,0,0,,H,1200,29,7,Stimuli/Experimental_stims/body_parts/manuel-schinner-ZwjFuJ7ebpk-unsplash.jpg,Stimuli/Experimental_stims/outdoor_scenes/petr-vysohlid-9fqwGqGLUxc-unsplash.jpg,NaN,NaN,NaN,0,30,4,body_parts,outdoor_scenes
10,98647,0,1,1,11,intact,1,0,G,G,1100,38,9,Stimuli/Experimental_stims/objects/art-lasovsky-8XddFc6NkBY-unsplash.jpg,Stimuli/Experimental_stims/outdoor_scenes/sergey-pesterev-y-b_FOmJXdg-unsplash.jpg,NaN,NaN,NaN,0,30,4,objects,outdoor_scenes
11,98647,0,1,1,12,intact,1,1,I,I,1200,28,10,Stimuli/Experimental_stims/body_parts/ira-vishnevskaya-8DQAvdCby1I-unsplash.jpg,Stimuli/Experimental_stims/outdoor_scenes/shannon-kunkle-dM8INmkyDas-unsplash.jpg,NaN,NaN,NaN,0,30,4,body_parts,outdoor_scenes
12,98647,0,1,1,13,recombined,0,0,,C,1300,43,33,Stimuli/Experimental_stims/objects/jonathan-greenaway-Y4hGgeiFn3s-unsplash.jpg,Stimuli/Experimental_stims/body_parts/tucker-good-36skLT5jZcc-unsplash.jpg,NaN,NaN,NaN,0,30,4,objects,body_parts
13,98647,0,1,1,14,intact,1,1,K,K,2000,31,43,Stimuli/Experimental_stims/body_parts/sincerely-media-VN6DbKajo5s-unsplash.jpg,Stimuli/Experimental_stims/objects/jonathan-greenaway-Y4hGgeiFn3s-unsplash.jpg,NaN,NaN,NaN,0,30,4,body_parts,objects
14,98647,0,1,1,15,recombined,0,1,,A,2400,36,23,Stimuli/Experimental_stims/objects/alexander-andrews-JYGnB9gTCls-unsplash.jpg,Stimuli/Experimental_stims/faces/rikonavt-HQjfrvdTfak-unsplash.jpg,NaN,NaN,NaN,0,30,4,objects,faces
15,98647,0,1,1,16,intact,1,0,B,B,1400,6,17,Stimuli/Experimental_stims/outdoor_scenes/meng-ji-8BH_M-53CyA-unsplash.jpg,Stimuli/Experimental_stims/faces/good-faces-xmSWVeGEnJw-unsplash.jpg,NaN,NaN,NaN,0,30,4,outdoor_scenes,faces
16,98647,0,1,1,17,recombined,0,1,,J,1300,44,22,Stimuli/Experimental_stims/objects/kuiye-chen-NuOGFo4PudE-unsplash.jpg,Stimuli/Experimental_stims/faces/ravi-patel-VMGAbeeJTKo-unsplash.jpg,NaN,NaN,NaN,0,30,4,objects,faces
17,98647,0,1,1,18,recombined,0,0,,I,1900,3,28,Stimuli/Experimental_stims/outdoor_scenes/henry-be-NLF6hTe4PAg-unsplash.jpg,Stimuli/Experimental_stims/body_parts/ira-vishnevskaya-8DQAvdCby1I-unsplash.jpg,NaN,NaN,NaN,0,30,4,outdoor_scenes,body_parts
18,98647,0,1,1,19,intact,1,0,F,F,3800,22,30,Stimuli/Experimental_stims/faces/ravi-patel-VMGAbeeJTKo-unsplash.jpg,Stimuli/Experimental_stims/body_parts/mika-korhonen-Xodzxosar18-unsplash.jpg,NaN,NaN,NaN,1,30,4,faces,body_parts
19,98647,0,1,1,20,recombined,0,0,,E,2100,6,25,Stimuli/Experimental_stims/outdoor_scenes/meng-ji-8BH_M-53CyA-unsplash.jpg,Stimuli/Experimental_stims/body_parts/engin-akyurt-Q2rfH3GW39c-unsplash.jpg,NaN,NaN,NaN,0,30,4,outdoor_scenes,body_parts
20,98647,0,1,1,21,intact,1,0,L,L,1600,29,15,Stimuli/Experimental_stims/body_parts/manuel-schinner-ZwjFuJ7ebpk-unsplash.jpg,Stimuli/Experimental_stims/faces/erik-lucatero-d2MSDujJl2g-unsplash.jpg,NaN,NaN,NaN,0,30,4,body_parts,faces
21,98647,0,1,1,22,recombined,0,1,,K,2000,31,5,Stimuli/Experimental_stims/body_parts/sincerely-media-VN6DbKajo5s-unsplash.jpg,Stimuli/Experimental_stims/outdoor_scenes/jeff-king-bJHWJeiHfHc-unsplash.jpg,NaN,NaN,NaN,0,30,4,body_parts,outdoor_scenes
22,98647,0,1,1,23,intact,1,0,C,C,1200,3,33,Stimuli/Experimental_stims/outdoor_scenes/henry-be-NLF6hTe4PAg-unsplash.jpg,Stimuli/Experimental_stims/body_parts/tucker-good-36skLT5jZcc-unsplash.jpg,NaN,NaN,NaN,0,30,4,outdoor_scenes,body_parts
23,98647,0,1,1,24,recombined,0,0,,B,1300,40,17,Stimuli/Experimental_stims/objects/fabian-blank-pElSkGRA2NU-unsplash.jpg,Stimuli/Experimental_stims/faces/good-faces-xmSWVeGEnJw-unsplash.jpg,NaN,NaN,NaN,0,30,4,objects,faces
24,98647,0,1,1,25,intact,1,0,E,E,1200,40,25,Stimuli/Experimental_stims/objects/fabian-blank-pElSkGRA2NU-unsplash.jpg,Stimuli/Experimental_stims/body_parts/engin-akyurt-Q2rfH3GW39c-unsplash.jpg,NaN,NaN,NaN,0,30,4,objects,body_parts
25,98647,0,1,1,26,recombined,0,0,,G,1100,12,9,Stimuli/Experimental_stims/faces/aiony-haust-jmATI5Q_YgY-unsplash.jpg,Stimuli/Experimental_stims/outdoor_scenes/sergey-pesterev-y-b_FOmJXdg-unsplash.jpg,NaN,NaN,NaN,0,30,4,faces,outdoor_scenes
26,98647,0,1,1,27,recombined,0,1,,D,1900,14,38,Stimuli/Experimental_stims/faces/david-siglin-UuW4psOb388-unsplash.jpg,Stimuli/Experimental_stims/objects/art-lasovsky-8XddFc6NkBY-unsplash.jpg,NaN,NaN,NaN,0,30,4,faces,objects
27,98647,0,1,2,28,intact,1,0,F,F,1700,22,30,Stimuli/Experimental_stims/faces/ravi-patel-VMGAbeeJTKo-unsplash.jpg,Stimuli/Experimental_stims/body_parts/mika-korhonen-Xodzxosar18-unsplash.jpg,NaN,NaN,NaN,0,30,4,faces,body_parts
28,98647,0,1,2,29,recombined,0,0,,F,2100,10,30,Stimuli/Experimental_stims/outdoor_scenes/shannon-kunkle-dM8INmkyDas-unsplash.jpg,Stimuli/Experimental_stims/body_parts/mika-korhonen-Xodzxosar18-unsplash.jpg,NaN,NaN,NaN,0,30,4,outdoor_scenes,body_parts
29,98647,0,1,2,30,recombined,0,0,,E,2000,6,25,Stimuli/Experimental_stims/outdoor_scenes/meng-ji-8BH_M-53CyA-unsplash.jpg,Stimuli/Experimental_stims/body_parts/engin-akyurt-Q2rfH3GW39c-unsplash.jpg,NaN,NaN,NaN,0,30,4,outdoor_scenes,body_parts
30,98647,0,1,2,31,intact,1,0,D,D,3300,42,14,Stimuli/Experimental_stims/objects/jess-bailey-nOeVi8DsN8U-unsplash.jpg,Stimuli/Experimental_stims/faces/david-siglin-UuW4psOb388-unsplash.jpg,NaN,NaN,NaN,1,30,4,objects,faces
31,98647,0,1,2,32,recombined,0,1,,D,2700,14,38,Stimuli/Experimental_stims/faces/david-siglin-UuW4psOb388-unsplash.jpg,Stimuli/Experimental_stims/objects/art-lasovsky-8XddFc6NkBY-unsplash.jpg,NaN,NaN,NaN,0,30,4,faces,objects
32,98647,0,1,2,33,intact,1,0,B,B,2700,6,17,Stimuli/Experimental_stims/outdoor_scenes/meng-ji-8BH_M-53CyA-unsplash.jpg,Stimuli/Experimental_stims/faces/good-faces-xmSWVeGEnJw-unsplash.jpg,NaN,NaN,NaN,0,30,4,outdoor_scenes,faces
33,98647,0,1,2,34,recombined,0,0,,C,1600,43,33,Stimuli/Experimental_stims/objects/jonathan-greenaway-Y4hGgeiFn3s-unsplash.jpg,Stimuli/Experimental_stims/body_parts/tucker-good-36skLT5jZcc-unsplash.jpg,NaN,NaN,NaN,0,30,4,objects,body_parts
34,98647,0,1,2,35,recombined,0,1,,L,1000,15,42,Stimuli/Experimental_stims/faces/erik-lucatero-d2MSDujJl2g-unsplash.jpg,Stimuli/Experimental_stims/objects/jess-bailey-nOeVi8DsN8U-unsplash.jpg,NaN,NaN,NaN,0,30,4,faces,objects
35,98647,0,1,2,36,intact,1,1,I,I,1600,28,10,Stimuli/Experimental_stims/body_parts/ira-vishnevskaya-8DQAvdCby1I-unsplash.jpg,Stimuli/Experimental_stims/outdoor_scenes/shannon-kunkle-dM8INmkyDas-unsplash.jpg,NaN,NaN,NaN,0,30,4,body_parts,outdoor_scenes
36,98647,0,1,2,37,intact,1,0,L,L,1300,29,15,Stimuli/Experimental_stims/body_parts/manuel-schinner-ZwjFuJ7ebpk-unsplash.jpg,Stimuli/Experimental_stims/faces/erik-lucatero-d2MSDujJl2g-unsplash.jpg,NaN,NaN,NaN,0,30,4,body_parts,faces
37,98647,0,1,2,38,recombined,0,0,,H,2400,29,7,Stimuli/Experimental_stims/body_parts/manuel-schinner-ZwjFuJ7ebpk-unsplash.jpg,Stimuli/Experimental_stims/outdoor_scenes/petr-vysohlid-9fqwGqGLUxc-unsplash.jpg,NaN,NaN,NaN,0,30,4,body_parts,outdoor_scenes
38,98647,0,1,2,39,intact,1,0,C,C,1500,3,33,Stimuli/Experimental_stims/outdoor_scenes/henry-be-NLF6hTe4PAg-unsplash.jpg,Stimuli/Experimental_stims/body_parts/tucker-good-36skLT5jZcc-unsplash.jpg,NaN,NaN,NaN,0,30,4,outdoor_scenes,body_parts
39,98647,0,1,2,40,recombined,0,1,,K,1400,31,5,Stimuli/Experimental_stims/body_parts/sincerely-media-VN6DbKajo5s-unsplash.jpg,Stimuli/Experimental_stims/outdoor_scenes/jeff-king-bJHWJeiHfHc-unsplash.jpg,NaN,NaN,NaN,0,30,4,body_parts,outdoor_scenes
40,98647,0,1,2,41,intact,1,1,K,K,4800,31,43,Stimuli/Experimental_stims/body_parts/sincerely-media-VN6DbKajo5s-unsplash.jpg,Stimuli/Experimental_stims/objects/jonathan-greenaway-Y4hGgeiFn3s-unsplash.jpg,NaN,NaN,NaN,1,30,4,body_parts,objects
41,98647,0,1,2,42,recombined,0,1,,J,2600,44,22,Stimuli/Experimental_stims/objects/kuiye-chen-NuOGFo4PudE-unsplash.jpg,Stimuli/Experimental_stims/faces/ravi-patel-VMGAbeeJTKo-unsplash.jpg,NaN,NaN,NaN,0,30,4,objects,faces
42,98647,0,1,2,43,recombined,0,0,,B,1900,40,17,Stimuli/Experimental_stims/objects/fabian-blank-pElSkGRA2NU-unsplash.jpg,Stimuli/Experimental_stims/faces/good-faces-xmSWVeGEnJw-unsplash.jpg,NaN,NaN,NaN,0,30,4,objects,faces
43,98647,0,1,2,44,intact,1,0,A,A,1600,5,36,Stimuli/Experimental_stims/outdoor_scenes/jeff-king-bJHWJeiHfHc-unsplash.jpg,Stimuli/Experimental_stims/objects/alexander-andrews-JYGnB9gTCls-unsplash.jpg,NaN,NaN,NaN,0,30,4,outdoor_scenes,objects
44,98647,0,1,2,45,recombined,0,1,,G,1200,9,12,Stimuli/Experimental_stims/outdoor_scenes/sergey-pesterev-y-b_FOmJXdg-unsplash.jpg,Stimuli/Experimental_stims/faces/aiony-haust-jmATI5Q_YgY-unsplash.jpg,NaN,NaN,NaN,0,30,4,outdoor_scenes,faces
45,98647,0,1,2,46,intact,1,0,H,H,3100,23,7,Stimuli/Experimental_stims/faces/rikonavt-HQjfrvdTfak-unsplash.jpg,Stimuli/Experimental_stims/outdoor_scenes/petr-vysohlid-9fqwGqGLUxc-unsplash.jpg,NaN,NaN,NaN,1,30,4,faces,outdoor_scenes
46,98647,0,1,2,47,recombined,0,1,,A,2500,36,23,Stimuli/Experimental_stims/objects/alexander-andrews-JYGnB9gTCls-unsplash.jpg,Stimuli/Experimental_stims/faces/rikonavt-HQjfrvdTfak-unsplash.jpg,NaN,NaN,NaN,0,30,4,objects,faces
47,98647,0,1,2,48,intact,1,0,J,J,1800,12,44,Stimuli/Experimental_stims/faces/aiony-haust-jmATI5Q_YgY-unsplash.jpg,Stimuli/Experimental_stims/objects/kuiye-chen-NuOGFo4PudE-unsplash.jpg,NaN,NaN,NaN,0,30,4,faces,objects
48,98647,0,1,2,49,recombined,0,0,,I,1200,3,28,Stimuli/Experimental_stims/outdoor_scenes/henry-be-NLF6hTe4PAg-unsplash.jpg,Stimuli/Experimental_stims/body_parts/ira-vishnevskaya-8DQAvdCby1I-unsplash.jpg,NaN,NaN,NaN,0,30,4,outdoor_scenes,body_parts
49,98647,0,1,2,50,intact,1,0,G,G,2200,38,9,Stimuli/Experimental_stims/objects/art-lasovsky-8XddFc6NkBY-unsplash.jpg,Stimuli/Experimental_stims/outdoor_scenes/sergey-pesterev-y-b_FOmJXdg-unsplash.jpg,NaN,NaN,NaN,0,30,4,objects,outdoor_scenes
50,98647,0,1,2,51,intact,1,0,E,E,4700,40,25,Stimuli/Experimental_stims/objects/fabian-blank-pElSkGRA2NU-unsplash.jpg,Stimuli/Experimental_stims/body_parts/engin-akyurt-Q2rfH3GW39c-unsplash.jpg,NaN,NaN,NaN,1,30,4,objects,body_parts
51,98647,0,1,3,52,intact,1,0,A,A,3500,5,36,Stimuli/Experimental_stims/outdoor_scenes/jeff-king-bJHWJeiHfHc-unsplash.jpg,Stimuli/Experimental_stims/objects/alexander-andrews-JYGnB9gTCls-unsplash.jpg,NaN,NaN,NaN,1,37,4,outdoor_scenes,objects
52,98647,0,1,3,53,recombined,0,0,,F,1500,10,30,Stimuli/Experimental_stims/outdoor_scenes/shannon-kunkle-dM8INmkyDas-unsplash.jpg,Stimuli/Experimental_stims/body_parts/mika-korhonen-Xodzxosar18-unsplash.jpg,NaN,NaN,NaN,0,37,4,outdoor_scenes,body_parts
53,98647,0,1,3,54,intact,1,0,E,E,1600,40,25,Stimuli/Experimental_stims/objects/fabian-blank-pElSkGRA2NU-unsplash.jpg,Stimuli/Experimental_stims/body_parts/engin-akyurt-Q2rfH3GW39c-unsplash.jpg,NaN,NaN,NaN,0,37,4,objects,body_parts
54,98647,0,1,3,55,intact,1,0,J,J,1800,12,44,Stimuli/Experimental_stims/faces/aiony-haust-jmATI5Q_YgY-unsplash.jpg,Stimuli/Experimental_stims/objects/kuiye-chen-NuOGFo4PudE-unsplash.jpg,NaN,NaN,NaN,0,37,4,faces,objects
55,98647,0,1,3,56,recombined,0,0,,C,1100,43,33,Stimuli/Experimental_stims/objects/jonathan-greenaway-Y4hGgeiFn3s-unsplash.jpg,Stimuli/Experimental_stims/body_parts/tucker-good-36skLT5jZcc-unsplash.jpg,NaN,NaN,NaN,0,37,4,objects,body_parts
56,98647,0,1,3,57,recombined,0,1,,J,4300,44,22,Stimuli/Experimental_stims/objects/kuiye-chen-NuOGFo4PudE-unsplash.jpg,Stimuli/Experimental_stims/faces/ravi-patel-VMGAbeeJTKo-unsplash.jpg,NaN,NaN,NaN,1,37,4,objects,faces
57,98647,0,1,3,58,intact,1,0,H,H,1600,23,7,Stimuli/Experimental_stims/faces/rikonavt-HQjfrvdTfak-unsplash.jpg,Stimuli/Experimental_stims/outdoor_scenes/petr-vysohlid-9fqwGqGLUxc-unsplash.jpg,NaN,NaN,NaN,0,37,4,faces,outdoor_scenes
58,98647,0,1,3,59,recombined,0,1,,I,1100,28,3,Stimuli/Experimental_stims/body_parts/ira-vishnevskaya-8DQAvdCby1I-unsplash.jpg,Stimuli/Experimental_stims/outdoor_scenes/henry-be-NLF6hTe4PAg-unsplash.jpg,NaN,NaN,NaN,0,37,4,body_parts,outdoor_scenes
59,98647,0,1,3,60,intact,1,0,D,D,1400,42,14,Stimuli/Experimental_stims/objects/jess-bailey-nOeVi8DsN8U-unsplash.jpg,Stimuli/Experimental_stims/faces/david-siglin-UuW4psOb388-unsplash.jpg,NaN,NaN,NaN,0,37,4,objects,faces
60,98647,0,1,3,61,intact,1,0,G,G,2000,38,9,Stimuli/Experimental_stims/objects/art-lasovsky-8XddFc6NkBY-unsplash.jpg,Stimuli/Experimental_stims/outdoor_scenes/sergey-pesterev-y-b_FOmJXdg-unsplash.jpg,NaN,NaN,NaN,0,37,4,objects,outdoor_scenes
61,98647,0,1,3,62,recombined,0,1,,D,1400,14,38,Stimuli/Experimental_stims/faces/david-siglin-UuW4psOb388-unsplash.jpg,Stimuli/Experimental_stims/objects/art-lasovsky-8XddFc6NkBY-unsplash.jpg,NaN,NaN,NaN,0,37,4,faces,objects
62,98647,0,1,3,63,intact,1,0,C,C,2900,3,33,Stimuli/Experimental_stims/outdoor_scenes/henry-be-NLF6hTe4PAg-unsplash.jpg,Stimuli/Experimental_stims/body_parts/tucker-good-36skLT5jZcc-unsplash.jpg,NaN,NaN,NaN,0,37,4,outdoor_scenes,body_parts
63,98647,0,1,3,64,recombined,0,0,,E,3500,6,25,Stimuli/Experimental_stims/outdoor_scenes/meng-ji-8BH_M-53CyA-unsplash.jpg,Stimuli/Experimental_stims/body_parts/engin-akyurt-Q2rfH3GW39c-unsplash.jpg,NaN,NaN,NaN,1,37,4,outdoor_scenes,body_parts
64,98647,0,1,3,65,intact,1,1,I,I,1500,28,10,Stimuli/Experimental_stims/body_parts/ira-vishnevskaya-8DQAvdCby1I-unsplash.jpg,Stimuli/Experimental_stims/outdoor_scenes/shannon-kunkle-dM8INmkyDas-unsplash.jpg,NaN,NaN,NaN,0,37,4,body_parts,outdoor_scenes
65,98647,0,1,3,66,intact,1,0,L,L,2900,29,15,Stimuli/Experimental_stims/body_parts/manuel-schinner-ZwjFuJ7ebpk-unsplash.jpg,Stimuli/Experimental_stims/faces/erik-lucatero-d2MSDujJl2g-unsplash.jpg,NaN,NaN,NaN,0,37,4,body_parts,faces
66,98647,0,1,3,67,recombined,0,1,,H,1400,7,29,Stimuli/Experimental_stims/outdoor_scenes/petr-vysohlid-9fqwGqGLUxc-unsplash.jpg,Stimuli/Experimental_stims/body_parts/manuel-schinner-ZwjFuJ7ebpk-unsplash.jpg,NaN,NaN,NaN,0,37,4,outdoor_scenes,body_parts
67,98647,0,1,3,68,intact,1,1,K,K,1200,31,43,Stimuli/Experimental_stims/body_parts/sincerely-media-VN6DbKajo5s-unsplash.jpg,Stimuli/Experimental_stims/objects/jonathan-greenaway-Y4hGgeiFn3s-unsplash.jpg,NaN,NaN,NaN,0,37,4,body_parts,objects
68,98647,0,1,3,69,recombined,0,1,,B,1100,17,40,Stimuli/Experimental_stims/faces/good-faces-xmSWVeGEnJw-unsplash.jpg,Stimuli/Experimental_stims/objects/fabian-blank-pElSkGRA2NU-unsplash.jpg,NaN,NaN,NaN,0,37,4,faces,objects
69,98647,0,1,3,70,intact,1,0,F,F,4700,22,30,Stimuli/Experimental_stims/faces/ravi-patel-VMGAbeeJTKo-unsplash.jpg,Stimuli/Experimental_stims/body_parts/mika-korhonen-Xodzxosar18-unsplash.jpg,NaN,NaN,NaN,1,37,4,faces,body_parts
70,98647,0,1,3,71,recombined,0,0,,A,2300,23,36,Stimuli/Experimental_stims/faces/rikonavt-HQjfrvdTfak-unsplash.jpg,Stimuli/Experimental_stims/objects/alexander-andrews-JYGnB9gTCls-unsplash.jpg,NaN,NaN,NaN,0,37,4,faces,objects
71,98647,0,1,3,72,recombined,0,1,,L,1700,15,42,Stimuli/Experimental_stims/faces/erik-lucatero-d2MSDujJl2g-unsplash.jpg,Stimuli/Experimental_stims/objects/jess-bailey-nOeVi8DsN8U-unsplash.jpg,NaN,NaN,NaN,0,37,4,faces,objects
72,98647,0,1,3,73,intact,1,0,B,B,1100,6,17,Stimuli/Experimental_stims/outdoor_scenes/meng-ji-8BH_M-53CyA-unsplash.jpg,Stimuli/Experimental_stims/faces/good-faces-xmSWVeGEnJw-unsplash.jpg,NaN,NaN,NaN,0,37,4,outdoor_scenes,faces
73,98647,0,1,3,74,recombined,0,0,,G,2400,12,9,Stimuli/Experimental_stims/faces/aiony-haust-jmATI5Q_YgY-unsplash.jpg,Stimuli/Experimental_stims/outdoor_scenes/sergey-pesterev-y-b_FOmJXdg-unsplash.jpg,NaN,NaN,NaN,0,37,4,faces,outdoor_scenes
74,98647,0,1,3,75,recombined,0,0,,K,1100,5,31,Stimuli/Experimental_stims/outdoor_scenes/jeff-king-bJHWJeiHfHc-unsplash.jpg,Stimuli/Experimental_stims/body_parts/sincerely-media-VN6DbKajo5s-unsplash.jpg,NaN,NaN,NaN,0,37,4,outdoor_scenes,body_parts
75,98647,0,1,4,76,intact,1,0,E,E,2100,40,25,Stimuli/Experimental_stims/objects/fabian-blank-pElSkGRA2NU-unsplash.jpg,Stimuli/Experimental_stims/body_parts/engin-akyurt-Q2rfH3GW39c-unsplash.jpg,NaN,NaN,NaN,0,37,4,objects,body_parts
76,98647,0,1,4,77,intact,1,0,G,G,1200,38,9,Stimuli/Experimental_stims/objects/art-lasovsky-8XddFc6NkBY-unsplash.jpg,Stimuli/Experimental_stims/outdoor_scenes/sergey-pesterev-y-b_FOmJXdg-unsplash.jpg,NaN,NaN,NaN,0,37,4,objects,outdoor_scenes
77,98647,0,1,4,78,recombined,0,0,,I,1700,3,28,Stimuli/Experimental_stims/outdoor_scenes/henry-be-NLF6hTe4PAg-unsplash.jpg,Stimuli/Experimental_stims/body_parts/ira-vishnevskaya-8DQAvdCby1I-unsplash.jpg,NaN,NaN,NaN,0,37,4,outdoor_scenes,body_parts
78,98647,0,1,4,79,intact,1,0,L,L,1500,29,15,Stimuli/Experimental_stims/body_parts/manuel-schinner-ZwjFuJ7ebpk-unsplash.jpg,Stimuli/Experimental_stims/faces/erik-lucatero-d2MSDujJl2g-unsplash.jpg,NaN,NaN,NaN,0,37,4,body_parts,faces
79,98647,0,1,4,80,recombined,0,1,,G,1400,9,12,Stimuli/Experimental_stims/outdoor_scenes/sergey-pesterev-y-b_FOmJXdg-unsplash.jpg,Stimuli/Experimental_stims/faces/aiony-haust-jmATI5Q_YgY-unsplash.jpg,NaN,NaN,NaN,0,37,4,outdoor_scenes,faces
80,98647,0,1,4,81,recombined,0,1,,B,1300,17,40,Stimuli/Experimental_stims/faces/good-faces-xmSWVeGEnJw-unsplash.jpg,Stimuli/Experimental_stims/objects/fabian-blank-pElSkGRA2NU-unsplash.jpg,NaN,NaN,NaN,0,37,4,faces,objects
81,98647,0,1,4,82,intact,1,0,A,A,3500,5,36,Stimuli/Experimental_stims/outdoor_scenes/jeff-king-bJHWJeiHfHc-unsplash.jpg,Stimuli/Experimental_stims/objects/alexander-andrews-JYGnB9gTCls-unsplash.jpg,NaN,NaN,NaN,1,37,4,outdoor_scenes,objects
82,98647,0,1,4,83,recombined,0,0,,A,1100,23,36,Stimuli/Experimental_stims/faces/rikonavt-HQjfrvdTfak-unsplash.jpg,Stimuli/Experimental_stims/objects/alexander-andrews-JYGnB9gTCls-unsplash.jpg,NaN,NaN,NaN,0,37,4,faces,objects
83,98647,0,1,4,84,intact,1,1,I,I,2800,28,10,Stimuli/Experimental_stims/body_parts/ira-vishnevskaya-8DQAvdCby1I-unsplash.jpg,Stimuli/Experimental_stims/outdoor_scenes/shannon-kunkle-dM8INmkyDas-unsplash.jpg,NaN,NaN,NaN,0,37,4,body_parts,outdoor_scenes
84,98647,0,1,4,85,intact,1,0,H,H,1400,23,7,Stimuli/Experimental_stims/faces/rikonavt-HQjfrvdTfak-unsplash.jpg,Stimuli/Experimental_stims/outdoor_scenes/petr-vysohlid-9fqwGqGLUxc-unsplash.jpg,NaN,NaN,NaN,0,37,4,faces,outdoor_scenes
85,98647,0,1,4,86,recombined,0,1,,H,2000,7,29,Stimuli/Experimental_stims/outdoor_scenes/petr-vysohlid-9fqwGqGLUxc-unsplash.jpg,Stimuli/Experimental_stims/body_parts/manuel-schinner-ZwjFuJ7ebpk-unsplash.jpg,NaN,NaN,NaN,0,37,4,outdoor_scenes,body_parts
86,98647,0,1,4,87,intact,1,0,B,B,2200,6,17,Stimuli/Experimental_stims/outdoor_scenes/meng-ji-8BH_M-53CyA-unsplash.jpg,Stimuli/Experimental_stims/faces/good-faces-xmSWVeGEnJw-unsplash.jpg,NaN,NaN,NaN,0,37,4,outdoor_scenes,faces
87,98647,0,1,4,88,intact,1,0,C,C,3200,3,33,Stimuli/Experimental_stims/outdoor_scenes/henry-be-NLF6hTe4PAg-unsplash.jpg,Stimuli/Experimental_stims/body_parts/tucker-good-36skLT5jZcc-unsplash.jpg,NaN,NaN,NaN,1,37,4,outdoor_scenes,body_parts
88,98647,0,1,4,89,recombined,0,0,,K,2500,5,31,Stimuli/Experimental_stims/outdoor_scenes/jeff-king-bJHWJeiHfHc-unsplash.jpg,Stimuli/Experimental_stims/body_parts/sincerely-media-VN6DbKajo5s-unsplash.jpg,NaN,NaN,NaN,0,37,4,outdoor_scenes,body_parts
89,98647,0,1,4,90,intact,1,1,K,K,1400,31,43,Stimuli/Experimental_stims/body_parts/sincerely-media-VN6DbKajo5s-unsplash.jpg,Stimuli/Experimental_stims/objects/jonathan-greenaway-Y4hGgeiFn3s-unsplash.jpg,NaN,NaN,NaN,0,37,4,body_parts,objects
90,98647,0,1,4,91,recombined,0,1,,E,1300,25,6,Stimuli/Experimental_stims/body_parts/engin-akyurt-Q2rfH3GW39c-unsplash.jpg,Stimuli/Experimental_stims/outdoor_scenes/meng-ji-8BH_M-53CyA-unsplash.jpg,NaN,NaN,NaN,0,37,4,body_parts,outdoor_scenes
91,98647,0,1,4,92,recombined,0,1,,D,1300,14,38,Stimuli/Experimental_stims/faces/david-siglin-UuW4psOb388-unsplash.jpg,Stimuli/Experimental_stims/objects/art-lasovsky-8XddFc6NkBY-unsplash.jpg,NaN,NaN,NaN,0,37,4,faces,objects
92,98647,0,1,4,93,intact,1,0,J,J,4900,12,44,Stimuli/Experimental_stims/faces/aiony-haust-jmATI5Q_YgY-unsplash.jpg,Stimuli/Experimental_stims/objects/kuiye-chen-NuOGFo4PudE-unsplash.jpg,NaN,NaN,NaN,1,37,4,faces,objects
93,98647,0,1,4,94,intact,1,0,D,D,1700,42,14,Stimuli/Experimental_stims/objects/jess-bailey-nOeVi8DsN8U-unsplash.jpg,Stimuli/Experimental_stims/faces/david-siglin-UuW4psOb388-unsplash.jpg,NaN,NaN,NaN,0,37,4,objects,faces
94,98647,0,1,4,95,recombined,0,0,,L,1600,42,15,Stimuli/Experimental_stims/objects/jess-bailey-nOeVi8DsN8U-unsplash.jpg,Stimuli/Experimental_stims/faces/erik-lucatero-d2MSDujJl2g-unsplash.jpg,NaN,NaN,NaN,0,37,4,objects,faces
95,98647,0,1,4,96,recombined,0,0,,F,1700,10,30,Stimuli/Experimental_stims/outdoor_scenes/shannon-kunkle-dM8INmkyDas-unsplash.jpg,Stimuli/Experimental_stims/body_parts/mika-korhonen-Xodzxosar18-unsplash.jpg,NaN,NaN,NaN,0,37,4,outdoor_scenes,body_parts
96,98647,0,1,4,97,intact,1,0,F,F,1100,22,30,Stimuli/Experimental_stims/faces/ravi-patel-VMGAbeeJTKo-unsplash.jpg,Stimuli/Experimental_stims/body_parts/mika-korhonen-Xodzxosar18-unsplash.jpg,NaN,NaN,NaN,0,37,4,faces,body_parts
97,98647,0,1,4,98,recombined,0,1,,J,1000,44,22,Stimuli/Experimental_stims/objects/kuiye-chen-NuOGFo4PudE-unsplash.jpg,Stimuli/Experimental_stims/faces/ravi-patel-VMGAbeeJTKo-unsplash.jpg,NaN,NaN,NaN,0,37,4,objects,faces
98,98647,0,1,4,99,recombined,0,0,,C,3000,43,33,Stimuli/Experimental_stims/objects/jonathan-greenaway-Y4hGgeiFn3s-unsplash.jpg,Stimuli/Experimental_stims/body_parts/tucker-good-36skLT5jZcc-unsplash.jpg,NaN,NaN,NaN,1,37,4,objects,body_parts