,PID,practice,run,block,trial,pair_type,old_pair,chosen_left,pair_id,chosen_id,iti,left_stimulus,right_stimulus,left_path,right_path,old_response,pair_acc,pair_rt,long_iti,simulation,version,left_category,right_category,pairs_rt,no_response
0,29646,1,0,0,1,,0,0,,,1500,,,Stimuli/Practice_stims/Memory/annie-spratt-g9KFpAfQ5bc-unsplash.jpg,Stimuli/Practice_stims/Memory/charl-durand-bsfXvI25iNg-unsplash.jpg,1,0,NaN,0,20,3,NaN,NaN,1328,0
1,29646,1,0,0,2,,0,0,,,1000,,,Stimuli/Practice_stims/Memory/charl-durand-bsfXvI25iNg-unsplash.jpg,Stimuli/Practice_stims/Memory/jimmy-dean-Yn0l7uwBrpw-unsplash.jpg,1,0,NaN,0,20,3,NaN,NaN,429,0
2,29646,1,0,0,3,,0,0,,,3000,,,Stimuli/Practice_stims/Memory/jimmy-dean-Yn0l7uwBrpw-unsplash.jpg,Stimuli/Practice_stims/Memory/annie-spratt-g9KFpAfQ5bc-unsplash.jpg,1,0,NaN,0,20,3,NaN,NaN,343,0
3,29646,0,1,1,4,recombined,0,1,,A,1600,45,33,Stimuli/Experimental_stims/objects/leohoho-rngTKHXumy0-unsplash.jpg,Stimuli/Experimental_stims/body_parts/tucker-good-36skLT5jZcc-unsplash.jpg,1,0,NaN,0,20,3,objects,body_parts,1240,0
4,29646,0,1,1,5,intact,1,1,J,J,2500,21,36,Stimuli/Experimental_stims/faces/leilani-angel-K84vnnzxmTQ-unsplash.jpg,Stimuli/Experimental_stims/objects/alexander-andrews-JYGnB9gTCls-unsplash.jpg,1,1,NaN,0,20,3,faces,objects,377,0
5,29646,0,1,1,6,intact,1,0,H,H,2600,22,1,Stimuli/Experimental_stims/faces/ravi-patel-VMGAbeeJTKo-unsplash.jpg,Stimuli/Experimental_stims/outdoor_scenes/ashim-d-silva-S2Q5mdOrrVc-unsplash.jpg,1,1,NaN,0,20,3,faces,outdoor_scenes,32,0
6,29646,0,1,1,7,recombined,0,1,,F,1600,18,36,Stimuli/Experimental_stims/faces/jessica-radanavong-mrYkTuAesKE-unsplash.jpg,Stimuli/Experimental_stims/objects/alexander-andrews-JYGnB9gTCls-unsplash.jpg,1,0,NaN,0,20,3,faces,objects,378,0
7,29646,0,1,1,8,recombined,0,0,,B,3100,41,19,Stimuli/Experimental_stims/objects/insung-yoon-w2JtIQQXoRU-unsplash.jpg,Stimuli/Experimental_stims/faces/joel-mott-LaK153ghdig-unsplash.jpg,1,0,NaN,1,20,3,objects,faces,56,0
8,29646,0,1,1,9,intact,1,1,E,E,2200,46,30,Stimuli/Experimental_stims/objects/mockup-graphics-PNsj6RiHAF4-unsplash.jpg,Stimuli/Experimental_stims/body_parts/mika-korhonen-Xodzxosar18-unsplash.jpg,1,1,NaN,0,20,3,objects,body_parts,310,0
9,29646,0,1,1,10,intact,1,0,I,I,2800,33,4,Stimuli/Experimental_stims/body_parts/tucker-good-36skLT5jZcc-unsplash.jpg,Stimuli/Experimental_stims/outdoor_scenes/jarrett-kow-1ZOyYPOBn7I-unsplash.jpg,1,1,NaN,0,20,3,body_parts,outdoor_scenes,266,0
10,29646,0,1,1,11,recombined,0,1,,J,1300,21,6,Stimuli/Experimental_stims/faces/leilani-angel-K84vnnzxmTQ-unsplash.jpg,Stimuli/Experimental_stims/outdoor_scenes/meng-ji-8BH_M-53CyA-unsplash.jpg,1,0,NaN,0,20,3,faces,outdoor_scenes,802,0
11,29646,0,1,1,12,intact,1,1,C,C,1300,10,26,Stimuli/Experimental_stims/outdoor_scenes/shannon-kunkle-dM8INmkyDas-unsplash.jpg,Stimuli/Experimental_stims/body_parts/engin-akyurt-x_3gyC42btc-unsplash.jpg,NaN,0,NaN,0,20,3,outdoor_scenes,body_parts,,1
12,29646,0,1,1,13,recombined,0,1,,K,3100,44,22,Stimuli/Experimental_stims/objects/kuiye-chen-NuOGFo4PudE-unsplash.jpg,Stimuli/Experimental_stims/faces/ravi-patel-VMGAbeeJTKo-unsplash.jpg,1,0,NaN,1,20,3,objects,faces,35,0
13,29646,0,1,1,14,intact,1,0,D,D,1300,41,15,Stimuli/Experimental_stims/objects/insung-yoon-w2JtIQQXoRU-unsplash.jpg,Stimuli/Experimental_stims/faces/erik-lucatero-d2MSDujJl2g-unsplash.jpg,1,1,NaN,0,20,3,objects,faces,363,0
14,29646,0,1,1,15,recombined,0,0,,G,1700,30,43,Stimuli/Experimental_stims/body_parts/mika-korhonen-Xodzxosar18-unsplash.jpg,Stimuli/Experimental_stims/objects/jonathan-greenaway-Y4hGgeiFn3s-unsplash.jpg,1,0,NaN,0,20,3,body_parts,objects,409,0
15,29646,0,1,1,16,intact,1,1,F,F,1400,18,27,Stimuli/Experimental_stims/faces/jessica-radanavong-mrYkTuAesKE-unsplash.jpg,Stimuli/Experimental_stims/body_parts/heike-mintel-i_Gns0ELnLw-unsplash.jpg,1,1,NaN,0,20,3,faces,body_parts,155,0
16,29646,0,1,1,17,recombined,0,0,,E,2600,14,46,Stimuli/Experimental_stims/faces/david-siglin-UuW4psOb388-unsplash.jpg,Stimuli/Experimental_stims/objects/mockup-graphics-PNsj6RiHAF4-unsplash.jpg,1,0,NaN,0,20,3,faces,objects,347,0
17,29646,0,1,1,18,intact,1,1,L,L,1800,32,14,Stimuli/Experimental_stims/body_parts/towfiqu-barbhuiya-3AsiVDsZnHg-unsplash.jpg,Stimuli/Experimental_stims/faces/david-siglin-UuW4psOb388-unsplash.jpg,1,1,NaN,0,20,3,body_parts,faces,117,0
18,29646,0,1,1,19,intact,1,0,K,K,1100,29,44,Stimuli/Experimental_stims/body_parts/manuel-schinner-ZwjFuJ7ebpk-unsplash.jpg,Stimuli/Experimental_stims/objects/kuiye-chen-NuOGFo4PudE-unsplash.jpg,1,1,NaN,0,20,3,body_parts,objects,83,0
19,29646,0,1,1,20,recombined,0,1,,L,3100,32,9,Stimuli/Experimental_stims/body_parts/towfiqu-barbhuiya-3AsiVDsZnHg-unsplash.jpg,Stimuli/Experimental_stims/outdoor_scenes/sergey-pesterev-y-b_FOmJXdg-unsplash.jpg,0,1,NaN,1,20,3,body_parts,outdoor_scenes,797,0
20,29646,0,1,1,21,recombined,0,0,,I,2700,29,4,Stimuli/Experimental_stims/body_parts/manuel-schinner-ZwjFuJ7ebpk-unsplash.jpg,Stimuli/Experimental_stims/outdoor_scenes/jarrett-kow-1ZOyYPOBn7I-unsplash.jpg,0,1,NaN,0,20,3,body_parts,outdoor_scenes,549,0
21,29646,0,1,1,22,intact,1,0,B,B,1400,6,19,Stimuli/Experimental_stims/outdoor_scenes/meng-ji-8BH_M-53CyA-unsplash.jpg,Stimuli/Experimental_stims/faces/joel-mott-LaK153ghdig-unsplash.jpg,NaN,0,NaN,0,20,3,outdoor_scenes,faces,,1
22,29646,0,1,1,23,recombined,0,0,,C,1000,27,10,Stimuli/Experimental_stims/body_parts/heike-mintel-i_Gns0ELnLw-unsplash.jpg,Stimuli/Experimental_stims/outdoor_scenes/shannon-kunkle-dM8INmkyDas-unsplash.jpg,0,1,NaN,0,20,3,body_parts,outdoor_scenes,759,0
23,29646,0,1,1,24,recombined,0,0,,H,1000,26,1,Stimuli/Experimental_stims/body_parts/engin-akyurt-x_3gyC42btc-unsplash.jpg,Stimuli/Experimental_stims/outdoor_scenes/ashim-d-silva-S2Q5mdOrrVc-unsplash.jpg,0,1,NaN,0,20,3,body_parts,outdoor_scenes,1073,0
24,29646,0,1,1,25,intact,1,0,A,A,1600,5,45,Stimuli/Experimental_stims/outdoor_scenes/jeff-king-bJHWJeiHfHc-unsplash.jpg,Stimuli/Experimental_stims/objects/leohoho-rngTKHXumy0-unsplash.jpg,0,0,NaN,0,20,3,outdoor_scenes,objects,1098,0
25,29646,0,1,1,26,recombined,0,1,,D,3300,15,5,Stimuli/Experimental_stims/faces/erik-lucatero-d2MSDujJl2g-unsplash.jpg,Stimuli/Experimental_stims/outdoor_scenes/jeff-king-bJHWJeiHfHc-unsplash.jpg,0,1,NaN,1,20,3,faces,outdoor_scenes,577,0
26,29646,0,1,1,27,intact,1,1,G,G,1000,43,9,Stimuli/Experimental_stims/objects/jonathan-greenaway-Y4hGgeiFn3s-unsplash.jpg,Stimuli/Experimental_stims/outdoor_scenes/sergey-pesterev-y-b_FOmJXdg-unsplash.jpg,0,0,NaN,0,20,3,objects,outdoor_scenes,577,0
27,29646,0,1,2,28,intact,1,0,B,B,2700,6,19,Stimuli/Experimental_stims/outdoor_scenes/meng-ji-8BH_M-53CyA-unsplash.jpg,Stimuli/Experimental_stims/faces/joel-mott-LaK153ghdig-unsplash.jpg,0,0,NaN,0,20,3,outdoor_scenes,faces,800,0
28,29646,0,1,2,29,recombined,0,0,,H,1300,26,1,Stimuli/Experimental_stims/body_parts/engin-akyurt-x_3gyC42btc-unsplash.jpg,Stimuli/Experimental_stims/outdoor_scenes/ashim-d-silva-S2Q5mdOrrVc-unsplash.jpg,0,1,NaN,0,20,3,body_parts,outdoor_scenes,733,0
29,29646,0,1,2,30,recombined,0,1,,J,1100,21,6,Stimuli/Experimental_stims/faces/leilani-angel-K84vnnzxmTQ-unsplash.jpg,Stimuli/Experimental_stims/outdoor_scenes/meng-ji-8BH_M-53CyA-unsplash.jpg,0,1,NaN,0,20,3,faces,outdoor_scenes,900,0
30,29646,0,1,2,31,intact,1,0,K,K,4100,29,44,Stimuli/Experimental_stims/body_parts/manuel-schinner-ZwjFuJ7ebpk-unsplash.jpg,Stimuli/Experimental_stims/objects/kuiye-chen-NuOGFo4PudE-unsplash.jpg,0,0,NaN,1,20,3,body_parts,objects,698,0
31,29646,0,1,2,32,recombined,0,0,,I,1100,29,4,Stimuli/Experimental_stims/body_parts/manuel-schinner-ZwjFuJ7ebpk-unsplash.jpg,Stimuli/Experimental_stims/outdoor_scenes/jarrett-kow-1ZOyYPOBn7I-unsplash.jpg,0,1,NaN,0,20,3,body_parts,outdoor_scenes,906,0
32,29646,0,1,2,33,intact,1,0,I,I,1000,33,4,Stimuli/Experimental_stims/body_parts/tucker-good-36skLT5jZcc-unsplash.jpg,Stimuli/Experimental_stims/outdoor_scenes/jarrett-kow-1ZOyYPOBn7I-unsplash.jpg,0,0,NaN,0,20,3,body_parts,outdoor_scenes,514,0
33,29646,0,1,2,34,intact,1,0,H,H,1500,22,1,Stimuli/Experimental_stims/faces/ravi-patel-VMGAbeeJTKo-unsplash.jpg,Stimuli/Experimental_stims/outdoor_scenes/ashim-d-silva-S2Q5mdOrrVc-unsplash.jpg,0,0,NaN,0,20,3,faces,outdoor_scenes,1498,0
34,29646,0,1,2,35,recombined,0,1,,G,1300,43,30,Stimuli/Experimental_stims/objects/jonathan-greenaway-Y4hGgeiFn3s-unsplash.jpg,Stimuli/Experimental_stims/body_parts/mika-korhonen-Xodzxosar18-unsplash.jpg,NaN,0,NaN,0,20,3,objects,body_parts,,1
35,29646,0,1,2,36,intact,1,0,D,D,1300,41,15,Stimuli/Experimental_stims/objects/insung-yoon-w2JtIQQXoRU-unsplash.jpg,Stimuli/Experimental_stims/faces/erik-lucatero-d2MSDujJl2g-unsplash.jpg,NaN,0,NaN,0,20,3,objects,faces,,1
36,29646,0,1,2,37,recombined,0,0,,B,2300,41,19,Stimuli/Experimental_stims/objects/insung-yoon-w2JtIQQXoRU-unsplash.jpg,Stimuli/Experimental_stims/faces/joel-mott-LaK153ghdig-unsplash.jpg,NaN,0,NaN,0,20,3,objects,faces,,1
37,29646,0,1,2,38,recombined,0,1,,L,4000,32,9,Stimuli/Experimental_stims/body_parts/towfiqu-barbhuiya-3AsiVDsZnHg-unsplash.jpg,Stimuli/Experimental_stims/outdoor_scenes/sergey-pesterev-y-b_FOmJXdg-unsplash.jpg,NaN,0,NaN,1,20,3,body_parts,outdoor_scenes,,1
38,29646,0,1,2,39,intact,1,0,A,A,1700,5,45,Stimuli/Experimental_stims/outdoor_scenes/jeff-king-bJHWJeiHfHc-unsplash.jpg,Stimuli/Experimental_stims/objects/leohoho-rngTKHXumy0-unsplash.jpg,NaN,0,NaN,0,20,3,outdoor_scenes,objects,,1
39,29646,0,1,2,40,recombined,0,1,,K,1700,44,22,Stimuli/Experimental_stims/objects/kuiye-chen-NuOGFo4PudE-unsplash.jpg,Stimuli/Experimental_stims/faces/ravi-patel-VMGAbeeJTKo-unsplash.jpg,NaN,0,NaN,0,20,3,objects,faces,,1
40,29646,0,1,2,41,intact,1,1,L,L,1200,32,14,Stimuli/Experimental_stims/body_parts/towfiqu-barbhuiya-3AsiVDsZnHg-unsplash.jpg,Stimuli/Experimental_stims/faces/david-siglin-UuW4psOb388-unsplash.jpg,NaN,0,NaN,0,20,3,body_parts,faces,,1
41,29646,0,1,2,42,recombined,0,1,,A,2200,45,33,Stimuli/Experimental_stims/objects/leohoho-rngTKHXumy0-unsplash.jpg,Stimuli/Experimental_stims/body_parts/tucker-good-36skLT5jZcc-unsplash.jpg,0,1,NaN,0,20,3,objects,body_parts,390,0
42,29646,0,1,2,43,recombined,0,0,,F,1400,36,18,Stimuli/Experimental_stims/objects/alexander-andrews-JYGnB9gTCls-unsplash.jpg,Stimuli/Experimental_stims/faces/jessica-radanavong-mrYkTuAesKE-unsplash.jpg,NaN,0,NaN,0,20,3,objects,faces,,1
43,29646,0,1,2,44,intact,1,1,F,F,2200,18,27,Stimuli/Experimental_stims/faces/jessica-radanavong-mrYkTuAesKE-unsplash.jpg,Stimuli/Experimental_stims/body_parts/heike-mintel-i_Gns0ELnLw-unsplash.jpg,NaN,0,NaN,0,20,3,faces,body_parts,,1
44,29646,0,1,2,45,intact,1,1,E,E,1100,46,30,Stimuli/Experimental_stims/objects/mockup-graphics-PNsj6RiHAF4-unsplash.jpg,Stimuli/Experimental_stims/body_parts/mika-korhonen-Xodzxosar18-unsplash.jpg,NaN,0,NaN,0,20,3,objects,body_parts,,1
45,29646,0,1,2,46,recombined,0,0,,C,3000,27,10,Stimuli/Experimental_stims/body_parts/heike-mintel-i_Gns0ELnLw-unsplash.jpg,Stimuli/Experimental_stims/outdoor_scenes/shannon-kunkle-dM8INmkyDas-unsplash.jpg,NaN,0,NaN,1,20,3,body_parts,outdoor_scenes,,1
46,29646,0,1,2,47,intact,1,1,G,G,2700,43,9,Stimuli/Experimental_stims/objects/jonathan-greenaway-Y4hGgeiFn3s-unsplash.jpg,Stimuli/Experimental_stims/outdoor_scenes/sergey-pesterev-y-b_FOmJXdg-unsplash.jpg,NaN,0,NaN,0,20,3,objects,outdoor_scenes,,1
47,29646,0,1,2,48,intact,1,1,J,J,1300,21,36,Stimuli/Experimental_stims/faces/leilani-angel-K84vnnzxmTQ-unsplash.jpg,Stimuli/Experimental_stims/objects/alexander-andrews-JYGnB9gTCls-unsplash.jpg,NaN,0,NaN,0,20,3,faces,objects,,1
48,29646,0,1,2,49,recombined,0,0,,E,2600,14,46,Stimuli/Experimental_stims/faces/david-siglin-UuW4psOb388-unsplash.jpg,Stimuli/Experimental_stims/objects/mockup-graphics-PNsj6RiHAF4-unsplash.jpg,NaN,0,NaN,0,20,3,faces,objects,,1
49,29646,0,1,2,50,intact,1,1,C,C,1200,10,26,Stimuli/Experimental_stims/outdoor_scenes/shannon-kunkle-dM8INmkyDas-unsplash.jpg,Stimuli/Experimental_stims/body_parts/engin-akyurt-x_3gyC42btc-unsplash.jpg,NaN,0,NaN,0,20,3,outdoor_scenes,body_parts,,1
50,29646,0,1,2,51,recombined,0,1,,D,4900,15,5,Stimuli/Experimental_stims/faces/erik-lucatero-d2MSDujJl2g-unsplash.jpg,Stimuli/Experimental_stims/outdoor_scenes/jeff-king-bJHWJeiHfHc-unsplash.jpg,NaN,0,NaN,1,20,3,faces,outdoor_scenes,,1
51,29646,0,1,3,52,intact,1,1,C,C,1500,10,26,Stimuli/Experimental_stims/outdoor_scenes/shannon-kunkle-dM8INmkyDas-unsplash.jpg,Stimuli/Experimental_stims/body_parts/engin-akyurt-x_3gyC42btc-unsplash.jpg,NaN,0,NaN,0,19,3,outdoor_scenes,body_parts,,1
52,29646,0,1,3,53,recombined,0,0,,A,2500,33,45,Stimuli/Experimental_stims/body_parts/tucker-good-36skLT5jZcc-unsplash.jpg,Stimuli/Experimental_stims/objects/leohoho-rngTKHXumy0-unsplash.jpg,NaN,0,NaN,0,19,3,body_parts,objects,,1
53,29646,0,1,3,54,intact,1,1,J,J,2400,21,36,Stimuli/Experimental_stims/faces/leilani-angel-K84vnnzxmTQ-unsplash.jpg,Stimuli/Experimental_stims/objects/alexander-andrews-JYGnB9gTCls-unsplash.jpg,NaN,0,NaN,0,19,3,faces,objects,,1
54,29646,0,1,3,55,recombined,0,1,,L,2100,32,9,Stimuli/Experimental_stims/body_parts/towfiqu-barbhuiya-3AsiVDsZnHg-unsplash.jpg,Stimuli/Experimental_stims/outdoor_scenes/sergey-pesterev-y-b_FOmJXdg-unsplash.jpg,NaN,0,NaN,0,19,3,body_parts,outdoor_scenes,,1
55,29646,0,1,3,56,recombined,0,0,,F,4400,36,18,Stimuli/Experimental_stims/objects/alexander-andrews-JYGnB9gTCls-unsplash.jpg,Stimuli/Experimental_stims/faces/jessica-radanavong-mrYkTuAesKE-unsplash.jpg,NaN,0,NaN,1,19,3,objects,faces,,1
56,29646,0,1,3,57,intact,1,0,H,H,1000,22,1,Stimuli/Experimental_stims/faces/ravi-patel-VMGAbeeJTKo-unsplash.jpg,Stimuli/Experimental_stims/outdoor_scenes/ashim-d-silva-S2Q5mdOrrVc-unsplash.jpg,NaN,0,NaN,0,19,3,faces,outdoor_scenes,,1
57,29646,0,1,3,58,recombined,0,0,,E,2400,14,46,Stimuli/Experimental_stims/faces/david-siglin-UuW4psOb388-unsplash.jpg,Stimuli/Experimental_stims/objects/mockup-graphics-PNsj6RiHAF4-unsplash.jpg,NaN,0,NaN,0,19,3,faces,objects,,1
58,29646,0,1,3,59,intact,1,0,A,A,2700,5,45,Stimuli/Experimental_stims/outdoor_scenes/jeff-king-bJHWJeiHfHc-unsplash.jpg,Stimuli/Experimental_stims/objects/leohoho-rngTKHXumy0-unsplash.jpg,NaN,0,NaN,0,19,3,outdoor_scenes,objects,,1
59,29646,0,1,3,60,intact,1,0,B,B,1300,6,19,Stimuli/Experimental_stims/outdoor_scenes/meng-ji-8BH_M-53CyA-unsplash.jpg,Stimuli/Experimental_stims/faces/joel-mott-LaK153ghdig-unsplash.jpg,NaN,0,NaN,0,19,3,outdoor_scenes,faces,,1
60,29646,0,1,3,61,recombined,0,1,,I,4400,4,29,Stimuli/Experimental_stims/outdoor_scenes/jarrett-kow-1ZOyYPOBn7I-unsplash.jpg,Stimuli/Experimental_stims/body_parts/manuel-schinner-ZwjFuJ7ebpk-unsplash.jpg,NaN,0,NaN,1,19,3,outdoor_scenes,body_parts,,1
61,29646,0,1,3,62,recombined,0,1,,H,1100,1,26,Stimuli/Experimental_stims/outdoor_scenes/ashim-d-silva-S2Q5mdOrrVc-unsplash.jpg,Stimuli/Experimental_stims/body_parts/engin-akyurt-x_3gyC42btc-unsplash.jpg,NaN,0,NaN,0,19,3,outdoor_scenes,body_parts,,1
62,29646,0,1,3,63,intact,1,1,L,L,2100,32,14,Stimuli/Experimental_stims/body_parts/towfiqu-barbhuiya-3AsiVDsZnHg-unsplash.jpg,Stimuli/Experimental_stims/faces/david-siglin-UuW4psOb388-unsplash.jpg,NaN,0,NaN,0,19,3,body_parts,faces,,1
63,29646,0,1,3,64,recombined,0,1,,B,1600,19,41,Stimuli/Experimental_stims/faces/joel-mott-LaK153ghdig-unsplash.jpg,Stimuli/Experimental_stims/objects/insung-yoon-w2JtIQQXoRU-unsplash.jpg,NaN,0,NaN,0,19,3,faces,objects,,1
64,29646,0,1,3,65,intact,1,0,D,D,2000,41,15,Stimuli/Experimental_stims/objects/insung-yoon-w2JtIQQXoRU-unsplash.jpg,Stimuli/Experimental_stims/faces/erik-lucatero-d2MSDujJl2g-unsplash.jpg,NaN,0,NaN,0,19,3,objects,faces,,1
65,29646,0,1,3,66,intact,1,1,F,F,4200,18,27,Stimuli/Experimental_stims/faces/jessica-radanavong-mrYkTuAesKE-unsplash.jpg,Stimuli/Experimental_stims/body_parts/heike-mintel-i_Gns0ELnLw-unsplash.jpg,NaN,0,NaN,1,19,3,faces,body_parts,,1
66,29646,0,1,3,67,recombined,0,0,,K,1500,22,44,Stimuli/Experimental_stims/faces/ravi-patel-VMGAbeeJTKo-unsplash.jpg,Stimuli/Experimental_stims/objects/kuiye-chen-NuOGFo4PudE-unsplash.jpg,NaN,0,NaN,0,19,3,faces,objects,,1
67,29646,0,1,3,68,intact,1,0,I,I,2500,33,4,Stimuli/Experimental_stims/body_parts/tucker-good-36skLT5jZcc-unsplash.jpg,Stimuli/Experimental_stims/outdoor_scenes/jarrett-kow-1ZOyYPOBn7I-unsplash.jpg,NaN,0,NaN,0,19,3,body_parts,outdoor_scenes,,1
68,29646,0,1,3,69,recombined,0,1,,D,2600,15,5,Stimuli/Experimental_stims/faces/erik-lucatero-d2MSDujJl2g-unsplash.jpg,Stimuli/Experimental_stims/outdoor_scenes/jeff-king-bJHWJeiHfHc-unsplash.jpg,NaN,0,NaN,0,19,3,faces,outdoor_scenes,,1
69,29646,0,1,3,70,intact,1,0,K,K,1500,29,44,Stimuli/Experimental_stims/body_parts/manuel-schinner-ZwjFuJ7ebpk-unsplash.jpg,Stimuli/Experimental_stims/objects/kuiye-chen-NuOGFo4PudE-unsplash.jpg,NaN,0,NaN,0,19,3,body_parts,objects,,1
70,29646,0,1,3,71,recombined,0,1,,J,1900,21,6,Stimuli/Experimental_stims/faces/leilani-angel-K84vnnzxmTQ-unsplash.jpg,Stimuli/Experimental_stims/outdoor_scenes/meng-ji-8BH_M-53CyA-unsplash.jpg,NaN,0,NaN,0,19,3,faces,outdoor_scenes,,1
71,29646,0,1,3,72,recombined,0,0,,C,2900,27,10,Stimuli/Experimental_stims/body_parts/heike-mintel-i_Gns0ELnLw-unsplash.jpg,Stimuli/Experimental_stims/outdoor_scenes/shannon-kunkle-dM8INmkyDas-unsplash.jpg,NaN,0,NaN,1,19,3,body_parts,outdoor_scenes,,1
72,29646,0,1,3,73,intact,1,1,E,E,1000,46,30,Stimuli/Experimental_stims/objects/mockup-graphics-PNsj6RiHAF4-unsplash.jpg,Stimuli/Experimental_stims/body_parts/mika-korhonen-Xodzxosar18-unsplash.jpg,NaN,0,NaN,0,19,3,objects,body_parts,,1
73,29646,0,1,3,74,intact,1,1,G,G,2600,43,9,Stimuli/Experimental_stims/objects/jonathan-greenaway-Y4hGgeiFn3s-unsplash.jpg,Stimuli/Experimental_stims/outdoor_scenes/sergey-pesterev-y-b_FOmJXdg-unsplash.jpg,NaN,0,NaN,0,19,3,objects,outdoor_scenes,,1
74,29646,0,1,3,75,recombined,0,0,,G,1600,30,43,Stimuli/Experimental_stims/body_parts/mika-korhonen-Xodzxosar18-unsplash.jpg,Stimuli/Experimental_stims/objects/jonathan-greenaway-Y4hGgeiFn3s-unsplash.jpg,NaN,0,NaN,0,19,3,body_parts,objects,,1
75,29646,0,1,4,76,recombined,0,1,,D,1500,15,5,Stimuli/Experimental_stims/faces/erik-lucatero-d2MSDujJl2g-unsplash.jpg,Stimuli/Experimental_stims/outdoor_scenes/jeff-king-bJHWJeiHfHc-unsplash.jpg,NaN,0,NaN,0,19,3,faces,outdoor_scenes,,1
76,29646,0,1,4,77,intact,1,0,I,I,3300,33,4,Stimuli/Experimental_stims/body_parts/tucker-good-36skLT5jZcc-unsplash.jpg,Stimuli/Experimental_stims/outdoor_scenes/jarrett-kow-1ZOyYPOBn7I-unsplash.jpg,NaN,0,NaN,1,19,3,body_parts,outdoor_scenes,,1
77,29646,0,1,4,78,recombined,0,0,,L,1200,9,32,Stimuli/Experimental_stims/outdoor_scenes/sergey-pesterev-y-b_FOmJXdg-unsplash.jpg,Stimuli/Experimental_stims/body_parts/towfiqu-barbhuiya-3AsiVDsZnHg-unsplash.jpg,NaN,0,NaN,0,19,3,outdoor_scenes,body_parts,,1
78,29646,0,1,4,79,recombined,0,1,,G,1700,43,30,Stimuli/Experimental_stims/objects/jonathan-greenaway-Y4hGgeiFn3s-unsplash.jpg,Stimuli/Experimental_stims/body_parts/mika-korhonen-Xodzxosar18-unsplash.jpg,NaN,0,NaN,0,19,3,objects,body_parts,,1
79,29646,0,1,4,80,intact,1,0,H,H,1300,22,1,Stimuli/Experimental_stims/faces/ravi-patel-VMGAbeeJTKo-unsplash.jpg,Stimuli/Experimental_stims/outdoor_scenes/ashim-d-silva-S2Q5mdOrrVc-unsplash.jpg,NaN,0,NaN,0,19,3,faces,outdoor_scenes,,1
80,29646,0,1,4,81,recombined,0,1,,E,1000,46,14,Stimuli/Experimental_stims/objects/mockup-graphics-PNsj6RiHAF4-unsplash.jpg,Stimuli/Experimental_stims/faces/david-siglin-UuW4psOb388-unsplash.jpg,NaN,0,NaN,0,19,3,objects,faces,,1
81,29646,0,1,4,82,intact,1,1,F,F,1200,18,27,Stimuli/Experimental_stims/faces/jessica-radanavong-mrYkTuAesKE-unsplash.jpg,Stimuli/Experimental_stims/body_parts/heike-mintel-i_Gns0ELnLw-unsplash.jpg,NaN,0,NaN,0,19,3,faces,body_parts,,1
82,29646,0,1,4,83,recombined,0,0,,F,1200,36,18,Stimuli/Experimental_stims/objects/alexander-andrews-JYGnB9gTCls-unsplash.jpg,Stimuli/Experimental_stims/faces/jessica-radanavong-mrYkTuAesKE-unsplash.jpg,NaN,0,NaN,0,19,3,objects,faces,,1
83,29646,0,1,4,84,recombined,0,1,,B,1600,19,41,Stimuli/Experimental_stims/faces/joel-mott-LaK153ghdig-unsplash.jpg,Stimuli/Experimental_stims/objects/insung-yoon-w2JtIQQXoRU-unsplash.jpg,NaN,0,NaN,0,19,3,faces,objects,,1
84,29646,0,1,4,85,intact,1,0,B,B,1000,6,19,Stimuli/Experimental_stims/outdoor_scenes/meng-ji-8BH_M-53CyA-unsplash.jpg,Stimuli/Experimental_stims/faces/joel-mott-LaK153ghdig-unsplash.jpg,NaN,0,NaN,0,19,3,outdoor_scenes,faces,,1
85,29646,0,1,4,86,intact,1,1,L,L,2300,32,14,Stimuli/Experimental_stims/body_parts/towfiqu-barbhuiya-3AsiVDsZnHg-unsplash.jpg,Stimuli/Experimental_stims/faces/david-siglin-UuW4psOb388-unsplash.jpg,NaN,0,NaN,0,19,3,body_parts,faces,,1
86,29646,0,1,4,87,recombined,0,0,,A,1400,33,45,Stimuli/Experimental_stims/body_parts/tucker-good-36skLT5jZcc-unsplash.jpg,Stimuli/Experimental_stims/objects/leohoho-rngTKHXumy0-unsplash.jpg,NaN,0,NaN,0,19,3,body_parts,objects,,1
87,29646,0,1,4,88,intact,1,0,K,K,1100,29,44,Stimuli/Experimental_stims/body_parts/manuel-schinner-ZwjFuJ7ebpk-unsplash.jpg,Stimuli/Experimental_stims/objects/kuiye-chen-NuOGFo4PudE-unsplash.jpg,NaN,0,NaN,0,19,3,body_parts,objects,,1
88,29646,0,1,4,89,intact,1,0,A,A,1600,5,45,Stimuli/Experimental_stims/outdoor_scenes/jeff-king-bJHWJeiHfHc-unsplash.jpg,Stimuli/Experimental_stims/objects/leohoho-rngTKHXumy0-unsplash.jpg,NaN,0,NaN,0,19,3,outdoor_scenes,objects,,1
89,29646,0,1,4,90,recombined,0,0,,K,2600,22,44,Stimuli/Experimental_stims/faces/ravi-patel-VMGAbeeJTKo-unsplash.jpg,Stimuli/Experimental_stims/objects/kuiye-chen-NuOGFo4PudE-unsplash.jpg,NaN,0,NaN,0,19,3,faces,objects,,1
90,29646,0,1,4,91,intact,1,0,D,D,1700,41,15,Stimuli/Experimental_stims/objects/insung-yoon-w2JtIQQXoRU-unsplash.jpg,Stimuli/Experimental_stims/faces/erik-lucatero-d2MSDujJl2g-unsplash.jpg,NaN,0,NaN,0,19,3,objects,faces,,1
91,29646,0,1,4,92,recombined,0,0,,I,2900,29,4,Stimuli/Experimental_stims/body_parts/manuel-schinner-ZwjFuJ7ebpk-unsplash.jpg,Stimuli/Experimental_stims/outdoor_scenes/jarrett-kow-1ZOyYPOBn7I-unsplash.jpg,NaN,0,NaN,1,19,3,body_parts,outdoor_scenes,,1
92,29646,0,1,4,93,intact,1,1,C,C,1600,10,26,Stimuli/Experimental_stims/outdoor_scenes/shannon-kunkle-dM8INmkyDas-unsplash.jpg,Stimuli/Experimental_stims/body_parts/engin-akyurt-x_3gyC42btc-unsplash.jpg,NaN,0,NaN,0,19,3,outdoor_scenes,body_parts,,1
93,29646,0,1,4,94,recombined,0,1,,J,1300,21,6,Stimuli/Experimental_stims/faces/leilani-angel-K84vnnzxmTQ-unsplash.jpg,Stimuli/Experimental_stims/outdoor_scenes/meng-ji-8BH_M-53CyA-unsplash.jpg,NaN,0,NaN,0,19,3,faces,outdoor_scenes,,1
94,29646,0,1,4,95,intact,1,1,E,E,1200,46,30,Stimuli/Experimental_stims/objects/mockup-graphics-PNsj6RiHAF4-unsplash.jpg,Stimuli/Experimental_stims/body_parts/mika-korhonen-Xodzxosar18-unsplash.jpg,NaN,0,NaN,0,19,3,objects,body_parts,,1
95,29646,0,1,4,96,recombined,0,1,,H,1400,1,26,Stimuli/Experimental_stims/outdoor_scenes/ashim-d-silva-S2Q5mdOrrVc-unsplash.jpg,Stimuli/Experimental_stims/body_parts/engin-akyurt-x_3gyC42btc-unsplash.jpg,NaN,0,NaN,0,19,3,outdoor_scenes,body_parts,,1
96,29646,0,1,4,97,recombined,0,0,,C,1400,27,10,Stimuli/Experimental_stims/body_parts/heike-mintel-i_Gns0ELnLw-unsplash.jpg,Stimuli/Experimental_stims/outdoor_scenes/shannon-kunkle-dM8INmkyDas-unsplash.jpg,NaN,0,NaN,0,19,3,body_parts,outdoor_scenes,,1
97,29646,0,1,4,98,intact,1,1,J,J,2700,21,36,Stimuli/Experimental_stims/faces/leilani-angel-K84vnnzxmTQ-unsplash.jpg,Stimuli/Experimental_stims/objects/alexander-andrews-JYGnB9gTCls-unsplash.jpg,NaN,0,NaN,0,19,3,faces,objects,,1
98,29646,0,1,4,99,intact,1,1,G,G,4000,43,9,Stimuli/Experimental_stims/objects/jonathan-greenaway-Y4hGgeiFn3s-unsplash.jpg,Stimuli/Experimental_stims/outdoor_scenes/sergey-pesterev-y-b_FOmJXdg-unsplash.jpg,NaN,0,NaN,1,19,3,objects,outdoor_scenes,,1