,PID,practice,run,block,trial,iti,pair_id,choice_type,reward_type,stimulus_id,path,outcome_response,outcome_rt,outcome_acc,long_iti,simulation,version,no_response
0,29646,1,0,0,1,1500,,,,,Stimuli/Practice_stims/Outcome_estimation/becca-tapert-sY5RjMB1KkE-unsplash.jpg,gain,792,0,0,43,3,0
1,29646,1,0,0,2,1000,,,,,Stimuli/Practice_stims/Outcome_estimation/clay-banks-1KPfcPdbWFM-unsplash.jpg,gain,384,0,0,43,3,0
2,29646,1,0,0,3,3000,,,,,Stimuli/Practice_stims/Outcome_estimation/melissa-keizer-sV4Pd8wq5_o-unsplash.jpg,gain,400,0,0,43,3,0
3,29646,0,1,1,4,1900,G,unchosen,no_gain,9,Stimuli/Experimental_stims/outdoor_scenes/sergey-pesterev-y-b_FOmJXdg-unsplash.jpg,gain,1435,0,0,43,3,0
4,29646,0,1,1,5,1200,G,chosen,no_gain,43,Stimuli/Experimental_stims/objects/jonathan-greenaway-Y4hGgeiFn3s-unsplash.jpg,gain,371,0,0,43,3,0
5,29646,0,1,1,6,1200,C,chosen,no_gain,10,Stimuli/Experimental_stims/outdoor_scenes/shannon-kunkle-dM8INmkyDas-unsplash.jpg,no_response,NaN,0,0,43,3,1
6,29646,0,1,1,7,2100,J,unchosen,gain,36,Stimuli/Experimental_stims/objects/alexander-andrews-JYGnB9gTCls-unsplash.jpg,no_response,NaN,0,0,43,3,1
7,29646,0,1,1,8,2600,D,unchosen,gain,41,Stimuli/Experimental_stims/objects/insung-yoon-w2JtIQQXoRU-unsplash.jpg,no_response,NaN,0,0,43,3,1
8,29646,0,1,1,9,1100,I,chosen,no_gain,4,Stimuli/Experimental_stims/outdoor_scenes/jarrett-kow-1ZOyYPOBn7I-unsplash.jpg,no_response,NaN,0,0,43,3,1
9,29646,0,1,1,10,3400,H,unchosen,gain,22,Stimuli/Experimental_stims/faces/ravi-patel-VMGAbeeJTKo-unsplash.jpg,no_response,NaN,0,1,43,3,1
10,29646,0,1,1,11,1300,D,chosen,gain,15,Stimuli/Experimental_stims/faces/erik-lucatero-d2MSDujJl2g-unsplash.jpg,no_response,NaN,0,0,43,3,1
11,29646,0,1,1,12,1300,I,unchosen,no_gain,33,Stimuli/Experimental_stims/body_parts/tucker-good-36skLT5jZcc-unsplash.jpg,no_response,NaN,0,0,43,3,1
12,29646,0,1,1,13,2900,C,unchosen,no_gain,26,Stimuli/Experimental_stims/body_parts/engin-akyurt-x_3gyC42btc-unsplash.jpg,no_response,NaN,0,0,43,3,1
13,29646,0,1,1,14,1200,K,chosen,gain,44,Stimuli/Experimental_stims/objects/kuiye-chen-NuOGFo4PudE-unsplash.jpg,no_response,NaN,0,0,43,3,1
14,29646,0,1,1,15,4100,K,unchosen,gain,29,Stimuli/Experimental_stims/body_parts/manuel-schinner-ZwjFuJ7ebpk-unsplash.jpg,no_response,NaN,0,1,43,3,1
15,29646,0,1,1,16,1400,E,chosen,gain,46,Stimuli/Experimental_stims/objects/mockup-graphics-PNsj6RiHAF4-unsplash.jpg,no_response,NaN,0,0,43,3,1
16,29646,0,1,1,17,1300,F,unchosen,no_gain,27,Stimuli/Experimental_stims/body_parts/heike-mintel-i_Gns0ELnLw-unsplash.jpg,no_response,NaN,0,0,43,3,1
17,29646,0,1,1,18,1900,B,unchosen,no_gain,6,Stimuli/Experimental_stims/outdoor_scenes/meng-ji-8BH_M-53CyA-unsplash.jpg,no_response,NaN,0,0,43,3,1
18,29646,0,1,1,19,1200,A,chosen,no_gain,45,Stimuli/Experimental_stims/objects/leohoho-rngTKHXumy0-unsplash.jpg,no_response,NaN,0,0,43,3,1
19,29646,0,1,1,20,2100,F,chosen,no_gain,18,Stimuli/Experimental_stims/faces/jessica-radanavong-mrYkTuAesKE-unsplash.jpg,no_response,NaN,0,0,43,3,1
20,29646,0,1,1,21,3500,A,unchosen,no_gain,5,Stimuli/Experimental_stims/outdoor_scenes/jeff-king-bJHWJeiHfHc-unsplash.jpg,no_response,NaN,0,1,43,3,1
21,29646,0,1,1,22,2000,L,chosen,gain,32,Stimuli/Experimental_stims/body_parts/towfiqu-barbhuiya-3AsiVDsZnHg-unsplash.jpg,no_response,NaN,0,0,43,3,1
22,29646,0,1,1,23,1300,H,chosen,gain,1,Stimuli/Experimental_stims/outdoor_scenes/ashim-d-silva-S2Q5mdOrrVc-unsplash.jpg,no_response,NaN,0,0,43,3,1
23,29646,0,1,1,24,2900,E,unchosen,gain,30,Stimuli/Experimental_stims/body_parts/mika-korhonen-Xodzxosar18-unsplash.jpg,no_response,NaN,0,0,43,3,1
24,29646,0,1,1,25,1600,B,chosen,no_gain,19,Stimuli/Experimental_stims/faces/joel-mott-LaK153ghdig-unsplash.jpg,no_response,NaN,0,0,43,3,1
25,29646,0,1,1,26,3500,J,chosen,gain,21,Stimuli/Experimental_stims/faces/leilani-angel-K84vnnzxmTQ-unsplash.jpg,no_response,NaN,0,1,43,3,1
26,29646,0,1,1,27,1000,L,unchosen,gain,14,Stimuli/Experimental_stims/faces/david-siglin-UuW4psOb388-unsplash.jpg,no_response,NaN,0,0,43,3,1
27,29646,0,1,2,28,1500,J,unchosen,gain,36,Stimuli/Experimental_stims/objects/alexander-andrews-JYGnB9gTCls-unsplash.jpg,no_response,NaN,0,0,43,3,1
28,29646,0,1,2,29,1700,E,chosen,gain,46,Stimuli/Experimental_stims/objects/mockup-graphics-PNsj6RiHAF4-unsplash.jpg,no_response,NaN,0,0,43,3,1
29,29646,0,1,2,30,1000,D,unchosen,gain,41,Stimuli/Experimental_stims/objects/insung-yoon-w2JtIQQXoRU-unsplash.jpg,no_response,NaN,0,0,43,3,1
30,29646,0,1,2,31,2500,K,chosen,gain,44,Stimuli/Experimental_stims/objects/kuiye-chen-NuOGFo4PudE-unsplash.jpg,no_response,NaN,0,0,43,3,1
31,29646,0,1,2,32,4300,G,chosen,no_gain,43,Stimuli/Experimental_stims/objects/jonathan-greenaway-Y4hGgeiFn3s-unsplash.jpg,no_response,NaN,0,1,43,3,1
32,29646,0,1,2,33,1300,B,unchosen,no_gain,6,Stimuli/Experimental_stims/outdoor_scenes/meng-ji-8BH_M-53CyA-unsplash.jpg,no_response,NaN,0,0,43,3,1
33,29646,0,1,2,34,1900,H,unchosen,gain,22,Stimuli/Experimental_stims/faces/ravi-patel-VMGAbeeJTKo-unsplash.jpg,no_response,NaN,0,0,43,3,1
34,29646,0,1,2,35,1500,F,chosen,no_gain,18,Stimuli/Experimental_stims/faces/jessica-radanavong-mrYkTuAesKE-unsplash.jpg,no_response,NaN,0,0,43,3,1
35,29646,0,1,2,36,2200,C,unchosen,no_gain,26,Stimuli/Experimental_stims/body_parts/engin-akyurt-x_3gyC42btc-unsplash.jpg,no_response,NaN,0,0,43,3,1
36,29646,0,1,2,37,1200,A,unchosen,no_gain,5,Stimuli/Experimental_stims/outdoor_scenes/jeff-king-bJHWJeiHfHc-unsplash.jpg,no_response,NaN,0,0,43,3,1
37,29646,0,1,2,38,1300,L,chosen,gain,32,Stimuli/Experimental_stims/body_parts/towfiqu-barbhuiya-3AsiVDsZnHg-unsplash.jpg,no_response,NaN,0,0,43,3,1
38,29646,0,1,2,39,1100,C,chosen,no_gain,10,Stimuli/Experimental_stims/outdoor_scenes/shannon-kunkle-dM8INmkyDas-unsplash.jpg,no_response,NaN,0,0,43,3,1
39,29646,0,1,2,40,3300,K,unchosen,gain,29,Stimuli/Experimental_stims/body_parts/manuel-schinner-ZwjFuJ7ebpk-unsplash.jpg,no_response,NaN,0,1,43,3,1
40,29646,0,1,2,41,1200,L,unchosen,gain,14,Stimuli/Experimental_stims/faces/david-siglin-UuW4psOb388-unsplash.jpg,no_response,NaN,0,0,43,3,1
41,29646,0,1,2,42,1700,D,chosen,gain,15,Stimuli/Experimental_stims/faces/erik-lucatero-d2MSDujJl2g-unsplash.jpg,no_response,NaN,0,0,43,3,1
42,29646,0,1,2,43,1200,E,unchosen,gain,30,Stimuli/Experimental_stims/body_parts/mika-korhonen-Xodzxosar18-unsplash.jpg,no_response,NaN,0,0,43,3,1
43,29646,0,1,2,44,3000,I,unchosen,no_gain,33,Stimuli/Experimental_stims/body_parts/tucker-good-36skLT5jZcc-unsplash.jpg,no_response,NaN,0,0,43,3,1
44,29646,0,1,2,45,3700,H,chosen,gain,1,Stimuli/Experimental_stims/outdoor_scenes/ashim-d-silva-S2Q5mdOrrVc-unsplash.jpg,no_response,NaN,0,1,43,3,1
45,29646,0,1,2,46,1300,G,unchosen,no_gain,9,Stimuli/Experimental_stims/outdoor_scenes/sergey-pesterev-y-b_FOmJXdg-unsplash.jpg,no_response,NaN,0,0,43,3,1
46,29646,0,1,2,47,1200,B,chosen,no_gain,19,Stimuli/Experimental_stims/faces/joel-mott-LaK153ghdig-unsplash.jpg,no_response,NaN,0,0,43,3,1
47,29646,0,1,2,48,1500,I,chosen,no_gain,4,Stimuli/Experimental_stims/outdoor_scenes/jarrett-kow-1ZOyYPOBn7I-unsplash.jpg,no_response,NaN,0,0,43,3,1
48,29646,0,1,2,49,2900,F,unchosen,no_gain,27,Stimuli/Experimental_stims/body_parts/heike-mintel-i_Gns0ELnLw-unsplash.jpg,no_response,NaN,0,0,43,3,1
49,29646,0,1,2,50,1700,A,chosen,no_gain,45,Stimuli/Experimental_stims/objects/leohoho-rngTKHXumy0-unsplash.jpg,no_response,NaN,0,0,43,3,1
50,29646,0,1,2,51,3800,J,chosen,gain,21,Stimuli/Experimental_stims/faces/leilani-angel-K84vnnzxmTQ-unsplash.jpg,no_response,NaN,0,1,43,3,1
51,29646,0,1,3,52,3000,I,unchosen,no_gain,33,Stimuli/Experimental_stims/body_parts/tucker-good-36skLT5jZcc-unsplash.jpg,no_response,NaN,0,1,1,3,1
52,29646,0,1,3,53,2500,D,chosen,gain,15,Stimuli/Experimental_stims/faces/erik-lucatero-d2MSDujJl2g-unsplash.jpg,no_response,NaN,0,0,1,3,1
53,29646,0,1,3,54,1100,C,chosen,no_gain,10,Stimuli/Experimental_stims/outdoor_scenes/shannon-kunkle-dM8INmkyDas-unsplash.jpg,no_response,NaN,0,0,1,3,1
54,29646,0,1,3,55,1500,K,unchosen,gain,29,Stimuli/Experimental_stims/body_parts/manuel-schinner-ZwjFuJ7ebpk-unsplash.jpg,no_response,NaN,0,0,1,3,1
55,29646,0,1,3,56,2100,C,unchosen,no_gain,26,Stimuli/Experimental_stims/body_parts/engin-akyurt-x_3gyC42btc-unsplash.jpg,no_response,NaN,0,0,1,3,1
56,29646,0,1,3,57,2200,A,chosen,no_gain,45,Stimuli/Experimental_stims/objects/leohoho-rngTKHXumy0-unsplash.jpg,no_response,NaN,0,0,1,3,1
57,29646,0,1,3,58,3200,J,unchosen,gain,36,Stimuli/Experimental_stims/objects/alexander-andrews-JYGnB9gTCls-unsplash.jpg,no_response,NaN,0,1,1,3,1
58,29646,0,1,3,59,2500,J,chosen,gain,21,Stimuli/Experimental_stims/faces/leilani-angel-K84vnnzxmTQ-unsplash.jpg,no_response,NaN,0,0,1,3,1
59,29646,0,1,3,60,1900,H,chosen,gain,1,Stimuli/Experimental_stims/outdoor_scenes/ashim-d-silva-S2Q5mdOrrVc-unsplash.jpg,no_response,NaN,0,0,1,3,1
60,29646,0,1,3,61,2500,A,unchosen,no_gain,5,Stimuli/Experimental_stims/outdoor_scenes/jeff-king-bJHWJeiHfHc-unsplash.jpg,no_response,NaN,0,0,1,3,1
61,29646,0,1,3,62,1800,G,chosen,no_gain,43,Stimuli/Experimental_stims/objects/jonathan-greenaway-Y4hGgeiFn3s-unsplash.jpg,no_response,NaN,0,0,1,3,1
62,29646,0,1,3,63,1800,F,chosen,no_gain,18,Stimuli/Experimental_stims/faces/jessica-radanavong-mrYkTuAesKE-unsplash.jpg,no_response,NaN,0,0,1,3,1
63,29646,0,1,3,64,1500,B,unchosen,no_gain,6,Stimuli/Experimental_stims/outdoor_scenes/meng-ji-8BH_M-53CyA-unsplash.jpg,no_response,NaN,0,0,1,3,1
64,29646,0,1,3,65,3500,I,chosen,no_gain,4,Stimuli/Experimental_stims/outdoor_scenes/jarrett-kow-1ZOyYPOBn7I-unsplash.jpg,no_response,NaN,0,1,1,3,1
65,29646,0,1,3,66,2500,F,unchosen,no_gain,27,Stimuli/Experimental_stims/body_parts/heike-mintel-i_Gns0ELnLw-unsplash.jpg,no_response,NaN,0,0,1,3,1
66,29646,0,1,3,67,1400,E,chosen,gain,46,Stimuli/Experimental_stims/objects/mockup-graphics-PNsj6RiHAF4-unsplash.jpg,no_response,NaN,0,0,1,3,1
67,29646,0,1,3,68,1100,E,unchosen,gain,30,Stimuli/Experimental_stims/body_parts/mika-korhonen-Xodzxosar18-unsplash.jpg,no_response,NaN,0,0,1,3,1
68,29646,0,1,3,69,1200,L,chosen,gain,32,Stimuli/Experimental_stims/body_parts/towfiqu-barbhuiya-3AsiVDsZnHg-unsplash.jpg,no_response,NaN,0,0,1,3,1
69,29646,0,1,3,70,4400,D,unchosen,gain,41,Stimuli/Experimental_stims/objects/insung-yoon-w2JtIQQXoRU-unsplash.jpg,no_response,NaN,0,1,1,3,1
70,29646,0,1,3,71,1100,G,unchosen,no_gain,9,Stimuli/Experimental_stims/outdoor_scenes/sergey-pesterev-y-b_FOmJXdg-unsplash.jpg,no_response,NaN,0,0,1,3,1
71,29646,0,1,3,72,1100,B,chosen,no_gain,19,Stimuli/Experimental_stims/faces/joel-mott-LaK153ghdig-unsplash.jpg,no_response,NaN,0,0,1,3,1
72,29646,0,1,3,73,1000,L,unchosen,gain,14,Stimuli/Experimental_stims/faces/david-siglin-UuW4psOb388-unsplash.jpg,no_response,NaN,0,0,1,3,1
73,29646,0,1,3,74,1400,H,unchosen,gain,22,Stimuli/Experimental_stims/faces/ravi-patel-VMGAbeeJTKo-unsplash.jpg,no_response,NaN,0,0,1,3,1
74,29646,0,1,3,75,1200,K,chosen,gain,44,Stimuli/Experimental_stims/objects/kuiye-chen-NuOGFo4PudE-unsplash.jpg,no_response,NaN,0,0,1,3,1
75,29646,0,1,4,76,2600,C,chosen,no_gain,10,Stimuli/Experimental_stims/outdoor_scenes/shannon-kunkle-dM8INmkyDas-unsplash.jpg,no_response,NaN,0,0,1,3,1
76,29646,0,1,4,77,1500,H,unchosen,gain,22,Stimuli/Experimental_stims/faces/ravi-patel-VMGAbeeJTKo-unsplash.jpg,no_response,NaN,0,0,1,3,1
77,29646,0,1,4,78,2600,J,unchosen,gain,36,Stimuli/Experimental_stims/objects/alexander-andrews-JYGnB9gTCls-unsplash.jpg,no_response,NaN,0,0,1,3,1
78,29646,0,1,4,79,1800,D,chosen,gain,15,Stimuli/Experimental_stims/faces/erik-lucatero-d2MSDujJl2g-unsplash.jpg,no_response,NaN,0,0,1,3,1
79,29646,0,1,4,80,3500,B,chosen,no_gain,19,Stimuli/Experimental_stims/faces/joel-mott-LaK153ghdig-unsplash.jpg,no_response,NaN,0,1,1,3,1
80,29646,0,1,4,81,1000,G,unchosen,no_gain,9,Stimuli/Experimental_stims/outdoor_scenes/sergey-pesterev-y-b_FOmJXdg-unsplash.jpg,no_response,NaN,0,0,1,3,1
81,29646,0,1,4,82,2300,K,chosen,gain,44,Stimuli/Experimental_stims/objects/kuiye-chen-NuOGFo4PudE-unsplash.jpg,no_response,NaN,0,0,1,3,1
82,29646,0,1,4,83,1900,C,unchosen,no_gain,26,Stimuli/Experimental_stims/body_parts/engin-akyurt-x_3gyC42btc-unsplash.jpg,no_response,NaN,0,0,1,3,1
83,29646,0,1,4,84,2200,G,chosen,no_gain,43,Stimuli/Experimental_stims/objects/jonathan-greenaway-Y4hGgeiFn3s-unsplash.jpg,no_response,NaN,0,0,1,3,1
84,29646,0,1,4,85,4100,J,chosen,gain,21,Stimuli/Experimental_stims/faces/leilani-angel-K84vnnzxmTQ-unsplash.jpg,no_response,NaN,0,1,1,3,1
85,29646,0,1,4,86,1200,B,unchosen,no_gain,6,Stimuli/Experimental_stims/outdoor_scenes/meng-ji-8BH_M-53CyA-unsplash.jpg,no_response,NaN,0,0,1,3,1
86,29646,0,1,4,87,1200,K,unchosen,gain,29,Stimuli/Experimental_stims/body_parts/manuel-schinner-ZwjFuJ7ebpk-unsplash.jpg,no_response,NaN,0,0,1,3,1
87,29646,0,1,4,88,1000,I,chosen,no_gain,4,Stimuli/Experimental_stims/outdoor_scenes/jarrett-kow-1ZOyYPOBn7I-unsplash.jpg,no_response,NaN,0,0,1,3,1
88,29646,0,1,4,89,2300,I,unchosen,no_gain,33,Stimuli/Experimental_stims/body_parts/tucker-good-36skLT5jZcc-unsplash.jpg,no_response,NaN,0,0,1,3,1
89,29646,0,1,4,90,1900,A,chosen,no_gain,45,Stimuli/Experimental_stims/objects/leohoho-rngTKHXumy0-unsplash.jpg,no_response,NaN,0,0,1,3,1
90,29646,0,1,4,91,1100,D,unchosen,gain,41,Stimuli/Experimental_stims/objects/insung-yoon-w2JtIQQXoRU-unsplash.jpg,no_response,NaN,0,0,1,3,1
91,29646,0,1,4,92,1400,H,chosen,gain,1,Stimuli/Experimental_stims/outdoor_scenes/ashim-d-silva-S2Q5mdOrrVc-unsplash.jpg,no_response,NaN,0,0,1,3,1
92,29646,0,1,4,93,1400,L,chosen,gain,32,Stimuli/Experimental_stims/body_parts/towfiqu-barbhuiya-3AsiVDsZnHg-unsplash.jpg,no_response,NaN,0,0,1,3,1
93,29646,0,1,4,94,4900,L,unchosen,gain,14,Stimuli/Experimental_stims/faces/david-siglin-UuW4psOb388-unsplash.jpg,no_response,NaN,0,1,1,3,1
94,29646,0,1,4,95,1700,E,unchosen,gain,30,Stimuli/Experimental_stims/body_parts/mika-korhonen-Xodzxosar18-unsplash.jpg,no_response,NaN,0,0,1,3,1
95,29646,0,1,4,96,1300,E,chosen,gain,46,Stimuli/Experimental_stims/objects/mockup-graphics-PNsj6RiHAF4-unsplash.jpg,no_response,NaN,0,0,1,3,1
96,29646,0,1,4,97,1100,F,unchosen,no_gain,27,Stimuli/Experimental_stims/body_parts/heike-mintel-i_Gns0ELnLw-unsplash.jpg,no_response,NaN,0,0,1,3,1
97,29646,0,1,4,98,1300,F,chosen,no_gain,18,Stimuli/Experimental_stims/faces/jessica-radanavong-mrYkTuAesKE-unsplash.jpg,no_response,NaN,0,0,1,3,1
98,29646,0,1,4,99,3200,A,unchosen,no_gain,5,Stimuli/Experimental_stims/outdoor_scenes/jeff-king-bJHWJeiHfHc-unsplash.jpg,no_response,NaN,0,1,1,3,1