,PID,practice,run,block,trial,iti,pair_id,choice_type,reward_type,stimulus_id,path,outcome_response,outcome_rt,outcome_acc,confidence_response,confidence_rt,long_iti,simulation,version,no_response
0,19377,1,0,0,1,1500,,,,,Stimuli/Practice_stims/Outcome_estimation/becca-tapert-sY5RjMB1KkE-unsplash.jpg,NaN,NaN,0,,,0,31,2,1
1,19377,1,0,0,2,1000,,,,,Stimuli/Practice_stims/Outcome_estimation/clay-banks-1KPfcPdbWFM-unsplash.jpg,NaN,NaN,0,,,0,31,2,1
2,19377,1,0,0,3,3000,,,,,Stimuli/Practice_stims/Outcome_estimation/melissa-keizer-sV4Pd8wq5_o-unsplash.jpg,NaN,NaN,0,,,0,31,2,1
3,19377,0,1,1,4,2300,E,unchosen,no_gain,31,Stimuli/Experimental_stims/body_parts/sincerely-media-VN6DbKajo5s-unsplash.jpg,NaN,NaN,0,,,0,31,2,1
4,19377,0,1,1,5,2500,B,chosen,gain,9,Stimuli/Experimental_stims/outdoor_scenes/sergey-pesterev-y-b_FOmJXdg-unsplash.jpg,NaN,NaN,0,,,0,31,2,1
5,19377,0,1,1,6,1600,A,unchosen,no_gain,46,Stimuli/Experimental_stims/objects/mockup-graphics-PNsj6RiHAF4-unsplash.jpg,NaN,NaN,0,,,0,31,2,1
6,19377,0,1,1,7,1000,L,unchosen,gain,19,Stimuli/Experimental_stims/faces/joel-mott-LaK153ghdig-unsplash.jpg,NaN,NaN,0,,,0,31,2,1
7,19377,0,1,1,8,2800,F,chosen,no_gain,16,Stimuli/Experimental_stims/faces/freddy-kearney-o-ioeoATbIM-unsplash.jpg,NaN,NaN,0,,,0,31,2,1
8,19377,0,1,1,9,1200,F,unchosen,no_gain,29,Stimuli/Experimental_stims/body_parts/manuel-schinner-ZwjFuJ7ebpk-unsplash.jpg,NaN,NaN,0,,,0,31,2,1
9,19377,0,1,1,10,1000,C,unchosen,no_gain,35,Stimuli/Experimental_stims/body_parts/wc-so-KH4AAPjb-tI-unsplash.jpg,NaN,NaN,0,,,0,31,2,1
10,19377,0,1,1,11,3400,J,chosen,no_gain,15,Stimuli/Experimental_stims/faces/erik-lucatero-d2MSDujJl2g-unsplash.jpg,NaN,NaN,0,,,1,31,2,1
11,19377,0,1,1,12,2900,I,unchosen,gain,1,Stimuli/Experimental_stims/outdoor_scenes/ashim-d-silva-S2Q5mdOrrVc-unsplash.jpg,NaN,NaN,0,,,0,31,2,1
12,19377,0,1,1,13,2700,D,chosen,gain,41,Stimuli/Experimental_stims/objects/insung-yoon-w2JtIQQXoRU-unsplash.jpg,NaN,NaN,0,,,0,31,2,1
13,19377,0,1,1,14,2200,B,unchosen,gain,18,Stimuli/Experimental_stims/faces/jessica-radanavong-mrYkTuAesKE-unsplash.jpg,NaN,NaN,0,,,0,31,2,1
14,19377,0,1,1,15,1400,H,chosen,gain,12,Stimuli/Experimental_stims/faces/aiony-haust-jmATI5Q_YgY-unsplash.jpg,NaN,NaN,0,,,0,31,2,1
15,19377,0,1,1,16,2200,L,chosen,gain,32,Stimuli/Experimental_stims/body_parts/towfiqu-barbhuiya-3AsiVDsZnHg-unsplash.jpg,NaN,NaN,0,,,0,31,2,1
16,19377,0,1,1,17,3200,D,unchosen,gain,13,Stimuli/Experimental_stims/faces/daniel-rigdon-dXmXKPP2L4E-unsplash.jpg,NaN,NaN,0,,,1,31,2,1
17,19377,0,1,1,18,2500,C,chosen,no_gain,3,Stimuli/Experimental_stims/outdoor_scenes/henry-be-NLF6hTe4PAg-unsplash.jpg,NaN,NaN,0,,,0,31,2,1
18,19377,0,1,1,19,1100,G,unchosen,gain,8,Stimuli/Experimental_stims/outdoor_scenes/samsommer-vddccTqwal8-unsplash.jpg,NaN,NaN,0,,,0,31,2,1
19,19377,0,1,1,20,2100,I,chosen,gain,34,Stimuli/Experimental_stims/body_parts/wagner-santos-mBWMvIuVnso-unsplash.jpg,NaN,NaN,0,,,0,31,2,1
20,19377,0,1,1,21,2600,E,chosen,no_gain,44,Stimuli/Experimental_stims/objects/kuiye-chen-NuOGFo4PudE-unsplash.jpg,NaN,NaN,0,,,0,31,2,1
21,19377,0,1,1,22,3300,H,unchosen,gain,6,Stimuli/Experimental_stims/outdoor_scenes/meng-ji-8BH_M-53CyA-unsplash.jpg,NaN,NaN,0,,,1,31,2,1
22,19377,0,1,1,23,1900,G,chosen,gain,39,Stimuli/Experimental_stims/objects/charlesdeluvio-1-nx1QR5dTE-unsplash.jpg,NaN,NaN,0,,,0,31,2,1
23,19377,0,1,1,24,1200,J,unchosen,no_gain,37,Stimuli/Experimental_stims/objects/alexander-andrews-VLGWE_SumrA-unsplash.jpg,NaN,NaN,0,,,0,31,2,1
24,19377,0,1,1,25,2400,K,chosen,no_gain,33,Stimuli/Experimental_stims/body_parts/tucker-good-36skLT5jZcc-unsplash.jpg,NaN,NaN,0,,,0,31,2,1
25,19377,0,1,1,26,1300,A,chosen,no_gain,5,Stimuli/Experimental_stims/outdoor_scenes/jeff-king-bJHWJeiHfHc-unsplash.jpg,NaN,NaN,0,,,0,31,2,1
26,19377,0,1,1,27,1800,K,unchosen,no_gain,45,Stimuli/Experimental_stims/objects/leohoho-rngTKHXumy0-unsplash.jpg,NaN,NaN,0,,,0,31,2,1
27,19377,0,1,2,28,4200,E,unchosen,no_gain,31,Stimuli/Experimental_stims/body_parts/sincerely-media-VN6DbKajo5s-unsplash.jpg,NaN,NaN,0,,,1,31,2,1
28,19377,0,1,2,29,1300,K,chosen,no_gain,33,Stimuli/Experimental_stims/body_parts/tucker-good-36skLT5jZcc-unsplash.jpg,NaN,NaN,0,,,0,31,2,1
29,19377,0,1,2,30,1900,F,chosen,no_gain,16,Stimuli/Experimental_stims/faces/freddy-kearney-o-ioeoATbIM-unsplash.jpg,NaN,NaN,0,,,0,31,2,1
30,19377,0,1,2,31,1400,L,unchosen,gain,19,Stimuli/Experimental_stims/faces/joel-mott-LaK153ghdig-unsplash.jpg,NaN,NaN,0,,,0,31,2,1
31,19377,0,1,2,32,1300,J,unchosen,no_gain,37,Stimuli/Experimental_stims/objects/alexander-andrews-VLGWE_SumrA-unsplash.jpg,NaN,NaN,0,,,0,31,2,1
32,19377,0,1,2,33,1500,D,chosen,gain,41,Stimuli/Experimental_stims/objects/insung-yoon-w2JtIQQXoRU-unsplash.jpg,NaN,NaN,0,,,0,31,2,1
33,19377,0,1,2,34,1300,D,unchosen,gain,13,Stimuli/Experimental_stims/faces/daniel-rigdon-dXmXKPP2L4E-unsplash.jpg,NaN,NaN,0,,,0,31,2,1
34,19377,0,1,2,35,1700,J,chosen,no_gain,15,Stimuli/Experimental_stims/faces/erik-lucatero-d2MSDujJl2g-unsplash.jpg,NaN,NaN,0,,,0,31,2,1
35,19377,0,1,2,36,1100,H,chosen,gain,12,Stimuli/Experimental_stims/faces/aiony-haust-jmATI5Q_YgY-unsplash.jpg,NaN,NaN,0,,,0,31,2,1
36,19377,0,1,2,37,3000,B,unchosen,gain,18,Stimuli/Experimental_stims/faces/jessica-radanavong-mrYkTuAesKE-unsplash.jpg,NaN,NaN,0,,,1,31,2,1
37,19377,0,1,2,38,1700,A,chosen,no_gain,5,Stimuli/Experimental_stims/outdoor_scenes/jeff-king-bJHWJeiHfHc-unsplash.jpg,NaN,NaN,0,,,0,31,2,1
38,19377,0,1,2,39,2900,B,chosen,gain,9,Stimuli/Experimental_stims/outdoor_scenes/sergey-pesterev-y-b_FOmJXdg-unsplash.jpg,NaN,NaN,0,,,0,31,2,1
39,19377,0,1,2,40,1100,I,unchosen,gain,1,Stimuli/Experimental_stims/outdoor_scenes/ashim-d-silva-S2Q5mdOrrVc-unsplash.jpg,NaN,NaN,0,,,0,31,2,1
40,19377,0,1,2,41,1800,E,chosen,no_gain,44,Stimuli/Experimental_stims/objects/kuiye-chen-NuOGFo4PudE-unsplash.jpg,gain,106,0,,,0,31,2,0
41,19377,0,1,2,42,1100,G,unchosen,gain,8,Stimuli/Experimental_stims/outdoor_scenes/samsommer-vddccTqwal8-unsplash.jpg,gain,8,1,,,0,31,2,0
42,19377,0,1,2,43,2200,L,chosen,gain,32,Stimuli/Experimental_stims/body_parts/towfiqu-barbhuiya-3AsiVDsZnHg-unsplash.jpg,gain,79,1,,,0,31,2,0
43,19377,0,1,2,44,1700,H,unchosen,gain,6,Stimuli/Experimental_stims/outdoor_scenes/meng-ji-8BH_M-53CyA-unsplash.jpg,NaN,NaN,0,,,0,31,2,1
44,19377,0,1,2,45,1100,C,unchosen,no_gain,35,Stimuli/Experimental_stims/body_parts/wc-so-KH4AAPjb-tI-unsplash.jpg,NaN,NaN,0,,,0,31,2,1
45,19377,0,1,2,46,3600,G,chosen,gain,39,Stimuli/Experimental_stims/objects/charlesdeluvio-1-nx1QR5dTE-unsplash.jpg,gain,84,1,,,1,31,2,0
46,19377,0,1,2,47,1800,K,unchosen,no_gain,45,Stimuli/Experimental_stims/objects/leohoho-rngTKHXumy0-unsplash.jpg,gain,20,0,,,0,31,2,0
47,19377,0,1,2,48,1500,A,unchosen,no_gain,46,Stimuli/Experimental_stims/objects/mockup-graphics-PNsj6RiHAF4-unsplash.jpg,gain,97,0,,,0,31,2,0
48,19377,0,1,2,49,1700,I,chosen,gain,34,Stimuli/Experimental_stims/body_parts/wagner-santos-mBWMvIuVnso-unsplash.jpg,gain,35,1,,,0,31,2,0
49,19377,0,1,2,50,1400,F,unchosen,no_gain,29,Stimuli/Experimental_stims/body_parts/manuel-schinner-ZwjFuJ7ebpk-unsplash.jpg,NaN,NaN,0,,,0,31,2,1
50,19377,0,1,2,51,3100,C,chosen,no_gain,3,Stimuli/Experimental_stims/outdoor_scenes/henry-be-NLF6hTe4PAg-unsplash.jpg,gain,99,0,,,1,31,2,0
51,19377,0,1,3,52,2900,L,chosen,gain,32,Stimuli/Experimental_stims/body_parts/towfiqu-barbhuiya-3AsiVDsZnHg-unsplash.jpg,gain,24,1,,,1,21,2,0
52,19377,0,1,3,53,1500,C,unchosen,no_gain,35,Stimuli/Experimental_stims/body_parts/wc-so-KH4AAPjb-tI-unsplash.jpg,NaN,NaN,0,,,0,21,2,1
53,19377,0,1,3,54,1700,F,chosen,no_gain,16,Stimuli/Experimental_stims/faces/freddy-kearney-o-ioeoATbIM-unsplash.jpg,gain,108,0,,,0,21,2,0
54,19377,0,1,3,55,2000,A,chosen,no_gain,5,Stimuli/Experimental_stims/outdoor_scenes/jeff-king-bJHWJeiHfHc-unsplash.jpg,gain,49,0,,,0,21,2,0
55,19377,0,1,3,56,2000,J,unchosen,no_gain,37,Stimuli/Experimental_stims/objects/alexander-andrews-VLGWE_SumrA-unsplash.jpg,NaN,NaN,0,,,0,21,2,1
56,19377,0,1,3,57,2900,E,unchosen,no_gain,31,Stimuli/Experimental_stims/body_parts/sincerely-media-VN6DbKajo5s-unsplash.jpg,NaN,NaN,0,,,1,21,2,1
57,19377,0,1,3,58,2000,G,chosen,gain,39,Stimuli/Experimental_stims/objects/charlesdeluvio-1-nx1QR5dTE-unsplash.jpg,gain,84,1,,,0,21,2,0
58,19377,0,1,3,59,1000,K,unchosen,no_gain,45,Stimuli/Experimental_stims/objects/leohoho-rngTKHXumy0-unsplash.jpg,gain,29,0,,,0,21,2,0
59,19377,0,1,3,60,1100,H,chosen,gain,12,Stimuli/Experimental_stims/faces/aiony-haust-jmATI5Q_YgY-unsplash.jpg,NaN,NaN,0,,,0,21,2,1
60,19377,0,1,3,61,1800,H,unchosen,gain,6,Stimuli/Experimental_stims/outdoor_scenes/meng-ji-8BH_M-53CyA-unsplash.jpg,gain,89,1,,,0,21,2,0
61,19377,0,1,3,62,3200,F,unchosen,no_gain,29,Stimuli/Experimental_stims/body_parts/manuel-schinner-ZwjFuJ7ebpk-unsplash.jpg,gain,23,0,,,1,21,2,0
62,19377,0,1,3,63,1400,B,chosen,gain,9,Stimuli/Experimental_stims/outdoor_scenes/sergey-pesterev-y-b_FOmJXdg-unsplash.jpg,gain,92,1,,,0,21,2,0
63,19377,0,1,3,64,2100,G,unchosen,gain,8,Stimuli/Experimental_stims/outdoor_scenes/samsommer-vddccTqwal8-unsplash.jpg,gain,38,1,,,0,21,2,0
64,19377,0,1,3,65,1200,K,chosen,no_gain,33,Stimuli/Experimental_stims/body_parts/tucker-good-36skLT5jZcc-unsplash.jpg,gain,0,0,,,0,21,2,0
65,19377,0,1,3,66,1100,I,unchosen,gain,1,Stimuli/Experimental_stims/outdoor_scenes/ashim-d-silva-S2Q5mdOrrVc-unsplash.jpg,gain,96,1,,,0,21,2,0
66,19377,0,1,3,67,4300,I,chosen,gain,34,Stimuli/Experimental_stims/body_parts/wagner-santos-mBWMvIuVnso-unsplash.jpg,gain,95,1,,,1,21,2,0
67,19377,0,1,3,68,2300,A,unchosen,no_gain,46,Stimuli/Experimental_stims/objects/mockup-graphics-PNsj6RiHAF4-unsplash.jpg,gain,23,0,,,0,21,2,0
68,19377,0,1,3,69,1300,D,chosen,gain,41,Stimuli/Experimental_stims/objects/insung-yoon-w2JtIQQXoRU-unsplash.jpg,NaN,NaN,0,,,0,21,2,1
69,19377,0,1,3,70,2000,D,unchosen,gain,13,Stimuli/Experimental_stims/faces/daniel-rigdon-dXmXKPP2L4E-unsplash.jpg,gain,102,1,,,0,21,2,0
70,19377,0,1,3,71,1900,C,chosen,no_gain,3,Stimuli/Experimental_stims/outdoor_scenes/henry-be-NLF6hTe4PAg-unsplash.jpg,gain,37,0,,,0,21,2,0
71,19377,0,1,3,72,2800,E,chosen,no_gain,44,Stimuli/Experimental_stims/objects/kuiye-chen-NuOGFo4PudE-unsplash.jpg,NaN,NaN,0,,,1,21,2,1
72,19377,0,1,3,73,1500,L,unchosen,gain,19,Stimuli/Experimental_stims/faces/joel-mott-LaK153ghdig-unsplash.jpg,NaN,NaN,0,,,0,21,2,1
73,19377,0,1,3,74,2100,B,unchosen,gain,18,Stimuli/Experimental_stims/faces/jessica-radanavong-mrYkTuAesKE-unsplash.jpg,gain,105,1,,,0,21,2,0
74,19377,0,1,3,75,1500,J,chosen,no_gain,15,Stimuli/Experimental_stims/faces/erik-lucatero-d2MSDujJl2g-unsplash.jpg,gain,54,0,,,0,21,2,0
75,19377,0,1,4,76,1400,C,unchosen,no_gain,35,Stimuli/Experimental_stims/body_parts/wc-so-KH4AAPjb-tI-unsplash.jpg,NaN,NaN,0,,,0,21,2,1
76,19377,0,1,4,77,4100,F,chosen,no_gain,16,Stimuli/Experimental_stims/faces/freddy-kearney-o-ioeoATbIM-unsplash.jpg,gain,15,0,,,1,21,2,0
77,19377,0,1,4,78,1000,A,unchosen,no_gain,46,Stimuli/Experimental_stims/objects/mockup-graphics-PNsj6RiHAF4-unsplash.jpg,NaN,NaN,0,,,0,21,2,1
78,19377,0,1,4,79,2200,L,unchosen,gain,19,Stimuli/Experimental_stims/faces/joel-mott-LaK153ghdig-unsplash.jpg,NaN,NaN,0,,,0,21,2,1
79,19377,0,1,4,80,1500,L,chosen,gain,32,Stimuli/Experimental_stims/body_parts/towfiqu-barbhuiya-3AsiVDsZnHg-unsplash.jpg,NaN,NaN,0,,,0,21,2,1
80,19377,0,1,4,81,1300,C,chosen,no_gain,3,Stimuli/Experimental_stims/outdoor_scenes/henry-be-NLF6hTe4PAg-unsplash.jpg,NaN,NaN,0,,,0,21,2,1
81,19377,0,1,4,82,2700,J,unchosen,no_gain,37,Stimuli/Experimental_stims/objects/alexander-andrews-VLGWE_SumrA-unsplash.jpg,NaN,NaN,0,,,0,21,2,1
82,19377,0,1,4,83,1300,B,chosen,gain,9,Stimuli/Experimental_stims/outdoor_scenes/sergey-pesterev-y-b_FOmJXdg-unsplash.jpg,NaN,NaN,0,,,0,21,2,1
83,19377,0,1,4,84,2600,J,chosen,no_gain,15,Stimuli/Experimental_stims/faces/erik-lucatero-d2MSDujJl2g-unsplash.jpg,NaN,NaN,0,,,0,21,2,1
84,19377,0,1,4,85,2900,I,unchosen,gain,1,Stimuli/Experimental_stims/outdoor_scenes/ashim-d-silva-S2Q5mdOrrVc-unsplash.jpg,NaN,NaN,0,,,1,21,2,1
85,19377,0,1,4,86,1800,E,chosen,no_gain,44,Stimuli/Experimental_stims/objects/kuiye-chen-NuOGFo4PudE-unsplash.jpg,NaN,NaN,0,,,0,21,2,1
86,19377,0,1,4,87,1700,G,unchosen,gain,8,Stimuli/Experimental_stims/outdoor_scenes/samsommer-vddccTqwal8-unsplash.jpg,NaN,NaN,0,,,0,21,2,1
87,19377,0,1,4,88,1800,B,unchosen,gain,18,Stimuli/Experimental_stims/faces/jessica-radanavong-mrYkTuAesKE-unsplash.jpg,gain,20,1,,,0,21,2,0
88,19377,0,1,4,89,1900,D,chosen,gain,41,Stimuli/Experimental_stims/objects/insung-yoon-w2JtIQQXoRU-unsplash.jpg,NaN,NaN,0,,,0,21,2,1
89,19377,0,1,4,90,3600,I,chosen,gain,34,Stimuli/Experimental_stims/body_parts/wagner-santos-mBWMvIuVnso-unsplash.jpg,NaN,NaN,0,,,1,21,2,1
90,19377,0,1,4,91,2300,E,unchosen,no_gain,31,Stimuli/Experimental_stims/body_parts/sincerely-media-VN6DbKajo5s-unsplash.jpg,NaN,NaN,0,,,0,21,2,1
91,19377,0,1,4,92,1400,A,chosen,no_gain,5,Stimuli/Experimental_stims/outdoor_scenes/jeff-king-bJHWJeiHfHc-unsplash.jpg,NaN,NaN,0,,,0,21,2,1
92,19377,0,1,4,93,2600,H,unchosen,gain,6,Stimuli/Experimental_stims/outdoor_scenes/meng-ji-8BH_M-53CyA-unsplash.jpg,NaN,NaN,0,,,0,21,2,1
93,19377,0,1,4,94,2600,D,unchosen,gain,13,Stimuli/Experimental_stims/faces/daniel-rigdon-dXmXKPP2L4E-unsplash.jpg,NaN,NaN,0,,,0,21,2,1
94,19377,0,1,4,95,1000,H,chosen,gain,12,Stimuli/Experimental_stims/faces/aiony-haust-jmATI5Q_YgY-unsplash.jpg,NaN,NaN,0,,,0,21,2,1
95,19377,0,1,4,96,1200,K,chosen,no_gain,33,Stimuli/Experimental_stims/body_parts/tucker-good-36skLT5jZcc-unsplash.jpg,NaN,NaN,0,,,0,21,2,1
96,19377,0,1,4,97,1500,F,unchosen,no_gain,29,Stimuli/Experimental_stims/body_parts/manuel-schinner-ZwjFuJ7ebpk-unsplash.jpg,NaN,NaN,0,,,0,21,2,1
97,19377,0,1,4,98,2200,K,unchosen,no_gain,45,Stimuli/Experimental_stims/objects/leohoho-rngTKHXumy0-unsplash.jpg,NaN,NaN,0,,,0,21,2,1
98,19377,0,1,4,99,1800,G,chosen,gain,39,Stimuli/Experimental_stims/objects/charlesdeluvio-1-nx1QR5dTE-unsplash.jpg,NaN,NaN,0,,,0,21,2,1