PID,trial,stimulus_index,rt,rating,category,stimulus,path,iti
50477,1,28,1111,50,body_parts,ira-vishnevskaya-8DQAvdCby1I-unsplash.jpg,Stimuli/Experimental_stims/body_parts/ira-vishnevskaya-8DQAvdCby1I-unsplash.jpg,NaN
50477,2,4,153,50,outdoor_scenes,jarrett-kow-1ZOyYPOBn7I-unsplash.jpg,Stimuli/Experimental_stims/outdoor_scenes/jarrett-kow-1ZOyYPOBn7I-unsplash.jpg,NaN
50477,3,35,255,50,body_parts,wc-so-KH4AAPjb-tI-unsplash.jpg,Stimuli/Experimental_stims/body_parts/wc-so-KH4AAPjb-tI-unsplash.jpg,NaN
50477,4,47,162,50,objects,ronaldo-arthur-vidal-Cdz_lvnl37k-unsplash.jpg,Stimuli/Experimental_stims/objects/ronaldo-arthur-vidal-Cdz_lvnl37k-unsplash.jpg,NaN
50477,5,9,155,50,outdoor_scenes,sergey-pesterev-y-b_FOmJXdg-unsplash.jpg,Stimuli/Experimental_stims/outdoor_scenes/sergey-pesterev-y-b_FOmJXdg-unsplash.jpg,NaN
50477,6,31,149,50,body_parts,sincerely-media-VN6DbKajo5s-unsplash.jpg,Stimuli/Experimental_stims/body_parts/sincerely-media-VN6DbKajo5s-unsplash.jpg,NaN
50477,7,5,161,50,outdoor_scenes,jeff-king-bJHWJeiHfHc-unsplash.jpg,Stimuli/Experimental_stims/outdoor_scenes/jeff-king-bJHWJeiHfHc-unsplash.jpg,NaN
50477,8,27,237,50,body_parts,heike-mintel-i_Gns0ELnLw-unsplash.jpg,Stimuli/Experimental_stims/body_parts/heike-mintel-i_Gns0ELnLw-unsplash.jpg,NaN
50477,9,37,162,50,objects,alexander-andrews-VLGWE_SumrA-unsplash.jpg,Stimuli/Experimental_stims/objects/alexander-andrews-VLGWE_SumrA-unsplash.jpg,NaN
50477,10,19,161,50,faces,joel-mott-LaK153ghdig-unsplash.jpg,Stimuli/Experimental_stims/faces/joel-mott-LaK153ghdig-unsplash.jpg,NaN
50477,11,34,160,50,body_parts,wagner-santos-mBWMvIuVnso-unsplash.jpg,Stimuli/Experimental_stims/body_parts/wagner-santos-mBWMvIuVnso-unsplash.jpg,NaN
50477,12,22,241,50,faces,ravi-patel-VMGAbeeJTKo-unsplash.jpg,Stimuli/Experimental_stims/faces/ravi-patel-VMGAbeeJTKo-unsplash.jpg,NaN
50477,13,1,176,50,outdoor_scenes,ashim-d-silva-S2Q5mdOrrVc-unsplash.jpg,Stimuli/Experimental_stims/outdoor_scenes/ashim-d-silva-S2Q5mdOrrVc-unsplash.jpg,NaN
50477,14,15,154,50,faces,erik-lucatero-d2MSDujJl2g-unsplash.jpg,Stimuli/Experimental_stims/faces/erik-lucatero-d2MSDujJl2g-unsplash.jpg,NaN
50477,15,17,174,50,faces,good-faces-xmSWVeGEnJw-unsplash.jpg,Stimuli/Experimental_stims/faces/good-faces-xmSWVeGEnJw-unsplash.jpg,NaN
50477,16,12,176,50,faces,aiony-haust-jmATI5Q_YgY-unsplash.jpg,Stimuli/Experimental_stims/faces/aiony-haust-jmATI5Q_YgY-unsplash.jpg,NaN
50477,17,0,167,50,outdoor_scenes,aleksandra-boguslawska-MS7KD9Ti7FQ-unsplash.jpg,Stimuli/Experimental_stims/outdoor_scenes/aleksandra-boguslawska-MS7KD9Ti7FQ-unsplash.jpg,NaN
50477,18,41,160,50,objects,insung-yoon-w2JtIQQXoRU-unsplash.jpg,Stimuli/Experimental_stims/objects/insung-yoon-w2JtIQQXoRU-unsplash.jpg,NaN
50477,19,18,175,50,faces,jessica-radanavong-mrYkTuAesKE-unsplash.jpg,Stimuli/Experimental_stims/faces/jessica-radanavong-mrYkTuAesKE-unsplash.jpg,NaN
50477,20,11,174,50,outdoor_scenes,stephen-leonardi-gyIRjKPXupE-unsplash.jpg,Stimuli/Experimental_stims/outdoor_scenes/stephen-leonardi-gyIRjKPXupE-unsplash.jpg,NaN
50477,21,20,161,50,faces,justin-chen-J7Cf1Gch49E-unsplash.jpg,Stimuli/Experimental_stims/faces/justin-chen-J7Cf1Gch49E-unsplash.jpg,NaN
50477,22,23,180,50,faces,rikonavt-HQjfrvdTfak-unsplash.jpg,Stimuli/Experimental_stims/faces/rikonavt-HQjfrvdTfak-unsplash.jpg,NaN
50477,23,25,162,50,body_parts,engin-akyurt-Q2rfH3GW39c-unsplash.jpg,Stimuli/Experimental_stims/body_parts/engin-akyurt-Q2rfH3GW39c-unsplash.jpg,NaN
50477,24,33,160,50,body_parts,tucker-good-36skLT5jZcc-unsplash.jpg,Stimuli/Experimental_stims/body_parts/tucker-good-36skLT5jZcc-unsplash.jpg,NaN
50477,25,32,178,50,body_parts,towfiqu-barbhuiya-3AsiVDsZnHg-unsplash.jpg,Stimuli/Experimental_stims/body_parts/towfiqu-barbhuiya-3AsiVDsZnHg-unsplash.jpg,NaN
50477,26,30,173,50,body_parts,mika-korhonen-Xodzxosar18-unsplash.jpg,Stimuli/Experimental_stims/body_parts/mika-korhonen-Xodzxosar18-unsplash.jpg,NaN
50477,27,16,174,50,faces,freddy-kearney-o-ioeoATbIM-unsplash.jpg,Stimuli/Experimental_stims/faces/freddy-kearney-o-ioeoATbIM-unsplash.jpg,NaN
50477,28,14,182,50,faces,david-siglin-UuW4psOb388-unsplash.jpg,Stimuli/Experimental_stims/faces/david-siglin-UuW4psOb388-unsplash.jpg,NaN
50477,29,36,171,50,objects,alexander-andrews-JYGnB9gTCls-unsplash.jpg,Stimuli/Experimental_stims/objects/alexander-andrews-JYGnB9gTCls-unsplash.jpg,NaN
50477,30,3,193,50,outdoor_scenes,henry-be-NLF6hTe4PAg-unsplash.jpg,Stimuli/Experimental_stims/outdoor_scenes/henry-be-NLF6hTe4PAg-unsplash.jpg,NaN
50477,31,29,161,50,body_parts,manuel-schinner-ZwjFuJ7ebpk-unsplash.jpg,Stimuli/Experimental_stims/body_parts/manuel-schinner-ZwjFuJ7ebpk-unsplash.jpg,NaN
50477,32,43,183,50,objects,jonathan-greenaway-Y4hGgeiFn3s-unsplash.jpg,Stimuli/Experimental_stims/objects/jonathan-greenaway-Y4hGgeiFn3s-unsplash.jpg,NaN
50477,33,40,160,50,objects,fabian-blank-pElSkGRA2NU-unsplash.jpg,Stimuli/Experimental_stims/objects/fabian-blank-pElSkGRA2NU-unsplash.jpg,NaN
50477,34,2,167,50,outdoor_scenes,bruno-van-der-kraan-qez8mNJ3ilU-unsplash.jpg,Stimuli/Experimental_stims/outdoor_scenes/bruno-van-der-kraan-qez8mNJ3ilU-unsplash.jpg,NaN
50477,35,26,174,50,body_parts,engin-akyurt-x_3gyC42btc-unsplash.jpg,Stimuli/Experimental_stims/body_parts/engin-akyurt-x_3gyC42btc-unsplash.jpg,NaN
50477,36,45,181,50,objects,leohoho-rngTKHXumy0-unsplash.jpg,Stimuli/Experimental_stims/objects/leohoho-rngTKHXumy0-unsplash.jpg,NaN
50477,37,6,180,50,outdoor_scenes,meng-ji-8BH_M-53CyA-unsplash.jpg,Stimuli/Experimental_stims/outdoor_scenes/meng-ji-8BH_M-53CyA-unsplash.jpg,NaN
50477,38,13,171,50,faces,daniel-rigdon-dXmXKPP2L4E-unsplash.jpg,Stimuli/Experimental_stims/faces/daniel-rigdon-dXmXKPP2L4E-unsplash.jpg,NaN
50477,39,44,188,50,objects,kuiye-chen-NuOGFo4PudE-unsplash.jpg,Stimuli/Experimental_stims/objects/kuiye-chen-NuOGFo4PudE-unsplash.jpg,NaN
50477,40,42,199,50,objects,jess-bailey-nOeVi8DsN8U-unsplash.jpg,Stimuli/Experimental_stims/objects/jess-bailey-nOeVi8DsN8U-unsplash.jpg,NaN
50477,41,24,185,50,body_parts,clay-banks-LjqARJaJotc-unsplash.jpg,Stimuli/Experimental_stims/body_parts/clay-banks-LjqARJaJotc-unsplash.jpg,NaN
50477,42,21,179,50,faces,leilani-angel-K84vnnzxmTQ-unsplash.jpg,Stimuli/Experimental_stims/faces/leilani-angel-K84vnnzxmTQ-unsplash.jpg,NaN
50477,43,7,188,50,outdoor_scenes,petr-vysohlid-9fqwGqGLUxc-unsplash.jpg,Stimuli/Experimental_stims/outdoor_scenes/petr-vysohlid-9fqwGqGLUxc-unsplash.jpg,NaN
50477,44,46,174,50,objects,mockup-graphics-PNsj6RiHAF4-unsplash.jpg,Stimuli/Experimental_stims/objects/mockup-graphics-PNsj6RiHAF4-unsplash.jpg,NaN
50477,45,38,183,50,objects,art-lasovsky-8XddFc6NkBY-unsplash.jpg,Stimuli/Experimental_stims/objects/art-lasovsky-8XddFc6NkBY-unsplash.jpg,NaN
50477,46,8,174,50,outdoor_scenes,samsommer-vddccTqwal8-unsplash.jpg,Stimuli/Experimental_stims/outdoor_scenes/samsommer-vddccTqwal8-unsplash.jpg,NaN
50477,47,10,187,50,outdoor_scenes,shannon-kunkle-dM8INmkyDas-unsplash.jpg,Stimuli/Experimental_stims/outdoor_scenes/shannon-kunkle-dM8INmkyDas-unsplash.jpg,NaN
50477,48,39,372,50,objects,charlesdeluvio-1-nx1QR5dTE-unsplash.jpg,Stimuli/Experimental_stims/objects/charlesdeluvio-1-nx1QR5dTE-unsplash.jpg,NaN