"","success","ttype","start_time","trial_type","trial_index","time_elapsed","internal_node_id","warning","missed_checkup","PID","stim_type","view_history","rt","responses","category","repeat_instructions","key_press","response","stimulus_id","painting","index","stimulus_left","stimulus_right","explain_trial","reward_type","rating_left","rating_right","painting_left","painting_right","block","left_chosen","chosen_obj","unchosen_obj","explain_response","reward_amount","see_reward_rt","register_reward_response","register_reward_rt","deliberation_reward_tally","stimulus_left_deliberation_ind","stimulus_right_deliberation_ind","chosen_trial","gain_left","higher_outcome_chosen","old_pair","chosen_object","rt_pairs","left_object_chosen","rt_object","old_response","new_rating","deliberated_stim","initial_rating","outcome_eval_rt","outcome_eval_response","outcome_eval_gain","outcome_eval_acc","preamble","outcome_eval_confidence","outcome_eval_confidence_rt","total_reward_tally"
"1","true","full_screen","d01172023hr2015","fullscreen",0,4431,"0.0-0.0",0,0,"2V2GG","People","",NA,"","",NA,"",NA,NA,"",NA,NA,NA,NA,NA,NA,NA,"","",NA,NA,NA,NA,"",NA,NA,NA,NA,NA,NA,NA,NA,NA,NA,NA,NA,NA,NA,NA,NA,NA,NA,NA,NA,NA,NA,NA,"",NA,NA,NA
"2","","rating_instructions","","instructions",1,5706,"0.0-1.0-0.0",0,0,"2V2GG","People","[{""page_index"":0,""viewing_time"":1060},{""page_index"":1,""viewing_time"":212}]",1.272,"","",NA,"",NA,NA,"",NA,NA,NA,NA,NA,NA,NA,"","",NA,NA,NA,NA,"",NA,NA,NA,NA,NA,NA,NA,NA,NA,NA,NA,NA,NA,NA,NA,NA,NA,NA,NA,NA,NA,NA,NA,"",NA,NA,NA
"3","","","","survey-multi-choice",2,8194,"0.0-1.0-1.0",0,0,"2V2GG","People","",2.484,"{""Q0"":""True"",""Q1"":""Mouse""}","rating_comprehension_check",0,"",NA,NA,"",NA,NA,NA,NA,NA,NA,NA,"","",NA,NA,NA,NA,"",NA,NA,NA,NA,NA,NA,NA,NA,NA,NA,NA,NA,NA,NA,NA,NA,NA,NA,NA,NA,NA,NA,NA,"",NA,NA,NA
"4","","start_phase","","html-keyboard-response",3,9368,"0.0-2.0",0,0,"2V2GG","People","",1.171,"","",NA,"78",NA,NA,"",NA,NA,NA,NA,NA,NA,NA,"","",NA,NA,NA,NA,"",NA,NA,NA,NA,NA,NA,NA,NA,NA,NA,NA,NA,NA,NA,NA,NA,NA,NA,NA,NA,NA,NA,NA,"",NA,NA,NA
"5","","rating","","html-slider-response",4,11271,"0.0-3.0",0,0,"2V2GG","People","",1.901,"","",NA,"",50,40,"prince-akachi-4Yv84VgQkRM-unsplash.jpg",0,NA,NA,NA,NA,NA,NA,"","",NA,NA,NA,NA,"",NA,NA,NA,NA,NA,NA,NA,NA,NA,NA,NA,NA,NA,NA,NA,NA,NA,NA,NA,NA,NA,NA,NA,"",NA,NA,NA
"6","","rating","","html-slider-response",5,11427,"0.0-4.0",0,0,"2V2GG","People","",0.154,"","",NA,"",50,33,"olena-sergienko-0TSd6uCKTKc-unsplash.jpg",1,NA,NA,NA,NA,NA,NA,"","",NA,NA,NA,NA,"",NA,NA,NA,NA,NA,NA,NA,NA,NA,NA,NA,NA,NA,NA,NA,NA,NA,NA,NA,NA,NA,NA,NA,"",NA,NA,NA
"7","","rating","","html-slider-response",6,11583,"0.0-5.0",0,0,"2V2GG","People","",0.154,"","",NA,"",50,6,"ben-o-bro-C5XyLljkMrY-unsplash.jpg",2,NA,NA,NA,NA,NA,NA,"","",NA,NA,NA,NA,"",NA,NA,NA,NA,NA,NA,NA,NA,NA,NA,NA,NA,NA,NA,NA,NA,NA,NA,NA,NA,NA,NA,NA,"",NA,NA,NA
"8","","rating","","html-slider-response",7,11807,"0.0-6.0",0,0,"2V2GG","People","",0.222,"","",NA,"",50,38,"petr-sevcovic-HzDF-rxlSeM-unsplash.jpg",3,NA,NA,NA,NA,NA,NA,"","",NA,NA,NA,NA,"",NA,NA,NA,NA,NA,NA,NA,NA,NA,NA,NA,NA,NA,NA,NA,NA,NA,NA,NA,NA,NA,NA,NA,"",NA,NA,NA
"9","","rating","","html-slider-response",8,11973,"0.0-7.0",0,0,"2V2GG","People","",0.164,"","",NA,"",50,29,"leilani-angel-K84vnnzxmTQ-unsplash.jpg",4,NA,NA,NA,NA,NA,NA,"","",NA,NA,NA,NA,"",NA,NA,NA,NA,NA,NA,NA,NA,NA,NA,NA,NA,NA,NA,NA,NA,NA,NA,NA,NA,NA,NA,NA,"",NA,NA,NA
"10","","rating","","html-slider-response",9,12139,"0.0-8.0",0,0,"2V2GG","People","",0.164,"","",NA,"",50,43,"raamin-ka-0qJBEzudn5E-unsplash.jpg",5,NA,NA,NA,NA,NA,NA,"","",NA,NA,NA,NA,"",NA,NA,NA,NA,NA,NA,NA,NA,NA,NA,NA,NA,NA,NA,NA,NA,NA,NA,NA,NA,NA,NA,NA,"",NA,NA,NA
"11","","rating","","html-slider-response",10,12307,"0.0-9.0",0,0,"2V2GG","People","",0.166,"","",NA,"",50,39,"philip-martin-5aGUyCW_PJw-unsplash.jpg",6,NA,NA,NA,NA,NA,NA,"","",NA,NA,NA,NA,"",NA,NA,NA,NA,NA,NA,NA,NA,NA,NA,NA,NA,NA,NA,NA,NA,NA,NA,NA,NA,NA,NA,NA,"",NA,NA,NA
"12","","rating","","html-slider-response",11,12477,"0.0-10.0",0,0,"2V2GG","People","",0.168,"","",NA,"",50,11,"christian-ferrer-8vT-DgHZDG4-unsplash.jpg",7,NA,NA,NA,NA,NA,NA,"","",NA,NA,NA,NA,"",NA,NA,NA,NA,NA,NA,NA,NA,NA,NA,NA,NA,NA,NA,NA,NA,NA,NA,NA,NA,NA,NA,NA,"",NA,NA,NA
"13","","rating","","html-slider-response",12,12643,"0.0-11.0",0,0,"2V2GG","People","",0.164,"","",NA,"",50,23,"joanna-nix-walkup-H4fEMshfwTE-unsplash.jpg",8,NA,NA,NA,NA,NA,NA,"","",NA,NA,NA,NA,"",NA,NA,NA,NA,NA,NA,NA,NA,NA,NA,NA,NA,NA,NA,NA,NA,NA,NA,NA,NA,NA,NA,NA,"",NA,NA,NA
"14","","rating","","html-slider-response",13,12799,"0.0-12.0",0,0,"2V2GG","People","",0.154,"","",NA,"",50,15,"gabriel-silverio-u3WmDyKGsrY-unsplash.jpg",9,NA,NA,NA,NA,NA,NA,"","",NA,NA,NA,NA,"",NA,NA,NA,NA,NA,NA,NA,NA,NA,NA,NA,NA,NA,NA,NA,NA,NA,NA,NA,NA,NA,NA,NA,"",NA,NA,NA
"15","","rating","","html-slider-response",14,12955,"0.0-13.0",0,0,"2V2GG","People","",0.154,"","",NA,"",50,5,"batel-studio-ttSRjiYG_WM-unsplash.jpg",10,NA,NA,NA,NA,NA,NA,"","",NA,NA,NA,NA,"",NA,NA,NA,NA,NA,NA,NA,NA,NA,NA,NA,NA,NA,NA,NA,NA,NA,NA,NA,NA,NA,NA,NA,"",NA,NA,NA
"16","","rating","","html-slider-response",15,13123,"0.0-14.0",0,0,"2V2GG","People","",0.166,"","",NA,"",50,46,"stefan-stefancik-QXevDflbl8A-unsplash.jpg",11,NA,NA,NA,NA,NA,NA,"","",NA,NA,NA,NA,"",NA,NA,NA,NA,NA,NA,NA,NA,NA,NA,NA,NA,NA,NA,NA,NA,NA,NA,NA,NA,NA,NA,NA,"",NA,NA,NA
"17","","rating","","html-slider-response",16,13291,"0.0-15.0",0,0,"2V2GG","People","",0.166,"","",NA,"",50,36,"ospan-ali-mGdA2fzjWLo-unsplash.jpg",12,NA,NA,NA,NA,NA,NA,"","",NA,NA,NA,NA,"",NA,NA,NA,NA,NA,NA,NA,NA,NA,NA,NA,NA,NA,NA,NA,NA,NA,NA,NA,NA,NA,NA,NA,"",NA,NA,NA
"18","","rating","","html-slider-response",17,13457,"0.0-16.0",0,0,"2V2GG","People","",0.164,"","",NA,"",50,0,"abstral-official-cyOKLSgkgCE-unsplash.jpg",13,NA,NA,NA,NA,NA,NA,"","",NA,NA,NA,NA,"",NA,NA,NA,NA,NA,NA,NA,NA,NA,NA,NA,NA,NA,NA,NA,NA,NA,NA,NA,NA,NA,NA,NA,"",NA,NA,NA
"19","","rating","","html-slider-response",18,13634,"0.0-17.0",0,0,"2V2GG","People","",0.176,"","",NA,"",50,37,"pavel-anoshin-d0peGya6R5Y-unsplash.jpg",14,NA,NA,NA,NA,NA,NA,"","",NA,NA,NA,NA,"",NA,NA,NA,NA,NA,NA,NA,NA,NA,NA,NA,NA,NA,NA,NA,NA,NA,NA,NA,NA,NA,NA,NA,"",NA,NA,NA
"20","","rating","","html-slider-response",19,13803,"0.0-18.0",0,0,"2V2GG","People","",0.167,"","",NA,"",50,31,"mathilda-khoo-vLR0YP_otCo-unsplash.jpg",15,NA,NA,NA,NA,NA,NA,"","",NA,NA,NA,NA,"",NA,NA,NA,NA,NA,NA,NA,NA,NA,NA,NA,NA,NA,NA,NA,NA,NA,NA,NA,NA,NA,NA,NA,"",NA,NA,NA
"21","","rating","","html-slider-response",20,13971,"0.0-19.0",0,0,"2V2GG","People","",0.166,"","",NA,"",50,3,"art-hauntington-jzY0KRJopEI-unsplash.jpg",16,NA,NA,NA,NA,NA,NA,"","",NA,NA,NA,NA,"",NA,NA,NA,NA,NA,NA,NA,NA,NA,NA,NA,NA,NA,NA,NA,NA,NA,NA,NA,NA,NA,NA,NA,"",NA,NA,NA
"22","","rating","","html-slider-response",21,14149,"0.0-20.0",0,0,"2V2GG","People","",0.176,"","",NA,"",50,27,"jurica-koletic-7YVZYZeITc8-unsplash.jpg",17,NA,NA,NA,NA,NA,NA,"","",NA,NA,NA,NA,"",NA,NA,NA,NA,NA,NA,NA,NA,NA,NA,NA,NA,NA,NA,NA,NA,NA,NA,NA,NA,NA,NA,NA,"",NA,NA,NA
"23","","rating","","html-slider-response",22,14315,"0.0-21.0",0,0,"2V2GG","People","",0.164,"","",NA,"",50,18,"good-faces-xmSWVeGEnJw-unsplash.jpg",18,NA,NA,NA,NA,NA,NA,"","",NA,NA,NA,NA,"",NA,NA,NA,NA,NA,NA,NA,NA,NA,NA,NA,NA,NA,NA,NA,NA,NA,NA,NA,NA,NA,NA,NA,"",NA,NA,NA
"24","","rating","","html-slider-response",23,14494,"0.0-22.0",0,0,"2V2GG","People","",0.177,"","",NA,"",50,16,"giano-currie-5-9YOsmf8IQ-unsplash.jpg",19,NA,NA,NA,NA,NA,NA,"","",NA,NA,NA,NA,"",NA,NA,NA,NA,NA,NA,NA,NA,NA,NA,NA,NA,NA,NA,NA,NA,NA,NA,NA,NA,NA,NA,NA,"",NA,NA,NA
"25","","rating","","html-slider-response",24,14672,"0.0-23.0",0,0,"2V2GG","People","",0.177,"","",NA,"",50,22,"jessica-radanavong-mrYkTuAesKE-unsplash.jpg",20,NA,NA,NA,NA,NA,NA,"","",NA,NA,NA,NA,"",NA,NA,NA,NA,NA,NA,NA,NA,NA,NA,NA,NA,NA,NA,NA,NA,NA,NA,NA,NA,NA,NA,NA,"",NA,NA,NA
"26","","rating","","html-slider-response",25,14853,"0.0-24.0",0,0,"2V2GG","People","",0.18,"","",NA,"",50,35,"oliver-ragfelt-khV4fTy6-D8-unsplash.jpg",21,NA,NA,NA,NA,NA,NA,"","",NA,NA,NA,NA,"",NA,NA,NA,NA,NA,NA,NA,NA,NA,NA,NA,NA,NA,NA,NA,NA,NA,NA,NA,NA,NA,NA,NA,"",NA,NA,NA
"27","","rating","","html-slider-response",26,15027,"0.0-25.0",0,0,"2V2GG","People","",0.173,"","",NA,"",50,26,"juri-gianfrancesco-9EZadYaMzk4-unsplash.jpg",22,NA,NA,NA,NA,NA,NA,"","",NA,NA,NA,NA,"",NA,NA,NA,NA,NA,NA,NA,NA,NA,NA,NA,NA,NA,NA,NA,NA,NA,NA,NA,NA,NA,NA,NA,"",NA,NA,NA
"28","","rating","","html-slider-response",27,15209,"0.0-26.0",0,0,"2V2GG","People","",0.18,"","",NA,"",50,45,"sarah-noltner-pL5ZzPp1zqg-unsplash.jpg",23,NA,NA,NA,NA,NA,NA,"","",NA,NA,NA,NA,"",NA,NA,NA,NA,NA,NA,NA,NA,NA,NA,NA,NA,NA,NA,NA,NA,NA,NA,NA,NA,NA,NA,NA,"",NA,NA,NA
"29","","rating","","html-slider-response",28,15386,"0.0-27.0",0,0,"2V2GG","People","",0.175,"","",NA,"",50,47,"tyler-nix-ZGa9d1a_4tA-unsplash.jpg",24,NA,NA,NA,NA,NA,NA,"","",NA,NA,NA,NA,"",NA,NA,NA,NA,NA,NA,NA,NA,NA,NA,NA,NA,NA,NA,NA,NA,NA,NA,NA,NA,NA,NA,NA,"",NA,NA,NA
"30","","rating","","html-slider-response",29,15555,"0.0-28.0",0,0,"2V2GG","People","",0.168,"","",NA,"",50,42,"prince-akachi-l3IHXOdMyHQ-unsplash.jpg",25,NA,NA,NA,NA,NA,NA,"","",NA,NA,NA,NA,"",NA,NA,NA,NA,NA,NA,NA,NA,NA,NA,NA,NA,NA,NA,NA,NA,NA,NA,NA,NA,NA,NA,NA,"",NA,NA,NA
"31","","rating","","html-slider-response",30,15731,"0.0-29.0",0,0,"2V2GG","People","",0.175,"","",NA,"",50,21,"jessica-felicio-_cvwXhGqG-o-unsplash.jpg",26,NA,NA,NA,NA,NA,NA,"","",NA,NA,NA,NA,"",NA,NA,NA,NA,NA,NA,NA,NA,NA,NA,NA,NA,NA,NA,NA,NA,NA,NA,NA,NA,NA,NA,NA,"",NA,NA,NA
"32","","rating","","html-slider-response",31,15901,"0.0-30.0",0,0,"2V2GG","People","",0.168,"","",NA,"",50,34,"oliver-johnson-1TUIcKob7Zs-unsplash.jpg",27,NA,NA,NA,NA,NA,NA,"","",NA,NA,NA,NA,"",NA,NA,NA,NA,NA,NA,NA,NA,NA,NA,NA,NA,NA,NA,NA,NA,NA,NA,NA,NA,NA,NA,NA,"",NA,NA,NA
"33","","rating","","html-slider-response",32,16077,"0.0-31.0",0,0,"2V2GG","People","",0.175,"","",NA,"",50,14,"freddy-kearney-o-ioeoATbIM-unsplash.jpg",28,NA,NA,NA,NA,NA,NA,"","",NA,NA,NA,NA,"",NA,NA,NA,NA,NA,NA,NA,NA,NA,NA,NA,NA,NA,NA,NA,NA,NA,NA,NA,NA,NA,NA,NA,"",NA,NA,NA
"34","","rating","","html-slider-response",33,16259,"0.0-32.0",0,0,"2V2GG","People","",0.18,"","",NA,"",50,10,"charles-etoroma-95UF6LXe-Lo-unsplash.jpg",29,NA,NA,NA,NA,NA,NA,"","",NA,NA,NA,NA,"",NA,NA,NA,NA,NA,NA,NA,NA,NA,NA,NA,NA,NA,NA,NA,NA,NA,NA,NA,NA,NA,NA,NA,"",NA,NA,NA
"35","","rating","","html-slider-response",34,16413,"0.0-33.0",0,0,"2V2GG","People","",0.152,"","",NA,"",50,25,"joseph-gonzalez-iFgRcqHznqg-unsplash.jpg",30,NA,NA,NA,NA,NA,NA,"","",NA,NA,NA,NA,"",NA,NA,NA,NA,NA,NA,NA,NA,NA,NA,NA,NA,NA,NA,NA,NA,NA,NA,NA,NA,NA,NA,NA,"",NA,NA,NA
"36","","rating","","html-slider-response",35,16593,"0.0-34.0",0,0,"2V2GG","People","",0.178,"","",NA,"",50,28,"justin-chen-J7Cf1Gch49E-unsplash.jpg",31,NA,NA,NA,NA,NA,NA,"","",NA,NA,NA,NA,"",NA,NA,NA,NA,NA,NA,NA,NA,NA,NA,NA,NA,NA,NA,NA,NA,NA,NA,NA,NA,NA,NA,NA,"",NA,NA,NA
"37","","rating","","html-slider-response",36,16771,"0.0-35.0",0,0,"2V2GG","People","",0.176,"","",NA,"",50,41,"prince-akachi-i2hoD-C2RUA-unsplash.jpg",32,NA,NA,NA,NA,NA,NA,"","",NA,NA,NA,NA,"",NA,NA,NA,NA,NA,NA,NA,NA,NA,NA,NA,NA,NA,NA,NA,NA,NA,NA,NA,NA,NA,NA,NA,"",NA,NA,NA
"38","","rating","","html-slider-response",37,16948,"0.0-36.0",0,0,"2V2GG","People","",0.175,"","",NA,"",50,9,"carlos-andres-gomez-vJuk8Y86mRw-unsplash.jpg",33,NA,NA,NA,NA,NA,NA,"","",NA,NA,NA,NA,"",NA,NA,NA,NA,NA,NA,NA,NA,NA,NA,NA,NA,NA,NA,NA,NA,NA,NA,NA,NA,NA,NA,NA,"",NA,NA,NA
"39","","rating","","html-slider-response",38,17138,"0.0-37.0",0,0,"2V2GG","People","",0.189,"","",NA,"",50,24,"joel-mott-LaK153ghdig-unsplash.jpg",34,NA,NA,NA,NA,NA,NA,"","",NA,NA,NA,NA,"",NA,NA,NA,NA,NA,NA,NA,NA,NA,NA,NA,NA,NA,NA,NA,NA,NA,NA,NA,NA,NA,NA,NA,"",NA,NA,NA
"40","","rating","","html-slider-response",39,17328,"0.0-38.0",0,0,"2V2GG","People","",0.188,"","",NA,"",50,8,"bruce-dixon-3M9WJQVHzog-unsplash.jpg",35,NA,NA,NA,NA,NA,NA,"","",NA,NA,NA,NA,"",NA,NA,NA,NA,NA,NA,NA,NA,NA,NA,NA,NA,NA,NA,NA,NA,NA,NA,NA,NA,NA,NA,NA,"",NA,NA,NA
"41","","rating","","html-slider-response",40,17497,"0.0-39.0",0,0,"2V2GG","People","",0.168,"","",NA,"",50,12,"daniel-rigdon-dXmXKPP2L4E-unsplash.jpg",36,NA,NA,NA,NA,NA,NA,"","",NA,NA,NA,NA,"",NA,NA,NA,NA,NA,NA,NA,NA,NA,NA,NA,NA,NA,NA,NA,NA,NA,NA,NA,NA,NA,NA,NA,"",NA,NA,NA
"42","","rating","","html-slider-response",41,17674,"0.0-40.0",0,0,"2V2GG","People","",0.176,"","",NA,"",50,17,"gleb-lukomets-paBzWCPN23k-unsplash.jpg",37,NA,NA,NA,NA,NA,NA,"","",NA,NA,NA,NA,"",NA,NA,NA,NA,NA,NA,NA,NA,NA,NA,NA,NA,NA,NA,NA,NA,NA,NA,NA,NA,NA,NA,NA,"",NA,NA,NA
"43","","rating","","html-slider-response",42,17863,"0.0-41.0",0,0,"2V2GG","People","",0.187,"","",NA,"",50,13,"erik-lucatero-d2MSDujJl2g-unsplash.jpg",38,NA,NA,NA,NA,NA,NA,"","",NA,NA,NA,NA,"",NA,NA,NA,NA,NA,NA,NA,NA,NA,NA,NA,NA,NA,NA,NA,NA,NA,NA,NA,NA,NA,NA,NA,"",NA,NA,NA
"44","","rating","","html-slider-response",43,18043,"0.0-42.0",0,0,"2V2GG","People","",0.179,"","",NA,"",50,44,"rikonavt-HQjfrvdTfak-unsplash.jpg",39,NA,NA,NA,NA,NA,NA,"","",NA,NA,NA,NA,"",NA,NA,NA,NA,NA,NA,NA,NA,NA,NA,NA,NA,NA,NA,NA,NA,NA,NA,NA,NA,NA,NA,NA,"",NA,NA,NA
"45","","rating","","html-slider-response",44,18221,"0.0-43.0",0,0,"2V2GG","People","",0.176,"","",NA,"",50,4,"barna-bartis-2x3vfVxwR7o-unsplash.jpg",40,NA,NA,NA,NA,NA,NA,"","",NA,NA,NA,NA,"",NA,NA,NA,NA,NA,NA,NA,NA,NA,NA,NA,NA,NA,NA,NA,NA,NA,NA,NA,NA,NA,NA,NA,"",NA,NA,NA
"46","","rating","","html-slider-response",45,18423,"0.0-44.0",0,0,"2V2GG","People","",0.2,"","",NA,"",50,1,"aiony-haust-jmATI5Q_YgY-unsplash.jpg",41,NA,NA,NA,NA,NA,NA,"","",NA,NA,NA,NA,"",NA,NA,NA,NA,NA,NA,NA,NA,NA,NA,NA,NA,NA,NA,NA,NA,NA,NA,NA,NA,NA,NA,NA,"",NA,NA,NA
"47","","rating","","html-slider-response",46,18611,"0.0-45.0",0,0,"2V2GG","People","",0.186,"","",NA,"",50,49,"vicky-hladynets-_gDoyVv5F4c-unsplash.jpg",42,NA,NA,NA,NA,NA,NA,"","",NA,NA,NA,NA,"",NA,NA,NA,NA,NA,NA,NA,NA,NA,NA,NA,NA,NA,NA,NA,NA,NA,NA,NA,NA,NA,NA,NA,"",NA,NA,NA
"48","","rating","","html-slider-response",47,18788,"0.0-46.0",0,0,"2V2GG","People","",0.175,"","",NA,"",50,32,"nathan-dumlao-ger61_TX6oI-unsplash.jpg",43,NA,NA,NA,NA,NA,NA,"","",NA,NA,NA,NA,"",NA,NA,NA,NA,NA,NA,NA,NA,NA,NA,NA,NA,NA,NA,NA,NA,NA,NA,NA,NA,NA,NA,NA,"",NA,NA,NA
"49","","rating","","html-slider-response",48,18990,"0.0-47.0",0,0,"2V2GG","People","",0.2,"","",NA,"",50,30,"matheus-ferrero-pg_WCHWSdT8-unsplash.jpg",44,NA,NA,NA,NA,NA,NA,"","",NA,NA,NA,NA,"",NA,NA,NA,NA,NA,NA,NA,NA,NA,NA,NA,NA,NA,NA,NA,NA,NA,NA,NA,NA,NA,NA,NA,"",NA,NA,NA
"50","","rating","","html-slider-response",49,19190,"0.0-48.0",0,0,"2V2GG","People","",0.198,"","",NA,"",50,7,"brooke-cagle-HRZUzoX1e6w-unsplash.jpg",45,NA,NA,NA,NA,NA,NA,"","",NA,NA,NA,NA,"",NA,NA,NA,NA,NA,NA,NA,NA,NA,NA,NA,NA,NA,NA,NA,NA,NA,NA,NA,NA,NA,NA,NA,"",NA,NA,NA
"51","","rating","","html-slider-response",50,19513,"0.0-49.0",0,0,"2V2GG","People","",0.321,"","",NA,"",50,20,"houcine-ncib-B4TjXnI0Y2c-unsplash.jpg",46,NA,NA,NA,NA,NA,NA,"","",NA,NA,NA,NA,"",NA,NA,NA,NA,NA,NA,NA,NA,NA,NA,NA,NA,NA,NA,NA,NA,NA,NA,NA,NA,NA,NA,NA,"",NA,NA,NA
"52","","rating","","html-slider-response",51,20017,"0.0-50.0",0,0,"2V2GG","People","",0.503,"","",NA,"",50,2,"arjunsyah-TBUA5KHJn6k-unsplash.jpg",47,NA,NA,NA,NA,NA,NA,"","",NA,NA,NA,NA,"",NA,NA,NA,NA,NA,NA,NA,NA,NA,NA,NA,NA,NA,NA,NA,NA,NA,NA,NA,NA,NA,NA,NA,"",NA,NA,NA
"53","","rating","","html-slider-response",52,20597,"0.0-51.0",0,0,"2V2GG","People","",0.578,"","",NA,"",50,48,"velizar-ivanov-7ktP9yZA1g4-unsplash.jpg",48,NA,NA,NA,NA,NA,NA,"","",NA,NA,NA,NA,"",NA,NA,NA,NA,NA,NA,NA,NA,NA,NA,NA,NA,NA,NA,NA,NA,NA,NA,NA,NA,NA,NA,NA,"",NA,NA,NA
"54","","rating","","html-slider-response",53,21411,"0.0-52.0",0,0,"2V2GG","People","",0.812,"","",NA,"",50,19,"ha-nguy-n-OFSQ6bHjFjs-unsplash.jpg",49,NA,NA,NA,NA,NA,NA,"","",NA,NA,NA,NA,"",NA,NA,NA,NA,NA,NA,NA,NA,NA,NA,NA,NA,NA,NA,NA,NA,NA,NA,NA,NA,NA,NA,NA,"",NA,NA,NA
"55","","deliberation_instructions","","instructions",54,25449,"0.0-53.0-0.0",0,0,"2V2GG","People","[{""page_index"":0,""viewing_time"":1359},{""page_index"":1,""viewing_time"":455},{""page_index"":2,""viewing_time"":571},{""page_index"":3,""viewing_time"":1047},{""page_index"":4,""viewing_time"":603}]",4.036,"","",NA,"",NA,NA,"",NA,NA,NA,NA,NA,NA,NA,"","",NA,NA,NA,NA,"",NA,NA,NA,NA,NA,NA,NA,NA,NA,NA,NA,NA,NA,NA,NA,NA,NA,NA,NA,NA,NA,NA,NA,"",NA,NA,NA
"56","","","","survey-multi-choice",55,30536,"0.0-53.0-1.0",0,0,"2V2GG","People","",5.082,"{""Q0"":""True"",""Q1"":""True"",""Q2"":""Consider carefully and take your time (up to 10 seconds)"",""Q3"":""True"",""Q4"":""D""}","deliberation_comprehension_check",0,"",NA,NA,"",NA,NA,NA,NA,NA,NA,NA,"","",NA,NA,NA,NA,"",NA,NA,NA,NA,NA,NA,NA,NA,NA,NA,NA,NA,NA,NA,NA,NA,NA,NA,NA,NA,NA,NA,NA,"",NA,NA,NA
"57","","start_phase","","html-keyboard-response",56,31691,"0.0-54.0",0,0,"2V2GG","People","",1.154,"","",NA,"78",NA,NA,"",NA,NA,NA,NA,NA,NA,NA,"","",NA,NA,NA,NA,"",NA,NA,NA,NA,NA,NA,NA,NA,NA,NA,NA,NA,NA,NA,NA,NA,NA,NA,NA,NA,NA,NA,NA,"",NA,NA,NA
"58","","first_deliberation_block","","html-keyboard-response",57,32260,"0.0-55.0",0,0,"2V2GG","People","",0.567,"","",NA,"78",NA,NA,"",NA,NA,NA,NA,NA,NA,NA,"","",NA,NA,NA,NA,"",NA,NA,NA,NA,NA,NA,NA,NA,NA,NA,NA,NA,NA,NA,NA,NA,NA,NA,NA,NA,NA,NA,NA,"",NA,NA,NA
"59","","fixation","","html-keyboard-response",58,33261,"0.0-56.0-0.0",0,0,"2V2GG","People","",NA,"","",NA,"null",NA,NA,"",NA,NA,NA,NA,NA,NA,NA,"","",NA,NA,NA,NA,"",NA,NA,NA,NA,NA,NA,NA,NA,NA,NA,NA,NA,NA,NA,NA,NA,NA,NA,NA,NA,NA,NA,NA,"",NA,NA,NA
"60","","deliberation","","html-keyboard-response",59,34584,"0.0-56.0-1.0",0,0,"2V2GG","People","",1.32,"","",NA,"75",NA,NA,"",0,24,14,0,-1,50,50,"joel-mott-LaK153ghdig-unsplash.jpg","freddy-kearney-o-ioeoATbIM-unsplash.jpg",1,0,14,24,"",NA,NA,NA,NA,NA,NA,NA,NA,NA,NA,NA,NA,NA,NA,NA,NA,NA,NA,NA,NA,NA,NA,NA,"",NA,NA,NA
"61","","choice_confirmation","","html-keyboard-response",60,35088,"0.0-56.0-2.0-0.0",0,0,"2V2GG","People","",NA,"","",NA,"null",NA,NA,"",0,24,14,NA,NA,NA,NA,"","",NA,NA,NA,NA,"",NA,NA,NA,NA,NA,NA,NA,NA,NA,NA,NA,NA,NA,NA,NA,NA,NA,NA,NA,NA,NA,NA,NA,"",NA,NA,NA
"62","","fixation","","html-keyboard-response",61,36093,"0.0-57.0-0.0",0,0,"2V2GG","People","",NA,"","",NA,"null",NA,NA,"",NA,NA,NA,NA,NA,NA,NA,"","",NA,NA,NA,NA,"",NA,NA,NA,NA,NA,NA,NA,NA,NA,NA,NA,NA,NA,NA,NA,NA,NA,NA,NA,NA,NA,NA,NA,"",NA,NA,NA
"63","","deliberation","","html-keyboard-response",62,37923,"0.0-57.0-1.0",0,0,"2V2GG","People","",1.828,"","",NA,"68",NA,NA,"",1,9,16,0,-1,50,50,"carlos-andres-gomez-vJuk8Y86mRw-unsplash.jpg","giano-currie-5-9YOsmf8IQ-unsplash.jpg",1,1,9,16,"",NA,NA,NA,NA,NA,NA,NA,NA,NA,NA,NA,NA,NA,NA,NA,NA,NA,NA,NA,NA,NA,NA,NA,"",NA,NA,NA
"64","","choice_confirmation","","html-keyboard-response",63,38426,"0.0-57.0-2.0-0.0",0,0,"2V2GG","People","",NA,"","",NA,"null",NA,NA,"",1,9,16,NA,NA,NA,NA,"","",NA,NA,NA,NA,"",NA,NA,NA,NA,NA,NA,NA,NA,NA,NA,NA,NA,NA,NA,NA,NA,NA,NA,NA,NA,NA,NA,NA,"",NA,NA,NA
"65","","fixation","","html-keyboard-response",64,39429,"0.0-58.0-0.0",0,0,"2V2GG","People","",NA,"","",NA,"null",NA,NA,"",NA,NA,NA,NA,NA,NA,NA,"","",NA,NA,NA,NA,"",NA,NA,NA,NA,NA,NA,NA,NA,NA,NA,NA,NA,NA,NA,NA,NA,NA,NA,NA,NA,NA,NA,NA,"",NA,NA,NA
"66","","deliberation","","html-keyboard-response",65,39944,"0.0-58.0-1.0",0,0,"2V2GG","People","",0.514,"","",NA,"68",NA,NA,"",2,47,18,1,1,50,50,"tyler-nix-ZGa9d1a_4tA-unsplash.jpg","good-faces-xmSWVeGEnJw-unsplash.jpg",1,1,47,18,"",NA,NA,NA,NA,NA,NA,NA,NA,NA,NA,NA,NA,NA,NA,NA,NA,NA,NA,NA,NA,NA,NA,NA,"",NA,NA,NA
"67","","choice_confirmation","","html-keyboard-response",66,40447,"0.0-58.0-2.0-0.0",0,0,"2V2GG","People","",NA,"","",NA,"null",NA,NA,"",2,47,18,NA,NA,NA,NA,"","",NA,NA,NA,NA,"",NA,NA,NA,NA,NA,NA,NA,NA,NA,NA,NA,NA,NA,NA,NA,NA,NA,NA,NA,NA,NA,NA,NA,"",NA,NA,NA
"68","","explain_trial","","survey-text",67,42118,"0.0-58.0-5.0-0.0",0,0,"2V2GG","People","",1.669,"{""Q0"":""""}","",NA,"",NA,NA,"",2,47,18,NA,NA,NA,NA,"","",NA,NA,NA,NA,"{""Q0"":""""}",NA,NA,NA,NA,NA,NA,NA,NA,NA,NA,NA,NA,NA,NA,NA,NA,NA,NA,NA,NA,NA,NA,NA,"",NA,NA,NA
"69","","fixation","","html-keyboard-response",68,43124,"0.0-59.0-0.0",0,0,"2V2GG","People","",NA,"","",NA,"null",NA,NA,"",NA,NA,NA,NA,NA,NA,NA,"","",NA,NA,NA,NA,"",NA,NA,NA,NA,NA,NA,NA,NA,NA,NA,NA,NA,NA,NA,NA,NA,NA,NA,NA,NA,NA,NA,NA,"",NA,NA,NA
"70","","deliberation","","html-keyboard-response",69,43468,"0.0-59.0-1.0",0,0,"2V2GG","People","",0.342,"","",NA,"75",NA,NA,"",3,25,21,1,1,50,50,"joseph-gonzalez-iFgRcqHznqg-unsplash.jpg","jessica-felicio-_cvwXhGqG-o-unsplash.jpg",1,0,21,25,"",NA,NA,NA,NA,NA,NA,NA,NA,NA,NA,NA,NA,NA,NA,NA,NA,NA,NA,NA,NA,NA,NA,NA,"",NA,NA,NA
"71","","choice_confirmation","","html-keyboard-response",70,43973,"0.0-59.0-2.0-0.0",0,0,"2V2GG","People","",NA,"","",NA,"null",NA,NA,"",3,25,21,NA,NA,NA,NA,"","",NA,NA,NA,NA,"",NA,NA,NA,NA,NA,NA,NA,NA,NA,NA,NA,NA,NA,NA,NA,NA,NA,NA,NA,NA,NA,NA,NA,"",NA,NA,NA
"72","","explain_trial","","survey-text",71,44893,"0.0-59.0-5.0-0.0",0,0,"2V2GG","People","",0.919,"{""Q0"":""""}","",NA,"",NA,NA,"",3,25,21,NA,NA,NA,NA,"","",NA,NA,NA,NA,"{""Q0"":""""}",NA,NA,NA,NA,NA,NA,NA,NA,NA,NA,NA,NA,NA,NA,NA,NA,NA,NA,NA,NA,NA,NA,NA,"",NA,NA,NA
"73","","fixation","","html-keyboard-response",72,45897,"0.0-60.0-0.0",0,0,"2V2GG","People","",NA,"","",NA,"null",NA,NA,"",NA,NA,NA,NA,NA,NA,NA,"","",NA,NA,NA,NA,"",NA,NA,NA,NA,NA,NA,NA,NA,NA,NA,NA,NA,NA,NA,NA,NA,NA,NA,NA,NA,NA,NA,NA,"",NA,NA,NA
"74","","deliberation","","html-keyboard-response",73,46233,"0.0-60.0-1.0",0,0,"2V2GG","People","",0.334,"","",NA,"68",NA,NA,"",4,42,10,1,1,50,50,"prince-akachi-l3IHXOdMyHQ-unsplash.jpg","charles-etoroma-95UF6LXe-Lo-unsplash.jpg",1,1,42,10,"",NA,NA,NA,NA,NA,NA,NA,NA,NA,NA,NA,NA,NA,NA,NA,NA,NA,NA,NA,NA,NA,NA,NA,"",NA,NA,NA
"75","","choice_confirmation","","html-keyboard-response",74,46736,"0.0-60.0-2.0-0.0",0,0,"2V2GG","People","",NA,"","",NA,"null",NA,NA,"",4,42,10,NA,NA,NA,NA,"","",NA,NA,NA,NA,"",NA,NA,NA,NA,NA,NA,NA,NA,NA,NA,NA,NA,NA,NA,NA,NA,NA,NA,NA,NA,NA,NA,NA,"",NA,NA,NA
"76","","explain_trial","","survey-text",75,47418,"0.0-60.0-5.0-0.0",0,0,"2V2GG","People","",0.679,"{""Q0"":""""}","",NA,"",NA,NA,"",4,42,10,NA,NA,NA,NA,"","",NA,NA,NA,NA,"{""Q0"":""""}",NA,NA,NA,NA,NA,NA,NA,NA,NA,NA,NA,NA,NA,NA,NA,NA,NA,NA,NA,NA,NA,NA,NA,"",NA,NA,NA
"77","","fixation","","html-keyboard-response",76,48421,"0.0-61.0-0.0",0,0,"2V2GG","People","",NA,"","",NA,"null",NA,NA,"",NA,NA,NA,NA,NA,NA,NA,"","",NA,NA,NA,NA,"",NA,NA,NA,NA,NA,NA,NA,NA,NA,NA,NA,NA,NA,NA,NA,NA,NA,NA,NA,NA,NA,NA,NA,"",NA,NA,NA
"78","","deliberation","","html-keyboard-response",77,48834,"0.0-61.0-1.0",0,0,"2V2GG","People","",0.411,"","",NA,"68",NA,NA,"",5,8,41,0,-1,50,50,"bruce-dixon-3M9WJQVHzog-unsplash.jpg","prince-akachi-i2hoD-C2RUA-unsplash.jpg",1,1,8,41,"",NA,NA,NA,NA,NA,NA,NA,NA,NA,NA,NA,NA,NA,NA,NA,NA,NA,NA,NA,NA,NA,NA,NA,"",NA,NA,NA
"79","","choice_confirmation","","html-keyboard-response",78,49338,"0.0-61.0-2.0-0.0",0,0,"2V2GG","People","",NA,"","",NA,"null",NA,NA,"",5,8,41,NA,NA,NA,NA,"","",NA,NA,NA,NA,"",NA,NA,NA,NA,NA,NA,NA,NA,NA,NA,NA,NA,NA,NA,NA,NA,NA,NA,NA,NA,NA,NA,NA,"",NA,NA,NA
"80","","fixation","","html-keyboard-response",79,50343,"0.0-62.0-0.0",0,0,"2V2GG","People","",NA,"","",NA,"null",NA,NA,"",NA,NA,NA,NA,NA,NA,NA,"","",NA,NA,NA,NA,"",NA,NA,NA,NA,NA,NA,NA,NA,NA,NA,NA,NA,NA,NA,NA,NA,NA,NA,NA,NA,NA,NA,NA,"",NA,NA,NA
"81","","deliberation","","html-keyboard-response",80,50812,"0.0-62.0-1.0",0,0,"2V2GG","People","",0.468,"","",NA,"68",NA,NA,"",6,12,45,0,-1,50,50,"daniel-rigdon-dXmXKPP2L4E-unsplash.jpg","sarah-noltner-pL5ZzPp1zqg-unsplash.jpg",1,1,12,45,"",NA,NA,NA,NA,NA,NA,NA,NA,NA,NA,NA,NA,NA,NA,NA,NA,NA,NA,NA,NA,NA,NA,NA,"",NA,NA,NA
"82","","choice_confirmation","","html-keyboard-response",81,51314,"0.0-62.0-2.0-0.0",0,0,"2V2GG","People","",NA,"","",NA,"null",NA,NA,"",6,12,45,NA,NA,NA,NA,"","",NA,NA,NA,NA,"",NA,NA,NA,NA,NA,NA,NA,NA,NA,NA,NA,NA,NA,NA,NA,NA,NA,NA,NA,NA,NA,NA,NA,"",NA,NA,NA
"83","","fixation","","html-keyboard-response",82,52320,"0.0-63.0-0.0",0,0,"2V2GG","People","",NA,"","",NA,"null",NA,NA,"",NA,NA,NA,NA,NA,NA,NA,"","",NA,NA,NA,NA,"",NA,NA,NA,NA,NA,NA,NA,NA,NA,NA,NA,NA,NA,NA,NA,NA,NA,NA,NA,NA,NA,NA,NA,"",NA,NA,NA
"84","","deliberation","","html-keyboard-response",83,52785,"0.0-63.0-1.0",0,0,"2V2GG","People","",0.463,"","",NA,"68",NA,NA,"",7,34,27,1,1,50,50,"oliver-johnson-1TUIcKob7Zs-unsplash.jpg","jurica-koletic-7YVZYZeITc8-unsplash.jpg",1,1,34,27,"",NA,NA,NA,NA,NA,NA,NA,NA,NA,NA,NA,NA,NA,NA,NA,NA,NA,NA,NA,NA,NA,NA,NA,"",NA,NA,NA
"85","","choice_confirmation","","html-keyboard-response",84,53289,"0.0-63.0-2.0-0.0",0,0,"2V2GG","People","",NA,"","",NA,"null",NA,NA,"",7,34,27,NA,NA,NA,NA,"","",NA,NA,NA,NA,"",NA,NA,NA,NA,NA,NA,NA,NA,NA,NA,NA,NA,NA,NA,NA,NA,NA,NA,NA,NA,NA,NA,NA,"",NA,NA,NA
"86","","explain_trial","","survey-text",85,53912,"0.0-63.0-5.0-0.0",0,0,"2V2GG","People","",0.621,"{""Q0"":""""}","",NA,"",NA,NA,"",7,34,27,NA,NA,NA,NA,"","",NA,NA,NA,NA,"{""Q0"":""""}",NA,NA,NA,NA,NA,NA,NA,NA,NA,NA,NA,NA,NA,NA,NA,NA,NA,NA,NA,NA,NA,NA,NA,"",NA,NA,NA
"87","","fixation","","html-keyboard-response",86,54916,"0.0-64.0-0.0",0,0,"2V2GG","People","",NA,"","",NA,"null",NA,NA,"",NA,NA,NA,NA,NA,NA,NA,"","",NA,NA,NA,NA,"",NA,NA,NA,NA,NA,NA,NA,NA,NA,NA,NA,NA,NA,NA,NA,NA,NA,NA,NA,NA,NA,NA,NA,"",NA,NA,NA
"88","","deliberation","","html-keyboard-response",87,55992,"0.0-64.0-1.0",0,0,"2V2GG","People","",1.075,"","",NA,"75",NA,NA,"",8,37,35,1,1,50,50,"pavel-anoshin-d0peGya6R5Y-unsplash.jpg","oliver-ragfelt-khV4fTy6-D8-unsplash.jpg",1,0,35,37,"",NA,NA,NA,NA,NA,NA,NA,NA,NA,NA,NA,NA,NA,NA,NA,NA,NA,NA,NA,NA,NA,NA,NA,"",NA,NA,NA
"89","","choice_confirmation","","html-keyboard-response",88,56495,"0.0-64.0-2.0-0.0",0,0,"2V2GG","People","",NA,"","",NA,"null",NA,NA,"",8,37,35,NA,NA,NA,NA,"","",NA,NA,NA,NA,"",NA,NA,NA,NA,NA,NA,NA,NA,NA,NA,NA,NA,NA,NA,NA,NA,NA,NA,NA,NA,NA,NA,NA,"",NA,NA,NA
"90","","explain_trial","","survey-text",89,57124,"0.0-64.0-5.0-0.0",0,0,"2V2GG","People","",0.626,"{""Q0"":""""}","",NA,"",NA,NA,"",8,37,35,NA,NA,NA,NA,"","",NA,NA,NA,NA,"{""Q0"":""""}",NA,NA,NA,NA,NA,NA,NA,NA,NA,NA,NA,NA,NA,NA,NA,NA,NA,NA,NA,NA,NA,NA,NA,"",NA,NA,NA
"91","","fixation","","html-keyboard-response",90,58130,"0.0-65.0-0.0",0,0,"2V2GG","People","",NA,"","",NA,"null",NA,NA,"",NA,NA,NA,NA,NA,NA,NA,"","",NA,NA,NA,NA,"",NA,NA,NA,NA,NA,NA,NA,NA,NA,NA,NA,NA,NA,NA,NA,NA,NA,NA,NA,NA,NA,NA,NA,"",NA,NA,NA
"92","","deliberation","","html-keyboard-response",91,59874,"0.0-65.0-1.0",0,0,"2V2GG","People","",1.742,"","",NA,"75",NA,NA,"",9,26,22,0,1,50,50,"juri-gianfrancesco-9EZadYaMzk4-unsplash.jpg","jessica-radanavong-mrYkTuAesKE-unsplash.jpg",1,0,22,26,"",NA,NA,NA,NA,NA,NA,NA,NA,NA,NA,NA,NA,NA,NA,NA,NA,NA,NA,NA,NA,NA,NA,NA,"",NA,NA,NA
"93","","choice_confirmation","","html-keyboard-response",92,60377,"0.0-65.0-2.0-0.0",0,0,"2V2GG","People","",NA,"","",NA,"null",NA,NA,"",9,26,22,NA,NA,NA,NA,"","",NA,NA,NA,NA,"",NA,NA,NA,NA,NA,NA,NA,NA,NA,NA,NA,NA,NA,NA,NA,NA,NA,NA,NA,NA,NA,NA,NA,"",NA,NA,NA
"94","","fixation","","html-keyboard-response",93,61381,"0.0-66.0-0.0",0,0,"2V2GG","People","",NA,"","",NA,"null",NA,NA,"",NA,NA,NA,NA,NA,NA,NA,"","",NA,NA,NA,NA,"",NA,NA,NA,NA,NA,NA,NA,NA,NA,NA,NA,NA,NA,NA,NA,NA,NA,NA,NA,NA,NA,NA,NA,"",NA,NA,NA
"95","","deliberation","","html-keyboard-response",94,64411,"0.0-66.0-1.0",0,0,"2V2GG","People","",3.029,"","",NA,"68",NA,NA,"",10,28,0,1,-1,50,50,"justin-chen-J7Cf1Gch49E-unsplash.jpg","abstral-official-cyOKLSgkgCE-unsplash.jpg",1,1,28,0,"",NA,NA,NA,NA,NA,NA,NA,NA,NA,NA,NA,NA,NA,NA,NA,NA,NA,NA,NA,NA,NA,NA,NA,"",NA,NA,NA
"96","","choice_confirmation","","html-keyboard-response",95,64915,"0.0-66.0-2.0-0.0",0,0,"2V2GG","People","",NA,"","",NA,"null",NA,NA,"",10,28,0,NA,NA,NA,NA,"","",NA,NA,NA,NA,"",NA,NA,NA,NA,NA,NA,NA,NA,NA,NA,NA,NA,NA,NA,NA,NA,NA,NA,NA,NA,NA,NA,NA,"",NA,NA,NA
"97","","explain_trial","","survey-text",96,65760,"0.0-66.0-5.0-0.0",0,0,"2V2GG","People","",0.843,"{""Q0"":""""}","",NA,"",NA,NA,"",10,28,0,NA,NA,NA,NA,"","",NA,NA,NA,NA,"{""Q0"":""""}",NA,NA,NA,NA,NA,NA,NA,NA,NA,NA,NA,NA,NA,NA,NA,NA,NA,NA,NA,NA,NA,NA,NA,"",NA,NA,NA
"98","","fixation","","html-keyboard-response",97,66765,"0.0-67.0-0.0",0,0,"2V2GG","People","",NA,"","",NA,"null",NA,NA,"",NA,NA,NA,NA,NA,NA,NA,"","",NA,NA,NA,NA,"",NA,NA,NA,NA,NA,NA,NA,NA,NA,NA,NA,NA,NA,NA,NA,NA,NA,NA,NA,NA,NA,NA,NA,"",NA,NA,NA
"99","","deliberation","","html-keyboard-response",98,67033,"0.0-67.0-1.0",0,0,"2V2GG","People","",0.266,"","",NA,"68",NA,NA,"",11,31,3,0,-1,50,50,"mathilda-khoo-vLR0YP_otCo-unsplash.jpg","art-hauntington-jzY0KRJopEI-unsplash.jpg",1,1,31,3,"",NA,NA,NA,NA,NA,NA,NA,NA,NA,NA,NA,NA,NA,NA,NA,NA,NA,NA,NA,NA,NA,NA,NA,"",NA,NA,NA
"100","","choice_confirmation","","html-keyboard-response",99,67537,"0.0-67.0-2.0-0.0",0,0,"2V2GG","People","",NA,"","",NA,"null",NA,NA,"",11,31,3,NA,NA,NA,NA,"","",NA,NA,NA,NA,"",NA,NA,NA,NA,NA,NA,NA,NA,NA,NA,NA,NA,NA,NA,NA,NA,NA,NA,NA,NA,NA,NA,NA,"",NA,NA,NA
"101","","deliberation_too_fast","","html-keyboard-response",100,69040,"0.0-67.0-3.0-0.0",1,0,"2V2GG","People","",NA,"","",NA,"null",NA,NA,"",11,NA,NA,NA,NA,NA,NA,"","",NA,NA,NA,NA,"",NA,NA,NA,NA,NA,NA,NA,NA,NA,NA,NA,NA,NA,NA,NA,NA,NA,NA,NA,NA,NA,NA,NA,"",NA,NA,NA
"102","","practice_deliberation_again","","html-keyboard-response",101,70228,"0.0-67.0-6.0-0.0",0,0,"2V2GG","People","",1.186,"","",NA,"78",NA,NA,"",NA,NA,NA,NA,NA,NA,NA,"","",NA,NA,NA,NA,"",NA,NA,NA,NA,NA,NA,NA,NA,NA,NA,NA,NA,NA,NA,NA,NA,NA,NA,NA,NA,NA,NA,NA,"",NA,NA,NA
"103","","fixation","","html-keyboard-response",102,71231,"0.0-68.0-0.0",0,0,"2V2GG","People","",NA,"","",NA,"null",NA,NA,"",NA,NA,NA,NA,NA,NA,NA,"","",NA,NA,NA,NA,"",NA,NA,NA,NA,NA,NA,NA,NA,NA,NA,NA,NA,NA,NA,NA,NA,NA,NA,NA,NA,NA,NA,NA,"",NA,NA,NA
"104","","deliberation","","html-keyboard-response",103,71668,"0.0-68.0-1.0",0,0,"2V2GG","People","",0.436,"","",NA,"75",NA,NA,"",12,42,10,0,1,50,50,"prince-akachi-l3IHXOdMyHQ-unsplash.jpg","charles-etoroma-95UF6LXe-Lo-unsplash.jpg",2,0,10,42,"",NA,NA,NA,NA,NA,NA,NA,NA,NA,NA,NA,NA,NA,NA,NA,NA,NA,NA,NA,NA,NA,NA,NA,"",NA,NA,NA
"105","","choice_confirmation","","html-keyboard-response",104,72171,"0.0-68.0-2.0-0.0",0,0,"2V2GG","People","",NA,"","",NA,"null",NA,NA,"",12,42,10,NA,NA,NA,NA,"","",NA,NA,NA,NA,"",NA,NA,NA,NA,NA,NA,NA,NA,NA,NA,NA,NA,NA,NA,NA,NA,NA,NA,NA,NA,NA,NA,NA,"",NA,NA,NA
"106","","fixation","","html-keyboard-response",105,73177,"0.0-69.0-0.0",0,0,"2V2GG","People","",NA,"","",NA,"null",NA,NA,"",NA,NA,NA,NA,NA,NA,NA,"","",NA,NA,NA,NA,"",NA,NA,NA,NA,NA,NA,NA,NA,NA,NA,NA,NA,NA,NA,NA,NA,NA,NA,NA,NA,NA,NA,NA,"",NA,NA,NA
"107","","deliberation","","html-keyboard-response",106,73578,"0.0-69.0-1.0",0,0,"2V2GG","People","",0.399,"","",NA,"68",NA,NA,"",13,12,45,1,-1,50,50,"daniel-rigdon-dXmXKPP2L4E-unsplash.jpg","sarah-noltner-pL5ZzPp1zqg-unsplash.jpg",2,1,12,45,"",NA,NA,NA,NA,NA,NA,NA,NA,NA,NA,NA,NA,NA,NA,NA,NA,NA,NA,NA,NA,NA,NA,NA,"",NA,NA,NA
"108","","choice_confirmation","","html-keyboard-response",107,74079,"0.0-69.0-2.0-0.0",0,0,"2V2GG","People","",NA,"","",NA,"null",NA,NA,"",13,12,45,NA,NA,NA,NA,"","",NA,NA,NA,NA,"",NA,NA,NA,NA,NA,NA,NA,NA,NA,NA,NA,NA,NA,NA,NA,NA,NA,NA,NA,NA,NA,NA,NA,"",NA,NA,NA
"109","","explain_trial","","survey-text",108,75069,"0.0-69.0-5.0-0.0",0,0,"2V2GG","People","",0.988,"{""Q0"":""""}","",NA,"",NA,NA,"",13,12,45,NA,NA,NA,NA,"","",NA,NA,NA,NA,"{""Q0"":""""}",NA,NA,NA,NA,NA,NA,NA,NA,NA,NA,NA,NA,NA,NA,NA,NA,NA,NA,NA,NA,NA,NA,NA,"",NA,NA,NA
"110","","fixation","","html-keyboard-response",109,76072,"0.0-70.0-0.0",0,0,"2V2GG","People","",NA,"","",NA,"null",NA,NA,"",NA,NA,NA,NA,NA,NA,NA,"","",NA,NA,NA,NA,"",NA,NA,NA,NA,NA,NA,NA,NA,NA,NA,NA,NA,NA,NA,NA,NA,NA,NA,NA,NA,NA,NA,NA,"",NA,NA,NA
"111","","deliberation","","html-keyboard-response",110,76730,"0.0-70.0-1.0",0,0,"2V2GG","People","",0.656,"","",NA,"68",NA,NA,"",14,34,27,0,1,50,50,"oliver-johnson-1TUIcKob7Zs-unsplash.jpg","jurica-koletic-7YVZYZeITc8-unsplash.jpg",2,1,34,27,"",NA,NA,NA,NA,NA,NA,NA,NA,NA,NA,NA,NA,NA,NA,NA,NA,NA,NA,NA,NA,NA,NA,NA,"",NA,NA,NA
"112","","choice_confirmation","","html-keyboard-response",111,77233,"0.0-70.0-2.0-0.0",0,0,"2V2GG","People","",NA,"","",NA,"null",NA,NA,"",14,34,27,NA,NA,NA,NA,"","",NA,NA,NA,NA,"",NA,NA,NA,NA,NA,NA,NA,NA,NA,NA,NA,NA,NA,NA,NA,NA,NA,NA,NA,NA,NA,NA,NA,"",NA,NA,NA
"113","","fixation","","html-keyboard-response",112,78235,"0.0-71.0-0.0",0,0,"2V2GG","People","",NA,"","",NA,"null",NA,NA,"",NA,NA,NA,NA,NA,NA,NA,"","",NA,NA,NA,NA,"",NA,NA,NA,NA,NA,NA,NA,NA,NA,NA,NA,NA,NA,NA,NA,NA,NA,NA,NA,NA,NA,NA,NA,"",NA,NA,NA
"114","","deliberation","","html-keyboard-response",113,78612,"0.0-71.0-1.0",0,0,"2V2GG","People","",0.375,"","",NA,"68",NA,NA,"",15,37,35,0,1,50,50,"pavel-anoshin-d0peGya6R5Y-unsplash.jpg","oliver-ragfelt-khV4fTy6-D8-unsplash.jpg",2,1,37,35,"",NA,NA,NA,NA,NA,NA,NA,NA,NA,NA,NA,NA,NA,NA,NA,NA,NA,NA,NA,NA,NA,NA,NA,"",NA,NA,NA
"115","","choice_confirmation","","html-keyboard-response",114,79114,"0.0-71.0-2.0-0.0",0,0,"2V2GG","People","",NA,"","",NA,"null",NA,NA,"",15,37,35,NA,NA,NA,NA,"","",NA,NA,NA,NA,"",NA,NA,NA,NA,NA,NA,NA,NA,NA,NA,NA,NA,NA,NA,NA,NA,NA,NA,NA,NA,NA,NA,NA,"",NA,NA,NA
"116","","fixation","","html-keyboard-response",115,80121,"0.0-72.0-0.0",0,0,"2V2GG","People","",NA,"","",NA,"null",NA,NA,"",NA,NA,NA,NA,NA,NA,NA,"","",NA,NA,NA,NA,"",NA,NA,NA,NA,NA,NA,NA,NA,NA,NA,NA,NA,NA,NA,NA,NA,NA,NA,NA,NA,NA,NA,NA,"",NA,NA,NA
"117","","deliberation","","html-keyboard-response",116,80668,"0.0-72.0-1.0",0,0,"2V2GG","People","",0.545,"","",NA,"68",NA,NA,"",16,47,18,0,1,50,50,"tyler-nix-ZGa9d1a_4tA-unsplash.jpg","good-faces-xmSWVeGEnJw-unsplash.jpg",2,1,47,18,"",NA,NA,NA,NA,NA,NA,NA,NA,NA,NA,NA,NA,NA,NA,NA,NA,NA,NA,NA,NA,NA,NA,NA,"",NA,NA,NA
"118","","choice_confirmation","","html-keyboard-response",117,81170,"0.0-72.0-2.0-0.0",0,0,"2V2GG","People","",NA,"","",NA,"null",NA,NA,"",16,47,18,NA,NA,NA,NA,"","",NA,NA,NA,NA,"",NA,NA,NA,NA,NA,NA,NA,NA,NA,NA,NA,NA,NA,NA,NA,NA,NA,NA,NA,NA,NA,NA,NA,"",NA,NA,NA
"119","","fixation","","html-keyboard-response",118,82175,"0.0-73.0-0.0",0,0,"2V2GG","People","",NA,"","",NA,"null",NA,NA,"",NA,NA,NA,NA,NA,NA,NA,"","",NA,NA,NA,NA,"",NA,NA,NA,NA,NA,NA,NA,NA,NA,NA,NA,NA,NA,NA,NA,NA,NA,NA,NA,NA,NA,NA,NA,"",NA,NA,NA
"120","","deliberation","","html-keyboard-response",119,82567,"0.0-73.0-1.0",0,0,"2V2GG","People","",0.39,"","",NA,"68",NA,NA,"",17,9,16,1,-1,50,50,"carlos-andres-gomez-vJuk8Y86mRw-unsplash.jpg","giano-currie-5-9YOsmf8IQ-unsplash.jpg",2,1,9,16,"",NA,NA,NA,NA,NA,NA,NA,NA,NA,NA,NA,NA,NA,NA,NA,NA,NA,NA,NA,NA,NA,NA,NA,"",NA,NA,NA
"121","","choice_confirmation","","html-keyboard-response",120,83072,"0.0-73.0-2.0-0.0",0,0,"2V2GG","People","",NA,"","",NA,"null",NA,NA,"",17,9,16,NA,NA,NA,NA,"","",NA,NA,NA,NA,"",NA,NA,NA,NA,NA,NA,NA,NA,NA,NA,NA,NA,NA,NA,NA,NA,NA,NA,NA,NA,NA,NA,NA,"",NA,NA,NA
"122","","explain_trial","","survey-text",121,84338,"0.0-73.0-5.0-0.0",0,0,"2V2GG","People","",1.264,"{""Q0"":""""}","",NA,"",NA,NA,"",17,9,16,NA,NA,NA,NA,"","",NA,NA,NA,NA,"{""Q0"":""""}",NA,NA,NA,NA,NA,NA,NA,NA,NA,NA,NA,NA,NA,NA,NA,NA,NA,NA,NA,NA,NA,NA,NA,"",NA,NA,NA
"123","","fixation","","html-keyboard-response",122,85340,"0.0-74.0-0.0",0,0,"2V2GG","People","",NA,"","",NA,"null",NA,NA,"",NA,NA,NA,NA,NA,NA,NA,"","",NA,NA,NA,NA,"",NA,NA,NA,NA,NA,NA,NA,NA,NA,NA,NA,NA,NA,NA,NA,NA,NA,NA,NA,NA,NA,NA,NA,"",NA,NA,NA
"124","","deliberation","","html-keyboard-response",123,85731,"0.0-74.0-1.0",0,0,"2V2GG","People","",0.389,"","",NA,"68",NA,NA,"",18,28,0,0,-1,50,50,"justin-chen-J7Cf1Gch49E-unsplash.jpg","abstral-official-cyOKLSgkgCE-unsplash.jpg",2,1,28,0,"",NA,NA,NA,NA,NA,NA,NA,NA,NA,NA,NA,NA,NA,NA,NA,NA,NA,NA,NA,NA,NA,NA,NA,"",NA,NA,NA
"125","","choice_confirmation","","html-keyboard-response",124,86233,"0.0-74.0-2.0-0.0",0,0,"2V2GG","People","",NA,"","",NA,"null",NA,NA,"",18,28,0,NA,NA,NA,NA,"","",NA,NA,NA,NA,"",NA,NA,NA,NA,NA,NA,NA,NA,NA,NA,NA,NA,NA,NA,NA,NA,NA,NA,NA,NA,NA,NA,NA,"",NA,NA,NA
"126","","fixation","","html-keyboard-response",125,87237,"0.0-75.0-0.0",0,0,"2V2GG","People","",NA,"","",NA,"null",NA,NA,"",NA,NA,NA,NA,NA,NA,NA,"","",NA,NA,NA,NA,"",NA,NA,NA,NA,NA,NA,NA,NA,NA,NA,NA,NA,NA,NA,NA,NA,NA,NA,NA,NA,NA,NA,NA,"",NA,NA,NA
"127","","deliberation","","html-keyboard-response",126,87787,"0.0-75.0-1.0",0,0,"2V2GG","People","",0.548,"","",NA,"68",NA,NA,"",19,25,21,0,1,50,50,"joseph-gonzalez-iFgRcqHznqg-unsplash.jpg","jessica-felicio-_cvwXhGqG-o-unsplash.jpg",2,1,25,21,"",NA,NA,NA,NA,NA,NA,NA,NA,NA,NA,NA,NA,NA,NA,NA,NA,NA,NA,NA,NA,NA,NA,NA,"",NA,NA,NA
"128","","choice_confirmation","","html-keyboard-response",127,88290,"0.0-75.0-2.0-0.0",0,0,"2V2GG","People","",NA,"","",NA,"null",NA,NA,"",19,25,21,NA,NA,NA,NA,"","",NA,NA,NA,NA,"",NA,NA,NA,NA,NA,NA,NA,NA,NA,NA,NA,NA,NA,NA,NA,NA,NA,NA,NA,NA,NA,NA,NA,"",NA,NA,NA
"129","","fixation","","html-keyboard-response",128,89296,"0.0-76.0-0.0",0,0,"2V2GG","People","",NA,"","",NA,"null",NA,NA,"",NA,NA,NA,NA,NA,NA,NA,"","",NA,NA,NA,NA,"",NA,NA,NA,NA,NA,NA,NA,NA,NA,NA,NA,NA,NA,NA,NA,NA,NA,NA,NA,NA,NA,NA,NA,"",NA,NA,NA
"130","","deliberation","","html-keyboard-response",129,89682,"0.0-76.0-1.0",0,0,"2V2GG","People","",0.384,"","",NA,"68",NA,NA,"",20,31,3,1,-1,50,50,"mathilda-khoo-vLR0YP_otCo-unsplash.jpg","art-hauntington-jzY0KRJopEI-unsplash.jpg",2,1,31,3,"",NA,NA,NA,NA,NA,NA,NA,NA,NA,NA,NA,NA,NA,NA,NA,NA,NA,NA,NA,NA,NA,NA,NA,"",NA,NA,NA
"131","","choice_confirmation","","html-keyboard-response",130,90184,"0.0-76.0-2.0-0.0",0,0,"2V2GG","People","",NA,"","",NA,"null",NA,NA,"",20,31,3,NA,NA,NA,NA,"","",NA,NA,NA,NA,"",NA,NA,NA,NA,NA,NA,NA,NA,NA,NA,NA,NA,NA,NA,NA,NA,NA,NA,NA,NA,NA,NA,NA,"",NA,NA,NA
"132","","explain_trial","","survey-text",131,91431,"0.0-76.0-5.0-0.0",0,0,"2V2GG","People","",1.245,"{""Q0"":""""}","",NA,"",NA,NA,"",20,31,3,NA,NA,NA,NA,"","",NA,NA,NA,NA,"{""Q0"":""""}",NA,NA,NA,NA,NA,NA,NA,NA,NA,NA,NA,NA,NA,NA,NA,NA,NA,NA,NA,NA,NA,NA,NA,"",NA,NA,NA
"133","","fixation","","html-keyboard-response",132,92434,"0.0-77.0-0.0",0,0,"2V2GG","People","",NA,"","",NA,"null",NA,NA,"",NA,NA,NA,NA,NA,NA,NA,"","",NA,NA,NA,NA,"",NA,NA,NA,NA,NA,NA,NA,NA,NA,NA,NA,NA,NA,NA,NA,NA,NA,NA,NA,NA,NA,NA,NA,"",NA,NA,NA
"134","","deliberation","","html-keyboard-response",133,92892,"0.0-77.0-1.0",0,0,"2V2GG","People","",0.456,"","",NA,"68",NA,NA,"",21,24,14,1,-1,50,50,"joel-mott-LaK153ghdig-unsplash.jpg","freddy-kearney-o-ioeoATbIM-unsplash.jpg",2,1,24,14,"",NA,NA,NA,NA,NA,NA,NA,NA,NA,NA,NA,NA,NA,NA,NA,NA,NA,NA,NA,NA,NA,NA,NA,"",NA,NA,NA
"135","","choice_confirmation","","html-keyboard-response",134,93394,"0.0-77.0-2.0-0.0",0,0,"2V2GG","People","",NA,"","",NA,"null",NA,NA,"",21,24,14,NA,NA,NA,NA,"","",NA,NA,NA,NA,"",NA,NA,NA,NA,NA,NA,NA,NA,NA,NA,NA,NA,NA,NA,NA,NA,NA,NA,NA,NA,NA,NA,NA,"",NA,NA,NA
"136","","explain_trial","","survey-text",135,94971,"0.0-77.0-5.0-0.0",0,0,"2V2GG","People","",1.575,"{""Q0"":""""}","",NA,"",NA,NA,"",21,24,14,NA,NA,NA,NA,"","",NA,NA,NA,NA,"{""Q0"":""""}",NA,NA,NA,NA,NA,NA,NA,NA,NA,NA,NA,NA,NA,NA,NA,NA,NA,NA,NA,NA,NA,NA,NA,"",NA,NA,NA
"137","","fixation","","html-keyboard-response",136,95974,"0.0-78.0-0.0",0,0,"2V2GG","People","",NA,"","",NA,"null",NA,NA,"",NA,NA,NA,NA,NA,NA,NA,"","",NA,NA,NA,NA,"",NA,NA,NA,NA,NA,NA,NA,NA,NA,NA,NA,NA,NA,NA,NA,NA,NA,NA,NA,NA,NA,NA,NA,"",NA,NA,NA
"138","","deliberation","","html-keyboard-response",137,96310,"0.0-78.0-1.0",0,0,"2V2GG","People","",0.335,"","",NA,"68",NA,NA,"",22,8,41,1,-1,50,50,"bruce-dixon-3M9WJQVHzog-unsplash.jpg","prince-akachi-i2hoD-C2RUA-unsplash.jpg",2,1,8,41,"",NA,NA,NA,NA,NA,NA,NA,NA,NA,NA,NA,NA,NA,NA,NA,NA,NA,NA,NA,NA,NA,NA,NA,"",NA,NA,NA
"139","","choice_confirmation","","html-keyboard-response",138,96815,"0.0-78.0-2.0-0.0",0,0,"2V2GG","People","",NA,"","",NA,"null",NA,NA,"",22,8,41,NA,NA,NA,NA,"","",NA,NA,NA,NA,"",NA,NA,NA,NA,NA,NA,NA,NA,NA,NA,NA,NA,NA,NA,NA,NA,NA,NA,NA,NA,NA,NA,NA,"",NA,NA,NA
"140","","explain_trial","","survey-text",139,98393,"0.0-78.0-5.0-0.0",0,0,"2V2GG","People","",1.576,"{""Q0"":""""}","",NA,"",NA,NA,"",22,8,41,NA,NA,NA,NA,"","",NA,NA,NA,NA,"{""Q0"":""""}",NA,NA,NA,NA,NA,NA,NA,NA,NA,NA,NA,NA,NA,NA,NA,NA,NA,NA,NA,NA,NA,NA,NA,"",NA,NA,NA
"141","","fixation","","html-keyboard-response",140,99399,"0.0-79.0-0.0",0,0,"2V2GG","People","",NA,"","",NA,"null",NA,NA,"",NA,NA,NA,NA,NA,NA,NA,"","",NA,NA,NA,NA,"",NA,NA,NA,NA,NA,NA,NA,NA,NA,NA,NA,NA,NA,NA,NA,NA,NA,NA,NA,NA,NA,NA,NA,"",NA,NA,NA
"142","","deliberation","","html-keyboard-response",141,99844,"0.0-79.0-1.0",0,0,"2V2GG","People","",0.444,"","",NA,"68",NA,NA,"",23,26,22,1,1,50,50,"juri-gianfrancesco-9EZadYaMzk4-unsplash.jpg","jessica-radanavong-mrYkTuAesKE-unsplash.jpg",2,1,26,22,"",NA,NA,NA,NA,NA,NA,NA,NA,NA,NA,NA,NA,NA,NA,NA,NA,NA,NA,NA,NA,NA,NA,NA,"",NA,NA,NA
"143","","choice_confirmation","","html-keyboard-response",142,100350,"0.0-79.0-2.0-0.0",0,0,"2V2GG","People","",NA,"","",NA,"null",NA,NA,"",23,26,22,NA,NA,NA,NA,"","",NA,NA,NA,NA,"",NA,NA,NA,NA,NA,NA,NA,NA,NA,NA,NA,NA,NA,NA,NA,NA,NA,NA,NA,NA,NA,NA,NA,"",NA,NA,NA
"144","","explain_trial","","survey-text",143,101555,"0.0-79.0-5.0-0.0",0,0,"2V2GG","People","",1.203,"{""Q0"":""""}","",NA,"",NA,NA,"",23,26,22,NA,NA,NA,NA,"","",NA,NA,NA,NA,"{""Q0"":""""}",NA,NA,NA,NA,NA,NA,NA,NA,NA,NA,NA,NA,NA,NA,NA,NA,NA,NA,NA,NA,NA,NA,NA,"",NA,NA,NA
"145","","start_critical_deliberation_block","","html-keyboard-response",144,102979,"0.0-79.0-7.0-0.0",0,0,"2V2GG","People","",1.422,"","",NA,"78",NA,NA,"",NA,NA,NA,NA,NA,NA,NA,"","",NA,NA,NA,NA,"",NA,NA,NA,NA,NA,NA,NA,NA,NA,NA,NA,NA,NA,NA,NA,NA,NA,NA,NA,NA,NA,NA,NA,"",NA,NA,NA
"146","","fixation","","html-keyboard-response",145,103981,"0.0-80.0-0.0",0,0,"2V2GG","People","",NA,"","",NA,"null",NA,NA,"",NA,NA,NA,NA,NA,NA,NA,"","",NA,NA,NA,NA,"",NA,NA,NA,NA,NA,NA,NA,NA,NA,NA,NA,NA,NA,NA,NA,NA,NA,NA,NA,NA,NA,NA,NA,"",NA,NA,NA
"147","","deliberation","","html-keyboard-response",146,104229,"0.0-80.0-1.0",0,0,"2V2GG","People","",0.246,"","",NA,"75",NA,NA,"",24,42,10,0,1,50,50,"prince-akachi-l3IHXOdMyHQ-unsplash.jpg","charles-etoroma-95UF6LXe-Lo-unsplash.jpg",3,0,10,42,"",NA,NA,NA,NA,NA,NA,NA,NA,NA,NA,NA,NA,NA,NA,NA,NA,NA,NA,NA,NA,NA,NA,NA,"",NA,NA,NA
"148","","choice_confirmation","","html-keyboard-response",147,104731,"0.0-80.0-2.0-0.0",0,0,"2V2GG","People","",NA,"","",NA,"null",NA,NA,"",24,42,10,NA,NA,NA,NA,"","",NA,NA,NA,NA,"",NA,NA,NA,NA,NA,NA,NA,NA,NA,NA,NA,NA,NA,NA,NA,NA,NA,NA,NA,NA,NA,NA,NA,"",NA,NA,NA
"149","","deliberation_too_fast","","html-keyboard-response",148,106238,"0.0-80.0-3.0-0.0",1,0,"2V2GG","People","",NA,"","",NA,"null",NA,NA,"",24,NA,NA,NA,NA,NA,NA,"","",NA,NA,NA,NA,"",NA,NA,NA,NA,NA,NA,NA,NA,NA,NA,NA,NA,NA,NA,NA,NA,NA,NA,NA,NA,NA,NA,NA,"",NA,NA,NA
"150","","fixation","","html-keyboard-response",149,107241,"0.0-81.0-0.0",0,0,"2V2GG","People","",NA,"","",NA,"null",NA,NA,"",NA,NA,NA,NA,NA,NA,NA,"","",NA,NA,NA,NA,"",NA,NA,NA,NA,NA,NA,NA,NA,NA,NA,NA,NA,NA,NA,NA,NA,NA,NA,NA,NA,NA,NA,NA,"",NA,NA,NA
"151","","deliberation","","html-keyboard-response",150,107622,"0.0-81.0-1.0",0,0,"2V2GG","People","",0.379,"","",NA,"75",NA,NA,"",25,34,27,0,1,50,50,"oliver-johnson-1TUIcKob7Zs-unsplash.jpg","jurica-koletic-7YVZYZeITc8-unsplash.jpg",3,0,27,34,"",NA,NA,NA,NA,NA,NA,NA,NA,NA,NA,NA,NA,NA,NA,NA,NA,NA,NA,NA,NA,NA,NA,NA,"",NA,NA,NA
"152","","choice_confirmation","","html-keyboard-response",151,108124,"0.0-81.0-2.0-0.0",0,0,"2V2GG","People","",NA,"","",NA,"null",NA,NA,"",25,34,27,NA,NA,NA,NA,"","",NA,NA,NA,NA,"",NA,NA,NA,NA,NA,NA,NA,NA,NA,NA,NA,NA,NA,NA,NA,NA,NA,NA,NA,NA,NA,NA,NA,"",NA,NA,NA
"153","","fixation","","html-keyboard-response",152,109128,"0.0-82.0-0.0",0,0,"2V2GG","People","",NA,"","",NA,"null",NA,NA,"",NA,NA,NA,NA,NA,NA,NA,"","",NA,NA,NA,NA,"",NA,NA,NA,NA,NA,NA,NA,NA,NA,NA,NA,NA,NA,NA,NA,NA,NA,NA,NA,NA,NA,NA,NA,"",NA,NA,NA
"154","","deliberation","","html-keyboard-response",153,109517,"0.0-82.0-1.0",0,0,"2V2GG","People","",0.387,"","",NA,"75",NA,NA,"",26,37,35,0,1,50,50,"pavel-anoshin-d0peGya6R5Y-unsplash.jpg","oliver-ragfelt-khV4fTy6-D8-unsplash.jpg",3,0,35,37,"",NA,NA,NA,NA,NA,NA,NA,NA,NA,NA,NA,NA,NA,NA,NA,NA,NA,NA,NA,NA,NA,NA,NA,"",NA,NA,NA
"155","","choice_confirmation","","html-keyboard-response",154,110020,"0.0-82.0-2.0-0.0",0,0,"2V2GG","People","",NA,"","",NA,"null",NA,NA,"",26,37,35,NA,NA,NA,NA,"","",NA,NA,NA,NA,"",NA,NA,NA,NA,NA,NA,NA,NA,NA,NA,NA,NA,NA,NA,NA,NA,NA,NA,NA,NA,NA,NA,NA,"",NA,NA,NA
"156","","fixation","","html-keyboard-response",155,111025,"0.0-83.0-0.0",0,0,"2V2GG","People","",NA,"","",NA,"null",NA,NA,"",NA,NA,NA,NA,NA,NA,NA,"","",NA,NA,NA,NA,"",NA,NA,NA,NA,NA,NA,NA,NA,NA,NA,NA,NA,NA,NA,NA,NA,NA,NA,NA,NA,NA,NA,NA,"",NA,NA,NA
"157","","deliberation","","html-keyboard-response",156,113485,"0.0-83.0-1.0",0,0,"2V2GG","People","",2.458,"","",NA,"75",NA,NA,"",27,31,3,0,-1,50,50,"mathilda-khoo-vLR0YP_otCo-unsplash.jpg","art-hauntington-jzY0KRJopEI-unsplash.jpg",3,0,3,31,"",NA,NA,NA,NA,NA,NA,NA,NA,NA,NA,NA,NA,NA,NA,NA,NA,NA,NA,NA,NA,NA,NA,NA,"",NA,NA,NA
"158","","choice_confirmation","","html-keyboard-response",157,113989,"0.0-83.0-2.0-0.0",0,0,"2V2GG","People","",NA,"","",NA,"null",NA,NA,"",27,31,3,NA,NA,NA,NA,"","",NA,NA,NA,NA,"",NA,NA,NA,NA,NA,NA,NA,NA,NA,NA,NA,NA,NA,NA,NA,NA,NA,NA,NA,NA,NA,NA,NA,"",NA,NA,NA
"159","","fixation","","html-keyboard-response",158,114994,"0.0-84.0-0.0",0,0,"2V2GG","People","",NA,"","",NA,"null",NA,NA,"",NA,NA,NA,NA,NA,NA,NA,"","",NA,NA,NA,NA,"",NA,NA,NA,NA,NA,NA,NA,NA,NA,NA,NA,NA,NA,NA,NA,NA,NA,NA,NA,NA,NA,NA,NA,"",NA,NA,NA
"160","","deliberation","","html-keyboard-response",159,115636,"0.0-84.0-1.0",0,0,"2V2GG","People","",0.64,"","",NA,"75",NA,NA,"",28,12,45,0,-1,50,50,"daniel-rigdon-dXmXKPP2L4E-unsplash.jpg","sarah-noltner-pL5ZzPp1zqg-unsplash.jpg",3,0,45,12,"",NA,NA,NA,NA,NA,NA,NA,NA,NA,NA,NA,NA,NA,NA,NA,NA,NA,NA,NA,NA,NA,NA,NA,"",NA,NA,NA
"161","","choice_confirmation","","html-keyboard-response",160,116141,"0.0-84.0-2.0-0.0",0,0,"2V2GG","People","",NA,"","",NA,"null",NA,NA,"",28,12,45,NA,NA,NA,NA,"","",NA,NA,NA,NA,"",NA,NA,NA,NA,NA,NA,NA,NA,NA,NA,NA,NA,NA,NA,NA,NA,NA,NA,NA,NA,NA,NA,NA,"",NA,NA,NA
"162","","fixation","","html-keyboard-response",161,117147,"0.0-85.0-0.0",0,0,"2V2GG","People","",NA,"","",NA,"null",NA,NA,"",NA,NA,NA,NA,NA,NA,NA,"","",NA,NA,NA,NA,"",NA,NA,NA,NA,NA,NA,NA,NA,NA,NA,NA,NA,NA,NA,NA,NA,NA,NA,NA,NA,NA,NA,NA,"",NA,NA,NA
"163","","deliberation","","html-keyboard-response",162,117613,"0.0-85.0-1.0",0,0,"2V2GG","People","",0.464,"","",NA,"75",NA,NA,"",29,47,18,0,1,50,50,"tyler-nix-ZGa9d1a_4tA-unsplash.jpg","good-faces-xmSWVeGEnJw-unsplash.jpg",3,0,18,47,"",NA,NA,NA,NA,NA,NA,NA,NA,NA,NA,NA,NA,NA,NA,NA,NA,NA,NA,NA,NA,NA,NA,NA,"",NA,NA,NA
"164","","choice_confirmation","","html-keyboard-response",163,118115,"0.0-85.0-2.0-0.0",0,0,"2V2GG","People","",NA,"","",NA,"null",NA,NA,"",29,47,18,NA,NA,NA,NA,"","",NA,NA,NA,NA,"",NA,NA,NA,NA,NA,NA,NA,NA,NA,NA,NA,NA,NA,NA,NA,NA,NA,NA,NA,NA,NA,NA,NA,"",NA,NA,NA
"165","","fixation","","html-keyboard-response",164,119121,"0.0-86.0-0.0",0,0,"2V2GG","People","",NA,"","",NA,"null",NA,NA,"",NA,NA,NA,NA,NA,NA,NA,"","",NA,NA,NA,NA,"",NA,NA,NA,NA,NA,NA,NA,NA,NA,NA,NA,NA,NA,NA,NA,NA,NA,NA,NA,NA,NA,NA,NA,"",NA,NA,NA
"166","","deliberation","","html-keyboard-response",165,119175,"0.0-86.0-1.0",0,0,"2V2GG","People","",0.05,"","",NA,"75",NA,NA,"",30,26,22,0,1,50,50,"juri-gianfrancesco-9EZadYaMzk4-unsplash.jpg","jessica-radanavong-mrYkTuAesKE-unsplash.jpg",3,0,22,26,"",NA,NA,NA,NA,NA,NA,NA,NA,NA,NA,NA,NA,NA,NA,NA,NA,NA,NA,NA,NA,NA,NA,NA,"",NA,NA,NA
"167","","choice_confirmation","","html-keyboard-response",166,119678,"0.0-86.0-2.0-0.0",0,0,"2V2GG","People","",NA,"","",NA,"null",NA,NA,"",30,26,22,NA,NA,NA,NA,"","",NA,NA,NA,NA,"",NA,NA,NA,NA,NA,NA,NA,NA,NA,NA,NA,NA,NA,NA,NA,NA,NA,NA,NA,NA,NA,NA,NA,"",NA,NA,NA
"168","","deliberation_too_fast","","html-keyboard-response",167,121182,"0.0-86.0-3.0-0.0",1,0,"2V2GG","People","",NA,"","",NA,"null",NA,NA,"",30,NA,NA,NA,NA,NA,NA,"","",NA,NA,NA,NA,"",NA,NA,NA,NA,NA,NA,NA,NA,NA,NA,NA,NA,NA,NA,NA,NA,NA,NA,NA,NA,NA,NA,NA,"",NA,NA,NA
"169","","fixation","","html-keyboard-response",168,122184,"0.0-87.0-0.0",0,0,"2V2GG","People","",NA,"","",NA,"null",NA,NA,"",NA,NA,NA,NA,NA,NA,NA,"","",NA,NA,NA,NA,"",NA,NA,NA,NA,NA,NA,NA,NA,NA,NA,NA,NA,NA,NA,NA,NA,NA,NA,NA,NA,NA,NA,NA,"",NA,NA,NA
"170","","deliberation","","html-keyboard-response",169,123714,"0.0-87.0-1.0",0,0,"2V2GG","People","",1.529,"","",NA,"75",NA,NA,"",31,9,16,0,-1,50,50,"carlos-andres-gomez-vJuk8Y86mRw-unsplash.jpg","giano-currie-5-9YOsmf8IQ-unsplash.jpg",3,0,16,9,"",NA,NA,NA,NA,NA,NA,NA,NA,NA,NA,NA,NA,NA,NA,NA,NA,NA,NA,NA,NA,NA,NA,NA,"",NA,NA,NA
"171","","choice_confirmation","","html-keyboard-response",170,124217,"0.0-87.0-2.0-0.0",0,0,"2V2GG","People","",NA,"","",NA,"null",NA,NA,"",31,9,16,NA,NA,NA,NA,"","",NA,NA,NA,NA,"",NA,NA,NA,NA,NA,NA,NA,NA,NA,NA,NA,NA,NA,NA,NA,NA,NA,NA,NA,NA,NA,NA,NA,"",NA,NA,NA
"172","","fixation","","html-keyboard-response",171,125221,"0.0-88.0-0.0",0,0,"2V2GG","People","",NA,"","",NA,"null",NA,NA,"",NA,NA,NA,NA,NA,NA,NA,"","",NA,NA,NA,NA,"",NA,NA,NA,NA,NA,NA,NA,NA,NA,NA,NA,NA,NA,NA,NA,NA,NA,NA,NA,NA,NA,NA,NA,"",NA,NA,NA
"173","","deliberation","","html-keyboard-response",172,125829,"0.0-88.0-1.0",0,0,"2V2GG","People","",0.605,"","",NA,"75",NA,NA,"",32,24,14,0,-1,50,50,"joel-mott-LaK153ghdig-unsplash.jpg","freddy-kearney-o-ioeoATbIM-unsplash.jpg",3,0,14,24,"",NA,NA,NA,NA,NA,NA,NA,NA,NA,NA,NA,NA,NA,NA,NA,NA,NA,NA,NA,NA,NA,NA,NA,"",NA,NA,NA
"174","","choice_confirmation","","html-keyboard-response",173,126334,"0.0-88.0-2.0-0.0",0,0,"2V2GG","People","",NA,"","",NA,"null",NA,NA,"",32,24,14,NA,NA,NA,NA,"","",NA,NA,NA,NA,"",NA,NA,NA,NA,NA,NA,NA,NA,NA,NA,NA,NA,NA,NA,NA,NA,NA,NA,NA,NA,NA,NA,NA,"",NA,NA,NA
"175","","fixation","","html-keyboard-response",174,127339,"0.0-89.0-0.0",0,0,"2V2GG","People","",NA,"","",NA,"null",NA,NA,"",NA,NA,NA,NA,NA,NA,NA,"","",NA,NA,NA,NA,"",NA,NA,NA,NA,NA,NA,NA,NA,NA,NA,NA,NA,NA,NA,NA,NA,NA,NA,NA,NA,NA,NA,NA,"",NA,NA,NA
"176","","deliberation","","html-keyboard-response",175,127613,"0.0-89.0-1.0",0,0,"2V2GG","People","",0.271,"","",NA,"75",NA,NA,"",33,28,0,0,-1,50,50,"justin-chen-J7Cf1Gch49E-unsplash.jpg","abstral-official-cyOKLSgkgCE-unsplash.jpg",3,0,0,28,"",NA,NA,NA,NA,NA,NA,NA,NA,NA,NA,NA,NA,NA,NA,NA,NA,NA,NA,NA,NA,NA,NA,NA,"",NA,NA,NA
"177","","choice_confirmation","","html-keyboard-response",176,128117,"0.0-89.0-2.0-0.0",0,0,"2V2GG","People","",NA,"","",NA,"null",NA,NA,"",33,28,0,NA,NA,NA,NA,"","",NA,NA,NA,NA,"",NA,NA,NA,NA,NA,NA,NA,NA,NA,NA,NA,NA,NA,NA,NA,NA,NA,NA,NA,NA,NA,NA,NA,"",NA,NA,NA
"178","","deliberation_too_fast","","html-keyboard-response",177,129622,"0.0-89.0-3.0-0.0",1,0,"2V2GG","People","",NA,"","",NA,"null",NA,NA,"",33,NA,NA,NA,NA,NA,NA,"","",NA,NA,NA,NA,"",NA,NA,NA,NA,NA,NA,NA,NA,NA,NA,NA,NA,NA,NA,NA,NA,NA,NA,NA,NA,NA,NA,NA,"",NA,NA,NA
"179","","fixation","","html-keyboard-response",178,130629,"0.0-90.0-0.0",0,0,"2V2GG","People","",NA,"","",NA,"null",NA,NA,"",NA,NA,NA,NA,NA,NA,NA,"","",NA,NA,NA,NA,"",NA,NA,NA,NA,NA,NA,NA,NA,NA,NA,NA,NA,NA,NA,NA,NA,NA,NA,NA,NA,NA,NA,NA,"",NA,NA,NA
"180","","deliberation","","html-keyboard-response",179,132150,"0.0-90.0-1.0",0,0,"2V2GG","People","",1.519,"","",NA,"75",NA,NA,"",34,25,21,0,1,50,50,"joseph-gonzalez-iFgRcqHznqg-unsplash.jpg","jessica-felicio-_cvwXhGqG-o-unsplash.jpg",3,0,21,25,"",NA,NA,NA,NA,NA,NA,NA,NA,NA,NA,NA,NA,NA,NA,NA,NA,NA,NA,NA,NA,NA,NA,NA,"",NA,NA,NA
"181","","choice_confirmation","","html-keyboard-response",180,132652,"0.0-90.0-2.0-0.0",0,0,"2V2GG","People","",NA,"","",NA,"null",NA,NA,"",34,25,21,NA,NA,NA,NA,"","",NA,NA,NA,NA,"",NA,NA,NA,NA,NA,NA,NA,NA,NA,NA,NA,NA,NA,NA,NA,NA,NA,NA,NA,NA,NA,NA,NA,"",NA,NA,NA
"182","","fixation","","html-keyboard-response",181,133659,"0.0-91.0-0.0",0,0,"2V2GG","People","",NA,"","",NA,"null",NA,NA,"",NA,NA,NA,NA,NA,NA,NA,"","",NA,NA,NA,NA,"",NA,NA,NA,NA,NA,NA,NA,NA,NA,NA,NA,NA,NA,NA,NA,NA,NA,NA,NA,NA,NA,NA,NA,"",NA,NA,NA
"183","","deliberation","","html-keyboard-response",182,134178,"0.0-91.0-1.0",0,0,"2V2GG","People","",0.517,"","",NA,"75",NA,NA,"",35,8,41,0,-1,50,50,"bruce-dixon-3M9WJQVHzog-unsplash.jpg","prince-akachi-i2hoD-C2RUA-unsplash.jpg",3,0,41,8,"",NA,NA,NA,NA,NA,NA,NA,NA,NA,NA,NA,NA,NA,NA,NA,NA,NA,NA,NA,NA,NA,NA,NA,"",NA,NA,NA
"184","","choice_confirmation","","html-keyboard-response",183,134687,"0.0-91.0-2.0-0.0",0,0,"2V2GG","People","",NA,"","",NA,"null",NA,NA,"",35,8,41,NA,NA,NA,NA,"","",NA,NA,NA,NA,"",NA,NA,NA,NA,NA,NA,NA,NA,NA,NA,NA,NA,NA,NA,NA,NA,NA,NA,NA,NA,NA,NA,NA,"",NA,NA,NA
"185","","reward_learning_instructions","","instructions",184,152539,"0.0-92.0-0.0",0,0,"2V2GG","People","[{""page_index"":0,""viewing_time"":16356},{""page_index"":1,""viewing_time"":756},{""page_index"":2,""viewing_time"":738}]",17.85,"","",NA,"",NA,NA,"",NA,NA,NA,NA,NA,NA,NA,"","",NA,NA,NA,NA,"",NA,NA,NA,NA,NA,NA,NA,NA,NA,NA,NA,NA,NA,NA,NA,NA,NA,NA,NA,NA,NA,NA,NA,"",NA,NA,NA
"186","","","","survey-multi-choice",185,158330,"0.0-92.0-1.0",0,0,"2V2GG","People","",5.786,"{""Q0"":""True"",""Q1"":""True"",""Q2"":""Press the space bar to see its outcome"",""Q3"":""Press the relevant key while the outcome is presented""}","reward_comprehension_check",0,"",NA,NA,"",NA,NA,NA,NA,NA,NA,NA,"","",NA,NA,NA,NA,"",NA,NA,NA,NA,NA,NA,NA,NA,NA,NA,NA,NA,NA,NA,NA,NA,NA,NA,NA,NA,NA,NA,NA,"",NA,NA,NA
"187","","start_phase","","html-keyboard-response",186,159577,"0.0-93.0",0,0,"2V2GG","People","",1.245,"","",NA,"78",NA,NA,"",NA,NA,NA,NA,NA,NA,NA,"","",NA,NA,NA,NA,"",NA,NA,NA,NA,NA,NA,NA,NA,NA,NA,NA,NA,NA,NA,NA,NA,NA,NA,NA,NA,NA,NA,NA,"",NA,NA,NA
"188","","fixation","","html-keyboard-response",187,160582,"0.0-94.0",0,0,"2V2GG","People","",NA,"","",NA,"null",NA,NA,"",NA,NA,NA,NA,NA,NA,NA,"","",NA,NA,NA,NA,"",NA,NA,NA,NA,NA,NA,NA,NA,NA,NA,NA,NA,NA,NA,NA,NA,NA,NA,NA,NA,NA,NA,NA,"",NA,NA,NA
"189","","see_reward","","html-keyboard-response",188,161063,"0.0-95.0",0,0,"2V2GG","People","",0.479,"","",NA,"32",NA,41,"",0,NA,NA,NA,-1,NA,NA,"","",1,NA,NA,NA,"",0,0.479,NA,NA,NA,NA,NA,NA,NA,NA,NA,NA,NA,NA,NA,NA,NA,NA,NA,NA,NA,NA,NA,"",NA,NA,NA
"190","","reward_outcome","","html-keyboard-response",189,163067,"0.0-96.0",0,0,"2V2GG","People","",0.062,"","",NA,"38",NA,41,"",0,NA,NA,NA,NA,NA,NA,"","",NA,NA,NA,NA,"",NA,NA,1,0.062,NA,NA,NA,NA,NA,NA,NA,NA,NA,NA,NA,NA,NA,NA,NA,NA,NA,NA,NA,"",NA,NA,NA
"191","","fixation","","html-keyboard-response",190,164071,"0.0-99.0",0,0,"2V2GG","People","",NA,"","",NA,"null",NA,NA,"",NA,NA,NA,NA,NA,NA,NA,"","",NA,NA,NA,NA,"",NA,NA,NA,NA,NA,NA,NA,NA,NA,NA,NA,NA,NA,NA,NA,NA,NA,NA,NA,NA,NA,NA,NA,"",NA,NA,NA
"192","","see_reward","","html-keyboard-response",191,164719,"0.0-100.0",0,0,"2V2GG","People","",0.646,"","",NA,"32",NA,0,"",1,NA,NA,NA,-1,NA,NA,"","",1,NA,NA,NA,"",0,0.646,NA,NA,NA,NA,NA,NA,NA,NA,NA,NA,NA,NA,NA,NA,NA,NA,NA,NA,NA,NA,NA,"",NA,NA,NA
"193","","reward_outcome","","html-keyboard-response",192,166724,"0.0-101.0",0,0,"2V2GG","People","",0.053,"","",NA,"38",NA,0,"",1,NA,NA,NA,NA,NA,NA,"","",NA,NA,NA,NA,"",NA,NA,1,0.053,NA,NA,NA,NA,NA,NA,NA,NA,NA,NA,NA,NA,NA,NA,NA,NA,NA,NA,NA,"",NA,NA,NA
"194","","fixation","","html-keyboard-response",193,167730,"0.0-104.0",0,0,"2V2GG","People","",NA,"","",NA,"null",NA,NA,"",NA,NA,NA,NA,NA,NA,NA,"","",NA,NA,NA,NA,"",NA,NA,NA,NA,NA,NA,NA,NA,NA,NA,NA,NA,NA,NA,NA,NA,NA,NA,NA,NA,NA,NA,NA,"",NA,NA,NA
"195","","see_reward","","html-keyboard-response",194,169127,"0.0-105.0",0,0,"2V2GG","People","",1.395,"","",NA,"32",NA,21,"",2,NA,NA,NA,1,NA,NA,"","",1,NA,NA,NA,"",160,1.395,NA,NA,NA,NA,NA,NA,NA,NA,NA,NA,NA,NA,NA,NA,NA,NA,NA,NA,NA,NA,NA,"",NA,NA,NA
"196","","reward_outcome","","html-keyboard-response",195,171134,"0.0-106.0",0,0,"2V2GG","People","",0.035,"","",NA,"38",NA,21,"",2,NA,NA,NA,NA,NA,NA,"","",NA,NA,NA,NA,"",NA,NA,1,0.035,NA,NA,NA,NA,NA,NA,NA,NA,NA,NA,NA,NA,NA,NA,NA,NA,NA,NA,NA,"",NA,NA,NA
"197","","fixation","","html-keyboard-response",196,172141,"0.0-109.0",0,0,"2V2GG","People","",NA,"","",NA,"null",NA,NA,"",NA,NA,NA,NA,NA,NA,NA,"","",NA,NA,NA,NA,"",NA,NA,NA,NA,NA,NA,NA,NA,NA,NA,NA,NA,NA,NA,NA,NA,NA,NA,NA,NA,NA,NA,NA,"",NA,NA,NA
"198","","see_reward","","html-keyboard-response",197,172471,"0.0-110.0",0,0,"2V2GG","People","",0.328,"","",NA,"32",NA,22,"",3,NA,NA,NA,1,NA,NA,"","",1,NA,NA,NA,"",146,0.328,NA,NA,NA,NA,NA,NA,NA,NA,NA,NA,NA,NA,NA,NA,NA,NA,NA,NA,NA,NA,NA,"",NA,NA,NA
"199","","reward_outcome","","html-keyboard-response",198,174477,"0.0-111.0",0,0,"2V2GG","People","",0.061,"","",NA,"38",NA,22,"",3,NA,NA,NA,NA,NA,NA,"","",NA,NA,NA,NA,"",NA,NA,1,0.061,NA,NA,NA,NA,NA,NA,NA,NA,NA,NA,NA,NA,NA,NA,NA,NA,NA,NA,NA,"",NA,NA,NA
"200","","fixation","","html-keyboard-response",199,175481,"0.0-114.0",0,0,"2V2GG","People","",NA,"","",NA,"null",NA,NA,"",NA,NA,NA,NA,NA,NA,NA,"","",NA,NA,NA,NA,"",NA,NA,NA,NA,NA,NA,NA,NA,NA,NA,NA,NA,NA,NA,NA,NA,NA,NA,NA,NA,NA,NA,NA,"",NA,NA,NA
"201","","see_reward","","html-keyboard-response",200,176023,"0.0-115.0",0,0,"2V2GG","People","",0.54,"","",NA,"32",NA,3,"",4,NA,NA,NA,-1,NA,NA,"","",1,NA,NA,NA,"",0,0.54,NA,NA,NA,NA,NA,NA,NA,NA,NA,NA,NA,NA,NA,NA,NA,NA,NA,NA,NA,NA,NA,"",NA,NA,NA
"202","","reward_outcome","","html-keyboard-response",201,178025,"0.0-116.0",0,0,"2V2GG","People","",0.046,"","",NA,"38",NA,3,"",4,NA,NA,NA,NA,NA,NA,"","",NA,NA,NA,NA,"",NA,NA,1,0.046,NA,NA,NA,NA,NA,NA,NA,NA,NA,NA,NA,NA,NA,NA,NA,NA,NA,NA,NA,"",NA,NA,NA
"203","","fixation","","html-keyboard-response",202,179031,"0.0-119.0",0,0,"2V2GG","People","",NA,"","",NA,"null",NA,NA,"",NA,NA,NA,NA,NA,NA,NA,"","",NA,NA,NA,NA,"",NA,NA,NA,NA,NA,NA,NA,NA,NA,NA,NA,NA,NA,NA,NA,NA,NA,NA,NA,NA,NA,NA,NA,"",NA,NA,NA
"204","","see_reward","","html-keyboard-response",203,179207,"0.0-120.0",0,0,"2V2GG","People","",0.174,"","",NA,"32",NA,35,"",5,NA,NA,NA,1,NA,NA,"","",1,NA,NA,NA,"",145,0.174,NA,NA,NA,NA,NA,NA,NA,NA,NA,NA,NA,NA,NA,NA,NA,NA,NA,NA,NA,NA,NA,"",NA,NA,NA
"205","","reward_outcome","","html-keyboard-response",204,181212,"0.0-121.0",0,0,"2V2GG","People","",0.156,"","",NA,"38",NA,35,"",5,NA,NA,NA,NA,NA,NA,"","",NA,NA,NA,NA,"",NA,NA,1,0.156,NA,NA,NA,NA,NA,NA,NA,NA,NA,NA,NA,NA,NA,NA,NA,NA,NA,NA,NA,"",NA,NA,NA
"206","","fixation","","html-keyboard-response",205,182215,"0.0-124.0",0,0,"2V2GG","People","",NA,"","",NA,"null",NA,NA,"",NA,NA,NA,NA,NA,NA,NA,"","",NA,NA,NA,NA,"",NA,NA,NA,NA,NA,NA,NA,NA,NA,NA,NA,NA,NA,NA,NA,NA,NA,NA,NA,NA,NA,NA,NA,"",NA,NA,NA
"207","","see_reward","","html-keyboard-response",206,183606,"0.0-125.0",0,0,"2V2GG","People","",1.39,"","",NA,"32",NA,18,"",6,NA,NA,NA,1,NA,NA,"","",1,NA,NA,NA,"",146,1.39,NA,NA,NA,NA,NA,NA,NA,NA,NA,NA,NA,NA,NA,NA,NA,NA,NA,NA,NA,NA,NA,"",NA,NA,NA
"208","","reward_outcome","","html-keyboard-response",207,185612,"0.0-126.0",0,0,"2V2GG","People","",0.079,"","",NA,"38",NA,18,"",6,NA,NA,NA,NA,NA,NA,"","",NA,NA,NA,NA,"",NA,NA,1,0.079,NA,NA,NA,NA,NA,NA,NA,NA,NA,NA,NA,NA,NA,NA,NA,NA,NA,NA,NA,"",NA,NA,NA
"209","","fixation","","html-keyboard-response",208,186617,"0.0-129.0",0,0,"2V2GG","People","",NA,"","",NA,"null",NA,NA,"",NA,NA,NA,NA,NA,NA,NA,"","",NA,NA,NA,NA,"",NA,NA,NA,NA,NA,NA,NA,NA,NA,NA,NA,NA,NA,NA,NA,NA,NA,NA,NA,NA,NA,NA,NA,"",NA,NA,NA
"210","","see_reward","","html-keyboard-response",209,187846,"0.0-130.0",0,0,"2V2GG","People","",1.228,"","",NA,"32",NA,45,"",7,NA,NA,NA,-1,NA,NA,"","",1,NA,NA,NA,"",0,1.228,NA,NA,NA,NA,NA,NA,NA,NA,NA,NA,NA,NA,NA,NA,NA,NA,NA,NA,NA,NA,NA,"",NA,NA,NA
"211","","reward_outcome","","html-keyboard-response",210,189850,"0.0-131.0",0,0,"2V2GG","People","",0.447,"","",NA,"38",NA,45,"",7,NA,NA,NA,NA,NA,NA,"","",NA,NA,NA,NA,"",NA,NA,1,0.447,NA,NA,NA,NA,NA,NA,NA,NA,NA,NA,NA,NA,NA,NA,NA,NA,NA,NA,NA,"",NA,NA,NA
"212","","fixation","","html-keyboard-response",211,190853,"0.0-134.0",0,0,"2V2GG","People","",NA,"","",NA,"null",NA,NA,"",NA,NA,NA,NA,NA,NA,NA,"","",NA,NA,NA,NA,"",NA,NA,NA,NA,NA,NA,NA,NA,NA,NA,NA,NA,NA,NA,NA,NA,NA,NA,NA,NA,NA,NA,NA,"",NA,NA,NA
"213","","see_reward","","html-keyboard-response",212,191423,"0.0-135.0",0,0,"2V2GG","People","",0.569,"","",NA,"32",NA,41,"",8,NA,NA,NA,-1,NA,NA,"","",1,NA,NA,NA,"",0,0.569,NA,NA,NA,NA,NA,NA,NA,NA,NA,NA,NA,NA,NA,NA,NA,NA,NA,NA,NA,NA,NA,"",NA,NA,NA
"214","","reward_outcome","","html-keyboard-response",213,193430,"0.0-136.0",0,0,"2V2GG","People","",0.359,"","",NA,"38",NA,41,"",8,NA,NA,NA,NA,NA,NA,"","",NA,NA,NA,NA,"",NA,NA,1,0.359,NA,NA,NA,NA,NA,NA,NA,NA,NA,NA,NA,NA,NA,NA,NA,NA,NA,NA,NA,"",NA,NA,NA
"215","","fixation","","html-keyboard-response",214,194438,"0.0-139.0",0,0,"2V2GG","People","",NA,"","",NA,"null",NA,NA,"",NA,NA,NA,NA,NA,NA,NA,"","",NA,NA,NA,NA,"",NA,NA,NA,NA,NA,NA,NA,NA,NA,NA,NA,NA,NA,NA,NA,NA,NA,NA,NA,NA,NA,NA,NA,"",NA,NA,NA
"216","","see_reward","","html-keyboard-response",215,195424,"0.0-140.0",0,0,"2V2GG","People","",0.985,"","",NA,"32",NA,10,"",9,NA,NA,NA,1,NA,NA,"","",1,NA,NA,NA,"",150,0.985,NA,NA,NA,NA,NA,NA,NA,NA,NA,NA,NA,NA,NA,NA,NA,NA,NA,NA,NA,NA,NA,"",NA,NA,NA
"217","","reward_outcome","","html-keyboard-response",216,197431,"0.0-141.0",0,0,"2V2GG","People","",0.349,"","",NA,"38",NA,10,"",9,NA,NA,NA,NA,NA,NA,"","",NA,NA,NA,NA,"",NA,NA,1,0.349,NA,NA,NA,NA,NA,NA,NA,NA,NA,NA,NA,NA,NA,NA,NA,NA,NA,NA,NA,"",NA,NA,NA
"218","","fixation","","html-keyboard-response",217,198438,"0.0-144.0",0,0,"2V2GG","People","",NA,"","",NA,"null",NA,NA,"",NA,NA,NA,NA,NA,NA,NA,"","",NA,NA,NA,NA,"",NA,NA,NA,NA,NA,NA,NA,NA,NA,NA,NA,NA,NA,NA,NA,NA,NA,NA,NA,NA,NA,NA,NA,"",NA,NA,NA
"219","","see_reward","","html-keyboard-response",218,199331,"0.0-145.0",0,0,"2V2GG","People","",0.893,"","",NA,"32",NA,16,"",10,NA,NA,NA,-1,NA,NA,"","",1,NA,NA,NA,"",0,0.893,NA,NA,NA,NA,NA,NA,NA,NA,NA,NA,NA,NA,NA,NA,NA,NA,NA,NA,NA,NA,NA,"",NA,NA,NA
"220","","reward_outcome","","html-keyboard-response",219,201335,"0.0-146.0",0,0,"2V2GG","People","",0.107,"","",NA,"38",NA,16,"",10,NA,NA,NA,NA,NA,NA,"","",NA,NA,NA,NA,"",NA,NA,1,0.107,NA,NA,NA,NA,NA,NA,NA,NA,NA,NA,NA,NA,NA,NA,NA,NA,NA,NA,NA,"",NA,NA,NA
"221","","fixation","","html-keyboard-response",220,202339,"0.0-149.0",0,0,"2V2GG","People","",NA,"","",NA,"null",NA,NA,"",NA,NA,NA,NA,NA,NA,NA,"","",NA,NA,NA,NA,"",NA,NA,NA,NA,NA,NA,NA,NA,NA,NA,NA,NA,NA,NA,NA,NA,NA,NA,NA,NA,NA,NA,NA,"",NA,NA,NA
"222","","see_reward","","html-keyboard-response",221,203144,"0.0-150.0",0,0,"2V2GG","People","",0.804,"","",NA,"32",NA,16,"",11,NA,NA,NA,-1,NA,NA,"","",1,NA,NA,NA,"",0,0.804,NA,NA,NA,NA,NA,NA,NA,NA,NA,NA,NA,NA,NA,NA,NA,NA,NA,NA,NA,NA,NA,"",NA,NA,NA
"223","","reward_outcome","","html-keyboard-response",222,205151,"0.0-151.0",0,0,"2V2GG","People","",0.11,"","",NA,"38",NA,16,"",11,NA,NA,NA,NA,NA,NA,"","",NA,NA,NA,NA,"",NA,NA,1,0.11,NA,NA,NA,NA,NA,NA,NA,NA,NA,NA,NA,NA,NA,NA,NA,NA,NA,NA,NA,"",NA,NA,NA
"224","","fixation","","html-keyboard-response",223,206157,"0.0-154.0",0,0,"2V2GG","People","",NA,"","",NA,"null",NA,NA,"",NA,NA,NA,NA,NA,NA,NA,"","",NA,NA,NA,NA,"",NA,NA,NA,NA,NA,NA,NA,NA,NA,NA,NA,NA,NA,NA,NA,NA,NA,NA,NA,NA,NA,NA,NA,"",NA,NA,NA
"225","","see_reward","","html-keyboard-response",224,206197,"0.0-155.0",0,0,"2V2GG","People","",0.039,"","",NA,"32",NA,14,"",12,NA,NA,NA,-1,NA,NA,"","",1,NA,NA,NA,"",0,0.039,NA,NA,NA,NA,NA,NA,NA,NA,NA,NA,NA,NA,NA,NA,NA,NA,NA,NA,NA,NA,NA,"",NA,NA,NA
"226","","reward_outcome","","html-keyboard-response",225,208203,"0.0-156.0",0,0,"2V2GG","People","",0.044,"","",NA,"38",NA,14,"",12,NA,NA,NA,NA,NA,NA,"","",NA,NA,NA,NA,"",NA,NA,1,0.044,NA,NA,NA,NA,NA,NA,NA,NA,NA,NA,NA,NA,NA,NA,NA,NA,NA,NA,NA,"",NA,NA,NA
"227","","fixation","","html-keyboard-response",226,209207,"0.0-159.0",0,0,"2V2GG","People","",NA,"","",NA,"null",NA,NA,"",NA,NA,NA,NA,NA,NA,NA,"","",NA,NA,NA,NA,"",NA,NA,NA,NA,NA,NA,NA,NA,NA,NA,NA,NA,NA,NA,NA,NA,NA,NA,NA,NA,NA,NA,NA,"",NA,NA,NA
"228","","see_reward","","html-keyboard-response",227,209292,"0.0-160.0",0,0,"2V2GG","People","",0.084,"","",NA,"32",NA,3,"",13,NA,NA,NA,-1,NA,NA,"","",1,NA,NA,NA,"",0,0.084,NA,NA,NA,NA,NA,NA,NA,NA,NA,NA,NA,NA,NA,NA,NA,NA,NA,NA,NA,NA,NA,"",NA,NA,NA
"229","","reward_outcome","","html-keyboard-response",228,211294,"0.0-161.0",0,0,"2V2GG","People","",0.12,"","",NA,"38",NA,3,"",13,NA,NA,NA,NA,NA,NA,"","",NA,NA,NA,NA,"",NA,NA,1,0.12,NA,NA,NA,NA,NA,NA,NA,NA,NA,NA,NA,NA,NA,NA,NA,NA,NA,NA,NA,"",NA,NA,NA
"230","","fixation","","html-keyboard-response",229,212298,"0.0-164.0",0,0,"2V2GG","People","",NA,"","",NA,"null",NA,NA,"",NA,NA,NA,NA,NA,NA,NA,"","",NA,NA,NA,NA,"",NA,NA,NA,NA,NA,NA,NA,NA,NA,NA,NA,NA,NA,NA,NA,NA,NA,NA,NA,NA,NA,NA,NA,"",NA,NA,NA
"231","","see_reward","","html-keyboard-response",230,213865,"0.0-165.0",0,0,"2V2GG","People","",1.566,"","",NA,"32",NA,27,"",14,NA,NA,NA,1,NA,NA,"","",1,NA,NA,NA,"",146,1.566,NA,NA,NA,NA,NA,NA,NA,NA,NA,NA,NA,NA,NA,NA,NA,NA,NA,NA,NA,NA,NA,"",NA,NA,NA
"232","","reward_outcome","","html-keyboard-response",231,215869,"0.0-166.0",0,0,"2V2GG","People","",0.054,"","",NA,"38",NA,27,"",14,NA,NA,NA,NA,NA,NA,"","",NA,NA,NA,NA,"",NA,NA,1,0.054,NA,NA,NA,NA,NA,NA,NA,NA,NA,NA,NA,NA,NA,NA,NA,NA,NA,NA,NA,"",NA,NA,NA
"233","","fixation","","html-keyboard-response",232,216873,"0.0-169.0",0,0,"2V2GG","People","",NA,"","",NA,"null",NA,NA,"",NA,NA,NA,NA,NA,NA,NA,"","",NA,NA,NA,NA,"",NA,NA,NA,NA,NA,NA,NA,NA,NA,NA,NA,NA,NA,NA,NA,NA,NA,NA,NA,NA,NA,NA,NA,"",NA,NA,NA
"234","","see_reward","","html-keyboard-response",233,217455,"0.0-170.0",0,0,"2V2GG","People","",0.58,"","",NA,"32",NA,21,"",15,NA,NA,NA,1,NA,NA,"","",1,NA,NA,NA,"",160,0.58,NA,NA,NA,NA,NA,NA,NA,NA,NA,NA,NA,NA,NA,NA,NA,NA,NA,NA,NA,NA,NA,"",NA,NA,NA
"235","","reward_outcome","","html-keyboard-response",234,219459,"0.0-171.0",0,0,"2V2GG","People","",0.093,"","",NA,"38",NA,21,"",15,NA,NA,NA,NA,NA,NA,"","",NA,NA,NA,NA,"",NA,NA,1,0.093,NA,NA,NA,NA,NA,NA,NA,NA,NA,NA,NA,NA,NA,NA,NA,NA,NA,NA,NA,"",NA,NA,NA
"236","","fixation","","html-keyboard-response",235,220464,"0.0-174.0",0,0,"2V2GG","People","",NA,"","",NA,"null",NA,NA,"",NA,NA,NA,NA,NA,NA,NA,"","",NA,NA,NA,NA,"",NA,NA,NA,NA,NA,NA,NA,NA,NA,NA,NA,NA,NA,NA,NA,NA,NA,NA,NA,NA,NA,NA,NA,"",NA,NA,NA
"237","","see_reward","","html-keyboard-response",236,220536,"0.0-175.0",0,0,"2V2GG","People","",0.07,"","",NA,"32",NA,18,"",16,NA,NA,NA,1,NA,NA,"","",1,NA,NA,NA,"",146,0.07,NA,NA,NA,NA,NA,NA,NA,NA,NA,NA,NA,NA,NA,NA,NA,NA,NA,NA,NA,NA,NA,"",NA,NA,NA
"238","","reward_outcome","","html-keyboard-response",237,222542,"0.0-176.0",0,0,"2V2GG","People","",0.092,"","",NA,"38",NA,18,"",16,NA,NA,NA,NA,NA,NA,"","",NA,NA,NA,NA,"",NA,NA,1,0.092,NA,NA,NA,NA,NA,NA,NA,NA,NA,NA,NA,NA,NA,NA,NA,NA,NA,NA,NA,"",NA,NA,NA
"239","","fixation","","html-keyboard-response",238,223547,"0.0-179.0",0,0,"2V2GG","People","",NA,"","",NA,"null",NA,NA,"",NA,NA,NA,NA,NA,NA,NA,"","",NA,NA,NA,NA,"",NA,NA,NA,NA,NA,NA,NA,NA,NA,NA,NA,NA,NA,NA,NA,NA,NA,NA,NA,NA,NA,NA,NA,"",NA,NA,NA
"240","","see_reward","","html-keyboard-response",239,223912,"0.0-180.0",0,0,"2V2GG","People","",0.363,"","",NA,"32",NA,14,"",17,NA,NA,NA,-1,NA,NA,"","",1,NA,NA,NA,"",0,0.363,NA,NA,NA,NA,NA,NA,NA,NA,NA,NA,NA,NA,NA,NA,NA,NA,NA,NA,NA,NA,NA,"",NA,NA,NA
"241","","reward_outcome","","html-keyboard-response",240,225915,"0.0-181.0",0,0,"2V2GG","People","",0.086,"","",NA,"38",NA,14,"",17,NA,NA,NA,NA,NA,NA,"","",NA,NA,NA,NA,"",NA,NA,1,0.086,NA,NA,NA,NA,NA,NA,NA,NA,NA,NA,NA,NA,NA,NA,NA,NA,NA,NA,NA,"",NA,NA,NA
"242","","fixation","","html-keyboard-response",241,226920,"0.0-184.0",0,0,"2V2GG","People","",NA,"","",NA,"null",NA,NA,"",NA,NA,NA,NA,NA,NA,NA,"","",NA,NA,NA,NA,"",NA,NA,NA,NA,NA,NA,NA,NA,NA,NA,NA,NA,NA,NA,NA,NA,NA,NA,NA,NA,NA,NA,NA,"",NA,NA,NA
"243","","see_reward","","html-keyboard-response",242,227641,"0.0-185.0",0,0,"2V2GG","People","",0.718,"","",NA,"32",NA,10,"",18,NA,NA,NA,1,NA,NA,"","",1,NA,NA,NA,"",150,0.718,NA,NA,NA,NA,NA,NA,NA,NA,NA,NA,NA,NA,NA,NA,NA,NA,NA,NA,NA,NA,NA,"",NA,NA,NA
"244","","reward_outcome","","html-keyboard-response",243,229645,"0.0-186.0",0,0,"2V2GG","People","",0.107,"","",NA,"38",NA,10,"",18,NA,NA,NA,NA,NA,NA,"","",NA,NA,NA,NA,"",NA,NA,1,0.107,NA,NA,NA,NA,NA,NA,NA,NA,NA,NA,NA,NA,NA,NA,NA,NA,NA,NA,NA,"",NA,NA,NA
"245","","fixation","","html-keyboard-response",244,230650,"0.0-189.0",0,0,"2V2GG","People","",NA,"","",NA,"null",NA,NA,"",NA,NA,NA,NA,NA,NA,NA,"","",NA,NA,NA,NA,"",NA,NA,NA,NA,NA,NA,NA,NA,NA,NA,NA,NA,NA,NA,NA,NA,NA,NA,NA,NA,NA,NA,NA,"",NA,NA,NA
"246","","see_reward","","html-keyboard-response",245,230960,"0.0-190.0",0,0,"2V2GG","People","",0.308,"","",NA,"32",NA,45,"",19,NA,NA,NA,-1,NA,NA,"","",1,NA,NA,NA,"",0,0.308,NA,NA,NA,NA,NA,NA,NA,NA,NA,NA,NA,NA,NA,NA,NA,NA,NA,NA,NA,NA,NA,"",NA,NA,NA
"247","","reward_outcome","","html-keyboard-response",246,232965,"0.0-191.0",0,0,"2V2GG","People","",0.072,"","",NA,"38",NA,45,"",19,NA,NA,NA,NA,NA,NA,"","",NA,NA,NA,NA,"",NA,NA,1,0.072,NA,NA,NA,NA,NA,NA,NA,NA,NA,NA,NA,NA,NA,NA,NA,NA,NA,NA,NA,"",NA,NA,NA
"248","","fixation","","html-keyboard-response",247,233968,"0.0-194.0",0,0,"2V2GG","People","",NA,"","",NA,"null",NA,NA,"",NA,NA,NA,NA,NA,NA,NA,"","",NA,NA,NA,NA,"",NA,NA,NA,NA,NA,NA,NA,NA,NA,NA,NA,NA,NA,NA,NA,NA,NA,NA,NA,NA,NA,NA,NA,"",NA,NA,NA
"249","","see_reward","","html-keyboard-response",248,233970,"0.0-195.0",0,0,"2V2GG","People","",0,"","",NA,"32",NA,0,"",20,NA,NA,NA,-1,NA,NA,"","",1,NA,NA,NA,"",0,0,NA,NA,NA,NA,NA,NA,NA,NA,NA,NA,NA,NA,NA,NA,NA,NA,NA,NA,NA,NA,NA,"",NA,NA,NA
"250","","reward_outcome","","html-keyboard-response",249,235973,"0.0-196.0",0,0,"2V2GG","People","",0.252,"","",NA,"38",NA,0,"",20,NA,NA,NA,NA,NA,NA,"","",NA,NA,NA,NA,"",NA,NA,1,0.252,NA,NA,NA,NA,NA,NA,NA,NA,NA,NA,NA,NA,NA,NA,NA,NA,NA,NA,NA,"",NA,NA,NA
"251","","fixation","","html-keyboard-response",250,236975,"0.0-199.0",0,0,"2V2GG","People","",NA,"","",NA,"null",NA,NA,"",NA,NA,NA,NA,NA,NA,NA,"","",NA,NA,NA,NA,"",NA,NA,NA,NA,NA,NA,NA,NA,NA,NA,NA,NA,NA,NA,NA,NA,NA,NA,NA,NA,NA,NA,NA,"",NA,NA,NA
"252","","see_reward","","html-keyboard-response",251,237336,"0.0-200.0",0,0,"2V2GG","People","",0.359,"","",NA,"32",NA,35,"",21,NA,NA,NA,1,NA,NA,"","",1,NA,NA,NA,"",145,0.359,NA,NA,NA,NA,NA,NA,NA,NA,NA,NA,NA,NA,NA,NA,NA,NA,NA,NA,NA,NA,NA,"",NA,NA,NA
"253","","reward_outcome","","html-keyboard-response",252,239339,"0.0-201.0",0,0,"2V2GG","People","",0.056,"","",NA,"38",NA,35,"",21,NA,NA,NA,NA,NA,NA,"","",NA,NA,NA,NA,"",NA,NA,1,0.056,NA,NA,NA,NA,NA,NA,NA,NA,NA,NA,NA,NA,NA,NA,NA,NA,NA,NA,NA,"",NA,NA,NA
"254","","fixation","","html-keyboard-response",253,240345,"0.0-204.0",0,0,"2V2GG","People","",NA,"","",NA,"null",NA,NA,"",NA,NA,NA,NA,NA,NA,NA,"","",NA,NA,NA,NA,"",NA,NA,NA,NA,NA,NA,NA,NA,NA,NA,NA,NA,NA,NA,NA,NA,NA,NA,NA,NA,NA,NA,NA,"",NA,NA,NA
"255","","see_reward","","html-keyboard-response",254,240713,"0.0-205.0",0,0,"2V2GG","People","",0.366,"","",NA,"32",NA,27,"",22,NA,NA,NA,1,NA,NA,"","",1,NA,NA,NA,"",146,0.366,NA,NA,NA,NA,NA,NA,NA,NA,NA,NA,NA,NA,NA,NA,NA,NA,NA,NA,NA,NA,NA,"",NA,NA,NA
"256","","reward_outcome","","html-keyboard-response",255,242715,"0.0-206.0",0,0,"2V2GG","People","",0.102,"","",NA,"38",NA,27,"",22,NA,NA,NA,NA,NA,NA,"","",NA,NA,NA,NA,"",NA,NA,1,0.102,NA,NA,NA,NA,NA,NA,NA,NA,NA,NA,NA,NA,NA,NA,NA,NA,NA,NA,NA,"",NA,NA,NA
"257","","fixation","","html-keyboard-response",256,243719,"0.0-209.0",0,0,"2V2GG","People","",NA,"","",NA,"null",NA,NA,"",NA,NA,NA,NA,NA,NA,NA,"","",NA,NA,NA,NA,"",NA,NA,NA,NA,NA,NA,NA,NA,NA,NA,NA,NA,NA,NA,NA,NA,NA,NA,NA,NA,NA,NA,NA,"",NA,NA,NA
"258","","see_reward","","html-keyboard-response",257,244670,"0.0-210.0",0,0,"2V2GG","People","",0.949,"","",NA,"32",NA,22,"",23,NA,NA,NA,1,NA,NA,"","",1,NA,NA,NA,"",146,0.949,NA,NA,NA,NA,NA,NA,NA,NA,NA,NA,NA,NA,NA,NA,NA,NA,NA,NA,NA,NA,NA,"",NA,NA,NA
"259","","reward_outcome","","html-keyboard-response",258,246673,"0.0-211.0",0,0,"2V2GG","People","",0.09,"","",NA,"38",NA,22,"",23,NA,NA,NA,NA,NA,NA,"","",NA,NA,NA,NA,"",NA,NA,1,0.09,NA,NA,NA,NA,NA,NA,NA,NA,NA,NA,NA,NA,NA,NA,NA,NA,NA,NA,NA,"",NA,NA,NA
"260","","block_over","","html-keyboard-response",259,257993,"0.0-213.0-0.0",0,0,"2V2GG","People","",11.319,"","",NA,"78",NA,NA,"",NA,NA,NA,NA,NA,NA,NA,"","",NA,NA,NA,NA,"",NA,NA,NA,NA,NA,NA,NA,NA,NA,NA,NA,NA,NA,NA,NA,NA,NA,NA,NA,NA,NA,NA,NA,"",NA,NA,NA
"261","","fixation","","html-keyboard-response",260,258996,"0.0-214.0",0,0,"2V2GG","People","",NA,"","",NA,"null",NA,NA,"",NA,NA,NA,NA,NA,NA,NA,"","",NA,NA,NA,NA,"",NA,NA,NA,NA,NA,NA,NA,NA,NA,NA,NA,NA,NA,NA,NA,NA,NA,NA,NA,NA,NA,NA,NA,"",NA,NA,NA
"262","","see_reward","","html-keyboard-response",261,259359,"0.0-215.0",0,0,"2V2GG","People","",0.361,"","",NA,"32",NA,27,"",24,NA,NA,NA,1,NA,NA,"","",2,NA,NA,NA,"",146,0.361,NA,NA,NA,NA,NA,NA,NA,NA,NA,NA,NA,NA,NA,NA,NA,NA,NA,NA,NA,NA,NA,"",NA,NA,NA
"263","","reward_outcome","","html-keyboard-response",262,261362,"0.0-216.0",0,0,"2V2GG","People","",0.065,"","",NA,"38",NA,27,"",24,NA,NA,NA,NA,NA,NA,"","",NA,NA,NA,NA,"",NA,NA,1,0.065,NA,NA,NA,NA,NA,NA,NA,NA,NA,NA,NA,NA,NA,NA,NA,NA,NA,NA,NA,"",NA,NA,NA
"264","","fixation","","html-keyboard-response",263,262366,"0.0-219.0",0,0,"2V2GG","People","",NA,"","",NA,"null",NA,NA,"",NA,NA,NA,NA,NA,NA,NA,"","",NA,NA,NA,NA,"",NA,NA,NA,NA,NA,NA,NA,NA,NA,NA,NA,NA,NA,NA,NA,NA,NA,NA,NA,NA,NA,NA,NA,"",NA,NA,NA
"265","","see_reward","","html-keyboard-response",264,262906,"0.0-220.0",0,0,"2V2GG","People","",0.538,"","",NA,"32",NA,45,"",25,NA,NA,NA,-1,NA,NA,"","",2,NA,NA,NA,"",0,0.538,NA,NA,NA,NA,NA,NA,NA,NA,NA,NA,NA,NA,NA,NA,NA,NA,NA,NA,NA,NA,NA,"",NA,NA,NA
"266","","reward_outcome","","html-keyboard-response",265,264910,"0.0-221.0",0,0,"2V2GG","People","",0.063,"","",NA,"38",NA,45,"",25,NA,NA,NA,NA,NA,NA,"","",NA,NA,NA,NA,"",NA,NA,1,0.063,NA,NA,NA,NA,NA,NA,NA,NA,NA,NA,NA,NA,NA,NA,NA,NA,NA,NA,NA,"",NA,NA,NA
"267","","fixation","","html-keyboard-response",266,265913,"0.0-224.0",0,0,"2V2GG","People","",NA,"","",NA,"null",NA,NA,"",NA,NA,NA,NA,NA,NA,NA,"","",NA,NA,NA,NA,"",NA,NA,NA,NA,NA,NA,NA,NA,NA,NA,NA,NA,NA,NA,NA,NA,NA,NA,NA,NA,NA,NA,NA,"",NA,NA,NA
"268","","see_reward","","html-keyboard-response",267,267093,"0.0-225.0",0,0,"2V2GG","People","",1.179,"","",NA,"32",NA,18,"",26,NA,NA,NA,1,NA,NA,"","",2,NA,NA,NA,"",146,1.179,NA,NA,NA,NA,NA,NA,NA,NA,NA,NA,NA,NA,NA,NA,NA,NA,NA,NA,NA,NA,NA,"",NA,NA,NA
"269","","reward_outcome","","html-keyboard-response",268,269100,"0.0-226.0",0,0,"2V2GG","People","",0.066,"","",NA,"38",NA,18,"",26,NA,NA,NA,NA,NA,NA,"","",NA,NA,NA,NA,"",NA,NA,1,0.066,NA,NA,NA,NA,NA,NA,NA,NA,NA,NA,NA,NA,NA,NA,NA,NA,NA,NA,NA,"",NA,NA,NA
"270","","fixation","","html-keyboard-response",269,270107,"0.0-229.0",0,0,"2V2GG","People","",NA,"","",NA,"null",NA,NA,"",NA,NA,NA,NA,NA,NA,NA,"","",NA,NA,NA,NA,"",NA,NA,NA,NA,NA,NA,NA,NA,NA,NA,NA,NA,NA,NA,NA,NA,NA,NA,NA,NA,NA,NA,NA,"",NA,NA,NA
"271","","see_reward","","html-keyboard-response",270,270250,"0.0-230.0",0,0,"2V2GG","People","",0.141,"","",NA,"32",NA,22,"",27,NA,NA,NA,1,NA,NA,"","",2,NA,NA,NA,"",146,0.141,NA,NA,NA,NA,NA,NA,NA,NA,NA,NA,NA,NA,NA,NA,NA,NA,NA,NA,NA,NA,NA,"",NA,NA,NA
"272","","reward_outcome","","html-keyboard-response",271,272257,"0.0-231.0",0,0,"2V2GG","People","",0.295,"","",NA,"38",NA,22,"",27,NA,NA,NA,NA,NA,NA,"","",NA,NA,NA,NA,"",NA,NA,1,0.295,NA,NA,NA,NA,NA,NA,NA,NA,NA,NA,NA,NA,NA,NA,NA,NA,NA,NA,NA,"",NA,NA,NA
"273","","fixation","","html-keyboard-response",272,273265,"0.0-234.0",0,0,"2V2GG","People","",NA,"","",NA,"null",NA,NA,"",NA,NA,NA,NA,NA,NA,NA,"","",NA,NA,NA,NA,"",NA,NA,NA,NA,NA,NA,NA,NA,NA,NA,NA,NA,NA,NA,NA,NA,NA,NA,NA,NA,NA,NA,NA,"",NA,NA,NA
"274","","see_reward","","html-keyboard-response",273,273593,"0.0-235.0",0,0,"2V2GG","People","",0.326,"","",NA,"32",NA,3,"",28,NA,NA,NA,-1,NA,NA,"","",2,NA,NA,NA,"",0,0.326,NA,NA,NA,NA,NA,NA,NA,NA,NA,NA,NA,NA,NA,NA,NA,NA,NA,NA,NA,NA,NA,"",NA,NA,NA
"275","","reward_outcome","","html-keyboard-response",274,275595,"0.0-236.0",0,0,"2V2GG","People","",0.079,"","",NA,"38",NA,3,"",28,NA,NA,NA,NA,NA,NA,"","",NA,NA,NA,NA,"",NA,NA,1,0.079,NA,NA,NA,NA,NA,NA,NA,NA,NA,NA,NA,NA,NA,NA,NA,NA,NA,NA,NA,"",NA,NA,NA
"276","","fixation","","html-keyboard-response",275,276602,"0.0-239.0",0,0,"2V2GG","People","",NA,"","",NA,"null",NA,NA,"",NA,NA,NA,NA,NA,NA,NA,"","",NA,NA,NA,NA,"",NA,NA,NA,NA,NA,NA,NA,NA,NA,NA,NA,NA,NA,NA,NA,NA,NA,NA,NA,NA,NA,NA,NA,"",NA,NA,NA
"277","","see_reward","","html-keyboard-response",276,276813,"0.0-240.0",0,0,"2V2GG","People","",0.21,"","",NA,"32",NA,16,"",29,NA,NA,NA,-1,NA,NA,"","",2,NA,NA,NA,"",0,0.21,NA,NA,NA,NA,NA,NA,NA,NA,NA,NA,NA,NA,NA,NA,NA,NA,NA,NA,NA,NA,NA,"",NA,NA,NA
"278","","reward_outcome","","html-keyboard-response",277,278818,"0.0-241.0",0,0,"2V2GG","People","",0.13,"","",NA,"38",NA,16,"",29,NA,NA,NA,NA,NA,NA,"","",NA,NA,NA,NA,"",NA,NA,1,0.13,NA,NA,NA,NA,NA,NA,NA,NA,NA,NA,NA,NA,NA,NA,NA,NA,NA,NA,NA,"",NA,NA,NA
"279","","fixation","","html-keyboard-response",278,279825,"0.0-244.0",0,0,"2V2GG","People","",NA,"","",NA,"null",NA,NA,"",NA,NA,NA,NA,NA,NA,NA,"","",NA,NA,NA,NA,"",NA,NA,NA,NA,NA,NA,NA,NA,NA,NA,NA,NA,NA,NA,NA,NA,NA,NA,NA,NA,NA,NA,NA,"",NA,NA,NA
"280","","see_reward","","html-keyboard-response",279,280914,"0.0-245.0",0,0,"2V2GG","People","",1.087,"","",NA,"32",NA,35,"",30,NA,NA,NA,1,NA,NA,"","",2,NA,NA,NA,"",145,1.087,NA,NA,NA,NA,NA,NA,NA,NA,NA,NA,NA,NA,NA,NA,NA,NA,NA,NA,NA,NA,NA,"",NA,NA,NA
"281","","reward_outcome","","html-keyboard-response",280,282917,"0.0-246.0",0,0,"2V2GG","People","",0.095,"","",NA,"38",NA,35,"",30,NA,NA,NA,NA,NA,NA,"","",NA,NA,NA,NA,"",NA,NA,1,0.095,NA,NA,NA,NA,NA,NA,NA,NA,NA,NA,NA,NA,NA,NA,NA,NA,NA,NA,NA,"",NA,NA,NA
"282","","fixation","","html-keyboard-response",281,283923,"0.0-249.0",0,0,"2V2GG","People","",NA,"","",NA,"null",NA,NA,"",NA,NA,NA,NA,NA,NA,NA,"","",NA,NA,NA,NA,"",NA,NA,NA,NA,NA,NA,NA,NA,NA,NA,NA,NA,NA,NA,NA,NA,NA,NA,NA,NA,NA,NA,NA,"",NA,NA,NA
"283","","see_reward","","html-keyboard-response",282,284315,"0.0-250.0",0,0,"2V2GG","People","",0.39,"","",NA,"32",NA,45,"",31,NA,NA,NA,-1,NA,NA,"","",2,NA,NA,NA,"",0,0.39,NA,NA,NA,NA,NA,NA,NA,NA,NA,NA,NA,NA,NA,NA,NA,NA,NA,NA,NA,NA,NA,"",NA,NA,NA
"284","","reward_outcome","","html-keyboard-response",283,286320,"0.0-251.0",0,0,"2V2GG","People","",0.053,"","",NA,"38",NA,45,"",31,NA,NA,NA,NA,NA,NA,"","",NA,NA,NA,NA,"",NA,NA,1,0.053,NA,NA,NA,NA,NA,NA,NA,NA,NA,NA,NA,NA,NA,NA,NA,NA,NA,NA,NA,"",NA,NA,NA
"285","","fixation","","html-keyboard-response",284,287326,"0.0-254.0",0,0,"2V2GG","People","",NA,"","",NA,"null",NA,NA,"",NA,NA,NA,NA,NA,NA,NA,"","",NA,NA,NA,NA,"",NA,NA,NA,NA,NA,NA,NA,NA,NA,NA,NA,NA,NA,NA,NA,NA,NA,NA,NA,NA,NA,NA,NA,"",NA,NA,NA
"286","","see_reward","","html-keyboard-response",285,287698,"0.0-255.0",0,0,"2V2GG","People","",0.37,"","",NA,"32",NA,21,"",32,NA,NA,NA,1,NA,NA,"","",2,NA,NA,NA,"",160,0.37,NA,NA,NA,NA,NA,NA,NA,NA,NA,NA,NA,NA,NA,NA,NA,NA,NA,NA,NA,NA,NA,"",NA,NA,NA
"287","","reward_outcome","","html-keyboard-response",286,289702,"0.0-256.0",0,0,"2V2GG","People","",0.036,"","",NA,"38",NA,21,"",32,NA,NA,NA,NA,NA,NA,"","",NA,NA,NA,NA,"",NA,NA,1,0.036,NA,NA,NA,NA,NA,NA,NA,NA,NA,NA,NA,NA,NA,NA,NA,NA,NA,NA,NA,"",NA,NA,NA
"288","","fixation","","html-keyboard-response",287,290709,"0.0-259.0",0,0,"2V2GG","People","",NA,"","",NA,"null",NA,NA,"",NA,NA,NA,NA,NA,NA,NA,"","",NA,NA,NA,NA,"",NA,NA,NA,NA,NA,NA,NA,NA,NA,NA,NA,NA,NA,NA,NA,NA,NA,NA,NA,NA,NA,NA,NA,"",NA,NA,NA
"289","","see_reward","","html-keyboard-response",288,290724,"0.0-260.0",0,0,"2V2GG","People","",0.013,"","",NA,"32",NA,21,"",33,NA,NA,NA,1,NA,NA,"","",2,NA,NA,NA,"",160,0.013,NA,NA,NA,NA,NA,NA,NA,NA,NA,NA,NA,NA,NA,NA,NA,NA,NA,NA,NA,NA,NA,"",NA,NA,NA
"290","","reward_outcome","","html-keyboard-response",289,292728,"0.0-261.0",0,0,"2V2GG","People","",0.069,"","",NA,"38",NA,21,"",33,NA,NA,NA,NA,NA,NA,"","",NA,NA,NA,NA,"",NA,NA,1,0.069,NA,NA,NA,NA,NA,NA,NA,NA,NA,NA,NA,NA,NA,NA,NA,NA,NA,NA,NA,"",NA,NA,NA
"291","","fixation","","html-keyboard-response",290,293734,"0.0-264.0",0,0,"2V2GG","People","",NA,"","",NA,"null",NA,NA,"",NA,NA,NA,NA,NA,NA,NA,"","",NA,NA,NA,NA,"",NA,NA,NA,NA,NA,NA,NA,NA,NA,NA,NA,NA,NA,NA,NA,NA,NA,NA,NA,NA,NA,NA,NA,"",NA,NA,NA
"292","","see_reward","","html-keyboard-response",291,294690,"0.0-265.0",0,0,"2V2GG","People","",0.954,"","",NA,"32",NA,22,"",34,NA,NA,NA,1,NA,NA,"","",2,NA,NA,NA,"",146,0.954,NA,NA,NA,NA,NA,NA,NA,NA,NA,NA,NA,NA,NA,NA,NA,NA,NA,NA,NA,NA,NA,"",NA,NA,NA
"293","","reward_outcome","","html-keyboard-response",292,296696,"0.0-266.0",0,0,"2V2GG","People","",0.035,"","",NA,"38",NA,22,"",34,NA,NA,NA,NA,NA,NA,"","",NA,NA,NA,NA,"",NA,NA,1,0.035,NA,NA,NA,NA,NA,NA,NA,NA,NA,NA,NA,NA,NA,NA,NA,NA,NA,NA,NA,"",NA,NA,NA
"294","","fixation","","html-keyboard-response",293,297703,"0.0-269.0",0,0,"2V2GG","People","",NA,"","",NA,"null",NA,NA,"",NA,NA,NA,NA,NA,NA,NA,"","",NA,NA,NA,NA,"",NA,NA,NA,NA,NA,NA,NA,NA,NA,NA,NA,NA,NA,NA,NA,NA,NA,NA,NA,NA,NA,NA,NA,"",NA,NA,NA
"295","","see_reward","","html-keyboard-response",294,300018,"0.0-270.0",0,0,"2V2GG","People","",2.313,"","",NA,"32",NA,14,"",35,NA,NA,NA,-1,NA,NA,"","",2,NA,NA,NA,"",0,2.313,NA,NA,NA,NA,NA,NA,NA,NA,NA,NA,NA,NA,NA,NA,NA,NA,NA,NA,NA,NA,NA,"",NA,NA,NA
"296","","reward_outcome","","html-keyboard-response",295,302020,"0.0-271.0",0,0,"2V2GG","People","",0.035,"","",NA,"38",NA,14,"",35,NA,NA,NA,NA,NA,NA,"","",NA,NA,NA,NA,"",NA,NA,1,0.035,NA,NA,NA,NA,NA,NA,NA,NA,NA,NA,NA,NA,NA,NA,NA,NA,NA,NA,NA,"",NA,NA,NA
"297","","fixation","","html-keyboard-response",296,303023,"0.0-274.0",0,0,"2V2GG","People","",NA,"","",NA,"null",NA,NA,"",NA,NA,NA,NA,NA,NA,NA,"","",NA,NA,NA,NA,"",NA,NA,NA,NA,NA,NA,NA,NA,NA,NA,NA,NA,NA,NA,NA,NA,NA,NA,NA,NA,NA,NA,NA,"",NA,NA,NA
"298","","see_reward","","html-keyboard-response",297,303706,"0.0-275.0",0,0,"2V2GG","People","",0.682,"","",NA,"32",NA,14,"",36,NA,NA,NA,-1,NA,NA,"","",2,NA,NA,NA,"",0,0.682,NA,NA,NA,NA,NA,NA,NA,NA,NA,NA,NA,NA,NA,NA,NA,NA,NA,NA,NA,NA,NA,"",NA,NA,NA
"299","","reward_outcome","","html-keyboard-response",298,305714,"0.0-276.0",0,0,"2V2GG","People","",0.063,"","",NA,"38",NA,14,"",36,NA,NA,NA,NA,NA,NA,"","",NA,NA,NA,NA,"",NA,NA,1,0.063,NA,NA,NA,NA,NA,NA,NA,NA,NA,NA,NA,NA,NA,NA,NA,NA,NA,NA,NA,"",NA,NA,NA
"300","","fixation","","html-keyboard-response",299,306722,"0.0-279.0",0,0,"2V2GG","People","",NA,"","",NA,"null",NA,NA,"",NA,NA,NA,NA,NA,NA,NA,"","",NA,NA,NA,NA,"",NA,NA,NA,NA,NA,NA,NA,NA,NA,NA,NA,NA,NA,NA,NA,NA,NA,NA,NA,NA,NA,NA,NA,"",NA,NA,NA
"301","","see_reward","","html-keyboard-response",300,306987,"0.0-280.0",0,0,"2V2GG","People","",0.263,"","",NA,"32",NA,0,"",37,NA,NA,NA,-1,NA,NA,"","",2,NA,NA,NA,"",0,0.263,NA,NA,NA,NA,NA,NA,NA,NA,NA,NA,NA,NA,NA,NA,NA,NA,NA,NA,NA,NA,NA,"",NA,NA,NA
"302","","reward_outcome","","html-keyboard-response",301,308989,"0.0-281.0",0,0,"2V2GG","People","",0.067,"","",NA,"38",NA,0,"",37,NA,NA,NA,NA,NA,NA,"","",NA,NA,NA,NA,"",NA,NA,1,0.067,NA,NA,NA,NA,NA,NA,NA,NA,NA,NA,NA,NA,NA,NA,NA,NA,NA,NA,NA,"",NA,NA,NA
"303","","fixation","","html-keyboard-response",302,309994,"0.0-284.0",0,0,"2V2GG","People","",NA,"","",NA,"null",NA,NA,"",NA,NA,NA,NA,NA,NA,NA,"","",NA,NA,NA,NA,"",NA,NA,NA,NA,NA,NA,NA,NA,NA,NA,NA,NA,NA,NA,NA,NA,NA,NA,NA,NA,NA,NA,NA,"",NA,NA,NA
"304","","see_reward","","html-keyboard-response",303,310739,"0.0-285.0",0,0,"2V2GG","People","",0.743,"","",NA,"32",NA,10,"",38,NA,NA,NA,1,NA,NA,"","",2,NA,NA,NA,"",150,0.743,NA,NA,NA,NA,NA,NA,NA,NA,NA,NA,NA,NA,NA,NA,NA,NA,NA,NA,NA,NA,NA,"",NA,NA,NA
"305","","reward_outcome","","html-keyboard-response",304,312743,"0.0-286.0",0,0,"2V2GG","People","",0.054,"","",NA,"38",NA,10,"",38,NA,NA,NA,NA,NA,NA,"","",NA,NA,NA,NA,"",NA,NA,1,0.054,NA,NA,NA,NA,NA,NA,NA,NA,NA,NA,NA,NA,NA,NA,NA,NA,NA,NA,NA,"",NA,NA,NA
"306","","fixation","","html-keyboard-response",305,313746,"0.0-289.0",0,0,"2V2GG","People","",NA,"","",NA,"null",NA,NA,"",NA,NA,NA,NA,NA,NA,NA,"","",NA,NA,NA,NA,"",NA,NA,NA,NA,NA,NA,NA,NA,NA,NA,NA,NA,NA,NA,NA,NA,NA,NA,NA,NA,NA,NA,NA,"",NA,NA,NA
"307","","see_reward","","html-keyboard-response",306,313890,"0.0-290.0",0,0,"2V2GG","People","",0.142,"","",NA,"32",NA,27,"",39,NA,NA,NA,1,NA,NA,"","",2,NA,NA,NA,"",146,0.142,NA,NA,NA,NA,NA,NA,NA,NA,NA,NA,NA,NA,NA,NA,NA,NA,NA,NA,NA,NA,NA,"",NA,NA,NA
"308","","reward_outcome","","html-keyboard-response",307,315896,"0.0-291.0",0,0,"2V2GG","People","",0.055,"","",NA,"38",NA,27,"",39,NA,NA,NA,NA,NA,NA,"","",NA,NA,NA,NA,"",NA,NA,1,0.055,NA,NA,NA,NA,NA,NA,NA,NA,NA,NA,NA,NA,NA,NA,NA,NA,NA,NA,NA,"",NA,NA,NA
"309","","fixation","","html-keyboard-response",308,316901,"0.0-294.0",0,0,"2V2GG","People","",NA,"","",NA,"null",NA,NA,"",NA,NA,NA,NA,NA,NA,NA,"","",NA,NA,NA,NA,"",NA,NA,NA,NA,NA,NA,NA,NA,NA,NA,NA,NA,NA,NA,NA,NA,NA,NA,NA,NA,NA,NA,NA,"",NA,NA,NA
"310","","see_reward","","html-keyboard-response",309,318395,"0.0-295.0",0,0,"2V2GG","People","",1.492,"","",NA,"32",NA,0,"",40,NA,NA,NA,-1,NA,NA,"","",2,NA,NA,NA,"",0,1.492,NA,NA,NA,NA,NA,NA,NA,NA,NA,NA,NA,NA,NA,NA,NA,NA,NA,NA,NA,NA,NA,"",NA,NA,NA
"311","","reward_outcome","","html-keyboard-response",310,320402,"0.0-296.0",0,0,"2V2GG","People","",0.07,"","",NA,"38",NA,0,"",40,NA,NA,NA,NA,NA,NA,"","",NA,NA,NA,NA,"",NA,NA,1,0.07,NA,NA,NA,NA,NA,NA,NA,NA,NA,NA,NA,NA,NA,NA,NA,NA,NA,NA,NA,"",NA,NA,NA
"312","","fixation","","html-keyboard-response",311,321405,"0.0-299.0",0,0,"2V2GG","People","",NA,"","",NA,"null",NA,NA,"",NA,NA,NA,NA,NA,NA,NA,"","",NA,NA,NA,NA,"",NA,NA,NA,NA,NA,NA,NA,NA,NA,NA,NA,NA,NA,NA,NA,NA,NA,NA,NA,NA,NA,NA,NA,"",NA,NA,NA
"313","","see_reward","","html-keyboard-response",312,321467,"0.0-300.0",0,0,"2V2GG","People","",0.06,"","",NA,"32",NA,3,"",41,NA,NA,NA,-1,NA,NA,"","",2,NA,NA,NA,"",0,0.06,NA,NA,NA,NA,NA,NA,NA,NA,NA,NA,NA,NA,NA,NA,NA,NA,NA,NA,NA,NA,NA,"",NA,NA,NA
"314","","reward_outcome","","html-keyboard-response",313,323473,"0.0-301.0",0,0,"2V2GG","People","",0.061,"","",NA,"38",NA,3,"",41,NA,NA,NA,NA,NA,NA,"","",NA,NA,NA,NA,"",NA,NA,1,0.061,NA,NA,NA,NA,NA,NA,NA,NA,NA,NA,NA,NA,NA,NA,NA,NA,NA,NA,NA,"",NA,NA,NA
"315","","fixation","","html-keyboard-response",314,324480,"0.0-304.0",0,0,"2V2GG","People","",NA,"","",NA,"null",NA,NA,"",NA,NA,NA,NA,NA,NA,NA,"","",NA,NA,NA,NA,"",NA,NA,NA,NA,NA,NA,NA,NA,NA,NA,NA,NA,NA,NA,NA,NA,NA,NA,NA,NA,NA,NA,NA,"",NA,NA,NA
"316","","see_reward","","html-keyboard-response",315,324684,"0.0-305.0",0,0,"2V2GG","People","",0.202,"","",NA,"32",NA,41,"",42,NA,NA,NA,-1,NA,NA,"","",2,NA,NA,NA,"",0,0.202,NA,NA,NA,NA,NA,NA,NA,NA,NA,NA,NA,NA,NA,NA,NA,NA,NA,NA,NA,NA,NA,"",NA,NA,NA
"317","","reward_outcome","","html-keyboard-response",316,326690,"0.0-306.0",0,0,"2V2GG","People","",0.042,"","",NA,"38",NA,41,"",42,NA,NA,NA,NA,NA,NA,"","",NA,NA,NA,NA,"",NA,NA,1,0.042,NA,NA,NA,NA,NA,NA,NA,NA,NA,NA,NA,NA,NA,NA,NA,NA,NA,NA,NA,"",NA,NA,NA
"318","","fixation","","html-keyboard-response",317,327696,"0.0-309.0",0,0,"2V2GG","People","",NA,"","",NA,"null",NA,NA,"",NA,NA,NA,NA,NA,NA,NA,"","",NA,NA,NA,NA,"",NA,NA,NA,NA,NA,NA,NA,NA,NA,NA,NA,NA,NA,NA,NA,NA,NA,NA,NA,NA,NA,NA,NA,"",NA,NA,NA
"319","","see_reward","","html-keyboard-response",318,328219,"0.0-310.0",0,0,"2V2GG","People","",0.52,"","",NA,"32",NA,16,"",43,NA,NA,NA,-1,NA,NA,"","",2,NA,NA,NA,"",0,0.52,NA,NA,NA,NA,NA,NA,NA,NA,NA,NA,NA,NA,NA,NA,NA,NA,NA,NA,NA,NA,NA,"",NA,NA,NA
"320","","reward_outcome","","html-keyboard-response",319,330225,"0.0-311.0",0,0,"2V2GG","People","",0.03,"","",NA,"38",NA,16,"",43,NA,NA,NA,NA,NA,NA,"","",NA,NA,NA,NA,"",NA,NA,1,0.03,NA,NA,NA,NA,NA,NA,NA,NA,NA,NA,NA,NA,NA,NA,NA,NA,NA,NA,NA,"",NA,NA,NA
"321","","fixation","","html-keyboard-response",320,331228,"0.0-314.0",0,0,"2V2GG","People","",NA,"","",NA,"null",NA,NA,"",NA,NA,NA,NA,NA,NA,NA,"","",NA,NA,NA,NA,"",NA,NA,NA,NA,NA,NA,NA,NA,NA,NA,NA,NA,NA,NA,NA,NA,NA,NA,NA,NA,NA,NA,NA,"",NA,NA,NA
"322","","see_reward","","html-keyboard-response",321,331972,"0.0-315.0",0,0,"2V2GG","People","",0.742,"","",NA,"32",NA,18,"",44,NA,NA,NA,1,NA,NA,"","",2,NA,NA,NA,"",146,0.742,NA,NA,NA,NA,NA,NA,NA,NA,NA,NA,NA,NA,NA,NA,NA,NA,NA,NA,NA,NA,NA,"",NA,NA,NA
"323","","reward_outcome","","html-keyboard-response",322,333977,"0.0-316.0",0,0,"2V2GG","People","",0.035,"","",NA,"38",NA,18,"",44,NA,NA,NA,NA,NA,NA,"","",NA,NA,NA,NA,"",NA,NA,1,0.035,NA,NA,NA,NA,NA,NA,NA,NA,NA,NA,NA,NA,NA,NA,NA,NA,NA,NA,NA,"",NA,NA,NA
"324","","fixation","","html-keyboard-response",323,334981,"0.0-319.0",0,0,"2V2GG","People","",NA,"","",NA,"null",NA,NA,"",NA,NA,NA,NA,NA,NA,NA,"","",NA,NA,NA,NA,"",NA,NA,NA,NA,NA,NA,NA,NA,NA,NA,NA,NA,NA,NA,NA,NA,NA,NA,NA,NA,NA,NA,NA,"",NA,NA,NA
"325","","see_reward","","html-keyboard-response",324,336172,"0.0-320.0",0,0,"2V2GG","People","",1.189,"","",NA,"32",NA,10,"",45,NA,NA,NA,1,NA,NA,"","",2,NA,NA,NA,"",150,1.189,NA,NA,NA,NA,NA,NA,NA,NA,NA,NA,NA,NA,NA,NA,NA,NA,NA,NA,NA,NA,NA,"",NA,NA,NA
"326","","reward_outcome","","html-keyboard-response",325,338177,"0.0-321.0",0,0,"2V2GG","People","",0.054,"","",NA,"38",NA,10,"",45,NA,NA,NA,NA,NA,NA,"","",NA,NA,NA,NA,"",NA,NA,1,0.054,NA,NA,NA,NA,NA,NA,NA,NA,NA,NA,NA,NA,NA,NA,NA,NA,NA,NA,NA,"",NA,NA,NA
"327","","fixation","","html-keyboard-response",326,339182,"0.0-324.0",0,0,"2V2GG","People","",NA,"","",NA,"null",NA,NA,"",NA,NA,NA,NA,NA,NA,NA,"","",NA,NA,NA,NA,"",NA,NA,NA,NA,NA,NA,NA,NA,NA,NA,NA,NA,NA,NA,NA,NA,NA,NA,NA,NA,NA,NA,NA,"",NA,NA,NA
"328","","see_reward","","html-keyboard-response",327,339700,"0.0-325.0",0,0,"2V2GG","People","",0.516,"","",NA,"32",NA,41,"",46,NA,NA,NA,-1,NA,NA,"","",2,NA,NA,NA,"",0,0.516,NA,NA,NA,NA,NA,NA,NA,NA,NA,NA,NA,NA,NA,NA,NA,NA,NA,NA,NA,NA,NA,"",NA,NA,NA
"329","","reward_outcome","","html-keyboard-response",328,341707,"0.0-326.0",0,0,"2V2GG","People","",0.026,"","",NA,"38",NA,41,"",46,NA,NA,NA,NA,NA,NA,"","",NA,NA,NA,NA,"",NA,NA,1,0.026,NA,NA,NA,NA,NA,NA,NA,NA,NA,NA,NA,NA,NA,NA,NA,NA,NA,NA,NA,"",NA,NA,NA
"330","","fixation","","html-keyboard-response",329,342713,"0.0-329.0",0,0,"2V2GG","People","",NA,"","",NA,"null",NA,NA,"",NA,NA,NA,NA,NA,NA,NA,"","",NA,NA,NA,NA,"",NA,NA,NA,NA,NA,NA,NA,NA,NA,NA,NA,NA,NA,NA,NA,NA,NA,NA,NA,NA,NA,NA,NA,"",NA,NA,NA
"331","","see_reward","","html-keyboard-response",330,342922,"0.0-330.0",0,0,"2V2GG","People","",0.208,"","",NA,"32",NA,35,"",47,NA,NA,NA,1,NA,NA,"","",2,NA,NA,NA,"",145,0.208,NA,NA,NA,NA,NA,NA,NA,NA,NA,NA,NA,NA,NA,NA,NA,NA,NA,NA,NA,NA,NA,"",NA,NA,NA
"332","","reward_outcome","","html-keyboard-response",331,344930,"0.0-331.0",0,0,"2V2GG","People","",0.046,"","",NA,"38",NA,35,"",47,NA,NA,NA,NA,NA,NA,"","",NA,NA,NA,NA,"",NA,NA,1,0.046,NA,NA,NA,NA,NA,NA,NA,NA,NA,NA,NA,NA,NA,NA,NA,NA,NA,NA,NA,"",NA,NA,NA
"333","","block_over","","html-keyboard-response",332,347171,"0.0-333.0-0.0",0,0,"2V2GG","People","",2.238,"","",NA,"78",NA,NA,"",NA,NA,NA,NA,NA,NA,NA,"","",NA,NA,NA,NA,"",NA,NA,NA,NA,NA,NA,NA,NA,NA,NA,NA,NA,NA,NA,NA,NA,NA,NA,NA,NA,NA,NA,NA,"",NA,NA,NA
"334","","fixation","","html-keyboard-response",333,348176,"0.0-334.0",0,0,"2V2GG","People","",NA,"","",NA,"null",NA,NA,"",NA,NA,NA,NA,NA,NA,NA,"","",NA,NA,NA,NA,"",NA,NA,NA,NA,NA,NA,NA,NA,NA,NA,NA,NA,NA,NA,NA,NA,NA,NA,NA,NA,NA,NA,NA,"",NA,NA,NA
"335","","see_reward","","html-keyboard-response",334,348459,"0.0-335.0",0,0,"2V2GG","People","",0.28,"","",NA,"32",NA,18,"",48,NA,NA,NA,1,NA,NA,"","",3,NA,NA,NA,"",146,0.28,NA,NA,NA,NA,NA,NA,NA,NA,NA,NA,NA,NA,NA,NA,NA,NA,NA,NA,NA,NA,NA,"",NA,NA,NA
"336","","reward_outcome","","html-keyboard-response",335,350461,"0.0-336.0",0,0,"2V2GG","People","",0.037,"","",NA,"38",NA,18,"",48,NA,NA,NA,NA,NA,NA,"","",NA,NA,NA,NA,"",NA,NA,1,0.037,NA,NA,NA,NA,NA,NA,NA,NA,NA,NA,NA,NA,NA,NA,NA,NA,NA,NA,NA,"",NA,NA,NA
"337","","fixation","","html-keyboard-response",336,351464,"0.0-339.0",0,0,"2V2GG","People","",NA,"","",NA,"null",NA,NA,"",NA,NA,NA,NA,NA,NA,NA,"","",NA,NA,NA,NA,"",NA,NA,NA,NA,NA,NA,NA,NA,NA,NA,NA,NA,NA,NA,NA,NA,NA,NA,NA,NA,NA,NA,NA,"",NA,NA,NA
"338","","see_reward","","html-keyboard-response",337,352460,"0.0-340.0",0,0,"2V2GG","People","",0.994,"","",NA,"32",NA,35,"",49,NA,NA,NA,1,NA,NA,"","",3,NA,NA,NA,"",145,0.994,NA,NA,NA,NA,NA,NA,NA,NA,NA,NA,NA,NA,NA,NA,NA,NA,NA,NA,NA,NA,NA,"",NA,NA,NA
"339","","reward_outcome","","html-keyboard-response",338,354466,"0.0-341.0",0,0,"2V2GG","People","",0.046,"","",NA,"38",NA,35,"",49,NA,NA,NA,NA,NA,NA,"","",NA,NA,NA,NA,"",NA,NA,1,0.046,NA,NA,NA,NA,NA,NA,NA,NA,NA,NA,NA,NA,NA,NA,NA,NA,NA,NA,NA,"",NA,NA,NA
"340","","fixation","","html-keyboard-response",339,355468,"0.0-344.0",0,0,"2V2GG","People","",NA,"","",NA,"null",NA,NA,"",NA,NA,NA,NA,NA,NA,NA,"","",NA,NA,NA,NA,"",NA,NA,NA,NA,NA,NA,NA,NA,NA,NA,NA,NA,NA,NA,NA,NA,NA,NA,NA,NA,NA,NA,NA,"",NA,NA,NA
"341","","see_reward","","html-keyboard-response",340,355641,"0.0-345.0",0,0,"2V2GG","People","",0.171,"","",NA,"32",NA,22,"",50,NA,NA,NA,1,NA,NA,"","",3,NA,NA,NA,"",146,0.171,NA,NA,NA,NA,NA,NA,NA,NA,NA,NA,NA,NA,NA,NA,NA,NA,NA,NA,NA,NA,NA,"",NA,NA,NA
"342","","reward_outcome","","html-keyboard-response",341,357645,"0.0-346.0",0,0,"2V2GG","People","",0.027,"","",NA,"38",NA,22,"",50,NA,NA,NA,NA,NA,NA,"","",NA,NA,NA,NA,"",NA,NA,1,0.027,NA,NA,NA,NA,NA,NA,NA,NA,NA,NA,NA,NA,NA,NA,NA,NA,NA,NA,NA,"",NA,NA,NA
"343","","fixation","","html-keyboard-response",342,358649,"0.0-349.0",0,0,"2V2GG","People","",NA,"","",NA,"null",NA,NA,"",NA,NA,NA,NA,NA,NA,NA,"","",NA,NA,NA,NA,"",NA,NA,NA,NA,NA,NA,NA,NA,NA,NA,NA,NA,NA,NA,NA,NA,NA,NA,NA,NA,NA,NA,NA,"",NA,NA,NA
"344","","see_reward","","html-keyboard-response",343,359620,"0.0-350.0",0,0,"2V2GG","People","",0.969,"","",NA,"32",NA,35,"",51,NA,NA,NA,1,NA,NA,"","",3,NA,NA,NA,"",145,0.969,NA,NA,NA,NA,NA,NA,NA,NA,NA,NA,NA,NA,NA,NA,NA,NA,NA,NA,NA,NA,NA,"",NA,NA,NA
"345","","reward_outcome","","html-keyboard-response",344,361622,"0.0-351.0",0,0,"2V2GG","People","",0.063,"","",NA,"38",NA,35,"",51,NA,NA,NA,NA,NA,NA,"","",NA,NA,NA,NA,"",NA,NA,1,0.063,NA,NA,NA,NA,NA,NA,NA,NA,NA,NA,NA,NA,NA,NA,NA,NA,NA,NA,NA,"",NA,NA,NA
"346","","fixation","","html-keyboard-response",345,362628,"0.0-354.0",0,0,"2V2GG","People","",NA,"","",NA,"null",NA,NA,"",NA,NA,NA,NA,NA,NA,NA,"","",NA,NA,NA,NA,"",NA,NA,NA,NA,NA,NA,NA,NA,NA,NA,NA,NA,NA,NA,NA,NA,NA,NA,NA,NA,NA,NA,NA,"",NA,NA,NA
"347","","see_reward","","html-keyboard-response",346,363235,"0.0-355.0",0,0,"2V2GG","People","",0.605,"","",NA,"32",NA,21,"",52,NA,NA,NA,1,NA,NA,"","",3,NA,NA,NA,"",160,0.605,NA,NA,NA,NA,NA,NA,NA,NA,NA,NA,NA,NA,NA,NA,NA,NA,NA,NA,NA,NA,NA,"",NA,NA,NA
"348","","reward_outcome","","html-keyboard-response",347,365240,"0.0-356.0",0,0,"2V2GG","People","",0.048,"","",NA,"38",NA,21,"",52,NA,NA,NA,NA,NA,NA,"","",NA,NA,NA,NA,"",NA,NA,1,0.048,NA,NA,NA,NA,NA,NA,NA,NA,NA,NA,NA,NA,NA,NA,NA,NA,NA,NA,NA,"",NA,NA,NA
"349","","fixation","","html-keyboard-response",348,366246,"0.0-359.0",0,0,"2V2GG","People","",NA,"","",NA,"null",NA,NA,"",NA,NA,NA,NA,NA,NA,NA,"","",NA,NA,NA,NA,"",NA,NA,NA,NA,NA,NA,NA,NA,NA,NA,NA,NA,NA,NA,NA,NA,NA,NA,NA,NA,NA,NA,NA,"",NA,NA,NA
"350","","see_reward","","html-keyboard-response",349,367458,"0.0-360.0",0,0,"2V2GG","People","",1.21,"","",NA,"32",NA,41,"",53,NA,NA,NA,-1,NA,NA,"","",3,NA,NA,NA,"",0,1.21,NA,NA,NA,NA,NA,NA,NA,NA,NA,NA,NA,NA,NA,NA,NA,NA,NA,NA,NA,NA,NA,"",NA,NA,NA
"351","","reward_outcome","","html-keyboard-response",350,369461,"0.0-361.0",0,0,"2V2GG","People","",0.073,"","",NA,"38",NA,41,"",53,NA,NA,NA,NA,NA,NA,"","",NA,NA,NA,NA,"",NA,NA,1,0.073,NA,NA,NA,NA,NA,NA,NA,NA,NA,NA,NA,NA,NA,NA,NA,NA,NA,NA,NA,"",NA,NA,NA
"352","","fixation","","html-keyboard-response",351,370467,"0.0-364.0",0,0,"2V2GG","People","",NA,"","",NA,"null",NA,NA,"",NA,NA,NA,NA,NA,NA,NA,"","",NA,NA,NA,NA,"",NA,NA,NA,NA,NA,NA,NA,NA,NA,NA,NA,NA,NA,NA,NA,NA,NA,NA,NA,NA,NA,NA,NA,"",NA,NA,NA
"353","","see_reward","","html-keyboard-response",352,370821,"0.0-365.0",0,0,"2V2GG","People","",0.352,"","",NA,"32",NA,10,"",54,NA,NA,NA,1,NA,NA,"","",3,NA,NA,NA,"",150,0.352,NA,NA,NA,NA,NA,NA,NA,NA,NA,NA,NA,NA,NA,NA,NA,NA,NA,NA,NA,NA,NA,"",NA,NA,NA
"354","","reward_outcome","","html-keyboard-response",353,372825,"0.0-366.0",0,0,"2V2GG","People","",0.078,"","",NA,"38",NA,10,"",54,NA,NA,NA,NA,NA,NA,"","",NA,NA,NA,NA,"",NA,NA,1,0.078,NA,NA,NA,NA,NA,NA,NA,NA,NA,NA,NA,NA,NA,NA,NA,NA,NA,NA,NA,"",NA,NA,NA
"355","","fixation","","html-keyboard-response",354,373832,"0.0-369.0",0,0,"2V2GG","People","",NA,"","",NA,"null",NA,NA,"",NA,NA,NA,NA,NA,NA,NA,"","",NA,NA,NA,NA,"",NA,NA,NA,NA,NA,NA,NA,NA,NA,NA,NA,NA,NA,NA,NA,NA,NA,NA,NA,NA,NA,NA,NA,"",NA,NA,NA
"356","","see_reward","","html-keyboard-response",355,374220,"0.0-370.0",0,0,"2V2GG","People","",0.386,"","",NA,"32",NA,14,"",55,NA,NA,NA,-1,NA,NA,"","",3,NA,NA,NA,"",0,0.386,NA,NA,NA,NA,NA,NA,NA,NA,NA,NA,NA,NA,NA,NA,NA,NA,NA,NA,NA,NA,NA,"",NA,NA,NA
"357","","reward_outcome","","html-keyboard-response",356,376226,"0.0-371.0",0,0,"2V2GG","People","",0.031,"","",NA,"38",NA,14,"",55,NA,NA,NA,NA,NA,NA,"","",NA,NA,NA,NA,"",NA,NA,1,0.031,NA,NA,NA,NA,NA,NA,NA,NA,NA,NA,NA,NA,NA,NA,NA,NA,NA,NA,NA,"",NA,NA,NA
"358","","fixation","","html-keyboard-response",357,377233,"0.0-374.0",0,0,"2V2GG","People","",NA,"","",NA,"null",NA,NA,"",NA,NA,NA,NA,NA,NA,NA,"","",NA,NA,NA,NA,"",NA,NA,NA,NA,NA,NA,NA,NA,NA,NA,NA,NA,NA,NA,NA,NA,NA,NA,NA,NA,NA,NA,NA,"",NA,NA,NA
"359","","see_reward","","html-keyboard-response",358,378038,"0.0-375.0",0,0,"2V2GG","People","",0.802,"","",NA,"32",NA,0,"",56,NA,NA,NA,-1,NA,NA,"","",3,NA,NA,NA,"",0,0.802,NA,NA,NA,NA,NA,NA,NA,NA,NA,NA,NA,NA,NA,NA,NA,NA,NA,NA,NA,NA,NA,"",NA,NA,NA
"360","","reward_outcome","","html-keyboard-response",359,380040,"0.0-376.0",0,0,"2V2GG","People","",0.062,"","",NA,"38",NA,0,"",56,NA,NA,NA,NA,NA,NA,"","",NA,NA,NA,NA,"",NA,NA,1,0.062,NA,NA,NA,NA,NA,NA,NA,NA,NA,NA,NA,NA,NA,NA,NA,NA,NA,NA,NA,"",NA,NA,NA
"361","","fixation","","html-keyboard-response",360,381044,"0.0-379.0",0,0,"2V2GG","People","",NA,"","",NA,"null",NA,NA,"",NA,NA,NA,NA,NA,NA,NA,"","",NA,NA,NA,NA,"",NA,NA,NA,NA,NA,NA,NA,NA,NA,NA,NA,NA,NA,NA,NA,NA,NA,NA,NA,NA,NA,NA,NA,"",NA,NA,NA
"362","","see_reward","","html-keyboard-response",361,381693,"0.0-380.0",0,0,"2V2GG","People","",0.647,"","",NA,"32",NA,27,"",57,NA,NA,NA,1,NA,NA,"","",3,NA,NA,NA,"",146,0.647,NA,NA,NA,NA,NA,NA,NA,NA,NA,NA,NA,NA,NA,NA,NA,NA,NA,NA,NA,NA,NA,"",NA,NA,NA
"363","","reward_outcome","","html-keyboard-response",362,383699,"0.0-381.0",0,0,"2V2GG","People","",0.051,"","",NA,"38",NA,27,"",57,NA,NA,NA,NA,NA,NA,"","",NA,NA,NA,NA,"",NA,NA,1,0.051,NA,NA,NA,NA,NA,NA,NA,NA,NA,NA,NA,NA,NA,NA,NA,NA,NA,NA,NA,"",NA,NA,NA
"364","","fixation","","html-keyboard-response",363,384706,"0.0-384.0",0,0,"2V2GG","People","",NA,"","",NA,"null",NA,NA,"",NA,NA,NA,NA,NA,NA,NA,"","",NA,NA,NA,NA,"",NA,NA,NA,NA,NA,NA,NA,NA,NA,NA,NA,NA,NA,NA,NA,NA,NA,NA,NA,NA,NA,NA,NA,"",NA,NA,NA
"365","","see_reward","","html-keyboard-response",364,384900,"0.0-385.0",0,0,"2V2GG","People","",0.192,"","",NA,"32",NA,18,"",58,NA,NA,NA,1,NA,NA,"","",3,NA,NA,NA,"",146,0.192,NA,NA,NA,NA,NA,NA,NA,NA,NA,NA,NA,NA,NA,NA,NA,NA,NA,NA,NA,NA,NA,"",NA,NA,NA
"366","","reward_outcome","","html-keyboard-response",365,386906,"0.0-386.0",0,0,"2V2GG","People","",0.08,"","",NA,"38",NA,18,"",58,NA,NA,NA,NA,NA,NA,"","",NA,NA,NA,NA,"",NA,NA,1,0.08,NA,NA,NA,NA,NA,NA,NA,NA,NA,NA,NA,NA,NA,NA,NA,NA,NA,NA,NA,"",NA,NA,NA
"367","","fixation","","html-keyboard-response",366,387911,"0.0-389.0",0,0,"2V2GG","People","",NA,"","",NA,"null",NA,NA,"",NA,NA,NA,NA,NA,NA,NA,"","",NA,NA,NA,NA,"",NA,NA,NA,NA,NA,NA,NA,NA,NA,NA,NA,NA,NA,NA,NA,NA,NA,NA,NA,NA,NA,NA,NA,"",NA,NA,NA
"368","","see_reward","","html-keyboard-response",367,388188,"0.0-390.0",0,0,"2V2GG","People","",0.275,"","",NA,"32",NA,10,"",59,NA,NA,NA,1,NA,NA,"","",3,NA,NA,NA,"",150,0.275,NA,NA,NA,NA,NA,NA,NA,NA,NA,NA,NA,NA,NA,NA,NA,NA,NA,NA,NA,NA,NA,"",NA,NA,NA
"369","","reward_outcome","","html-keyboard-response",368,390190,"0.0-391.0",0,0,"2V2GG","People","",0.078,"","",NA,"38",NA,10,"",59,NA,NA,NA,NA,NA,NA,"","",NA,NA,NA,NA,"",NA,NA,1,0.078,NA,NA,NA,NA,NA,NA,NA,NA,NA,NA,NA,NA,NA,NA,NA,NA,NA,NA,NA,"",NA,NA,NA
"370","","fixation","","html-keyboard-response",369,391191,"0.0-394.0",0,0,"2V2GG","People","",NA,"","",NA,"null",NA,NA,"",NA,NA,NA,NA,NA,NA,NA,"","",NA,NA,NA,NA,"",NA,NA,NA,NA,NA,NA,NA,NA,NA,NA,NA,NA,NA,NA,NA,NA,NA,NA,NA,NA,NA,NA,NA,"",NA,NA,NA
"371","","see_reward","","html-keyboard-response",370,392535,"0.0-395.0",0,0,"2V2GG","People","",1.342,"","",NA,"32",NA,14,"",60,NA,NA,NA,-1,NA,NA,"","",3,NA,NA,NA,"",0,1.342,NA,NA,NA,NA,NA,NA,NA,NA,NA,NA,NA,NA,NA,NA,NA,NA,NA,NA,NA,NA,NA,"",NA,NA,NA
"372","","reward_outcome","","html-keyboard-response",371,394538,"0.0-396.0",0,0,"2V2GG","People","",0.078,"","",NA,"38",NA,14,"",60,NA,NA,NA,NA,NA,NA,"","",NA,NA,NA,NA,"",NA,NA,1,0.078,NA,NA,NA,NA,NA,NA,NA,NA,NA,NA,NA,NA,NA,NA,NA,NA,NA,NA,NA,"",NA,NA,NA
"373","","fixation","","html-keyboard-response",372,395539,"0.0-399.0",0,0,"2V2GG","People","",NA,"","",NA,"null",NA,NA,"",NA,NA,NA,NA,NA,NA,NA,"","",NA,NA,NA,NA,"",NA,NA,NA,NA,NA,NA,NA,NA,NA,NA,NA,NA,NA,NA,NA,NA,NA,NA,NA,NA,NA,NA,NA,"",NA,NA,NA
"374","","see_reward","","html-keyboard-response",373,396379,"0.0-400.0",0,0,"2V2GG","People","",0.839,"","",NA,"32",NA,45,"",61,NA,NA,NA,-1,NA,NA,"","",3,NA,NA,NA,"",0,0.839,NA,NA,NA,NA,NA,NA,NA,NA,NA,NA,NA,NA,NA,NA,NA,NA,NA,NA,NA,NA,NA,"",NA,NA,NA
