"","success","ttype","start_time","trial_type","trial_index","time_elapsed","internal_node_id","warning","missed_checkup","PID","view_history","rt","responses","repeat_instructions","key_press","response","stimulus_id","painting","index","stimulus_left","stimulus_right","explain_trial","reward_type","rating_left","rating_right","painting_left","painting_right","block","left_chosen","chosen_obj","unchosen_obj","explain_response","reward_amount","see_reward_rt","register_reward_response","register_reward_rt","deliberation_reward_tally","stimulus_left_deliberation_ind","stimulus_right_deliberation_ind","chosen_trial","gain_left","higher_outcome_chosen","old_pair","chosen_object","rt_pairs","left_object_chosen","rt_object","old_response","new_rating","deliberated_stim","initial_rating","outcome_eval_rt","outcome_eval_response","outcome_eval_gain","outcome_eval_acc","preamble","outcome_eval_confidence","outcome_eval_confidence_rt","total_reward_tally","stim_type"
"1",TRUE,"full_screen","d04132020hr1604","fullscreen",0,2160,"0.0-0.0",0,0,"0TZUd","",NA,"",NA,"",NA,NA,"",NA,NA,NA,NA,NA,NA,NA,"","",NA,NA,NA,NA,"",NA,NA,NA,NA,NA,NA,NA,NA,NA,NA,NA,NA,NA,NA,NA,NA,NA,NA,NA,NA,NA,NA,NA,"",NA,NA,NA,NA
"2",NA,"rating_instructions","","instructions",1,4429,"0.0-1.0-0.0",0,0,"0TZUd","[{""page_index"":0,""viewing_time"":1552},{""page_index"":1,""viewing_time"":712}]",2.265,"",NA,"",NA,NA,"",NA,NA,NA,NA,NA,NA,NA,"","",NA,NA,NA,NA,"",NA,NA,NA,NA,NA,NA,NA,NA,NA,NA,NA,NA,NA,NA,NA,NA,NA,NA,NA,NA,NA,NA,NA,"",NA,NA,NA,NA
"3",NA,"rating_comprehension_check","","survey-multi-choice",2,8138,"0.0-1.0-1.0",0,0,"0TZUd","",3.703,"{""Q0"":""True"",""Q1"":""Mouse""}",0,"",NA,NA,"",NA,NA,NA,NA,NA,NA,NA,"","",NA,NA,NA,NA,"",NA,NA,NA,NA,NA,NA,NA,NA,NA,NA,NA,NA,NA,NA,NA,NA,NA,NA,NA,NA,NA,NA,NA,"",NA,NA,NA,NA
"4",NA,"start_phase","","html-keyboard-response",3,10221,"0.0-2.0",0,0,"0TZUd","",2.078,"",NA,"78",NA,NA,"",NA,NA,NA,NA,NA,NA,NA,"","",NA,NA,NA,NA,"",NA,NA,NA,NA,NA,NA,NA,NA,NA,NA,NA,NA,NA,NA,NA,NA,NA,NA,NA,NA,NA,NA,NA,"",NA,NA,NA,NA
"5",NA,"rating","","html-slider-response",4,12772,"0.0-3.0",0,0,"0TZUd","",2.544,"",NA,"",56,61,"Grigb1.jpg",0,NA,NA,NA,NA,NA,NA,"","",NA,NA,NA,NA,"",NA,NA,NA,NA,NA,NA,NA,NA,NA,NA,NA,NA,NA,NA,NA,NA,NA,NA,NA,NA,NA,NA,NA,"",NA,NA,NA,NA
"6",NA,"rating","","html-slider-response",5,14728,"0.0-4.0",0,0,"0TZUd","",1.948,"",NA,"",36,57,"Lassa1.jpg",1,NA,NA,NA,NA,NA,NA,"","",NA,NA,NA,NA,"",NA,NA,NA,NA,NA,NA,NA,NA,NA,NA,NA,NA,NA,NA,NA,NA,NA,NA,NA,NA,NA,NA,NA,"",NA,NA,NA,NA
"7",NA,"rating","","html-slider-response",6,16869,"0.0-5.0",0,0,"0TZUd","",2.131,"",NA,"",12,2,"Dekb1n.jpg",2,NA,NA,NA,NA,NA,NA,"","",NA,NA,NA,NA,"",NA,NA,NA,NA,NA,NA,NA,NA,NA,NA,NA,NA,NA,NA,NA,NA,NA,NA,NA,NA,NA,NA,NA,"",NA,NA,NA,NA
"8",NA,"rating","","html-slider-response",7,18459,"0.0-6.0",0,0,"0TZUd","",1.583,"",NA,"",56,3,"Klib1n.jpg",3,NA,NA,NA,NA,NA,NA,"","",NA,NA,NA,NA,"",NA,NA,NA,NA,NA,NA,NA,NA,NA,NA,NA,NA,NA,NA,NA,NA,NA,NA,NA,NA,NA,NA,NA,"",NA,NA,NA,NA
"9",NA,"rating","","html-slider-response",8,20949,"0.0-7.0",0,0,"0TZUd","",2.486,"",NA,"",67,20,"Picb1n.jpg",4,NA,NA,NA,NA,NA,NA,"","",NA,NA,NA,NA,"",NA,NA,NA,NA,NA,NA,NA,NA,NA,NA,NA,NA,NA,NA,NA,NA,NA,NA,NA,NA,NA,NA,NA,"",NA,NA,NA,NA
"10",NA,"rating","","html-slider-response",9,22777,"0.0-8.0",0,0,"0TZUd","",1.826,"",NA,"",38,52,"Dekoa1.jpg",5,NA,NA,NA,NA,NA,NA,"","",NA,NA,NA,NA,"",NA,NA,NA,NA,NA,NA,NA,NA,NA,NA,NA,NA,NA,NA,NA,NA,NA,NA,NA,NA,NA,NA,NA,"",NA,NA,NA,NA
"11",NA,"rating","","html-slider-response",10,24492,"0.0-9.0",0,0,"0TZUd","",1.711,"",NA,"",61,64,"Vincb1.jpg",6,NA,NA,NA,NA,NA,NA,"","",NA,NA,NA,NA,"",NA,NA,NA,NA,NA,NA,NA,NA,NA,NA,NA,NA,NA,NA,NA,NA,NA,NA,NA,NA,NA,NA,NA,"",NA,NA,NA,NA
"12",NA,"rating","","html-slider-response",11,26375,"0.0-10.0",0,0,"0TZUd","",1.877,"",NA,"",28,24,"Lewa1n.jpg",7,NA,NA,NA,NA,NA,NA,"","",NA,NA,NA,NA,"",NA,NA,NA,NA,NA,NA,NA,NA,NA,NA,NA,NA,NA,NA,NA,NA,NA,NA,NA,NA,NA,NA,NA,"",NA,NA,NA,NA
"13",NA,"rating","","html-slider-response",12,28221,"0.0-11.0",0,0,"0TZUd","",1.84,"",NA,"",19,42,"Mackc1.jpg",8,NA,NA,NA,NA,NA,NA,"","",NA,NA,NA,NA,"",NA,NA,NA,NA,NA,NA,NA,NA,NA,NA,NA,NA,NA,NA,NA,NA,NA,NA,NA,NA,NA,NA,NA,"",NA,NA,NA,NA
"14",NA,"rating","","html-slider-response",13,30965,"0.0-12.0",0,0,"0TZUd","",2.738,"",NA,"",86,29,"Klinb1.jpg",9,NA,NA,NA,NA,NA,NA,"","",NA,NA,NA,NA,"",NA,NA,NA,NA,NA,NA,NA,NA,NA,NA,NA,NA,NA,NA,NA,NA,NA,NA,NA,NA,NA,NA,NA,"",NA,NA,NA,NA
"15",NA,"rating","","html-slider-response",14,34559,"0.0-13.0",0,0,"0TZUd","",3.589,"",NA,"",0,45,"Lasc1n.jpg",10,NA,NA,NA,NA,NA,NA,"","",NA,NA,NA,NA,"",NA,NA,NA,NA,NA,NA,NA,NA,NA,NA,NA,NA,NA,NA,NA,NA,NA,NA,NA,NA,NA,NA,NA,"",NA,NA,NA,NA
"16",NA,"rating","","html-slider-response",15,36274,"0.0-14.0",0,0,"0TZUd","",1.712,"",NA,"",21,49,"Lewc1n.jpg",11,NA,NA,NA,NA,NA,NA,"","",NA,NA,NA,NA,"",NA,NA,NA,NA,NA,NA,NA,NA,NA,NA,NA,NA,NA,NA,NA,NA,NA,NA,NA,NA,NA,NA,NA,"",NA,NA,NA,NA
"17",NA,"rating","","html-slider-response",16,38466,"0.0-15.0",0,0,"0TZUd","",2.188,"",NA,"",0,15,"Lassc1.jpg",12,NA,NA,NA,NA,NA,NA,"","",NA,NA,NA,NA,"",NA,NA,NA,NA,NA,NA,NA,NA,NA,NA,NA,NA,NA,NA,NA,NA,NA,NA,NA,NA,NA,NA,NA,"",NA,NA,NA,NA
"18",NA,"rating","","html-slider-response",17,40800,"0.0-16.0",0,0,"0TZUd","",2.33,"",NA,"",35,44,"Mackb1.jpg",13,NA,NA,NA,NA,NA,NA,"","",NA,NA,NA,NA,"",NA,NA,NA,NA,NA,NA,NA,NA,NA,NA,NA,NA,NA,NA,NA,NA,NA,NA,NA,NA,NA,NA,NA,"",NA,NA,NA,NA
"19",NA,"rating","","html-slider-response",18,43439,"0.0-17.0",0,0,"0TZUd","",2.634,"",NA,"",54,56,"Clib1n.jpg",14,NA,NA,NA,NA,NA,NA,"","",NA,NA,NA,NA,"",NA,NA,NA,NA,NA,NA,NA,NA,NA,NA,NA,NA,NA,NA,NA,NA,NA,NA,NA,NA,NA,NA,NA,"",NA,NA,NA,NA
"20",NA,"rating","","html-slider-response",19,45284,"0.0-18.0",0,0,"0TZUd","",1.84,"",NA,"",38,22,"Klina1.jpg",15,NA,NA,NA,NA,NA,NA,"","",NA,NA,NA,NA,"",NA,NA,NA,NA,NA,NA,NA,NA,NA,NA,NA,NA,NA,NA,NA,NA,NA,NA,NA,NA,NA,NA,NA,"",NA,NA,NA,NA
"21",NA,"rating","","html-slider-response",20,47155,"0.0-19.0",0,0,"0TZUd","",1.865,"",NA,"",58,21,"Kupkc1.jpg",16,NA,NA,NA,NA,NA,NA,"","",NA,NA,NA,NA,"",NA,NA,NA,NA,NA,NA,NA,NA,NA,NA,NA,NA,NA,NA,NA,NA,NA,NA,NA,NA,NA,NA,NA,"",NA,NA,NA,NA
"22",NA,"rating","","html-slider-response",21,50567,"0.0-20.0",0,0,"0TZUd","",3.406,"",NA,"",18,63,"Lewia1.jpg",17,NA,NA,NA,NA,NA,NA,"","",NA,NA,NA,NA,"",NA,NA,NA,NA,NA,NA,NA,NA,NA,NA,NA,NA,NA,NA,NA,NA,NA,NA,NA,NA,NA,NA,NA,"",NA,NA,NA,NA
"23",NA,"rating","","html-slider-response",22,52640,"0.0-21.0",0,0,"0TZUd","",2.068,"",NA,"",27,18,"Krab1n.jpg",18,NA,NA,NA,NA,NA,NA,"","",NA,NA,NA,NA,"",NA,NA,NA,NA,NA,NA,NA,NA,NA,NA,NA,NA,NA,NA,NA,NA,NA,NA,NA,NA,NA,NA,NA,"",NA,NA,NA,NA
"24",NA,"rating","","html-slider-response",23,54945,"0.0-22.0",0,0,"0TZUd","",2.3,"",NA,"",42,59,"Macka1.jpg",19,NA,NA,NA,NA,NA,NA,"","",NA,NA,NA,NA,"",NA,NA,NA,NA,NA,NA,NA,NA,NA,NA,NA,NA,NA,NA,NA,NA,NA,NA,NA,NA,NA,NA,NA,"",NA,NA,NA,NA
"25",NA,"rating","","html-slider-response",24,56665,"0.0-23.0",0,0,"0TZUd","",1.714,"",NA,"",23,7,"Macb1n.jpg",20,NA,NA,NA,NA,NA,NA,"","",NA,NA,NA,NA,"",NA,NA,NA,NA,NA,NA,NA,NA,NA,NA,NA,NA,NA,NA,NA,NA,NA,NA,NA,NA,NA,NA,NA,"",NA,NA,NA,NA
"26",NA,"rating","","html-slider-response",25,58786,"0.0-24.0",0,0,"0TZUd","",2.117,"",NA,"",62,43,"Clifb1.jpg",21,NA,NA,NA,NA,NA,NA,"","",NA,NA,NA,NA,"",NA,NA,NA,NA,NA,NA,NA,NA,NA,NA,NA,NA,NA,NA,NA,NA,NA,NA,NA,NA,NA,NA,NA,"",NA,NA,NA,NA
"27",NA,"rating","","html-slider-response",26,60480,"0.0-25.0",0,0,"0TZUd","",1.69,"",NA,"",39,31,"Picac1.jpg",22,NA,NA,NA,NA,NA,NA,"","",NA,NA,NA,NA,"",NA,NA,NA,NA,NA,NA,NA,NA,NA,NA,NA,NA,NA,NA,NA,NA,NA,NA,NA,NA,NA,NA,NA,"",NA,NA,NA,NA
"28",NA,"rating","","html-slider-response",27,62722,"0.0-26.0",0,0,"0TZUd","",2.237,"",NA,"",38,51,"Lewic1.jpg",23,NA,NA,NA,NA,NA,NA,"","",NA,NA,NA,NA,"",NA,NA,NA,NA,NA,NA,NA,NA,NA,NA,NA,NA,NA,NA,NA,NA,NA,NA,NA,NA,NA,NA,NA,"",NA,NA,NA,NA
"29",NA,"rating","","html-slider-response",28,64512,"0.0-27.0",0,0,"0TZUd","",1.785,"",NA,"",13,37,"Deka1n.jpg",24,NA,NA,NA,NA,NA,NA,"","",NA,NA,NA,NA,"",NA,NA,NA,NA,NA,NA,NA,NA,NA,NA,NA,NA,NA,NA,NA,NA,NA,NA,NA,NA,NA,NA,NA,"",NA,NA,NA,NA
"30",NA,"rating","","html-slider-response",29,66183,"0.0-28.0",0,0,"0TZUd","",1.666,"",NA,"",59,26,"Klid1n.jpg",25,NA,NA,NA,NA,NA,NA,"","",NA,NA,NA,NA,"",NA,NA,NA,NA,NA,NA,NA,NA,NA,NA,NA,NA,NA,NA,NA,NA,NA,NA,NA,NA,NA,NA,NA,"",NA,NA,NA,NA
"31",NA,"rating","","html-slider-response",30,68037,"0.0-29.0",0,0,"0TZUd","",1.85,"",NA,"",36,40,"Vinc1n.jpg",26,NA,NA,NA,NA,NA,NA,"","",NA,NA,NA,NA,"",NA,NA,NA,NA,NA,NA,NA,NA,NA,NA,NA,NA,NA,NA,NA,NA,NA,NA,NA,NA,NA,NA,NA,"",NA,NA,NA,NA
"32",NA,"rating","","html-slider-response",31,70189,"0.0-30.0",0,0,"0TZUd","",2.148,"",NA,"",27,55,"Clia1n.jpg",27,NA,NA,NA,NA,NA,NA,"","",NA,NA,NA,NA,"",NA,NA,NA,NA,NA,NA,NA,NA,NA,NA,NA,NA,NA,NA,NA,NA,NA,NA,NA,NA,NA,NA,NA,"",NA,NA,NA,NA
"33",NA,"rating","","html-slider-response",32,71845,"0.0-31.0",0,0,"0TZUd","",1.652,"",NA,"",37,30,"Kraa1n.jpg",28,NA,NA,NA,NA,NA,NA,"","",NA,NA,NA,NA,"",NA,NA,NA,NA,NA,NA,NA,NA,NA,NA,NA,NA,NA,NA,NA,NA,NA,NA,NA,NA,NA,NA,NA,"",NA,NA,NA,NA
"34",NA,"rating","","html-slider-response",33,75171,"0.0-32.0",0,0,"0TZUd","",3.322,"",NA,"",63,69,"Picad1.jpg",29,NA,NA,NA,NA,NA,NA,"","",NA,NA,NA,NA,"",NA,NA,NA,NA,NA,NA,NA,NA,NA,NA,NA,NA,NA,NA,NA,NA,NA,NA,NA,NA,NA,NA,NA,"",NA,NA,NA,NA
"35",NA,"rating","","html-slider-response",34,77157,"0.0-33.0",0,0,"0TZUd","",1.982,"",NA,"",40,58,"Klinc1.jpg",30,NA,NA,NA,NA,NA,NA,"","",NA,NA,NA,NA,"",NA,NA,NA,NA,NA,NA,NA,NA,NA,NA,NA,NA,NA,NA,NA,NA,NA,NA,NA,NA,NA,NA,NA,"",NA,NA,NA,NA
"36",NA,"rating","","html-slider-response",35,78662,"0.0-34.0",0,0,"0TZUd","",1.501,"",NA,"",37,67,"Picab1.jpg",31,NA,NA,NA,NA,NA,NA,"","",NA,NA,NA,NA,"",NA,NA,NA,NA,NA,NA,NA,NA,NA,NA,NA,NA,NA,NA,NA,NA,NA,NA,NA,NA,NA,NA,NA,"",NA,NA,NA,NA
"37",NA,"rating","","html-slider-response",36,81236,"0.0-35.0",0,0,"0TZUd","",2.569,"",NA,"",61,47,"Vina1n.jpg",32,NA,NA,NA,NA,NA,NA,"","",NA,NA,NA,NA,"",NA,NA,NA,NA,NA,NA,NA,NA,NA,NA,NA,NA,NA,NA,NA,NA,NA,NA,NA,NA,NA,NA,NA,"",NA,NA,NA,NA
"38",NA,"rating","","html-slider-response",37,82993,"0.0-36.0",0,0,"0TZUd","",1.752,"",NA,"",76,62,"Mona1n.jpg",33,NA,NA,NA,NA,NA,NA,"","",NA,NA,NA,NA,"",NA,NA,NA,NA,NA,NA,NA,NA,NA,NA,NA,NA,NA,NA,NA,NA,NA,NA,NA,NA,NA,NA,NA,"",NA,NA,NA,NA
"39",NA,"rating","","html-slider-response",38,84435,"0.0-37.0",0,0,"0TZUd","",1.437,"",NA,"",40,25,"Dekob1.jpg",34,NA,NA,NA,NA,NA,NA,"","",NA,NA,NA,NA,"",NA,NA,NA,NA,NA,NA,NA,NA,NA,NA,NA,NA,NA,NA,NA,NA,NA,NA,NA,NA,NA,NA,NA,"",NA,NA,NA,NA
"40",NA,"rating","","html-slider-response",39,85861,"0.0-38.0",0,0,"0TZUd","",1.422,"",NA,"",37,53,"Macc1n.jpg",35,NA,NA,NA,NA,NA,NA,"","",NA,NA,NA,NA,"",NA,NA,NA,NA,NA,NA,NA,NA,NA,NA,NA,NA,NA,NA,NA,NA,NA,NA,NA,NA,NA,NA,NA,"",NA,NA,NA,NA
"41",NA,"rating","","html-slider-response",40,87026,"0.0-39.0",0,0,"0TZUd","",1.161,"",NA,"",43,60,"Kupc1n.jpg",36,NA,NA,NA,NA,NA,NA,"","",NA,NA,NA,NA,"",NA,NA,NA,NA,NA,NA,NA,NA,NA,NA,NA,NA,NA,NA,NA,NA,NA,NA,NA,NA,NA,NA,NA,"",NA,NA,NA,NA
"42",NA,"rating","","html-slider-response",41,88437,"0.0-40.0",0,0,"0TZUd","",1.407,"",NA,"",65,50,"Klic1n.jpg",37,NA,NA,NA,NA,NA,NA,"","",NA,NA,NA,NA,"",NA,NA,NA,NA,NA,NA,NA,NA,NA,NA,NA,NA,NA,NA,NA,NA,NA,NA,NA,NA,NA,NA,NA,"",NA,NA,NA,NA
"43",NA,"rating","","html-slider-response",42,90662,"0.0-41.0",0,0,"0TZUd","",2.221,"",NA,"",22,27,"Gustc1.jpg",38,NA,NA,NA,NA,NA,NA,"","",NA,NA,NA,NA,"",NA,NA,NA,NA,NA,NA,NA,NA,NA,NA,NA,NA,NA,NA,NA,NA,NA,NA,NA,NA,NA,NA,NA,"",NA,NA,NA,NA
"44",NA,"rating","","html-slider-response",43,92181,"0.0-42.0",0,0,"0TZUd","",1.514,"",NA,"",66,28,"Pice1n.jpg",39,NA,NA,NA,NA,NA,NA,"","",NA,NA,NA,NA,"",NA,NA,NA,NA,NA,NA,NA,NA,NA,NA,NA,NA,NA,NA,NA,NA,NA,NA,NA,NA,NA,NA,NA,"",NA,NA,NA,NA
"45",NA,"rating","","html-slider-response",44,93759,"0.0-43.0",0,0,"0TZUd","",1.573,"",NA,"",35,35,"Gusa1n.jpg",40,NA,NA,NA,NA,NA,NA,"","",NA,NA,NA,NA,"",NA,NA,NA,NA,NA,NA,NA,NA,NA,NA,NA,NA,NA,NA,NA,NA,NA,NA,NA,NA,NA,NA,NA,"",NA,NA,NA,NA
"46",NA,"rating","","html-slider-response",45,95495,"0.0-44.0",0,0,"0TZUd","",1.732,"",NA,"",61,54,"Rohla1.jpg",41,NA,NA,NA,NA,NA,NA,"","",NA,NA,NA,NA,"",NA,NA,NA,NA,NA,NA,NA,NA,NA,NA,NA,NA,NA,NA,NA,NA,NA,NA,NA,NA,NA,NA,NA,"",NA,NA,NA,NA
"47",NA,"rating","","html-slider-response",46,97494,"0.0-45.0",0,0,"0TZUd","",1.946,"",NA,"",86,9,"Klind1.jpg",42,NA,NA,NA,NA,NA,NA,"","",NA,NA,NA,NA,"",NA,NA,NA,NA,NA,NA,NA,NA,NA,NA,NA,NA,NA,NA,NA,NA,NA,NA,NA,NA,NA,NA,NA,"",NA,NA,NA,NA
"48",NA,"rating","","html-slider-response",47,99250,"0.0-46.0",0,0,"0TZUd","",1.753,"",NA,"",35,39,"Kupb1n.jpg",43,NA,NA,NA,NA,NA,NA,"","",NA,NA,NA,NA,"",NA,NA,NA,NA,NA,NA,NA,NA,NA,NA,NA,NA,NA,NA,NA,NA,NA,NA,NA,NA,NA,NA,NA,"",NA,NA,NA,NA
"49",NA,"rating","","html-slider-response",48,100810,"0.0-47.0",0,0,"0TZUd","",1.555,"",NA,"",68,23,"Rohlb1.jpg",44,NA,NA,NA,NA,NA,NA,"","",NA,NA,NA,NA,"",NA,NA,NA,NA,NA,NA,NA,NA,NA,NA,NA,NA,NA,NA,NA,NA,NA,NA,NA,NA,NA,NA,NA,"",NA,NA,NA,NA
"50",NA,"rating","","html-slider-response",49,102299,"0.0-48.0",0,0,"0TZUd","",1.485,"",NA,"",62,33,"Kline1.jpg",45,NA,NA,NA,NA,NA,NA,"","",NA,NA,NA,NA,"",NA,NA,NA,NA,NA,NA,NA,NA,NA,NA,NA,NA,NA,NA,NA,NA,NA,NA,NA,NA,NA,NA,NA,"",NA,NA,NA,NA
"51",NA,"rating","","html-slider-response",50,103861,"0.0-49.0",0,0,"0TZUd","",1.558,"",NA,"",62,16,"Vincc1.jpg",46,NA,NA,NA,NA,NA,NA,"","",NA,NA,NA,NA,"",NA,NA,NA,NA,NA,NA,NA,NA,NA,NA,NA,NA,NA,NA,NA,NA,NA,NA,NA,NA,NA,NA,NA,"",NA,NA,NA,NA
"52",NA,"rating","","html-slider-response",51,105760,"0.0-50.0",0,0,"0TZUd","",1.895,"",NA,"",39,10,"Vinb1n.jpg",47,NA,NA,NA,NA,NA,NA,"","",NA,NA,NA,NA,"",NA,NA,NA,NA,NA,NA,NA,NA,NA,NA,NA,NA,NA,NA,NA,NA,NA,NA,NA,NA,NA,NA,NA,"",NA,NA,NA,NA
"53",NA,"rating","","html-slider-response",52,107811,"0.0-51.0",0,0,"0TZUd","",2.046,"",NA,"",32,34,"Lasb1n.jpg",48,NA,NA,NA,NA,NA,NA,"","",NA,NA,NA,NA,"",NA,NA,NA,NA,NA,NA,NA,NA,NA,NA,NA,NA,NA,NA,NA,NA,NA,NA,NA,NA,NA,NA,NA,"",NA,NA,NA,NA
"54",NA,"rating","","html-slider-response",53,110934,"0.0-52.0",0,0,"0TZUd","",3.119,"",NA,"",80,1,"Monda1.jpg",49,NA,NA,NA,NA,NA,NA,"","",NA,NA,NA,NA,"",NA,NA,NA,NA,NA,NA,NA,NA,NA,NA,NA,NA,NA,NA,NA,NA,NA,NA,NA,NA,NA,NA,NA,"",NA,NA,NA,NA
"55",NA,"rating","","html-slider-response",54,114141,"0.0-53.0",0,0,"0TZUd","",3.203,"",NA,"",18,19,"Picc1n.jpg",50,NA,NA,NA,NA,NA,NA,"","",NA,NA,NA,NA,"",NA,NA,NA,NA,NA,NA,NA,NA,NA,NA,NA,NA,NA,NA,NA,NA,NA,NA,NA,NA,NA,NA,NA,"",NA,NA,NA,NA
"56",NA,"rating","","html-slider-response",55,116273,"0.0-54.0",0,0,"0TZUd","",2.127,"",NA,"",23,32,"Kupkb1.jpg",51,NA,NA,NA,NA,NA,NA,"","",NA,NA,NA,NA,"",NA,NA,NA,NA,NA,NA,NA,NA,NA,NA,NA,NA,NA,NA,NA,NA,NA,NA,NA,NA,NA,NA,NA,"",NA,NA,NA,NA
"57",NA,"rating","","html-slider-response",56,118427,"0.0-55.0",0,0,"0TZUd","",2.15,"",NA,"",34,36,"Gustb1.jpg",52,NA,NA,NA,NA,NA,NA,"","",NA,NA,NA,NA,"",NA,NA,NA,NA,NA,NA,NA,NA,NA,NA,NA,NA,NA,NA,NA,NA,NA,NA,NA,NA,NA,NA,NA,"",NA,NA,NA,NA
"58",NA,"rating","","html-slider-response",57,121042,"0.0-56.0",0,0,"0TZUd","",2.61,"",NA,"",18,4,"Krasb1.jpg",53,NA,NA,NA,NA,NA,NA,"","",NA,NA,NA,NA,"",NA,NA,NA,NA,NA,NA,NA,NA,NA,NA,NA,NA,NA,NA,NA,NA,NA,NA,NA,NA,NA,NA,NA,"",NA,NA,NA,NA
"59",NA,"rating","","html-slider-response",58,122899,"0.0-57.0",0,0,"0TZUd","",1.852,"",NA,"",62,41,"Picae1.jpg",54,NA,NA,NA,NA,NA,NA,"","",NA,NA,NA,NA,"",NA,NA,NA,NA,NA,NA,NA,NA,NA,NA,NA,NA,NA,NA,NA,NA,NA,NA,NA,NA,NA,NA,NA,"",NA,NA,NA,NA
"60",NA,"rating","","html-slider-response",59,124660,"0.0-58.0",0,0,"0TZUd","",1.758,"",NA,"",60,14,"Grib1n.jpg",55,NA,NA,NA,NA,NA,NA,"","",NA,NA,NA,NA,"",NA,NA,NA,NA,NA,NA,NA,NA,NA,NA,NA,NA,NA,NA,NA,NA,NA,NA,NA,NA,NA,NA,NA,"",NA,NA,NA,NA
"61",NA,"rating","","html-slider-response",60,126490,"0.0-59.0",0,0,"0TZUd","",1.826,"",NA,"",34,38,"Krasa1.jpg",56,NA,NA,NA,NA,NA,NA,"","",NA,NA,NA,NA,"",NA,NA,NA,NA,NA,NA,NA,NA,NA,NA,NA,NA,NA,NA,NA,NA,NA,NA,NA,NA,NA,NA,NA,"",NA,NA,NA,NA
"62",NA,"rating","","html-slider-response",61,128289,"0.0-60.0",0,0,"0TZUd","",1.795,"",NA,"",14,13,"Kupka1.jpg",57,NA,NA,NA,NA,NA,NA,"","",NA,NA,NA,NA,"",NA,NA,NA,NA,NA,NA,NA,NA,NA,NA,NA,NA,NA,NA,NA,NA,NA,NA,NA,NA,NA,NA,NA,"",NA,NA,NA,NA
"63",NA,"rating","","html-slider-response",62,129801,"0.0-61.0",0,0,"0TZUd","",1.507,"",NA,"",29,68,"Mondb1.jpg",58,NA,NA,NA,NA,NA,NA,"","",NA,NA,NA,NA,"",NA,NA,NA,NA,NA,NA,NA,NA,NA,NA,NA,NA,NA,NA,NA,NA,NA,NA,NA,NA,NA,NA,NA,"",NA,NA,NA,NA
"64",NA,"rating","","html-slider-response",63,132004,"0.0-62.0",0,0,"0TZUd","",2.199,"",NA,"",54,46,"Lewb1n.jpg",59,NA,NA,NA,NA,NA,NA,"","",NA,NA,NA,NA,"",NA,NA,NA,NA,NA,NA,NA,NA,NA,NA,NA,NA,NA,NA,NA,NA,NA,NA,NA,NA,NA,NA,NA,"",NA,NA,NA,NA
"65",NA,"deliberation_instructions","","instructions",64,155826,"0.0-63.0-0.0",0,0,"0TZUd","[{""page_index"":0,""viewing_time"":9402},{""page_index"":1,""viewing_time"":6878},{""page_index"":2,""viewing_time"":5909},{""page_index"":3,""viewing_time"":1623}]",23.813,"",NA,"",NA,NA,"",NA,NA,NA,NA,NA,NA,NA,"","",NA,NA,NA,NA,"",NA,NA,NA,NA,NA,NA,NA,NA,NA,NA,NA,NA,NA,NA,NA,NA,NA,NA,NA,NA,NA,NA,NA,"",NA,NA,NA,NA
"66",NA,"deliberation_comprehension_check","","survey-multi-choice",65,177329,"0.0-63.0-1.0",0,0,"0TZUd","",21.49,"{""Q0"":""True"",""Q1"":""True"",""Q2"":""Consider carefully and take your time (up to 10 seconds)"",""Q3"":""True"",""Q4"":""D""}",0,"",NA,NA,"",NA,NA,NA,NA,NA,NA,NA,"","",NA,NA,NA,NA,"",NA,NA,NA,NA,NA,NA,NA,NA,NA,NA,NA,NA,NA,NA,NA,NA,NA,NA,NA,NA,NA,NA,NA,"",NA,NA,NA,NA
"67",NA,"start_phase","","html-keyboard-response",66,179316,"0.0-64.0",0,0,"0TZUd","",1.976,"",NA,"78",NA,NA,"",NA,NA,NA,NA,NA,NA,NA,"","",NA,NA,NA,NA,"",NA,NA,NA,NA,NA,NA,NA,NA,NA,NA,NA,NA,NA,NA,NA,NA,NA,NA,NA,NA,NA,NA,NA,"",NA,NA,NA,NA
"68",NA,"first_deliberation_block","","html-keyboard-response",67,181805,"0.0-65.0",0,0,"0TZUd","",2.486,"",NA,"78",NA,NA,"",NA,NA,NA,NA,NA,NA,NA,"","",NA,NA,NA,NA,"",NA,NA,NA,NA,NA,NA,NA,NA,NA,NA,NA,NA,NA,NA,NA,NA,NA,NA,NA,NA,NA,NA,NA,"",NA,NA,NA,NA
"69",NA,"fixation","","html-keyboard-response",68,182809,"0.0-66.0-0.0",0,0,"0TZUd","",NA,"",NA,"null",NA,NA,"",NA,NA,NA,NA,NA,NA,NA,"","",NA,NA,NA,NA,"",NA,NA,NA,NA,NA,NA,NA,NA,NA,NA,NA,NA,NA,NA,NA,NA,NA,NA,NA,NA,NA,NA,NA,"",NA,NA,NA,NA
"70",NA,"deliberation","","html-keyboard-response",69,184167,"0.0-66.0-1.0",0,0,"0TZUd","",1.353,"",NA,"68",NA,NA,"",0,59,58,0,1,42,40,"Macka1.jpg","Klinc1.jpg",1,1,59,58,"",NA,NA,NA,NA,NA,NA,NA,NA,NA,NA,NA,NA,NA,NA,NA,NA,NA,NA,NA,NA,NA,NA,NA,"",NA,NA,NA,NA
"71",NA,"choice_confirmation","","html-keyboard-response",70,184673,"0.0-66.0-2.0-0.0",0,0,"0TZUd","",NA,"",NA,"null",NA,NA,"",0,59,58,NA,NA,NA,NA,"","",NA,NA,NA,NA,"",NA,NA,NA,NA,NA,NA,NA,NA,NA,NA,NA,NA,NA,NA,NA,NA,NA,NA,NA,NA,NA,NA,NA,"",NA,NA,NA,NA
"72",NA,"fixation","","html-keyboard-response",71,185691,"0.0-67.0-0.0",0,0,"0TZUd","",NA,"",NA,"null",NA,NA,"",NA,NA,NA,NA,NA,NA,NA,"","",NA,NA,NA,NA,"",NA,NA,NA,NA,NA,NA,NA,NA,NA,NA,NA,NA,NA,NA,NA,NA,NA,NA,NA,NA,NA,NA,NA,"",NA,NA,NA,NA
"73",NA,"deliberation","","html-keyboard-response",72,186981,"0.0-67.0-1.0",0,0,"0TZUd","",1.285,"",NA,"68",NA,NA,"",1,46,10,0,-1,54,39,"Lewb1n.jpg","Vinb1n.jpg",1,1,46,10,"",NA,NA,NA,NA,NA,NA,NA,NA,NA,NA,NA,NA,NA,NA,NA,NA,NA,NA,NA,NA,NA,NA,NA,"",NA,NA,NA,NA
"74",NA,"choice_confirmation","","html-keyboard-response",73,187488,"0.0-67.0-2.0-0.0",0,0,"0TZUd","",NA,"",NA,"null",NA,NA,"",1,46,10,NA,NA,NA,NA,"","",NA,NA,NA,NA,"",NA,NA,NA,NA,NA,NA,NA,NA,NA,NA,NA,NA,NA,NA,NA,NA,NA,NA,NA,NA,NA,NA,NA,"",NA,NA,NA,NA
"75",NA,"fixation","","html-keyboard-response",74,188499,"0.0-68.0-0.0",0,0,"0TZUd","",NA,"",NA,"null",NA,NA,"",NA,NA,NA,NA,NA,NA,NA,"","",NA,NA,NA,NA,"",NA,NA,NA,NA,NA,NA,NA,NA,NA,NA,NA,NA,NA,NA,NA,NA,NA,NA,NA,NA,NA,NA,NA,"",NA,NA,NA,NA
"76",NA,"deliberation","","html-keyboard-response",75,189649,"0.0-68.0-1.0",0,0,"0TZUd","",1.146,"",NA,"75",NA,NA,"",2,44,56,0,1,35,54,"Mackb1.jpg","Clib1n.jpg",1,0,56,44,"",NA,NA,NA,NA,NA,NA,NA,NA,NA,NA,NA,NA,NA,NA,NA,NA,NA,NA,NA,NA,NA,NA,NA,"",NA,NA,NA,NA
"77",NA,"choice_confirmation","","html-keyboard-response",76,190156,"0.0-68.0-2.0-0.0",0,0,"0TZUd","",NA,"",NA,"null",NA,NA,"",2,44,56,NA,NA,NA,NA,"","",NA,NA,NA,NA,"",NA,NA,NA,NA,NA,NA,NA,NA,NA,NA,NA,NA,NA,NA,NA,NA,NA,NA,NA,NA,NA,NA,NA,"",NA,NA,NA,NA
"78",NA,"fixation","","html-keyboard-response",77,191174,"0.0-69.0-0.0",0,0,"0TZUd","",NA,"",NA,"null",NA,NA,"",NA,NA,NA,NA,NA,NA,NA,"","",NA,NA,NA,NA,"",NA,NA,NA,NA,NA,NA,NA,NA,NA,NA,NA,NA,NA,NA,NA,NA,NA,NA,NA,NA,NA,NA,NA,"",NA,NA,NA,NA
"79",NA,"deliberation","","html-keyboard-response",78,192437,"0.0-69.0-1.0",0,0,"0TZUd","",1.259,"",NA,"68",NA,NA,"",3,57,25,1,-1,36,40,"Lassa1.jpg","Dekob1.jpg",1,1,57,25,"",NA,NA,NA,NA,NA,NA,NA,NA,NA,NA,NA,NA,NA,NA,NA,NA,NA,NA,NA,NA,NA,NA,NA,"",NA,NA,NA,NA
"80",NA,"choice_confirmation","","html-keyboard-response",79,192955,"0.0-69.0-2.0-0.0",0,0,"0TZUd","",NA,"",NA,"null",NA,NA,"",3,57,25,NA,NA,NA,NA,"","",NA,NA,NA,NA,"",NA,NA,NA,NA,NA,NA,NA,NA,NA,NA,NA,NA,NA,NA,NA,NA,NA,NA,NA,NA,NA,NA,NA,"",NA,NA,NA,NA
"81",NA,"explain_trial","","survey-text",80,210875,"0.0-69.0-5.0-0.0",0,0,"0TZUd","",17.914,"{""Q0"":""It looks like it took more skill to paint. ""}",NA,"",NA,NA,"",3,57,25,NA,NA,NA,NA,"","",NA,NA,NA,NA,"{""Q0"":""It looks like it took more skill to paint. ""}",NA,NA,NA,NA,NA,NA,NA,NA,NA,NA,NA,NA,NA,NA,NA,NA,NA,NA,NA,NA,NA,NA,NA,"",NA,NA,NA,NA
"82",NA,"fixation","","html-keyboard-response",81,211885,"0.0-70.0-0.0",0,0,"0TZUd","",NA,"",NA,"null",NA,NA,"",NA,NA,NA,NA,NA,NA,NA,"","",NA,NA,NA,NA,"",NA,NA,NA,NA,NA,NA,NA,NA,NA,NA,NA,NA,NA,NA,NA,NA,NA,NA,NA,NA,NA,NA,NA,"",NA,NA,NA,NA
"83",NA,"deliberation","","html-keyboard-response",82,213766,"0.0-70.0-1.0",0,0,"0TZUd","",1.877,"",NA,"75",NA,NA,"",4,30,39,1,-1,37,35,"Kraa1n.jpg","Kupb1n.jpg",1,0,39,30,"",NA,NA,NA,NA,NA,NA,NA,NA,NA,NA,NA,NA,NA,NA,NA,NA,NA,NA,NA,NA,NA,NA,NA,"",NA,NA,NA,NA
"84",NA,"choice_confirmation","","html-keyboard-response",83,214273,"0.0-70.0-2.0-0.0",0,0,"0TZUd","",NA,"",NA,"null",NA,NA,"",4,30,39,NA,NA,NA,NA,"","",NA,NA,NA,NA,"",NA,NA,NA,NA,NA,NA,NA,NA,NA,NA,NA,NA,NA,NA,NA,NA,NA,NA,NA,NA,NA,NA,NA,"",NA,NA,NA,NA
"85",NA,"explain_trial","","survey-text",84,223200,"0.0-70.0-5.0-0.0",0,0,"0TZUd","",8.923,"{""Q0"":""I like the details more""}",NA,"",NA,NA,"",4,30,39,NA,NA,NA,NA,"","",NA,NA,NA,NA,"{""Q0"":""I like the details more""}",NA,NA,NA,NA,NA,NA,NA,NA,NA,NA,NA,NA,NA,NA,NA,NA,NA,NA,NA,NA,NA,NA,NA,"",NA,NA,NA,NA
"86",NA,"fixation","","html-keyboard-response",85,224216,"0.0-71.0-0.0",0,0,"0TZUd","",NA,"",NA,"null",NA,NA,"",NA,NA,NA,NA,NA,NA,NA,"","",NA,NA,NA,NA,"",NA,NA,NA,NA,NA,NA,NA,NA,NA,NA,NA,NA,NA,NA,NA,NA,NA,NA,NA,NA,NA,NA,NA,"",NA,NA,NA,NA
"87",NA,"deliberation","","html-keyboard-response",86,227451,"0.0-71.0-1.0",0,0,"0TZUd","",3.23,"",NA,"75",NA,NA,"",5,38,35,1,-1,34,35,"Krasa1.jpg","Gusa1n.jpg",1,0,35,38,"",NA,NA,NA,NA,NA,NA,NA,NA,NA,NA,NA,NA,NA,NA,NA,NA,NA,NA,NA,NA,NA,NA,NA,"",NA,NA,NA,NA
"88",NA,"choice_confirmation","","html-keyboard-response",87,227969,"0.0-71.0-2.0-0.0",0,0,"0TZUd","",NA,"",NA,"null",NA,NA,"",5,38,35,NA,NA,NA,NA,"","",NA,NA,NA,NA,"",NA,NA,NA,NA,NA,NA,NA,NA,NA,NA,NA,NA,NA,NA,NA,NA,NA,NA,NA,NA,NA,NA,NA,"",NA,NA,NA,NA
"89",NA,"explain_trial","","survey-text",88,235075,"0.0-71.0-5.0-0.0",0,0,"0TZUd","",7.102,"{""Q0"":""historical value""}",NA,"",NA,NA,"",5,38,35,NA,NA,NA,NA,"","",NA,NA,NA,NA,"{""Q0"":""historical value""}",NA,NA,NA,NA,NA,NA,NA,NA,NA,NA,NA,NA,NA,NA,NA,NA,NA,NA,NA,NA,NA,NA,NA,"",NA,NA,NA,NA
"90",NA,"fixation","","html-keyboard-response",89,236080,"0.0-72.0-0.0",0,0,"0TZUd","",NA,"",NA,"null",NA,NA,"",NA,NA,NA,NA,NA,NA,NA,"","",NA,NA,NA,NA,"",NA,NA,NA,NA,NA,NA,NA,NA,NA,NA,NA,NA,NA,NA,NA,NA,NA,NA,NA,NA,NA,NA,NA,"",NA,NA,NA,NA
"91",NA,"deliberation","","html-keyboard-response",90,239023,"0.0-72.0-1.0",0,0,"0TZUd","",2.938,"",NA,"75",NA,NA,"",6,51,53,0,1,38,37,"Lewic1.jpg","Macc1n.jpg",1,0,53,51,"",NA,NA,NA,NA,NA,NA,NA,NA,NA,NA,NA,NA,NA,NA,NA,NA,NA,NA,NA,NA,NA,NA,NA,"",NA,NA,NA,NA
"92",NA,"choice_confirmation","","html-keyboard-response",91,239541,"0.0-72.0-2.0-0.0",0,0,"0TZUd","",NA,"",NA,"null",NA,NA,"",6,51,53,NA,NA,NA,NA,"","",NA,NA,NA,NA,"",NA,NA,NA,NA,NA,NA,NA,NA,NA,NA,NA,NA,NA,NA,NA,NA,NA,NA,NA,NA,NA,NA,NA,"",NA,NA,NA,NA
"93",NA,"fixation","","html-keyboard-response",92,240554,"0.0-73.0-0.0",0,0,"0TZUd","",NA,"",NA,"null",NA,NA,"",NA,NA,NA,NA,NA,NA,NA,"","",NA,NA,NA,NA,"",NA,NA,NA,NA,NA,NA,NA,NA,NA,NA,NA,NA,NA,NA,NA,NA,NA,NA,NA,NA,NA,NA,NA,"",NA,NA,NA,NA
"94",NA,"deliberation","","html-keyboard-response",93,242718,"0.0-73.0-1.0",0,0,"0TZUd","",2.16,"",NA,"75",NA,NA,"",7,60,31,0,1,43,39,"Kupc1n.jpg","Picac1.jpg",1,0,31,60,"",NA,NA,NA,NA,NA,NA,NA,NA,NA,NA,NA,NA,NA,NA,NA,NA,NA,NA,NA,NA,NA,NA,NA,"",NA,NA,NA,NA
"95",NA,"choice_confirmation","","html-keyboard-response",94,243225,"0.0-73.0-2.0-0.0",0,0,"0TZUd","",NA,"",NA,"null",NA,NA,"",7,60,31,NA,NA,NA,NA,"","",NA,NA,NA,NA,"",NA,NA,NA,NA,NA,NA,NA,NA,NA,NA,NA,NA,NA,NA,NA,NA,NA,NA,NA,NA,NA,NA,NA,"",NA,NA,NA,NA
"96",NA,"fixation","","html-keyboard-response",95,244238,"0.0-74.0-0.0",0,0,"0TZUd","",NA,"",NA,"null",NA,NA,"",NA,NA,NA,NA,NA,NA,NA,"","",NA,NA,NA,NA,"",NA,NA,NA,NA,NA,NA,NA,NA,NA,NA,NA,NA,NA,NA,NA,NA,NA,NA,NA,NA,NA,NA,NA,"",NA,NA,NA,NA
"97",NA,"deliberation","","html-keyboard-response",96,245775,"0.0-74.0-1.0",0,0,"0TZUd","",1.532,"",NA,"68",NA,NA,"",8,21,22,1,-1,58,38,"Kupkc1.jpg","Klina1.jpg",1,1,21,22,"",NA,NA,NA,NA,NA,NA,NA,NA,NA,NA,NA,NA,NA,NA,NA,NA,NA,NA,NA,NA,NA,NA,NA,"",NA,NA,NA,NA
"98",NA,"choice_confirmation","","html-keyboard-response",97,246291,"0.0-74.0-2.0-0.0",0,0,"0TZUd","",NA,"",NA,"null",NA,NA,"",8,21,22,NA,NA,NA,NA,"","",NA,NA,NA,NA,"",NA,NA,NA,NA,NA,NA,NA,NA,NA,NA,NA,NA,NA,NA,NA,NA,NA,NA,NA,NA,NA,NA,NA,"",NA,NA,NA,NA
"99",NA,"explain_trial","","survey-text",98,252498,"0.0-74.0-5.0-0.0",0,0,"0TZUd","",6.201,"{""Q0"":""it is prettier""}",NA,"",NA,NA,"",8,21,22,NA,NA,NA,NA,"","",NA,NA,NA,NA,"{""Q0"":""it is prettier""}",NA,NA,NA,NA,NA,NA,NA,NA,NA,NA,NA,NA,NA,NA,NA,NA,NA,NA,NA,NA,NA,NA,NA,"",NA,NA,NA,NA
"100",NA,"fixation","","html-keyboard-response",99,253504,"0.0-75.0-0.0",0,0,"0TZUd","",NA,"",NA,"null",NA,NA,"",NA,NA,NA,NA,NA,NA,NA,"","",NA,NA,NA,NA,"",NA,NA,NA,NA,NA,NA,NA,NA,NA,NA,NA,NA,NA,NA,NA,NA,NA,NA,NA,NA,NA,NA,NA,"",NA,NA,NA,NA
"101",NA,"deliberation","","html-keyboard-response",100,255528,"0.0-75.0-1.0",0,0,"0TZUd","",2.021,"",NA,"68",NA,NA,"",9,36,52,1,-1,34,38,"Gustb1.jpg","Dekoa1.jpg",1,1,36,52,"",NA,NA,NA,NA,NA,NA,NA,NA,NA,NA,NA,NA,NA,NA,NA,NA,NA,NA,NA,NA,NA,NA,NA,"",NA,NA,NA,NA
"102",NA,"choice_confirmation","","html-keyboard-response",101,256040,"0.0-75.0-2.0-0.0",0,0,"0TZUd","",NA,"",NA,"null",NA,NA,"",9,36,52,NA,NA,NA,NA,"","",NA,NA,NA,NA,"",NA,NA,NA,NA,NA,NA,NA,NA,NA,NA,NA,NA,NA,NA,NA,NA,NA,NA,NA,NA,NA,NA,NA,"",NA,NA,NA,NA
"103",NA,"explain_trial","","survey-text",102,263511,"0.0-75.0-5.0-0.0",0,0,"0TZUd","",7.467,"{""Q0"":""there is more going on ""}",NA,"",NA,NA,"",9,36,52,NA,NA,NA,NA,"","",NA,NA,NA,NA,"{""Q0"":""there is more going on ""}",NA,NA,NA,NA,NA,NA,NA,NA,NA,NA,NA,NA,NA,NA,NA,NA,NA,NA,NA,NA,NA,NA,NA,"",NA,NA,NA,NA
"104",NA,"fixation","","html-keyboard-response",103,264518,"0.0-76.0-0.0",0,0,"0TZUd","",NA,"",NA,"null",NA,NA,"",NA,NA,NA,NA,NA,NA,NA,"","",NA,NA,NA,NA,"",NA,NA,NA,NA,NA,NA,NA,NA,NA,NA,NA,NA,NA,NA,NA,NA,NA,NA,NA,NA,NA,NA,NA,"",NA,NA,NA,NA
"105",NA,"deliberation","","html-keyboard-response",104,265947,"0.0-76.0-1.0",0,0,"0TZUd","",1.424,"",NA,"75",NA,NA,"",10,67,3,0,1,37,56,"Picab1.jpg","Klib1n.jpg",1,0,3,67,"",NA,NA,NA,NA,NA,NA,NA,NA,NA,NA,NA,NA,NA,NA,NA,NA,NA,NA,NA,NA,NA,NA,NA,"",NA,NA,NA,NA
"106",NA,"choice_confirmation","","html-keyboard-response",105,266454,"0.0-76.0-2.0-0.0",0,0,"0TZUd","",NA,"",NA,"null",NA,NA,"",10,67,3,NA,NA,NA,NA,"","",NA,NA,NA,NA,"",NA,NA,NA,NA,NA,NA,NA,NA,NA,NA,NA,NA,NA,NA,NA,NA,NA,NA,NA,NA,NA,NA,NA,"",NA,NA,NA,NA
"107",NA,"fixation","","html-keyboard-response",106,267467,"0.0-77.0-0.0",0,0,"0TZUd","",NA,"",NA,"null",NA,NA,"",NA,NA,NA,NA,NA,NA,NA,"","",NA,NA,NA,NA,"",NA,NA,NA,NA,NA,NA,NA,NA,NA,NA,NA,NA,NA,NA,NA,NA,NA,NA,NA,NA,NA,NA,NA,"",NA,NA,NA,NA
"108",NA,"deliberation","","html-keyboard-response",107,269021,"0.0-77.0-1.0",0,0,"0TZUd","",1.551,"",NA,"75",NA,NA,"",11,40,61,1,1,36,56,"Vinc1n.jpg","Grigb1.jpg",1,0,61,40,"",NA,NA,NA,NA,NA,NA,NA,NA,NA,NA,NA,NA,NA,NA,NA,NA,NA,NA,NA,NA,NA,NA,NA,"",NA,NA,NA,NA
"109",NA,"choice_confirmation","","html-keyboard-response",108,269531,"0.0-77.0-2.0-0.0",0,0,"0TZUd","",NA,"",NA,"null",NA,NA,"",11,40,61,NA,NA,NA,NA,"","",NA,NA,NA,NA,"",NA,NA,NA,NA,NA,NA,NA,NA,NA,NA,NA,NA,NA,NA,NA,NA,NA,NA,NA,NA,NA,NA,NA,"",NA,NA,NA,NA
"110",NA,"explain_trial","","survey-text",109,277159,"0.0-77.0-5.0-0.0",0,0,"0TZUd","",7.625,"{""Q0"":""It is more detailed""}",NA,"",NA,NA,"",11,40,61,NA,NA,NA,NA,"","",NA,NA,NA,NA,"{""Q0"":""It is more detailed""}",NA,NA,NA,NA,NA,NA,NA,NA,NA,NA,NA,NA,NA,NA,NA,NA,NA,NA,NA,NA,NA,NA,NA,"",NA,NA,NA,NA
"111",NA,"practice_deliberation_again","","html-keyboard-response",110,281515,"0.0-77.0-6.0-0.0",0,0,"0TZUd","",4.353,"",NA,"78",NA,NA,"",NA,NA,NA,NA,NA,NA,NA,"","",NA,NA,NA,NA,"",NA,NA,NA,NA,NA,NA,NA,NA,NA,NA,NA,NA,NA,NA,NA,NA,NA,NA,NA,NA,NA,NA,NA,"",NA,NA,NA,NA
"112",NA,"fixation","","html-keyboard-response",111,282526,"0.0-78.0-0.0",0,0,"0TZUd","",NA,"",NA,"null",NA,NA,"",NA,NA,NA,NA,NA,NA,NA,"","",NA,NA,NA,NA,"",NA,NA,NA,NA,NA,NA,NA,NA,NA,NA,NA,NA,NA,NA,NA,NA,NA,NA,NA,NA,NA,NA,NA,"",NA,NA,NA,NA
"113",NA,"deliberation","","html-keyboard-response",112,284045,"0.0-78.0-1.0",0,0,"0TZUd","",1.517,"",NA,"75",NA,NA,"",12,60,31,1,1,43,39,"Kupc1n.jpg","Picac1.jpg",2,0,31,60,"",NA,NA,NA,NA,NA,NA,NA,NA,NA,NA,NA,NA,NA,NA,NA,NA,NA,NA,NA,NA,NA,NA,NA,"",NA,NA,NA,NA
"114",NA,"choice_confirmation","","html-keyboard-response",113,284561,"0.0-78.0-2.0-0.0",0,0,"0TZUd","",NA,"",NA,"null",NA,NA,"",12,60,31,NA,NA,NA,NA,"","",NA,NA,NA,NA,"",NA,NA,NA,NA,NA,NA,NA,NA,NA,NA,NA,NA,NA,NA,NA,NA,NA,NA,NA,NA,NA,NA,NA,"",NA,NA,NA,NA
"115",NA,"explain_trial","","survey-text",114,289787,"0.0-78.0-5.0-0.0",0,0,"0TZUd","",5.221,"{""Q0"":""It is prettier""}",NA,"",NA,NA,"",12,60,31,NA,NA,NA,NA,"","",NA,NA,NA,NA,"{""Q0"":""It is prettier""}",NA,NA,NA,NA,NA,NA,NA,NA,NA,NA,NA,NA,NA,NA,NA,NA,NA,NA,NA,NA,NA,NA,NA,"",NA,NA,NA,NA
"116",NA,"fixation","","html-keyboard-response",115,290793,"0.0-79.0-0.0",0,0,"0TZUd","",NA,"",NA,"null",NA,NA,"",NA,NA,NA,NA,NA,NA,NA,"","",NA,NA,NA,NA,"",NA,NA,NA,NA,NA,NA,NA,NA,NA,NA,NA,NA,NA,NA,NA,NA,NA,NA,NA,NA,NA,NA,NA,"",NA,NA,NA,NA
"117",NA,"deliberation","","html-keyboard-response",116,291788,"0.0-79.0-1.0",0,0,"0TZUd","",0.991,"",NA,"75",NA,NA,"",13,38,35,0,-1,34,35,"Krasa1.jpg","Gusa1n.jpg",2,0,35,38,"",NA,NA,NA,NA,NA,NA,NA,NA,NA,NA,NA,NA,NA,NA,NA,NA,NA,NA,NA,NA,NA,NA,NA,"",NA,NA,NA,NA
"118",NA,"choice_confirmation","","html-keyboard-response",117,292294,"0.0-79.0-2.0-0.0",0,0,"0TZUd","",NA,"",NA,"null",NA,NA,"",13,38,35,NA,NA,NA,NA,"","",NA,NA,NA,NA,"",NA,NA,NA,NA,NA,NA,NA,NA,NA,NA,NA,NA,NA,NA,NA,NA,NA,NA,NA,NA,NA,NA,NA,"",NA,NA,NA,NA
"119",NA,"fixation","","html-keyboard-response",118,293309,"0.0-80.0-0.0",0,0,"0TZUd","",NA,"",NA,"null",NA,NA,"",NA,NA,NA,NA,NA,NA,NA,"","",NA,NA,NA,NA,"",NA,NA,NA,NA,NA,NA,NA,NA,NA,NA,NA,NA,NA,NA,NA,NA,NA,NA,NA,NA,NA,NA,NA,"",NA,NA,NA,NA
"120",NA,"deliberation","","html-keyboard-response",119,294767,"0.0-80.0-1.0",0,0,"0TZUd","",1.454,"",NA,"68",NA,NA,"",14,46,10,1,-1,54,39,"Lewb1n.jpg","Vinb1n.jpg",2,1,46,10,"",NA,NA,NA,NA,NA,NA,NA,NA,NA,NA,NA,NA,NA,NA,NA,NA,NA,NA,NA,NA,NA,NA,NA,"",NA,NA,NA,NA
"121",NA,"choice_confirmation","","html-keyboard-response",120,295279,"0.0-80.0-2.0-0.0",0,0,"0TZUd","",NA,"",NA,"null",NA,NA,"",14,46,10,NA,NA,NA,NA,"","",NA,NA,NA,NA,"",NA,NA,NA,NA,NA,NA,NA,NA,NA,NA,NA,NA,NA,NA,NA,NA,NA,NA,NA,NA,NA,NA,NA,"",NA,NA,NA,NA
"122",NA,"explain_trial","","survey-text",121,302773,"0.0-80.0-5.0-0.0",0,0,"0TZUd","",7.489,"{""Q0"":""It has more of a story""}",NA,"",NA,NA,"",14,46,10,NA,NA,NA,NA,"","",NA,NA,NA,NA,"{""Q0"":""It has more of a story""}",NA,NA,NA,NA,NA,NA,NA,NA,NA,NA,NA,NA,NA,NA,NA,NA,NA,NA,NA,NA,NA,NA,NA,"",NA,NA,NA,NA
"123",NA,"fixation","","html-keyboard-response",122,303780,"0.0-81.0-0.0",0,0,"0TZUd","",NA,"",NA,"null",NA,NA,"",NA,NA,NA,NA,NA,NA,NA,"","",NA,NA,NA,NA,"",NA,NA,NA,NA,NA,NA,NA,NA,NA,NA,NA,NA,NA,NA,NA,NA,NA,NA,NA,NA,NA,NA,NA,"",NA,NA,NA,NA
"124",NA,"deliberation","","html-keyboard-response",123,305203,"0.0-81.0-1.0",0,0,"0TZUd","",1.418,"",NA,"75",NA,NA,"",15,51,53,1,1,38,37,"Lewic1.jpg","Macc1n.jpg",2,0,53,51,"",NA,NA,NA,NA,NA,NA,NA,NA,NA,NA,NA,NA,NA,NA,NA,NA,NA,NA,NA,NA,NA,NA,NA,"",NA,NA,NA,NA
"125",NA,"choice_confirmation","","html-keyboard-response",124,305716,"0.0-81.0-2.0-0.0",0,0,"0TZUd","",NA,"",NA,"null",NA,NA,"",15,51,53,NA,NA,NA,NA,"","",NA,NA,NA,NA,"",NA,NA,NA,NA,NA,NA,NA,NA,NA,NA,NA,NA,NA,NA,NA,NA,NA,NA,NA,NA,NA,NA,NA,"",NA,NA,NA,NA
"126",NA,"explain_trial","","survey-text",125,310353,"0.0-81.0-5.0-0.0",0,0,"0TZUd","",4.633,"{""Q0"":""more details""}",NA,"",NA,NA,"",15,51,53,NA,NA,NA,NA,"","",NA,NA,NA,NA,"{""Q0"":""more details""}",NA,NA,NA,NA,NA,NA,NA,NA,NA,NA,NA,NA,NA,NA,NA,NA,NA,NA,NA,NA,NA,NA,NA,"",NA,NA,NA,NA
"127",NA,"fixation","","html-keyboard-response",126,311362,"0.0-82.0-0.0",0,0,"0TZUd","",NA,"",NA,"null",NA,NA,"",NA,NA,NA,NA,NA,NA,NA,"","",NA,NA,NA,NA,"",NA,NA,NA,NA,NA,NA,NA,NA,NA,NA,NA,NA,NA,NA,NA,NA,NA,NA,NA,NA,NA,NA,NA,"",NA,NA,NA,NA
"128",NA,"deliberation","","html-keyboard-response",127,312522,"0.0-82.0-1.0",0,0,"0TZUd","",1.155,"",NA,"68",NA,NA,"",16,36,52,0,-1,34,38,"Gustb1.jpg","Dekoa1.jpg",2,1,36,52,"",NA,NA,NA,NA,NA,NA,NA,NA,NA,NA,NA,NA,NA,NA,NA,NA,NA,NA,NA,NA,NA,NA,NA,"",NA,NA,NA,NA
"129",NA,"choice_confirmation","","html-keyboard-response",128,313026,"0.0-82.0-2.0-0.0",0,0,"0TZUd","",NA,"",NA,"null",NA,NA,"",16,36,52,NA,NA,NA,NA,"","",NA,NA,NA,NA,"",NA,NA,NA,NA,NA,NA,NA,NA,NA,NA,NA,NA,NA,NA,NA,NA,NA,NA,NA,NA,NA,NA,NA,"",NA,NA,NA,NA
"130",NA,"fixation","","html-keyboard-response",129,314041,"0.0-83.0-0.0",0,0,"0TZUd","",NA,"",NA,"null",NA,NA,"",NA,NA,NA,NA,NA,NA,NA,"","",NA,NA,NA,NA,"",NA,NA,NA,NA,NA,NA,NA,NA,NA,NA,NA,NA,NA,NA,NA,NA,NA,NA,NA,NA,NA,NA,NA,"",NA,NA,NA,NA
"131",NA,"deliberation","","html-keyboard-response",130,314911,"0.0-83.0-1.0",0,0,"0TZUd","",0.865,"",NA,"68",NA,NA,"",17,21,22,0,-1,58,38,"Kupkc1.jpg","Klina1.jpg",2,1,21,22,"",NA,NA,NA,NA,NA,NA,NA,NA,NA,NA,NA,NA,NA,NA,NA,NA,NA,NA,NA,NA,NA,NA,NA,"",NA,NA,NA,NA
"132",NA,"choice_confirmation","","html-keyboard-response",131,315424,"0.0-83.0-2.0-0.0",0,0,"0TZUd","",NA,"",NA,"null",NA,NA,"",17,21,22,NA,NA,NA,NA,"","",NA,NA,NA,NA,"",NA,NA,NA,NA,NA,NA,NA,NA,NA,NA,NA,NA,NA,NA,NA,NA,NA,NA,NA,NA,NA,NA,NA,"",NA,NA,NA,NA
"133",NA,"fixation","","html-keyboard-response",132,316441,"0.0-84.0-0.0",0,0,"0TZUd","",NA,"",NA,"null",NA,NA,"",NA,NA,NA,NA,NA,NA,NA,"","",NA,NA,NA,NA,"",NA,NA,NA,NA,NA,NA,NA,NA,NA,NA,NA,NA,NA,NA,NA,NA,NA,NA,NA,NA,NA,NA,NA,"",NA,NA,NA,NA
"134",NA,"deliberation","","html-keyboard-response",133,317845,"0.0-84.0-1.0",0,0,"0TZUd","",1.399,"",NA,"75",NA,NA,"",18,30,39,0,-1,37,35,"Kraa1n.jpg","Kupb1n.jpg",2,0,39,30,"",NA,NA,NA,NA,NA,NA,NA,NA,NA,NA,NA,NA,NA,NA,NA,NA,NA,NA,NA,NA,NA,NA,NA,"",NA,NA,NA,NA
"135",NA,"choice_confirmation","","html-keyboard-response",134,318358,"0.0-84.0-2.0-0.0",0,0,"0TZUd","",NA,"",NA,"null",NA,NA,"",18,30,39,NA,NA,NA,NA,"","",NA,NA,NA,NA,"",NA,NA,NA,NA,NA,NA,NA,NA,NA,NA,NA,NA,NA,NA,NA,NA,NA,NA,NA,NA,NA,NA,NA,"",NA,NA,NA,NA
"136",NA,"fixation","","html-keyboard-response",135,319372,"0.0-85.0-0.0",0,0,"0TZUd","",NA,"",NA,"null",NA,NA,"",NA,NA,NA,NA,NA,NA,NA,"","",NA,NA,NA,NA,"",NA,NA,NA,NA,NA,NA,NA,NA,NA,NA,NA,NA,NA,NA,NA,NA,NA,NA,NA,NA,NA,NA,NA,"",NA,NA,NA,NA
"137",NA,"deliberation","","html-keyboard-response",136,320226,"0.0-85.0-1.0",0,0,"0TZUd","",0.849,"",NA,"75",NA,NA,"",19,40,61,0,1,36,56,"Vinc1n.jpg","Grigb1.jpg",2,0,61,40,"",NA,NA,NA,NA,NA,NA,NA,NA,NA,NA,NA,NA,NA,NA,NA,NA,NA,NA,NA,NA,NA,NA,NA,"",NA,NA,NA,NA
"138",NA,"choice_confirmation","","html-keyboard-response",137,320740,"0.0-85.0-2.0-0.0",0,0,"0TZUd","",NA,"",NA,"null",NA,NA,"",19,40,61,NA,NA,NA,NA,"","",NA,NA,NA,NA,"",NA,NA,NA,NA,NA,NA,NA,NA,NA,NA,NA,NA,NA,NA,NA,NA,NA,NA,NA,NA,NA,NA,NA,"",NA,NA,NA,NA
"139",NA,"fixation","","html-keyboard-response",138,321758,"0.0-86.0-0.0",0,0,"0TZUd","",NA,"",NA,"null",NA,NA,"",NA,NA,NA,NA,NA,NA,NA,"","",NA,NA,NA,NA,"",NA,NA,NA,NA,NA,NA,NA,NA,NA,NA,NA,NA,NA,NA,NA,NA,NA,NA,NA,NA,NA,NA,NA,"",NA,NA,NA,NA
"140",NA,"deliberation","","html-keyboard-response",139,322916,"0.0-86.0-1.0",0,0,"0TZUd","",1.154,"",NA,"68",NA,NA,"",20,57,25,0,-1,36,40,"Lassa1.jpg","Dekob1.jpg",2,1,57,25,"",NA,NA,NA,NA,NA,NA,NA,NA,NA,NA,NA,NA,NA,NA,NA,NA,NA,NA,NA,NA,NA,NA,NA,"",NA,NA,NA,NA
"141",NA,"choice_confirmation","","html-keyboard-response",140,323424,"0.0-86.0-2.0-0.0",0,0,"0TZUd","",NA,"",NA,"null",NA,NA,"",20,57,25,NA,NA,NA,NA,"","",NA,NA,NA,NA,"",NA,NA,NA,NA,NA,NA,NA,NA,NA,NA,NA,NA,NA,NA,NA,NA,NA,NA,NA,NA,NA,NA,NA,"",NA,NA,NA,NA
"142",NA,"fixation","","html-keyboard-response",141,324439,"0.0-87.0-0.0",0,0,"0TZUd","",NA,"",NA,"null",NA,NA,"",NA,NA,NA,NA,NA,NA,NA,"","",NA,NA,NA,NA,"",NA,NA,NA,NA,NA,NA,NA,NA,NA,NA,NA,NA,NA,NA,NA,NA,NA,NA,NA,NA,NA,NA,NA,"",NA,NA,NA,NA
"143",NA,"deliberation","","html-keyboard-response",142,325444,"0.0-87.0-1.0",0,0,"0TZUd","",1,"",NA,"68",NA,NA,"",21,59,58,1,1,42,40,"Macka1.jpg","Klinc1.jpg",2,1,59,58,"",NA,NA,NA,NA,NA,NA,NA,NA,NA,NA,NA,NA,NA,NA,NA,NA,NA,NA,NA,NA,NA,NA,NA,"",NA,NA,NA,NA
"144",NA,"choice_confirmation","","html-keyboard-response",143,325957,"0.0-87.0-2.0-0.0",0,0,"0TZUd","",NA,"",NA,"null",NA,NA,"",21,59,58,NA,NA,NA,NA,"","",NA,NA,NA,NA,"",NA,NA,NA,NA,NA,NA,NA,NA,NA,NA,NA,NA,NA,NA,NA,NA,NA,NA,NA,NA,NA,NA,NA,"",NA,NA,NA,NA
"145",NA,"explain_trial","","survey-text",144,335167,"0.0-87.0-5.0-0.0",0,0,"0TZUd","",9.206,"{""Q0"":""it looks more professional\n""}",NA,"",NA,NA,"",21,59,58,NA,NA,NA,NA,"","",NA,NA,NA,NA,"{""Q0"":""it looks more professional\n""}",NA,NA,NA,NA,NA,NA,NA,NA,NA,NA,NA,NA,NA,NA,NA,NA,NA,NA,NA,NA,NA,NA,NA,"",NA,NA,NA,NA
"146",NA,"fixation","","html-keyboard-response",145,336171,"0.0-88.0-0.0",0,0,"0TZUd","",NA,"",NA,"null",NA,NA,"",NA,NA,NA,NA,NA,NA,NA,"","",NA,NA,NA,NA,"",NA,NA,NA,NA,NA,NA,NA,NA,NA,NA,NA,NA,NA,NA,NA,NA,NA,NA,NA,NA,NA,NA,NA,"",NA,NA,NA,NA
"147",NA,"deliberation","","html-keyboard-response",146,337114,"0.0-88.0-1.0",0,0,"0TZUd","",0.938,"",NA,"75",NA,NA,"",22,67,3,1,1,37,56,"Picab1.jpg","Klib1n.jpg",2,0,3,67,"",NA,NA,NA,NA,NA,NA,NA,NA,NA,NA,NA,NA,NA,NA,NA,NA,NA,NA,NA,NA,NA,NA,NA,"",NA,NA,NA,NA
"148",NA,"choice_confirmation","","html-keyboard-response",147,337622,"0.0-88.0-2.0-0.0",0,0,"0TZUd","",NA,"",NA,"null",NA,NA,"",22,67,3,NA,NA,NA,NA,"","",NA,NA,NA,NA,"",NA,NA,NA,NA,NA,NA,NA,NA,NA,NA,NA,NA,NA,NA,NA,NA,NA,NA,NA,NA,NA,NA,NA,"",NA,NA,NA,NA
"149",NA,"explain_trial","","survey-text",148,345519,"0.0-88.0-5.0-0.0",0,0,"0TZUd","",7.894,"{""Q0"":""I prefer still lifes""}",NA,"",NA,NA,"",22,67,3,NA,NA,NA,NA,"","",NA,NA,NA,NA,"{""Q0"":""I prefer still lifes""}",NA,NA,NA,NA,NA,NA,NA,NA,NA,NA,NA,NA,NA,NA,NA,NA,NA,NA,NA,NA,NA,NA,NA,"",NA,NA,NA,NA
"150",NA,"fixation","","html-keyboard-response",149,346536,"0.0-89.0-0.0",0,0,"0TZUd","",NA,"",NA,"null",NA,NA,"",NA,NA,NA,NA,NA,NA,NA,"","",NA,NA,NA,NA,"",NA,NA,NA,NA,NA,NA,NA,NA,NA,NA,NA,NA,NA,NA,NA,NA,NA,NA,NA,NA,NA,NA,NA,"",NA,NA,NA,NA
"151",NA,"deliberation","","html-keyboard-response",150,348032,"0.0-89.0-1.0",0,0,"0TZUd","",1.491,"",NA,"75",NA,NA,"",23,44,56,1,1,35,54,"Mackb1.jpg","Clib1n.jpg",2,0,56,44,"",NA,NA,NA,NA,NA,NA,NA,NA,NA,NA,NA,NA,NA,NA,NA,NA,NA,NA,NA,NA,NA,NA,NA,"",NA,NA,NA,NA
"152",NA,"choice_confirmation","","html-keyboard-response",151,348537,"0.0-89.0-2.0-0.0",0,0,"0TZUd","",NA,"",NA,"null",NA,NA,"",23,44,56,NA,NA,NA,NA,"","",NA,NA,NA,NA,"",NA,NA,NA,NA,NA,NA,NA,NA,NA,NA,NA,NA,NA,NA,NA,NA,NA,NA,NA,NA,NA,NA,NA,"",NA,NA,NA,NA
"153",NA,"explain_trial","","survey-text",152,353237,"0.0-89.0-5.0-0.0",0,0,"0TZUd","",4.697,"{""Q0"":""details""}",NA,"",NA,NA,"",23,44,56,NA,NA,NA,NA,"","",NA,NA,NA,NA,"{""Q0"":""details""}",NA,NA,NA,NA,NA,NA,NA,NA,NA,NA,NA,NA,NA,NA,NA,NA,NA,NA,NA,NA,NA,NA,NA,"",NA,NA,NA,NA
"154",NA,"start_critical_deliberation_block","","html-keyboard-response",153,355093,"0.0-89.0-7.0-0.0",0,0,"0TZUd","",1.853,"",NA,"78",NA,NA,"",NA,NA,NA,NA,NA,NA,NA,"","",NA,NA,NA,NA,"",NA,NA,NA,NA,NA,NA,NA,NA,NA,NA,NA,NA,NA,NA,NA,NA,NA,NA,NA,NA,NA,NA,NA,"",NA,NA,NA,NA
"155",NA,"fixation","","html-keyboard-response",154,356100,"0.0-90.0-0.0",0,0,"0TZUd","",NA,"",NA,"null",NA,NA,"",NA,NA,NA,NA,NA,NA,NA,"","",NA,NA,NA,NA,"",NA,NA,NA,NA,NA,NA,NA,NA,NA,NA,NA,NA,NA,NA,NA,NA,NA,NA,NA,NA,NA,NA,NA,"",NA,NA,NA,NA
"156",NA,"deliberation","","html-keyboard-response",155,359171,"0.0-90.0-1.0",0,0,"0TZUd","",3.066,"",NA,"75",NA,NA,"",24,67,3,0,1,37,56,"Picab1.jpg","Klib1n.jpg",3,0,3,67,"",NA,NA,NA,NA,NA,NA,NA,NA,NA,NA,NA,NA,NA,NA,NA,NA,NA,NA,NA,NA,NA,NA,NA,"",NA,NA,NA,NA
"157",NA,"choice_confirmation","","html-keyboard-response",156,359687,"0.0-90.0-2.0-0.0",0,0,"0TZUd","",NA,"",NA,"null",NA,NA,"",24,67,3,NA,NA,NA,NA,"","",NA,NA,NA,NA,"",NA,NA,NA,NA,NA,NA,NA,NA,NA,NA,NA,NA,NA,NA,NA,NA,NA,NA,NA,NA,NA,NA,NA,"",NA,NA,NA,NA
"158",NA,"fixation","","html-keyboard-response",157,360700,"0.0-91.0-0.0",0,0,"0TZUd","",NA,"",NA,"null",NA,NA,"",NA,NA,NA,NA,NA,NA,NA,"","",NA,NA,NA,NA,"",NA,NA,NA,NA,NA,NA,NA,NA,NA,NA,NA,NA,NA,NA,NA,NA,NA,NA,NA,NA,NA,NA,NA,"",NA,NA,NA,NA
"159",NA,"deliberation","","html-keyboard-response",158,361831,"0.0-91.0-1.0",0,0,"0TZUd","",1.127,"",NA,"75",NA,NA,"",25,44,56,0,1,35,54,"Mackb1.jpg","Clib1n.jpg",3,0,56,44,"",NA,NA,NA,NA,NA,NA,NA,NA,NA,NA,NA,NA,NA,NA,NA,NA,NA,NA,NA,NA,NA,NA,NA,"",NA,NA,NA,NA
"160",NA,"choice_confirmation","","html-keyboard-response",159,362347,"0.0-91.0-2.0-0.0",0,0,"0TZUd","",NA,"",NA,"null",NA,NA,"",25,44,56,NA,NA,NA,NA,"","",NA,NA,NA,NA,"",NA,NA,NA,NA,NA,NA,NA,NA,NA,NA,NA,NA,NA,NA,NA,NA,NA,NA,NA,NA,NA,NA,NA,"",NA,NA,NA,NA
"161",NA,"fixation","","html-keyboard-response",160,363368,"0.0-92.0-0.0",0,0,"0TZUd","",NA,"",NA,"null",NA,NA,"",NA,NA,NA,NA,NA,NA,NA,"","",NA,NA,NA,NA,"",NA,NA,NA,NA,NA,NA,NA,NA,NA,NA,NA,NA,NA,NA,NA,NA,NA,NA,NA,NA,NA,NA,NA,"",NA,NA,NA,NA
"162",NA,"deliberation","","html-keyboard-response",161,364398,"0.0-92.0-1.0",0,0,"0TZUd","",1.027,"",NA,"68",NA,NA,"",26,57,25,0,-1,36,40,"Lassa1.jpg","Dekob1.jpg",3,1,57,25,"",NA,NA,NA,NA,NA,NA,NA,NA,NA,NA,NA,NA,NA,NA,NA,NA,NA,NA,NA,NA,NA,NA,NA,"",NA,NA,NA,NA
"163",NA,"choice_confirmation","","html-keyboard-response",162,364916,"0.0-92.0-2.0-0.0",0,0,"0TZUd","",NA,"",NA,"null",NA,NA,"",26,57,25,NA,NA,NA,NA,"","",NA,NA,NA,NA,"",NA,NA,NA,NA,NA,NA,NA,NA,NA,NA,NA,NA,NA,NA,NA,NA,NA,NA,NA,NA,NA,NA,NA,"",NA,NA,NA,NA
"164",NA,"fixation","","html-keyboard-response",163,365934,"0.0-93.0-0.0",0,0,"0TZUd","",NA,"",NA,"null",NA,NA,"",NA,NA,NA,NA,NA,NA,NA,"","",NA,NA,NA,NA,"",NA,NA,NA,NA,NA,NA,NA,NA,NA,NA,NA,NA,NA,NA,NA,NA,NA,NA,NA,NA,NA,NA,NA,"",NA,NA,NA,NA
"165",NA,"deliberation","","html-keyboard-response",164,366746,"0.0-93.0-1.0",0,0,"0TZUd","",0.808,"",NA,"68",NA,NA,"",27,46,10,0,-1,54,39,"Lewb1n.jpg","Vinb1n.jpg",3,1,46,10,"",NA,NA,NA,NA,NA,NA,NA,NA,NA,NA,NA,NA,NA,NA,NA,NA,NA,NA,NA,NA,NA,NA,NA,"",NA,NA,NA,NA
"166",NA,"choice_confirmation","","html-keyboard-response",165,367265,"0.0-93.0-2.0-0.0",0,0,"0TZUd","",NA,"",NA,"null",NA,NA,"",27,46,10,NA,NA,NA,NA,"","",NA,NA,NA,NA,"",NA,NA,NA,NA,NA,NA,NA,NA,NA,NA,NA,NA,NA,NA,NA,NA,NA,NA,NA,NA,NA,NA,NA,"",NA,NA,NA,NA
"167",NA,"fixation","","html-keyboard-response",166,368282,"0.0-94.0-0.0",0,0,"0TZUd","",NA,"",NA,"null",NA,NA,"",NA,NA,NA,NA,NA,NA,NA,"","",NA,NA,NA,NA,"",NA,NA,NA,NA,NA,NA,NA,NA,NA,NA,NA,NA,NA,NA,NA,NA,NA,NA,NA,NA,NA,NA,NA,"",NA,NA,NA,NA
"168",NA,"deliberation","","html-keyboard-response",167,369129,"0.0-94.0-1.0",0,0,"0TZUd","",0.842,"",NA,"68",NA,NA,"",28,59,58,0,1,42,40,"Macka1.jpg","Klinc1.jpg",3,1,59,58,"",NA,NA,NA,NA,NA,NA,NA,NA,NA,NA,NA,NA,NA,NA,NA,NA,NA,NA,NA,NA,NA,NA,NA,"",NA,NA,NA,NA
"169",NA,"choice_confirmation","","html-keyboard-response",168,369649,"0.0-94.0-2.0-0.0",0,0,"0TZUd","",NA,"",NA,"null",NA,NA,"",28,59,58,NA,NA,NA,NA,"","",NA,NA,NA,NA,"",NA,NA,NA,NA,NA,NA,NA,NA,NA,NA,NA,NA,NA,NA,NA,NA,NA,NA,NA,NA,NA,NA,NA,"",NA,NA,NA,NA
"170",NA,"fixation","","html-keyboard-response",169,370666,"0.0-95.0-0.0",0,0,"0TZUd","",NA,"",NA,"null",NA,NA,"",NA,NA,NA,NA,NA,NA,NA,"","",NA,NA,NA,NA,"",NA,NA,NA,NA,NA,NA,NA,NA,NA,NA,NA,NA,NA,NA,NA,NA,NA,NA,NA,NA,NA,NA,NA,"",NA,NA,NA,NA
"171",NA,"deliberation","","html-keyboard-response",170,372328,"0.0-95.0-1.0",0,0,"0TZUd","",1.658,"",NA,"68",NA,NA,"",29,21,22,0,-1,58,38,"Kupkc1.jpg","Klina1.jpg",3,1,21,22,"",NA,NA,NA,NA,NA,NA,NA,NA,NA,NA,NA,NA,NA,NA,NA,NA,NA,NA,NA,NA,NA,NA,NA,"",NA,NA,NA,NA
"172",NA,"choice_confirmation","","html-keyboard-response",171,372837,"0.0-95.0-2.0-0.0",0,0,"0TZUd","",NA,"",NA,"null",NA,NA,"",29,21,22,NA,NA,NA,NA,"","",NA,NA,NA,NA,"",NA,NA,NA,NA,NA,NA,NA,NA,NA,NA,NA,NA,NA,NA,NA,NA,NA,NA,NA,NA,NA,NA,NA,"",NA,NA,NA,NA
"173",NA,"fixation","","html-keyboard-response",172,373850,"0.0-96.0-0.0",0,0,"0TZUd","",NA,"",NA,"null",NA,NA,"",NA,NA,NA,NA,NA,NA,NA,"","",NA,NA,NA,NA,"",NA,NA,NA,NA,NA,NA,NA,NA,NA,NA,NA,NA,NA,NA,NA,NA,NA,NA,NA,NA,NA,NA,NA,"",NA,NA,NA,NA
"174",NA,"deliberation","","html-keyboard-response",173,374901,"0.0-96.0-1.0",0,0,"0TZUd","",1.047,"",NA,"75",NA,NA,"",30,38,35,0,-1,34,35,"Krasa1.jpg","Gusa1n.jpg",3,0,35,38,"",NA,NA,NA,NA,NA,NA,NA,NA,NA,NA,NA,NA,NA,NA,NA,NA,NA,NA,NA,NA,NA,NA,NA,"",NA,NA,NA,NA
"175",NA,"choice_confirmation","","html-keyboard-response",174,375414,"0.0-96.0-2.0-0.0",0,0,"0TZUd","",NA,"",NA,"null",NA,NA,"",30,38,35,NA,NA,NA,NA,"","",NA,NA,NA,NA,"",NA,NA,NA,NA,NA,NA,NA,NA,NA,NA,NA,NA,NA,NA,NA,NA,NA,NA,NA,NA,NA,NA,NA,"",NA,NA,NA,NA
"176",NA,"fixation","","html-keyboard-response",175,376417,"0.0-97.0-0.0",0,0,"0TZUd","",NA,"",NA,"null",NA,NA,"",NA,NA,NA,NA,NA,NA,NA,"","",NA,NA,NA,NA,"",NA,NA,NA,NA,NA,NA,NA,NA,NA,NA,NA,NA,NA,NA,NA,NA,NA,NA,NA,NA,NA,NA,NA,"",NA,NA,NA,NA
"177",NA,"deliberation","","html-keyboard-response",176,377122,"0.0-97.0-1.0",0,0,"0TZUd","",0.699,"",NA,"75",NA,NA,"",31,40,61,0,1,36,56,"Vinc1n.jpg","Grigb1.jpg",3,0,61,40,"",NA,NA,NA,NA,NA,NA,NA,NA,NA,NA,NA,NA,NA,NA,NA,NA,NA,NA,NA,NA,NA,NA,NA,"",NA,NA,NA,NA
"178",NA,"choice_confirmation","","html-keyboard-response",177,377632,"0.0-97.0-2.0-0.0",0,0,"0TZUd","",NA,"",NA,"null",NA,NA,"",31,40,61,NA,NA,NA,NA,"","",NA,NA,NA,NA,"",NA,NA,NA,NA,NA,NA,NA,NA,NA,NA,NA,NA,NA,NA,NA,NA,NA,NA,NA,NA,NA,NA,NA,"",NA,NA,NA,NA
"179",NA,"fixation","","html-keyboard-response",178,378646,"0.0-98.0-0.0",0,0,"0TZUd","",NA,"",NA,"null",NA,NA,"",NA,NA,NA,NA,NA,NA,NA,"","",NA,NA,NA,NA,"",NA,NA,NA,NA,NA,NA,NA,NA,NA,NA,NA,NA,NA,NA,NA,NA,NA,NA,NA,NA,NA,NA,NA,"",NA,NA,NA,NA
"180",NA,"deliberation","","html-keyboard-response",179,379525,"0.0-98.0-1.0",0,0,"0TZUd","",0.875,"",NA,"75",NA,NA,"",32,51,53,0,1,38,37,"Lewic1.jpg","Macc1n.jpg",3,0,53,51,"",NA,NA,NA,NA,NA,NA,NA,NA,NA,NA,NA,NA,NA,NA,NA,NA,NA,NA,NA,NA,NA,NA,NA,"",NA,NA,NA,NA
"181",NA,"choice_confirmation","","html-keyboard-response",180,380031,"0.0-98.0-2.0-0.0",0,0,"0TZUd","",NA,"",NA,"null",NA,NA,"",32,51,53,NA,NA,NA,NA,"","",NA,NA,NA,NA,"",NA,NA,NA,NA,NA,NA,NA,NA,NA,NA,NA,NA,NA,NA,NA,NA,NA,NA,NA,NA,NA,NA,NA,"",NA,NA,NA,NA
"182",NA,"fixation","","html-keyboard-response",181,381047,"0.0-99.0-0.0",0,0,"0TZUd","",NA,"",NA,"null",NA,NA,"",NA,NA,NA,NA,NA,NA,NA,"","",NA,NA,NA,NA,"",NA,NA,NA,NA,NA,NA,NA,NA,NA,NA,NA,NA,NA,NA,NA,NA,NA,NA,NA,NA,NA,NA,NA,"",NA,NA,NA,NA
"183",NA,"deliberation","","html-keyboard-response",182,382142,"0.0-99.0-1.0",0,0,"0TZUd","",1.091,"",NA,"75",NA,NA,"",33,60,31,0,1,43,39,"Kupc1n.jpg","Picac1.jpg",3,0,31,60,"",NA,NA,NA,NA,NA,NA,NA,NA,NA,NA,NA,NA,NA,NA,NA,NA,NA,NA,NA,NA,NA,NA,NA,"",NA,NA,NA,NA
"184",NA,"choice_confirmation","","html-keyboard-response",183,382647,"0.0-99.0-2.0-0.0",0,0,"0TZUd","",NA,"",NA,"null",NA,NA,"",33,60,31,NA,NA,NA,NA,"","",NA,NA,NA,NA,"",NA,NA,NA,NA,NA,NA,NA,NA,NA,NA,NA,NA,NA,NA,NA,NA,NA,NA,NA,NA,NA,NA,NA,"",NA,NA,NA,NA
"185",NA,"fixation","","html-keyboard-response",184,383663,"0.0-100.0-0.0",0,0,"0TZUd","",NA,"",NA,"null",NA,NA,"",NA,NA,NA,NA,NA,NA,NA,"","",NA,NA,NA,NA,"",NA,NA,NA,NA,NA,NA,NA,NA,NA,NA,NA,NA,NA,NA,NA,NA,NA,NA,NA,NA,NA,NA,NA,"",NA,NA,NA,NA
"186",NA,"deliberation","","html-keyboard-response",185,384387,"0.0-100.0-1.0",0,0,"0TZUd","",0.72,"",NA,"68",NA,NA,"",34,36,52,0,-1,34,38,"Gustb1.jpg","Dekoa1.jpg",3,1,36,52,"",NA,NA,NA,NA,NA,NA,NA,NA,NA,NA,NA,NA,NA,NA,NA,NA,NA,NA,NA,NA,NA,NA,NA,"",NA,NA,NA,NA
"187",NA,"choice_confirmation","","html-keyboard-response",186,384896,"0.0-100.0-2.0-0.0",0,0,"0TZUd","",NA,"",NA,"null",NA,NA,"",34,36,52,NA,NA,NA,NA,"","",NA,NA,NA,NA,"",NA,NA,NA,NA,NA,NA,NA,NA,NA,NA,NA,NA,NA,NA,NA,NA,NA,NA,NA,NA,NA,NA,NA,"",NA,NA,NA,NA
"188",NA,"fixation","","html-keyboard-response",187,385912,"0.0-101.0-0.0",0,0,"0TZUd","",NA,"",NA,"null",NA,NA,"",NA,NA,NA,NA,NA,NA,NA,"","",NA,NA,NA,NA,"",NA,NA,NA,NA,NA,NA,NA,NA,NA,NA,NA,NA,NA,NA,NA,NA,NA,NA,NA,NA,NA,NA,NA,"",NA,NA,NA,NA
"189",NA,"deliberation","","html-keyboard-response",188,386669,"0.0-101.0-1.0",0,0,"0TZUd","",0.752,"",NA,"75",NA,NA,"",35,30,39,0,-1,37,35,"Kraa1n.jpg","Kupb1n.jpg",3,0,39,30,"",NA,NA,NA,NA,NA,NA,NA,NA,NA,NA,NA,NA,NA,NA,NA,NA,NA,NA,NA,NA,NA,NA,NA,"",NA,NA,NA,NA
"190",NA,"choice_confirmation","","html-keyboard-response",189,387213,"0.0-101.0-2.0-0.0",0,0,"0TZUd","",NA,"",NA,"null",NA,NA,"",35,30,39,NA,NA,NA,NA,"","",NA,NA,NA,NA,"",NA,NA,NA,NA,NA,NA,NA,NA,NA,NA,NA,NA,NA,NA,NA,NA,NA,NA,NA,NA,NA,NA,NA,"",NA,NA,NA,NA
"191",NA,"reward_learning_instructions","","instructions",190,412275,"0.0-102.0-0.0",0,0,"0TZUd","[{""page_index"":0,""viewing_time"":6154},{""page_index"":1,""viewing_time"":17944},{""page_index"":2,""viewing_time"":962}]",25.06,"",NA,"",NA,NA,"",NA,NA,NA,NA,NA,NA,NA,"","",NA,NA,NA,NA,"",NA,NA,NA,NA,NA,NA,NA,NA,NA,NA,NA,NA,NA,NA,NA,NA,NA,NA,NA,NA,NA,NA,NA,"",NA,NA,NA,NA
"192",NA,"reward_comprehension_check","","survey-multi-choice",191,427369,"0.0-102.0-1.0",0,0,"0TZUd","",15.09,"{""Q0"":""True"",""Q1"":""True"",""Q2"":""Press the space bar to see its outcome"",""Q3"":""Press the relevant key while the outcome is presented""}",0,"",NA,NA,"",NA,NA,NA,NA,NA,NA,NA,"","",NA,NA,NA,NA,"",NA,NA,NA,NA,NA,NA,NA,NA,NA,NA,NA,NA,NA,NA,NA,NA,NA,NA,NA,NA,NA,NA,NA,"",NA,NA,NA,NA
"193",NA,"start_phase","","html-keyboard-response",192,429391,"0.0-103.0",0,0,"0TZUd","",2.019,"",NA,"78",NA,NA,"",NA,NA,NA,NA,NA,NA,NA,"","",NA,NA,NA,NA,"",NA,NA,NA,NA,NA,NA,NA,NA,NA,NA,NA,NA,NA,NA,NA,NA,NA,NA,NA,NA,NA,NA,NA,"",NA,NA,NA,NA
"194",NA,"fixation","","html-keyboard-response",193,430401,"0.0-104.0",0,0,"0TZUd","",NA,"",NA,"null",NA,NA,"",NA,NA,NA,NA,NA,NA,NA,"","",NA,NA,NA,NA,"",NA,NA,NA,NA,NA,NA,NA,NA,NA,NA,NA,NA,NA,NA,NA,NA,NA,NA,NA,NA,NA,NA,NA,"",NA,NA,NA,NA
"195",NA,"see_reward","","html-keyboard-response",194,431282,"0.0-105.0",0,0,"0TZUd","",0.876,"",NA,"32",NA,31,"",0,NA,NA,NA,1,NA,NA,"","",1,NA,NA,NA,"",156,0.876,NA,NA,NA,NA,NA,NA,NA,NA,NA,NA,NA,NA,NA,NA,NA,NA,NA,NA,NA,NA,NA,"",NA,NA,NA,NA
"196",NA,"reward_outcome","","html-keyboard-response",195,433287,"0.0-106.0",0,0,"0TZUd","",1.704,"",NA,"40",NA,31,"",0,NA,NA,NA,NA,NA,NA,"","",NA,NA,NA,NA,"",NA,NA,-1,1.704,NA,NA,NA,NA,NA,NA,NA,NA,NA,NA,NA,NA,NA,NA,NA,NA,NA,NA,NA,"",NA,NA,NA,NA
"197",NA,"fixation","","html-keyboard-response",196,434301,"0.0-109.0",0,0,"0TZUd","",NA,"",NA,"null",NA,NA,"",NA,NA,NA,NA,NA,NA,NA,"","",NA,NA,NA,NA,"",NA,NA,NA,NA,NA,NA,NA,NA,NA,NA,NA,NA,NA,NA,NA,NA,NA,NA,NA,NA,NA,NA,NA,"",NA,NA,NA,NA
"198",NA,"see_reward","","html-keyboard-response",197,436568,"0.0-110.0",0,0,"0TZUd","",2.264,"",NA,"32",NA,56,"",1,NA,NA,NA,1,NA,NA,"","",1,NA,NA,NA,"",156,2.264,NA,NA,NA,NA,NA,NA,NA,NA,NA,NA,NA,NA,NA,NA,NA,NA,NA,NA,NA,NA,NA,"",NA,NA,NA,NA
"199",NA,"reward_outcome","","html-keyboard-response",198,438572,"0.0-111.0",0,0,"0TZUd","",0.939,"",NA,"38",NA,56,"",1,NA,NA,NA,NA,NA,NA,"","",NA,NA,NA,NA,"",NA,NA,1,0.939,NA,NA,NA,NA,NA,NA,NA,NA,NA,NA,NA,NA,NA,NA,NA,NA,NA,NA,NA,"",NA,NA,NA,NA
"200",NA,"fixation","","html-keyboard-response",199,439584,"0.0-114.0",0,0,"0TZUd","",NA,"",NA,"null",NA,NA,"",NA,NA,NA,NA,NA,NA,NA,"","",NA,NA,NA,NA,"",NA,NA,NA,NA,NA,NA,NA,NA,NA,NA,NA,NA,NA,NA,NA,NA,NA,NA,NA,NA,NA,NA,NA,"",NA,NA,NA,NA
"201",NA,"see_reward","","html-keyboard-response",200,440910,"0.0-115.0",0,0,"0TZUd","",1.322,"",NA,"32",NA,39,"",2,NA,NA,NA,-1,NA,NA,"","",1,NA,NA,NA,"",0,1.322,NA,NA,NA,NA,NA,NA,NA,NA,NA,NA,NA,NA,NA,NA,NA,NA,NA,NA,NA,NA,NA,"",NA,NA,NA,NA
"202",NA,"reward_outcome","","html-keyboard-response",201,442916,"0.0-116.0",0,0,"0TZUd","",1.073,"",NA,"40",NA,39,"",2,NA,NA,NA,NA,NA,NA,"","",NA,NA,NA,NA,"",NA,NA,-1,1.073,NA,NA,NA,NA,NA,NA,NA,NA,NA,NA,NA,NA,NA,NA,NA,NA,NA,NA,NA,"",NA,NA,NA,NA
"203",NA,"fixation","","html-keyboard-response",202,443931,"0.0-119.0",0,0,"0TZUd","",NA,"",NA,"null",NA,NA,"",NA,NA,NA,NA,NA,NA,NA,"","",NA,NA,NA,NA,"",NA,NA,NA,NA,NA,NA,NA,NA,NA,NA,NA,NA,NA,NA,NA,NA,NA,NA,NA,NA,NA,NA,NA,"",NA,NA,NA,NA
"204",NA,"see_reward","","html-keyboard-response",203,444759,"0.0-120.0",0,0,"0TZUd","",0.824,"",NA,"32",NA,57,"",3,NA,NA,NA,-1,NA,NA,"","",1,NA,NA,NA,"",0,0.824,NA,NA,NA,NA,NA,NA,NA,NA,NA,NA,NA,NA,NA,NA,NA,NA,NA,NA,NA,NA,NA,"",NA,NA,NA,NA
"205",NA,"reward_outcome","","html-keyboard-response",204,446765,"0.0-121.0",0,0,"0TZUd","",1.128,"",NA,"40",NA,57,"",3,NA,NA,NA,NA,NA,NA,"","",NA,NA,NA,NA,"",NA,NA,-1,1.128,NA,NA,NA,NA,NA,NA,NA,NA,NA,NA,NA,NA,NA,NA,NA,NA,NA,NA,NA,"",NA,NA,NA,NA
"206",NA,"fixation","","html-keyboard-response",205,447780,"0.0-124.0",0,0,"0TZUd","",NA,"",NA,"null",NA,NA,"",NA,NA,NA,NA,NA,NA,NA,"","",NA,NA,NA,NA,"",NA,NA,NA,NA,NA,NA,NA,NA,NA,NA,NA,NA,NA,NA,NA,NA,NA,NA,NA,NA,NA,NA,NA,"",NA,NA,NA,NA
"207",NA,"see_reward","","html-keyboard-response",206,449117,"0.0-125.0",0,0,"0TZUd","",1.334,"",NA,"32",NA,21,"",4,NA,NA,NA,-1,NA,NA,"","",1,NA,NA,NA,"",0,1.334,NA,NA,NA,NA,NA,NA,NA,NA,NA,NA,NA,NA,NA,NA,NA,NA,NA,NA,NA,NA,NA,"",NA,NA,NA,NA
"208",NA,"reward_outcome","","html-keyboard-response",207,451131,"0.0-126.0",0,0,"0TZUd","",0.783,"",NA,"40",NA,21,"",4,NA,NA,NA,NA,NA,NA,"","",NA,NA,NA,NA,"",NA,NA,-1,0.783,NA,NA,NA,NA,NA,NA,NA,NA,NA,NA,NA,NA,NA,NA,NA,NA,NA,NA,NA,"",NA,NA,NA,NA
"209",NA,"fixation","","html-keyboard-response",208,452146,"0.0-129.0",0,0,"0TZUd","",NA,"",NA,"null",NA,NA,"",NA,NA,NA,NA,NA,NA,NA,"","",NA,NA,NA,NA,"",NA,NA,NA,NA,NA,NA,NA,NA,NA,NA,NA,NA,NA,NA,NA,NA,NA,NA,NA,NA,NA,NA,NA,"",NA,NA,NA,NA
"210",NA,"see_reward","","html-keyboard-response",209,453067,"0.0-130.0",0,0,"0TZUd","",0.919,"",NA,"32",NA,61,"",5,NA,NA,NA,1,NA,NA,"","",1,NA,NA,NA,"",149,0.919,NA,NA,NA,NA,NA,NA,NA,NA,NA,NA,NA,NA,NA,NA,NA,NA,NA,NA,NA,NA,NA,"",NA,NA,NA,NA
"211",NA,"reward_outcome","","html-keyboard-response",210,455080,"0.0-131.0",0,0,"0TZUd","",1.673,"",NA,"38",NA,61,"",5,NA,NA,NA,NA,NA,NA,"","",NA,NA,NA,NA,"",NA,NA,1,1.673,NA,NA,NA,NA,NA,NA,NA,NA,NA,NA,NA,NA,NA,NA,NA,NA,NA,NA,NA,"",NA,NA,NA,NA
"212",NA,"fixation","","html-keyboard-response",211,456095,"0.0-134.0",0,0,"0TZUd","",NA,"",NA,"null",NA,NA,"",NA,NA,NA,NA,NA,NA,NA,"","",NA,NA,NA,NA,"",NA,NA,NA,NA,NA,NA,NA,NA,NA,NA,NA,NA,NA,NA,NA,NA,NA,NA,NA,NA,NA,NA,NA,"",NA,NA,NA,NA
"213",NA,"see_reward","","html-keyboard-response",212,456963,"0.0-135.0",0,0,"0TZUd","",0.865,"",NA,"32",NA,57,"",6,NA,NA,NA,-1,NA,NA,"","",1,NA,NA,NA,"",0,0.865,NA,NA,NA,NA,NA,NA,NA,NA,NA,NA,NA,NA,NA,NA,NA,NA,NA,NA,NA,NA,NA,"",NA,NA,NA,NA
"214",NA,"reward_outcome","","html-keyboard-response",213,458979,"0.0-136.0",0,0,"0TZUd","",0.797,"",NA,"40",NA,57,"",6,NA,NA,NA,NA,NA,NA,"","",NA,NA,NA,NA,"",NA,NA,-1,0.797,NA,NA,NA,NA,NA,NA,NA,NA,NA,NA,NA,NA,NA,NA,NA,NA,NA,NA,NA,"",NA,NA,NA,NA
"215",NA,"fixation","","html-keyboard-response",214,459994,"0.0-139.0",0,0,"0TZUd","",NA,"",NA,"null",NA,NA,"",NA,NA,NA,NA,NA,NA,NA,"","",NA,NA,NA,NA,"",NA,NA,NA,NA,NA,NA,NA,NA,NA,NA,NA,NA,NA,NA,NA,NA,NA,NA,NA,NA,NA,NA,NA,"",NA,NA,NA,NA
"216",NA,"see_reward","","html-keyboard-response",215,460703,"0.0-140.0",0,0,"0TZUd","",0.707,"",NA,"32",NA,46,"",7,NA,NA,NA,-1,NA,NA,"","",1,NA,NA,NA,"",0,0.707,NA,NA,NA,NA,NA,NA,NA,NA,NA,NA,NA,NA,NA,NA,NA,NA,NA,NA,NA,NA,NA,"",NA,NA,NA,NA
"217",NA,"reward_outcome","","html-keyboard-response",216,462713,"0.0-141.0",0,0,"0TZUd","",0.985,"",NA,"40",NA,46,"",7,NA,NA,NA,NA,NA,NA,"","",NA,NA,NA,NA,"",NA,NA,-1,0.985,NA,NA,NA,NA,NA,NA,NA,NA,NA,NA,NA,NA,NA,NA,NA,NA,NA,NA,NA,"",NA,NA,NA,NA
"218",NA,"fixation","","html-keyboard-response",217,463726,"0.0-144.0",0,0,"0TZUd","",NA,"",NA,"null",NA,NA,"",NA,NA,NA,NA,NA,NA,NA,"","",NA,NA,NA,NA,"",NA,NA,NA,NA,NA,NA,NA,NA,NA,NA,NA,NA,NA,NA,NA,NA,NA,NA,NA,NA,NA,NA,NA,"",NA,NA,NA,NA
"219",NA,"see_reward","","html-keyboard-response",218,465086,"0.0-145.0",0,0,"0TZUd","",1.357,"",NA,"32",NA,36,"",8,NA,NA,NA,-1,NA,NA,"","",1,NA,NA,NA,"",0,1.357,NA,NA,NA,NA,NA,NA,NA,NA,NA,NA,NA,NA,NA,NA,NA,NA,NA,NA,NA,NA,NA,"",NA,NA,NA,NA
"220",NA,"reward_outcome","","html-keyboard-response",219,467097,"0.0-146.0",0,0,"0TZUd","",0.893,"",NA,"40",NA,36,"",8,NA,NA,NA,NA,NA,NA,"","",NA,NA,NA,NA,"",NA,NA,-1,0.893,NA,NA,NA,NA,NA,NA,NA,NA,NA,NA,NA,NA,NA,NA,NA,NA,NA,NA,NA,"",NA,NA,NA,NA
"221",NA,"fixation","","html-keyboard-response",220,468109,"0.0-149.0",0,0,"0TZUd","",NA,"",NA,"null",NA,NA,"",NA,NA,NA,NA,NA,NA,NA,"","",NA,NA,NA,NA,"",NA,NA,NA,NA,NA,NA,NA,NA,NA,NA,NA,NA,NA,NA,NA,NA,NA,NA,NA,NA,NA,NA,NA,"",NA,NA,NA,NA
"222",NA,"see_reward","","html-keyboard-response",221,468889,"0.0-150.0",0,0,"0TZUd","",0.776,"",NA,"32",NA,35,"",9,NA,NA,NA,-1,NA,NA,"","",1,NA,NA,NA,"",0,0.776,NA,NA,NA,NA,NA,NA,NA,NA,NA,NA,NA,NA,NA,NA,NA,NA,NA,NA,NA,NA,NA,"",NA,NA,NA,NA
"223",NA,"reward_outcome","","html-keyboard-response",222,470893,"0.0-151.0",0,0,"0TZUd","",0.811,"",NA,"40",NA,35,"",9,NA,NA,NA,NA,NA,NA,"","",NA,NA,NA,NA,"",NA,NA,-1,0.811,NA,NA,NA,NA,NA,NA,NA,NA,NA,NA,NA,NA,NA,NA,NA,NA,NA,NA,NA,"",NA,NA,NA,NA
"224",NA,"fixation","","html-keyboard-response",223,471909,"0.0-154.0",0,0,"0TZUd","",NA,"",NA,"null",NA,NA,"",NA,NA,NA,NA,NA,NA,NA,"","",NA,NA,NA,NA,"",NA,NA,NA,NA,NA,NA,NA,NA,NA,NA,NA,NA,NA,NA,NA,NA,NA,NA,NA,NA,NA,NA,NA,"",NA,NA,NA,NA
"225",NA,"see_reward","","html-keyboard-response",224,472570,"0.0-155.0",0,0,"0TZUd","",0.658,"",NA,"32",NA,53,"",10,NA,NA,NA,1,NA,NA,"","",1,NA,NA,NA,"",142,0.658,NA,NA,NA,NA,NA,NA,NA,NA,NA,NA,NA,NA,NA,NA,NA,NA,NA,NA,NA,NA,NA,"",NA,NA,NA,NA
"226",NA,"reward_outcome","","html-keyboard-response",225,474576,"0.0-156.0",0,0,"0TZUd","",0.884,"",NA,"38",NA,53,"",10,NA,NA,NA,NA,NA,NA,"","",NA,NA,NA,NA,"",NA,NA,1,0.884,NA,NA,NA,NA,NA,NA,NA,NA,NA,NA,NA,NA,NA,NA,NA,NA,NA,NA,NA,"",NA,NA,NA,NA
"227",NA,"fixation","","html-keyboard-response",226,475590,"0.0-159.0",0,0,"0TZUd","",NA,"",NA,"null",NA,NA,"",NA,NA,NA,NA,NA,NA,NA,"","",NA,NA,NA,NA,"",NA,NA,NA,NA,NA,NA,NA,NA,NA,NA,NA,NA,NA,NA,NA,NA,NA,NA,NA,NA,NA,NA,NA,"",NA,NA,NA,NA
"228",NA,"see_reward","","html-keyboard-response",227,476286,"0.0-160.0",0,0,"0TZUd","",0.693,"",NA,"32",NA,39,"",11,NA,NA,NA,-1,NA,NA,"","",1,NA,NA,NA,"",0,0.693,NA,NA,NA,NA,NA,NA,NA,NA,NA,NA,NA,NA,NA,NA,NA,NA,NA,NA,NA,NA,NA,"",NA,NA,NA,NA
"229",NA,"reward_outcome","","html-keyboard-response",228,478292,"0.0-161.0",0,0,"0TZUd","",0.869,"",NA,"40",NA,39,"",11,NA,NA,NA,NA,NA,NA,"","",NA,NA,NA,NA,"",NA,NA,-1,0.869,NA,NA,NA,NA,NA,NA,NA,NA,NA,NA,NA,NA,NA,NA,NA,NA,NA,NA,NA,"",NA,NA,NA,NA
"230",NA,"fixation","","html-keyboard-response",229,479306,"0.0-164.0",0,0,"0TZUd","",NA,"",NA,"null",NA,NA,"",NA,NA,NA,NA,NA,NA,NA,"","",NA,NA,NA,NA,"",NA,NA,NA,NA,NA,NA,NA,NA,NA,NA,NA,NA,NA,NA,NA,NA,NA,NA,NA,NA,NA,NA,NA,"",NA,NA,NA,NA
"231",NA,"see_reward","","html-keyboard-response",230,480139,"0.0-165.0",0,0,"0TZUd","",0.828,"",NA,"32",NA,53,"",12,NA,NA,NA,1,NA,NA,"","",1,NA,NA,NA,"",142,0.828,NA,NA,NA,NA,NA,NA,NA,NA,NA,NA,NA,NA,NA,NA,NA,NA,NA,NA,NA,NA,NA,"",NA,NA,NA,NA
"232",NA,"reward_outcome","","html-keyboard-response",231,482157,"0.0-166.0",0,0,"0TZUd","",0.697,"",NA,"38",NA,53,"",12,NA,NA,NA,NA,NA,NA,"","",NA,NA,NA,NA,"",NA,NA,1,0.697,NA,NA,NA,NA,NA,NA,NA,NA,NA,NA,NA,NA,NA,NA,NA,NA,NA,NA,NA,"",NA,NA,NA,NA
"233",NA,"fixation","","html-keyboard-response",232,483173,"0.0-169.0",0,0,"0TZUd","",NA,"",NA,"null",NA,NA,"",NA,NA,NA,NA,NA,NA,NA,"","",NA,NA,NA,NA,"",NA,NA,NA,NA,NA,NA,NA,NA,NA,NA,NA,NA,NA,NA,NA,NA,NA,NA,NA,NA,NA,NA,NA,"",NA,NA,NA,NA
"234",NA,"see_reward","","html-keyboard-response",233,483952,"0.0-170.0",0,0,"0TZUd","",0.776,"",NA,"32",NA,59,"",13,NA,NA,NA,1,NA,NA,"","",1,NA,NA,NA,"",155,0.776,NA,NA,NA,NA,NA,NA,NA,NA,NA,NA,NA,NA,NA,NA,NA,NA,NA,NA,NA,NA,NA,"",NA,NA,NA,NA
"235",NA,"reward_outcome","","html-keyboard-response",234,485957,"0.0-171.0",0,0,"0TZUd","",0.768,"",NA,"38",NA,59,"",13,NA,NA,NA,NA,NA,NA,"","",NA,NA,NA,NA,"",NA,NA,1,0.768,NA,NA,NA,NA,NA,NA,NA,NA,NA,NA,NA,NA,NA,NA,NA,NA,NA,NA,NA,"",NA,NA,NA,NA
"236",NA,"fixation","","html-keyboard-response",235,486971,"0.0-174.0",0,0,"0TZUd","",NA,"",NA,"null",NA,NA,"",NA,NA,NA,NA,NA,NA,NA,"","",NA,NA,NA,NA,"",NA,NA,NA,NA,NA,NA,NA,NA,NA,NA,NA,NA,NA,NA,NA,NA,NA,NA,NA,NA,NA,NA,NA,"",NA,NA,NA,NA
"237",NA,"see_reward","","html-keyboard-response",236,487787,"0.0-175.0",0,0,"0TZUd","",0.812,"",NA,"32",NA,35,"",14,NA,NA,NA,-1,NA,NA,"","",1,NA,NA,NA,"",0,0.812,NA,NA,NA,NA,NA,NA,NA,NA,NA,NA,NA,NA,NA,NA,NA,NA,NA,NA,NA,NA,NA,"",NA,NA,NA,NA
"238",NA,"reward_outcome","","html-keyboard-response",237,489795,"0.0-176.0",0,0,"0TZUd","",0.636,"",NA,"40",NA,35,"",14,NA,NA,NA,NA,NA,NA,"","",NA,NA,NA,NA,"",NA,NA,-1,0.636,NA,NA,NA,NA,NA,NA,NA,NA,NA,NA,NA,NA,NA,NA,NA,NA,NA,NA,NA,"",NA,NA,NA,NA
"239",NA,"fixation","","html-keyboard-response",238,490809,"0.0-179.0",0,0,"0TZUd","",NA,"",NA,"null",NA,NA,"",NA,NA,NA,NA,NA,NA,NA,"","",NA,NA,NA,NA,"",NA,NA,NA,NA,NA,NA,NA,NA,NA,NA,NA,NA,NA,NA,NA,NA,NA,NA,NA,NA,NA,NA,NA,"",NA,NA,NA,NA
"240",NA,"see_reward","","html-keyboard-response",239,491535,"0.0-180.0",0,0,"0TZUd","",0.722,"",NA,"32",NA,56,"",15,NA,NA,NA,1,NA,NA,"","",1,NA,NA,NA,"",156,0.722,NA,NA,NA,NA,NA,NA,NA,NA,NA,NA,NA,NA,NA,NA,NA,NA,NA,NA,NA,NA,NA,"",NA,NA,NA,NA
"241",NA,"reward_outcome","","html-keyboard-response",240,493543,"0.0-181.0",0,0,"0TZUd","",0.762,"",NA,"38",NA,56,"",15,NA,NA,NA,NA,NA,NA,"","",NA,NA,NA,NA,"",NA,NA,1,0.762,NA,NA,NA,NA,NA,NA,NA,NA,NA,NA,NA,NA,NA,NA,NA,NA,NA,NA,NA,"",NA,NA,NA,NA
"242",NA,"fixation","","html-keyboard-response",241,494558,"0.0-184.0",0,0,"0TZUd","",NA,"",NA,"null",NA,NA,"",NA,NA,NA,NA,NA,NA,NA,"","",NA,NA,NA,NA,"",NA,NA,NA,NA,NA,NA,NA,NA,NA,NA,NA,NA,NA,NA,NA,NA,NA,NA,NA,NA,NA,NA,NA,"",NA,NA,NA,NA
"243",NA,"see_reward","","html-keyboard-response",242,495174,"0.0-185.0",0,0,"0TZUd","",0.613,"",NA,"32",NA,36,"",16,NA,NA,NA,-1,NA,NA,"","",1,NA,NA,NA,"",0,0.613,NA,NA,NA,NA,NA,NA,NA,NA,NA,NA,NA,NA,NA,NA,NA,NA,NA,NA,NA,NA,NA,"",NA,NA,NA,NA
"244",NA,"reward_outcome","","html-keyboard-response",243,497192,"0.0-186.0",0,0,"0TZUd","",0.593,"",NA,"40",NA,36,"",16,NA,NA,NA,NA,NA,NA,"","",NA,NA,NA,NA,"",NA,NA,-1,0.593,NA,NA,NA,NA,NA,NA,NA,NA,NA,NA,NA,NA,NA,NA,NA,NA,NA,NA,NA,"",NA,NA,NA,NA
"245",NA,"fixation","","html-keyboard-response",244,498208,"0.0-189.0",0,0,"0TZUd","",NA,"",NA,"null",NA,NA,"",NA,NA,NA,NA,NA,NA,NA,"","",NA,NA,NA,NA,"",NA,NA,NA,NA,NA,NA,NA,NA,NA,NA,NA,NA,NA,NA,NA,NA,NA,NA,NA,NA,NA,NA,NA,"",NA,NA,NA,NA
"246",NA,"see_reward","","html-keyboard-response",245,498854,"0.0-190.0",0,0,"0TZUd","",0.644,"",NA,"32",NA,59,"",17,NA,NA,NA,1,NA,NA,"","",1,NA,NA,NA,"",155,0.644,NA,NA,NA,NA,NA,NA,NA,NA,NA,NA,NA,NA,NA,NA,NA,NA,NA,NA,NA,NA,NA,"",NA,NA,NA,NA
"247",NA,"reward_outcome","","html-keyboard-response",246,500859,"0.0-191.0",0,0,"0TZUd","",0.621,"",NA,"38",NA,59,"",17,NA,NA,NA,NA,NA,NA,"","",NA,NA,NA,NA,"",NA,NA,1,0.621,NA,NA,NA,NA,NA,NA,NA,NA,NA,NA,NA,NA,NA,NA,NA,NA,NA,NA,NA,"",NA,NA,NA,NA
"248",NA,"fixation","","html-keyboard-response",247,501874,"0.0-194.0",0,0,"0TZUd","",NA,"",NA,"null",NA,NA,"",NA,NA,NA,NA,NA,NA,NA,"","",NA,NA,NA,NA,"",NA,NA,NA,NA,NA,NA,NA,NA,NA,NA,NA,NA,NA,NA,NA,NA,NA,NA,NA,NA,NA,NA,NA,"",NA,NA,NA,NA
"249",NA,"see_reward","","html-keyboard-response",248,502766,"0.0-195.0",0,0,"0TZUd","",0.888,"",NA,"32",NA,31,"",18,NA,NA,NA,1,NA,NA,"","",1,NA,NA,NA,"",156,0.888,NA,NA,NA,NA,NA,NA,NA,NA,NA,NA,NA,NA,NA,NA,NA,NA,NA,NA,NA,NA,NA,"",NA,NA,NA,NA
"250",NA,"reward_outcome","","html-keyboard-response",249,504773,"0.0-196.0",0,0,"0TZUd","",0.708,"",NA,"38",NA,31,"",18,NA,NA,NA,NA,NA,NA,"","",NA,NA,NA,NA,"",NA,NA,1,0.708,NA,NA,NA,NA,NA,NA,NA,NA,NA,NA,NA,NA,NA,NA,NA,NA,NA,NA,NA,"",NA,NA,NA,NA
"251",NA,"fixation","","html-keyboard-response",250,505790,"0.0-199.0",0,0,"0TZUd","",NA,"",NA,"null",NA,NA,"",NA,NA,NA,NA,NA,NA,NA,"","",NA,NA,NA,NA,"",NA,NA,NA,NA,NA,NA,NA,NA,NA,NA,NA,NA,NA,NA,NA,NA,NA,NA,NA,NA,NA,NA,NA,"",NA,NA,NA,NA
"252",NA,"see_reward","","html-keyboard-response",251,506455,"0.0-200.0",0,0,"0TZUd","",0.66,"",NA,"32",NA,61,"",19,NA,NA,NA,1,NA,NA,"","",1,NA,NA,NA,"",149,0.66,NA,NA,NA,NA,NA,NA,NA,NA,NA,NA,NA,NA,NA,NA,NA,NA,NA,NA,NA,NA,NA,"",NA,NA,NA,NA
"253",NA,"reward_outcome","","html-keyboard-response",252,508473,"0.0-201.0",0,0,"0TZUd","",0.756,"",NA,"38",NA,61,"",19,NA,NA,NA,NA,NA,NA,"","",NA,NA,NA,NA,"",NA,NA,1,0.756,NA,NA,NA,NA,NA,NA,NA,NA,NA,NA,NA,NA,NA,NA,NA,NA,NA,NA,NA,"",NA,NA,NA,NA
"254",NA,"fixation","","html-keyboard-response",253,509490,"0.0-204.0",0,0,"0TZUd","",NA,"",NA,"null",NA,NA,"",NA,NA,NA,NA,NA,NA,NA,"","",NA,NA,NA,NA,"",NA,NA,NA,NA,NA,NA,NA,NA,NA,NA,NA,NA,NA,NA,NA,NA,NA,NA,NA,NA,NA,NA,NA,"",NA,NA,NA,NA
"255",NA,"see_reward","","html-keyboard-response",254,510167,"0.0-205.0",0,0,"0TZUd","",0.671,"",NA,"32",NA,3,"",20,NA,NA,NA,1,NA,NA,"","",1,NA,NA,NA,"",150,0.671,NA,NA,NA,NA,NA,NA,NA,NA,NA,NA,NA,NA,NA,NA,NA,NA,NA,NA,NA,NA,NA,"",NA,NA,NA,NA
"256",NA,"reward_outcome","","html-keyboard-response",255,512175,"0.0-206.0",0,0,"0TZUd","",0.862,"",NA,"38",NA,3,"",20,NA,NA,NA,NA,NA,NA,"","",NA,NA,NA,NA,"",NA,NA,1,0.862,NA,NA,NA,NA,NA,NA,NA,NA,NA,NA,NA,NA,NA,NA,NA,NA,NA,NA,NA,"",NA,NA,NA,NA
"257",NA,"fixation","","html-keyboard-response",256,513187,"0.0-209.0",0,0,"0TZUd","",NA,"",NA,"null",NA,NA,"",NA,NA,NA,NA,NA,NA,NA,"","",NA,NA,NA,NA,"",NA,NA,NA,NA,NA,NA,NA,NA,NA,NA,NA,NA,NA,NA,NA,NA,NA,NA,NA,NA,NA,NA,NA,"",NA,NA,NA,NA
"258",NA,"see_reward","","html-keyboard-response",257,513757,"0.0-210.0",0,0,"0TZUd","",0.565,"",NA,"32",NA,3,"",21,NA,NA,NA,1,NA,NA,"","",1,NA,NA,NA,"",150,0.565,NA,NA,NA,NA,NA,NA,NA,NA,NA,NA,NA,NA,NA,NA,NA,NA,NA,NA,NA,NA,NA,"",NA,NA,NA,NA
"259",NA,"reward_outcome","","html-keyboard-response",258,515774,"0.0-211.0",0,0,"0TZUd","",0.64,"",NA,"38",NA,3,"",21,NA,NA,NA,NA,NA,NA,"","",NA,NA,NA,NA,"",NA,NA,1,0.64,NA,NA,NA,NA,NA,NA,NA,NA,NA,NA,NA,NA,NA,NA,NA,NA,NA,NA,NA,"",NA,NA,NA,NA
"260",NA,"fixation","","html-keyboard-response",259,516788,"0.0-214.0",0,0,"0TZUd","",NA,"",NA,"null",NA,NA,"",NA,NA,NA,NA,NA,NA,NA,"","",NA,NA,NA,NA,"",NA,NA,NA,NA,NA,NA,NA,NA,NA,NA,NA,NA,NA,NA,NA,NA,NA,NA,NA,NA,NA,NA,NA,"",NA,NA,NA,NA
"261",NA,"see_reward","","html-keyboard-response",260,517576,"0.0-215.0",0,0,"0TZUd","",0.784,"",NA,"32",NA,21,"",22,NA,NA,NA,-1,NA,NA,"","",1,NA,NA,NA,"",0,0.784,NA,NA,NA,NA,NA,NA,NA,NA,NA,NA,NA,NA,NA,NA,NA,NA,NA,NA,NA,NA,NA,"",NA,NA,NA,NA
"262",NA,"reward_outcome","","html-keyboard-response",261,519588,"0.0-216.0",0,0,"0TZUd","",0.643,"",NA,"40",NA,21,"",22,NA,NA,NA,NA,NA,NA,"","",NA,NA,NA,NA,"",NA,NA,-1,0.643,NA,NA,NA,NA,NA,NA,NA,NA,NA,NA,NA,NA,NA,NA,NA,NA,NA,NA,NA,"",NA,NA,NA,NA
"263",NA,"fixation","","html-keyboard-response",262,520604,"0.0-219.0",0,0,"0TZUd","",NA,"",NA,"null",NA,NA,"",NA,NA,NA,NA,NA,NA,NA,"","",NA,NA,NA,NA,"",NA,NA,NA,NA,NA,NA,NA,NA,NA,NA,NA,NA,NA,NA,NA,NA,NA,NA,NA,NA,NA,NA,NA,"",NA,NA,NA,NA
"264",NA,"see_reward","","html-keyboard-response",263,521314,"0.0-220.0",0,0,"0TZUd","",0.706,"",NA,"32",NA,46,"",23,NA,NA,NA,-1,NA,NA,"","",1,NA,NA,NA,"",0,0.706,NA,NA,NA,NA,NA,NA,NA,NA,NA,NA,NA,NA,NA,NA,NA,NA,NA,NA,NA,NA,NA,"",NA,NA,NA,NA
"265",NA,"reward_outcome","","html-keyboard-response",264,523319,"0.0-221.0",0,0,"0TZUd","",0.619,"",NA,"40",NA,46,"",23,NA,NA,NA,NA,NA,NA,"","",NA,NA,NA,NA,"",NA,NA,-1,0.619,NA,NA,NA,NA,NA,NA,NA,NA,NA,NA,NA,NA,NA,NA,NA,NA,NA,NA,NA,"",NA,NA,NA,NA
"266",NA,"block_over","","html-keyboard-response",265,526137,"0.0-223.0-0.0",0,0,"0TZUd","",2.815,"",NA,"78",NA,NA,"",NA,NA,NA,NA,NA,NA,NA,"","",NA,NA,NA,NA,"",NA,NA,NA,NA,NA,NA,NA,NA,NA,NA,NA,NA,NA,NA,NA,NA,NA,NA,NA,NA,NA,NA,NA,"",NA,NA,NA,NA
"267",NA,"fixation","","html-keyboard-response",266,527155,"0.0-224.0",0,0,"0TZUd","",NA,"",NA,"null",NA,NA,"",NA,NA,NA,NA,NA,NA,NA,"","",NA,NA,NA,NA,"",NA,NA,NA,NA,NA,NA,NA,NA,NA,NA,NA,NA,NA,NA,NA,NA,NA,NA,NA,NA,NA,NA,NA,"",NA,NA,NA,NA
"268",NA,"see_reward","","html-keyboard-response",267,528300,"0.0-225.0",0,0,"0TZUd","",1.141,"",NA,"32",NA,61,"",24,NA,NA,NA,1,NA,NA,"","",2,NA,NA,NA,"",149,1.141,NA,NA,NA,NA,NA,NA,NA,NA,NA,NA,NA,NA,NA,NA,NA,NA,NA,NA,NA,NA,NA,"",NA,NA,NA,NA
"269",NA,"reward_outcome","","html-keyboard-response",268,530319,"0.0-226.0",0,0,"0TZUd","",0.736,"",NA,"38",NA,61,"",24,NA,NA,NA,NA,NA,NA,"","",NA,NA,NA,NA,"",NA,NA,1,0.736,NA,NA,NA,NA,NA,NA,NA,NA,NA,NA,NA,NA,NA,NA,NA,NA,NA,NA,NA,"",NA,NA,NA,NA
"270",NA,"fixation","","html-keyboard-response",269,531335,"0.0-229.0",0,0,"0TZUd","",NA,"",NA,"null",NA,NA,"",NA,NA,NA,NA,NA,NA,NA,"","",NA,NA,NA,NA,"",NA,NA,NA,NA,NA,NA,NA,NA,NA,NA,NA,NA,NA,NA,NA,NA,NA,NA,NA,NA,NA,NA,NA,"",NA,NA,NA,NA
"271",NA,"see_reward","","html-keyboard-response",270,532009,"0.0-230.0",0,0,"0TZUd","",0.67,"",NA,"32",NA,21,"",25,NA,NA,NA,-1,NA,NA,"","",2,NA,NA,NA,"",0,0.67,NA,NA,NA,NA,NA,NA,NA,NA,NA,NA,NA,NA,NA,NA,NA,NA,NA,NA,NA,NA,NA,"",NA,NA,NA,NA
"272",NA,"reward_outcome","","html-keyboard-response",271,534018,"0.0-231.0",0,0,"0TZUd","",0.51,"",NA,"40",NA,21,"",25,NA,NA,NA,NA,NA,NA,"","",NA,NA,NA,NA,"",NA,NA,-1,0.51,NA,NA,NA,NA,NA,NA,NA,NA,NA,NA,NA,NA,NA,NA,NA,NA,NA,NA,NA,"",NA,NA,NA,NA
"273",NA,"fixation","","html-keyboard-response",272,535034,"0.0-234.0",0,0,"0TZUd","",NA,"",NA,"null",NA,NA,"",NA,NA,NA,NA,NA,NA,NA,"","",NA,NA,NA,NA,"",NA,NA,NA,NA,NA,NA,NA,NA,NA,NA,NA,NA,NA,NA,NA,NA,NA,NA,NA,NA,NA,NA,NA,"",NA,NA,NA,NA
"274",NA,"see_reward","","html-keyboard-response",273,535533,"0.0-235.0",0,0,"0TZUd","",0.495,"",NA,"32",NA,46,"",26,NA,NA,NA,-1,NA,NA,"","",2,NA,NA,NA,"",0,0.495,NA,NA,NA,NA,NA,NA,NA,NA,NA,NA,NA,NA,NA,NA,NA,NA,NA,NA,NA,NA,NA,"",NA,NA,NA,NA
"275",NA,"reward_outcome","","html-keyboard-response",274,537550,"0.0-236.0",0,0,"0TZUd","",0.491,"",NA,"40",NA,46,"",26,NA,NA,NA,NA,NA,NA,"","",NA,NA,NA,NA,"",NA,NA,-1,0.491,NA,NA,NA,NA,NA,NA,NA,NA,NA,NA,NA,NA,NA,NA,NA,NA,NA,NA,NA,"",NA,NA,NA,NA
"276",NA,"fixation","","html-keyboard-response",275,538566,"0.0-239.0",0,0,"0TZUd","",NA,"",NA,"null",NA,NA,"",NA,NA,NA,NA,NA,NA,NA,"","",NA,NA,NA,NA,"",NA,NA,NA,NA,NA,NA,NA,NA,NA,NA,NA,NA,NA,NA,NA,NA,NA,NA,NA,NA,NA,NA,NA,"",NA,NA,NA,NA
"277",NA,"see_reward","","html-keyboard-response",276,539284,"0.0-240.0",0,0,"0TZUd","",0.715,"",NA,"32",NA,53,"",27,NA,NA,NA,1,NA,NA,"","",2,NA,NA,NA,"",142,0.715,NA,NA,NA,NA,NA,NA,NA,NA,NA,NA,NA,NA,NA,NA,NA,NA,NA,NA,NA,NA,NA,"",NA,NA,NA,NA
"278",NA,"reward_outcome","","html-keyboard-response",277,541290,"0.0-241.0",0,0,"0TZUd","",0.526,"",NA,"38",NA,53,"",27,NA,NA,NA,NA,NA,NA,"","",NA,NA,NA,NA,"",NA,NA,1,0.526,NA,NA,NA,NA,NA,NA,NA,NA,NA,NA,NA,NA,NA,NA,NA,NA,NA,NA,NA,"",NA,NA,NA,NA
"279",NA,"fixation","","html-keyboard-response",278,542300,"0.0-244.0",0,0,"0TZUd","",NA,"",NA,"null",NA,NA,"",NA,NA,NA,NA,NA,NA,NA,"","",NA,NA,NA,NA,"",NA,NA,NA,NA,NA,NA,NA,NA,NA,NA,NA,NA,NA,NA,NA,NA,NA,NA,NA,NA,NA,NA,NA,"",NA,NA,NA,NA
"280",NA,"see_reward","","html-keyboard-response",279,543217,"0.0-245.0",0,0,"0TZUd","",0.913,"",NA,"32",NA,36,"",28,NA,NA,NA,-1,NA,NA,"","",2,NA,NA,NA,"",0,0.913,NA,NA,NA,NA,NA,NA,NA,NA,NA,NA,NA,NA,NA,NA,NA,NA,NA,NA,NA,NA,NA,"",NA,NA,NA,NA
"281",NA,"reward_outcome","","html-keyboard-response",280,545233,"0.0-246.0",0,0,"0TZUd","",0.524,"",NA,"40",NA,36,"",28,NA,NA,NA,NA,NA,NA,"","",NA,NA,NA,NA,"",NA,NA,-1,0.524,NA,NA,NA,NA,NA,NA,NA,NA,NA,NA,NA,NA,NA,NA,NA,NA,NA,NA,NA,"",NA,NA,NA,NA
"282",NA,"fixation","","html-keyboard-response",281,546248,"0.0-249.0",0,0,"0TZUd","",NA,"",NA,"null",NA,NA,"",NA,NA,NA,NA,NA,NA,NA,"","",NA,NA,NA,NA,"",NA,NA,NA,NA,NA,NA,NA,NA,NA,NA,NA,NA,NA,NA,NA,NA,NA,NA,NA,NA,NA,NA,NA,"",NA,NA,NA,NA
"283",NA,"see_reward","","html-keyboard-response",282,547014,"0.0-250.0",0,0,"0TZUd","",0.76,"",NA,"32",NA,31,"",29,NA,NA,NA,1,NA,NA,"","",2,NA,NA,NA,"",156,0.76,NA,NA,NA,NA,NA,NA,NA,NA,NA,NA,NA,NA,NA,NA,NA,NA,NA,NA,NA,NA,NA,"",NA,NA,NA,NA
"284",NA,"reward_outcome","","html-keyboard-response",283,549042,"0.0-251.0",0,0,"0TZUd","",0.5,"",NA,"38",NA,31,"",29,NA,NA,NA,NA,NA,NA,"","",NA,NA,NA,NA,"",NA,NA,1,0.5,NA,NA,NA,NA,NA,NA,NA,NA,NA,NA,NA,NA,NA,NA,NA,NA,NA,NA,NA,"",NA,NA,NA,NA
"285",NA,"fixation","","html-keyboard-response",284,550060,"0.0-254.0",0,0,"0TZUd","",NA,"",NA,"null",NA,NA,"",NA,NA,NA,NA,NA,NA,NA,"","",NA,NA,NA,NA,"",NA,NA,NA,NA,NA,NA,NA,NA,NA,NA,NA,NA,NA,NA,NA,NA,NA,NA,NA,NA,NA,NA,NA,"",NA,NA,NA,NA
"286",NA,"see_reward","","html-keyboard-response",285,550762,"0.0-255.0",0,0,"0TZUd","",0.698,"",NA,"32",NA,36,"",30,NA,NA,NA,-1,NA,NA,"","",2,NA,NA,NA,"",0,0.698,NA,NA,NA,NA,NA,NA,NA,NA,NA,NA,NA,NA,NA,NA,NA,NA,NA,NA,NA,NA,NA,"",NA,NA,NA,NA
"287",NA,"reward_outcome","","html-keyboard-response",286,552775,"0.0-256.0",0,0,"0TZUd","",0.567,"",NA,"40",NA,36,"",30,NA,NA,NA,NA,NA,NA,"","",NA,NA,NA,NA,"",NA,NA,-1,0.567,NA,NA,NA,NA,NA,NA,NA,NA,NA,NA,NA,NA,NA,NA,NA,NA,NA,NA,NA,"",NA,NA,NA,NA
"288",NA,"fixation","","html-keyboard-response",287,553793,"0.0-259.0",0,0,"0TZUd","",NA,"",NA,"null",NA,NA,"",NA,NA,NA,NA,NA,NA,NA,"","",NA,NA,NA,NA,"",NA,NA,NA,NA,NA,NA,NA,NA,NA,NA,NA,NA,NA,NA,NA,NA,NA,NA,NA,NA,NA,NA,NA,"",NA,NA,NA,NA
"289",NA,"see_reward","","html-keyboard-response",288,554783,"0.0-260.0",0,0,"0TZUd","",0.986,"",NA,"32",NA,35,"",31,NA,NA,NA,-1,NA,NA,"","",2,NA,NA,NA,"",0,0.986,NA,NA,NA,NA,NA,NA,NA,NA,NA,NA,NA,NA,NA,NA,NA,NA,NA,NA,NA,NA,NA,"",NA,NA,NA,NA
"290",NA,"reward_outcome","","html-keyboard-response",289,556791,"0.0-261.0",0,0,"0TZUd","",0.612,"",NA,"40",NA,35,"",31,NA,NA,NA,NA,NA,NA,"","",NA,NA,NA,NA,"",NA,NA,-1,0.612,NA,NA,NA,NA,NA,NA,NA,NA,NA,NA,NA,NA,NA,NA,NA,NA,NA,NA,NA,"",NA,NA,NA,NA
"291",NA,"fixation","","html-keyboard-response",290,557794,"0.0-264.0",0,0,"0TZUd","",NA,"",NA,"null",NA,NA,"",NA,NA,NA,NA,NA,NA,NA,"","",NA,NA,NA,NA,"",NA,NA,NA,NA,NA,NA,NA,NA,NA,NA,NA,NA,NA,NA,NA,NA,NA,NA,NA,NA,NA,NA,NA,"",NA,NA,NA,NA
"292",NA,"see_reward","","html-keyboard-response",291,558583,"0.0-265.0",0,0,"0TZUd","",0.785,"",NA,"32",NA,59,"",32,NA,NA,NA,1,NA,NA,"","",2,NA,NA,NA,"",155,0.785,NA,NA,NA,NA,NA,NA,NA,NA,NA,NA,NA,NA,NA,NA,NA,NA,NA,NA,NA,NA,NA,"",NA,NA,NA,NA
"293",NA,"reward_outcome","","html-keyboard-response",292,560590,"0.0-266.0",0,0,"0TZUd","",0.5,"",NA,"38",NA,59,"",32,NA,NA,NA,NA,NA,NA,"","",NA,NA,NA,NA,"",NA,NA,1,0.5,NA,NA,NA,NA,NA,NA,NA,NA,NA,NA,NA,NA,NA,NA,NA,NA,NA,NA,NA,"",NA,NA,NA,NA
"294",NA,"fixation","","html-keyboard-response",293,561606,"0.0-269.0",0,0,"0TZUd","",NA,"",NA,"null",NA,NA,"",NA,NA,NA,NA,NA,NA,NA,"","",NA,NA,NA,NA,"",NA,NA,NA,NA,NA,NA,NA,NA,NA,NA,NA,NA,NA,NA,NA,NA,NA,NA,NA,NA,NA,NA,NA,"",NA,NA,NA,NA
"295",NA,"see_reward","","html-keyboard-response",294,562177,"0.0-270.0",0,0,"0TZUd","",0.568,"",NA,"32",NA,57,"",33,NA,NA,NA,-1,NA,NA,"","",2,NA,NA,NA,"",0,0.568,NA,NA,NA,NA,NA,NA,NA,NA,NA,NA,NA,NA,NA,NA,NA,NA,NA,NA,NA,NA,NA,"",NA,NA,NA,NA
"296",NA,"reward_outcome","","html-keyboard-response",295,564190,"0.0-271.0",0,0,"0TZUd","",0.576,"",NA,"40",NA,57,"",33,NA,NA,NA,NA,NA,NA,"","",NA,NA,NA,NA,"",NA,NA,-1,0.576,NA,NA,NA,NA,NA,NA,NA,NA,NA,NA,NA,NA,NA,NA,NA,NA,NA,NA,NA,"",NA,NA,NA,NA
"297",NA,"fixation","","html-keyboard-response",296,565207,"0.0-274.0",0,0,"0TZUd","",NA,"",NA,"null",NA,NA,"",NA,NA,NA,NA,NA,NA,NA,"","",NA,NA,NA,NA,"",NA,NA,NA,NA,NA,NA,NA,NA,NA,NA,NA,NA,NA,NA,NA,NA,NA,NA,NA,NA,NA,NA,NA,"",NA,NA,NA,NA
"298",NA,"see_reward","","html-keyboard-response",297,565691,"0.0-275.0",0,0,"0TZUd","",0.481,"",NA,"32",NA,39,"",34,NA,NA,NA,-1,NA,NA,"","",2,NA,NA,NA,"",0,0.481,NA,NA,NA,NA,NA,NA,NA,NA,NA,NA,NA,NA,NA,NA,NA,NA,NA,NA,NA,NA,NA,"",NA,NA,NA,NA
"299",NA,"reward_outcome","","html-keyboard-response",298,567703,"0.0-276.0",0,0,"0TZUd","",0.665,"",NA,"40",NA,39,"",34,NA,NA,NA,NA,NA,NA,"","",NA,NA,NA,NA,"",NA,NA,-1,0.665,NA,NA,NA,NA,NA,NA,NA,NA,NA,NA,NA,NA,NA,NA,NA,NA,NA,NA,NA,"",NA,NA,NA,NA
"300",NA,"fixation","","html-keyboard-response",299,568707,"0.0-279.0",0,0,"0TZUd","",NA,"",NA,"null",NA,NA,"",NA,NA,NA,NA,NA,NA,NA,"","",NA,NA,NA,NA,"",NA,NA,NA,NA,NA,NA,NA,NA,NA,NA,NA,NA,NA,NA,NA,NA,NA,NA,NA,NA,NA,NA,NA,"",NA,NA,NA,NA
"301",NA,"see_reward","","html-keyboard-response",300,569289,"0.0-280.0",0,0,"0TZUd","",0.578,"",NA,"32",NA,59,"",35,NA,NA,NA,1,NA,NA,"","",2,NA,NA,NA,"",155,0.578,NA,NA,NA,NA,NA,NA,NA,NA,NA,NA,NA,NA,NA,NA,NA,NA,NA,NA,NA,NA,NA,"",NA,NA,NA,NA
"302",NA,"reward_outcome","","html-keyboard-response",301,571304,"0.0-281.0",0,0,"0TZUd","",0.52,"",NA,"38",NA,59,"",35,NA,NA,NA,NA,NA,NA,"","",NA,NA,NA,NA,"",NA,NA,1,0.52,NA,NA,NA,NA,NA,NA,NA,NA,NA,NA,NA,NA,NA,NA,NA,NA,NA,NA,NA,"",NA,NA,NA,NA
"303",NA,"fixation","","html-keyboard-response",302,572320,"0.0-284.0",0,0,"0TZUd","",NA,"",NA,"null",NA,NA,"",NA,NA,NA,NA,NA,NA,NA,"","",NA,NA,NA,NA,"",NA,NA,NA,NA,NA,NA,NA,NA,NA,NA,NA,NA,NA,NA,NA,NA,NA,NA,NA,NA,NA,NA,NA,"",NA,NA,NA,NA
"304",NA,"see_reward","","html-keyboard-response",303,573184,"0.0-285.0",0,0,"0TZUd","",0.861,"",NA,"32",NA,56,"",36,NA,NA,NA,1,NA,NA,"","",2,NA,NA,NA,"",156,0.861,NA,NA,NA,NA,NA,NA,NA,NA,NA,NA,NA,NA,NA,NA,NA,NA,NA,NA,NA,NA,NA,"",NA,NA,NA,NA
"305",NA,"reward_outcome","","html-keyboard-response",304,575203,"0.0-286.0",0,0,"0TZUd","",0.509,"",NA,"38",NA,56,"",36,NA,NA,NA,NA,NA,NA,"","",NA,NA,NA,NA,"",NA,NA,1,0.509,NA,NA,NA,NA,NA,NA,NA,NA,NA,NA,NA,NA,NA,NA,NA,NA,NA,NA,NA,"",NA,NA,NA,NA
"306",NA,"fixation","","html-keyboard-response",305,576219,"0.0-289.0",0,0,"0TZUd","",NA,"",NA,"null",NA,NA,"",NA,NA,NA,NA,NA,NA,NA,"","",NA,NA,NA,NA,"",NA,NA,NA,NA,NA,NA,NA,NA,NA,NA,NA,NA,NA,NA,NA,NA,NA,NA,NA,NA,NA,NA,NA,"",NA,NA,NA,NA
"307",NA,"see_reward","","html-keyboard-response",306,577045,"0.0-290.0",0,0,"0TZUd","",0.822,"",NA,"32",NA,39,"",37,NA,NA,NA,-1,NA,NA,"","",2,NA,NA,NA,"",0,0.822,NA,NA,NA,NA,NA,NA,NA,NA,NA,NA,NA,NA,NA,NA,NA,NA,NA,NA,NA,NA,NA,"",NA,NA,NA,NA
"308",NA,"reward_outcome","","html-keyboard-response",307,579052,"0.0-291.0",0,0,"0TZUd","",0.526,"",NA,"40",NA,39,"",37,NA,NA,NA,NA,NA,NA,"","",NA,NA,NA,NA,"",NA,NA,-1,0.526,NA,NA,NA,NA,NA,NA,NA,NA,NA,NA,NA,NA,NA,NA,NA,NA,NA,NA,NA,"",NA,NA,NA,NA
"309",NA,"fixation","","html-keyboard-response",308,580069,"0.0-294.0",0,0,"0TZUd","",NA,"",NA,"null",NA,NA,"",NA,NA,NA,NA,NA,NA,NA,"","",NA,NA,NA,NA,"",NA,NA,NA,NA,NA,NA,NA,NA,NA,NA,NA,NA,NA,NA,NA,NA,NA,NA,NA,NA,NA,NA,NA,"",NA,NA,NA,NA
"310",NA,"see_reward","","html-keyboard-response",309,580767,"0.0-295.0",0,0,"0TZUd","",0.694,"",NA,"32",NA,3,"",38,NA,NA,NA,1,NA,NA,"","",2,NA,NA,NA,"",150,0.694,NA,NA,NA,NA,NA,NA,NA,NA,NA,NA,NA,NA,NA,NA,NA,NA,NA,NA,NA,NA,NA,"",NA,NA,NA,NA
"311",NA,"reward_outcome","","html-keyboard-response",310,582784,"0.0-296.0",0,0,"0TZUd","",0.68,"",NA,"38",NA,3,"",38,NA,NA,NA,NA,NA,NA,"","",NA,NA,NA,NA,"",NA,NA,1,0.68,NA,NA,NA,NA,NA,NA,NA,NA,NA,NA,NA,NA,NA,NA,NA,NA,NA,NA,NA,"",NA,NA,NA,NA
"312",NA,"fixation","","html-keyboard-response",311,583795,"0.0-299.0",0,0,"0TZUd","",NA,"",NA,"null",NA,NA,"",NA,NA,NA,NA,NA,NA,NA,"","",NA,NA,NA,NA,"",NA,NA,NA,NA,NA,NA,NA,NA,NA,NA,NA,NA,NA,NA,NA,NA,NA,NA,NA,NA,NA,NA,NA,"",NA,NA,NA,NA
"313",NA,"see_reward","","html-keyboard-response",312,584295,"0.0-300.0",0,0,"0TZUd","",0.495,"",NA,"32",NA,46,"",39,NA,NA,NA,-1,NA,NA,"","",2,NA,NA,NA,"",0,0.495,NA,NA,NA,NA,NA,NA,NA,NA,NA,NA,NA,NA,NA,NA,NA,NA,NA,NA,NA,NA,NA,"",NA,NA,NA,NA
"314",NA,"reward_outcome","","html-keyboard-response",313,586301,"0.0-301.0",0,0,"0TZUd","",0.479,"",NA,"40",NA,46,"",39,NA,NA,NA,NA,NA,NA,"","",NA,NA,NA,NA,"",NA,NA,-1,0.479,NA,NA,NA,NA,NA,NA,NA,NA,NA,NA,NA,NA,NA,NA,NA,NA,NA,NA,NA,"",NA,NA,NA,NA
"315",NA,"fixation","","html-keyboard-response",314,587317,"0.0-304.0",0,0,"0TZUd","",NA,"",NA,"null",NA,NA,"",NA,NA,NA,NA,NA,NA,NA,"","",NA,NA,NA,NA,"",NA,NA,NA,NA,NA,NA,NA,NA,NA,NA,NA,NA,NA,NA,NA,NA,NA,NA,NA,NA,NA,NA,NA,"",NA,NA,NA,NA
"316",NA,"see_reward","","html-keyboard-response",315,588136,"0.0-305.0",0,0,"0TZUd","",0.815,"",NA,"32",NA,3,"",40,NA,NA,NA,1,NA,NA,"","",2,NA,NA,NA,"",150,0.815,NA,NA,NA,NA,NA,NA,NA,NA,NA,NA,NA,NA,NA,NA,NA,NA,NA,NA,NA,NA,NA,"",NA,NA,NA,NA
"317",NA,"reward_outcome","","html-keyboard-response",316,590150,"0.0-306.0",0,0,"0TZUd","",1.315,"",NA,"38",NA,3,"",40,NA,NA,NA,NA,NA,NA,"","",NA,NA,NA,NA,"",NA,NA,1,1.315,NA,NA,NA,NA,NA,NA,NA,NA,NA,NA,NA,NA,NA,NA,NA,NA,NA,NA,NA,"",NA,NA,NA,NA
"318",NA,"fixation","","html-keyboard-response",317,591167,"0.0-309.0",0,0,"0TZUd","",NA,"",NA,"null",NA,NA,"",NA,NA,NA,NA,NA,NA,NA,"","",NA,NA,NA,NA,"",NA,NA,NA,NA,NA,NA,NA,NA,NA,NA,NA,NA,NA,NA,NA,NA,NA,NA,NA,NA,NA,NA,NA,"",NA,NA,NA,NA
"319",NA,"see_reward","","html-keyboard-response",318,591841,"0.0-310.0",0,0,"0TZUd","",0.669,"",NA,"32",NA,21,"",41,NA,NA,NA,-1,NA,NA,"","",2,NA,NA,NA,"",0,0.669,NA,NA,NA,NA,NA,NA,NA,NA,NA,NA,NA,NA,NA,NA,NA,NA,NA,NA,NA,NA,NA,"",NA,NA,NA,NA
"320",NA,"reward_outcome","","html-keyboard-response",319,593849,"0.0-311.0",0,0,"0TZUd","",0.532,"",NA,"40",NA,21,"",41,NA,NA,NA,NA,NA,NA,"","",NA,NA,NA,NA,"",NA,NA,-1,0.532,NA,NA,NA,NA,NA,NA,NA,NA,NA,NA,NA,NA,NA,NA,NA,NA,NA,NA,NA,"",NA,NA,NA,NA
"321",NA,"fixation","","html-keyboard-response",320,594865,"0.0-314.0",0,0,"0TZUd","",NA,"",NA,"null",NA,NA,"",NA,NA,NA,NA,NA,NA,NA,"","",NA,NA,NA,NA,"",NA,NA,NA,NA,NA,NA,NA,NA,NA,NA,NA,NA,NA,NA,NA,NA,NA,NA,NA,NA,NA,NA,NA,"",NA,NA,NA,NA
"322",NA,"see_reward","","html-keyboard-response",321,595640,"0.0-315.0",0,0,"0TZUd","",0.772,"",NA,"32",NA,31,"",42,NA,NA,NA,1,NA,NA,"","",2,NA,NA,NA,"",156,0.772,NA,NA,NA,NA,NA,NA,NA,NA,NA,NA,NA,NA,NA,NA,NA,NA,NA,NA,NA,NA,NA,"",NA,NA,NA,NA
"323",NA,"reward_outcome","","html-keyboard-response",322,597648,"0.0-316.0",0,0,"0TZUd","",0.665,"",NA,"38",NA,31,"",42,NA,NA,NA,NA,NA,NA,"","",NA,NA,NA,NA,"",NA,NA,1,0.665,NA,NA,NA,NA,NA,NA,NA,NA,NA,NA,NA,NA,NA,NA,NA,NA,NA,NA,NA,"",NA,NA,NA,NA
"324",NA,"fixation","","html-keyboard-response",323,598665,"0.0-319.0",0,0,"0TZUd","",NA,"",NA,"null",NA,NA,"",NA,NA,NA,NA,NA,NA,NA,"","",NA,NA,NA,NA,"",NA,NA,NA,NA,NA,NA,NA,NA,NA,NA,NA,NA,NA,NA,NA,NA,NA,NA,NA,NA,NA,NA,NA,"",NA,NA,NA,NA
"325",NA,"see_reward","","html-keyboard-response",324,599565,"0.0-320.0",0,0,"0TZUd","",0.897,"",NA,"32",NA,57,"",43,NA,NA,NA,-1,NA,NA,"","",2,NA,NA,NA,"",0,0.897,NA,NA,NA,NA,NA,NA,NA,NA,NA,NA,NA,NA,NA,NA,NA,NA,NA,NA,NA,NA,NA,"",NA,NA,NA,NA
"326",NA,"reward_outcome","","html-keyboard-response",325,601581,"0.0-321.0",0,0,"0TZUd","",0.513,"",NA,"40",NA,57,"",43,NA,NA,NA,NA,NA,NA,"","",NA,NA,NA,NA,"",NA,NA,-1,0.513,NA,NA,NA,NA,NA,NA,NA,NA,NA,NA,NA,NA,NA,NA,NA,NA,NA,NA,NA,"",NA,NA,NA,NA
"327",NA,"fixation","","html-keyboard-response",326,602596,"0.0-324.0",0,0,"0TZUd","",NA,"",NA,"null",NA,NA,"",NA,NA,NA,NA,NA,NA,NA,"","",NA,NA,NA,NA,"",NA,NA,NA,NA,NA,NA,NA,NA,NA,NA,NA,NA,NA,NA,NA,NA,NA,NA,NA,NA,NA,NA,NA,"",NA,NA,NA,NA
"328",NA,"see_reward","","html-keyboard-response",327,603420,"0.0-325.0",0,0,"0TZUd","",0.82,"",NA,"32",NA,53,"",44,NA,NA,NA,1,NA,NA,"","",2,NA,NA,NA,"",142,0.82,NA,NA,NA,NA,NA,NA,NA,NA,NA,NA,NA,NA,NA,NA,NA,NA,NA,NA,NA,NA,NA,"",NA,NA,NA,NA
"329",NA,"reward_outcome","","html-keyboard-response",328,605430,"0.0-326.0",0,0,"0TZUd","",0.576,"",NA,"38",NA,53,"",44,NA,NA,NA,NA,NA,NA,"","",NA,NA,NA,NA,"",NA,NA,1,0.576,NA,NA,NA,NA,NA,NA,NA,NA,NA,NA,NA,NA,NA,NA,NA,NA,NA,NA,NA,"",NA,NA,NA,NA
"330",NA,"fixation","","html-keyboard-response",329,606445,"0.0-329.0",0,0,"0TZUd","",NA,"",NA,"null",NA,NA,"",NA,NA,NA,NA,NA,NA,NA,"","",NA,NA,NA,NA,"",NA,NA,NA,NA,NA,NA,NA,NA,NA,NA,NA,NA,NA,NA,NA,NA,NA,NA,NA,NA,NA,NA,NA,"",NA,NA,NA,NA
"331",NA,"see_reward","","html-keyboard-response",330,607384,"0.0-330.0",0,0,"0TZUd","",0.936,"",NA,"32",NA,61,"",45,NA,NA,NA,1,NA,NA,"","",2,NA,NA,NA,"",149,0.936,NA,NA,NA,NA,NA,NA,NA,NA,NA,NA,NA,NA,NA,NA,NA,NA,NA,NA,NA,NA,NA,"",NA,NA,NA,NA
"332",NA,"reward_outcome","","html-keyboard-response",331,609396,"0.0-331.0",0,0,"0TZUd","",0.485,"",NA,"38",NA,61,"",45,NA,NA,NA,NA,NA,NA,"","",NA,NA,NA,NA,"",NA,NA,1,0.485,NA,NA,NA,NA,NA,NA,NA,NA,NA,NA,NA,NA,NA,NA,NA,NA,NA,NA,NA,"",NA,NA,NA,NA
"333",NA,"fixation","","html-keyboard-response",332,610412,"0.0-334.0",0,0,"0TZUd","",NA,"",NA,"null",NA,NA,"",NA,NA,NA,NA,NA,NA,NA,"","",NA,NA,NA,NA,"",NA,NA,NA,NA,NA,NA,NA,NA,NA,NA,NA,NA,NA,NA,NA,NA,NA,NA,NA,NA,NA,NA,NA,"",NA,NA,NA,NA
"334",NA,"see_reward","","html-keyboard-response",333,610984,"0.0-335.0",0,0,"0TZUd","",0.568,"",NA,"32",NA,56,"",46,NA,NA,NA,1,NA,NA,"","",2,NA,NA,NA,"",156,0.568,NA,NA,NA,NA,NA,NA,NA,NA,NA,NA,NA,NA,NA,NA,NA,NA,NA,NA,NA,NA,NA,"",NA,NA,NA,NA
"335",NA,"reward_outcome","","html-keyboard-response",334,612994,"0.0-336.0",0,0,"0TZUd","",0.515,"",NA,"38",NA,56,"",46,NA,NA,NA,NA,NA,NA,"","",NA,NA,NA,NA,"",NA,NA,1,0.515,NA,NA,NA,NA,NA,NA,NA,NA,NA,NA,NA,NA,NA,NA,NA,NA,NA,NA,NA,"",NA,NA,NA,NA
"336",NA,"fixation","","html-keyboard-response",335,614011,"0.0-339.0",0,0,"0TZUd","",NA,"",NA,"null",NA,NA,"",NA,NA,NA,NA,NA,NA,NA,"","",NA,NA,NA,NA,"",NA,NA,NA,NA,NA,NA,NA,NA,NA,NA,NA,NA,NA,NA,NA,NA,NA,NA,NA,NA,NA,NA,NA,"",NA,NA,NA,NA
"337",NA,"see_reward","","html-keyboard-response",336,614710,"0.0-340.0",0,0,"0TZUd","",0.695,"",NA,"32",NA,35,"",47,NA,NA,NA,-1,NA,NA,"","",2,NA,NA,NA,"",0,0.695,NA,NA,NA,NA,NA,NA,NA,NA,NA,NA,NA,NA,NA,NA,NA,NA,NA,NA,NA,NA,NA,"",NA,NA,NA,NA
"338",NA,"reward_outcome","","html-keyboard-response",337,616727,"0.0-341.0",0,0,"0TZUd","",0.448,"",NA,"40",NA,35,"",47,NA,NA,NA,NA,NA,NA,"","",NA,NA,NA,NA,"",NA,NA,-1,0.448,NA,NA,NA,NA,NA,NA,NA,NA,NA,NA,NA,NA,NA,NA,NA,NA,NA,NA,NA,"",NA,NA,NA,NA
"339",NA,"block_over","","html-keyboard-response",338,618711,"0.0-343.0-0.0",0,0,"0TZUd","",1.981,"",NA,"78",NA,NA,"",NA,NA,NA,NA,NA,NA,NA,"","",NA,NA,NA,NA,"",NA,NA,NA,NA,NA,NA,NA,NA,NA,NA,NA,NA,NA,NA,NA,NA,NA,NA,NA,NA,NA,NA,NA,"",NA,NA,NA,NA
"340",NA,"fixation","","html-keyboard-response",339,619728,"0.0-344.0",0,0,"0TZUd","",NA,"",NA,"null",NA,NA,"",NA,NA,NA,NA,NA,NA,NA,"","",NA,NA,NA,NA,"",NA,NA,NA,NA,NA,NA,NA,NA,NA,NA,NA,NA,NA,NA,NA,NA,NA,NA,NA,NA,NA,NA,NA,"",NA,NA,NA,NA
"341",NA,"see_reward","","html-keyboard-response",340,620440,"0.0-345.0",0,0,"0TZUd","",0.708,"",NA,"32",NA,61,"",48,NA,NA,NA,1,NA,NA,"","",3,NA,NA,NA,"",149,0.708,NA,NA,NA,NA,NA,NA,NA,NA,NA,NA,NA,NA,NA,NA,NA,NA,NA,NA,NA,NA,NA,"",NA,NA,NA,NA
"342",NA,"reward_outcome","","html-keyboard-response",341,622445,"0.0-346.0",0,0,"0TZUd","",0.519,"",NA,"38",NA,61,"",48,NA,NA,NA,NA,NA,NA,"","",NA,NA,NA,NA,"",NA,NA,1,0.519,NA,NA,NA,NA,NA,NA,NA,NA,NA,NA,NA,NA,NA,NA,NA,NA,NA,NA,NA,"",NA,NA,NA,NA
"343",NA,"fixation","","html-keyboard-response",342,623460,"0.0-349.0",0,0,"0TZUd","",NA,"",NA,"null",NA,NA,"",NA,NA,NA,NA,NA,NA,NA,"","",NA,NA,NA,NA,"",NA,NA,NA,NA,NA,NA,NA,NA,NA,NA,NA,NA,NA,NA,NA,NA,NA,NA,NA,NA,NA,NA,NA,"",NA,NA,NA,NA
"344",NA,"see_reward","","html-keyboard-response",343,624050,"0.0-350.0",0,0,"0TZUd","",0.587,"",NA,"32",NA,53,"",49,NA,NA,NA,1,NA,NA,"","",3,NA,NA,NA,"",142,0.587,NA,NA,NA,NA,NA,NA,NA,NA,NA,NA,NA,NA,NA,NA,NA,NA,NA,NA,NA,NA,NA,"",NA,NA,NA,NA
"345",NA,"reward_outcome","","html-keyboard-response",344,626058,"0.0-351.0",0,0,"0TZUd","",0.451,"",NA,"38",NA,53,"",49,NA,NA,NA,NA,NA,NA,"","",NA,NA,NA,NA,"",NA,NA,1,0.451,NA,NA,NA,NA,NA,NA,NA,NA,NA,NA,NA,NA,NA,NA,NA,NA,NA,NA,NA,"",NA,NA,NA,NA
"346",NA,"fixation","","html-keyboard-response",345,627075,"0.0-354.0",0,0,"0TZUd","",NA,"",NA,"null",NA,NA,"",NA,NA,NA,NA,NA,NA,NA,"","",NA,NA,NA,NA,"",NA,NA,NA,NA,NA,NA,NA,NA,NA,NA,NA,NA,NA,NA,NA,NA,NA,NA,NA,NA,NA,NA,NA,"",NA,NA,NA,NA
"347",NA,"see_reward","","html-keyboard-response",346,627820,"0.0-355.0",0,0,"0TZUd","",0.74,"",NA,"32",NA,36,"",50,NA,NA,NA,-1,NA,NA,"","",3,NA,NA,NA,"",0,0.74,NA,NA,NA,NA,NA,NA,NA,NA,NA,NA,NA,NA,NA,NA,NA,NA,NA,NA,NA,NA,NA,"",NA,NA,NA,NA
"348",NA,"reward_outcome","","html-keyboard-response",347,629832,"0.0-356.0",0,0,"0TZUd","",0.662,"",NA,"40",NA,36,"",50,NA,NA,NA,NA,NA,NA,"","",NA,NA,NA,NA,"",NA,NA,-1,0.662,NA,NA,NA,NA,NA,NA,NA,NA,NA,NA,NA,NA,NA,NA,NA,NA,NA,NA,NA,"",NA,NA,NA,NA
"349",NA,"fixation","","html-keyboard-response",348,630842,"0.0-359.0",0,0,"0TZUd","",NA,"",NA,"null",NA,NA,"",NA,NA,NA,NA,NA,NA,NA,"","",NA,NA,NA,NA,"",NA,NA,NA,NA,NA,NA,NA,NA,NA,NA,NA,NA,NA,NA,NA,NA,NA,NA,NA,NA,NA,NA,NA,"",NA,NA,NA,NA
"350",NA,"see_reward","","html-keyboard-response",349,631432,"0.0-360.0",0,0,"0TZUd","",0.587,"",NA,"32",NA,61,"",51,NA,NA,NA,1,NA,NA,"","",3,NA,NA,NA,"",149,0.587,NA,NA,NA,NA,NA,NA,NA,NA,NA,NA,NA,NA,NA,NA,NA,NA,NA,NA,NA,NA,NA,"",NA,NA,NA,NA
"351",NA,"reward_outcome","","html-keyboard-response",350,633440,"0.0-361.0",0,0,"0TZUd","",0.472,"",NA,"38",NA,61,"",51,NA,NA,NA,NA,NA,NA,"","",NA,NA,NA,NA,"",NA,NA,1,0.472,NA,NA,NA,NA,NA,NA,NA,NA,NA,NA,NA,NA,NA,NA,NA,NA,NA,NA,NA,"",NA,NA,NA,NA
"352",NA,"fixation","","html-keyboard-response",351,634456,"0.0-364.0",0,0,"0TZUd","",NA,"",NA,"null",NA,NA,"",NA,NA,NA,NA,NA,NA,NA,"","",NA,NA,NA,NA,"",NA,NA,NA,NA,NA,NA,NA,NA,NA,NA,NA,NA,NA,NA,NA,NA,NA,NA,NA,NA,NA,NA,NA,"",NA,NA,NA,NA
"353",NA,"see_reward","","html-keyboard-response",352,635102,"0.0-365.0",0,0,"0TZUd","",0.642,"",NA,"32",NA,31,"",52,NA,NA,NA,1,NA,NA,"","",3,NA,NA,NA,"",156,0.642,NA,NA,NA,NA,NA,NA,NA,NA,NA,NA,NA,NA,NA,NA,NA,NA,NA,NA,NA,NA,NA,"",NA,NA,NA,NA
"354",NA,"reward_outcome","","html-keyboard-response",353,637122,"0.0-366.0",0,0,"0TZUd","",0.465,"",NA,"38",NA,31,"",52,NA,NA,NA,NA,NA,NA,"","",NA,NA,NA,NA,"",NA,NA,1,0.465,NA,NA,NA,NA,NA,NA,NA,NA,NA,NA,NA,NA,NA,NA,NA,NA,NA,NA,NA,"",NA,NA,NA,NA
"355",NA,"fixation","","html-keyboard-response",354,638140,"0.0-369.0",0,0,"0TZUd","",NA,"",NA,"null",NA,NA,"",NA,NA,NA,NA,NA,NA,NA,"","",NA,NA,NA,NA,"",NA,NA,NA,NA,NA,NA,NA,NA,NA,NA,NA,NA,NA,NA,NA,NA,NA,NA,NA,NA,NA,NA,NA,"",NA,NA,NA,NA
"356",NA,"see_reward","","html-keyboard-response",355,638802,"0.0-370.0",0,0,"0TZUd","",0.658,"",NA,"32",NA,35,"",53,NA,NA,NA,-1,NA,NA,"","",3,NA,NA,NA,"",0,0.658,NA,NA,NA,NA,NA,NA,NA,NA,NA,NA,NA,NA,NA,NA,NA,NA,NA,NA,NA,NA,NA,"",NA,NA,NA,NA
"357",NA,"reward_outcome","","html-keyboard-response",356,640821,"0.0-371.0",0,0,"0TZUd","",0.44,"",NA,"40",NA,35,"",53,NA,NA,NA,NA,NA,NA,"","",NA,NA,NA,NA,"",NA,NA,-1,0.44,NA,NA,NA,NA,NA,NA,NA,NA,NA,NA,NA,NA,NA,NA,NA,NA,NA,NA,NA,"",NA,NA,NA,NA
"358",NA,"fixation","","html-keyboard-response",357,641838,"0.0-374.0",0,0,"0TZUd","",NA,"",NA,"null",NA,NA,"",NA,NA,NA,NA,NA,NA,NA,"","",NA,NA,NA,NA,"",NA,NA,NA,NA,NA,NA,NA,NA,NA,NA,NA,NA,NA,NA,NA,NA,NA,NA,NA,NA,NA,NA,NA,"",NA,NA,NA,NA
"359",NA,"see_reward","","html-keyboard-response",358,642292,"0.0-375.0",0,0,"0TZUd","",0.449,"",NA,"32",NA,3,"",54,NA,NA,NA,1,NA,NA,"","",3,NA,NA,NA,"",150,0.449,NA,NA,NA,NA,NA,NA,NA,NA,NA,NA,NA,NA,NA,NA,NA,NA,NA,NA,NA,NA,NA,"",NA,NA,NA,NA
"360",NA,"reward_outcome","","html-keyboard-response",359,644303,"0.0-376.0",0,0,"0TZUd","",0.64,"",NA,"38",NA,3,"",54,NA,NA,NA,NA,NA,NA,"","",NA,NA,NA,NA,"",NA,NA,1,0.64,NA,NA,NA,NA,NA,NA,NA,NA,NA,NA,NA,NA,NA,NA,NA,NA,NA,NA,NA,"",NA,NA,NA,NA
"361",NA,"fixation","","html-keyboard-response",360,645323,"0.0-379.0",0,0,"0TZUd","",NA,"",NA,"null",NA,NA,"",NA,NA,NA,NA,NA,NA,NA,"","",NA,NA,NA,NA,"",NA,NA,NA,NA,NA,NA,NA,NA,NA,NA,NA,NA,NA,NA,NA,NA,NA,NA,NA,NA,NA,NA,NA,"",NA,NA,NA,NA
"362",NA,"see_reward","","html-keyboard-response",361,646334,"0.0-380.0",0,0,"0TZUd","",1.008,"",NA,"32",NA,59,"",55,NA,NA,NA,1,NA,NA,"","",3,NA,NA,NA,"",155,1.008,NA,NA,NA,NA,NA,NA,NA,NA,NA,NA,NA,NA,NA,NA,NA,NA,NA,NA,NA,NA,NA,"",NA,NA,NA,NA
"363",NA,"reward_outcome","","html-keyboard-response",362,648352,"0.0-381.0",0,0,"0TZUd","",0.674,"",NA,"38",NA,59,"",55,NA,NA,NA,NA,NA,NA,"","",NA,NA,NA,NA,"",NA,NA,1,0.674,NA,NA,NA,NA,NA,NA,NA,NA,NA,NA,NA,NA,NA,NA,NA,NA,NA,NA,NA,"",NA,NA,NA,NA
"364",NA,"fixation","","html-keyboard-response",363,649371,"0.0-384.0",0,0,"0TZUd","",NA,"",NA,"null",NA,NA,"",NA,NA,NA,NA,NA,NA,NA,"","",NA,NA,NA,NA,"",NA,NA,NA,NA,NA,NA,NA,NA,NA,NA,NA,NA,NA,NA,NA,NA,NA,NA,NA,NA,NA,NA,NA,"",NA,NA,NA,NA
"365",NA,"see_reward","","html-keyboard-response",364,649772,"0.0-385.0",0,0,"0TZUd","",0.397,"",NA,"32",NA,39,"",56,NA,NA,NA,-1,NA,NA,"","",3,NA,NA,NA,"",0,0.397,NA,NA,NA,NA,NA,NA,NA,NA,NA,NA,NA,NA,NA,NA,NA,NA,NA,NA,NA,NA,NA,"",NA,NA,NA,NA
"366",NA,"reward_outcome","","html-keyboard-response",365,651786,"0.0-386.0",0,0,"0TZUd","",0.6,"",NA,"40",NA,39,"",56,NA,NA,NA,NA,NA,NA,"","",NA,NA,NA,NA,"",NA,NA,-1,0.6,NA,NA,NA,NA,NA,NA,NA,NA,NA,NA,NA,NA,NA,NA,NA,NA,NA,NA,NA,"",NA,NA,NA,NA
"367",NA,"fixation","","html-keyboard-response",366,652803,"0.0-389.0",0,0,"0TZUd","",NA,"",NA,"null",NA,NA,"",NA,NA,NA,NA,NA,NA,NA,"","",NA,NA,NA,NA,"",NA,NA,NA,NA,NA,NA,NA,NA,NA,NA,NA,NA,NA,NA,NA,NA,NA,NA,NA,NA,NA,NA,NA,"",NA,NA,NA,NA
"368",NA,"see_reward","","html-keyboard-response",367,653679,"0.0-390.0",0,0,"0TZUd","",0.872,"",NA,"32",NA,46,"",57,NA,NA,NA,-1,NA,NA,"","",3,NA,NA,NA,"",0,0.872,NA,NA,NA,NA,NA,NA,NA,NA,NA,NA,NA,NA,NA,NA,NA,NA,NA,NA,NA,NA,NA,"",NA,NA,NA,NA
"369",NA,"reward_outcome","","html-keyboard-response",368,655684,"0.0-391.0",0,0,"0TZUd","",0.513,"",NA,"40",NA,46,"",57,NA,NA,NA,NA,NA,NA,"","",NA,NA,NA,NA,"",NA,NA,-1,0.513,NA,NA,NA,NA,NA,NA,NA,NA,NA,NA,NA,NA,NA,NA,NA,NA,NA,NA,NA,"",NA,NA,NA,NA
"370",NA,"fixation","","html-keyboard-response",369,656702,"0.0-394.0",0,0,"0TZUd","",NA,"",NA,"null",NA,NA,"",NA,NA,NA,NA,NA,NA,NA,"","",NA,NA,NA,NA,"",NA,NA,NA,NA,NA,NA,NA,NA,NA,NA,NA,NA,NA,NA,NA,NA,NA,NA,NA,NA,NA,NA,NA,"",NA,NA,NA,NA
"371",NA,"see_reward","","html-keyboard-response",370,657230,"0.0-395.0",0,0,"0TZUd","",0.525,"",NA,"32",NA,36,"",58,NA,NA,NA,-1,NA,NA,"","",3,NA,NA,NA,"",0,0.525,NA,NA,NA,NA,NA,NA,NA,NA,NA,NA,NA,NA,NA,NA,NA,NA,NA,NA,NA,NA,NA,"",NA,NA,NA,NA
"372",NA,"reward_outcome","","html-keyboard-response",371,659234,"0.0-396.0",0,0,"0TZUd","",0.591,"",NA,"40",NA,36,"",58,NA,NA,NA,NA,NA,NA,"","",NA,NA,NA,NA,"",NA,NA,-1,0.591,NA,NA,NA,NA,NA,NA,NA,NA,NA,NA,NA,NA,NA,NA,NA,NA,NA,NA,NA,"",NA,NA,NA,NA
"373",NA,"fixation","","html-keyboard-response",372,660252,"0.0-399.0",0,0,"0TZUd","",NA,"",NA,"null",NA,NA,"",NA,NA,NA,NA,NA,NA,NA,"","",NA,NA,NA,NA,"",NA,NA,NA,NA,NA,NA,NA,NA,NA,NA,NA,NA,NA,NA,NA,NA,NA,NA,NA,NA,NA,NA,NA,"",NA,NA,NA,NA
"374",NA,"see_reward","","html-keyboard-response",373,662647,"0.0-400.0",0,0,"0TZUd","",2.39,"",NA,"32",NA,35,"",59,NA,NA,NA,-1,NA,NA,"","",3,NA,NA,NA,"",0,2.39,NA,NA,NA,NA,NA,NA,NA,NA,NA,NA,NA,NA,NA,NA,NA,NA,NA,NA,NA,NA,NA,"",NA,NA,NA,NA
"375",NA,"reward_outcome","","html-keyboard-response",374,664656,"0.0-401.0",0,0,"0TZUd","",0.551,"",NA,"40",NA,35,"",59,NA,NA,NA,NA,NA,NA,"","",NA,NA,NA,NA,"",NA,NA,-1,0.551,NA,NA,NA,NA,NA,NA,NA,NA,NA,NA,NA,NA,NA,NA,NA,NA,NA,NA,NA,"",NA,NA,NA,NA
"376",NA,"fixation","","html-keyboard-response",375,665667,"0.0-404.0",0,0,"0TZUd","",NA,"",NA,"null",NA,NA,"",NA,NA,NA,NA,NA,NA,NA,"","",NA,NA,NA,NA,"",NA,NA,NA,NA,NA,NA,NA,NA,NA,NA,NA,NA,NA,NA,NA,NA,NA,NA,NA,NA,NA,NA,NA,"",NA,NA,NA,NA
"377",NA,"see_reward","","html-keyboard-response",376,666435,"0.0-405.0",0,0,"0TZUd","",0.763,"",NA,"32",NA,53,"",60,NA,NA,NA,1,NA,NA,"","",3,NA,NA,NA,"",142,0.763,NA,NA,NA,NA,NA,NA,NA,NA,NA,NA,NA,NA,NA,NA,NA,NA,NA,NA,NA,NA,NA,"",NA,NA,NA,NA
"378",NA,"reward_outcome","","html-keyboard-response",377,668449,"0.0-406.0",0,0,"0TZUd","",0.533,"",NA,"38",NA,53,"",60,NA,NA,NA,NA,NA,NA,"","",NA,NA,NA,NA,"",NA,NA,1,0.533,NA,NA,NA,NA,NA,NA,NA,NA,NA,NA,NA,NA,NA,NA,NA,NA,NA,NA,NA,"",NA,NA,NA,NA
"379",NA,"fixation","","html-keyboard-response",378,669465,"0.0-409.0",0,0,"0TZUd","",NA,"",NA,"null",NA,NA,"",NA,NA,NA,NA,NA,NA,NA,"","",NA,NA,NA,NA,"",NA,NA,NA,NA,NA,NA,NA,NA,NA,NA,NA,NA,NA,NA,NA,NA,NA,NA,NA,NA,NA,NA,NA,"",NA,NA,NA,NA
"380",NA,"see_reward","","html-keyboard-response",379,670726,"0.0-410.0",0,0,"0TZUd","",1.256,"",NA,"32",NA,21,"",61,NA,NA,NA,-1,NA,NA,"","",3,NA,NA,NA,"",0,1.256,NA,NA,NA,NA,NA,NA,NA,NA,NA,NA,NA,NA,NA,NA,NA,NA,NA,NA,NA,NA,NA,"",NA,NA,NA,NA
"381",NA,"reward_outcome","","html-keyboard-response",380,672731,"0.0-411.0",0,0,"0TZUd","",0.595,"",NA,"40",NA,21,"",61,NA,NA,NA,NA,NA,NA,"","",NA,NA,NA,NA,"",NA,NA,-1,0.595,NA,NA,NA,NA,NA,NA,NA,NA,NA,NA,NA,NA,NA,NA,NA,NA,NA,NA,NA,"",NA,NA,NA,NA
"382",NA,"fixation","","html-keyboard-response",381,673749,"0.0-414.0",0,0,"0TZUd","",NA,"",NA,"null",NA,NA,"",NA,NA,NA,NA,NA,NA,NA,"","",NA,NA,NA,NA,"",NA,NA,NA,NA,NA,NA,NA,NA,NA,NA,NA,NA,NA,NA,NA,NA,NA,NA,NA,NA,NA,NA,NA,"",NA,NA,NA,NA
"383",NA,"see_reward","","html-keyboard-response",382,675290,"0.0-415.0",0,0,"0TZUd","",1.537,"",NA,"32",NA,59,"",62,NA,NA,NA,1,NA,NA,"","",3,NA,NA,NA,"",155,1.537,NA,NA,NA,NA,NA,NA,NA,NA,NA,NA,NA,NA,NA,NA,NA,NA,NA,NA,NA,NA,NA,"",NA,NA,NA,NA
"384",NA,"reward_outcome","","html-keyboard-response",383,677296,"0.0-416.0",0,0,"0TZUd","",0.474,"",NA,"38",NA,59,"",62,NA,NA,NA,NA,NA,NA,"","",NA,NA,NA,NA,"",NA,NA,1,0.474,NA,NA,NA,NA,NA,NA,NA,NA,NA,NA,NA,NA,NA,NA,NA,NA,NA,NA,NA,"",NA,NA,NA,NA
"385",NA,"fixation","","html-keyboard-response",384,678313,"0.0-419.0",0,0,"0TZUd","",NA,"",NA,"null",NA,NA,"",NA,NA,NA,NA,NA,NA,NA,"","",NA,NA,NA,NA,"",NA,NA,NA,NA,NA,NA,NA,NA,NA,NA,NA,NA,NA,NA,NA,NA,NA,NA,NA,NA,NA,NA,NA,"",NA,NA,NA,NA
"386",NA,"see_reward","","html-keyboard-response",385,679621,"0.0-420.0",0,0,"0TZUd","",1.304,"",NA,"32",NA,56,"",63,NA,NA,NA,1,NA,NA,"","",3,NA,NA,NA,"",156,1.304,NA,NA,NA,NA,NA,NA,NA,NA,NA,NA,NA,NA,NA,NA,NA,NA,NA,NA,NA,NA,NA,"",NA,NA,NA,NA
"387",NA,"reward_outcome","","html-keyboard-response",386,681630,"0.0-421.0",0,0,"0TZUd","",0.641,"",NA,"38",NA,56,"",63,NA,NA,NA,NA,NA,NA,"","",NA,NA,NA,NA,"",NA,NA,1,0.641,NA,NA,NA,NA,NA,NA,NA,NA,NA,NA,NA,NA,NA,NA,NA,NA,NA,NA,NA,"",NA,NA,NA,NA
"388",NA,"fixation","","html-keyboard-response",387,682647,"0.0-424.0",0,0,"0TZUd","",NA,"",NA,"null",NA,NA,"",NA,NA,NA,NA,NA,NA,NA,"","",NA,NA,NA,NA,"",NA,NA,NA,NA,NA,NA,NA,NA,NA,NA,NA,NA,NA,NA,NA,NA,NA,NA,NA,NA,NA,NA,NA,"",NA,NA,NA,NA
"389",NA,"see_reward","","html-keyboard-response",388,683768,"0.0-425.0",0,0,"0TZUd","",1.117,"",NA,"32",NA,31,"",64,NA,NA,NA,1,NA,NA,"","",3,NA,NA,NA,"",156,1.117,NA,NA,NA,NA,NA,NA,NA,NA,NA,NA,NA,NA,NA,NA,NA,NA,NA,NA,NA,NA,NA,"",NA,NA,NA,NA
"390",NA,"reward_outcome","","html-keyboard-response",389,685778,"0.0-426.0",0,0,"0TZUd","",0.638,"",NA,"38",NA,31,"",64,NA,NA,NA,NA,NA,NA,"","",NA,NA,NA,NA,"",NA,NA,1,0.638,NA,NA,NA,NA,NA,NA,NA,NA,NA,NA,NA,NA,NA,NA,NA,NA,NA,NA,NA,"",NA,NA,NA,NA
"391",NA,"fixation","","html-keyboard-response",390,686795,"0.0-429.0",0,0,"0TZUd","",NA,"",NA,"null",NA,NA,"",NA,NA,NA,NA,NA,NA,NA,"","",NA,NA,NA,NA,"",NA,NA,NA,NA,NA,NA,NA,NA,NA,NA,NA,NA,NA,NA,NA,NA,NA,NA,NA,NA,NA,NA,NA,"",NA,NA,NA,NA
"392",NA,"see_reward","","html-keyboard-response",391,687689,"0.0-430.0",0,0,"0TZUd","",0.89,"",NA,"32",NA,57,"",65,NA,NA,NA,-1,NA,NA,"","",3,NA,NA,NA,"",0,0.89,NA,NA,NA,NA,NA,NA,NA,NA,NA,NA,NA,NA,NA,NA,NA,NA,NA,NA,NA,NA,NA,"",NA,NA,NA,NA
"393",NA,"reward_outcome","","html-keyboard-response",392,689704,"0.0-431.0",0,0,"0TZUd","",0.516,"",NA,"40",NA,57,"",65,NA,NA,NA,NA,NA,NA,"","",NA,NA,NA,NA,"",NA,NA,-1,0.516,NA,NA,NA,NA,NA,NA,NA,NA,NA,NA,NA,NA,NA,NA,NA,NA,NA,NA,NA,"",NA,NA,NA,NA
"394",NA,"fixation","","html-keyboard-response",393,690712,"0.0-434.0",0,0,"0TZUd","",NA,"",NA,"null",NA,NA,"",NA,NA,NA,NA,NA,NA,NA,"","",NA,NA,NA,NA,"",NA,NA,NA,NA,NA,NA,NA,NA,NA,NA,NA,NA,NA,NA,NA,NA,NA,NA,NA,NA,NA,NA,NA,"",NA,NA,NA,NA
"395",NA,"see_reward","","html-keyboard-response",394,691741,"0.0-435.0",0,0,"0TZUd","",1.025,"",NA,"32",NA,56,"",66,NA,NA,NA,1,NA,NA,"","",3,NA,NA,NA,"",156,1.025,NA,NA,NA,NA,NA,NA,NA,NA,NA,NA,NA,NA,NA,NA,NA,NA,NA,NA,NA,NA,NA,"",NA,NA,NA,NA
"396",NA,"reward_outcome","","html-keyboard-response",395,693760,"0.0-436.0",0,0,"0TZUd","",0.536,"",NA,"38",NA,56,"",66,NA,NA,NA,NA,NA,NA,"","",NA,NA,NA,NA,"",NA,NA,1,0.536,NA,NA,NA,NA,NA,NA,NA,NA,NA,NA,NA,NA,NA,NA,NA,NA,NA,NA,NA,"",NA,NA,NA,NA
"397",NA,"fixation","","html-keyboard-response",396,694778,"0.0-439.0",0,0,"0TZUd","",NA,"",NA,"null",NA,NA,"",NA,NA,NA,NA,NA,NA,NA,"","",NA,NA,NA,NA,"",NA,NA,NA,NA,NA,NA,NA,NA,NA,NA,NA,NA,NA,NA,NA,NA,NA,NA,NA,NA,NA,NA,NA,"",NA,NA,NA,NA
"398",NA,"see_reward","","html-keyboard-response",397,695821,"0.0-440.0",0,0,"0TZUd","",1.038,"",NA,"32",NA,21,"",67,NA,NA,NA,-1,NA,NA,"","",3,NA,NA,NA,"",0,1.038,NA,NA,NA,NA,NA,NA,NA,NA,NA,NA,NA,NA,NA,NA,NA,NA,NA,NA,NA,NA,NA,"",NA,NA,NA,NA
"399",NA,"reward_outcome","","html-keyboard-response",398,697826,"0.0-441.0",0,0,"0TZUd","",0.858,"",NA,"40",NA,21,"",67,NA,NA,NA,NA,NA,NA,"","",NA,NA,NA,NA,"",NA,NA,-1,0.858,NA,NA,NA,NA,NA,NA,NA,NA,NA,NA,NA,NA,NA,NA,NA,NA,NA,NA,NA,"",NA,NA,NA,NA
"400",NA,"fixation","","html-keyboard-response",399,698843,"0.0-444.0",0,0,"0TZUd","",NA,"",NA,"null",NA,NA,"",NA,NA,NA,NA,NA,NA,NA,"","",NA,NA,NA,NA,"",NA,NA,NA,NA,NA,NA,NA,NA,NA,NA,NA,NA,NA,NA,NA,NA,NA,NA,NA,NA,NA,NA,NA,"",NA,NA,NA,NA
