"PID","trial","rt","old_rating","new_rating","stimulus_index","type","category","stimulus","path"
NA,1,NA,NA,NA,77,"scramble","body_parts","scrambled_manuel-schinner-ZwjFuJ7ebpk-unsplash.jpg","Stimuli/Experimental_stims/scramble/body_parts/scrambled_manuel-schinner-ZwjFuJ7ebpk-unsplash.jpg"
NA,2,NA,NA,NA,4,"original","outdoor_scenes","jarrett-kow-1ZOyYPOBn7I-unsplash.jpg","Stimuli/Experimental_stims/outdoor_scenes/jarrett-kow-1ZOyYPOBn7I-unsplash.jpg"
NA,3,NA,NA,NA,45,"original","objects","leohoho-rngTKHXumy0-unsplash.jpg","Stimuli/Experimental_stims/objects/leohoho-rngTKHXumy0-unsplash.jpg"
NA,4,NA,NA,NA,12,"original","faces","aiony-haust-jmATI5Q_YgY-unsplash.jpg","Stimuli/Experimental_stims/faces/aiony-haust-jmATI5Q_YgY-unsplash.jpg"
NA,5,NA,NA,NA,61,"scramble","faces","scrambled_daniel-rigdon-dXmXKPP2L4E-unsplash.jpg","Stimuli/Experimental_stims/scramble/faces/scrambled_daniel-rigdon-dXmXKPP2L4E-unsplash.jpg"
NA,6,NA,NA,NA,28,"original","body_parts","ira-vishnevskaya-8DQAvdCby1I-unsplash.jpg","Stimuli/Experimental_stims/body_parts/ira-vishnevskaya-8DQAvdCby1I-unsplash.jpg"
NA,7,NA,NA,NA,16,"original","faces","freddy-kearney-o-ioeoATbIM-unsplash.jpg","Stimuli/Experimental_stims/faces/freddy-kearney-o-ioeoATbIM-unsplash.jpg"
NA,8,NA,NA,NA,84,"scramble","objects","scrambled_alexander-andrews-JYGnB9gTCls-unsplash.jpg","Stimuli/Experimental_stims/scramble/objects/scrambled_alexander-andrews-JYGnB9gTCls-unsplash.jpg"
NA,9,NA,NA,NA,32,"original","body_parts","towfiqu-barbhuiya-3AsiVDsZnHg-unsplash.jpg","Stimuli/Experimental_stims/body_parts/towfiqu-barbhuiya-3AsiVDsZnHg-unsplash.jpg"
NA,10,NA,NA,NA,42,"original","objects","jess-bailey-nOeVi8DsN8U-unsplash.jpg","Stimuli/Experimental_stims/objects/jess-bailey-nOeVi8DsN8U-unsplash.jpg"
NA,11,NA,NA,NA,35,"original","body_parts","wc-so-KH4AAPjb-tI-unsplash.jpg","Stimuli/Experimental_stims/body_parts/wc-so-KH4AAPjb-tI-unsplash.jpg"
NA,12,NA,NA,NA,86,"scramble","objects","scrambled_art-lasovsky-8XddFc6NkBY-unsplash.jpg","Stimuli/Experimental_stims/scramble/objects/scrambled_art-lasovsky-8XddFc6NkBY-unsplash.jpg"
NA,13,NA,NA,NA,40,"original","objects","fabian-blank-pElSkGRA2NU-unsplash.jpg","Stimuli/Experimental_stims/objects/fabian-blank-pElSkGRA2NU-unsplash.jpg"
NA,14,NA,NA,NA,56,"scramble","outdoor_scenes","scrambled_samsommer-vddccTqwal8-unsplash.jpg","Stimuli/Experimental_stims/scramble/outdoor_scenes/scrambled_samsommer-vddccTqwal8-unsplash.jpg"
NA,15,NA,NA,NA,5,"original","outdoor_scenes","jeff-king-bJHWJeiHfHc-unsplash.jpg","Stimuli/Experimental_stims/outdoor_scenes/jeff-king-bJHWJeiHfHc-unsplash.jpg"
NA,16,NA,NA,NA,11,"original","outdoor_scenes","stephen-leonardi-gyIRjKPXupE-unsplash.jpg","Stimuli/Experimental_stims/outdoor_scenes/stephen-leonardi-gyIRjKPXupE-unsplash.jpg"
NA,17,NA,NA,NA,79,"scramble","body_parts","scrambled_sincerely-media-VN6DbKajo5s-unsplash.jpg","Stimuli/Experimental_stims/scramble/body_parts/scrambled_sincerely-media-VN6DbKajo5s-unsplash.jpg"
NA,18,NA,NA,NA,55,"scramble","outdoor_scenes","scrambled_petr-vysohlid-9fqwGqGLUxc-unsplash.jpg","Stimuli/Experimental_stims/scramble/outdoor_scenes/scrambled_petr-vysohlid-9fqwGqGLUxc-unsplash.jpg"
NA,19,NA,NA,NA,21,"original","faces","leilani-angel-K84vnnzxmTQ-unsplash.jpg","Stimuli/Experimental_stims/faces/leilani-angel-K84vnnzxmTQ-unsplash.jpg"
NA,20,NA,NA,NA,24,"original","body_parts","clay-banks-LjqARJaJotc-unsplash.jpg","Stimuli/Experimental_stims/body_parts/clay-banks-LjqARJaJotc-unsplash.jpg"
NA,21,NA,NA,NA,59,"scramble","outdoor_scenes","scrambled_stephen-leonardi-gyIRjKPXupE-unsplash.jpg","Stimuli/Experimental_stims/scramble/outdoor_scenes/scrambled_stephen-leonardi-gyIRjKPXupE-unsplash.jpg"
NA,22,NA,NA,NA,54,"scramble","outdoor_scenes","scrambled_meng-ji-8BH_M-53CyA-unsplash.jpg","Stimuli/Experimental_stims/scramble/outdoor_scenes/scrambled_meng-ji-8BH_M-53CyA-unsplash.jpg"
NA,23,NA,NA,NA,47,"original","objects","ronaldo-arthur-vidal-Cdz_lvnl37k-unsplash.jpg","Stimuli/Experimental_stims/objects/ronaldo-arthur-vidal-Cdz_lvnl37k-unsplash.jpg"
NA,24,NA,NA,NA,81,"scramble","body_parts","scrambled_tucker-good-36skLT5jZcc-unsplash.jpg","Stimuli/Experimental_stims/scramble/body_parts/scrambled_tucker-good-36skLT5jZcc-unsplash.jpg"
NA,25,NA,NA,NA,19,"original","faces","joel-mott-LaK153ghdig-unsplash.jpg","Stimuli/Experimental_stims/faces/joel-mott-LaK153ghdig-unsplash.jpg"
NA,26,NA,NA,NA,7,"original","outdoor_scenes","petr-vysohlid-9fqwGqGLUxc-unsplash.jpg","Stimuli/Experimental_stims/outdoor_scenes/petr-vysohlid-9fqwGqGLUxc-unsplash.jpg"
NA,27,NA,NA,NA,89,"scramble","objects","scrambled_insung-yoon-w2JtIQQXoRU-unsplash.jpg","Stimuli/Experimental_stims/scramble/objects/scrambled_insung-yoon-w2JtIQQXoRU-unsplash.jpg"
NA,28,NA,NA,NA,10,"original","outdoor_scenes","shannon-kunkle-dM8INmkyDas-unsplash.jpg","Stimuli/Experimental_stims/outdoor_scenes/shannon-kunkle-dM8INmkyDas-unsplash.jpg"
NA,29,NA,NA,NA,78,"scramble","body_parts","scrambled_mika-korhonen-Xodzxosar18-unsplash.jpg","Stimuli/Experimental_stims/scramble/body_parts/scrambled_mika-korhonen-Xodzxosar18-unsplash.jpg"
NA,30,NA,NA,NA,18,"original","faces","jessica-radanavong-mrYkTuAesKE-unsplash.jpg","Stimuli/Experimental_stims/faces/jessica-radanavong-mrYkTuAesKE-unsplash.jpg"
NA,31,NA,NA,NA,92,"scramble","objects","scrambled_kuiye-chen-NuOGFo4PudE-unsplash.jpg","Stimuli/Experimental_stims/scramble/objects/scrambled_kuiye-chen-NuOGFo4PudE-unsplash.jpg"
NA,32,NA,NA,NA,69,"scramble","faces","scrambled_leilani-angel-K84vnnzxmTQ-unsplash.jpg","Stimuli/Experimental_stims/scramble/faces/scrambled_leilani-angel-K84vnnzxmTQ-unsplash.jpg"
NA,33,NA,NA,NA,23,"original","faces","rikonavt-HQjfrvdTfak-unsplash.jpg","Stimuli/Experimental_stims/faces/rikonavt-HQjfrvdTfak-unsplash.jpg"
NA,34,NA,NA,NA,46,"original","objects","mockup-graphics-PNsj6RiHAF4-unsplash.jpg","Stimuli/Experimental_stims/objects/mockup-graphics-PNsj6RiHAF4-unsplash.jpg"
NA,35,NA,NA,NA,90,"scramble","objects","scrambled_jess-bailey-nOeVi8DsN8U-unsplash.jpg","Stimuli/Experimental_stims/scramble/objects/scrambled_jess-bailey-nOeVi8DsN8U-unsplash.jpg"
NA,36,NA,NA,NA,85,"scramble","objects","scrambled_alexander-andrews-VLGWE_SumrA-unsplash.jpg","Stimuli/Experimental_stims/scramble/objects/scrambled_alexander-andrews-VLGWE_SumrA-unsplash.jpg"
NA,37,NA,NA,NA,27,"original","body_parts","heike-mintel-i_Gns0ELnLw-unsplash.jpg","Stimuli/Experimental_stims/body_parts/heike-mintel-i_Gns0ELnLw-unsplash.jpg"
NA,38,NA,NA,NA,75,"scramble","body_parts","scrambled_heike-mintel-i_Gns0ELnLw-unsplash.jpg","Stimuli/Experimental_stims/scramble/body_parts/scrambled_heike-mintel-i_Gns0ELnLw-unsplash.jpg"
NA,39,NA,NA,NA,50,"scramble","outdoor_scenes","scrambled_bruno-van-der-kraan-qez8mNJ3ilU-unsplash.jpg","Stimuli/Experimental_stims/scramble/outdoor_scenes/scrambled_bruno-van-der-kraan-qez8mNJ3ilU-unsplash.jpg"
NA,40,NA,NA,NA,58,"scramble","outdoor_scenes","scrambled_shannon-kunkle-dM8INmkyDas-unsplash.jpg","Stimuli/Experimental_stims/scramble/outdoor_scenes/scrambled_shannon-kunkle-dM8INmkyDas-unsplash.jpg"
NA,41,NA,NA,NA,76,"scramble","body_parts","scrambled_ira-vishnevskaya-8DQAvdCby1I-unsplash.jpg","Stimuli/Experimental_stims/scramble/body_parts/scrambled_ira-vishnevskaya-8DQAvdCby1I-unsplash.jpg"
NA,42,NA,NA,NA,41,"original","objects","insung-yoon-w2JtIQQXoRU-unsplash.jpg","Stimuli/Experimental_stims/objects/insung-yoon-w2JtIQQXoRU-unsplash.jpg"
NA,43,NA,NA,NA,48,"scramble","outdoor_scenes","scrambled_aleksandra-boguslawska-MS7KD9Ti7FQ-unsplash.jpg","Stimuli/Experimental_stims/scramble/outdoor_scenes/scrambled_aleksandra-boguslawska-MS7KD9Ti7FQ-unsplash.jpg"
NA,44,NA,NA,NA,31,"original","body_parts","sincerely-media-VN6DbKajo5s-unsplash.jpg","Stimuli/Experimental_stims/body_parts/sincerely-media-VN6DbKajo5s-unsplash.jpg"
NA,45,NA,NA,NA,93,"scramble","objects","scrambled_leohoho-rngTKHXumy0-unsplash.jpg","Stimuli/Experimental_stims/scramble/objects/scrambled_leohoho-rngTKHXumy0-unsplash.jpg"
NA,46,NA,NA,NA,60,"scramble","faces","scrambled_aiony-haust-jmATI5Q_YgY-unsplash.jpg","Stimuli/Experimental_stims/scramble/faces/scrambled_aiony-haust-jmATI5Q_YgY-unsplash.jpg"
NA,47,NA,NA,NA,74,"scramble","body_parts","scrambled_engin-akyurt-x_3gyC42btc-unsplash.jpg","Stimuli/Experimental_stims/scramble/body_parts/scrambled_engin-akyurt-x_3gyC42btc-unsplash.jpg"
NA,48,NA,NA,NA,9,"original","outdoor_scenes","sergey-pesterev-y-b_FOmJXdg-unsplash.jpg","Stimuli/Experimental_stims/outdoor_scenes/sergey-pesterev-y-b_FOmJXdg-unsplash.jpg"
NA,49,NA,NA,NA,70,"scramble","faces","scrambled_ravi-patel-VMGAbeeJTKo-unsplash.jpg","Stimuli/Experimental_stims/scramble/faces/scrambled_ravi-patel-VMGAbeeJTKo-unsplash.jpg"
NA,50,NA,NA,NA,62,"scramble","faces","scrambled_david-siglin-UuW4psOb388-unsplash.jpg","Stimuli/Experimental_stims/scramble/faces/scrambled_david-siglin-UuW4psOb388-unsplash.jpg"
NA,51,NA,NA,NA,51,"scramble","outdoor_scenes","scrambled_henry-be-NLF6hTe4PAg-unsplash.jpg","Stimuli/Experimental_stims/scramble/outdoor_scenes/scrambled_henry-be-NLF6hTe4PAg-unsplash.jpg"
NA,52,NA,NA,NA,43,"original","objects","jonathan-greenaway-Y4hGgeiFn3s-unsplash.jpg","Stimuli/Experimental_stims/objects/jonathan-greenaway-Y4hGgeiFn3s-unsplash.jpg"
NA,53,NA,NA,NA,83,"scramble","body_parts","scrambled_wc-so-KH4AAPjb-tI-unsplash.jpg","Stimuli/Experimental_stims/scramble/body_parts/scrambled_wc-so-KH4AAPjb-tI-unsplash.jpg"
NA,54,NA,NA,NA,25,"original","body_parts","engin-akyurt-Q2rfH3GW39c-unsplash.jpg","Stimuli/Experimental_stims/body_parts/engin-akyurt-Q2rfH3GW39c-unsplash.jpg"
NA,55,NA,NA,NA,37,"original","objects","alexander-andrews-VLGWE_SumrA-unsplash.jpg","Stimuli/Experimental_stims/objects/alexander-andrews-VLGWE_SumrA-unsplash.jpg"
NA,56,NA,NA,NA,20,"original","faces","justin-chen-J7Cf1Gch49E-unsplash.jpg","Stimuli/Experimental_stims/faces/justin-chen-J7Cf1Gch49E-unsplash.jpg"
NA,57,NA,NA,NA,68,"scramble","faces","scrambled_justin-chen-J7Cf1Gch49E-unsplash.jpg","Stimuli/Experimental_stims/scramble/faces/scrambled_justin-chen-J7Cf1Gch49E-unsplash.jpg"
NA,58,NA,NA,NA,39,"original","objects","charlesdeluvio-1-nx1QR5dTE-unsplash.jpg","Stimuli/Experimental_stims/objects/charlesdeluvio-1-nx1QR5dTE-unsplash.jpg"
NA,59,NA,NA,NA,13,"original","faces","daniel-rigdon-dXmXKPP2L4E-unsplash.jpg","Stimuli/Experimental_stims/faces/daniel-rigdon-dXmXKPP2L4E-unsplash.jpg"
NA,60,NA,NA,NA,38,"original","objects","art-lasovsky-8XddFc6NkBY-unsplash.jpg","Stimuli/Experimental_stims/objects/art-lasovsky-8XddFc6NkBY-unsplash.jpg"
NA,61,NA,NA,NA,14,"original","faces","david-siglin-UuW4psOb388-unsplash.jpg","Stimuli/Experimental_stims/faces/david-siglin-UuW4psOb388-unsplash.jpg"
NA,62,NA,NA,NA,65,"scramble","faces","scrambled_good-faces-xmSWVeGEnJw-unsplash.jpg","Stimuli/Experimental_stims/scramble/faces/scrambled_good-faces-xmSWVeGEnJw-unsplash.jpg"
NA,63,NA,NA,NA,72,"scramble","body_parts","scrambled_clay-banks-LjqARJaJotc-unsplash.jpg","Stimuli/Experimental_stims/scramble/body_parts/scrambled_clay-banks-LjqARJaJotc-unsplash.jpg"
NA,64,NA,NA,NA,57,"scramble","outdoor_scenes","scrambled_sergey-pesterev-y-b_FOmJXdg-unsplash.jpg","Stimuli/Experimental_stims/scramble/outdoor_scenes/scrambled_sergey-pesterev-y-b_FOmJXdg-unsplash.jpg"
NA,65,NA,NA,NA,3,"original","outdoor_scenes","henry-be-NLF6hTe4PAg-unsplash.jpg","Stimuli/Experimental_stims/outdoor_scenes/henry-be-NLF6hTe4PAg-unsplash.jpg"
NA,66,NA,NA,NA,1,"original","outdoor_scenes","ashim-d-silva-S2Q5mdOrrVc-unsplash.jpg","Stimuli/Experimental_stims/outdoor_scenes/ashim-d-silva-S2Q5mdOrrVc-unsplash.jpg"
NA,67,NA,NA,NA,30,"original","body_parts","mika-korhonen-Xodzxosar18-unsplash.jpg","Stimuli/Experimental_stims/body_parts/mika-korhonen-Xodzxosar18-unsplash.jpg"
NA,68,NA,NA,NA,64,"scramble","faces","scrambled_freddy-kearney-o-ioeoATbIM-unsplash.jpg","Stimuli/Experimental_stims/scramble/faces/scrambled_freddy-kearney-o-ioeoATbIM-unsplash.jpg"
NA,69,NA,NA,NA,36,"original","objects","alexander-andrews-JYGnB9gTCls-unsplash.jpg","Stimuli/Experimental_stims/objects/alexander-andrews-JYGnB9gTCls-unsplash.jpg"
NA,70,NA,NA,NA,95,"scramble","objects","scrambled_ronaldo-arthur-vidal-Cdz_lvnl37k-unsplash.jpg","Stimuli/Experimental_stims/scramble/objects/scrambled_ronaldo-arthur-vidal-Cdz_lvnl37k-unsplash.jpg"
NA,71,NA,NA,NA,94,"scramble","objects","scrambled_mockup-graphics-PNsj6RiHAF4-unsplash.jpg","Stimuli/Experimental_stims/scramble/objects/scrambled_mockup-graphics-PNsj6RiHAF4-unsplash.jpg"
NA,72,NA,NA,NA,52,"scramble","outdoor_scenes","scrambled_jarrett-kow-1ZOyYPOBn7I-unsplash.jpg","Stimuli/Experimental_stims/scramble/outdoor_scenes/scrambled_jarrett-kow-1ZOyYPOBn7I-unsplash.jpg"
NA,73,NA,NA,NA,53,"scramble","outdoor_scenes","scrambled_jeff-king-bJHWJeiHfHc-unsplash.jpg","Stimuli/Experimental_stims/scramble/outdoor_scenes/scrambled_jeff-king-bJHWJeiHfHc-unsplash.jpg"
NA,74,NA,NA,NA,49,"scramble","outdoor_scenes","scrambled_ashim-d-silva-S2Q5mdOrrVc-unsplash.jpg","Stimuli/Experimental_stims/scramble/outdoor_scenes/scrambled_ashim-d-silva-S2Q5mdOrrVc-unsplash.jpg"
NA,75,NA,NA,NA,82,"scramble","body_parts","scrambled_wagner-santos-mBWMvIuVnso-unsplash.jpg","Stimuli/Experimental_stims/scramble/body_parts/scrambled_wagner-santos-mBWMvIuVnso-unsplash.jpg"
NA,76,NA,NA,NA,80,"scramble","body_parts","scrambled_towfiqu-barbhuiya-3AsiVDsZnHg-unsplash.jpg","Stimuli/Experimental_stims/scramble/body_parts/scrambled_towfiqu-barbhuiya-3AsiVDsZnHg-unsplash.jpg"
NA,77,NA,NA,NA,88,"scramble","objects","scrambled_fabian-blank-pElSkGRA2NU-unsplash.jpg","Stimuli/Experimental_stims/scramble/objects/scrambled_fabian-blank-pElSkGRA2NU-unsplash.jpg"
NA,78,NA,NA,NA,0,"original","outdoor_scenes","aleksandra-boguslawska-MS7KD9Ti7FQ-unsplash.jpg","Stimuli/Experimental_stims/outdoor_scenes/aleksandra-boguslawska-MS7KD9Ti7FQ-unsplash.jpg"
NA,79,NA,NA,NA,6,"original","outdoor_scenes","meng-ji-8BH_M-53CyA-unsplash.jpg","Stimuli/Experimental_stims/outdoor_scenes/meng-ji-8BH_M-53CyA-unsplash.jpg"
NA,80,NA,NA,NA,2,"original","outdoor_scenes","bruno-van-der-kraan-qez8mNJ3ilU-unsplash.jpg","Stimuli/Experimental_stims/outdoor_scenes/bruno-van-der-kraan-qez8mNJ3ilU-unsplash.jpg"
NA,81,NA,NA,NA,71,"scramble","faces","scrambled_rikonavt-HQjfrvdTfak-unsplash.jpg","Stimuli/Experimental_stims/scramble/faces/scrambled_rikonavt-HQjfrvdTfak-unsplash.jpg"
NA,82,NA,NA,NA,44,"original","objects","kuiye-chen-NuOGFo4PudE-unsplash.jpg","Stimuli/Experimental_stims/objects/kuiye-chen-NuOGFo4PudE-unsplash.jpg"
NA,83,NA,NA,NA,87,"scramble","objects","scrambled_charlesdeluvio-1-nx1QR5dTE-unsplash.jpg","Stimuli/Experimental_stims/scramble/objects/scrambled_charlesdeluvio-1-nx1QR5dTE-unsplash.jpg"
NA,84,NA,NA,NA,15,"original","faces","erik-lucatero-d2MSDujJl2g-unsplash.jpg","Stimuli/Experimental_stims/faces/erik-lucatero-d2MSDujJl2g-unsplash.jpg"
NA,85,NA,NA,NA,91,"scramble","objects","scrambled_jonathan-greenaway-Y4hGgeiFn3s-unsplash.jpg","Stimuli/Experimental_stims/scramble/objects/scrambled_jonathan-greenaway-Y4hGgeiFn3s-unsplash.jpg"
NA,86,NA,NA,NA,73,"scramble","body_parts","scrambled_engin-akyurt-Q2rfH3GW39c-unsplash.jpg","Stimuli/Experimental_stims/scramble/body_parts/scrambled_engin-akyurt-Q2rfH3GW39c-unsplash.jpg"
NA,87,NA,NA,NA,29,"original","body_parts","manuel-schinner-ZwjFuJ7ebpk-unsplash.jpg","Stimuli/Experimental_stims/body_parts/manuel-schinner-ZwjFuJ7ebpk-unsplash.jpg"
NA,88,NA,NA,NA,8,"original","outdoor_scenes","samsommer-vddccTqwal8-unsplash.jpg","Stimuli/Experimental_stims/outdoor_scenes/samsommer-vddccTqwal8-unsplash.jpg"
NA,89,NA,NA,NA,17,"original","faces","good-faces-xmSWVeGEnJw-unsplash.jpg","Stimuli/Experimental_stims/faces/good-faces-xmSWVeGEnJw-unsplash.jpg"
NA,90,NA,NA,NA,34,"original","body_parts","wagner-santos-mBWMvIuVnso-unsplash.jpg","Stimuli/Experimental_stims/body_parts/wagner-santos-mBWMvIuVnso-unsplash.jpg"
NA,91,NA,NA,NA,26,"original","body_parts","engin-akyurt-x_3gyC42btc-unsplash.jpg","Stimuli/Experimental_stims/body_parts/engin-akyurt-x_3gyC42btc-unsplash.jpg"
NA,92,NA,NA,NA,66,"scramble","faces","scrambled_jessica-radanavong-mrYkTuAesKE-unsplash.jpg","Stimuli/Experimental_stims/scramble/faces/scrambled_jessica-radanavong-mrYkTuAesKE-unsplash.jpg"
NA,93,NA,NA,NA,63,"scramble","faces","scrambled_erik-lucatero-d2MSDujJl2g-unsplash.jpg","Stimuli/Experimental_stims/scramble/faces/scrambled_erik-lucatero-d2MSDujJl2g-unsplash.jpg"
NA,94,NA,NA,NA,67,"scramble","faces","scrambled_joel-mott-LaK153ghdig-unsplash.jpg","Stimuli/Experimental_stims/scramble/faces/scrambled_joel-mott-LaK153ghdig-unsplash.jpg"
NA,95,NA,NA,NA,33,"original","body_parts","tucker-good-36skLT5jZcc-unsplash.jpg","Stimuli/Experimental_stims/body_parts/tucker-good-36skLT5jZcc-unsplash.jpg"
NA,96,NA,NA,NA,22,"original","faces","ravi-patel-VMGAbeeJTKo-unsplash.jpg","Stimuli/Experimental_stims/faces/ravi-patel-VMGAbeeJTKo-unsplash.jpg"
