,PID,practice,run,block,trial,iti,pair_id,choice_type,reward_type,stimulus_id,path,outcome_response,outcome_rt,outcome_acc,long_iti,simulation,version
0,98647,1,0,0,1,1500,,,,,Stimuli/Practice_stims/Outcome_estimation/becca-tapert-sY5RjMB1KkE-unsplash.jpg,NaN,NaN,NaN,0,44,4
1,98647,1,0,0,2,1000,,,,,Stimuli/Practice_stims/Outcome_estimation/clay-banks-1KPfcPdbWFM-unsplash.jpg,NaN,NaN,NaN,0,44,4
2,98647,1,0,0,3,3000,,,,,Stimuli/Practice_stims/Outcome_estimation/melissa-keizer-sV4Pd8wq5_o-unsplash.jpg,NaN,NaN,NaN,0,44,4
3,98647,0,1,1,4,3100,B,unchosen,no_gain,6,Stimuli/Experimental_stims/outdoor_scenes/meng-ji-8BH_M-53CyA-unsplash.jpg,NaN,NaN,NaN,1,44,4
4,98647,0,1,1,5,1400,I,unchosen,no_gain,10,Stimuli/Experimental_stims/outdoor_scenes/shannon-kunkle-dM8INmkyDas-unsplash.jpg,NaN,NaN,NaN,0,44,4
5,98647,0,1,1,6,1200,L,chosen,no_gain,15,Stimuli/Experimental_stims/faces/erik-lucatero-d2MSDujJl2g-unsplash.jpg,NaN,NaN,NaN,0,44,4
6,98647,0,1,1,7,1800,G,unchosen,gain,38,Stimuli/Experimental_stims/objects/art-lasovsky-8XddFc6NkBY-unsplash.jpg,NaN,NaN,NaN,0,44,4
7,98647,0,1,1,8,1000,E,chosen,no_gain,25,Stimuli/Experimental_stims/body_parts/engin-akyurt-Q2rfH3GW39c-unsplash.jpg,NaN,NaN,NaN,0,44,4
8,98647,0,1,1,9,3200,L,unchosen,no_gain,29,Stimuli/Experimental_stims/body_parts/manuel-schinner-ZwjFuJ7ebpk-unsplash.jpg,NaN,NaN,NaN,1,44,4
9,98647,0,1,1,10,1700,D,chosen,gain,14,Stimuli/Experimental_stims/faces/david-siglin-UuW4psOb388-unsplash.jpg,NaN,NaN,NaN,0,44,4
10,98647,0,1,1,11,1500,E,unchosen,no_gain,40,Stimuli/Experimental_stims/objects/fabian-blank-pElSkGRA2NU-unsplash.jpg,NaN,NaN,NaN,0,44,4
11,98647,0,1,1,12,1100,K,chosen,gain,31,Stimuli/Experimental_stims/body_parts/sincerely-media-VN6DbKajo5s-unsplash.jpg,NaN,NaN,NaN,0,44,4
12,98647,0,1,1,13,2200,C,chosen,gain,33,Stimuli/Experimental_stims/body_parts/tucker-good-36skLT5jZcc-unsplash.jpg,NaN,NaN,NaN,0,44,4
13,98647,0,1,1,14,2200,H,unchosen,no_gain,23,Stimuli/Experimental_stims/faces/rikonavt-HQjfrvdTfak-unsplash.jpg,NaN,NaN,NaN,0,44,4
14,98647,0,1,1,15,1500,B,chosen,no_gain,17,Stimuli/Experimental_stims/faces/good-faces-xmSWVeGEnJw-unsplash.jpg,NaN,NaN,NaN,0,44,4
15,98647,0,1,1,16,3000,H,chosen,no_gain,7,Stimuli/Experimental_stims/outdoor_scenes/petr-vysohlid-9fqwGqGLUxc-unsplash.jpg,NaN,NaN,NaN,0,44,4
16,98647,0,1,1,17,1400,F,unchosen,gain,22,Stimuli/Experimental_stims/faces/ravi-patel-VMGAbeeJTKo-unsplash.jpg,NaN,NaN,NaN,0,44,4
17,98647,0,1,1,18,1700,A,chosen,gain,36,Stimuli/Experimental_stims/objects/alexander-andrews-JYGnB9gTCls-unsplash.jpg,NaN,NaN,NaN,0,44,4
18,98647,0,1,1,19,1400,J,unchosen,no_gain,12,Stimuli/Experimental_stims/faces/aiony-haust-jmATI5Q_YgY-unsplash.jpg,NaN,NaN,NaN,0,44,4
19,98647,0,1,1,20,3200,J,chosen,no_gain,44,Stimuli/Experimental_stims/objects/kuiye-chen-NuOGFo4PudE-unsplash.jpg,NaN,NaN,NaN,1,44,4
20,98647,0,1,1,21,1400,A,unchosen,gain,5,Stimuli/Experimental_stims/outdoor_scenes/jeff-king-bJHWJeiHfHc-unsplash.jpg,NaN,NaN,NaN,0,44,4
21,98647,0,1,1,22,1400,K,unchosen,gain,43,Stimuli/Experimental_stims/objects/jonathan-greenaway-Y4hGgeiFn3s-unsplash.jpg,NaN,NaN,NaN,0,44,4
22,98647,0,1,1,23,1200,I,chosen,no_gain,28,Stimuli/Experimental_stims/body_parts/ira-vishnevskaya-8DQAvdCby1I-unsplash.jpg,NaN,NaN,NaN,0,44,4
23,98647,0,1,1,24,1400,D,unchosen,gain,42,Stimuli/Experimental_stims/objects/jess-bailey-nOeVi8DsN8U-unsplash.jpg,NaN,NaN,NaN,0,44,4
24,98647,0,1,1,25,2300,C,unchosen,gain,3,Stimuli/Experimental_stims/outdoor_scenes/henry-be-NLF6hTe4PAg-unsplash.jpg,NaN,NaN,NaN,0,44,4
25,98647,0,1,1,26,3100,G,chosen,gain,9,Stimuli/Experimental_stims/outdoor_scenes/sergey-pesterev-y-b_FOmJXdg-unsplash.jpg,NaN,NaN,NaN,1,44,4
26,98647,0,1,1,27,1400,F,chosen,gain,30,Stimuli/Experimental_stims/body_parts/mika-korhonen-Xodzxosar18-unsplash.jpg,NaN,NaN,NaN,0,44,4
27,98647,0,1,2,28,1900,F,unchosen,gain,22,Stimuli/Experimental_stims/faces/ravi-patel-VMGAbeeJTKo-unsplash.jpg,NaN,NaN,NaN,0,44,4
28,98647,0,1,2,29,2000,K,chosen,gain,31,Stimuli/Experimental_stims/body_parts/sincerely-media-VN6DbKajo5s-unsplash.jpg,NaN,NaN,NaN,0,44,4
29,98647,0,1,2,30,1100,J,chosen,no_gain,44,Stimuli/Experimental_stims/objects/kuiye-chen-NuOGFo4PudE-unsplash.jpg,NaN,NaN,NaN,0,44,4
30,98647,0,1,2,31,1000,G,unchosen,gain,38,Stimuli/Experimental_stims/objects/art-lasovsky-8XddFc6NkBY-unsplash.jpg,NaN,NaN,NaN,0,44,4
31,98647,0,1,2,32,4500,K,unchosen,gain,43,Stimuli/Experimental_stims/objects/jonathan-greenaway-Y4hGgeiFn3s-unsplash.jpg,NaN,NaN,NaN,1,44,4
32,98647,0,1,2,33,1500,G,chosen,gain,9,Stimuli/Experimental_stims/outdoor_scenes/sergey-pesterev-y-b_FOmJXdg-unsplash.jpg,NaN,NaN,NaN,0,44,4
33,98647,0,1,2,34,1700,A,unchosen,gain,5,Stimuli/Experimental_stims/outdoor_scenes/jeff-king-bJHWJeiHfHc-unsplash.jpg,NaN,NaN,NaN,0,44,4
34,98647,0,1,2,35,2200,D,chosen,gain,14,Stimuli/Experimental_stims/faces/david-siglin-UuW4psOb388-unsplash.jpg,NaN,NaN,NaN,0,44,4
35,98647,0,1,2,36,1700,C,chosen,gain,33,Stimuli/Experimental_stims/body_parts/tucker-good-36skLT5jZcc-unsplash.jpg,NaN,NaN,NaN,0,44,4
36,98647,0,1,2,37,2200,L,unchosen,no_gain,29,Stimuli/Experimental_stims/body_parts/manuel-schinner-ZwjFuJ7ebpk-unsplash.jpg,NaN,NaN,NaN,0,44,4
37,98647,0,1,2,38,1400,H,chosen,no_gain,7,Stimuli/Experimental_stims/outdoor_scenes/petr-vysohlid-9fqwGqGLUxc-unsplash.jpg,NaN,NaN,NaN,0,44,4
38,98647,0,1,2,39,4100,B,chosen,no_gain,17,Stimuli/Experimental_stims/faces/good-faces-xmSWVeGEnJw-unsplash.jpg,NaN,NaN,NaN,1,44,4
39,98647,0,1,2,40,1400,D,unchosen,gain,42,Stimuli/Experimental_stims/objects/jess-bailey-nOeVi8DsN8U-unsplash.jpg,NaN,NaN,NaN,0,44,4
40,98647,0,1,2,41,1500,E,chosen,no_gain,25,Stimuli/Experimental_stims/body_parts/engin-akyurt-Q2rfH3GW39c-unsplash.jpg,NaN,NaN,NaN,0,44,4
41,98647,0,1,2,42,2400,C,unchosen,gain,3,Stimuli/Experimental_stims/outdoor_scenes/henry-be-NLF6hTe4PAg-unsplash.jpg,NaN,NaN,NaN,0,44,4
42,98647,0,1,2,43,1200,I,chosen,no_gain,28,Stimuli/Experimental_stims/body_parts/ira-vishnevskaya-8DQAvdCby1I-unsplash.jpg,NaN,NaN,NaN,0,44,4
43,98647,0,1,2,44,1200,I,unchosen,no_gain,10,Stimuli/Experimental_stims/outdoor_scenes/shannon-kunkle-dM8INmkyDas-unsplash.jpg,NaN,NaN,NaN,0,44,4
44,98647,0,1,2,45,4000,L,chosen,no_gain,15,Stimuli/Experimental_stims/faces/erik-lucatero-d2MSDujJl2g-unsplash.jpg,NaN,NaN,NaN,1,44,4
45,98647,0,1,2,46,1400,E,unchosen,no_gain,40,Stimuli/Experimental_stims/objects/fabian-blank-pElSkGRA2NU-unsplash.jpg,NaN,NaN,NaN,0,44,4
46,98647,0,1,2,47,2300,F,chosen,gain,30,Stimuli/Experimental_stims/body_parts/mika-korhonen-Xodzxosar18-unsplash.jpg,NaN,NaN,NaN,0,44,4
47,98647,0,1,2,48,3000,H,unchosen,no_gain,23,Stimuli/Experimental_stims/faces/rikonavt-HQjfrvdTfak-unsplash.jpg,NaN,NaN,NaN,0,44,4
48,98647,0,1,2,49,1900,B,unchosen,no_gain,6,Stimuli/Experimental_stims/outdoor_scenes/meng-ji-8BH_M-53CyA-unsplash.jpg,NaN,NaN,NaN,0,44,4
49,98647,0,1,2,50,1200,A,chosen,gain,36,Stimuli/Experimental_stims/objects/alexander-andrews-JYGnB9gTCls-unsplash.jpg,NaN,NaN,NaN,0,44,4
50,98647,0,1,2,51,4400,J,unchosen,no_gain,12,Stimuli/Experimental_stims/faces/aiony-haust-jmATI5Q_YgY-unsplash.jpg,NaN,NaN,NaN,1,44,4
51,98647,0,1,3,52,2800,E,chosen,no_gain,25,Stimuli/Experimental_stims/body_parts/engin-akyurt-Q2rfH3GW39c-unsplash.jpg,NaN,NaN,NaN,1,38,4
52,98647,0,1,3,53,2600,G,unchosen,gain,38,Stimuli/Experimental_stims/objects/art-lasovsky-8XddFc6NkBY-unsplash.jpg,NaN,NaN,NaN,0,38,4
53,98647,0,1,3,54,1300,B,unchosen,no_gain,6,Stimuli/Experimental_stims/outdoor_scenes/meng-ji-8BH_M-53CyA-unsplash.jpg,NaN,NaN,NaN,0,38,4
54,98647,0,1,3,55,2000,I,chosen,no_gain,28,Stimuli/Experimental_stims/body_parts/ira-vishnevskaya-8DQAvdCby1I-unsplash.jpg,NaN,NaN,NaN,0,38,4
55,98647,0,1,3,56,1200,F,unchosen,gain,22,Stimuli/Experimental_stims/faces/ravi-patel-VMGAbeeJTKo-unsplash.jpg,NaN,NaN,NaN,0,38,4
56,98647,0,1,3,57,1800,L,chosen,no_gain,15,Stimuli/Experimental_stims/faces/erik-lucatero-d2MSDujJl2g-unsplash.jpg,NaN,NaN,NaN,0,38,4
57,98647,0,1,3,58,3000,H,chosen,no_gain,7,Stimuli/Experimental_stims/outdoor_scenes/petr-vysohlid-9fqwGqGLUxc-unsplash.jpg,NaN,NaN,NaN,1,38,4
58,98647,0,1,3,59,2000,E,unchosen,no_gain,40,Stimuli/Experimental_stims/objects/fabian-blank-pElSkGRA2NU-unsplash.jpg,NaN,NaN,NaN,0,38,4
59,98647,0,1,3,60,1800,K,chosen,gain,31,Stimuli/Experimental_stims/body_parts/sincerely-media-VN6DbKajo5s-unsplash.jpg,NaN,NaN,NaN,0,38,4
60,98647,0,1,3,61,1600,J,unchosen,no_gain,12,Stimuli/Experimental_stims/faces/aiony-haust-jmATI5Q_YgY-unsplash.jpg,NaN,NaN,NaN,0,38,4
61,98647,0,1,3,62,1300,D,unchosen,gain,42,Stimuli/Experimental_stims/objects/jess-bailey-nOeVi8DsN8U-unsplash.jpg,NaN,NaN,NaN,0,38,4
62,98647,0,1,3,63,1400,F,chosen,gain,30,Stimuli/Experimental_stims/body_parts/mika-korhonen-Xodzxosar18-unsplash.jpg,NaN,NaN,NaN,0,38,4
63,98647,0,1,3,64,1800,A,chosen,gain,36,Stimuli/Experimental_stims/objects/alexander-andrews-JYGnB9gTCls-unsplash.jpg,NaN,NaN,NaN,0,38,4
64,98647,0,1,3,65,3200,I,unchosen,no_gain,10,Stimuli/Experimental_stims/outdoor_scenes/shannon-kunkle-dM8INmkyDas-unsplash.jpg,NaN,NaN,NaN,1,38,4
65,98647,0,1,3,66,2500,G,chosen,gain,9,Stimuli/Experimental_stims/outdoor_scenes/sergey-pesterev-y-b_FOmJXdg-unsplash.jpg,NaN,NaN,NaN,0,38,4
66,98647,0,1,3,67,2700,C,chosen,gain,33,Stimuli/Experimental_stims/body_parts/tucker-good-36skLT5jZcc-unsplash.jpg,NaN,NaN,NaN,0,38,4
67,98647,0,1,3,68,1000,C,unchosen,gain,3,Stimuli/Experimental_stims/outdoor_scenes/henry-be-NLF6hTe4PAg-unsplash.jpg,NaN,NaN,NaN,0,38,4
68,98647,0,1,3,69,2300,L,unchosen,no_gain,29,Stimuli/Experimental_stims/body_parts/manuel-schinner-ZwjFuJ7ebpk-unsplash.jpg,NaN,NaN,NaN,0,38,4
69,98647,0,1,3,70,1500,J,chosen,no_gain,44,Stimuli/Experimental_stims/objects/kuiye-chen-NuOGFo4PudE-unsplash.jpg,NaN,NaN,NaN,0,38,4
70,98647,0,1,3,71,1700,K,unchosen,gain,43,Stimuli/Experimental_stims/objects/jonathan-greenaway-Y4hGgeiFn3s-unsplash.jpg,NaN,NaN,NaN,0,38,4
71,98647,0,1,3,72,1100,D,chosen,gain,14,Stimuli/Experimental_stims/faces/david-siglin-UuW4psOb388-unsplash.jpg,NaN,NaN,NaN,0,38,4
72,98647,0,1,3,73,4400,H,unchosen,no_gain,23,Stimuli/Experimental_stims/faces/rikonavt-HQjfrvdTfak-unsplash.jpg,NaN,NaN,NaN,1,38,4
73,98647,0,1,3,74,1600,A,unchosen,gain,5,Stimuli/Experimental_stims/outdoor_scenes/jeff-king-bJHWJeiHfHc-unsplash.jpg,NaN,NaN,NaN,0,38,4
74,98647,0,1,3,75,1400,B,chosen,no_gain,17,Stimuli/Experimental_stims/faces/good-faces-xmSWVeGEnJw-unsplash.jpg,NaN,NaN,NaN,0,38,4
75,98647,0,1,4,76,1100,F,chosen,gain,30,Stimuli/Experimental_stims/body_parts/mika-korhonen-Xodzxosar18-unsplash.jpg,NaN,NaN,NaN,0,38,4
76,98647,0,1,4,77,2500,B,unchosen,no_gain,6,Stimuli/Experimental_stims/outdoor_scenes/meng-ji-8BH_M-53CyA-unsplash.jpg,NaN,NaN,NaN,0,38,4
77,98647,0,1,4,78,1600,K,chosen,gain,31,Stimuli/Experimental_stims/body_parts/sincerely-media-VN6DbKajo5s-unsplash.jpg,NaN,NaN,NaN,0,38,4
78,98647,0,1,4,79,1900,H,unchosen,no_gain,23,Stimuli/Experimental_stims/faces/rikonavt-HQjfrvdTfak-unsplash.jpg,NaN,NaN,NaN,0,38,4
79,98647,0,1,4,80,2800,L,unchosen,no_gain,29,Stimuli/Experimental_stims/body_parts/manuel-schinner-ZwjFuJ7ebpk-unsplash.jpg,NaN,NaN,NaN,1,38,4
80,98647,0,1,4,81,2000,G,chosen,gain,9,Stimuli/Experimental_stims/outdoor_scenes/sergey-pesterev-y-b_FOmJXdg-unsplash.jpg,NaN,NaN,NaN,0,38,4
81,98647,0,1,4,82,1200,C,chosen,gain,33,Stimuli/Experimental_stims/body_parts/tucker-good-36skLT5jZcc-unsplash.jpg,NaN,NaN,NaN,0,38,4
82,98647,0,1,4,83,1500,A,unchosen,gain,5,Stimuli/Experimental_stims/outdoor_scenes/jeff-king-bJHWJeiHfHc-unsplash.jpg,NaN,NaN,NaN,0,38,4
83,98647,0,1,4,84,1600,C,unchosen,gain,3,Stimuli/Experimental_stims/outdoor_scenes/henry-be-NLF6hTe4PAg-unsplash.jpg,NaN,NaN,NaN,0,38,4
84,98647,0,1,4,85,2300,H,chosen,no_gain,7,Stimuli/Experimental_stims/outdoor_scenes/petr-vysohlid-9fqwGqGLUxc-unsplash.jpg,NaN,NaN,NaN,0,38,4
85,98647,0,1,4,86,4800,D,chosen,gain,14,Stimuli/Experimental_stims/faces/david-siglin-UuW4psOb388-unsplash.jpg,NaN,NaN,NaN,1,38,4
86,98647,0,1,4,87,2400,E,unchosen,no_gain,40,Stimuli/Experimental_stims/objects/fabian-blank-pElSkGRA2NU-unsplash.jpg,NaN,NaN,NaN,0,38,4
87,98647,0,1,4,88,1600,G,unchosen,gain,38,Stimuli/Experimental_stims/objects/art-lasovsky-8XddFc6NkBY-unsplash.jpg,NaN,NaN,NaN,0,38,4
88,98647,0,1,4,89,1400,L,chosen,no_gain,15,Stimuli/Experimental_stims/faces/erik-lucatero-d2MSDujJl2g-unsplash.jpg,NaN,NaN,NaN,0,38,4
89,98647,0,1,4,90,2000,K,unchosen,gain,43,Stimuli/Experimental_stims/objects/jonathan-greenaway-Y4hGgeiFn3s-unsplash.jpg,NaN,NaN,NaN,0,38,4
90,98647,0,1,4,91,1300,A,chosen,gain,36,Stimuli/Experimental_stims/objects/alexander-andrews-JYGnB9gTCls-unsplash.jpg,NaN,NaN,NaN,0,38,4
91,98647,0,1,4,92,3100,B,chosen,no_gain,17,Stimuli/Experimental_stims/faces/good-faces-xmSWVeGEnJw-unsplash.jpg,NaN,NaN,NaN,1,38,4
92,98647,0,1,4,93,1100,J,unchosen,no_gain,12,Stimuli/Experimental_stims/faces/aiony-haust-jmATI5Q_YgY-unsplash.jpg,NaN,NaN,NaN,0,38,4
93,98647,0,1,4,94,1900,I,chosen,no_gain,28,Stimuli/Experimental_stims/body_parts/ira-vishnevskaya-8DQAvdCby1I-unsplash.jpg,NaN,NaN,NaN,0,38,4
94,98647,0,1,4,95,1200,F,unchosen,gain,22,Stimuli/Experimental_stims/faces/ravi-patel-VMGAbeeJTKo-unsplash.jpg,NaN,NaN,NaN,0,38,4
95,98647,0,1,4,96,1700,E,chosen,no_gain,25,Stimuli/Experimental_stims/body_parts/engin-akyurt-Q2rfH3GW39c-unsplash.jpg,NaN,NaN,NaN,0,38,4
96,98647,0,1,4,97,1200,I,unchosen,no_gain,10,Stimuli/Experimental_stims/outdoor_scenes/shannon-kunkle-dM8INmkyDas-unsplash.jpg,NaN,NaN,NaN,0,38,4
97,98647,0,1,4,98,2700,J,chosen,no_gain,44,Stimuli/Experimental_stims/objects/kuiye-chen-NuOGFo4PudE-unsplash.jpg,NaN,NaN,NaN,0,38,4
98,98647,0,1,4,99,3100,D,unchosen,gain,42,Stimuli/Experimental_stims/objects/jess-bailey-nOeVi8DsN8U-unsplash.jpg,NaN,NaN,NaN,1,38,4