,PID,practice,run,block,trial,iti,pair_id,choice_type,reward_type,stimulus_id,path,outcome_response,outcome_rt,outcome_acc,long_iti,simulation,version,no_response
0,76661,1,0,0,1,1500,,,,,Stimuli/Practice_stims/Outcome_estimation/becca-tapert-sY5RjMB1KkE-unsplash.jpg,no_gain,1528,0,0,31,2,0
1,76661,1,0,0,2,1000,,,,,Stimuli/Practice_stims/Outcome_estimation/clay-banks-1KPfcPdbWFM-unsplash.jpg,no_gain,1380,0,0,31,2,0
2,76661,1,0,0,3,3000,,,,,Stimuli/Practice_stims/Outcome_estimation/melissa-keizer-sV4Pd8wq5_o-unsplash.jpg,gain,932,0,0,31,2,0
3,76661,0,1,1,4,2300,E,unchosen,no_gain,32,Stimuli/Experimental_stims/body_parts/towfiqu-barbhuiya-3AsiVDsZnHg-unsplash.jpg,gain,1164,0,0,31,2,0
4,76661,0,1,1,5,2500,B,chosen,no_gain,16,Stimuli/Experimental_stims/faces/freddy-kearney-o-ioeoATbIM-unsplash.jpg,gain,879,0,0,31,2,0
5,76661,0,1,1,6,1600,A,unchosen,no_gain,46,Stimuli/Experimental_stims/objects/mockup-graphics-PNsj6RiHAF4-unsplash.jpg,gain,1228,0,0,31,2,0
6,76661,0,1,1,7,1000,L,unchosen,gain,35,Stimuli/Experimental_stims/body_parts/wc-so-KH4AAPjb-tI-unsplash.jpg,gain,890,1,0,31,2,0
7,76661,0,1,1,8,2800,F,chosen,no_gain,23,Stimuli/Experimental_stims/faces/rikonavt-HQjfrvdTfak-unsplash.jpg,gain,736,0,0,31,2,0
8,76661,0,1,1,9,1200,F,unchosen,no_gain,34,Stimuli/Experimental_stims/body_parts/wagner-santos-mBWMvIuVnso-unsplash.jpg,gain,1017,0,0,31,2,0
9,76661,0,1,1,10,1000,C,unchosen,gain,11,Stimuli/Experimental_stims/outdoor_scenes/stephen-leonardi-gyIRjKPXupE-unsplash.jpg,gain,1217,1,0,31,2,0
10,76661,0,1,1,11,3400,J,chosen,gain,45,Stimuli/Experimental_stims/objects/leohoho-rngTKHXumy0-unsplash.jpg,no_gain,1028,0,1,31,2,0
11,76661,0,1,1,12,2900,I,unchosen,no_gain,4,Stimuli/Experimental_stims/outdoor_scenes/jarrett-kow-1ZOyYPOBn7I-unsplash.jpg,gain,1029,0,0,31,2,0
12,76661,0,1,1,13,2700,D,chosen,gain,13,Stimuli/Experimental_stims/faces/daniel-rigdon-dXmXKPP2L4E-unsplash.jpg,gain,987,1,0,31,2,0
13,76661,0,1,1,14,2200,B,unchosen,no_gain,2,Stimuli/Experimental_stims/outdoor_scenes/bruno-van-der-kraan-qez8mNJ3ilU-unsplash.jpg,gain,887,0,0,31,2,0
14,76661,0,1,1,15,1400,H,chosen,no_gain,3,Stimuli/Experimental_stims/outdoor_scenes/henry-be-NLF6hTe4PAg-unsplash.jpg,gain,1009,0,0,31,2,0
15,76661,0,1,1,16,2200,L,chosen,gain,18,Stimuli/Experimental_stims/faces/jessica-radanavong-mrYkTuAesKE-unsplash.jpg,no_gain,999,0,0,31,2,0
16,76661,0,1,1,17,3200,D,unchosen,gain,39,Stimuli/Experimental_stims/objects/charlesdeluvio-1-nx1QR5dTE-unsplash.jpg,gain,948,1,1,31,2,0
17,76661,0,1,1,18,2500,C,chosen,gain,26,Stimuli/Experimental_stims/body_parts/engin-akyurt-x_3gyC42btc-unsplash.jpg,gain,748,1,0,31,2,0
18,76661,0,1,1,19,1100,G,unchosen,gain,44,Stimuli/Experimental_stims/objects/kuiye-chen-NuOGFo4PudE-unsplash.jpg,gain,854,1,0,31,2,0
19,76661,0,1,1,20,2100,I,chosen,no_gain,29,Stimuli/Experimental_stims/body_parts/manuel-schinner-ZwjFuJ7ebpk-unsplash.jpg,gain,787,0,0,31,2,0
20,76661,0,1,1,21,2600,E,chosen,no_gain,41,Stimuli/Experimental_stims/objects/insung-yoon-w2JtIQQXoRU-unsplash.jpg,gain,740,0,0,31,2,0
21,76661,0,1,1,22,3300,H,unchosen,no_gain,14,Stimuli/Experimental_stims/faces/david-siglin-UuW4psOb388-unsplash.jpg,gain,727,0,1,31,2,0
22,76661,0,1,1,23,1900,G,chosen,gain,8,Stimuli/Experimental_stims/outdoor_scenes/samsommer-vddccTqwal8-unsplash.jpg,gain,761,1,0,31,2,0
23,76661,0,1,1,24,1200,J,unchosen,gain,21,Stimuli/Experimental_stims/faces/leilani-angel-K84vnnzxmTQ-unsplash.jpg,gain,1018,1,0,31,2,0
24,76661,0,1,1,25,2400,K,chosen,gain,33,Stimuli/Experimental_stims/body_parts/tucker-good-36skLT5jZcc-unsplash.jpg,no_response,NaN,0,0,31,2,1
25,76661,0,1,1,26,1300,A,chosen,no_gain,0,Stimuli/Experimental_stims/outdoor_scenes/aleksandra-boguslawska-MS7KD9Ti7FQ-unsplash.jpg,gain,928,0,0,31,2,0
26,76661,0,1,1,27,1800,K,unchosen,gain,36,Stimuli/Experimental_stims/objects/alexander-andrews-JYGnB9gTCls-unsplash.jpg,gain,803,1,0,31,2,0
27,76661,0,1,2,28,4200,E,unchosen,no_gain,32,Stimuli/Experimental_stims/body_parts/towfiqu-barbhuiya-3AsiVDsZnHg-unsplash.jpg,gain,1131,0,1,31,2,0
28,76661,0,1,2,29,1300,K,chosen,gain,33,Stimuli/Experimental_stims/body_parts/tucker-good-36skLT5jZcc-unsplash.jpg,gain,972,1,0,31,2,0
29,76661,0,1,2,30,1900,F,chosen,no_gain,23,Stimuli/Experimental_stims/faces/rikonavt-HQjfrvdTfak-unsplash.jpg,gain,928,0,0,31,2,0
30,76661,0,1,2,31,1400,L,unchosen,gain,35,Stimuli/Experimental_stims/body_parts/wc-so-KH4AAPjb-tI-unsplash.jpg,no_gain,1111,0,0,31,2,0
31,76661,0,1,2,32,1300,J,unchosen,gain,21,Stimuli/Experimental_stims/faces/leilani-angel-K84vnnzxmTQ-unsplash.jpg,gain,812,1,0,31,2,0
32,76661,0,1,2,33,1500,D,chosen,gain,13,Stimuli/Experimental_stims/faces/daniel-rigdon-dXmXKPP2L4E-unsplash.jpg,gain,920,1,0,31,2,0
33,76661,0,1,2,34,1300,D,unchosen,gain,39,Stimuli/Experimental_stims/objects/charlesdeluvio-1-nx1QR5dTE-unsplash.jpg,gain,949,1,0,31,2,0
34,76661,0,1,2,35,1700,J,chosen,gain,45,Stimuli/Experimental_stims/objects/leohoho-rngTKHXumy0-unsplash.jpg,gain,657,1,0,31,2,0
35,76661,0,1,2,36,1100,H,chosen,no_gain,3,Stimuli/Experimental_stims/outdoor_scenes/henry-be-NLF6hTe4PAg-unsplash.jpg,gain,651,0,0,31,2,0
36,76661,0,1,2,37,3000,B,unchosen,no_gain,2,Stimuli/Experimental_stims/outdoor_scenes/bruno-van-der-kraan-qez8mNJ3ilU-unsplash.jpg,no_gain,634,1,1,31,2,0
37,76661,0,1,2,38,1700,A,chosen,no_gain,0,Stimuli/Experimental_stims/outdoor_scenes/aleksandra-boguslawska-MS7KD9Ti7FQ-unsplash.jpg,gain,414,0,0,31,2,0
38,76661,0,1,2,39,2900,B,chosen,no_gain,16,Stimuli/Experimental_stims/faces/freddy-kearney-o-ioeoATbIM-unsplash.jpg,gain,691,0,0,31,2,0
39,76661,0,1,2,40,1100,I,unchosen,no_gain,4,Stimuli/Experimental_stims/outdoor_scenes/jarrett-kow-1ZOyYPOBn7I-unsplash.jpg,no_gain,834,1,0,31,2,0
40,76661,0,1,2,41,1800,E,chosen,no_gain,41,Stimuli/Experimental_stims/objects/insung-yoon-w2JtIQQXoRU-unsplash.jpg,gain,1026,0,0,31,2,0
41,76661,0,1,2,42,1100,G,unchosen,gain,44,Stimuli/Experimental_stims/objects/kuiye-chen-NuOGFo4PudE-unsplash.jpg,gain,1095,1,0,31,2,0
42,76661,0,1,2,43,2200,L,chosen,gain,18,Stimuli/Experimental_stims/faces/jessica-radanavong-mrYkTuAesKE-unsplash.jpg,no_response,NaN,0,0,31,2,1
43,76661,0,1,2,44,1700,H,unchosen,no_gain,14,Stimuli/Experimental_stims/faces/david-siglin-UuW4psOb388-unsplash.jpg,no_response,NaN,0,0,31,2,1
44,76661,0,1,2,45,1100,C,unchosen,gain,11,Stimuli/Experimental_stims/outdoor_scenes/stephen-leonardi-gyIRjKPXupE-unsplash.jpg,no_gain,800,0,0,31,2,0
45,76661,0,1,2,46,3600,G,chosen,gain,8,Stimuli/Experimental_stims/outdoor_scenes/samsommer-vddccTqwal8-unsplash.jpg,no_gain,1450,0,1,31,2,0
46,76661,0,1,2,47,1800,K,unchosen,gain,36,Stimuli/Experimental_stims/objects/alexander-andrews-JYGnB9gTCls-unsplash.jpg,gain,856,1,0,31,2,0
47,76661,0,1,2,48,1500,A,unchosen,no_gain,46,Stimuli/Experimental_stims/objects/mockup-graphics-PNsj6RiHAF4-unsplash.jpg,no_response,NaN,0,0,31,2,1
48,76661,0,1,2,49,1700,I,chosen,no_gain,29,Stimuli/Experimental_stims/body_parts/manuel-schinner-ZwjFuJ7ebpk-unsplash.jpg,no_response,NaN,0,0,31,2,1
49,76661,0,1,2,50,1400,F,unchosen,no_gain,34,Stimuli/Experimental_stims/body_parts/wagner-santos-mBWMvIuVnso-unsplash.jpg,no_response,NaN,0,0,31,2,1
50,76661,0,1,2,51,3100,C,chosen,gain,26,Stimuli/Experimental_stims/body_parts/engin-akyurt-x_3gyC42btc-unsplash.jpg,no_gain,34,0,1,31,2,0
51,76661,0,1,3,52,2900,L,chosen,gain,18,Stimuli/Experimental_stims/faces/jessica-radanavong-mrYkTuAesKE-unsplash.jpg,no_gain,1326,0,1,21,2,0
52,76661,0,1,3,53,1500,C,unchosen,gain,11,Stimuli/Experimental_stims/outdoor_scenes/stephen-leonardi-gyIRjKPXupE-unsplash.jpg,no_gain,901,0,0,21,2,0
53,76661,0,1,3,54,1700,F,chosen,no_gain,23,Stimuli/Experimental_stims/faces/rikonavt-HQjfrvdTfak-unsplash.jpg,gain,1108,0,0,21,2,0
54,76661,0,1,3,55,2000,A,chosen,no_gain,0,Stimuli/Experimental_stims/outdoor_scenes/aleksandra-boguslawska-MS7KD9Ti7FQ-unsplash.jpg,no_gain,442,1,0,21,2,0
55,76661,0,1,3,56,2000,J,unchosen,gain,21,Stimuli/Experimental_stims/faces/leilani-angel-K84vnnzxmTQ-unsplash.jpg,no_gain,1330,0,0,21,2,0
56,76661,0,1,3,57,2900,E,unchosen,no_gain,32,Stimuli/Experimental_stims/body_parts/towfiqu-barbhuiya-3AsiVDsZnHg-unsplash.jpg,no_response,NaN,0,1,21,2,1
57,76661,0,1,3,58,2000,G,chosen,gain,8,Stimuli/Experimental_stims/outdoor_scenes/samsommer-vddccTqwal8-unsplash.jpg,no_response,NaN,0,0,21,2,1
58,76661,0,1,3,59,1000,K,unchosen,gain,36,Stimuli/Experimental_stims/objects/alexander-andrews-JYGnB9gTCls-unsplash.jpg,no_response,NaN,0,0,21,2,1
59,76661,0,1,3,60,1100,H,chosen,no_gain,3,Stimuli/Experimental_stims/outdoor_scenes/henry-be-NLF6hTe4PAg-unsplash.jpg,no_response,NaN,0,0,21,2,1
60,76661,0,1,3,61,1800,H,unchosen,no_gain,14,Stimuli/Experimental_stims/faces/david-siglin-UuW4psOb388-unsplash.jpg,no_response,NaN,0,0,21,2,1
61,76661,0,1,3,62,3200,F,unchosen,no_gain,34,Stimuli/Experimental_stims/body_parts/wagner-santos-mBWMvIuVnso-unsplash.jpg,no_gain,699,1,1,21,2,0
62,76661,0,1,3,63,1400,B,chosen,no_gain,16,Stimuli/Experimental_stims/faces/freddy-kearney-o-ioeoATbIM-unsplash.jpg,gain,837,0,0,21,2,0
63,76661,0,1,3,64,2100,G,unchosen,gain,44,Stimuli/Experimental_stims/objects/kuiye-chen-NuOGFo4PudE-unsplash.jpg,gain,750,1,0,21,2,0
64,76661,0,1,3,65,1200,K,chosen,gain,33,Stimuli/Experimental_stims/body_parts/tucker-good-36skLT5jZcc-unsplash.jpg,gain,829,1,0,21,2,0
65,76661,0,1,3,66,1100,I,unchosen,no_gain,4,Stimuli/Experimental_stims/outdoor_scenes/jarrett-kow-1ZOyYPOBn7I-unsplash.jpg,no_response,NaN,0,0,21,2,1
66,76661,0,1,3,67,4300,I,chosen,no_gain,29,Stimuli/Experimental_stims/body_parts/manuel-schinner-ZwjFuJ7ebpk-unsplash.jpg,no_response,NaN,0,1,21,2,1
67,76661,0,1,3,68,2300,A,unchosen,no_gain,46,Stimuli/Experimental_stims/objects/mockup-graphics-PNsj6RiHAF4-unsplash.jpg,no_gain,146,1,0,21,2,0
68,76661,0,1,3,69,1300,D,chosen,gain,13,Stimuli/Experimental_stims/faces/daniel-rigdon-dXmXKPP2L4E-unsplash.jpg,gain,58,1,0,21,2,0
69,76661,0,1,3,70,2000,D,unchosen,gain,39,Stimuli/Experimental_stims/objects/charlesdeluvio-1-nx1QR5dTE-unsplash.jpg,gain,46,1,0,21,2,0
70,76661,0,1,3,71,1900,C,chosen,gain,26,Stimuli/Experimental_stims/body_parts/engin-akyurt-x_3gyC42btc-unsplash.jpg,gain,1107,1,0,21,2,0
71,76661,0,1,3,72,2800,E,chosen,no_gain,41,Stimuli/Experimental_stims/objects/insung-yoon-w2JtIQQXoRU-unsplash.jpg,gain,1059,0,1,21,2,0
72,76661,0,1,3,73,1500,L,unchosen,gain,35,Stimuli/Experimental_stims/body_parts/wc-so-KH4AAPjb-tI-unsplash.jpg,gain,1350,1,0,21,2,0
73,76661,0,1,3,74,2100,B,unchosen,no_gain,2,Stimuli/Experimental_stims/outdoor_scenes/bruno-van-der-kraan-qez8mNJ3ilU-unsplash.jpg,no_response,NaN,0,0,21,2,1
74,76661,0,1,3,75,1500,J,chosen,gain,45,Stimuli/Experimental_stims/objects/leohoho-rngTKHXumy0-unsplash.jpg,no_response,NaN,0,0,21,2,1
75,76661,0,1,4,76,1400,C,unchosen,gain,11,Stimuli/Experimental_stims/outdoor_scenes/stephen-leonardi-gyIRjKPXupE-unsplash.jpg,gain,900,1,0,21,2,0
76,76661,0,1,4,77,4100,F,chosen,no_gain,23,Stimuli/Experimental_stims/faces/rikonavt-HQjfrvdTfak-unsplash.jpg,no_response,NaN,0,1,21,2,1
77,76661,0,1,4,78,1000,A,unchosen,no_gain,46,Stimuli/Experimental_stims/objects/mockup-graphics-PNsj6RiHAF4-unsplash.jpg,no_response,NaN,0,0,21,2,1
78,76661,0,1,4,79,2200,L,unchosen,gain,35,Stimuli/Experimental_stims/body_parts/wc-so-KH4AAPjb-tI-unsplash.jpg,no_gain,144,0,0,21,2,0
79,76661,0,1,4,80,1500,L,chosen,gain,18,Stimuli/Experimental_stims/faces/jessica-radanavong-mrYkTuAesKE-unsplash.jpg,gain,70,1,0,21,2,0
80,76661,0,1,4,81,1300,C,chosen,gain,26,Stimuli/Experimental_stims/body_parts/engin-akyurt-x_3gyC42btc-unsplash.jpg,gain,812,1,0,21,2,0
81,76661,0,1,4,82,2700,J,unchosen,gain,21,Stimuli/Experimental_stims/faces/leilani-angel-K84vnnzxmTQ-unsplash.jpg,no_gain,998,0,0,21,2,0
82,76661,0,1,4,83,1300,B,chosen,no_gain,16,Stimuli/Experimental_stims/faces/freddy-kearney-o-ioeoATbIM-unsplash.jpg,no_response,NaN,0,0,21,2,1
83,76661,0,1,4,84,2600,J,chosen,gain,45,Stimuli/Experimental_stims/objects/leohoho-rngTKHXumy0-unsplash.jpg,no_gain,69,0,0,21,2,0
84,76661,0,1,4,85,2900,I,unchosen,no_gain,4,Stimuli/Experimental_stims/outdoor_scenes/jarrett-kow-1ZOyYPOBn7I-unsplash.jpg,no_gain,744,1,1,21,2,0
85,76661,0,1,4,86,1800,E,chosen,no_gain,41,Stimuli/Experimental_stims/objects/insung-yoon-w2JtIQQXoRU-unsplash.jpg,gain,743,0,0,21,2,0
86,76661,0,1,4,87,1700,G,unchosen,gain,44,Stimuli/Experimental_stims/objects/kuiye-chen-NuOGFo4PudE-unsplash.jpg,no_response,NaN,0,0,21,2,1
87,76661,0,1,4,88,1800,B,unchosen,no_gain,2,Stimuli/Experimental_stims/outdoor_scenes/bruno-van-der-kraan-qez8mNJ3ilU-unsplash.jpg,gain,1342,0,0,21,2,0
88,76661,0,1,4,89,1900,D,chosen,gain,13,Stimuli/Experimental_stims/faces/daniel-rigdon-dXmXKPP2L4E-unsplash.jpg,gain,629,1,0,21,2,0
89,76661,0,1,4,90,3600,I,chosen,no_gain,29,Stimuli/Experimental_stims/body_parts/manuel-schinner-ZwjFuJ7ebpk-unsplash.jpg,gain,617,0,1,21,2,0
90,76661,0,1,4,91,2300,E,unchosen,no_gain,32,Stimuli/Experimental_stims/body_parts/towfiqu-barbhuiya-3AsiVDsZnHg-unsplash.jpg,no_gain,1396,1,0,21,2,0
91,76661,0,1,4,92,1400,A,chosen,no_gain,0,Stimuli/Experimental_stims/outdoor_scenes/aleksandra-boguslawska-MS7KD9Ti7FQ-unsplash.jpg,gain,695,0,0,21,2,0
92,76661,0,1,4,93,2600,H,unchosen,no_gain,14,Stimuli/Experimental_stims/faces/david-siglin-UuW4psOb388-unsplash.jpg,no_response,NaN,0,0,21,2,1
93,76661,0,1,4,94,2600,D,unchosen,gain,39,Stimuli/Experimental_stims/objects/charlesdeluvio-1-nx1QR5dTE-unsplash.jpg,no_response,NaN,0,0,21,2,1
94,76661,0,1,4,95,1000,H,chosen,no_gain,3,Stimuli/Experimental_stims/outdoor_scenes/henry-be-NLF6hTe4PAg-unsplash.jpg,gain,12,0,0,21,2,0
95,76661,0,1,4,96,1200,K,chosen,gain,33,Stimuli/Experimental_stims/body_parts/tucker-good-36skLT5jZcc-unsplash.jpg,gain,771,1,0,21,2,0
96,76661,0,1,4,97,1500,F,unchosen,no_gain,34,Stimuli/Experimental_stims/body_parts/wagner-santos-mBWMvIuVnso-unsplash.jpg,gain,541,0,0,21,2,0
97,76661,0,1,4,98,2200,K,unchosen,gain,36,Stimuli/Experimental_stims/objects/alexander-andrews-JYGnB9gTCls-unsplash.jpg,no_gain,60,0,0,21,2,0
98,76661,0,1,4,99,1800,G,chosen,gain,8,Stimuli/Experimental_stims/outdoor_scenes/samsommer-vddccTqwal8-unsplash.jpg,gain,26,1,0,21,2,0