,PID,practice,run,block,trial,iti,pair_id,choice_type,reward_type,stimulus_id,path,outcome_response,outcome_rt,outcome_acc,long_iti,simulation,version,no_response
0,70197,1,0,0,1,1500,,,,,Stimuli/Practice_stims/Outcome_estimation/becca-tapert-sY5RjMB1KkE-unsplash.jpg,no_gain,556,0,0,31,2,0
1,70197,1,0,0,2,1000,,,,,Stimuli/Practice_stims/Outcome_estimation/clay-banks-1KPfcPdbWFM-unsplash.jpg,no_gain,639,0,0,31,2,0
2,70197,1,0,0,3,3000,,,,,Stimuli/Practice_stims/Outcome_estimation/melissa-keizer-sV4Pd8wq5_o-unsplash.jpg,gain,697,0,0,31,2,0
3,70197,0,1,1,4,2300,E,unchosen,gain,26,Stimuli/Experimental_stims/body_parts/engin-akyurt-x_3gyC42btc-unsplash.jpg,no_gain,1162,0,0,31,2,0
4,70197,0,1,1,5,2500,B,chosen,gain,14,Stimuli/Experimental_stims/faces/david-siglin-UuW4psOb388-unsplash.jpg,gain,1256,1,0,31,2,0
5,70197,0,1,1,6,1600,A,unchosen,no_gain,38,Stimuli/Experimental_stims/objects/art-lasovsky-8XddFc6NkBY-unsplash.jpg,gain,1087,0,0,31,2,0
6,70197,0,1,1,7,1000,L,unchosen,no_gain,33,Stimuli/Experimental_stims/body_parts/tucker-good-36skLT5jZcc-unsplash.jpg,no_response,NaN,0,0,31,2,1
7,70197,0,1,1,8,2800,F,chosen,gain,23,Stimuli/Experimental_stims/faces/rikonavt-HQjfrvdTfak-unsplash.jpg,no_response,NaN,0,0,31,2,1
8,70197,0,1,1,9,1200,F,unchosen,gain,35,Stimuli/Experimental_stims/body_parts/wc-so-KH4AAPjb-tI-unsplash.jpg,no_response,NaN,0,0,31,2,1
9,70197,0,1,1,10,1000,C,unchosen,gain,25,Stimuli/Experimental_stims/body_parts/engin-akyurt-Q2rfH3GW39c-unsplash.jpg,no_gain,796,0,0,31,2,0
10,70197,0,1,1,11,3400,J,chosen,no_gain,39,Stimuli/Experimental_stims/objects/charlesdeluvio-1-nx1QR5dTE-unsplash.jpg,no_gain,1275,1,1,31,2,0
11,70197,0,1,1,12,2900,I,unchosen,no_gain,28,Stimuli/Experimental_stims/body_parts/ira-vishnevskaya-8DQAvdCby1I-unsplash.jpg,no_gain,1259,1,0,31,2,0
12,70197,0,1,1,13,2700,D,chosen,no_gain,21,Stimuli/Experimental_stims/faces/leilani-angel-K84vnnzxmTQ-unsplash.jpg,no_gain,966,1,0,31,2,0
13,70197,0,1,1,14,2200,B,unchosen,gain,11,Stimuli/Experimental_stims/outdoor_scenes/stephen-leonardi-gyIRjKPXupE-unsplash.jpg,gain,1358,1,0,31,2,0
14,70197,0,1,1,15,1400,H,chosen,gain,4,Stimuli/Experimental_stims/outdoor_scenes/jarrett-kow-1ZOyYPOBn7I-unsplash.jpg,no_gain,1041,0,0,31,2,0
15,70197,0,1,1,16,2200,L,chosen,no_gain,17,Stimuli/Experimental_stims/faces/good-faces-xmSWVeGEnJw-unsplash.jpg,no_gain,847,1,0,31,2,0
16,70197,0,1,1,17,3200,D,unchosen,no_gain,37,Stimuli/Experimental_stims/objects/alexander-andrews-VLGWE_SumrA-unsplash.jpg,no_gain,1359,1,1,31,2,0
17,70197,0,1,1,18,2500,C,chosen,gain,5,Stimuli/Experimental_stims/outdoor_scenes/jeff-king-bJHWJeiHfHc-unsplash.jpg,no_gain,885,0,0,31,2,0
18,70197,0,1,1,19,1100,G,unchosen,no_gain,46,Stimuli/Experimental_stims/objects/mockup-graphics-PNsj6RiHAF4-unsplash.jpg,no_gain,1099,1,0,31,2,0
19,70197,0,1,1,20,2100,I,chosen,no_gain,6,Stimuli/Experimental_stims/outdoor_scenes/meng-ji-8BH_M-53CyA-unsplash.jpg,no_gain,1260,1,0,31,2,0
20,70197,0,1,1,21,2600,E,chosen,gain,47,Stimuli/Experimental_stims/objects/ronaldo-arthur-vidal-Cdz_lvnl37k-unsplash.jpg,no_response,NaN,0,0,31,2,1
21,70197,0,1,1,22,3300,H,unchosen,gain,15,Stimuli/Experimental_stims/faces/erik-lucatero-d2MSDujJl2g-unsplash.jpg,no_response,NaN,0,1,31,2,1
22,70197,0,1,1,23,1900,G,chosen,no_gain,10,Stimuli/Experimental_stims/outdoor_scenes/shannon-kunkle-dM8INmkyDas-unsplash.jpg,gain,981,0,0,31,2,0
23,70197,0,1,1,24,1200,J,unchosen,no_gain,13,Stimuli/Experimental_stims/faces/daniel-rigdon-dXmXKPP2L4E-unsplash.jpg,no_response,NaN,0,0,31,2,1
24,70197,0,1,1,25,2400,K,chosen,gain,40,Stimuli/Experimental_stims/objects/fabian-blank-pElSkGRA2NU-unsplash.jpg,gain,1227,1,0,31,2,0
25,70197,0,1,1,26,1300,A,chosen,no_gain,3,Stimuli/Experimental_stims/outdoor_scenes/henry-be-NLF6hTe4PAg-unsplash.jpg,gain,1407,0,0,31,2,0
26,70197,0,1,1,27,1800,K,unchosen,gain,30,Stimuli/Experimental_stims/body_parts/mika-korhonen-Xodzxosar18-unsplash.jpg,gain,1213,1,0,31,2,0
27,70197,0,1,2,28,4200,E,unchosen,gain,26,Stimuli/Experimental_stims/body_parts/engin-akyurt-x_3gyC42btc-unsplash.jpg,no_gain,716,0,1,31,2,0
28,70197,0,1,2,29,1300,K,chosen,gain,40,Stimuli/Experimental_stims/objects/fabian-blank-pElSkGRA2NU-unsplash.jpg,gain,1221,1,0,31,2,0
29,70197,0,1,2,30,1900,F,chosen,gain,23,Stimuli/Experimental_stims/faces/rikonavt-HQjfrvdTfak-unsplash.jpg,gain,1361,1,0,31,2,0
30,70197,0,1,2,31,1400,L,unchosen,no_gain,33,Stimuli/Experimental_stims/body_parts/tucker-good-36skLT5jZcc-unsplash.jpg,no_response,NaN,0,0,31,2,1
31,70197,0,1,2,32,1300,J,unchosen,no_gain,13,Stimuli/Experimental_stims/faces/daniel-rigdon-dXmXKPP2L4E-unsplash.jpg,no_response,NaN,0,0,31,2,1
32,70197,0,1,2,33,1500,D,chosen,no_gain,21,Stimuli/Experimental_stims/faces/leilani-angel-K84vnnzxmTQ-unsplash.jpg,no_gain,835,1,0,31,2,0
33,70197,0,1,2,34,1300,D,unchosen,no_gain,37,Stimuli/Experimental_stims/objects/alexander-andrews-VLGWE_SumrA-unsplash.jpg,no_gain,803,1,0,31,2,0
34,70197,0,1,2,35,1700,J,chosen,no_gain,39,Stimuli/Experimental_stims/objects/charlesdeluvio-1-nx1QR5dTE-unsplash.jpg,no_gain,777,1,0,31,2,0
35,70197,0,1,2,36,1100,H,chosen,gain,4,Stimuli/Experimental_stims/outdoor_scenes/jarrett-kow-1ZOyYPOBn7I-unsplash.jpg,gain,1455,1,0,31,2,0
36,70197,0,1,2,37,3000,B,unchosen,gain,11,Stimuli/Experimental_stims/outdoor_scenes/stephen-leonardi-gyIRjKPXupE-unsplash.jpg,no_response,NaN,0,1,31,2,1
37,70197,0,1,2,38,1700,A,chosen,no_gain,3,Stimuli/Experimental_stims/outdoor_scenes/henry-be-NLF6hTe4PAg-unsplash.jpg,gain,882,0,0,31,2,0
38,70197,0,1,2,39,2900,B,chosen,gain,14,Stimuli/Experimental_stims/faces/david-siglin-UuW4psOb388-unsplash.jpg,gain,972,1,0,31,2,0
39,70197,0,1,2,40,1100,I,unchosen,no_gain,28,Stimuli/Experimental_stims/body_parts/ira-vishnevskaya-8DQAvdCby1I-unsplash.jpg,no_gain,1131,1,0,31,2,0
40,70197,0,1,2,41,1800,E,chosen,gain,47,Stimuli/Experimental_stims/objects/ronaldo-arthur-vidal-Cdz_lvnl37k-unsplash.jpg,gain,1150,1,0,31,2,0
41,70197,0,1,2,42,1100,G,unchosen,no_gain,46,Stimuli/Experimental_stims/objects/mockup-graphics-PNsj6RiHAF4-unsplash.jpg,no_gain,969,1,0,31,2,0
42,70197,0,1,2,43,2200,L,chosen,no_gain,17,Stimuli/Experimental_stims/faces/good-faces-xmSWVeGEnJw-unsplash.jpg,no_gain,1104,1,0,31,2,0
43,70197,0,1,2,44,1700,H,unchosen,gain,15,Stimuli/Experimental_stims/faces/erik-lucatero-d2MSDujJl2g-unsplash.jpg,no_gain,978,0,0,31,2,0
44,70197,0,1,2,45,1100,C,unchosen,gain,25,Stimuli/Experimental_stims/body_parts/engin-akyurt-Q2rfH3GW39c-unsplash.jpg,no_response,NaN,0,0,31,2,1
45,70197,0,1,2,46,3600,G,chosen,no_gain,10,Stimuli/Experimental_stims/outdoor_scenes/shannon-kunkle-dM8INmkyDas-unsplash.jpg,no_gain,10,1,1,31,2,0
46,70197,0,1,2,47,1800,K,unchosen,gain,30,Stimuli/Experimental_stims/body_parts/mika-korhonen-Xodzxosar18-unsplash.jpg,no_gain,728,0,0,31,2,0
47,70197,0,1,2,48,1500,A,unchosen,no_gain,38,Stimuli/Experimental_stims/objects/art-lasovsky-8XddFc6NkBY-unsplash.jpg,no_response,NaN,0,0,31,2,1
48,70197,0,1,2,49,1700,I,chosen,no_gain,6,Stimuli/Experimental_stims/outdoor_scenes/meng-ji-8BH_M-53CyA-unsplash.jpg,no_response,NaN,0,0,31,2,1
49,70197,0,1,2,50,1400,F,unchosen,gain,35,Stimuli/Experimental_stims/body_parts/wc-so-KH4AAPjb-tI-unsplash.jpg,no_response,NaN,0,0,31,2,1
50,70197,0,1,2,51,3100,C,chosen,gain,5,Stimuli/Experimental_stims/outdoor_scenes/jeff-king-bJHWJeiHfHc-unsplash.jpg,no_response,NaN,0,1,31,2,1
51,70197,0,1,3,52,2900,L,chosen,no_gain,17,Stimuli/Experimental_stims/faces/good-faces-xmSWVeGEnJw-unsplash.jpg,gain,968,0,1,21,2,0
52,70197,0,1,3,53,1500,C,unchosen,gain,25,Stimuli/Experimental_stims/body_parts/engin-akyurt-Q2rfH3GW39c-unsplash.jpg,gain,1168,1,0,21,2,0
53,70197,0,1,3,54,1700,F,chosen,gain,23,Stimuli/Experimental_stims/faces/rikonavt-HQjfrvdTfak-unsplash.jpg,no_gain,1075,0,0,21,2,0
54,70197,0,1,3,55,2000,A,chosen,no_gain,3,Stimuli/Experimental_stims/outdoor_scenes/henry-be-NLF6hTe4PAg-unsplash.jpg,no_gain,1160,1,0,21,2,0
55,70197,0,1,3,56,2000,J,unchosen,no_gain,13,Stimuli/Experimental_stims/faces/daniel-rigdon-dXmXKPP2L4E-unsplash.jpg,gain,1091,0,0,21,2,0
56,70197,0,1,3,57,2900,E,unchosen,gain,26,Stimuli/Experimental_stims/body_parts/engin-akyurt-x_3gyC42btc-unsplash.jpg,gain,649,1,1,21,2,0
57,70197,0,1,3,58,2000,G,chosen,no_gain,10,Stimuli/Experimental_stims/outdoor_scenes/shannon-kunkle-dM8INmkyDas-unsplash.jpg,no_gain,859,1,0,21,2,0
58,70197,0,1,3,59,1000,K,unchosen,gain,30,Stimuli/Experimental_stims/body_parts/mika-korhonen-Xodzxosar18-unsplash.jpg,no_response,NaN,0,0,21,2,1
59,70197,0,1,3,60,1100,H,chosen,gain,4,Stimuli/Experimental_stims/outdoor_scenes/jarrett-kow-1ZOyYPOBn7I-unsplash.jpg,gain,1197,1,0,21,2,0
60,70197,0,1,3,61,1800,H,unchosen,gain,15,Stimuli/Experimental_stims/faces/erik-lucatero-d2MSDujJl2g-unsplash.jpg,no_gain,828,0,0,21,2,0
61,70197,0,1,3,62,3200,F,unchosen,gain,35,Stimuli/Experimental_stims/body_parts/wc-so-KH4AAPjb-tI-unsplash.jpg,no_gain,1261,0,1,21,2,0
62,70197,0,1,3,63,1400,B,chosen,gain,14,Stimuli/Experimental_stims/faces/david-siglin-UuW4psOb388-unsplash.jpg,gain,1176,1,0,21,2,0
63,70197,0,1,3,64,2100,G,unchosen,no_gain,46,Stimuli/Experimental_stims/objects/mockup-graphics-PNsj6RiHAF4-unsplash.jpg,no_gain,1080,1,0,21,2,0
64,70197,0,1,3,65,1200,K,chosen,gain,40,Stimuli/Experimental_stims/objects/fabian-blank-pElSkGRA2NU-unsplash.jpg,gain,992,1,0,21,2,0
65,70197,0,1,3,66,1100,I,unchosen,no_gain,28,Stimuli/Experimental_stims/body_parts/ira-vishnevskaya-8DQAvdCby1I-unsplash.jpg,no_gain,1269,1,0,21,2,0
66,70197,0,1,3,67,4300,I,chosen,no_gain,6,Stimuli/Experimental_stims/outdoor_scenes/meng-ji-8BH_M-53CyA-unsplash.jpg,gain,1135,0,1,21,2,0
67,70197,0,1,3,68,2300,A,unchosen,no_gain,38,Stimuli/Experimental_stims/objects/art-lasovsky-8XddFc6NkBY-unsplash.jpg,no_gain,733,1,0,21,2,0
68,70197,0,1,3,69,1300,D,chosen,no_gain,21,Stimuli/Experimental_stims/faces/leilani-angel-K84vnnzxmTQ-unsplash.jpg,no_gain,1166,1,0,21,2,0
69,70197,0,1,3,70,2000,D,unchosen,no_gain,37,Stimuli/Experimental_stims/objects/alexander-andrews-VLGWE_SumrA-unsplash.jpg,no_gain,732,1,0,21,2,0
70,70197,0,1,3,71,1900,C,chosen,gain,5,Stimuli/Experimental_stims/outdoor_scenes/jeff-king-bJHWJeiHfHc-unsplash.jpg,gain,1255,1,0,21,2,0
71,70197,0,1,3,72,2800,E,chosen,gain,47,Stimuli/Experimental_stims/objects/ronaldo-arthur-vidal-Cdz_lvnl37k-unsplash.jpg,gain,1117,1,1,21,2,0
72,70197,0,1,3,73,1500,L,unchosen,no_gain,33,Stimuli/Experimental_stims/body_parts/tucker-good-36skLT5jZcc-unsplash.jpg,no_gain,1501,1,0,21,2,0
73,70197,0,1,3,74,2100,B,unchosen,gain,11,Stimuli/Experimental_stims/outdoor_scenes/stephen-leonardi-gyIRjKPXupE-unsplash.jpg,gain,1061,1,0,21,2,0
74,70197,0,1,3,75,1500,J,chosen,no_gain,39,Stimuli/Experimental_stims/objects/charlesdeluvio-1-nx1QR5dTE-unsplash.jpg,no_gain,1202,1,0,21,2,0
75,70197,0,1,4,76,1400,C,unchosen,gain,25,Stimuli/Experimental_stims/body_parts/engin-akyurt-Q2rfH3GW39c-unsplash.jpg,no_response,NaN,0,0,21,2,1
76,70197,0,1,4,77,4100,F,chosen,gain,23,Stimuli/Experimental_stims/faces/rikonavt-HQjfrvdTfak-unsplash.jpg,gain,1347,1,1,21,2,0
77,70197,0,1,4,78,1000,A,unchosen,no_gain,38,Stimuli/Experimental_stims/objects/art-lasovsky-8XddFc6NkBY-unsplash.jpg,no_gain,1066,1,0,21,2,0
78,70197,0,1,4,79,2200,L,unchosen,no_gain,33,Stimuli/Experimental_stims/body_parts/tucker-good-36skLT5jZcc-unsplash.jpg,no_gain,1421,1,0,21,2,0
79,70197,0,1,4,80,1500,L,chosen,no_gain,17,Stimuli/Experimental_stims/faces/good-faces-xmSWVeGEnJw-unsplash.jpg,no_gain,1193,1,0,21,2,0
80,70197,0,1,4,81,1300,C,chosen,gain,5,Stimuli/Experimental_stims/outdoor_scenes/jeff-king-bJHWJeiHfHc-unsplash.jpg,no_gain,1428,0,0,21,2,0
81,70197,0,1,4,82,2700,J,unchosen,no_gain,13,Stimuli/Experimental_stims/faces/daniel-rigdon-dXmXKPP2L4E-unsplash.jpg,gain,759,0,0,21,2,0
82,70197,0,1,4,83,1300,B,chosen,gain,14,Stimuli/Experimental_stims/faces/david-siglin-UuW4psOb388-unsplash.jpg,gain,921,1,0,21,2,0
83,70197,0,1,4,84,2600,J,chosen,no_gain,39,Stimuli/Experimental_stims/objects/charlesdeluvio-1-nx1QR5dTE-unsplash.jpg,no_gain,1394,1,0,21,2,0
84,70197,0,1,4,85,2900,I,unchosen,no_gain,28,Stimuli/Experimental_stims/body_parts/ira-vishnevskaya-8DQAvdCby1I-unsplash.jpg,no_gain,918,1,1,21,2,0
85,70197,0,1,4,86,1800,E,chosen,gain,47,Stimuli/Experimental_stims/objects/ronaldo-arthur-vidal-Cdz_lvnl37k-unsplash.jpg,no_gain,1306,0,0,21,2,0
86,70197,0,1,4,87,1700,G,unchosen,no_gain,46,Stimuli/Experimental_stims/objects/mockup-graphics-PNsj6RiHAF4-unsplash.jpg,no_gain,900,1,0,21,2,0
87,70197,0,1,4,88,1800,B,unchosen,gain,11,Stimuli/Experimental_stims/outdoor_scenes/stephen-leonardi-gyIRjKPXupE-unsplash.jpg,gain,1301,1,0,21,2,0
88,70197,0,1,4,89,1900,D,chosen,no_gain,21,Stimuli/Experimental_stims/faces/leilani-angel-K84vnnzxmTQ-unsplash.jpg,no_gain,1098,1,0,21,2,0
89,70197,0,1,4,90,3600,I,chosen,no_gain,6,Stimuli/Experimental_stims/outdoor_scenes/meng-ji-8BH_M-53CyA-unsplash.jpg,no_response,NaN,0,1,21,2,1
90,70197,0,1,4,91,2300,E,unchosen,gain,26,Stimuli/Experimental_stims/body_parts/engin-akyurt-x_3gyC42btc-unsplash.jpg,no_gain,1241,0,0,21,2,0
91,70197,0,1,4,92,1400,A,chosen,no_gain,3,Stimuli/Experimental_stims/outdoor_scenes/henry-be-NLF6hTe4PAg-unsplash.jpg,no_gain,1204,1,0,21,2,0
92,70197,0,1,4,93,2600,H,unchosen,gain,15,Stimuli/Experimental_stims/faces/erik-lucatero-d2MSDujJl2g-unsplash.jpg,no_gain,877,0,0,21,2,0
93,70197,0,1,4,94,2600,D,unchosen,no_gain,37,Stimuli/Experimental_stims/objects/alexander-andrews-VLGWE_SumrA-unsplash.jpg,no_gain,641,1,0,21,2,0
94,70197,0,1,4,95,1000,H,chosen,gain,4,Stimuli/Experimental_stims/outdoor_scenes/jarrett-kow-1ZOyYPOBn7I-unsplash.jpg,no_response,NaN,0,0,21,2,1
95,70197,0,1,4,96,1200,K,chosen,gain,40,Stimuli/Experimental_stims/objects/fabian-blank-pElSkGRA2NU-unsplash.jpg,gain,995,1,0,21,2,0
96,70197,0,1,4,97,1500,F,unchosen,gain,35,Stimuli/Experimental_stims/body_parts/wc-so-KH4AAPjb-tI-unsplash.jpg,no_gain,1312,0,0,21,2,0
97,70197,0,1,4,98,2200,K,unchosen,gain,30,Stimuli/Experimental_stims/body_parts/mika-korhonen-Xodzxosar18-unsplash.jpg,no_gain,1128,0,0,21,2,0
98,70197,0,1,4,99,1800,G,chosen,no_gain,10,Stimuli/Experimental_stims/outdoor_scenes/shannon-kunkle-dM8INmkyDas-unsplash.jpg,gain,1127,0,0,21,2,0