,PID,practice,run,block,trial,iti,pair_id,choice_type,reward_type,stimulus_id,path,outcome_response,outcome_rt,outcome_acc,long_iti,simulation,version,no_response
0,53286,1,0,0,1,1500,,,,,Stimuli/Practice_stims/Outcome_estimation/becca-tapert-sY5RjMB1KkE-unsplash.jpg,gain,1402,0,0,43,3,0
1,53286,1,0,0,2,1000,,,,,Stimuli/Practice_stims/Outcome_estimation/clay-banks-1KPfcPdbWFM-unsplash.jpg,gain,289,0,0,43,3,0
2,53286,1,0,0,3,3000,,,,,Stimuli/Practice_stims/Outcome_estimation/melissa-keizer-sV4Pd8wq5_o-unsplash.jpg,gain,2,0,0,43,3,0
3,53286,0,1,1,4,1900,G,unchosen,gain,3,Stimuli/Experimental_stims/outdoor_scenes/henry-be-NLF6hTe4PAg-unsplash.jpg,gain,776,1,0,43,3,0
4,53286,0,1,1,5,1200,G,chosen,gain,39,Stimuli/Experimental_stims/objects/charlesdeluvio-1-nx1QR5dTE-unsplash.jpg,no_response,NaN,0,0,43,3,1
5,53286,0,1,1,6,1200,C,chosen,no_gain,7,Stimuli/Experimental_stims/outdoor_scenes/petr-vysohlid-9fqwGqGLUxc-unsplash.jpg,no_response,NaN,0,0,43,3,1
6,53286,0,1,1,7,2100,J,unchosen,no_gain,42,Stimuli/Experimental_stims/objects/jess-bailey-nOeVi8DsN8U-unsplash.jpg,no_response,NaN,0,0,43,3,1
7,53286,0,1,1,8,2600,D,unchosen,gain,15,Stimuli/Experimental_stims/faces/erik-lucatero-d2MSDujJl2g-unsplash.jpg,no_response,NaN,0,0,43,3,1
8,53286,0,1,1,9,1100,I,chosen,gain,31,Stimuli/Experimental_stims/body_parts/sincerely-media-VN6DbKajo5s-unsplash.jpg,no_response,NaN,0,0,43,3,1
9,53286,0,1,1,10,3400,H,unchosen,gain,11,Stimuli/Experimental_stims/outdoor_scenes/stephen-leonardi-gyIRjKPXupE-unsplash.jpg,no_response,NaN,0,1,43,3,1
10,53286,0,1,1,11,1300,D,chosen,gain,41,Stimuli/Experimental_stims/objects/insung-yoon-w2JtIQQXoRU-unsplash.jpg,no_response,NaN,0,0,43,3,1
11,53286,0,1,1,12,1300,I,unchosen,gain,1,Stimuli/Experimental_stims/outdoor_scenes/ashim-d-silva-S2Q5mdOrrVc-unsplash.jpg,no_response,NaN,0,0,43,3,1
12,53286,0,1,1,13,2900,C,unchosen,no_gain,30,Stimuli/Experimental_stims/body_parts/mika-korhonen-Xodzxosar18-unsplash.jpg,no_response,NaN,0,0,43,3,1
13,53286,0,1,1,14,1200,K,chosen,no_gain,35,Stimuli/Experimental_stims/body_parts/wc-so-KH4AAPjb-tI-unsplash.jpg,no_response,NaN,0,0,43,3,1
14,53286,0,1,1,15,4100,K,unchosen,no_gain,36,Stimuli/Experimental_stims/objects/alexander-andrews-JYGnB9gTCls-unsplash.jpg,no_response,NaN,0,1,43,3,1
15,53286,0,1,1,16,1400,E,chosen,no_gain,44,Stimuli/Experimental_stims/objects/kuiye-chen-NuOGFo4PudE-unsplash.jpg,no_response,NaN,0,0,43,3,1
16,53286,0,1,1,17,1300,F,unchosen,no_gain,25,Stimuli/Experimental_stims/body_parts/engin-akyurt-Q2rfH3GW39c-unsplash.jpg,no_response,NaN,0,0,43,3,1
17,53286,0,1,1,18,1900,B,unchosen,gain,12,Stimuli/Experimental_stims/faces/aiony-haust-jmATI5Q_YgY-unsplash.jpg,no_response,NaN,0,0,43,3,1
18,53286,0,1,1,19,1200,A,chosen,no_gain,0,Stimuli/Experimental_stims/outdoor_scenes/aleksandra-boguslawska-MS7KD9Ti7FQ-unsplash.jpg,no_response,NaN,0,0,43,3,1
19,53286,0,1,1,20,2100,F,chosen,no_gain,14,Stimuli/Experimental_stims/faces/david-siglin-UuW4psOb388-unsplash.jpg,no_response,NaN,0,0,43,3,1
20,53286,0,1,1,21,3500,A,unchosen,no_gain,38,Stimuli/Experimental_stims/objects/art-lasovsky-8XddFc6NkBY-unsplash.jpg,no_response,NaN,0,1,43,3,1
21,53286,0,1,1,22,2000,L,chosen,gain,28,Stimuli/Experimental_stims/body_parts/ira-vishnevskaya-8DQAvdCby1I-unsplash.jpg,no_response,NaN,0,0,43,3,1
22,53286,0,1,1,23,1300,H,chosen,gain,16,Stimuli/Experimental_stims/faces/freddy-kearney-o-ioeoATbIM-unsplash.jpg,no_response,NaN,0,0,43,3,1
23,53286,0,1,1,24,2900,E,unchosen,no_gain,24,Stimuli/Experimental_stims/body_parts/clay-banks-LjqARJaJotc-unsplash.jpg,no_response,NaN,0,0,43,3,1
24,53286,0,1,1,25,1600,B,chosen,gain,4,Stimuli/Experimental_stims/outdoor_scenes/jarrett-kow-1ZOyYPOBn7I-unsplash.jpg,no_response,NaN,0,0,43,3,1
25,53286,0,1,1,26,3500,J,chosen,no_gain,17,Stimuli/Experimental_stims/faces/good-faces-xmSWVeGEnJw-unsplash.jpg,no_response,NaN,0,1,43,3,1
26,53286,0,1,1,27,1000,L,unchosen,gain,20,Stimuli/Experimental_stims/faces/justin-chen-J7Cf1Gch49E-unsplash.jpg,no_response,NaN,0,0,43,3,1
27,53286,0,1,2,28,1500,J,unchosen,no_gain,42,Stimuli/Experimental_stims/objects/jess-bailey-nOeVi8DsN8U-unsplash.jpg,no_response,NaN,0,0,43,3,1
28,53286,0,1,2,29,1700,E,chosen,no_gain,44,Stimuli/Experimental_stims/objects/kuiye-chen-NuOGFo4PudE-unsplash.jpg,no_response,NaN,0,0,43,3,1
29,53286,0,1,2,30,1000,D,unchosen,gain,15,Stimuli/Experimental_stims/faces/erik-lucatero-d2MSDujJl2g-unsplash.jpg,no_response,NaN,0,0,43,3,1
30,53286,0,1,2,31,2500,K,chosen,no_gain,35,Stimuli/Experimental_stims/body_parts/wc-so-KH4AAPjb-tI-unsplash.jpg,no_response,NaN,0,0,43,3,1
31,53286,0,1,2,32,4300,G,chosen,gain,39,Stimuli/Experimental_stims/objects/charlesdeluvio-1-nx1QR5dTE-unsplash.jpg,no_response,NaN,0,1,43,3,1
32,53286,0,1,2,33,1300,B,unchosen,gain,12,Stimuli/Experimental_stims/faces/aiony-haust-jmATI5Q_YgY-unsplash.jpg,no_response,NaN,0,0,43,3,1
33,53286,0,1,2,34,1900,H,unchosen,gain,11,Stimuli/Experimental_stims/outdoor_scenes/stephen-leonardi-gyIRjKPXupE-unsplash.jpg,no_response,NaN,0,0,43,3,1
34,53286,0,1,2,35,1500,F,chosen,no_gain,14,Stimuli/Experimental_stims/faces/david-siglin-UuW4psOb388-unsplash.jpg,no_response,NaN,0,0,43,3,1
35,53286,0,1,2,36,2200,C,unchosen,no_gain,30,Stimuli/Experimental_stims/body_parts/mika-korhonen-Xodzxosar18-unsplash.jpg,no_response,NaN,0,0,43,3,1
36,53286,0,1,2,37,1200,A,unchosen,no_gain,38,Stimuli/Experimental_stims/objects/art-lasovsky-8XddFc6NkBY-unsplash.jpg,no_response,NaN,0,0,43,3,1
37,53286,0,1,2,38,1300,L,chosen,gain,28,Stimuli/Experimental_stims/body_parts/ira-vishnevskaya-8DQAvdCby1I-unsplash.jpg,no_response,NaN,0,0,43,3,1
38,53286,0,1,2,39,1100,C,chosen,no_gain,7,Stimuli/Experimental_stims/outdoor_scenes/petr-vysohlid-9fqwGqGLUxc-unsplash.jpg,no_response,NaN,0,0,43,3,1
39,53286,0,1,2,40,3300,K,unchosen,no_gain,36,Stimuli/Experimental_stims/objects/alexander-andrews-JYGnB9gTCls-unsplash.jpg,no_response,NaN,0,1,43,3,1
40,53286,0,1,2,41,1200,L,unchosen,gain,20,Stimuli/Experimental_stims/faces/justin-chen-J7Cf1Gch49E-unsplash.jpg,no_response,NaN,0,0,43,3,1
41,53286,0,1,2,42,1700,D,chosen,gain,41,Stimuli/Experimental_stims/objects/insung-yoon-w2JtIQQXoRU-unsplash.jpg,no_response,NaN,0,0,43,3,1
42,53286,0,1,2,43,1200,E,unchosen,no_gain,24,Stimuli/Experimental_stims/body_parts/clay-banks-LjqARJaJotc-unsplash.jpg,no_response,NaN,0,0,43,3,1
43,53286,0,1,2,44,3000,I,unchosen,gain,1,Stimuli/Experimental_stims/outdoor_scenes/ashim-d-silva-S2Q5mdOrrVc-unsplash.jpg,no_response,NaN,0,0,43,3,1
44,53286,0,1,2,45,3700,H,chosen,gain,16,Stimuli/Experimental_stims/faces/freddy-kearney-o-ioeoATbIM-unsplash.jpg,no_response,NaN,0,1,43,3,1
45,53286,0,1,2,46,1300,G,unchosen,gain,3,Stimuli/Experimental_stims/outdoor_scenes/henry-be-NLF6hTe4PAg-unsplash.jpg,no_response,NaN,0,0,43,3,1
46,53286,0,1,2,47,1200,B,chosen,gain,4,Stimuli/Experimental_stims/outdoor_scenes/jarrett-kow-1ZOyYPOBn7I-unsplash.jpg,no_response,NaN,0,0,43,3,1
47,53286,0,1,2,48,1500,I,chosen,gain,31,Stimuli/Experimental_stims/body_parts/sincerely-media-VN6DbKajo5s-unsplash.jpg,no_response,NaN,0,0,43,3,1
48,53286,0,1,2,49,2900,F,unchosen,no_gain,25,Stimuli/Experimental_stims/body_parts/engin-akyurt-Q2rfH3GW39c-unsplash.jpg,no_response,NaN,0,0,43,3,1
49,53286,0,1,2,50,1700,A,chosen,no_gain,0,Stimuli/Experimental_stims/outdoor_scenes/aleksandra-boguslawska-MS7KD9Ti7FQ-unsplash.jpg,no_response,NaN,0,0,43,3,1
50,53286,0,1,2,51,3800,J,chosen,no_gain,17,Stimuli/Experimental_stims/faces/good-faces-xmSWVeGEnJw-unsplash.jpg,no_response,NaN,0,1,43,3,1
51,53286,0,1,3,52,3000,I,unchosen,gain,1,Stimuli/Experimental_stims/outdoor_scenes/ashim-d-silva-S2Q5mdOrrVc-unsplash.jpg,no_response,NaN,0,1,1,3,1
52,53286,0,1,3,53,2500,D,chosen,gain,41,Stimuli/Experimental_stims/objects/insung-yoon-w2JtIQQXoRU-unsplash.jpg,no_response,NaN,0,0,1,3,1
53,53286,0,1,3,54,1100,C,chosen,no_gain,7,Stimuli/Experimental_stims/outdoor_scenes/petr-vysohlid-9fqwGqGLUxc-unsplash.jpg,no_response,NaN,0,0,1,3,1
54,53286,0,1,3,55,1500,K,unchosen,no_gain,36,Stimuli/Experimental_stims/objects/alexander-andrews-JYGnB9gTCls-unsplash.jpg,no_response,NaN,0,0,1,3,1
55,53286,0,1,3,56,2100,C,unchosen,no_gain,30,Stimuli/Experimental_stims/body_parts/mika-korhonen-Xodzxosar18-unsplash.jpg,no_response,NaN,0,0,1,3,1
56,53286,0,1,3,57,2200,A,chosen,no_gain,0,Stimuli/Experimental_stims/outdoor_scenes/aleksandra-boguslawska-MS7KD9Ti7FQ-unsplash.jpg,no_response,NaN,0,0,1,3,1
57,53286,0,1,3,58,3200,J,unchosen,no_gain,42,Stimuli/Experimental_stims/objects/jess-bailey-nOeVi8DsN8U-unsplash.jpg,no_response,NaN,0,1,1,3,1
58,53286,0,1,3,59,2500,J,chosen,no_gain,17,Stimuli/Experimental_stims/faces/good-faces-xmSWVeGEnJw-unsplash.jpg,no_response,NaN,0,0,1,3,1
59,53286,0,1,3,60,1900,H,chosen,gain,16,Stimuli/Experimental_stims/faces/freddy-kearney-o-ioeoATbIM-unsplash.jpg,no_response,NaN,0,0,1,3,1
60,53286,0,1,3,61,2500,A,unchosen,no_gain,38,Stimuli/Experimental_stims/objects/art-lasovsky-8XddFc6NkBY-unsplash.jpg,no_response,NaN,0,0,1,3,1
61,53286,0,1,3,62,1800,G,chosen,gain,39,Stimuli/Experimental_stims/objects/charlesdeluvio-1-nx1QR5dTE-unsplash.jpg,no_response,NaN,0,0,1,3,1
62,53286,0,1,3,63,1800,F,chosen,no_gain,14,Stimuli/Experimental_stims/faces/david-siglin-UuW4psOb388-unsplash.jpg,no_response,NaN,0,0,1,3,1
63,53286,0,1,3,64,1500,B,unchosen,gain,12,Stimuli/Experimental_stims/faces/aiony-haust-jmATI5Q_YgY-unsplash.jpg,no_response,NaN,0,0,1,3,1
64,53286,0,1,3,65,3500,I,chosen,gain,31,Stimuli/Experimental_stims/body_parts/sincerely-media-VN6DbKajo5s-unsplash.jpg,no_response,NaN,0,1,1,3,1
65,53286,0,1,3,66,2500,F,unchosen,no_gain,25,Stimuli/Experimental_stims/body_parts/engin-akyurt-Q2rfH3GW39c-unsplash.jpg,no_response,NaN,0,0,1,3,1
66,53286,0,1,3,67,1400,E,chosen,no_gain,44,Stimuli/Experimental_stims/objects/kuiye-chen-NuOGFo4PudE-unsplash.jpg,no_response,NaN,0,0,1,3,1
67,53286,0,1,3,68,1100,E,unchosen,no_gain,24,Stimuli/Experimental_stims/body_parts/clay-banks-LjqARJaJotc-unsplash.jpg,no_response,NaN,0,0,1,3,1
68,53286,0,1,3,69,1200,L,chosen,gain,28,Stimuli/Experimental_stims/body_parts/ira-vishnevskaya-8DQAvdCby1I-unsplash.jpg,no_response,NaN,0,0,1,3,1
69,53286,0,1,3,70,4400,D,unchosen,gain,15,Stimuli/Experimental_stims/faces/erik-lucatero-d2MSDujJl2g-unsplash.jpg,no_response,NaN,0,1,1,3,1
70,53286,0,1,3,71,1100,G,unchosen,gain,3,Stimuli/Experimental_stims/outdoor_scenes/henry-be-NLF6hTe4PAg-unsplash.jpg,no_response,NaN,0,0,1,3,1
71,53286,0,1,3,72,1100,B,chosen,gain,4,Stimuli/Experimental_stims/outdoor_scenes/jarrett-kow-1ZOyYPOBn7I-unsplash.jpg,no_response,NaN,0,0,1,3,1
72,53286,0,1,3,73,1000,L,unchosen,gain,20,Stimuli/Experimental_stims/faces/justin-chen-J7Cf1Gch49E-unsplash.jpg,no_response,NaN,0,0,1,3,1
73,53286,0,1,3,74,1400,H,unchosen,gain,11,Stimuli/Experimental_stims/outdoor_scenes/stephen-leonardi-gyIRjKPXupE-unsplash.jpg,no_response,NaN,0,0,1,3,1
74,53286,0,1,3,75,1200,K,chosen,no_gain,35,Stimuli/Experimental_stims/body_parts/wc-so-KH4AAPjb-tI-unsplash.jpg,no_response,NaN,0,0,1,3,1
75,53286,0,1,4,76,2600,C,chosen,no_gain,7,Stimuli/Experimental_stims/outdoor_scenes/petr-vysohlid-9fqwGqGLUxc-unsplash.jpg,no_response,NaN,0,0,1,3,1
76,53286,0,1,4,77,1500,H,unchosen,gain,11,Stimuli/Experimental_stims/outdoor_scenes/stephen-leonardi-gyIRjKPXupE-unsplash.jpg,no_response,NaN,0,0,1,3,1
77,53286,0,1,4,78,2600,J,unchosen,no_gain,42,Stimuli/Experimental_stims/objects/jess-bailey-nOeVi8DsN8U-unsplash.jpg,no_response,NaN,0,0,1,3,1
78,53286,0,1,4,79,1800,D,chosen,gain,41,Stimuli/Experimental_stims/objects/insung-yoon-w2JtIQQXoRU-unsplash.jpg,no_response,NaN,0,0,1,3,1
79,53286,0,1,4,80,3500,B,chosen,gain,4,Stimuli/Experimental_stims/outdoor_scenes/jarrett-kow-1ZOyYPOBn7I-unsplash.jpg,no_response,NaN,0,1,1,3,1
80,53286,0,1,4,81,1000,G,unchosen,gain,3,Stimuli/Experimental_stims/outdoor_scenes/henry-be-NLF6hTe4PAg-unsplash.jpg,no_response,NaN,0,0,1,3,1
81,53286,0,1,4,82,2300,K,chosen,no_gain,35,Stimuli/Experimental_stims/body_parts/wc-so-KH4AAPjb-tI-unsplash.jpg,no_response,NaN,0,0,1,3,1
82,53286,0,1,4,83,1900,C,unchosen,no_gain,30,Stimuli/Experimental_stims/body_parts/mika-korhonen-Xodzxosar18-unsplash.jpg,no_response,NaN,0,0,1,3,1
83,53286,0,1,4,84,2200,G,chosen,gain,39,Stimuli/Experimental_stims/objects/charlesdeluvio-1-nx1QR5dTE-unsplash.jpg,no_response,NaN,0,0,1,3,1
84,53286,0,1,4,85,4100,J,chosen,no_gain,17,Stimuli/Experimental_stims/faces/good-faces-xmSWVeGEnJw-unsplash.jpg,no_response,NaN,0,1,1,3,1
85,53286,0,1,4,86,1200,B,unchosen,gain,12,Stimuli/Experimental_stims/faces/aiony-haust-jmATI5Q_YgY-unsplash.jpg,no_response,NaN,0,0,1,3,1
86,53286,0,1,4,87,1200,K,unchosen,no_gain,36,Stimuli/Experimental_stims/objects/alexander-andrews-JYGnB9gTCls-unsplash.jpg,no_response,NaN,0,0,1,3,1
87,53286,0,1,4,88,1000,I,chosen,gain,31,Stimuli/Experimental_stims/body_parts/sincerely-media-VN6DbKajo5s-unsplash.jpg,no_response,NaN,0,0,1,3,1
88,53286,0,1,4,89,2300,I,unchosen,gain,1,Stimuli/Experimental_stims/outdoor_scenes/ashim-d-silva-S2Q5mdOrrVc-unsplash.jpg,no_response,NaN,0,0,1,3,1
89,53286,0,1,4,90,1900,A,chosen,no_gain,0,Stimuli/Experimental_stims/outdoor_scenes/aleksandra-boguslawska-MS7KD9Ti7FQ-unsplash.jpg,no_response,NaN,0,0,1,3,1
90,53286,0,1,4,91,1100,D,unchosen,gain,15,Stimuli/Experimental_stims/faces/erik-lucatero-d2MSDujJl2g-unsplash.jpg,no_response,NaN,0,0,1,3,1
91,53286,0,1,4,92,1400,H,chosen,gain,16,Stimuli/Experimental_stims/faces/freddy-kearney-o-ioeoATbIM-unsplash.jpg,no_response,NaN,0,0,1,3,1
92,53286,0,1,4,93,1400,L,chosen,gain,28,Stimuli/Experimental_stims/body_parts/ira-vishnevskaya-8DQAvdCby1I-unsplash.jpg,no_response,NaN,0,0,1,3,1
93,53286,0,1,4,94,4900,L,unchosen,gain,20,Stimuli/Experimental_stims/faces/justin-chen-J7Cf1Gch49E-unsplash.jpg,no_response,NaN,0,1,1,3,1
94,53286,0,1,4,95,1700,E,unchosen,no_gain,24,Stimuli/Experimental_stims/body_parts/clay-banks-LjqARJaJotc-unsplash.jpg,no_response,NaN,0,0,1,3,1
95,53286,0,1,4,96,1300,E,chosen,no_gain,44,Stimuli/Experimental_stims/objects/kuiye-chen-NuOGFo4PudE-unsplash.jpg,no_response,NaN,0,0,1,3,1
96,53286,0,1,4,97,1100,F,unchosen,no_gain,25,Stimuli/Experimental_stims/body_parts/engin-akyurt-Q2rfH3GW39c-unsplash.jpg,no_response,NaN,0,0,1,3,1
97,53286,0,1,4,98,1300,F,chosen,no_gain,14,Stimuli/Experimental_stims/faces/david-siglin-UuW4psOb388-unsplash.jpg,no_response,NaN,0,0,1,3,1
98,53286,0,1,4,99,3200,A,unchosen,no_gain,38,Stimuli/Experimental_stims/objects/art-lasovsky-8XddFc6NkBY-unsplash.jpg,no_response,NaN,0,1,1,3,1