,PID,practice,run,block,trial,iti,pair_id,choice_type,reward_type,stimulus_id,path,outcome_response,outcome_rt,outcome_acc,long_iti,simulation,version,no_response
0,59186,1,0,0,1,1500,,,,,Stimuli/Practice_stims/Outcome_estimation/becca-tapert-sY5RjMB1KkE-unsplash.jpg,gain,509,0,0,43,3,0
1,59186,1,0,0,2,1000,,,,,Stimuli/Practice_stims/Outcome_estimation/clay-banks-1KPfcPdbWFM-unsplash.jpg,gain,472,0,0,43,3,0
2,59186,1,0,0,3,3000,,,,,Stimuli/Practice_stims/Outcome_estimation/melissa-keizer-sV4Pd8wq5_o-unsplash.jpg,gain,501,0,0,43,3,0
3,59186,0,1,1,4,1900,G,unchosen,no_gain,40,Stimuli/Experimental_stims/objects/fabian-blank-pElSkGRA2NU-unsplash.jpg,gain,723,0,0,43,3,0
4,59186,0,1,1,5,1200,G,chosen,no_gain,2,Stimuli/Experimental_stims/outdoor_scenes/bruno-van-der-kraan-qez8mNJ3ilU-unsplash.jpg,no_gain,756,1,0,43,3,0
5,59186,0,1,1,6,1200,C,chosen,gain,9,Stimuli/Experimental_stims/outdoor_scenes/sergey-pesterev-y-b_FOmJXdg-unsplash.jpg,gain,657,1,0,43,3,0
6,59186,0,1,1,7,2100,J,unchosen,no_gain,39,Stimuli/Experimental_stims/objects/charlesdeluvio-1-nx1QR5dTE-unsplash.jpg,gain,750,0,0,43,3,0
7,59186,0,1,1,8,2600,D,unchosen,gain,47,Stimuli/Experimental_stims/objects/ronaldo-arthur-vidal-Cdz_lvnl37k-unsplash.jpg,gain,876,1,0,43,3,0
8,59186,0,1,1,9,1100,I,chosen,no_gain,4,Stimuli/Experimental_stims/outdoor_scenes/jarrett-kow-1ZOyYPOBn7I-unsplash.jpg,no_gain,662,1,0,43,3,0
9,59186,0,1,1,10,3400,H,unchosen,gain,15,Stimuli/Experimental_stims/faces/erik-lucatero-d2MSDujJl2g-unsplash.jpg,gain,723,1,1,43,3,0
10,59186,0,1,1,11,1300,D,chosen,gain,16,Stimuli/Experimental_stims/faces/freddy-kearney-o-ioeoATbIM-unsplash.jpg,no_gain,706,0,0,43,3,0
11,59186,0,1,1,12,1300,I,unchosen,no_gain,35,Stimuli/Experimental_stims/body_parts/wc-so-KH4AAPjb-tI-unsplash.jpg,gain,900,0,0,43,3,0
12,59186,0,1,1,13,2900,C,unchosen,gain,30,Stimuli/Experimental_stims/body_parts/mika-korhonen-Xodzxosar18-unsplash.jpg,gain,1124,1,0,43,3,0
13,59186,0,1,1,14,1200,K,chosen,gain,29,Stimuli/Experimental_stims/body_parts/manuel-schinner-ZwjFuJ7ebpk-unsplash.jpg,gain,720,1,0,43,3,0
14,59186,0,1,1,15,4100,K,unchosen,gain,44,Stimuli/Experimental_stims/objects/kuiye-chen-NuOGFo4PudE-unsplash.jpg,no_gain,960,0,1,43,3,0
15,59186,0,1,1,16,1400,E,chosen,gain,34,Stimuli/Experimental_stims/body_parts/wagner-santos-mBWMvIuVnso-unsplash.jpg,gain,670,1,0,43,3,0
16,59186,0,1,1,17,1300,F,unchosen,no_gain,17,Stimuli/Experimental_stims/faces/good-faces-xmSWVeGEnJw-unsplash.jpg,gain,1132,0,0,43,3,0
17,59186,0,1,1,18,1900,B,unchosen,no_gain,13,Stimuli/Experimental_stims/faces/daniel-rigdon-dXmXKPP2L4E-unsplash.jpg,gain,776,0,0,43,3,0
18,59186,0,1,1,19,1200,A,chosen,gain,5,Stimuli/Experimental_stims/outdoor_scenes/jeff-king-bJHWJeiHfHc-unsplash.jpg,gain,662,1,0,43,3,0
19,59186,0,1,1,20,2100,F,chosen,no_gain,26,Stimuli/Experimental_stims/body_parts/engin-akyurt-x_3gyC42btc-unsplash.jpg,no_gain,897,1,0,43,3,0
20,59186,0,1,1,21,3500,A,unchosen,gain,42,Stimuli/Experimental_stims/objects/jess-bailey-nOeVi8DsN8U-unsplash.jpg,no_gain,738,0,1,43,3,0
21,59186,0,1,1,22,2000,L,chosen,no_gain,32,Stimuli/Experimental_stims/body_parts/towfiqu-barbhuiya-3AsiVDsZnHg-unsplash.jpg,no_gain,715,1,0,43,3,0
22,59186,0,1,1,23,1300,H,chosen,gain,7,Stimuli/Experimental_stims/outdoor_scenes/petr-vysohlid-9fqwGqGLUxc-unsplash.jpg,gain,704,1,0,43,3,0
23,59186,0,1,1,24,2900,E,unchosen,gain,43,Stimuli/Experimental_stims/objects/jonathan-greenaway-Y4hGgeiFn3s-unsplash.jpg,no_gain,768,0,0,43,3,0
24,59186,0,1,1,25,1600,B,chosen,no_gain,11,Stimuli/Experimental_stims/outdoor_scenes/stephen-leonardi-gyIRjKPXupE-unsplash.jpg,no_gain,740,1,0,43,3,0
25,59186,0,1,1,26,3500,J,chosen,no_gain,23,Stimuli/Experimental_stims/faces/rikonavt-HQjfrvdTfak-unsplash.jpg,no_gain,760,1,1,43,3,0
26,59186,0,1,1,27,1000,L,unchosen,no_gain,21,Stimuli/Experimental_stims/faces/leilani-angel-K84vnnzxmTQ-unsplash.jpg,gain,727,0,0,43,3,0
27,59186,0,1,2,28,1500,J,unchosen,no_gain,39,Stimuli/Experimental_stims/objects/charlesdeluvio-1-nx1QR5dTE-unsplash.jpg,no_gain,714,1,0,43,3,0
28,59186,0,1,2,29,1700,E,chosen,gain,34,Stimuli/Experimental_stims/body_parts/wagner-santos-mBWMvIuVnso-unsplash.jpg,gain,761,1,0,43,3,0
29,59186,0,1,2,30,1000,D,unchosen,gain,47,Stimuli/Experimental_stims/objects/ronaldo-arthur-vidal-Cdz_lvnl37k-unsplash.jpg,no_gain,695,0,0,43,3,0
30,59186,0,1,2,31,2500,K,chosen,gain,29,Stimuli/Experimental_stims/body_parts/manuel-schinner-ZwjFuJ7ebpk-unsplash.jpg,gain,648,1,0,43,3,0
31,59186,0,1,2,32,4300,G,chosen,no_gain,2,Stimuli/Experimental_stims/outdoor_scenes/bruno-van-der-kraan-qez8mNJ3ilU-unsplash.jpg,no_gain,775,1,1,43,3,0
32,59186,0,1,2,33,1300,B,unchosen,no_gain,13,Stimuli/Experimental_stims/faces/daniel-rigdon-dXmXKPP2L4E-unsplash.jpg,gain,743,0,0,43,3,0
33,59186,0,1,2,34,1900,H,unchosen,gain,15,Stimuli/Experimental_stims/faces/erik-lucatero-d2MSDujJl2g-unsplash.jpg,gain,809,1,0,43,3,0
34,59186,0,1,2,35,1500,F,chosen,no_gain,26,Stimuli/Experimental_stims/body_parts/engin-akyurt-x_3gyC42btc-unsplash.jpg,no_gain,735,1,0,43,3,0
35,59186,0,1,2,36,2200,C,unchosen,gain,30,Stimuli/Experimental_stims/body_parts/mika-korhonen-Xodzxosar18-unsplash.jpg,gain,1259,1,0,43,3,0
36,59186,0,1,2,37,1200,A,unchosen,gain,42,Stimuli/Experimental_stims/objects/jess-bailey-nOeVi8DsN8U-unsplash.jpg,no_gain,755,0,0,43,3,0
37,59186,0,1,2,38,1300,L,chosen,no_gain,32,Stimuli/Experimental_stims/body_parts/towfiqu-barbhuiya-3AsiVDsZnHg-unsplash.jpg,no_gain,733,1,0,43,3,0
38,59186,0,1,2,39,1100,C,chosen,gain,9,Stimuli/Experimental_stims/outdoor_scenes/sergey-pesterev-y-b_FOmJXdg-unsplash.jpg,gain,654,1,0,43,3,0
39,59186,0,1,2,40,3300,K,unchosen,gain,44,Stimuli/Experimental_stims/objects/kuiye-chen-NuOGFo4PudE-unsplash.jpg,no_gain,696,0,1,43,3,0
40,59186,0,1,2,41,1200,L,unchosen,no_gain,21,Stimuli/Experimental_stims/faces/leilani-angel-K84vnnzxmTQ-unsplash.jpg,gain,633,0,0,43,3,0
41,59186,0,1,2,42,1700,D,chosen,gain,16,Stimuli/Experimental_stims/faces/freddy-kearney-o-ioeoATbIM-unsplash.jpg,gain,714,1,0,43,3,0
42,59186,0,1,2,43,1200,E,unchosen,gain,43,Stimuli/Experimental_stims/objects/jonathan-greenaway-Y4hGgeiFn3s-unsplash.jpg,no_gain,728,0,0,43,3,0
43,59186,0,1,2,44,3000,I,unchosen,no_gain,35,Stimuli/Experimental_stims/body_parts/wc-so-KH4AAPjb-tI-unsplash.jpg,gain,759,0,0,43,3,0
44,59186,0,1,2,45,3700,H,chosen,gain,7,Stimuli/Experimental_stims/outdoor_scenes/petr-vysohlid-9fqwGqGLUxc-unsplash.jpg,gain,626,1,1,43,3,0
45,59186,0,1,2,46,1300,G,unchosen,no_gain,40,Stimuli/Experimental_stims/objects/fabian-blank-pElSkGRA2NU-unsplash.jpg,gain,969,0,0,43,3,0
46,59186,0,1,2,47,1200,B,chosen,no_gain,11,Stimuli/Experimental_stims/outdoor_scenes/stephen-leonardi-gyIRjKPXupE-unsplash.jpg,no_gain,759,1,0,43,3,0
47,59186,0,1,2,48,1500,I,chosen,no_gain,4,Stimuli/Experimental_stims/outdoor_scenes/jarrett-kow-1ZOyYPOBn7I-unsplash.jpg,no_gain,668,1,0,43,3,0
48,59186,0,1,2,49,2900,F,unchosen,no_gain,17,Stimuli/Experimental_stims/faces/good-faces-xmSWVeGEnJw-unsplash.jpg,gain,687,0,0,43,3,0
49,59186,0,1,2,50,1700,A,chosen,gain,5,Stimuli/Experimental_stims/outdoor_scenes/jeff-king-bJHWJeiHfHc-unsplash.jpg,gain,642,1,0,43,3,0
50,59186,0,1,2,51,3800,J,chosen,no_gain,23,Stimuli/Experimental_stims/faces/rikonavt-HQjfrvdTfak-unsplash.jpg,no_gain,701,1,1,43,3,0
51,59186,0,1,3,52,3000,I,unchosen,no_gain,35,Stimuli/Experimental_stims/body_parts/wc-so-KH4AAPjb-tI-unsplash.jpg,gain,828,0,1,1,3,0
52,59186,0,1,3,53,2500,D,chosen,gain,16,Stimuli/Experimental_stims/faces/freddy-kearney-o-ioeoATbIM-unsplash.jpg,gain,679,1,0,1,3,0
53,59186,0,1,3,54,1100,C,chosen,gain,9,Stimuli/Experimental_stims/outdoor_scenes/sergey-pesterev-y-b_FOmJXdg-unsplash.jpg,gain,649,1,0,1,3,0
54,59186,0,1,3,55,1500,K,unchosen,gain,44,Stimuli/Experimental_stims/objects/kuiye-chen-NuOGFo4PudE-unsplash.jpg,no_gain,743,0,0,1,3,0
55,59186,0,1,3,56,2100,C,unchosen,gain,30,Stimuli/Experimental_stims/body_parts/mika-korhonen-Xodzxosar18-unsplash.jpg,gain,710,1,0,1,3,0
56,59186,0,1,3,57,2200,A,chosen,gain,5,Stimuli/Experimental_stims/outdoor_scenes/jeff-king-bJHWJeiHfHc-unsplash.jpg,gain,632,1,0,1,3,0
57,59186,0,1,3,58,3200,J,unchosen,no_gain,39,Stimuli/Experimental_stims/objects/charlesdeluvio-1-nx1QR5dTE-unsplash.jpg,no_gain,763,1,1,1,3,0
58,59186,0,1,3,59,2500,J,chosen,no_gain,23,Stimuli/Experimental_stims/faces/rikonavt-HQjfrvdTfak-unsplash.jpg,no_gain,713,1,0,1,3,0
59,59186,0,1,3,60,1900,H,chosen,gain,7,Stimuli/Experimental_stims/outdoor_scenes/petr-vysohlid-9fqwGqGLUxc-unsplash.jpg,gain,640,1,0,1,3,0
60,59186,0,1,3,61,2500,A,unchosen,gain,42,Stimuli/Experimental_stims/objects/jess-bailey-nOeVi8DsN8U-unsplash.jpg,no_gain,619,0,0,1,3,0
61,59186,0,1,3,62,1800,G,chosen,no_gain,2,Stimuli/Experimental_stims/outdoor_scenes/bruno-van-der-kraan-qez8mNJ3ilU-unsplash.jpg,no_gain,876,1,0,1,3,0
62,59186,0,1,3,63,1800,F,chosen,no_gain,26,Stimuli/Experimental_stims/body_parts/engin-akyurt-x_3gyC42btc-unsplash.jpg,no_gain,779,1,0,1,3,0
63,59186,0,1,3,64,1500,B,unchosen,no_gain,13,Stimuli/Experimental_stims/faces/daniel-rigdon-dXmXKPP2L4E-unsplash.jpg,gain,798,0,0,1,3,0
64,59186,0,1,3,65,3500,I,chosen,no_gain,4,Stimuli/Experimental_stims/outdoor_scenes/jarrett-kow-1ZOyYPOBn7I-unsplash.jpg,no_gain,610,1,1,1,3,0
65,59186,0,1,3,66,2500,F,unchosen,no_gain,17,Stimuli/Experimental_stims/faces/good-faces-xmSWVeGEnJw-unsplash.jpg,gain,842,0,0,1,3,0
66,59186,0,1,3,67,1400,E,chosen,gain,34,Stimuli/Experimental_stims/body_parts/wagner-santos-mBWMvIuVnso-unsplash.jpg,gain,721,1,0,1,3,0
67,59186,0,1,3,68,1100,E,unchosen,gain,43,Stimuli/Experimental_stims/objects/jonathan-greenaway-Y4hGgeiFn3s-unsplash.jpg,no_gain,717,0,0,1,3,0
68,59186,0,1,3,69,1200,L,chosen,no_gain,32,Stimuli/Experimental_stims/body_parts/towfiqu-barbhuiya-3AsiVDsZnHg-unsplash.jpg,no_gain,771,1,0,1,3,0
69,59186,0,1,3,70,4400,D,unchosen,gain,47,Stimuli/Experimental_stims/objects/ronaldo-arthur-vidal-Cdz_lvnl37k-unsplash.jpg,no_gain,716,0,1,1,3,0
70,59186,0,1,3,71,1100,G,unchosen,no_gain,40,Stimuli/Experimental_stims/objects/fabian-blank-pElSkGRA2NU-unsplash.jpg,gain,861,0,0,1,3,0
71,59186,0,1,3,72,1100,B,chosen,no_gain,11,Stimuli/Experimental_stims/outdoor_scenes/stephen-leonardi-gyIRjKPXupE-unsplash.jpg,no_gain,876,1,0,1,3,0
72,59186,0,1,3,73,1000,L,unchosen,no_gain,21,Stimuli/Experimental_stims/faces/leilani-angel-K84vnnzxmTQ-unsplash.jpg,gain,607,0,0,1,3,0
73,59186,0,1,3,74,1400,H,unchosen,gain,15,Stimuli/Experimental_stims/faces/erik-lucatero-d2MSDujJl2g-unsplash.jpg,gain,645,1,0,1,3,0
74,59186,0,1,3,75,1200,K,chosen,gain,29,Stimuli/Experimental_stims/body_parts/manuel-schinner-ZwjFuJ7ebpk-unsplash.jpg,gain,634,1,0,1,3,0
75,59186,0,1,4,76,2600,C,chosen,gain,9,Stimuli/Experimental_stims/outdoor_scenes/sergey-pesterev-y-b_FOmJXdg-unsplash.jpg,gain,591,1,0,1,3,0
76,59186,0,1,4,77,1500,H,unchosen,gain,15,Stimuli/Experimental_stims/faces/erik-lucatero-d2MSDujJl2g-unsplash.jpg,gain,582,1,0,1,3,0
77,59186,0,1,4,78,2600,J,unchosen,no_gain,39,Stimuli/Experimental_stims/objects/charlesdeluvio-1-nx1QR5dTE-unsplash.jpg,no_gain,688,1,0,1,3,0
78,59186,0,1,4,79,1800,D,chosen,gain,16,Stimuli/Experimental_stims/faces/freddy-kearney-o-ioeoATbIM-unsplash.jpg,gain,621,1,0,1,3,0
79,59186,0,1,4,80,3500,B,chosen,no_gain,11,Stimuli/Experimental_stims/outdoor_scenes/stephen-leonardi-gyIRjKPXupE-unsplash.jpg,no_gain,662,1,1,1,3,0
80,59186,0,1,4,81,1000,G,unchosen,no_gain,40,Stimuli/Experimental_stims/objects/fabian-blank-pElSkGRA2NU-unsplash.jpg,gain,656,0,0,1,3,0
81,59186,0,1,4,82,2300,K,chosen,gain,29,Stimuli/Experimental_stims/body_parts/manuel-schinner-ZwjFuJ7ebpk-unsplash.jpg,gain,622,1,0,1,3,0
82,59186,0,1,4,83,1900,C,unchosen,gain,30,Stimuli/Experimental_stims/body_parts/mika-korhonen-Xodzxosar18-unsplash.jpg,gain,890,1,0,1,3,0
83,59186,0,1,4,84,2200,G,chosen,no_gain,2,Stimuli/Experimental_stims/outdoor_scenes/bruno-van-der-kraan-qez8mNJ3ilU-unsplash.jpg,no_gain,674,1,0,1,3,0
84,59186,0,1,4,85,4100,J,chosen,no_gain,23,Stimuli/Experimental_stims/faces/rikonavt-HQjfrvdTfak-unsplash.jpg,no_gain,799,1,1,1,3,0
85,59186,0,1,4,86,1200,B,unchosen,no_gain,13,Stimuli/Experimental_stims/faces/daniel-rigdon-dXmXKPP2L4E-unsplash.jpg,gain,715,0,0,1,3,0
86,59186,0,1,4,87,1200,K,unchosen,gain,44,Stimuli/Experimental_stims/objects/kuiye-chen-NuOGFo4PudE-unsplash.jpg,no_gain,688,0,0,1,3,0
87,59186,0,1,4,88,1000,I,chosen,no_gain,4,Stimuli/Experimental_stims/outdoor_scenes/jarrett-kow-1ZOyYPOBn7I-unsplash.jpg,no_gain,621,1,0,1,3,0
88,59186,0,1,4,89,2300,I,unchosen,no_gain,35,Stimuli/Experimental_stims/body_parts/wc-so-KH4AAPjb-tI-unsplash.jpg,gain,859,0,0,1,3,0
89,59186,0,1,4,90,1900,A,chosen,gain,5,Stimuli/Experimental_stims/outdoor_scenes/jeff-king-bJHWJeiHfHc-unsplash.jpg,gain,904,1,0,1,3,0
90,59186,0,1,4,91,1100,D,unchosen,gain,47,Stimuli/Experimental_stims/objects/ronaldo-arthur-vidal-Cdz_lvnl37k-unsplash.jpg,no_gain,835,0,0,1,3,0
91,59186,0,1,4,92,1400,H,chosen,gain,7,Stimuli/Experimental_stims/outdoor_scenes/petr-vysohlid-9fqwGqGLUxc-unsplash.jpg,gain,731,1,0,1,3,0
92,59186,0,1,4,93,1400,L,chosen,no_gain,32,Stimuli/Experimental_stims/body_parts/towfiqu-barbhuiya-3AsiVDsZnHg-unsplash.jpg,no_gain,708,1,0,1,3,0
93,59186,0,1,4,94,4900,L,unchosen,no_gain,21,Stimuli/Experimental_stims/faces/leilani-angel-K84vnnzxmTQ-unsplash.jpg,gain,634,0,1,1,3,0
94,59186,0,1,4,95,1700,E,unchosen,gain,43,Stimuli/Experimental_stims/objects/jonathan-greenaway-Y4hGgeiFn3s-unsplash.jpg,no_gain,647,0,0,1,3,0
95,59186,0,1,4,96,1300,E,chosen,gain,34,Stimuli/Experimental_stims/body_parts/wagner-santos-mBWMvIuVnso-unsplash.jpg,gain,737,1,0,1,3,0
96,59186,0,1,4,97,1100,F,unchosen,no_gain,17,Stimuli/Experimental_stims/faces/good-faces-xmSWVeGEnJw-unsplash.jpg,gain,660,0,0,1,3,0
97,59186,0,1,4,98,1300,F,chosen,no_gain,26,Stimuli/Experimental_stims/body_parts/engin-akyurt-x_3gyC42btc-unsplash.jpg,no_gain,645,1,0,1,3,0
98,59186,0,1,4,99,3200,A,unchosen,gain,42,Stimuli/Experimental_stims/objects/jess-bailey-nOeVi8DsN8U-unsplash.jpg,no_gain,585,0,1,1,3,0