"success","ttype","start_time","trial_type","trial_index","time_elapsed","internal_node_id","warning","missed_checkup","PID","stim_type","view_history","rt","responses","repeat_instructions","key_press","response","stimulus_id","painting","index","stimulus_left","stimulus_right","explain_trial","reward_type","rating_left","rating_right","painting_left","painting_right","block","left_chosen","chosen_obj","unchosen_obj","explain_response","reward_amount","see_reward_rt","register_reward_response","register_reward_rt","deliberation_reward_tally","stimulus_left_deliberation_ind","stimulus_right_deliberation_ind","chosen_trial","gain_left","higher_outcome_chosen","old_pair","chosen_object","rt_pairs","left_object_chosen","rt_object","old_response","new_rating","deliberated_stim","initial_rating","outcome_eval_rt","outcome_eval_response","outcome_eval_gain","outcome_eval_acc","preamble","outcome_eval_confidence","outcome_eval_confidence_rt","total_reward_tally"
"true","full_screen","d01192023hr2223","fullscreen","0","18783","0.0-0.0","0","0","5iALM","Scenes","","","","","","","","","","","","","","","","","","","","","","","","","","","","","","","","","","","","","","","","","","","","","","","","",""
"","rating_instructions","","instructions","1","30990","0.0-1.0-0.0","0","0","5iALM","Scenes","[{""page_index"":0,""viewing_time"":9664},{""page_index"":1,""viewing_time"":2541}]","12205","","","","","","","","","","","","","","","","","","","","","","","","","","","","","","","","","","","","","","","","","","","","","","",""
"","rating_comprehension_check","","survey-multi-choice","2","37358","0.0-1.0-1.0","0","0","5iALM","Scenes","","6365","{""Q0"":""True"",""Q1"":""Mouse""}","0","","","","","","","","","","","","","","","","","","","","","","","","","","","","","","","","","","","","","","","","","","","","",""
"","start_phase","","html-keyboard-response","3","40647","0.0-2.0","0","0","5iALM","Scenes","","3284","","","78","","","","","","","","","","","","","","","","","","","","","","","","","","","","","","","","","","","","","","","","","","","",""
"","rating","","html-slider-response","4","48295","0.0-3.0","0","0","5iALM","Scenes","","7643","","","","67","148","tom-gainor-ZqLeQDjY6fY-unsplash.jpg","0","","","","","","","","","","","","","","","","","","","","","","","","","","","","","","","","","","","","","","","",""
"","rating","","html-slider-response","5","52135","0.0-4.0","0","0","5iALM","Scenes","","3837","","","","66","119","james-wheeler-AFC0XvICMgs-unsplash.jpg","1","","","","","","","","","","","","","","","","","","","","","","","","","","","","","","","","","","","","","","","",""
"","rating","","html-slider-response","6","55456","0.0-5.0","0","0","5iALM","Scenes","","3320","","","","58","140","samuele-errico-piccarini-JEBqFu2AOOA-unsplash.jpg","2","","","","","","","","","","","","","","","","","","","","","","","","","","","","","","","","","","","","","","","",""
"","rating","","html-slider-response","7","58639","0.0-6.0","0","0","5iALM","Scenes","","3181","","","","64","110","bruno-van-der-kraan-qez8mNJ3ilU-unsplash.jpg","3","","","","","","","","","","","","","","","","","","","","","","","","","","","","","","","","","","","","","","","",""
"","rating","","html-slider-response","8","61286","0.0-7.0","0","0","5iALM","Scenes","","2646","","","","59","143","sigurdur-fjalar-jonsson-1KxBabIntpE-unsplash.jpg","4","","","","","","","","","","","","","","","","","","","","","","","","","","","","","","","","","","","","","","","",""
"","rating","","html-slider-response","9","64599","0.0-8.0","0","0","5iALM","Scenes","","3312","","","","44","105","ashim-d-silva-S2Q5mdOrrVc-unsplash.jpg","5","","","","","","","","","","","","","","","","","","","","","","","","","","","","","","","","","","","","","","","",""
"","rating","","html-slider-response","10","67604","0.0-9.0","0","0","5iALM","Scenes","","3004","","","","59","139","samsommer-vddccTqwal8-unsplash.jpg","6","","","","","","","","","","","","","","","","","","","","","","","","","","","","","","","","","","","","","","","",""
"","rating","","html-slider-response","11","70431","0.0-10.0","0","0","5iALM","Scenes","","2825","","","","64","135","mohammad-alizade-4wzRuAb-KWs-unsplash.jpg","7","","","","","","","","","","","","","","","","","","","","","","","","","","","","","","","","","","","","","","","",""
"","rating","","html-slider-response","12","73211","0.0-11.0","0","0","5iALM","Scenes","","2777","","","","68","109","brigitta-schneiter-hXXRLtTxXCU-unsplash.jpg","8","","","","","","","","","","","","","","","","","","","","","","","","","","","","","","","","","","","","","","","",""
"","rating","","html-slider-response","13","75999","0.0-12.0","0","0","5iALM","Scenes","","2786","","","","71","114","daniel-sessler-z_9VmsxR8hs-unsplash.jpg","9","","","","","","","","","","","","","","","","","","","","","","","","","","","","","","","","","","","","","","","",""
"","rating","","html-slider-response","14","78973","0.0-13.0","0","0","5iALM","Scenes","","2973","","","","94","101","aniket-deole-T-tOgjWZ0fQ-unsplash.jpg","10","","","","","","","","","","","","","","","","","","","","","","","","","","","","","","","","","","","","","","","",""
"","rating","","html-slider-response","15","82885","0.0-14.0","0","0","5iALM","Scenes","","3910","","","","56","144","solotravelgoals-7kLufxYoqWk-unsplash.jpg","11","","","","","","","","","","","","","","","","","","","","","","","","","","","","","","","","","","","","","","","",""
"","rating","","html-slider-response","16","85701","0.0-15.0","0","0","5iALM","Scenes","","2814","","","","90","134","milada-vigerova-pQMM63GE7fo-unsplash.jpg","12","","","","","","","","","","","","","","","","","","","","","","","","","","","","","","","","","","","","","","","",""
"","rating","","html-slider-response","17","88274","0.0-16.0","0","0","5iALM","Scenes","","2570","","","","57","113","damian-denis-D8R_txR_0PE-unsplash.jpg","13","","","","","","","","","","","","","","","","","","","","","","","","","","","","","","","","","","","","","","","",""
"","rating","","html-slider-response","18","91866","0.0-17.0","0","0","5iALM","Scenes","","3591","","","","60","142","sergey-pesterev-y-b_FOmJXdg-unsplash.jpg","14","","","","","","","","","","","","","","","","","","","","","","","","","","","","","","","","","","","","","","","",""
"","rating","","html-slider-response","19","94444","0.0-18.0","0","0","5iALM","Scenes","","2576","","","","60","121","jean-pierre-brungs-qxCqkbF7tUc-unsplash.jpg","15","","","","","","","","","","","","","","","","","","","","","","","","","","","","","","","","","","","","","","","",""
"","rating","","html-slider-response","20","96725","0.0-19.0","0","0","5iALM","Scenes","","2279","","","","63","136","nicolas-jehly-LzVB84KkZOE-unsplash.jpg","16","","","","","","","","","","","","","","","","","","","","","","","","","","","","","","","","","","","","","","","",""
"","rating","","html-slider-response","21","99673","0.0-20.0","0","0","5iALM","Scenes","","2947","","","","94","118","henry-be-NLF6hTe4PAg-unsplash.jpg","17","","","","","","","","","","","","","","","","","","","","","","","","","","","","","","","","","","","","","","","",""
"","rating","","html-slider-response","22","102342","0.0-21.0","0","0","5iALM","Scenes","","2667","","","","58","117","frank-mckenna-OD9EOzfSOh0-unsplash.jpg","18","","","","","","","","","","","","","","","","","","","","","","","","","","","","","","","","","","","","","","","",""
"","rating","","html-slider-response","23","105375","0.0-22.0","0","0","5iALM","Scenes","","3032","","","","64","145","stephen-leonardi-gyIRjKPXupE-unsplash.jpg","19","","","","","","","","","","","","","","","","","","","","","","","","","","","","","","","","","","","","","","","",""
"","rating","","html-slider-response","24","109814","0.0-23.0","0","0","5iALM","Scenes","","4438","","","","40","126","jordan-mcqueen-PJCZOWuOxbU-unsplash.jpg","20","","","","","","","","","","","","","","","","","","","","","","","","","","","","","","","","","","","","","","","",""
"","rating","","html-slider-response","25","114286","0.0-24.0","0","0","5iALM","Scenes","","4470","","","","100","130","lina-loos-04-C1NZk1hE-unsplash.jpg","21","","","","","","","","","","","","","","","","","","","","","","","","","","","","","","","","","","","","","","","",""
"","rating","","html-slider-response","26","117550","0.0-25.0","0","0","5iALM","Scenes","","3262","","","","58","107","benjamin-davies-Zm2n2O7Fph4-unsplash.jpg","22","","","","","","","","","","","","","","","","","","","","","","","","","","","","","","","","","","","","","","","",""
"","rating","","html-slider-response","27","120171","0.0-26.0","0","0","5iALM","Scenes","","2619","","","","63","127","kace-rodriguez-p3OzJuT_Dks-unsplash.jpg","23","","","","","","","","","","","","","","","","","","","","","","","","","","","","","","","","","","","","","","","",""
"","rating","","html-slider-response","28","122726","0.0-27.0","0","0","5iALM","Scenes","","2554","","","","75","102","anisur-rahman-K2b7UDed6uQ-unsplash.jpg","24","","","","","","","","","","","","","","","","","","","","","","","","","","","","","","","","","","","","","","","",""
"","rating","","html-slider-response","29","126007","0.0-28.0","0","0","5iALM","Scenes","","3279","","","","80","123","joel-jasmin-forestbird-efuwb5eBDrI-unsplash.jpg","25","","","","","","","","","","","","","","","","","","","","","","","","","","","","","","","","","","","","","","","",""
"","rating","","html-slider-response","30","128982","0.0-29.0","0","0","5iALM","Scenes","","2972","","","","86","128","karsten-wurth-jS0zC2PJ17A-unsplash.jpg","26","","","","","","","","","","","","","","","","","","","","","","","","","","","","","","","","","","","","","","","",""
"","rating","","html-slider-response","31","131683","0.0-30.0","0","0","5iALM","Scenes","","2700","","","","62","132","meng-ji-8BH_M-53CyA-unsplash.jpg","27","","","","","","","","","","","","","","","","","","","","","","","","","","","","","","","","","","","","","","","",""
"","rating","","html-slider-response","32","134069","0.0-31.0","0","0","5iALM","Scenes","","2384","","","","60","104","artem-sapegin-XGDBdSQ70O0-unsplash.jpg","28","","","","","","","","","","","","","","","","","","","","","","","","","","","","","","","","","","","","","","","",""
"","rating","","html-slider-response","33","136767","0.0-32.0","0","0","5iALM","Scenes","","2696","","","","72","125","john-lee-oMneOBYhJxY-unsplash.jpg","29","","","","","","","","","","","","","","","","","","","","","","","","","","","","","","","","","","","","","","","",""
"","rating","","html-slider-response","34","139729","0.0-33.0","0","0","5iALM","Scenes","","2960","","","","67","133","mickey-o-neil-xL66l--msXU-unsplash.jpg","30","","","","","","","","","","","","","","","","","","","","","","","","","","","","","","","","","","","","","","","",""
"","rating","","html-slider-response","35","143896","0.0-34.0","0","0","5iALM","Scenes","","4165","","","","39","138","petr-vysohlid-9fqwGqGLUxc-unsplash.jpg","31","","","","","","","","","","","","","","","","","","","","","","","","","","","","","","","","","","","","","","","",""
"","rating","","html-slider-response","36","146321","0.0-35.0","0","0","5iALM","Scenes","","2423","","","","62","112","cosmic-timetraveler-pYyOZ8q7AII-unsplash.jpg","32","","","","","","","","","","","","","","","","","","","","","","","","","","","","","","","","","","","","","","","",""
"","rating","","html-slider-response","37","148957","0.0-36.0","0","0","5iALM","Scenes","","2634","","","","65","115","darrell-cassell-hoCXpPUMCoE-unsplash.jpg","33","","","","","","","","","","","","","","","","","","","","","","","","","","","","","","","","","","","","","","","",""
"","rating","","html-slider-response","38","151137","0.0-37.0","0","0","5iALM","Scenes","","2179","","","","61","146","thomas-morse-cuKKa0vWZSY-unsplash.jpg","34","","","","","","","","","","","","","","","","","","","","","","","","","","","","","","","","","","","","","","","",""
"","rating","","html-slider-response","39","154277","0.0-38.0","0","0","5iALM","Scenes","","3138","","","","36","106","ashim-d-silva-WeYamle9fDM-unsplash.jpg","35","","","","","","","","","","","","","","","","","","","","","","","","","","","","","","","","","","","","","","","",""
"","rating","","html-slider-response","40","156984","0.0-39.0","0","0","5iALM","Scenes","","2704","","","","34","149","yuriy-bogdanov-W51VK3Obcj0-unsplash.jpg","36","","","","","","","","","","","","","","","","","","","","","","","","","","","","","","","","","","","","","","","",""
"","rating","","html-slider-response","41","160841","0.0-40.0","0","0","5iALM","Scenes","","3856","","","","64","124","johannes-plenio-sPt5RIjKfpk-unsplash.jpg","37","","","","","","","","","","","","","","","","","","","","","","","","","","","","","","","","","","","","","","","",""
"","rating","","html-slider-response","42","163817","0.0-41.0","0","0","5iALM","Scenes","","2974","","","","66","122","jeff-king-bJHWJeiHfHc-unsplash.jpg","38","","","","","","","","","","","","","","","","","","","","","","","","","","","","","","","","","","","","","","","",""
"","rating","","html-slider-response","43","165866","0.0-42.0","0","0","5iALM","Scenes","","2047","","","","60","120","jarrett-kow-1ZOyYPOBn7I-unsplash.jpg","39","","","","","","","","","","","","","","","","","","","","","","","","","","","","","","","","","","","","","","","",""
"","rating","","html-slider-response","44","168085","0.0-43.0","0","0","5iALM","Scenes","","2218","","","","59","116","david-marcu-W5MhJ6cy1So-unsplash.jpg","40","","","","","","","","","","","","","","","","","","","","","","","","","","","","","","","","","","","","","","","",""
"","rating","","html-slider-response","45","171232","0.0-44.0","0","0","5iALM","Scenes","","3146","","","","59","108","benjamin-voros-phIFdC6lA4E-unsplash.jpg","41","","","","","","","","","","","","","","","","","","","","","","","","","","","","","","","","","","","","","","","",""
"","rating","","html-slider-response","46","173561","0.0-45.0","0","0","5iALM","Scenes","","2328","","","","74","129","kurt-cotoaga-cqbLg3lZEpk-unsplash.jpg","42","","","","","","","","","","","","","","","","","","","","","","","","","","","","","","","","","","","","","","","",""
"","rating","","html-slider-response","47","175817","0.0-46.0","0","0","5iALM","Scenes","","2254","","","","64","141","sebastian-unrau-v4e3JI7DDHI-unsplash.jpg","43","","","","","","","","","","","","","","","","","","","","","","","","","","","","","","","","","","","","","","","",""
"","rating","","html-slider-response","48","180597","0.0-47.0","0","0","5iALM","Scenes","","4780","","","","65","100","aleksandra-boguslawska-MS7KD9Ti7FQ-unsplash.jpg","44","","","","","","","","","","","","","","","","","","","","","","","","","","","","","","","","","","","","","","","",""
"","rating","","html-slider-response","49","183903","0.0-48.0","0","0","5iALM","Scenes","","3305","","","","67","111","claudio-testa-U3F2o6vz3bs-unsplash.jpg","45","","","","","","","","","","","","","","","","","","","","","","","","","","","","","","","","","","","","","","","",""
"","rating","","html-slider-response","50","187832","0.0-49.0","0","0","5iALM","Scenes","","3927","","","","70","137","olga-stalska-QaWRyEdlffY-unsplash.jpg","46","","","","","","","","","","","","","","","","","","","","","","","","","","","","","","","","","","","","","","","",""
"","rating","","html-slider-response","51","190960","0.0-50.0","0","0","5iALM","Scenes","","3127","","","","65","103","anton-darius-FBJugtbHsWU-unsplash.jpg","47","","","","","","","","","","","","","","","","","","","","","","","","","","","","","","","","","","","","","","","",""
"","rating","","html-slider-response","52","193524","0.0-51.0","0","0","5iALM","Scenes","","2562","","","","66","131","luca-bravo-hFzIoD0F_i8-unsplash.jpg","48","","","","","","","","","","","","","","","","","","","","","","","","","","","","","","","","","","","","","","","",""
"","rating","","html-slider-response","53","196083","0.0-52.0","0","0","5iALM","Scenes","","2558","","","","64","147","tobias-keller-73F4pKoUkM0-unsplash.jpg","49","","","","","","","","","","","","","","","","","","","","","","","","","","","","","","","","","","","","","","","",""
"","deliberation_instructions","","instructions","54","268455","0.0-53.0-0.0","0","0","5iALM","Scenes","[{""page_index"":0,""viewing_time"":15134},{""page_index"":1,""viewing_time"":9907},{""page_index"":2,""viewing_time"":16123},{""page_index"":3,""viewing_time"":28587},{""page_index"":4,""viewing_time"":2617}]","72369","","","","","","","","","","","","","","","","","","","","","","","","","","","","","","","","","","","","","","","","","","","","","","",""
"","deliberation_comprehension_check","","survey-multi-choice","55","295720","0.0-53.0-1.0","0","0","5iALM","Scenes","","27260","{""Q0"":""True"",""Q1"":""True"",""Q2"":""Consider carefully and take your time (up to 10 seconds)"",""Q3"":""True"",""Q4"":""D""}","0","","","","","","","","","","","","","","","","","","","","","","","","","","","","","","","","","","","","","","","","","","","","",""
"","start_phase","","html-keyboard-response","56","301382","0.0-54.0","0","0","5iALM","Scenes","","5657","","","78","","","","","","","","","","","","","","","","","","","","","","","","","","","","","","","","","","","","","","","","","","","",""
"","first_deliberation_block","","html-keyboard-response","57","305197","0.0-55.0","0","0","5iALM","Scenes","","3812","","","78","","","","","","","","","","","","","","","","","","","","","","","","","","","","","","","","","","","","","","","","","","","",""
"","fixation","","html-keyboard-response","58","306211","0.0-56.0-0.0","0","0","5iALM","Scenes","","null","","","null","","","","","","","","","","","","","","","","","","","","","","","","","","","","","","","","","","","","","","","","","","","",""
"","deliberation","","html-keyboard-response","59","307714","0.0-56.0-1.0","0","0","5iALM","Scenes","","1499","","","75","","","","0","115","104","0","1","65","60","darrell-cassell-hoCXpPUMCoE-unsplash.jpg","artem-sapegin-XGDBdSQ70O0-unsplash.jpg","1","0","104","115","","","","","","","","","","","","","","","","","","","","","","","","","","","",""
"","choice_confirmation","","html-keyboard-response","60","308225","0.0-56.0-2.0-0.0","0","0","5iALM","Scenes","","null","","","null","","","","0","115","104","","","","","","","","","","","","","","","","","","","","","","","","","","","","","","","","","","","","","",""
"","fixation","","html-keyboard-response","61","309231","0.0-57.0-0.0","0","0","5iALM","Scenes","","null","","","null","","","","","","","","","","","","","","","","","","","","","","","","","","","","","","","","","","","","","","","","","","","",""
"","deliberation","","html-keyboard-response","62","310680","0.0-57.0-1.0","0","0","5iALM","Scenes","","1444","","","68","","","","1","127","145","1","-1","63","64","kace-rodriguez-p3OzJuT_Dks-unsplash.jpg","stephen-leonardi-gyIRjKPXupE-unsplash.jpg","1","1","127","145","","","","","","","","","","","","","","","","","","","","","","","","","","","",""
"","choice_confirmation","","html-keyboard-response","63","311184","0.0-57.0-2.0-0.0","0","0","5iALM","Scenes","","null","","","null","","","","1","127","145","","","","","","","","","","","","","","","","","","","","","","","","","","","","","","","","","","","","","",""
"","explain_trial","","survey-text","64","346556","0.0-57.0-5.0-0.0","0","0","5iALM","Scenes","","35370","{""Q0"":""The image is more majestic.""}","","","","","","1","127","145","","","","","","","","","","","{""Q0"":""The image is more majestic.""}","","","","","","","","","","","","","","","","","","","","","","","","","","",""
"","fixation","","html-keyboard-response","65","347563","0.0-58.0-0.0","0","0","5iALM","Scenes","","null","","","null","","","","","","","","","","","","","","","","","","","","","","","","","","","","","","","","","","","","","","","","","","","",""
"","deliberation","","html-keyboard-response","66","351462","0.0-58.0-1.0","0","0","5iALM","Scenes","","3896","","","68","","","","2","103","100","1","-1","65","65","anton-darius-FBJugtbHsWU-unsplash.jpg","aleksandra-boguslawska-MS7KD9Ti7FQ-unsplash.jpg","1","1","103","100","","","","","","","","","","","","","","","","","","","","","","","","","","","",""
"","choice_confirmation","","html-keyboard-response","67","351975","0.0-58.0-2.0-0.0","0","0","5iALM","Scenes","","null","","","null","","","","2","103","100","","","","","","","","","","","","","","","","","","","","","","","","","","","","","","","","","","","","","",""
"","explain_trial","","survey-text","68","368484","0.0-58.0-5.0-0.0","0","0","5iALM","Scenes","","16507","{""Q0"":""There are more details.\n""}","","","","","","2","103","100","","","","","","","","","","","{""Q0"":""There are more details.\n""}","","","","","","","","","","","","","","","","","","","","","","","","","","",""
"","fixation","","html-keyboard-response","69","369488","0.0-59.0-0.0","0","0","5iALM","Scenes","","null","","","null","","","","","","","","","","","","","","","","","","","","","","","","","","","","","","","","","","","","","","","","","","","",""
"","deliberation","","html-keyboard-response","70","376594","0.0-59.0-1.0","0","0","5iALM","Scenes","","7102","","","75","","","","3","124","132","1","-1","64","62","johannes-plenio-sPt5RIjKfpk-unsplash.jpg","meng-ji-8BH_M-53CyA-unsplash.jpg","1","0","132","124","","","","","","","","","","","","","","","","","","","","","","","","","","","",""
"","choice_confirmation","","html-keyboard-response","71","377105","0.0-59.0-2.0-0.0","0","0","5iALM","Scenes","","null","","","null","","","","3","124","132","","","","","","","","","","","","","","","","","","","","","","","","","","","","","","","","","","","","","",""
"","explain_trial","","survey-text","72","399443","0.0-59.0-5.0-0.0","0","0","5iALM","Scenes","","22337","{""Q0"":""The image is peaceful.""}","","","","","","3","124","132","","","","","","","","","","","{""Q0"":""The image is peaceful.""}","","","","","","","","","","","","","","","","","","","","","","","","","","",""
"","fixation","","html-keyboard-response","73","400447","0.0-60.0-0.0","0","0","5iALM","Scenes","","null","","","null","","","","","","","","","","","","","","","","","","","","","","","","","","","","","","","","","","","","","","","","","","","",""
"","deliberation","","html-keyboard-response","74","404364","0.0-60.0-1.0","0","0","5iALM","Scenes","","3912","","","75","","","","4","122","112","0","-1","66","62","jeff-king-bJHWJeiHfHc-unsplash.jpg","cosmic-timetraveler-pYyOZ8q7AII-unsplash.jpg","1","0","112","122","","","","","","","","","","","","","","","","","","","","","","","","","","","",""
"","choice_confirmation","","html-keyboard-response","75","404881","0.0-60.0-2.0-0.0","0","0","5iALM","Scenes","","null","","","null","","","","4","122","112","","","","","","","","","","","","","","","","","","","","","","","","","","","","","","","","","","","","","",""
"","fixation","","html-keyboard-response","76","405893","0.0-61.0-0.0","0","0","5iALM","Scenes","","null","","","null","","","","","","","","","","","","","","","","","","","","","","","","","","","","","","","","","","","","","","","","","","","",""
"","deliberation","","html-keyboard-response","77","408434","0.0-61.0-1.0","0","0","5iALM","Scenes","","2538","","","68","","","","5","119","133","0","1","66","67","james-wheeler-AFC0XvICMgs-unsplash.jpg","mickey-o-neil-xL66l--msXU-unsplash.jpg","1","1","119","133","","","","","","","","","","","","","","","","","","","","","","","","","","","",""
"","choice_confirmation","","html-keyboard-response","78","408949","0.0-61.0-2.0-0.0","0","0","5iALM","Scenes","","null","","","null","","","","5","119","133","","","","","","","","","","","","","","","","","","","","","","","","","","","","","","","","","","","","","",""
"","fixation","","html-keyboard-response","79","409973","0.0-62.0-0.0","0","0","5iALM","Scenes","","null","","","null","","","","","","","","","","","","","","","","","","","","","","","","","","","","","","","","","","","","","","","","","","","",""
"","deliberation","","html-keyboard-response","80","411778","0.0-62.0-1.0","0","0","5iALM","Scenes","","1803","","","75","","","","6","147","110","1","-1","64","64","tobias-keller-73F4pKoUkM0-unsplash.jpg","bruno-van-der-kraan-qez8mNJ3ilU-unsplash.jpg","1","0","110","147","","","","","","","","","","","","","","","","","","","","","","","","","","","",""
"","choice_confirmation","","html-keyboard-response","81","412289","0.0-62.0-2.0-0.0","0","0","5iALM","Scenes","","null","","","null","","","","6","147","110","","","","","","","","","","","","","","","","","","","","","","","","","","","","","","","","","","","","","",""
"","explain_trial","","survey-text","82","424426","0.0-62.0-5.0-0.0","0","0","5iALM","Scenes","","12134","{""Q0"":""The image is more colorful.""}","","","","","","6","147","110","","","","","","","","","","","{""Q0"":""The image is more colorful.""}","","","","","","","","","","","","","","","","","","","","","","","","","","",""
"","fixation","","html-keyboard-response","83","425447","0.0-63.0-0.0","0","0","5iALM","Scenes","","null","","","null","","","","","","","","","","","","","","","","","","","","","","","","","","","","","","","","","","","","","","","","","","","",""
"","deliberation","","html-keyboard-response","84","429030","0.0-63.0-1.0","0","0","5iALM","Scenes","","3579","","","75","","","","7","141","142","0","1","64","60","sebastian-unrau-v4e3JI7DDHI-unsplash.jpg","sergey-pesterev-y-b_FOmJXdg-unsplash.jpg","1","0","142","141","","","","","","","","","","","","","","","","","","","","","","","","","","","",""
"","choice_confirmation","","html-keyboard-response","85","429543","0.0-63.0-2.0-0.0","0","0","5iALM","Scenes","","null","","","null","","","","7","141","142","","","","","","","","","","","","","","","","","","","","","","","","","","","","","","","","","","","","","",""
"","fixation","","html-keyboard-response","86","430557","0.0-64.0-0.0","0","0","5iALM","Scenes","","null","","","null","","","","","","","","","","","","","","","","","","","","","","","","","","","","","","","","","","","","","","","","","","","",""
"","deliberation","","html-keyboard-response","87","432918","0.0-64.0-1.0","0","0","5iALM","Scenes","","2356","","","75","","","","8","121","148","0","1","60","67","jean-pierre-brungs-qxCqkbF7tUc-unsplash.jpg","tom-gainor-ZqLeQDjY6fY-unsplash.jpg","1","0","148","121","","","","","","","","","","","","","","","","","","","","","","","","","","","",""
"","choice_confirmation","","html-keyboard-response","88","433439","0.0-64.0-2.0-0.0","0","0","5iALM","Scenes","","null","","","null","","","","8","121","148","","","","","","","","","","","","","","","","","","","","","","","","","","","","","","","","","","","","","",""
"","fixation","","html-keyboard-response","89","434450","0.0-65.0-0.0","0","0","5iALM","Scenes","","null","","","null","","","","","","","","","","","","","","","","","","","","","","","","","","","","","","","","","","","","","","","","","","","",""
"","deliberation","","html-keyboard-response","90","436644","0.0-65.0-1.0","0","0","5iALM","Scenes","","2190","","","75","","","","9","120","131","1","1","60","66","jarrett-kow-1ZOyYPOBn7I-unsplash.jpg","luca-bravo-hFzIoD0F_i8-unsplash.jpg","1","0","131","120","","","","","","","","","","","","","","","","","","","","","","","","","","","",""
"","choice_confirmation","","html-keyboard-response","91","437167","0.0-65.0-2.0-0.0","0","0","5iALM","Scenes","","null","","","null","","","","9","120","131","","","","","","","","","","","","","","","","","","","","","","","","","","","","","","","","","","","","","",""
"","explain_trial","","survey-text","92","447099","0.0-65.0-5.0-0.0","0","0","5iALM","Scenes","","9929","{""Q0"":""The image is less basic. ""}","","","","","","9","120","131","","","","","","","","","","","{""Q0"":""The image is less basic. ""}","","","","","","","","","","","","","","","","","","","","","","","","","","",""
"","fixation","","html-keyboard-response","93","448113","0.0-66.0-0.0","0","0","5iALM","Scenes","","null","","","null","","","","","","","","","","","","","","","","","","","","","","","","","","","","","","","","","","","","","","","","","","","",""
"","deliberation","","html-keyboard-response","94","453158","0.0-66.0-1.0","0","0","5iALM","Scenes","","5039","","","68","","","","10","108","136","1","-1","59","63","benjamin-voros-phIFdC6lA4E-unsplash.jpg","nicolas-jehly-LzVB84KkZOE-unsplash.jpg","1","1","108","136","","","","","","","","","","","","","","","","","","","","","","","","","","","",""
"","choice_confirmation","","html-keyboard-response","95","453668","0.0-66.0-2.0-0.0","0","0","5iALM","Scenes","","null","","","null","","","","10","108","136","","","","","","","","","","","","","","","","","","","","","","","","","","","","","","","","","","","","","",""
"","explain_trial","","survey-text","96","462674","0.0-66.0-5.0-0.0","0","0","5iALM","Scenes","","9004","{""Q0"":""The image is more colorful.""}","","","","","","10","108","136","","","","","","","","","","","{""Q0"":""The image is more colorful.""}","","","","","","","","","","","","","","","","","","","","","","","","","","",""
"","fixation","","html-keyboard-response","97","463684","0.0-67.0-0.0","0","0","5iALM","Scenes","","null","","","null","","","","","","","","","","","","","","","","","","","","","","","","","","","","","","","","","","","","","","","","","","","",""
"","deliberation","","html-keyboard-response","98","469933","0.0-67.0-1.0","0","0","5iALM","Scenes","","6247","","","75","","","","11","135","146","0","1","64","61","mohammad-alizade-4wzRuAb-KWs-unsplash.jpg","thomas-morse-cuKKa0vWZSY-unsplash.jpg","1","0","146","135","","","","","","","","","","","","","","","","","","","","","","","","","","","",""
"","choice_confirmation","","html-keyboard-response","99","470452","0.0-67.0-2.0-0.0","0","0","5iALM","Scenes","","null","","","null","","","","11","135","146","","","","","","","","","","","","","","","","","","","","","","","","","","","","","","","","","","","","","",""
"","practice_deliberation_again","","html-keyboard-response","100","474132","0.0-67.0-6.0-0.0","0","0","5iALM","Scenes","","3677","","","78","","","","","","","","","","","","","","","","","","","","","","","","","","","","","","","","","","","","","","","","","","","",""
"","fixation","","html-keyboard-response","101","475136","0.0-68.0-0.0","0","0","5iALM","Scenes","","null","","","null","","","","","","","","","","","","","","","","","","","","","","","","","","","","","","","","","","","","","","","","","","","",""
"","deliberation","","html-keyboard-response","102","476678","0.0-68.0-1.0","0","0","5iALM","Scenes","","1536","","","68","","","","12","119","133","1","1","66","67","james-wheeler-AFC0XvICMgs-unsplash.jpg","mickey-o-neil-xL66l--msXU-unsplash.jpg","2","1","119","133","","","","","","","","","","","","","","","","","","","","","","","","","","","",""
"","choice_confirmation","","html-keyboard-response","103","477193","0.0-68.0-2.0-0.0","0","0","5iALM","Scenes","","null","","","null","","","","12","119","133","","","","","","","","","","","","","","","","","","","","","","","","","","","","","","","","","","","","","",""
"","explain_trial","","survey-text","104","484138","0.0-68.0-5.0-0.0","0","0","5iALM","Scenes","","6943","{""Q0"":""This image is more colorful.""}","","","","","","12","119","133","","","","","","","","","","","{""Q0"":""This image is more colorful.""}","","","","","","","","","","","","","","","","","","","","","","","","","","",""
"","fixation","","html-keyboard-response","105","485150","0.0-69.0-0.0","0","0","5iALM","Scenes","","null","","","null","","","","","","","","","","","","","","","","","","","","","","","","","","","","","","","","","","","","","","","","","","","",""
"","deliberation","","html-keyboard-response","106","487830","0.0-69.0-1.0","0","0","5iALM","Scenes","","2674","","","75","","","","13","115","104","1","1","65","60","darrell-cassell-hoCXpPUMCoE-unsplash.jpg","artem-sapegin-XGDBdSQ70O0-unsplash.jpg","2","0","104","115","","","","","","","","","","","","","","","","","","","","","","","","","","","",""
"","choice_confirmation","","html-keyboard-response","107","488342","0.0-69.0-2.0-0.0","0","0","5iALM","Scenes","","null","","","null","","","","13","115","104","","","","","","","","","","","","","","","","","","","","","","","","","","","","","","","","","","","","","",""
"","explain_trial","","survey-text","108","499794","0.0-69.0-5.0-0.0","0","0","5iALM","Scenes","","11449","{""Q0"":""The image is more engaging.""}","","","","","","13","115","104","","","","","","","","","","","{""Q0"":""The image is more engaging.""}","","","","","","","","","","","","","","","","","","","","","","","","","","",""
"","fixation","","html-keyboard-response","109","500809","0.0-70.0-0.0","0","0","5iALM","Scenes","","null","","","null","","","","","","","","","","","","","","","","","","","","","","","","","","","","","","","","","","","","","","","","","","","",""
"","deliberation","","html-keyboard-response","110","504849","0.0-70.0-1.0","0","0","5iALM","Scenes","","4038","","","75","","","","14","120","131","0","1","60","66","jarrett-kow-1ZOyYPOBn7I-unsplash.jpg","luca-bravo-hFzIoD0F_i8-unsplash.jpg","2","0","131","120","","","","","","","","","","","","","","","","","","","","","","","","","","","",""
"","choice_confirmation","","html-keyboard-response","111","505365","0.0-70.0-2.0-0.0","0","0","5iALM","Scenes","","null","","","null","","","","14","120","131","","","","","","","","","","","","","","","","","","","","","","","","","","","","","","","","","","","","","",""
"","fixation","","html-keyboard-response","112","506389","0.0-71.0-0.0","0","0","5iALM","Scenes","","null","","","null","","","","","","","","","","","","","","","","","","","","","","","","","","","","","","","","","","","","","","","","","","","",""
"","deliberation","","html-keyboard-response","113","509662","0.0-71.0-1.0","0","0","5iALM","Scenes","","3268","","","68","","","","15","127","145","0","-1","63","64","kace-rodriguez-p3OzJuT_Dks-unsplash.jpg","stephen-leonardi-gyIRjKPXupE-unsplash.jpg","2","1","127","145","","","","","","","","","","","","","","","","","","","","","","","","","","","",""
"","choice_confirmation","","html-keyboard-response","114","510172","0.0-71.0-2.0-0.0","0","0","5iALM","Scenes","","null","","","null","","","","15","127","145","","","","","","","","","","","","","","","","","","","","","","","","","","","","","","","","","","","","","",""
"","fixation","","html-keyboard-response","115","511191","0.0-72.0-0.0","0","0","5iALM","Scenes","","null","","","null","","","","","","","","","","","","","","","","","","","","","","","","","","","","","","","","","","","","","","","","","","","",""
"","deliberation","","html-keyboard-response","116","512345","0.0-72.0-1.0","0","0","5iALM","Scenes","","1152","","","75","","","","16","121","148","1","1","60","67","jean-pierre-brungs-qxCqkbF7tUc-unsplash.jpg","tom-gainor-ZqLeQDjY6fY-unsplash.jpg","2","0","148","121","","","","","","","","","","","","","","","","","","","","","","","","","","","",""
"","choice_confirmation","","html-keyboard-response","117","512852","0.0-72.0-2.0-0.0","0","0","5iALM","Scenes","","null","","","null","","","","16","121","148","","","","","","","","","","","","","","","","","","","","","","","","","","","","","","","","","","","","","",""
"","explain_trial","","survey-text","118","519746","0.0-72.0-5.0-0.0","0","0","5iALM","Scenes","","6891","{""Q0"":""The image is more colorful.""}","","","","","","16","121","148","","","","","","","","","","","{""Q0"":""The image is more colorful.""}","","","","","","","","","","","","","","","","","","","","","","","","","","",""
"","fixation","","html-keyboard-response","119","520757","0.0-73.0-0.0","0","0","5iALM","Scenes","","null","","","null","","","","","","","","","","","","","","","","","","","","","","","","","","","","","","","","","","","","","","","","","","","",""
"","deliberation","","html-keyboard-response","120","521737","0.0-73.0-1.0","0","0","5iALM","Scenes","","978","","","75","","","","17","122","112","1","-1","66","62","jeff-king-bJHWJeiHfHc-unsplash.jpg","cosmic-timetraveler-pYyOZ8q7AII-unsplash.jpg","2","0","112","122","","","","","","","","","","","","","","","","","","","","","","","","","","","",""
"","choice_confirmation","","html-keyboard-response","121","522241","0.0-73.0-2.0-0.0","0","0","5iALM","Scenes","","null","","","null","","","","17","122","112","","","","","","","","","","","","","","","","","","","","","","","","","","","","","","","","","","","","","",""
"","explain_trial","","survey-text","122","528706","0.0-73.0-5.0-0.0","0","0","5iALM","Scenes","","6463","{""Q0"":""The image is more colorful.""}","","","","","","17","122","112","","","","","","","","","","","{""Q0"":""The image is more colorful.""}","","","","","","","","","","","","","","","","","","","","","","","","","","",""
"","fixation","","html-keyboard-response","123","529720","0.0-74.0-0.0","0","0","5iALM","Scenes","","null","","","null","","","","","","","","","","","","","","","","","","","","","","","","","","","","","","","","","","","","","","","","","","","",""
"","deliberation","","html-keyboard-response","124","531762","0.0-74.0-1.0","0","0","5iALM","Scenes","","2040","","","68","","","","18","108","136","0","-1","59","63","benjamin-voros-phIFdC6lA4E-unsplash.jpg","nicolas-jehly-LzVB84KkZOE-unsplash.jpg","2","1","108","136","","","","","","","","","","","","","","","","","","","","","","","","","","","",""
"","choice_confirmation","","html-keyboard-response","125","532276","0.0-74.0-2.0-0.0","0","0","5iALM","Scenes","","null","","","null","","","","18","108","136","","","","","","","","","","","","","","","","","","","","","","","","","","","","","","","","","","","","","",""
"","fixation","","html-keyboard-response","126","533301","0.0-75.0-0.0","0","0","5iALM","Scenes","","null","","","null","","","","","","","","","","","","","","","","","","","","","","","","","","","","","","","","","","","","","","","","","","","",""
"","deliberation","","html-keyboard-response","127","534647","0.0-75.0-1.0","0","0","5iALM","Scenes","","1340","","","75","","","","19","141","142","1","1","64","60","sebastian-unrau-v4e3JI7DDHI-unsplash.jpg","sergey-pesterev-y-b_FOmJXdg-unsplash.jpg","2","0","142","141","","","","","","","","","","","","","","","","","","","","","","","","","","","",""
"","choice_confirmation","","html-keyboard-response","128","535167","0.0-75.0-2.0-0.0","0","0","5iALM","Scenes","","null","","","null","","","","19","141","142","","","","","","","","","","","","","","","","","","","","","","","","","","","","","","","","","","","","","",""
"","explain_trial","","survey-text","129","559754","0.0-75.0-5.0-0.0","0","0","5iALM","Scenes","","24583","{""Q0"":""The lines in the ice grab my attention.""}","","","","","","19","141","142","","","","","","","","","","","{""Q0"":""The lines in the ice grab my attention.""}","","","","","","","","","","","","","","","","","","","","","","","","","","",""
"","fixation","","html-keyboard-response","130","560773","0.0-76.0-0.0","0","0","5iALM","Scenes","","null","","","null","","","","","","","","","","","","","","","","","","","","","","","","","","","","","","","","","","","","","","","","","","","",""
"","deliberation","","html-keyboard-response","131","565483","0.0-76.0-1.0","0","0","5iALM","Scenes","","4706","","","75","","","","20","135","146","1","1","64","61","mohammad-alizade-4wzRuAb-KWs-unsplash.jpg","thomas-morse-cuKKa0vWZSY-unsplash.jpg","2","0","146","135","","","","","","","","","","","","","","","","","","","","","","","","","","","",""
"","choice_confirmation","","html-keyboard-response","132","565999","0.0-76.0-2.0-0.0","0","0","5iALM","Scenes","","null","","","null","","","","20","135","146","","","","","","","","","","","","","","","","","","","","","","","","","","","","","","","","","","","","","",""
"","explain_trial","","survey-text","133","571601","0.0-76.0-5.0-0.0","0","0","5iALM","Scenes","","5600","{""Q0"":""The image is more colorful.""}","","","","","","20","135","146","","","","","","","","","","","{""Q0"":""The image is more colorful.""}","","","","","","","","","","","","","","","","","","","","","","","","","","",""
"","fixation","","html-keyboard-response","134","572614","0.0-77.0-0.0","0","0","5iALM","Scenes","","null","","","null","","","","","","","","","","","","","","","","","","","","","","","","","","","","","","","","","","","","","","","","","","","",""
"","deliberation","","html-keyboard-response","135","576138","0.0-77.0-1.0","0","0","5iALM","Scenes","","3522","","","68","","","","21","103","100","0","-1","65","65","anton-darius-FBJugtbHsWU-unsplash.jpg","aleksandra-boguslawska-MS7KD9Ti7FQ-unsplash.jpg","2","1","103","100","","","","","","","","","","","","","","","","","","","","","","","","","","","",""
"","choice_confirmation","","html-keyboard-response","136","576659","0.0-77.0-2.0-0.0","0","0","5iALM","Scenes","","null","","","null","","","","21","103","100","","","","","","","","","","","","","","","","","","","","","","","","","","","","","","","","","","","","","",""
"","fixation","","html-keyboard-response","137","577671","0.0-78.0-0.0","0","0","5iALM","Scenes","","null","","","null","","","","","","","","","","","","","","","","","","","","","","","","","","","","","","","","","","","","","","","","","","","",""
"","deliberation","","html-keyboard-response","138","580587","0.0-78.0-1.0","0","0","5iALM","Scenes","","2914","","","75","","","","22","147","110","0","-1","64","64","tobias-keller-73F4pKoUkM0-unsplash.jpg","bruno-van-der-kraan-qez8mNJ3ilU-unsplash.jpg","2","0","110","147","","","","","","","","","","","","","","","","","","","","","","","","","","","",""
"","choice_confirmation","","html-keyboard-response","139","581104","0.0-78.0-2.0-0.0","0","0","5iALM","Scenes","","null","","","null","","","","22","147","110","","","","","","","","","","","","","","","","","","","","","","","","","","","","","","","","","","","","","",""
"","fixation","","html-keyboard-response","140","582119","0.0-79.0-0.0","0","0","5iALM","Scenes","","null","","","null","","","","","","","","","","","","","","","","","","","","","","","","","","","","","","","","","","","","","","","","","","","",""
"","deliberation","","html-keyboard-response","141","583826","0.0-79.0-1.0","0","0","5iALM","Scenes","","1704","","","75","","","","23","124","132","0","-1","64","62","johannes-plenio-sPt5RIjKfpk-unsplash.jpg","meng-ji-8BH_M-53CyA-unsplash.jpg","2","0","132","124","","","","","","","","","","","","","","","","","","","","","","","","","","","",""
"","choice_confirmation","","html-keyboard-response","142","584337","0.0-79.0-2.0-0.0","0","0","5iALM","Scenes","","null","","","null","","","","23","124","132","","","","","","","","","","","","","","","","","","","","","","","","","","","","","","","","","","","","","",""
"","start_critical_deliberation_block","","html-keyboard-response","143","588783","0.0-79.0-7.0-0.0","0","0","5iALM","Scenes","","4443","","","78","","","","","","","","","","","","","","","","","","","","","","","","","","","","","","","","","","","","","","","","","","","",""
"","fixation","","html-keyboard-response","144","589803","0.0-80.0-0.0","0","0","5iALM","Scenes","","null","","","null","","","","","","","","","","","","","","","","","","","","","","","","","","","","","","","","","","","","","","","","","","","",""
"","deliberation","","html-keyboard-response","145","590730","0.0-80.0-1.0","0","0","5iALM","Scenes","","922","","","75","","","","24","122","112","0","-1","66","62","jeff-king-bJHWJeiHfHc-unsplash.jpg","cosmic-timetraveler-pYyOZ8q7AII-unsplash.jpg","3","0","112","122","","","","","","","","","","","","","","","","","","","","","","","","","","","",""
"","choice_confirmation","","html-keyboard-response","146","591249","0.0-80.0-2.0-0.0","0","0","5iALM","Scenes","","null","","","null","","","","24","122","112","","","","","","","","","","","","","","","","","","","","","","","","","","","","","","","","","","","","","",""
"","fixation","","html-keyboard-response","147","592256","0.0-81.0-0.0","0","0","5iALM","Scenes","","null","","","null","","","","","","","","","","","","","","","","","","","","","","","","","","","","","","","","","","","","","","","","","","","",""
"","deliberation","","html-keyboard-response","148","593366","0.0-81.0-1.0","0","0","5iALM","Scenes","","1107","","","75","","","","25","115","104","0","1","65","60","darrell-cassell-hoCXpPUMCoE-unsplash.jpg","artem-sapegin-XGDBdSQ70O0-unsplash.jpg","3","0","104","115","","","","","","","","","","","","","","","","","","","","","","","","","","","",""
"","choice_confirmation","","html-keyboard-response","149","593875","0.0-81.0-2.0-0.0","0","0","5iALM","Scenes","","null","","","null","","","","25","115","104","","","","","","","","","","","","","","","","","","","","","","","","","","","","","","","","","","","","","",""
"","fixation","","html-keyboard-response","150","594883","0.0-82.0-0.0","0","0","5iALM","Scenes","","null","","","null","","","","","","","","","","","","","","","","","","","","","","","","","","","","","","","","","","","","","","","","","","","",""
"","deliberation","","html-keyboard-response","151","595652","0.0-82.0-1.0","0","0","5iALM","Scenes","","764","","","75","","","","26","121","148","0","1","60","67","jean-pierre-brungs-qxCqkbF7tUc-unsplash.jpg","tom-gainor-ZqLeQDjY6fY-unsplash.jpg","3","0","148","121","","","","","","","","","","","","","","","","","","","","","","","","","","","",""
"","choice_confirmation","","html-keyboard-response","152","596171","0.0-82.0-2.0-0.0","0","0","5iALM","Scenes","","null","","","null","","","","26","121","148","","","","","","","","","","","","","","","","","","","","","","","","","","","","","","","","","","","","","",""
"","fixation","","html-keyboard-response","153","597200","0.0-83.0-0.0","0","0","5iALM","Scenes","","null","","","null","","","","","","","","","","","","","","","","","","","","","","","","","","","","","","","","","","","","","","","","","","","",""
"","deliberation","","html-keyboard-response","154","598279","0.0-83.0-1.0","0","0","5iALM","Scenes","","1073","","","68","","","","27","127","145","0","-1","63","64","kace-rodriguez-p3OzJuT_Dks-unsplash.jpg","stephen-leonardi-gyIRjKPXupE-unsplash.jpg","3","1","127","145","","","","","","","","","","","","","","","","","","","","","","","","","","","",""
"","choice_confirmation","","html-keyboard-response","155","598791","0.0-83.0-2.0-0.0","0","0","5iALM","Scenes","","null","","","null","","","","27","127","145","","","","","","","","","","","","","","","","","","","","","","","","","","","","","","","","","","","","","",""
"","fixation","","html-keyboard-response","156","599811","0.0-84.0-0.0","0","0","5iALM","Scenes","","null","","","null","","","","","","","","","","","","","","","","","","","","","","","","","","","","","","","","","","","","","","","","","","","",""
"","deliberation","","html-keyboard-response","157","601709","0.0-84.0-1.0","0","0","5iALM","Scenes","","1897","","","75","","","","28","147","110","0","-1","64","64","tobias-keller-73F4pKoUkM0-unsplash.jpg","bruno-van-der-kraan-qez8mNJ3ilU-unsplash.jpg","3","0","110","147","","","","","","","","","","","","","","","","","","","","","","","","","","","",""
"","choice_confirmation","","html-keyboard-response","158","602218","0.0-84.0-2.0-0.0","0","0","5iALM","Scenes","","null","","","null","","","","28","147","110","","","","","","","","","","","","","","","","","","","","","","","","","","","","","","","","","","","","","",""
"","fixation","","html-keyboard-response","159","603227","0.0-85.0-0.0","0","0","5iALM","Scenes","","null","","","null","","","","","","","","","","","","","","","","","","","","","","","","","","","","","","","","","","","","","","","","","","","",""
"","deliberation","","html-keyboard-response","160","603977","0.0-85.0-1.0","0","0","5iALM","Scenes","","748","","","68","","","","29","108","136","0","-1","59","63","benjamin-voros-phIFdC6lA4E-unsplash.jpg","nicolas-jehly-LzVB84KkZOE-unsplash.jpg","3","1","108","136","","","","","","","","","","","","","","","","","","","","","","","","","","","",""
"","choice_confirmation","","html-keyboard-response","161","604495","0.0-85.0-2.0-0.0","0","0","5iALM","Scenes","","null","","","null","","","","29","108","136","","","","","","","","","","","","","","","","","","","","","","","","","","","","","","","","","","","","","",""
"","fixation","","html-keyboard-response","162","605516","0.0-86.0-0.0","0","0","5iALM","Scenes","","null","","","null","","","","","","","","","","","","","","","","","","","","","","","","","","","","","","","","","","","","","","","","","","","",""
"","deliberation","","html-keyboard-response","163","607202","0.0-86.0-1.0","0","0","5iALM","Scenes","","1685","","","75","","","","30","120","131","0","1","60","66","jarrett-kow-1ZOyYPOBn7I-unsplash.jpg","luca-bravo-hFzIoD0F_i8-unsplash.jpg","3","0","131","120","","","","","","","","","","","","","","","","","","","","","","","","","","","",""
"","choice_confirmation","","html-keyboard-response","164","607718","0.0-86.0-2.0-0.0","0","0","5iALM","Scenes","","null","","","null","","","","30","120","131","","","","","","","","","","","","","","","","","","","","","","","","","","","","","","","","","","","","","",""
"","fixation","","html-keyboard-response","165","608742","0.0-87.0-0.0","0","0","5iALM","Scenes","","null","","","null","","","","","","","","","","","","","","","","","","","","","","","","","","","","","","","","","","","","","","","","","","","",""
"","deliberation","","html-keyboard-response","166","609876","0.0-87.0-1.0","0","0","5iALM","Scenes","","1128","","","68","","","","31","103","100","0","-1","65","65","anton-darius-FBJugtbHsWU-unsplash.jpg","aleksandra-boguslawska-MS7KD9Ti7FQ-unsplash.jpg","3","1","103","100","","","","","","","","","","","","","","","","","","","","","","","","","","","",""
"","choice_confirmation","","html-keyboard-response","167","610387","0.0-87.0-2.0-0.0","0","0","5iALM","Scenes","","null","","","null","","","","31","103","100","","","","","","","","","","","","","","","","","","","","","","","","","","","","","","","","","","","","","",""
"","fixation","","html-keyboard-response","168","611395","0.0-88.0-0.0","0","0","5iALM","Scenes","","null","","","null","","","","","","","","","","","","","","","","","","","","","","","","","","","","","","","","","","","","","","","","","","","",""
"","deliberation","","html-keyboard-response","169","612309","0.0-88.0-1.0","0","0","5iALM","Scenes","","910","","","75","","","","32","135","146","0","1","64","61","mohammad-alizade-4wzRuAb-KWs-unsplash.jpg","thomas-morse-cuKKa0vWZSY-unsplash.jpg","3","0","146","135","","","","","","","","","","","","","","","","","","","","","","","","","","","",""
"","choice_confirmation","","html-keyboard-response","170","612819","0.0-88.0-2.0-0.0","0","0","5iALM","Scenes","","null","","","null","","","","32","135","146","","","","","","","","","","","","","","","","","","","","","","","","","","","","","","","","","","","","","",""
"","fixation","","html-keyboard-response","171","613832","0.0-89.0-0.0","0","0","5iALM","Scenes","","null","","","null","","","","","","","","","","","","","","","","","","","","","","","","","","","","","","","","","","","","","","","","","","","",""
"","deliberation","","html-keyboard-response","172","615522","0.0-89.0-1.0","0","0","5iALM","Scenes","","1687","","","68","","","","33","119","133","0","1","66","67","james-wheeler-AFC0XvICMgs-unsplash.jpg","mickey-o-neil-xL66l--msXU-unsplash.jpg","3","1","119","133","","","","","","","","","","","","","","","","","","","","","","","","","","","",""
"","choice_confirmation","","html-keyboard-response","173","616036","0.0-89.0-2.0-0.0","0","0","5iALM","Scenes","","null","","","null","","","","33","119","133","","","","","","","","","","","","","","","","","","","","","","","","","","","","","","","","","","","","","",""
"","fixation","","html-keyboard-response","174","617051","0.0-90.0-0.0","0","0","5iALM","Scenes","","null","","","null","","","","","","","","","","","","","","","","","","","","","","","","","","","","","","","","","","","","","","","","","","","",""
"","deliberation","","html-keyboard-response","175","618157","0.0-90.0-1.0","0","0","5iALM","Scenes","","1102","","","75","","","","34","141","142","0","1","64","60","sebastian-unrau-v4e3JI7DDHI-unsplash.jpg","sergey-pesterev-y-b_FOmJXdg-unsplash.jpg","3","0","142","141","","","","","","","","","","","","","","","","","","","","","","","","","","","",""
"","choice_confirmation","","html-keyboard-response","176","618664","0.0-90.0-2.0-0.0","0","0","5iALM","Scenes","","null","","","null","","","","34","141","142","","","","","","","","","","","","","","","","","","","","","","","","","","","","","","","","","","","","","",""
"","fixation","","html-keyboard-response","177","619676","0.0-91.0-0.0","0","0","5iALM","Scenes","","null","","","null","","","","","","","","","","","","","","","","","","","","","","","","","","","","","","","","","","","","","","","","","","","",""
"","deliberation","","html-keyboard-response","178","620862","0.0-91.0-1.0","0","0","5iALM","Scenes","","1181","","","75","","","","35","124","132","0","-1","64","62","johannes-plenio-sPt5RIjKfpk-unsplash.jpg","meng-ji-8BH_M-53CyA-unsplash.jpg","3","0","132","124","","","","","","","","","","","","","","","","","","","","","","","","","","","",""
"","choice_confirmation","","html-keyboard-response","179","621397","0.0-91.0-2.0-0.0","0","0","5iALM","Scenes","","null","","","null","","","","35","124","132","","","","","","","","","","","","","","","","","","","","","","","","","","","","","","","","","","","","","",""
"","reward_learning_instructions","","instructions","180","677559","0.0-92.0-0.0","0","0","5iALM","Scenes","[{""page_index"":0,""viewing_time"":23968},{""page_index"":1,""viewing_time"":29539},{""page_index"":2,""viewing_time"":2653}]","56160","","","","","","","","","","","","","","","","","","","","","","","","","","","","","","","","","","","","","","","","","","","","","","",""
"","reward_comprehension_check","","survey-multi-choice","181","691405","0.0-92.0-1.0","0","0","5iALM","Scenes","","13843","{""Q0"":""True"",""Q1"":""True"",""Q2"":""Press the space bar to see its outcome"",""Q3"":""Press the relevant key while the outcome is presented""}","0","","","","","","","","","","","","","","","","","","","","","","","","","","","","","","","","","","","","","","","","","","","","",""
"","start_phase","","html-keyboard-response","182","693962","0.0-93.0","0","0","5iALM","Scenes","","2554","","","78","","","","","","","","","","","","","","","","","","","","","","","","","","","","","","","","","","","","","","","","","","","",""
"","fixation","","html-keyboard-response","183","694976","0.0-94.0","0","0","5iALM","Scenes","","null","","","null","","","","","","","","","","","","","","","","","","","","","","","","","","","","","","","","","","","","","","","","","","","",""
"","see_reward","","html-keyboard-response","184","696120","0.0-95.0","0","0","5iALM","Scenes","","1139","","","32","","103","","0","","","","-1","","","","","1","","","","","0","1139","","","","","","","","","","","","","","","","","","","","","","","","",""
"","reward_outcome","","html-keyboard-response","185","698135","0.0-96.0","0","0","5iALM","Scenes","","1397","","","40","","103","","0","","","","","","","","","","","","","","","","-1","1397","","","","","","","","","","","","","","","","","","","","","","",""
"","fixation","","html-keyboard-response","186","699152","0.0-99.0","0","0","5iALM","Scenes","","null","","","null","","","","","","","","","","","","","","","","","","","","","","","","","","","","","","","","","","","","","","","","","","","",""
"","see_reward","","html-keyboard-response","187","700474","0.0-100.0","0","0","5iALM","Scenes","","1320","","","32","","103","","1","","","","-1","","","","","1","","","","","0","1320","","","","","","","","","","","","","","","","","","","","","","","","",""
"","reward_outcome","","html-keyboard-response","188","702490","0.0-101.0","0","0","5iALM","Scenes","","943","","","40","","103","","1","","","","","","","","","","","","","","","","-1","943","","","","","","","","","","","","","","","","","","","","","","",""
"","fixation","","html-keyboard-response","189","703511","0.0-104.0","0","0","5iALM","Scenes","","null","","","null","","","","","","","","","","","","","","","","","","","","","","","","","","","","","","","","","","","","","","","","","","","",""
"","see_reward","","html-keyboard-response","190","704582","0.0-105.0","0","0","5iALM","Scenes","","1067","","","32","","146","","2","","","","1","","","","","1","","","","","159","1067","","","","","","","","","","","","","","","","","","","","","","","","",""
"","reward_outcome","","html-keyboard-response","191","706603","0.0-106.0","0","0","5iALM","Scenes","","957","","","38","","146","","2","","","","","","","","","","","","","","","","1","957","","","","","","","","","","","","","","","","","","","","","","",""
"","fixation","","html-keyboard-response","192","707613","0.0-109.0","0","0","5iALM","Scenes","","null","","","null","","","","","","","","","","","","","","","","","","","","","","","","","","","","","","","","","","","","","","","","","","","",""
"","see_reward","","html-keyboard-response","193","708370","0.0-110.0","0","0","5iALM","Scenes","","755","","","32","","108","","3","","","","-1","","","","","1","","","","","0","755","","","","","","","","","","","","","","","","","","","","","","","","",""
"","reward_outcome","","html-keyboard-response","194","710384","0.0-111.0","0","0","5iALM","Scenes","","874","","","40","","108","","3","","","","","","","","","","","","","","","","-1","874","","","","","","","","","","","","","","","","","","","","","","",""
"","fixation","","html-keyboard-response","195","711393","0.0-114.0","0","0","5iALM","Scenes","","null","","","null","","","","","","","","","","","","","","","","","","","","","","","","","","","","","","","","","","","","","","","","","","","",""
"","see_reward","","html-keyboard-response","196","711758","0.0-115.0","0","0","5iALM","Scenes","","362","","","32","","108","","4","","","","-1","","","","","1","","","","","0","362","","","","","","","","","","","","","","","","","","","","","","","","",""
"","reward_outcome","","html-keyboard-response","197","713771","0.0-116.0","0","0","5iALM","Scenes","","1528","","","40","","108","","4","","","","","","","","","","","","","","","","-1","1528","","","","","","","","","","","","","","","","","","","","","","",""
"","fixation","","html-keyboard-response","198","714789","0.0-119.0","0","0","5iALM","Scenes","","null","","","null","","","","","","","","","","","","","","","","","","","","","","","","","","","","","","","","","","","","","","","","","","","",""
"","see_reward","","html-keyboard-response","199","715394","0.0-120.0","0","0","5iALM","Scenes","","604","","","32","","112","","5","","","","-1","","","","","1","","","","","0","604","","","","","","","","","","","","","","","","","","","","","","","","",""
"","reward_outcome","","html-keyboard-response","200","717404","0.0-121.0","0","0","5iALM","Scenes","","878","","","40","","112","","5","","","","","","","","","","","","","","","","-1","878","","","","","","","","","","","","","","","","","","","","","","",""
"","fixation","","html-keyboard-response","201","718424","0.0-124.0","0","0","5iALM","Scenes","","null","","","null","","","","","","","","","","","","","","","","","","","","","","","","","","","","","","","","","","","","","","","","","","","",""
"","see_reward","","html-keyboard-response","202","719039","0.0-125.0","0","0","5iALM","Scenes","","609","","","32","","127","","6","","","","-1","","","","","1","","","","","0","609","","","","","","","","","","","","","","","","","","","","","","","","",""
"","reward_outcome","","html-keyboard-response","203","721060","0.0-126.0","0","0","5iALM","Scenes","","800","","","40","","127","","6","","","","","","","","","","","","","","","","-1","800","","","","","","","","","","","","","","","","","","","","","","",""
"","fixation","","html-keyboard-response","204","722067","0.0-129.0","0","0","5iALM","Scenes","","null","","","null","","","","","","","","","","","","","","","","","","","","","","","","","","","","","","","","","","","","","","","","","","","",""
"","see_reward","","html-keyboard-response","205","722628","0.0-130.0","0","0","5iALM","Scenes","","557","","","32","","146","","7","","","","1","","","","","1","","","","","159","557","","","","","","","","","","","","","","","","","","","","","","","","",""
"","reward_outcome","","html-keyboard-response","206","724640","0.0-131.0","0","0","5iALM","Scenes","","806","","","38","","146","","7","","","","","","","","","","","","","","","","1","806","","","","","","","","","","","","","","","","","","","","","","",""
"","fixation","","html-keyboard-response","207","725661","0.0-134.0","0","0","5iALM","Scenes","","null","","","null","","","","","","","","","","","","","","","","","","","","","","","","","","","","","","","","","","","","","","","","","","","",""
"","see_reward","","html-keyboard-response","208","726031","0.0-135.0","0","0","5iALM","Scenes","","366","","","32","","132","","8","","","","-1","","","","","1","","","","","0","366","","","","","","","","","","","","","","","","","","","","","","","","",""
"","reward_outcome","","html-keyboard-response","209","728044","0.0-136.0","0","0","5iALM","Scenes","","754","","","40","","132","","8","","","","","","","","","","","","","","","","-1","754","","","","","","","","","","","","","","","","","","","","","","",""
"","fixation","","html-keyboard-response","210","729048","0.0-139.0","0","0","5iALM","Scenes","","null","","","null","","","","","","","","","","","","","","","","","","","","","","","","","","","","","","","","","","","","","","","","","","","",""
"","see_reward","","html-keyboard-response","211","729514","0.0-140.0","0","0","5iALM","Scenes","","465","","","32","","104","","9","","","","1","","","","","1","","","","","150","465","","","","","","","","","","","","","","","","","","","","","","","","",""
"","reward_outcome","","html-keyboard-response","212","731527","0.0-141.0","0","0","5iALM","Scenes","","832","","","38","","104","","9","","","","","","","","","","","","","","","","1","832","","","","","","","","","","","","","","","","","","","","","","",""
"","fixation","","html-keyboard-response","213","732538","0.0-144.0","0","0","5iALM","Scenes","","null","","","null","","","","","","","","","","","","","","","","","","","","","","","","","","","","","","","","","","","","","","","","","","","",""
"","see_reward","","html-keyboard-response","214","732922","0.0-145.0","0","0","5iALM","Scenes","","381","","","32","","148","","10","","","","1","","","","","1","","","","","148","381","","","","","","","","","","","","","","","","","","","","","","","","",""
"","reward_outcome","","html-keyboard-response","215","734937","0.0-146.0","0","0","5iALM","Scenes","","784","","","38","","148","","10","","","","","","","","","","","","","","","","1","784","","","","","","","","","","","","","","","","","","","","","","",""
"","fixation","","html-keyboard-response","216","735943","0.0-149.0","0","0","5iALM","Scenes","","null","","","null","","","","","","","","","","","","","","","","","","","","","","","","","","","","","","","","","","","","","","","","","","","",""
"","see_reward","","html-keyboard-response","217","736271","0.0-150.0","0","0","5iALM","Scenes","","323","","","32","","148","","11","","","","1","","","","","1","","","","","148","323","","","","","","","","","","","","","","","","","","","","","","","","",""
"","reward_outcome","","html-keyboard-response","218","738280","0.0-151.0","0","0","5iALM","Scenes","","393","","","38","","148","","11","","","","","","","","","","","","","","","","1","393","","","","","","","","","","","","","","","","","","","","","","",""
"","fixation","","html-keyboard-response","219","739301","0.0-154.0","0","0","5iALM","Scenes","","null","","","null","","","","","","","","","","","","","","","","","","","","","","","","","","","","","","","","","","","","","","","","","","","",""
"","see_reward","","html-keyboard-response","220","739934","0.0-155.0","0","0","5iALM","Scenes","","630","","","32","","110","","12","","","","-1","","","","","1","","","","","0","630","","","","","","","","","","","","","","","","","","","","","","","","",""
"","reward_outcome","","html-keyboard-response","221","741951","0.0-156.0","0","0","5iALM","Scenes","","909","","","40","","110","","12","","","","","","","","","","","","","","","","-1","909","","","","","","","","","","","","","","","","","","","","","","",""
"","fixation","","html-keyboard-response","222","742960","0.0-159.0","0","0","5iALM","Scenes","","null","","","null","","","","","","","","","","","","","","","","","","","","","","","","","","","","","","","","","","","","","","","","","","","",""
"","see_reward","","html-keyboard-response","223","743291","0.0-160.0","0","0","5iALM","Scenes","","330","","","32","","132","","13","","","","-1","","","","","1","","","","","0","330","","","","","","","","","","","","","","","","","","","","","","","","",""
"","reward_outcome","","html-keyboard-response","224","745295","0.0-161.0","0","0","5iALM","Scenes","","536","","","40","","132","","13","","","","","","","","","","","","","","","","-1","536","","","","","","","","","","","","","","","","","","","","","","",""
"","fixation","","html-keyboard-response","225","746309","0.0-164.0","0","0","5iALM","Scenes","","null","","","null","","","","","","","","","","","","","","","","","","","","","","","","","","","","","","","","","","","","","","","","","","","",""
"","see_reward","","html-keyboard-response","226","746685","0.0-165.0","0","0","5iALM","Scenes","","371","","","32","","110","","14","","","","-1","","","","","1","","","","","0","371","","","","","","","","","","","","","","","","","","","","","","","","",""
"","reward_outcome","","html-keyboard-response","227","748709","0.0-166.0","0","0","5iALM","Scenes","","555","","","40","","110","","14","","","","","","","","","","","","","","","","-1","555","","","","","","","","","","","","","","","","","","","","","","",""
"","fixation","","html-keyboard-response","228","749719","0.0-169.0","0","0","5iALM","Scenes","","null","","","null","","","","","","","","","","","","","","","","","","","","","","","","","","","","","","","","","","","","","","","","","","","",""
"","see_reward","","html-keyboard-response","229","750253","0.0-170.0","0","0","5iALM","Scenes","","531","","","32","","131","","15","","","","1","","","","","1","","","","","158","531","","","","","","","","","","","","","","","","","","","","","","","","",""
"","reward_outcome","","html-keyboard-response","230","752276","0.0-171.0","0","0","5iALM","Scenes","","333","","","38","","131","","15","","","","","","","","","","","","","","","","1","333","","","","","","","","","","","","","","","","","","","","","","",""
"","fixation","","html-keyboard-response","231","753283","0.0-174.0","0","0","5iALM","Scenes","","null","","","null","","","","","","","","","","","","","","","","","","","","","","","","","","","","","","","","","","","","","","","","","","","",""
"","see_reward","","html-keyboard-response","232","753678","0.0-175.0","0","0","5iALM","Scenes","","390","","","32","","127","","16","","","","-1","","","","","1","","","","","0","390","","","","","","","","","","","","","","","","","","","","","","","","",""
"","reward_outcome","","html-keyboard-response","233","755687","0.0-176.0","0","0","5iALM","Scenes","","498","","","40","","127","","16","","","","","","","","","","","","","","","","-1","498","","","","","","","","","","","","","","","","","","","","","","",""
"","fixation","","html-keyboard-response","234","756708","0.0-179.0","0","0","5iALM","Scenes","","null","","","null","","","","","","","","","","","","","","","","","","","","","","","","","","","","","","","","","","","","","","","","","","","",""
"","see_reward","","html-keyboard-response","235","757186","0.0-180.0","0","0","5iALM","Scenes","","476","","","32","","119","","17","","","","1","","","","","1","","","","","146","476","","","","","","","","","","","","","","","","","","","","","","","","",""
"","reward_outcome","","html-keyboard-response","236","759205","0.0-181.0","0","0","5iALM","Scenes","","369","","","38","","119","","17","","","","","","","","","","","","","","","","1","369","","","","","","","","","","","","","","","","","","","","","","",""
"","fixation","","html-keyboard-response","237","760225","0.0-184.0","0","0","5iALM","Scenes","","null","","","null","","","","","","","","","","","","","","","","","","","","","","","","","","","","","","","","","","","","","","","","","","","",""
"","see_reward","","html-keyboard-response","238","760795","0.0-185.0","0","0","5iALM","Scenes","","566","","","32","","142","","18","","","","1","","","","","1","","","","","149","566","","","","","","","","","","","","","","","","","","","","","","","","",""
"","reward_outcome","","html-keyboard-response","239","762810","0.0-186.0","0","0","5iALM","Scenes","","401","","","38","","142","","18","","","","","","","","","","","","","","","","1","401","","","","","","","","","","","","","","","","","","","","","","",""
"","fixation","","html-keyboard-response","240","763823","0.0-189.0","0","0","5iALM","Scenes","","null","","","null","","","","","","","","","","","","","","","","","","","","","","","","","","","","","","","","","","","","","","","","","","","",""
"","see_reward","","html-keyboard-response","241","764230","0.0-190.0","0","0","5iALM","Scenes","","403","","","32","","119","","19","","","","1","","","","","1","","","","","146","403","","","","","","","","","","","","","","","","","","","","","","","","",""
"","reward_outcome","","html-keyboard-response","242","766247","0.0-191.0","0","0","5iALM","Scenes","","429","","","38","","119","","19","","","","","","","","","","","","","","","","1","429","","","","","","","","","","","","","","","","","","","","","","",""
"","fixation","","html-keyboard-response","243","767257","0.0-194.0","0","0","5iALM","Scenes","","null","","","null","","","","","","","","","","","","","","","","","","","","","","","","","","","","","","","","","","","","","","","","","","","",""
"","see_reward","","html-keyboard-response","244","767645","0.0-195.0","0","0","5iALM","Scenes","","386","","","32","","112","","20","","","","-1","","","","","1","","","","","0","386","","","","","","","","","","","","","","","","","","","","","","","","",""
"","reward_outcome","","html-keyboard-response","245","769665","0.0-196.0","0","0","5iALM","Scenes","","355","","","38","","112","","20","","","","","","","","","","","","","","","","1","355","","","","","","","","","","","","","","","","","","","","","","",""
"","fixation","","html-keyboard-response","246","770673","0.0-199.0","0","0","5iALM","Scenes","","null","","","null","","","","","","","","","","","","","","","","","","","","","","","","","","","","","","","","","","","","","","","","","","","",""
"","see_reward","","html-keyboard-response","247","771274","0.0-200.0","0","0","5iALM","Scenes","","599","","","32","","142","","21","","","","1","","","","","1","","","","","149","599","","","","","","","","","","","","","","","","","","","","","","","","",""
"","reward_outcome","","html-keyboard-response","248","773279","0.0-201.0","0","0","5iALM","Scenes","","637","","","38","","142","","21","","","","","","","","","","","","","","","","1","637","","","","","","","","","","","","","","","","","","","","","","",""
"","fixation","","html-keyboard-response","249","774289","0.0-204.0","0","0","5iALM","Scenes","","null","","","null","","","","","","","","","","","","","","","","","","","","","","","","","","","","","","","","","","","","","","","","","","","",""
"","see_reward","","html-keyboard-response","250","774819","0.0-205.0","0","0","5iALM","Scenes","","528","","","32","","104","","22","","","","1","","","","","1","","","","","150","528","","","","","","","","","","","","","","","","","","","","","","","","",""
"","reward_outcome","","html-keyboard-response","251","776825","0.0-206.0","0","0","5iALM","Scenes","","653","","","38","","104","","22","","","","","","","","","","","","","","","","1","653","","","","","","","","","","","","","","","","","","","","","","",""
"","fixation","","html-keyboard-response","252","777840","0.0-209.0","0","0","5iALM","Scenes","","null","","","null","","","","","","","","","","","","","","","","","","","","","","","","","","","","","","","","","","","","","","","","","","","",""
"","see_reward","","html-keyboard-response","253","778346","0.0-210.0","0","0","5iALM","Scenes","","503","","","32","","131","","23","","","","1","","","","","1","","","","","158","503","","","","","","","","","","","","","","","","","","","","","","","","",""
"","reward_outcome","","html-keyboard-response","254","780357","0.0-211.0","0","0","5iALM","Scenes","","522","","","38","","131","","23","","","","","","","","","","","","","","","","1","522","","","","","","","","","","","","","","","","","","","","","","",""
"","block_over","","html-keyboard-response","255","784235","0.0-213.0-0.0","0","0","5iALM","Scenes","","3876","","","78","","","","","","","","","","","","","","","","","","","","","","","","","","","","","","","","","","","","","","","","","","","",""
"","fixation","","html-keyboard-response","256","785245","0.0-214.0","0","0","5iALM","Scenes","","null","","","null","","","","","","","","","","","","","","","","","","","","","","","","","","","","","","","","","","","","","","","","","","","",""
"","see_reward","","html-keyboard-response","257","786326","0.0-215.0","0","0","5iALM","Scenes","","1077","","","32","","132","","24","","","","-1","","","","","2","","","","","0","1077","","","","","","","","","","","","","","","","","","","","","","","","",""
"","reward_outcome","","html-keyboard-response","258","788339","0.0-216.0","0","0","5iALM","Scenes","","651","","","40","","132","","24","","","","","","","","","","","","","","","","-1","651","","","","","","","","","","","","","","","","","","","","","","",""
"","fixation","","html-keyboard-response","259","789353","0.0-219.0","0","0","5iALM","Scenes","","null","","","null","","","","","","","","","","","","","","","","","","","","","","","","","","","","","","","","","","","","","","","","","","","",""
"","see_reward","","html-keyboard-response","260","789806","0.0-220.0","0","0","5iALM","Scenes","","447","","","32","","142","","25","","","","1","","","","","2","","","","","149","447","","","","","","","","","","","","","","","","","","","","","","","","",""
"","reward_outcome","","html-keyboard-response","261","791823","0.0-221.0","0","0","5iALM","Scenes","","427","","","38","","142","","25","","","","","","","","","","","","","","","","1","427","","","","","","","","","","","","","","","","","","","","","","",""
"","fixation","","html-keyboard-response","262","792837","0.0-224.0","0","0","5iALM","Scenes","","null","","","null","","","","","","","","","","","","","","","","","","","","","","","","","","","","","","","","","","","","","","","","","","","",""
"","see_reward","","html-keyboard-response","263","793259","0.0-225.0","0","0","5iALM","Scenes","","419","","","32","","112","","26","","","","-1","","","","","2","","","","","0","419","","","","","","","","","","","","","","","","","","","","","","","","",""
"","reward_outcome","","html-keyboard-response","264","795266","0.0-226.0","0","0","5iALM","Scenes","","633","","","40","","112","","26","","","","","","","","","","","","","","","","-1","633","","","","","","","","","","","","","","","","","","","","","","",""
"","fixation","","html-keyboard-response","265","796273","0.0-229.0","0","0","5iALM","Scenes","","null","","","null","","","","","","","","","","","","","","","","","","","","","","","","","","","","","","","","","","","","","","","","","","","",""
"","see_reward","","html-keyboard-response","266","796615","0.0-230.0","0","0","5iALM","Scenes","","339","","","32","","131","","27","","","","1","","","","","2","","","","","158","339","","","","","","","","","","","","","","","","","","","","","","","","",""
"","reward_outcome","","html-keyboard-response","267","798630","0.0-231.0","0","0","5iALM","Scenes","","415","","","38","","131","","27","","","","","","","","","","","","","","","","1","415","","","","","","","","","","","","","","","","","","","","","","",""
"","fixation","","html-keyboard-response","268","799640","0.0-234.0","0","0","5iALM","Scenes","","null","","","null","","","","","","","","","","","","","","","","","","","","","","","","","","","","","","","","","","","","","","","","","","","",""
"","see_reward","","html-keyboard-response","269","800066","0.0-235.0","0","0","5iALM","Scenes","","424","","","32","","127","","28","","","","-1","","","","","2","","","","","0","424","","","","","","","","","","","","","","","","","","","","","","","","",""
"","reward_outcome","","html-keyboard-response","270","802083","0.0-236.0","0","0","5iALM","Scenes","","374","","","40","","127","","28","","","","","","","","","","","","","","","","-1","374","","","","","","","","","","","","","","","","","","","","","","",""
"","fixation","","html-keyboard-response","271","803091","0.0-239.0","0","0","5iALM","Scenes","","null","","","null","","","","","","","","","","","","","","","","","","","","","","","","","","","","","","","","","","","","","","","","","","","",""
"","see_reward","","html-keyboard-response","272","803471","0.0-240.0","0","0","5iALM","Scenes","","375","","","32","","146","","29","","","","1","","","","","2","","","","","159","375","","","","","","","","","","","","","","","","","","","","","","","","",""
"","reward_outcome","","html-keyboard-response","273","805481","0.0-241.0","0","0","5iALM","Scenes","","364","","","38","","146","","29","","","","","","","","","","","","","","","","1","364","","","","","","","","","","","","","","","","","","","","","","",""
"","fixation","","html-keyboard-response","274","806495","0.0-244.0","0","0","5iALM","Scenes","","null","","","null","","","","","","","","","","","","","","","","","","","","","","","","","","","","","","","","","","","","","","","","","","","",""
"","see_reward","","html-keyboard-response","275","806858","0.0-245.0","0","0","5iALM","Scenes","","362","","","32","","112","","30","","","","-1","","","","","2","","","","","0","362","","","","","","","","","","","","","","","","","","","","","","","","",""
"","reward_outcome","","html-keyboard-response","276","808874","0.0-246.0","0","0","5iALM","Scenes","","472","","","40","","112","","30","","","","","","","","","","","","","","","","-1","472","","","","","","","","","","","","","","","","","","","","","","",""
"","fixation","","html-keyboard-response","277","809892","0.0-249.0","0","0","5iALM","Scenes","","null","","","null","","","","","","","","","","","","","","","","","","","","","","","","","","","","","","","","","","","","","","","","","","","",""
"","see_reward","","html-keyboard-response","278","810286","0.0-250.0","0","0","5iALM","Scenes","","390","","","32","","131","","31","","","","1","","","","","2","","","","","158","390","","","","","","","","","","","","","","","","","","","","","","","","",""
"","reward_outcome","","html-keyboard-response","279","812302","0.0-251.0","0","0","5iALM","Scenes","","353","","","38","","131","","31","","","","","","","","","","","","","","","","1","353","","","","","","","","","","","","","","","","","","","","","","",""
"","fixation","","html-keyboard-response","280","813314","0.0-254.0","0","0","5iALM","Scenes","","null","","","null","","","","","","","","","","","","","","","","","","","","","","","","","","","","","","","","","","","","","","","","","","","",""
"","see_reward","","html-keyboard-response","281","813710","0.0-255.0","0","0","5iALM","Scenes","","391","","","32","","108","","32","","","","-1","","","","","2","","","","","0","391","","","","","","","","","","","","","","","","","","","","","","","","",""
"","reward_outcome","","html-keyboard-response","282","815734","0.0-256.0","0","0","5iALM","Scenes","","451","","","38","","108","","32","","","","","","","","","","","","","","","","1","451","","","","","","","","","","","","","","","","","","","","","","",""
"","fixation","","html-keyboard-response","283","816760","0.0-259.0","0","0","5iALM","Scenes","","null","","","null","","","","","","","","","","","","","","","","","","","","","","","","","","","","","","","","","","","","","","","","","","","",""
"","see_reward","","html-keyboard-response","284","818038","0.0-260.0","0","0","5iALM","Scenes","","1273","","","32","","108","","33","","","","-1","","","","","2","","","","","0","1273","","","","","","","","","","","","","","","","","","","","","","","","",""
"","reward_outcome","","html-keyboard-response","285","820058","0.0-261.0","0","0","5iALM","Scenes","","451","","","40","","108","","33","","","","","","","","","","","","","","","","-1","451","","","","","","","","","","","","","","","","","","","","","","",""
"","fixation","","html-keyboard-response","286","821067","0.0-264.0","0","0","5iALM","Scenes","","null","","","null","","","","","","","","","","","","","","","","","","","","","","","","","","","","","","","","","","","","","","","","","","","",""
"","see_reward","","html-keyboard-response","287","821864","0.0-265.0","0","0","5iALM","Scenes","","792","","","32","","142","","34","","","","1","","","","","2","","","","","149","792","","","","","","","","","","","","","","","","","","","","","","","","",""
"","reward_outcome","","html-keyboard-response","288","823873","0.0-266.0","0","0","5iALM","Scenes","","368","","","38","","142","","34","","","","","","","","","","","","","","","","1","368","","","","","","","","","","","","","","","","","","","","","","",""
"","fixation","","html-keyboard-response","289","824885","0.0-269.0","0","0","5iALM","Scenes","","null","","","null","","","","","","","","","","","","","","","","","","","","","","","","","","","","","","","","","","","","","","","","","","","",""
"","see_reward","","html-keyboard-response","290","825480","0.0-270.0","0","0","5iALM","Scenes","","588","","","32","","146","","35","","","","1","","","","","2","","","","","159","588","","","","","","","","","","","","","","","","","","","","","","","","",""
"","reward_outcome","","html-keyboard-response","291","827501","0.0-271.0","0","0","5iALM","Scenes","","407","","","38","","146","","35","","","","","","","","","","","","","","","","1","407","","","","","","","","","","","","","","","","","","","","","","",""
"","fixation","","html-keyboard-response","292","828517","0.0-274.0","0","0","5iALM","Scenes","","null","","","null","","","","","","","","","","","","","","","","","","","","","","","","","","","","","","","","","","","","","","","","","","","",""
"","see_reward","","html-keyboard-response","293","829002","0.0-275.0","0","0","5iALM","Scenes","","483","","","32","","104","","36","","","","1","","","","","2","","","","","150","483","","","","","","","","","","","","","","","","","","","","","","","","",""
"","reward_outcome","","html-keyboard-response","294","831017","0.0-276.0","0","0","5iALM","Scenes","","417","","","38","","104","","36","","","","","","","","","","","","","","","","1","417","","","","","","","","","","","","","","","","","","","","","","",""
"","fixation","","html-keyboard-response","295","832031","0.0-279.0","0","0","5iALM","Scenes","","null","","","null","","","","","","","","","","","","","","","","","","","","","","","","","","","","","","","","","","","","","","","","","","","",""
"","see_reward","","html-keyboard-response","296","832651","0.0-280.0","0","0","5iALM","Scenes","","616","","","32","","119","","37","","","","1","","","","","2","","","","","146","616","","","","","","","","","","","","","","","","","","","","","","","","",""
"","reward_outcome","","html-keyboard-response","297","834670","0.0-281.0","0","0","5iALM","Scenes","","408","","","38","","119","","37","","","","","","","","","","","","","","","","1","408","","","","","","","","","","","","","","","","","","","","","","",""
"","fixation","","html-keyboard-response","298","835694","0.0-284.0","0","0","5iALM","Scenes","","null","","","null","","","","","","","","","","","","","","","","","","","","","","","","","","","","","","","","","","","","","","","","","","","",""
"","see_reward","","html-keyboard-response","299","836295","0.0-285.0","0","0","5iALM","Scenes","","596","","","32","","148","","38","","","","1","","","","","2","","","","","148","596","","","","","","","","","","","","","","","","","","","","","","","","",""
"","reward_outcome","","html-keyboard-response","300","838313","0.0-286.0","0","0","5iALM","Scenes","","586","","","38","","148","","38","","","","","","","","","","","","","","","","1","586","","","","","","","","","","","","","","","","","","","","","","",""
"","fixation","","html-keyboard-response","301","839320","0.0-289.0","0","0","5iALM","Scenes","","null","","","null","","","","","","","","","","","","","","","","","","","","","","","","","","","","","","","","","","","","","","","","","","","",""
"","see_reward","","html-keyboard-response","302","839901","0.0-290.0","0","0","5iALM","Scenes","","578","","","32","","103","","39","","","","-1","","","","","2","","","","","0","578","","","","","","","","","","","","","","","","","","","","","","","","",""
"","reward_outcome","","html-keyboard-response","303","841921","0.0-291.0","0","0","5iALM","Scenes","","581","","","40","","103","","39","","","","","","","","","","","","","","","","-1","581","","","","","","","","","","","","","","","","","","","","","","",""
"","fixation","","html-keyboard-response","304","842944","0.0-294.0","0","0","5iALM","Scenes","","null","","","null","","","","","","","","","","","","","","","","","","","","","","","","","","","","","","","","","","","","","","","","","","","",""
"","see_reward","","html-keyboard-response","305","843558","0.0-295.0","0","0","5iALM","Scenes","","609","","","32","","110","","40","","","","-1","","","","","2","","","","","0","609","","","","","","","","","","","","","","","","","","","","","","","","",""
"","reward_outcome","","html-keyboard-response","306","845581","0.0-296.0","0","0","5iALM","Scenes","","487","","","40","","110","","40","","","","","","","","","","","","","","","","-1","487","","","","","","","","","","","","","","","","","","","","","","",""
"","fixation","","html-keyboard-response","307","846601","0.0-299.0","0","0","5iALM","Scenes","","null","","","null","","","","","","","","","","","","","","","","","","","","","","","","","","","","","","","","","","","","","","","","","","","",""
"","see_reward","","html-keyboard-response","308","847274","0.0-300.0","0","0","5iALM","Scenes","","670","","","32","","119","","41","","","","1","","","","","2","","","","","146","670","","","","","","","","","","","","","","","","","","","","","","","","",""
"","reward_outcome","","html-keyboard-response","309","849285","0.0-301.0","0","0","5iALM","Scenes","","329","","","38","","119","","41","","","","","","","","","","","","","","","","1","329","","","","","","","","","","","","","","","","","","","","","","",""
"","fixation","","html-keyboard-response","310","850295","0.0-304.0","0","0","5iALM","Scenes","","null","","","null","","","","","","","","","","","","","","","","","","","","","","","","","","","","","","","","","","","","","","","","","","","",""
"","see_reward","","html-keyboard-response","311","850806","0.0-305.0","0","0","5iALM","Scenes","","508","","","32","","110","","42","","","","-1","","","","","2","","","","","0","508","","","","","","","","","","","","","","","","","","","","","","","","",""
"","reward_outcome","","html-keyboard-response","312","852831","0.0-306.0","0","0","5iALM","Scenes","","449","","","40","","110","","42","","","","","","","","","","","","","","","","-1","449","","","","","","","","","","","","","","","","","","","","","","",""
"","fixation","","html-keyboard-response","313","853841","0.0-309.0","0","0","5iALM","Scenes","","null","","","null","","","","","","","","","","","","","","","","","","","","","","","","","","","","","","","","","","","","","","","","","","","",""
"","see_reward","","html-keyboard-response","314","854293","0.0-310.0","0","0","5iALM","Scenes","","448","","","32","","103","","43","","","","-1","","","","","2","","","","","0","448","","","","","","","","","","","","","","","","","","","","","","","","",""
"","reward_outcome","","html-keyboard-response","315","856315","0.0-311.0","0","0","5iALM","Scenes","","467","","","40","","103","","43","","","","","","","","","","","","","","","","-1","467","","","","","","","","","","","","","","","","","","","","","","",""
"","fixation","","html-keyboard-response","316","857324","0.0-314.0","0","0","5iALM","Scenes","","null","","","null","","","","","","","","","","","","","","","","","","","","","","","","","","","","","","","","","","","","","","","","","","","",""
"","see_reward","","html-keyboard-response","317","857813","0.0-315.0","0","0","5iALM","Scenes","","487","","","32","","132","","44","","","","-1","","","","","2","","","","","0","487","","","","","","","","","","","","","","","","","","","","","","","","",""
"","reward_outcome","","html-keyboard-response","318","859832","0.0-316.0","0","0","5iALM","Scenes","","373","","","40","","132","","44","","","","","","","","","","","","","","","","-1","373","","","","","","","","","","","","","","","","","","","","","","",""
"","fixation","","html-keyboard-response","319","860839","0.0-319.0","0","0","5iALM","Scenes","","null","","","null","","","","","","","","","","","","","","","","","","","","","","","","","","","","","","","","","","","","","","","","","","","",""
"","see_reward","","html-keyboard-response","320","861280","0.0-320.0","0","0","5iALM","Scenes","","436","","","32","","148","","45","","","","1","","","","","2","","","","","148","436","","","","","","","","","","","","","","","","","","","","","","","","",""
"","reward_outcome","","html-keyboard-response","321","863301","0.0-321.0","0","0","5iALM","Scenes","","655","","","38","","148","","45","","","","","","","","","","","","","","","","1","655","","","","","","","","","","","","","","","","","","","","","","",""
"","fixation","","html-keyboard-response","322","864324","0.0-324.0","0","0","5iALM","Scenes","","null","","","null","","","","","","","","","","","","","","","","","","","","","","","","","","","","","","","","","","","","","","","","","","","",""
"","see_reward","","html-keyboard-response","323","864884","0.0-325.0","0","0","5iALM","Scenes","","556","","","32","","127","","46","","","","-1","","","","","2","","","","","0","556","","","","","","","","","","","","","","","","","","","","","","","","",""
"","reward_outcome","","html-keyboard-response","324","866909","0.0-326.0","0","0","5iALM","Scenes","","348","","","40","","127","","46","","","","","","","","","","","","","","","","-1","348","","","","","","","","","","","","","","","","","","","","","","",""
"","fixation","","html-keyboard-response","325","867927","0.0-329.0","0","0","5iALM","Scenes","","null","","","null","","","","","","","","","","","","","","","","","","","","","","","","","","","","","","","","","","","","","","","","","","","",""
"","see_reward","","html-keyboard-response","326","868262","0.0-330.0","0","0","5iALM","Scenes","","331","","","32","","104","","47","","","","1","","","","","2","","","","","150","331","","","","","","","","","","","","","","","","","","","","","","","","",""
"","reward_outcome","","html-keyboard-response","327","870277","0.0-331.0","0","0","5iALM","Scenes","","405","","","38","","104","","47","","","","","","","","","","","","","","","","1","405","","","","","","","","","","","","","","","","","","","","","","",""
"","block_over","","html-keyboard-response","328","876477","0.0-333.0-0.0","0","0","5iALM","Scenes","","6197","","","78","","","","","","","","","","","","","","","","","","","","","","","","","","","","","","","","","","","","","","","","","","","",""
"","fixation","","html-keyboard-response","329","877493","0.0-334.0","0","0","5iALM","Scenes","","null","","","null","","","","","","","","","","","","","","","","","","","","","","","","","","","","","","","","","","","","","","","","","","","",""
"","see_reward","","html-keyboard-response","330","878502","0.0-335.0","0","0","5iALM","Scenes","","1003","","","32","","110","","48","","","","-1","","","","","3","","","","","0","1003","","","","","","","","","","","","","","","","","","","","","","","","",""
"","reward_outcome","","html-keyboard-response","331","880518","0.0-336.0","0","0","5iALM","Scenes","","572","","","40","","110","","48","","","","","","","","","","","","","","","","-1","572","","","","","","","","","","","","","","","","","","","","","","",""
"","fixation","","html-keyboard-response","332","881539","0.0-339.0","0","0","5iALM","Scenes","","null","","","null","","","","","","","","","","","","","","","","","","","","","","","","","","","","","","","","","","","","","","","","","","","",""
"","see_reward","","html-keyboard-response","333","882141","0.0-340.0","0","0","5iALM","Scenes","","599","","","32","","110","","49","","","","-1","","","","","3","","","","","0","599","","","","","","","","","","","","","","","","","","","","","","","","",""
"","reward_outcome","","html-keyboard-response","334","884157","0.0-341.0","0","0","5iALM","Scenes","","412","","","40","","110","","49","","","","","","","","","","","","","","","","-1","412","","","","","","","","","","","","","","","","","","","","","","",""
"","fixation","","html-keyboard-response","335","885180","0.0-344.0","0","0","5iALM","Scenes","","null","","","null","","","","","","","","","","","","","","","","","","","","","","","","","","","","","","","","","","","","","","","","","","","",""
"","see_reward","","html-keyboard-response","336","885765","0.0-345.0","0","0","5iALM","Scenes","","581","","","32","","132","","50","","","","-1","","","","","3","","","","","0","581","","","","","","","","","","","","","","","","","","","","","","","","",""
"","reward_outcome","","html-keyboard-response","337","887778","0.0-346.0","0","0","5iALM","Scenes","","434","","","40","","132","","50","","","","","","","","","","","","","","","","-1","434","","","","","","","","","","","","","","","","","","","","","","",""
"","fixation","","html-keyboard-response","338","888790","0.0-349.0","0","0","5iALM","Scenes","","null","","","null","","","","","","","","","","","","","","","","","","","","","","","","","","","","","","","","","","","","","","","","","","","",""
"","see_reward","","html-keyboard-response","339","889306","0.0-350.0","0","0","5iALM","Scenes","","514","","","32","","146","","51","","","","1","","","","","3","","","","","159","514","","","","","","","","","","","","","","","","","","","","","","","","",""
"","reward_outcome","","html-keyboard-response","340","891321","0.0-351.0","0","0","5iALM","Scenes","","600","","","38","","146","","51","","","","","","","","","","","","","","","","1","600","","","","","","","","","","","","","","","","","","","","","","",""
"","fixation","","html-keyboard-response","341","892341","0.0-354.0","0","0","5iALM","Scenes","","null","","","null","","","","","","","","","","","","","","","","","","","","","","","","","","","","","","","","","","","","","","","","","","","",""
"","see_reward","","html-keyboard-response","342","892940","0.0-355.0","0","0","5iALM","Scenes","","596","","","32","","112","","52","","","","-1","","","","","3","","","","","0","596","","","","","","","","","","","","","","","","","","","","","","","","",""
"","reward_outcome","","html-keyboard-response","343","894953","0.0-356.0","0","0","5iALM","Scenes","","717","","","40","","112","","52","","","","","","","","","","","","","","","","-1","717","","","","","","","","","","","","","","","","","","","","","","",""
"","fixation","","html-keyboard-response","344","895961","0.0-359.0","0","0","5iALM","Scenes","","null","","","null","","","","","","","","","","","","","","","","","","","","","","","","","","","","","","","","","","","","","","","","","","","",""
"","see_reward","","html-keyboard-response","345","896445","0.0-360.0","0","0","5iALM","Scenes","","480","","","32","","108","","53","","","","-1","","","","","3","","","","","0","480","","","","","","","","","","","","","","","","","","","","","","","","",""
"","reward_outcome","","html-keyboard-response","346","898458","0.0-361.0","0","0","5iALM","Scenes","","666","","","40","","108","","53","","","","","","","","","","","","","","","","-1","666","","","","","","","","","","","","","","","","","","","","","","",""
"","fixation","","html-keyboard-response","347","899465","0.0-364.0","0","0","5iALM","Scenes","","null","","","null","","","","","","","","","","","","","","","","","","","","","","","","","","","","","","","","","","","","","","","","","","","",""
"","see_reward","","html-keyboard-response","348","900078","0.0-365.0","0","0","5iALM","Scenes","","608","","","32","","131","","54","","","","1","","","","","3","","","","","158","608","","","","","","","","","","","","","","","","","","","","","","","","",""
"","reward_outcome","","html-keyboard-response","349","902100","0.0-366.0","0","0","5iALM","Scenes","","421","","","38","","131","","54","","","","","","","","","","","","","","","","1","421","","","","","","","","","","","","","","","","","","","","","","",""
"","fixation","","html-keyboard-response","350","903107","0.0-369.0","0","0","5iALM","Scenes","","null","","","null","","","","","","","","","","","","","","","","","","","","","","","","","","","","","","","","","","","","","","","","","","","",""
"","see_reward","","html-keyboard-response","351","903565","0.0-370.0","0","0","5iALM","Scenes","","455","","","32","","142","","55","","","","1","","","","","3","","","","","149","455","","","","","","","","","","","","","","","","","","","","","","","","",""
"","reward_outcome","","html-keyboard-response","352","905589","0.0-371.0","0","0","5iALM","Scenes","","405","","","38","","142","","55","","","","","","","","","","","","","","","","1","405","","","","","","","","","","","","","","","","","","","","","","",""
"","fixation","","html-keyboard-response","353","906604","0.0-374.0","0","0","5iALM","Scenes","","null","","","null","","","","","","","","","","","","","","","","","","","","","","","","","","","","","","","","","","","","","","","","","","","",""
"","see_reward","","html-keyboard-response","354","907118","0.0-375.0","0","0","5iALM","Scenes","","509","","","32","","119","","56","","","","1","","","","","3","","","","","146","509","","","","","","","","","","","","","","","","","","","","","","","","",""
"","reward_outcome","","html-keyboard-response","355","909134","0.0-376.0","0","0","5iALM","Scenes","","354","","","38","","119","","56","","","","","","","","","","","","","","","","1","354","","","","","","","","","","","","","","","","","","","","","","",""
"","fixation","","html-keyboard-response","356","910146","0.0-379.0","0","0","5iALM","Scenes","","null","","","null","","","","","","","","","","","","","","","","","","","","","","","","","","","","","","","","","","","","","","","","","","","",""
