"success","ttype","start_time","trial_type","trial_index","time_elapsed","internal_node_id","warning","missed_checkup","PID","stim_type","view_history","rt","responses","category","repeat_instructions","key_press","response","stimulus_id","painting","index","stimulus_left","stimulus_right","explain_trial","reward_type","rating_left","rating_right","painting_left","painting_right","block","left_chosen","chosen_obj","unchosen_obj","explain_response","reward_amount","see_reward_rt","register_reward_response","register_reward_rt","deliberation_reward_tally","stimulus_left_deliberation_ind","stimulus_right_deliberation_ind","chosen_trial","gain_left","higher_outcome_chosen","old_pair","chosen_object","rt_pairs","left_object_chosen","rt_object","old_response","new_rating","deliberated_stim","initial_rating","outcome_eval_rt","outcome_eval_response","outcome_eval_gain","outcome_eval_acc","preamble","outcome_eval_confidence","outcome_eval_confidence_rt","total_reward_tally"
"true","full_screen","d01182023hr1831","fullscreen","0","33121","0.0-0.0","0","0","uNe1z","People","","","","","","","","","","","","","","","","","","","","","","","","","","","","","","","","","","","","","","","","","","","","","","","","","",""
"","rating_instructions","","instructions","1","53088","0.0-1.0-0.0","0","0","uNe1z","People","[{""page_index"":0,""viewing_time"":15137},{""page_index"":1,""viewing_time"":4823}]","19962","","","","","","","","","","","","","","","","","","","","","","","","","","","","","","","","","","","","","","","","","","","","","","","",""
"","","","survey-multi-choice","2","269871","0.0-1.0-1.0","0","0","uNe1z","People","","216781","{""Q0"":""True"",""Q1"":""Mouse""}","rating_comprehension_check","0","","","","","","","","","","","","","","","","","","","","","","","","","","","","","","","","","","","","","","","","","","","","",""
"","start_phase","","html-keyboard-response","3","274367","0.0-2.0","0","0","uNe1z","People","","4492","","","","78","","","","","","","","","","","","","","","","","","","","","","","","","","","","","","","","","","","","","","","","","","","",""
"","rating","","html-slider-response","4","280490","0.0-3.0","0","0","uNe1z","People","","6121","","","","","84","38","petr-sevcovic-HzDF-rxlSeM-unsplash.jpg","0","","","","","","","","","","","","","","","","","","","","","","","","","","","","","","","","","","","","","","","",""
"","rating","","html-slider-response","5","286286","0.0-4.0","0","0","uNe1z","People","","5793","","","","","21","44","rikonavt-HQjfrvdTfak-unsplash.jpg","1","","","","","","","","","","","","","","","","","","","","","","","","","","","","","","","","","","","","","","","",""
"","rating","","html-slider-response","6","294161","0.0-5.0","0","0","uNe1z","People","","7872","","","","","65","37","pavel-anoshin-d0peGya6R5Y-unsplash.jpg","2","","","","","","","","","","","","","","","","","","","","","","","","","","","","","","","","","","","","","","","",""
"","rating","","html-slider-response","7","303571","0.0-6.0","0","0","uNe1z","People","","9408","","","","","75","40","prince-akachi-4Yv84VgQkRM-unsplash.jpg","3","","","","","","","","","","","","","","","","","","","","","","","","","","","","","","","","","","","","","","","",""
"","rating","","html-slider-response","8","318319","0.0-7.0","0","0","uNe1z","People","","14746","","","","","74","8","bruce-dixon-3M9WJQVHzog-unsplash.jpg","4","","","","","","","","","","","","","","","","","","","","","","","","","","","","","","","","","","","","","","","",""
"","rating","","html-slider-response","9","325254","0.0-8.0","0","0","uNe1z","People","","6933","","","","","93","26","juri-gianfrancesco-9EZadYaMzk4-unsplash.jpg","5","","","","","","","","","","","","","","","","","","","","","","","","","","","","","","","","","","","","","","","",""
"","rating","","html-slider-response","10","331036","0.0-9.0","0","0","uNe1z","People","","5779","","","","","63","24","joel-mott-LaK153ghdig-unsplash.jpg","6","","","","","","","","","","","","","","","","","","","","","","","","","","","","","","","","","","","","","","","",""
"","rating","","html-slider-response","11","337226","0.0-10.0","0","0","uNe1z","People","","6187","","","","","100","17","gleb-lukomets-paBzWCPN23k-unsplash.jpg","7","","","","","","","","","","","","","","","","","","","","","","","","","","","","","","","","","","","","","","","",""
"","rating","","html-slider-response","12","343880","0.0-11.0","0","0","uNe1z","People","","6652","","","","","28","14","freddy-kearney-o-ioeoATbIM-unsplash.jpg","8","","","","","","","","","","","","","","","","","","","","","","","","","","","","","","","","","","","","","","","",""
"","rating","","html-slider-response","13","351737","0.0-12.0","0","0","uNe1z","People","","7853","","","","","61","39","philip-martin-5aGUyCW_PJw-unsplash.jpg","9","","","","","","","","","","","","","","","","","","","","","","","","","","","","","","","","","","","","","","","",""
"","rating","","html-slider-response","14","360355","0.0-13.0","0","0","uNe1z","People","","8615","","","","","60","19","ha-nguy-n-OFSQ6bHjFjs-unsplash.jpg","10","","","","","","","","","","","","","","","","","","","","","","","","","","","","","","","","","","","","","","","",""
"","rating","","html-slider-response","15","366489","0.0-14.0","0","0","uNe1z","People","","6132","","","","","81","35","oliver-ragfelt-khV4fTy6-D8-unsplash.jpg","11","","","","","","","","","","","","","","","","","","","","","","","","","","","","","","","","","","","","","","","",""
"","rating","","html-slider-response","16","374724","0.0-15.0","0","0","uNe1z","People","","8233","","","","","89","46","stefan-stefancik-QXevDflbl8A-unsplash.jpg","12","","","","","","","","","","","","","","","","","","","","","","","","","","","","","","","","","","","","","","","",""
"","rating","","html-slider-response","17","397876","0.0-16.0","0","0","uNe1z","People","","23150","","","","","76","43","raamin-ka-0qJBEzudn5E-unsplash.jpg","13","","","","","","","","","","","","","","","","","","","","","","","","","","","","","","","","","","","","","","","",""
"","rating","","html-slider-response","18","404089","0.0-17.0","0","0","uNe1z","People","","6211","","","","","70","27","jurica-koletic-7YVZYZeITc8-unsplash.jpg","14","","","","","","","","","","","","","","","","","","","","","","","","","","","","","","","","","","","","","","","",""
"","rating","","html-slider-response","19","409937","0.0-18.0","0","0","uNe1z","People","","5845","","","","","58","7","brooke-cagle-HRZUzoX1e6w-unsplash.jpg","15","","","","","","","","","","","","","","","","","","","","","","","","","","","","","","","","","","","","","","","",""
"","rating","","html-slider-response","20","423467","0.0-19.0","0","0","uNe1z","People","","13528","","","","","73","12","daniel-rigdon-dXmXKPP2L4E-unsplash.jpg","16","","","","","","","","","","","","","","","","","","","","","","","","","","","","","","","","","","","","","","","",""
"","rating","","html-slider-response","21","433873","0.0-20.0","0","0","uNe1z","People","","10403","","","","","91","48","velizar-ivanov-7ktP9yZA1g4-unsplash.jpg","17","","","","","","","","","","","","","","","","","","","","","","","","","","","","","","","","","","","","","","","",""
"","rating","","html-slider-response","22","447089","0.0-21.0","0","0","uNe1z","People","","13214","","","","","70","15","gabriel-silverio-u3WmDyKGsrY-unsplash.jpg","18","","","","","","","","","","","","","","","","","","","","","","","","","","","","","","","","","","","","","","","",""
"","rating","","html-slider-response","23","453672","0.0-22.0","0","0","uNe1z","People","","6580","","","","","37","0","abstral-official-cyOKLSgkgCE-unsplash.jpg","19","","","","","","","","","","","","","","","","","","","","","","","","","","","","","","","","","","","","","","","",""
"","rating","","html-slider-response","24","461367","0.0-23.0","0","0","uNe1z","People","","7692","","","","","47","20","houcine-ncib-B4TjXnI0Y2c-unsplash.jpg","20","","","","","","","","","","","","","","","","","","","","","","","","","","","","","","","","","","","","","","","",""
"","rating","","html-slider-response","25","499130","0.0-24.0","0","0","uNe1z","People","","37761","","","","","84","25","joseph-gonzalez-iFgRcqHznqg-unsplash.jpg","21","","","","","","","","","","","","","","","","","","","","","","","","","","","","","","","","","","","","","","","",""
"","rating","","html-slider-response","26","507585","0.0-25.0","0","0","uNe1z","People","","8453","","","","","23","41","prince-akachi-i2hoD-C2RUA-unsplash.jpg","22","","","","","","","","","","","","","","","","","","","","","","","","","","","","","","","","","","","","","","","",""
"","rating","","html-slider-response","27","515329","0.0-26.0","0","0","uNe1z","People","","7740","","","","","18","32","nathan-dumlao-ger61_TX6oI-unsplash.jpg","23","","","","","","","","","","","","","","","","","","","","","","","","","","","","","","","","","","","","","","","",""
"","rating","","html-slider-response","28","521732","0.0-27.0","0","0","uNe1z","People","","6401","","","","","60","22","jessica-radanavong-mrYkTuAesKE-unsplash.jpg","24","","","","","","","","","","","","","","","","","","","","","","","","","","","","","","","","","","","","","","","",""
"","rating","","html-slider-response","29","527020","0.0-28.0","0","0","uNe1z","People","","5286","","","","","90","34","oliver-johnson-1TUIcKob7Zs-unsplash.jpg","25","","","","","","","","","","","","","","","","","","","","","","","","","","","","","","","","","","","","","","","",""
"","rating","","html-slider-response","30","533987","0.0-29.0","0","0","uNe1z","People","","6964","","","","","77","29","leilani-angel-K84vnnzxmTQ-unsplash.jpg","26","","","","","","","","","","","","","","","","","","","","","","","","","","","","","","","","","","","","","","","",""
"","rating","","html-slider-response","31","540506","0.0-30.0","0","0","uNe1z","People","","6518","","","","","36","6","ben-o-bro-C5XyLljkMrY-unsplash.jpg","27","","","","","","","","","","","","","","","","","","","","","","","","","","","","","","","","","","","","","","","",""
"","rating","","html-slider-response","32","550257","0.0-31.0","0","0","uNe1z","People","","9749","","","","","81","49","vicky-hladynets-_gDoyVv5F4c-unsplash.jpg","28","","","","","","","","","","","","","","","","","","","","","","","","","","","","","","","","","","","","","","","",""
"","rating","","html-slider-response","33","572245","0.0-32.0","0","0","uNe1z","People","","21986","","","","","83","11","christian-ferrer-8vT-DgHZDG4-unsplash.jpg","29","","","","","","","","","","","","","","","","","","","","","","","","","","","","","","","","","","","","","","","",""
"","rating","","html-slider-response","34","578614","0.0-33.0","0","0","uNe1z","People","","6366","","","","","78","28","justin-chen-J7Cf1Gch49E-unsplash.jpg","30","","","","","","","","","","","","","","","","","","","","","","","","","","","","","","","","","","","","","","","",""
"","rating","","html-slider-response","35","583245","0.0-34.0","0","0","uNe1z","People","","4629","","","","","59","2","arjunsyah-TBUA5KHJn6k-unsplash.jpg","31","","","","","","","","","","","","","","","","","","","","","","","","","","","","","","","","","","","","","","","",""
"","rating","","html-slider-response","36","596850","0.0-35.0","0","0","uNe1z","People","","13602","","","","","71","30","matheus-ferrero-pg_WCHWSdT8-unsplash.jpg","32","","","","","","","","","","","","","","","","","","","","","","","","","","","","","","","","","","","","","","","",""
"","rating","","html-slider-response","37","602167","0.0-36.0","0","0","uNe1z","People","","5315","","","","","23","23","joanna-nix-walkup-H4fEMshfwTE-unsplash.jpg","33","","","","","","","","","","","","","","","","","","","","","","","","","","","","","","","","","","","","","","","",""
"","rating","","html-slider-response","38","607814","0.0-37.0","0","0","uNe1z","People","","5643","","","","","72","1","aiony-haust-jmATI5Q_YgY-unsplash.jpg","34","","","","","","","","","","","","","","","","","","","","","","","","","","","","","","","","","","","","","","","",""
"","rating","","html-slider-response","39","617269","0.0-38.0","0","0","uNe1z","People","","9452","","","","","77","36","ospan-ali-mGdA2fzjWLo-unsplash.jpg","35","","","","","","","","","","","","","","","","","","","","","","","","","","","","","","","","","","","","","","","",""
"","rating","","html-slider-response","40","624341","0.0-39.0","0","0","uNe1z","People","","7069","","","","","63","47","tyler-nix-ZGa9d1a_4tA-unsplash.jpg","36","","","","","","","","","","","","","","","","","","","","","","","","","","","","","","","","","","","","","","","",""
"","rating","","html-slider-response","41","643894","0.0-40.0","0","0","uNe1z","People","","19550","","","","","69","16","giano-currie-5-9YOsmf8IQ-unsplash.jpg","37","","","","","","","","","","","","","","","","","","","","","","","","","","","","","","","","","","","","","","","",""
"","rating","","html-slider-response","42","650568","0.0-41.0","0","0","uNe1z","People","","6671","","","","","20","18","good-faces-xmSWVeGEnJw-unsplash.jpg","38","","","","","","","","","","","","","","","","","","","","","","","","","","","","","","","","","","","","","","","",""
"","rating","","html-slider-response","43","655419","0.0-42.0","0","0","uNe1z","People","","4849","","","","","20","21","jessica-felicio-_cvwXhGqG-o-unsplash.jpg","39","","","","","","","","","","","","","","","","","","","","","","","","","","","","","","","","","","","","","","","",""
"","rating","","html-slider-response","44","663182","0.0-43.0","0","0","uNe1z","People","","7761","","","","","19","33","olena-sergienko-0TSd6uCKTKc-unsplash.jpg","40","","","","","","","","","","","","","","","","","","","","","","","","","","","","","","","","","","","","","","","",""
"","rating","","html-slider-response","45","676988","0.0-44.0","0","0","uNe1z","People","","13802","","","","","40","5","batel-studio-ttSRjiYG_WM-unsplash.jpg","41","","","","","","","","","","","","","","","","","","","","","","","","","","","","","","","","","","","","","","","",""
"","rating","","html-slider-response","46","683919","0.0-45.0","0","0","uNe1z","People","","6928","","","","","77","9","carlos-andres-gomez-vJuk8Y86mRw-unsplash.jpg","42","","","","","","","","","","","","","","","","","","","","","","","","","","","","","","","","","","","","","","","",""
"","rating","","html-slider-response","47","703512","0.0-46.0","0","0","uNe1z","People","","19591","","","","","42","10","charles-etoroma-95UF6LXe-Lo-unsplash.jpg","43","","","","","","","","","","","","","","","","","","","","","","","","","","","","","","","","","","","","","","","",""
"","rating","","html-slider-response","48","708924","0.0-47.0","0","0","uNe1z","People","","5410","","","","","80","45","sarah-noltner-pL5ZzPp1zqg-unsplash.jpg","44","","","","","","","","","","","","","","","","","","","","","","","","","","","","","","","","","","","","","","","",""
"","rating","","html-slider-response","49","716096","0.0-48.0","0","0","uNe1z","People","","7170","","","","","36","42","prince-akachi-l3IHXOdMyHQ-unsplash.jpg","45","","","","","","","","","","","","","","","","","","","","","","","","","","","","","","","","","","","","","","","",""
"","rating","","html-slider-response","50","722802","0.0-49.0","0","0","uNe1z","People","","6704","","","","","56","4","barna-bartis-2x3vfVxwR7o-unsplash.jpg","46","","","","","","","","","","","","","","","","","","","","","","","","","","","","","","","","","","","","","","","",""
"","rating","","html-slider-response","51","727759","0.0-50.0","0","0","uNe1z","People","","4953","","","","","82","3","art-hauntington-jzY0KRJopEI-unsplash.jpg","47","","","","","","","","","","","","","","","","","","","","","","","","","","","","","","","","","","","","","","","",""
"","rating","","html-slider-response","52","751721","0.0-51.0","0","0","uNe1z","People","","23960","","","","","35","31","mathilda-khoo-vLR0YP_otCo-unsplash.jpg","48","","","","","","","","","","","","","","","","","","","","","","","","","","","","","","","","","","","","","","","",""
"","rating","","html-slider-response","53","757752","0.0-52.0","0","0","uNe1z","People","","6029","","","","","69","13","erik-lucatero-d2MSDujJl2g-unsplash.jpg","49","","","","","","","","","","","","","","","","","","","","","","","","","","","","","","","","","","","","","","","",""
"","deliberation_instructions","","instructions","54","913939","0.0-53.0-0.0","0","0","uNe1z","People","[{""page_index"":0,""viewing_time"":94019},{""page_index"":1,""viewing_time"":11294},{""page_index"":2,""viewing_time"":8906},{""page_index"":3,""viewing_time"":39418},{""page_index"":4,""viewing_time"":2545}]","156183","","","","","","","","","","","","","","","","","","","","","","","","","","","","","","","","","","","","","","","","","","","","","","","",""
"","","","survey-multi-choice","55","976016","0.0-53.0-1.0","0","0","uNe1z","People","","62070","{""Q0"":""True"",""Q1"":""True"",""Q2"":""Consider carefully and take your time (up to 10 seconds)"",""Q3"":""True"",""Q4"":""D""}","deliberation_comprehension_check","0","","","","","","","","","","","","","","","","","","","","","","","","","","","","","","","","","","","","","","","","","","","","",""
"","start_phase","","html-keyboard-response","56","980139","0.0-54.0","0","0","uNe1z","People","","4121","","","","78","","","","","","","","","","","","","","","","","","","","","","","","","","","","","","","","","","","","","","","","","","","",""
"","first_deliberation_block","","html-keyboard-response","57","988124","0.0-55.0","0","0","uNe1z","People","","7975","","","","78","","","","","","","","","","","","","","","","","","","","","","","","","","","","","","","","","","","","","","","","","","","",""
"","fixation","","html-keyboard-response","58","989137","0.0-56.0-0.0","0","0","uNe1z","People","","null","","","","null","","","","","","","","","","","","","","","","","","","","","","","","","","","","","","","","","","","","","","","","","","","",""
"","deliberation","","html-keyboard-response","59","990771","0.0-56.0-1.0","0","0","uNe1z","People","","1623","","","","68","","","","0","24","30","0","-1","63","71","joel-mott-LaK153ghdig-unsplash.jpg","matheus-ferrero-pg_WCHWSdT8-unsplash.jpg","1","1","24","30","","","","","","","","","","","","","","","","","","","","","","","","","","","",""
"","choice_confirmation","","html-keyboard-response","60","991274","0.0-56.0-2.0-0.0","0","0","uNe1z","People","","null","","","","null","","","","0","24","30","","","","","","","","","","","","","","","","","","","","","","","","","","","","","","","","","","","","","",""
"","fixation","","html-keyboard-response","61","992283","0.0-57.0-0.0","0","0","uNe1z","People","","null","","","","null","","","","","","","","","","","","","","","","","","","","","","","","","","","","","","","","","","","","","","","","","","","",""
"","deliberation","","html-keyboard-response","62","993824","0.0-57.0-1.0","0","0","uNe1z","People","","1539","","","","75","","","","1","47","43","1","1","63","76","tyler-nix-ZGa9d1a_4tA-unsplash.jpg","raamin-ka-0qJBEzudn5E-unsplash.jpg","1","0","43","47","","","","","","","","","","","","","","","","","","","","","","","","","","","",""
"","choice_confirmation","","html-keyboard-response","63","994340","0.0-57.0-2.0-0.0","0","0","uNe1z","People","","null","","","","null","","","","1","47","43","","","","","","","","","","","","","","","","","","","","","","","","","","","","","","","","","","","","","",""
"","explain_trial","","survey-text","64","1052481","0.0-57.0-5.0-0.0","0","0","uNe1z","People","","58137","{""Q0"":""because this photo look beautiful""}","","","","","","","1","47","43","","","","","","","","","","","{""Q0"":""because this photo look beautiful""}","","","","","","","","","","","","","","","","","","","","","","","","","","",""
"","fixation","","html-keyboard-response","65","1053482","0.0-58.0-0.0","0","0","uNe1z","People","","null","","","","null","","","","","","","","","","","","","","","","","","","","","","","","","","","","","","","","","","","","","","","","","","","",""
"","deliberation","","html-keyboard-response","66","1055305","0.0-58.0-1.0","0","0","uNe1z","People","","1821","","","","68","","","","2","29","10","1","-1","77","42","leilani-angel-K84vnnzxmTQ-unsplash.jpg","charles-etoroma-95UF6LXe-Lo-unsplash.jpg","1","1","29","10","","","","","","","","","","","","","","","","","","","","","","","","","","","",""
"","choice_confirmation","","html-keyboard-response","67","1055811","0.0-58.0-2.0-0.0","0","0","uNe1z","People","","null","","","","null","","","","2","29","10","","","","","","","","","","","","","","","","","","","","","","","","","","","","","","","","","","","","","",""
"","explain_trial","","survey-text","68","1096019","0.0-58.0-5.0-0.0","0","0","uNe1z","People","","40206","{""Q0"":""this photo is look smart""}","","","","","","","2","29","10","","","","","","","","","","","{""Q0"":""this photo is look smart""}","","","","","","","","","","","","","","","","","","","","","","","","","","",""
"","fixation","","html-keyboard-response","69","1097034","0.0-59.0-0.0","0","0","uNe1z","People","","null","","","","null","","","","","","","","","","","","","","","","","","","","","","","","","","","","","","","","","","","","","","","","","","","",""
"","deliberation","","html-keyboard-response","70","1101686","0.0-59.0-1.0","0","0","uNe1z","People","","4650","","","","68","","","","3","40","19","1","-1","75","60","prince-akachi-4Yv84VgQkRM-unsplash.jpg","ha-nguy-n-OFSQ6bHjFjs-unsplash.jpg","1","1","40","19","","","","","","","","","","","","","","","","","","","","","","","","","","","",""
"","choice_confirmation","","html-keyboard-response","71","1102200","0.0-59.0-2.0-0.0","0","0","uNe1z","People","","null","","","","null","","","","3","40","19","","","","","","","","","","","","","","","","","","","","","","","","","","","","","","","","","","","","","",""
"","explain_trial","","survey-text","72","1138645","0.0-59.0-5.0-0.0","0","0","uNe1z","People","","36442","{""Q0"":""the photo was so nice style ""}","","","","","","","3","40","19","","","","","","","","","","","{""Q0"":""the photo was so nice style ""}","","","","","","","","","","","","","","","","","","","","","","","","","","",""
"","fixation","","html-keyboard-response","73","1139651","0.0-60.0-0.0","0","0","uNe1z","People","","null","","","","null","","","","","","","","","","","","","","","","","","","","","","","","","","","","","","","","","","","","","","","","","","","",""
"","deliberation","","html-keyboard-response","74","1142549","0.0-60.0-1.0","0","0","uNe1z","People","","2896","","","","68","","","","4","4","22","0","-1","56","60","barna-bartis-2x3vfVxwR7o-unsplash.jpg","jessica-radanavong-mrYkTuAesKE-unsplash.jpg","1","1","4","22","","","","","","","","","","","","","","","","","","","","","","","","","","","",""
"","choice_confirmation","","html-keyboard-response","75","1143052","0.0-60.0-2.0-0.0","0","0","uNe1z","People","","null","","","","null","","","","4","4","22","","","","","","","","","","","","","","","","","","","","","","","","","","","","","","","","","","","","","",""
"","fixation","","html-keyboard-response","76","1144064","0.0-61.0-0.0","0","0","uNe1z","People","","null","","","","null","","","","","","","","","","","","","","","","","","","","","","","","","","","","","","","","","","","","","","","","","","","",""
"","deliberation","","html-keyboard-response","77","1147431","0.0-61.0-1.0","0","0","uNe1z","People","","3354","","","","68","","","","5","1","9","0","-1","72","77","aiony-haust-jmATI5Q_YgY-unsplash.jpg","carlos-andres-gomez-vJuk8Y86mRw-unsplash.jpg","1","1","1","9","","","","","","","","","","","","","","","","","","","","","","","","","","","",""
"","choice_confirmation","","html-keyboard-response","78","1147935","0.0-61.0-2.0-0.0","0","0","uNe1z","People","","null","","","","null","","","","5","1","9","","","","","","","","","","","","","","","","","","","","","","","","","","","","","","","","","","","","","",""
"","fixation","","html-keyboard-response","79","1148960","0.0-62.0-0.0","0","0","uNe1z","People","","null","","","","null","","","","","","","","","","","","","","","","","","","","","","","","","","","","","","","","","","","","","","","","","","","",""
"","deliberation","","html-keyboard-response","80","1150961","0.0-62.0-1.0","0","0","uNe1z","People","","1988","","","","68","","","","6","27","2","0","1","70","59","jurica-koletic-7YVZYZeITc8-unsplash.jpg","arjunsyah-TBUA5KHJn6k-unsplash.jpg","1","1","27","2","","","","","","","","","","","","","","","","","","","","","","","","","","","",""
"","choice_confirmation","","html-keyboard-response","81","1151466","0.0-62.0-2.0-0.0","0","0","uNe1z","People","","null","","","","null","","","","6","27","2","","","","","","","","","","","","","","","","","","","","","","","","","","","","","","","","","","","","","",""
"","fixation","","html-keyboard-response","82","1152483","0.0-63.0-0.0","0","0","uNe1z","People","","null","","","","null","","","","","","","","","","","","","","","","","","","","","","","","","","","","","","","","","","","","","","","","","","","",""
"","deliberation","","html-keyboard-response","83","1155287","0.0-63.0-1.0","0","0","uNe1z","People","","2793","","","","68","","","","7","15","8","0","1","70","74","gabriel-silverio-u3WmDyKGsrY-unsplash.jpg","bruce-dixon-3M9WJQVHzog-unsplash.jpg","1","1","15","8","","","","","","","","","","","","","","","","","","","","","","","","","","","",""
"","choice_confirmation","","html-keyboard-response","84","1155795","0.0-63.0-2.0-0.0","0","0","uNe1z","People","","null","","","","null","","","","7","15","8","","","","","","","","","","","","","","","","","","","","","","","","","","","","","","","","","","","","","",""
"","fixation","","html-keyboard-response","85","1156810","0.0-64.0-0.0","0","0","uNe1z","People","","null","","","","null","","","","","","","","","","","","","","","","","","","","","","","","","","","","","","","","","","","","","","","","","","","",""
"","deliberation","","html-keyboard-response","86","1159422","0.0-64.0-1.0","0","0","uNe1z","People","","2610","","","","68","","","","8","39","20","1","1","61","47","philip-martin-5aGUyCW_PJw-unsplash.jpg","houcine-ncib-B4TjXnI0Y2c-unsplash.jpg","1","1","39","20","","","","","","","","","","","","","","","","","","","","","","","","","","","",""
"","choice_confirmation","","html-keyboard-response","87","1159923","0.0-64.0-2.0-0.0","0","0","uNe1z","People","","null","","","","null","","","","8","39","20","","","","","","","","","","","","","","","","","","","","","","","","","","","","","","","","","","","","","",""
"","explain_trial","","survey-text","88","1179582","0.0-64.0-5.0-0.0","0","0","uNe1z","People","","19655","{""Q0"":""the photo look like the nature""}","","","","","","","8","39","20","","","","","","","","","","","{""Q0"":""the photo look like the nature""}","","","","","","","","","","","","","","","","","","","","","","","","","","",""
"","fixation","","html-keyboard-response","89","1180621","0.0-65.0-0.0","0","0","uNe1z","People","","null","","","","null","","","","","","","","","","","","","","","","","","","","","","","","","","","","","","","","","","","","","","","","","","","",""
"","deliberation","","html-keyboard-response","90","1183049","0.0-65.0-1.0","0","0","uNe1z","People","","2425","","","","68","","","","9","7","37","0","1","58","65","brooke-cagle-HRZUzoX1e6w-unsplash.jpg","pavel-anoshin-d0peGya6R5Y-unsplash.jpg","1","1","7","37","","","","","","","","","","","","","","","","","","","","","","","","","","","",""
"","choice_confirmation","","html-keyboard-response","91","1183562","0.0-65.0-2.0-0.0","0","0","uNe1z","People","","null","","","","null","","","","9","7","37","","","","","","","","","","","","","","","","","","","","","","","","","","","","","","","","","","","","","",""
"","fixation","","html-keyboard-response","92","1184576","0.0-66.0-0.0","0","0","uNe1z","People","","null","","","","null","","","","","","","","","","","","","","","","","","","","","","","","","","","","","","","","","","","","","","","","","","","",""
"","deliberation","","html-keyboard-response","93","1186515","0.0-66.0-1.0","0","0","uNe1z","People","","1936","","","","68","","","","10","36","16","1","-1","77","69","ospan-ali-mGdA2fzjWLo-unsplash.jpg","giano-currie-5-9YOsmf8IQ-unsplash.jpg","1","1","36","16","","","","","","","","","","","","","","","","","","","","","","","","","","","",""
"","choice_confirmation","","html-keyboard-response","94","1187029","0.0-66.0-2.0-0.0","0","0","uNe1z","People","","null","","","","null","","","","10","36","16","","","","","","","","","","","","","","","","","","","","","","","","","","","","","","","","","","","","","",""
"","explain_trial","","survey-text","95","1209212","0.0-66.0-5.0-0.0","0","0","uNe1z","People","","22181","{""Q0"":""this photo is good tradition ""}","","","","","","","10","36","16","","","","","","","","","","","{""Q0"":""this photo is good tradition ""}","","","","","","","","","","","","","","","","","","","","","","","","","","",""
"","fixation","","html-keyboard-response","96","1210243","0.0-67.0-0.0","0","0","uNe1z","People","","null","","","","null","","","","","","","","","","","","","","","","","","","","","","","","","","","","","","","","","","","","","","","","","","","",""
"","deliberation","","html-keyboard-response","97","1211816","0.0-67.0-1.0","0","0","uNe1z","People","","1571","","","","68","","","","11","12","13","1","1","73","69","daniel-rigdon-dXmXKPP2L4E-unsplash.jpg","erik-lucatero-d2MSDujJl2g-unsplash.jpg","1","1","12","13","","","","","","","","","","","","","","","","","","","","","","","","","","","",""
"","choice_confirmation","","html-keyboard-response","98","1212326","0.0-67.0-2.0-0.0","0","0","uNe1z","People","","null","","","","null","","","","11","12","13","","","","","","","","","","","","","","","","","","","","","","","","","","","","","","","","","","","","","",""
"","explain_trial","","survey-text","99","1237711","0.0-67.0-5.0-0.0","0","0","uNe1z","People","","25383","{""Q0"":""this photo look was so gorgeous ""}","","","","","","","11","12","13","","","","","","","","","","","{""Q0"":""this photo look was so gorgeous ""}","","","","","","","","","","","","","","","","","","","","","","","","","","",""
"","practice_deliberation_again","","html-keyboard-response","100","1239804","0.0-67.0-6.0-0.0","0","0","uNe1z","People","","2090","","","","78","","","","","","","","","","","","","","","","","","","","","","","","","","","","","","","","","","","","","","","","","","","",""
"","fixation","","html-keyboard-response","101","1240826","0.0-68.0-0.0","0","0","uNe1z","People","","null","","","","null","","","","","","","","","","","","","","","","","","","","","","","","","","","","","","","","","","","","","","","","","","","",""
"","deliberation","","html-keyboard-response","102","1243441","0.0-68.0-1.0","0","0","uNe1z","People","","2606","","","","68","","","","12","39","20","0","1","61","47","philip-martin-5aGUyCW_PJw-unsplash.jpg","houcine-ncib-B4TjXnI0Y2c-unsplash.jpg","2","1","39","20","","","","","","","","","","","","","","","","","","","","","","","","","","","",""
"","choice_confirmation","","html-keyboard-response","103","1243949","0.0-68.0-2.0-0.0","0","0","uNe1z","People","","null","","","","null","","","","12","39","20","","","","","","","","","","","","","","","","","","","","","","","","","","","","","","","","","","","","","",""
"","fixation","","html-keyboard-response","104","1244965","0.0-69.0-0.0","0","0","uNe1z","People","","null","","","","null","","","","","","","","","","","","","","","","","","","","","","","","","","","","","","","","","","","","","","","","","","","",""
"","deliberation","","html-keyboard-response","105","1246511","0.0-69.0-1.0","0","0","uNe1z","People","","1530","","","","68","","","","13","7","37","1","1","58","65","brooke-cagle-HRZUzoX1e6w-unsplash.jpg","pavel-anoshin-d0peGya6R5Y-unsplash.jpg","2","1","7","37","","","","","","","","","","","","","","","","","","","","","","","","","","","",""
"","choice_confirmation","","html-keyboard-response","106","1247014","0.0-69.0-2.0-0.0","0","0","uNe1z","People","","null","","","","null","","","","13","7","37","","","","","","","","","","","","","","","","","","","","","","","","","","","","","","","","","","","","","",""
"","explain_trial","","survey-text","107","1274574","0.0-69.0-5.0-0.0","0","0","uNe1z","People","","27557","{""Q0"":""this photo is look better then other ""}","","","","","","","13","7","37","","","","","","","","","","","{""Q0"":""this photo is look better then other ""}","","","","","","","","","","","","","","","","","","","","","","","","","","",""
"","fixation","","html-keyboard-response","108","1275582","0.0-70.0-0.0","0","0","uNe1z","People","","null","","","","null","","","","","","","","","","","","","","","","","","","","","","","","","","","","","","","","","","","","","","","","","","","",""
"","deliberation","","html-keyboard-response","109","1277472","0.0-70.0-1.0","0","0","uNe1z","People","","1889","","","","68","","","","14","47","43","0","1","63","76","tyler-nix-ZGa9d1a_4tA-unsplash.jpg","raamin-ka-0qJBEzudn5E-unsplash.jpg","2","1","47","43","","","","","","","","","","","","","","","","","","","","","","","","","","","",""
"","choice_confirmation","","html-keyboard-response","110","1277979","0.0-70.0-2.0-0.0","0","0","uNe1z","People","","null","","","","null","","","","14","47","43","","","","","","","","","","","","","","","","","","","","","","","","","","","","","","","","","","","","","",""
"","fixation","","html-keyboard-response","111","1278987","0.0-71.0-0.0","0","0","uNe1z","People","","null","","","","null","","","","","","","","","","","","","","","","","","","","","","","","","","","","","","","","","","","","","","","","","","","",""
"","deliberation","","html-keyboard-response","112","1280256","0.0-71.0-1.0","0","0","uNe1z","People","","1260","","","","68","","","","15","4","22","1","-1","56","60","barna-bartis-2x3vfVxwR7o-unsplash.jpg","jessica-radanavong-mrYkTuAesKE-unsplash.jpg","2","1","4","22","","","","","","","","","","","","","","","","","","","","","","","","","","","",""
"","choice_confirmation","","html-keyboard-response","113","1280762","0.0-71.0-2.0-0.0","0","0","uNe1z","People","","null","","","","null","","","","15","4","22","","","","","","","","","","","","","","","","","","","","","","","","","","","","","","","","","","","","","",""
"","explain_trial","","survey-text","114","1298753","0.0-71.0-5.0-0.0","0","0","uNe1z","People","","17989","{""Q0"":""his look like to smart ""}","","","","","","","15","4","22","","","","","","","","","","","{""Q0"":""his look like to smart ""}","","","","","","","","","","","","","","","","","","","","","","","","","","",""
"","fixation","","html-keyboard-response","115","1299758","0.0-72.0-0.0","0","0","uNe1z","People","","null","","","","null","","","","","","","","","","","","","","","","","","","","","","","","","","","","","","","","","","","","","","","","","","","",""
"","deliberation","","html-keyboard-response","116","1304332","0.0-72.0-1.0","0","0","uNe1z","People","","4571","","","","75","","","","16","40","19","0","-1","75","60","prince-akachi-4Yv84VgQkRM-unsplash.jpg","ha-nguy-n-OFSQ6bHjFjs-unsplash.jpg","2","0","19","40","","","","","","","","","","","","","","","","","","","","","","","","","","","",""
"","choice_confirmation","","html-keyboard-response","117","1304849","0.0-72.0-2.0-0.0","0","0","uNe1z","People","","null","","","","null","","","","16","40","19","","","","","","","","","","","","","","","","","","","","","","","","","","","","","","","","","","","","","",""
"","fixation","","html-keyboard-response","118","1305860","0.0-73.0-0.0","0","0","uNe1z","People","","null","","","","null","","","","","","","","","","","","","","","","","","","","","","","","","","","","","","","","","","","","","","","","","","","",""
"","deliberation","","html-keyboard-response","119","1308127","0.0-73.0-1.0","0","0","uNe1z","People","","2260","","","","75","","","","17","36","16","0","-1","77","69","ospan-ali-mGdA2fzjWLo-unsplash.jpg","giano-currie-5-9YOsmf8IQ-unsplash.jpg","2","0","16","36","","","","","","","","","","","","","","","","","","","","","","","","","","","",""
"","choice_confirmation","","html-keyboard-response","120","1308639","0.0-73.0-2.0-0.0","0","0","uNe1z","People","","null","","","","null","","","","17","36","16","","","","","","","","","","","","","","","","","","","","","","","","","","","","","","","","","","","","","",""
"","fixation","","html-keyboard-response","121","1309655","0.0-74.0-0.0","0","0","uNe1z","People","","null","","","","null","","","","","","","","","","","","","","","","","","","","","","","","","","","","","","","","","","","","","","","","","","","",""
"","deliberation","","html-keyboard-response","122","1311816","0.0-74.0-1.0","0","0","uNe1z","People","","2154","","","","68","","","","18","27","2","1","1","70","59","jurica-koletic-7YVZYZeITc8-unsplash.jpg","arjunsyah-TBUA5KHJn6k-unsplash.jpg","2","1","27","2","","","","","","","","","","","","","","","","","","","","","","","","","","","",""
"","choice_confirmation","","html-keyboard-response","123","1312326","0.0-74.0-2.0-0.0","0","0","uNe1z","People","","null","","","","null","","","","18","27","2","","","","","","","","","","","","","","","","","","","","","","","","","","","","","","","","","","","","","",""
"","explain_trial","","survey-text","124","1328524","0.0-74.0-5.0-0.0","0","0","uNe1z","People","","16196","{""Q0"":""this photo was so good ""}","","","","","","","18","27","2","","","","","","","","","","","{""Q0"":""this photo was so good ""}","","","","","","","","","","","","","","","","","","","","","","","","","","",""
"","fixation","","html-keyboard-response","125","1329531","0.0-75.0-0.0","0","0","uNe1z","People","","null","","","","null","","","","","","","","","","","","","","","","","","","","","","","","","","","","","","","","","","","","","","","","","","","",""
"","deliberation","","html-keyboard-response","126","1332861","0.0-75.0-1.0","0","0","uNe1z","People","","3325","","","","75","","","","19","29","10","0","-1","77","42","leilani-angel-K84vnnzxmTQ-unsplash.jpg","charles-etoroma-95UF6LXe-Lo-unsplash.jpg","2","0","10","29","","","","","","","","","","","","","","","","","","","","","","","","","","","",""
"","choice_confirmation","","html-keyboard-response","127","1333380","0.0-75.0-2.0-0.0","0","0","uNe1z","People","","null","","","","null","","","","19","29","10","","","","","","","","","","","","","","","","","","","","","","","","","","","","","","","","","","","","","",""
"","fixation","","html-keyboard-response","128","1334388","0.0-76.0-0.0","0","0","uNe1z","People","","null","","","","null","","","","","","","","","","","","","","","","","","","","","","","","","","","","","","","","","","","","","","","","","","","",""
"","deliberation","","html-keyboard-response","129","1338104","0.0-76.0-1.0","0","0","uNe1z","People","","3705","","","","68","","","","20","1","9","1","-1","72","77","aiony-haust-jmATI5Q_YgY-unsplash.jpg","carlos-andres-gomez-vJuk8Y86mRw-unsplash.jpg","2","1","1","9","","","","","","","","","","","","","","","","","","","","","","","","","","","",""
"","choice_confirmation","","html-keyboard-response","130","1338608","0.0-76.0-2.0-0.0","0","0","uNe1z","People","","null","","","","null","","","","20","1","9","","","","","","","","","","","","","","","","","","","","","","","","","","","","","","","","","","","","","",""
"","explain_trial","","survey-text","131","1361518","0.0-76.0-5.0-0.0","0","0","uNe1z","People","","22907","{""Q0"":""this girl was beautiful to look the image""}","","","","","","","20","1","9","","","","","","","","","","","{""Q0"":""this girl was beautiful to look the image""}","","","","","","","","","","","","","","","","","","","","","","","","","","",""
"","fixation","","html-keyboard-response","132","1362524","0.0-77.0-0.0","0","0","uNe1z","People","","null","","","","null","","","","","","","","","","","","","","","","","","","","","","","","","","","","","","","","","","","","","","","","","","","",""
"","deliberation","","html-keyboard-response","133","1365122","0.0-77.0-1.0","0","0","uNe1z","People","","2595","","","","75","","","","21","12","13","0","1","73","69","daniel-rigdon-dXmXKPP2L4E-unsplash.jpg","erik-lucatero-d2MSDujJl2g-unsplash.jpg","2","0","13","12","","","","","","","","","","","","","","","","","","","","","","","","","","","",""
"","choice_confirmation","","html-keyboard-response","134","1365639","0.0-77.0-2.0-0.0","0","0","uNe1z","People","","null","","","","null","","","","21","12","13","","","","","","","","","","","","","","","","","","","","","","","","","","","","","","","","","","","","","",""
"","fixation","","html-keyboard-response","135","1366654","0.0-78.0-0.0","0","0","uNe1z","People","","null","","","","null","","","","","","","","","","","","","","","","","","","","","","","","","","","","","","","","","","","","","","","","","","","",""
"","deliberation","","html-keyboard-response","136","1368416","0.0-78.0-1.0","0","0","uNe1z","People","","1749","","","","75","","","","22","15","8","1","1","70","74","gabriel-silverio-u3WmDyKGsrY-unsplash.jpg","bruce-dixon-3M9WJQVHzog-unsplash.jpg","2","0","8","15","","","","","","","","","","","","","","","","","","","","","","","","","","","",""
"","choice_confirmation","","html-keyboard-response","137","1368923","0.0-78.0-2.0-0.0","0","0","uNe1z","People","","null","","","","null","","","","22","15","8","","","","","","","","","","","","","","","","","","","","","","","","","","","","","","","","","","","","","",""
"","explain_trial","","survey-text","138","1383283","0.0-78.0-5.0-0.0","0","0","uNe1z","People","","14356","{""Q0"":""this photo is smart look ""}","","","","","","","22","15","8","","","","","","","","","","","{""Q0"":""this photo is smart look ""}","","","","","","","","","","","","","","","","","","","","","","","","","","",""
"","fixation","","html-keyboard-response","139","1384294","0.0-79.0-0.0","0","0","uNe1z","People","","null","","","","null","","","","","","","","","","","","","","","","","","","","","","","","","","","","","","","","","","","","","","","","","","","",""
"","deliberation","","html-keyboard-response","140","1386947","0.0-79.0-1.0","0","0","uNe1z","People","","2651","","","","68","","","","23","24","30","1","-1","63","71","joel-mott-LaK153ghdig-unsplash.jpg","matheus-ferrero-pg_WCHWSdT8-unsplash.jpg","2","1","24","30","","","","","","","","","","","","","","","","","","","","","","","","","","","",""
"","choice_confirmation","","html-keyboard-response","141","1387452","0.0-79.0-2.0-0.0","0","0","uNe1z","People","","null","","","","null","","","","23","24","30","","","","","","","","","","","","","","","","","","","","","","","","","","","","","","","","","","","","","",""
"","explain_trial","","survey-text","142","1408116","0.0-79.0-5.0-0.0","0","0","uNe1z","People","","20660","{""Q0"":""i like the smile of the image ""}","","","","","","","23","24","30","","","","","","","","","","","{""Q0"":""i like the smile of the image ""}","","","","","","","","","","","","","","","","","","","","","","","","","","",""
"","start_critical_deliberation_block","","html-keyboard-response","143","1410301","0.0-79.0-7.0-0.0","0","0","uNe1z","People","","2183","","","","78","","","","","","","","","","","","","","","","","","","","","","","","","","","","","","","","","","","","","","","","","","","",""
"","fixation","","html-keyboard-response","144","1411308","0.0-80.0-0.0","0","0","uNe1z","People","","null","","","","null","","","","","","","","","","","","","","","","","","","","","","","","","","","","","","","","","","","","","","","","","","","",""
"","deliberation","","html-keyboard-response","145","1413762","0.0-80.0-1.0","0","0","uNe1z","People","","2437","","","","68","","","","24","47","43","0","1","63","76","tyler-nix-ZGa9d1a_4tA-unsplash.jpg","raamin-ka-0qJBEzudn5E-unsplash.jpg","3","1","47","43","","","","","","","","","","","","","","","","","","","","","","","","","","","",""
"","choice_confirmation","","html-keyboard-response","146","1414277","0.0-80.0-2.0-0.0","0","0","uNe1z","People","","null","","","","null","","","","24","47","43","","","","","","","","","","","","","","","","","","","","","","","","","","","","","","","","","","","","","",""
"","fixation","","html-keyboard-response","147","1415295","0.0-81.0-0.0","0","0","uNe1z","People","","null","","","","null","","","","","","","","","","","","","","","","","","","","","","","","","","","","","","","","","","","","","","","","","","","",""
"","deliberation","","html-keyboard-response","148","1417804","0.0-81.0-1.0","0","0","uNe1z","People","","2496","","","","75","","","","25","36","16","0","-1","77","69","ospan-ali-mGdA2fzjWLo-unsplash.jpg","giano-currie-5-9YOsmf8IQ-unsplash.jpg","3","0","16","36","","","","","","","","","","","","","","","","","","","","","","","","","","","",""
"","choice_confirmation","","html-keyboard-response","149","1418308","0.0-81.0-2.0-0.0","0","0","uNe1z","People","","null","","","","null","","","","25","36","16","","","","","","","","","","","","","","","","","","","","","","","","","","","","","","","","","","","","","",""
"","fixation","","html-keyboard-response","150","1419321","0.0-82.0-0.0","0","0","uNe1z","People","","null","","","","null","","","","","","","","","","","","","","","","","","","","","","","","","","","","","","","","","","","","","","","","","","","",""
"","deliberation","","html-keyboard-response","151","1421673","0.0-82.0-1.0","0","0","uNe1z","People","","2350","","","","68","","","","26","15","8","0","1","70","74","gabriel-silverio-u3WmDyKGsrY-unsplash.jpg","bruce-dixon-3M9WJQVHzog-unsplash.jpg","3","1","15","8","","","","","","","","","","","","","","","","","","","","","","","","","","","",""
"","choice_confirmation","","html-keyboard-response","152","1422183","0.0-82.0-2.0-0.0","0","0","uNe1z","People","","null","","","","null","","","","26","15","8","","","","","","","","","","","","","","","","","","","","","","","","","","","","","","","","","","","","","",""
"","fixation","","html-keyboard-response","153","1423188","0.0-83.0-0.0","0","0","uNe1z","People","","null","","","","null","","","","","","","","","","","","","","","","","","","","","","","","","","","","","","","","","","","","","","","","","","","",""
"","deliberation","","html-keyboard-response","154","1424748","0.0-83.0-1.0","0","0","uNe1z","People","","1559","","","","75","","","","27","24","30","0","-1","63","71","joel-mott-LaK153ghdig-unsplash.jpg","matheus-ferrero-pg_WCHWSdT8-unsplash.jpg","3","0","30","24","","","","","","","","","","","","","","","","","","","","","","","","","","","",""
"","choice_confirmation","","html-keyboard-response","155","1425302","0.0-83.0-2.0-0.0","0","0","uNe1z","People","","null","","","","null","","","","27","24","30","","","","","","","","","","","","","","","","","","","","","","","","","","","","","","","","","","","","","",""
"","fixation","","html-keyboard-response","156","1426313","0.0-84.0-0.0","0","0","uNe1z","People","","null","","","","null","","","","","","","","","","","","","","","","","","","","","","","","","","","","","","","","","","","","","","","","","","","",""
"","deliberation","","html-keyboard-response","157","1428398","0.0-84.0-1.0","0","0","uNe1z","People","","2075","","","","68","","","","28","39","20","0","1","61","47","philip-martin-5aGUyCW_PJw-unsplash.jpg","houcine-ncib-B4TjXnI0Y2c-unsplash.jpg","3","1","39","20","","","","","","","","","","","","","","","","","","","","","","","","","","","",""
"","choice_confirmation","","html-keyboard-response","158","1428983","0.0-84.0-2.0-0.0","0","0","uNe1z","People","","null","","","","null","","","","28","39","20","","","","","","","","","","","","","","","","","","","","","","","","","","","","","","","","","","","","","",""
"","fixation","","html-keyboard-response","159","1430004","0.0-85.0-0.0","0","0","uNe1z","People","","null","","","","null","","","","","","","","","","","","","","","","","","","","","","","","","","","","","","","","","","","","","","","","","","","",""
"","deliberation","","html-keyboard-response","160","1431563","0.0-85.0-1.0","0","0","uNe1z","People","","1555","","","","75","","","","29","12","13","0","1","73","69","daniel-rigdon-dXmXKPP2L4E-unsplash.jpg","erik-lucatero-d2MSDujJl2g-unsplash.jpg","3","0","13","12","","","","","","","","","","","","","","","","","","","","","","","","","","","",""
"","choice_confirmation","","html-keyboard-response","161","1432077","0.0-85.0-2.0-0.0","0","0","uNe1z","People","","null","","","","null","","","","29","12","13","","","","","","","","","","","","","","","","","","","","","","","","","","","","","","","","","","","","","",""
"","fixation","","html-keyboard-response","162","1433090","0.0-86.0-0.0","0","0","uNe1z","People","","null","","","","null","","","","","","","","","","","","","","","","","","","","","","","","","","","","","","","","","","","","","","","","","","","",""
"","deliberation","","html-keyboard-response","163","1435029","0.0-86.0-1.0","0","0","uNe1z","People","","1922","","","","75","","","","30","29","10","0","-1","77","42","leilani-angel-K84vnnzxmTQ-unsplash.jpg","charles-etoroma-95UF6LXe-Lo-unsplash.jpg","3","0","10","29","","","","","","","","","","","","","","","","","","","","","","","","","","","",""
"","choice_confirmation","","html-keyboard-response","164","1435539","0.0-86.0-2.0-0.0","0","0","uNe1z","People","","null","","","","null","","","","30","29","10","","","","","","","","","","","","","","","","","","","","","","","","","","","","","","","","","","","","","",""
"","fixation","","html-keyboard-response","165","1436559","0.0-87.0-0.0","0","0","uNe1z","People","","null","","","","null","","","","","","","","","","","","","","","","","","","","","","","","","","","","","","","","","","","","","","","","","","","",""
"","deliberation","","html-keyboard-response","166","1437914","0.0-87.0-1.0","0","0","uNe1z","People","","1351","","","","75","","","","31","27","2","0","1","70","59","jurica-koletic-7YVZYZeITc8-unsplash.jpg","arjunsyah-TBUA5KHJn6k-unsplash.jpg","3","0","2","27","","","","","","","","","","","","","","","","","","","","","","","","","","","",""
"","choice_confirmation","","html-keyboard-response","167","1438420","0.0-87.0-2.0-0.0","0","0","uNe1z","People","","null","","","","null","","","","31","27","2","","","","","","","","","","","","","","","","","","","","","","","","","","","","","","","","","","","","","",""
"","fixation","","html-keyboard-response","168","1439426","0.0-88.0-0.0","0","0","uNe1z","People","","null","","","","null","","","","","","","","","","","","","","","","","","","","","","","","","","","","","","","","","","","","","","","","","","","",""
"","deliberation","","html-keyboard-response","169","1441434","0.0-88.0-1.0","0","0","uNe1z","People","","1996","","","","68","","","","32","7","37","0","1","58","65","brooke-cagle-HRZUzoX1e6w-unsplash.jpg","pavel-anoshin-d0peGya6R5Y-unsplash.jpg","3","1","7","37","","","","","","","","","","","","","","","","","","","","","","","","","","","",""
"","choice_confirmation","","html-keyboard-response","170","1441951","0.0-88.0-2.0-0.0","0","0","uNe1z","People","","null","","","","null","","","","32","7","37","","","","","","","","","","","","","","","","","","","","","","","","","","","","","","","","","","","","","",""
"","fixation","","html-keyboard-response","171","1442967","0.0-89.0-0.0","0","0","uNe1z","People","","null","","","","null","","","","","","","","","","","","","","","","","","","","","","","","","","","","","","","","","","","","","","","","","","","",""
"","deliberation","","html-keyboard-response","172","1444362","0.0-89.0-1.0","0","0","uNe1z","People","","1388","","","","68","","","","33","1","9","0","-1","72","77","aiony-haust-jmATI5Q_YgY-unsplash.jpg","carlos-andres-gomez-vJuk8Y86mRw-unsplash.jpg","3","1","1","9","","","","","","","","","","","","","","","","","","","","","","","","","","","",""
"","choice_confirmation","","html-keyboard-response","173","1444867","0.0-89.0-2.0-0.0","0","0","uNe1z","People","","null","","","","null","","","","33","1","9","","","","","","","","","","","","","","","","","","","","","","","","","","","","","","","","","","","","","",""
"","fixation","","html-keyboard-response","174","1445876","0.0-90.0-0.0","0","0","uNe1z","People","","null","","","","null","","","","","","","","","","","","","","","","","","","","","","","","","","","","","","","","","","","","","","","","","","","",""
"","deliberation","","html-keyboard-response","175","1447973","0.0-90.0-1.0","0","0","uNe1z","People","","2095","","","","68","","","","34","40","19","0","-1","75","60","prince-akachi-4Yv84VgQkRM-unsplash.jpg","ha-nguy-n-OFSQ6bHjFjs-unsplash.jpg","3","1","40","19","","","","","","","","","","","","","","","","","","","","","","","","","","","",""
"","choice_confirmation","","html-keyboard-response","176","1448480","0.0-90.0-2.0-0.0","0","0","uNe1z","People","","null","","","","null","","","","34","40","19","","","","","","","","","","","","","","","","","","","","","","","","","","","","","","","","","","","","","",""
"","fixation","","html-keyboard-response","177","1449496","0.0-91.0-0.0","0","0","uNe1z","People","","null","","","","null","","","","","","","","","","","","","","","","","","","","","","","","","","","","","","","","","","","","","","","","","","","",""
"","deliberation","","html-keyboard-response","178","1450775","0.0-91.0-1.0","0","0","uNe1z","People","","1277","","","","75","","","","35","4","22","0","-1","56","60","barna-bartis-2x3vfVxwR7o-unsplash.jpg","jessica-radanavong-mrYkTuAesKE-unsplash.jpg","3","0","22","4","","","","","","","","","","","","","","","","","","","","","","","","","","","",""
"","choice_confirmation","","html-keyboard-response","179","1451289","0.0-91.0-2.0-0.0","0","0","uNe1z","People","","null","","","","null","","","","35","4","22","","","","","","","","","","","","","","","","","","","","","","","","","","","","","","","","","","","","","",""
"","reward_learning_instructions","","instructions","180","1530120","0.0-92.0-0.0","0","0","uNe1z","People","[{""page_index"":0,""viewing_time"":35306},{""page_index"":1,""viewing_time"":40435},{""page_index"":2,""viewing_time"":3088}]","78830","","","","","","","","","","","","","","","","","","","","","","","","","","","","","","","","","","","","","","","","","","","","","","","",""
"","","","survey-multi-choice","181","1561927","0.0-92.0-1.0","0","0","uNe1z","People","","31802","{""Q0"":""True"",""Q1"":""True"",""Q2"":""Press the space bar to see its outcome"",""Q3"":""Press the relevant key while the outcome is presented""}","reward_comprehension_check","0","","","","","","","","","","","","","","","","","","","","","","","","","","","","","","","","","","","","","","","","","","","","",""
"","start_phase","","html-keyboard-response","182","1639491","0.0-93.0","0","0","uNe1z","People","","77562","","","","78","","","","","","","","","","","","","","","","","","","","","","","","","","","","","","","","","","","","","","","","","","","",""
"","fixation","","html-keyboard-response","183","1640500","0.0-94.0","0","0","uNe1z","People","","null","","","","null","","","","","","","","","","","","","","","","","","","","","","","","","","","","","","","","","","","","","","","","","","","",""
"","see_reward","","html-keyboard-response","184","1643502","0.0-95.0","0","0","uNe1z","People","","2998","","","","32","","15","","0","","","","1","","","","","1","","","","","150","2998","","","","","","","","","","","","","","","","","","","","","","","","",""
"","reward_outcome","","html-keyboard-response","185","1645513","0.0-96.0","0","0","uNe1z","People","","null","","","","null","","15","","0","","","","","","","","","","","","","","","","NaN","null","","","","","","","","","","","","","","","","","","","","","","",""
"","respond_faster","","html-keyboard-response","186","1647029","0.0-97.0-0.0","1","0","uNe1z","People","","null","","","","null","","","","","","","","","","","","","","","","","","","","","","","","","","","","","","","","","","","","","","","","","","","",""
"","fixation","","html-keyboard-response","187","1648034","0.0-99.0","0","0","uNe1z","People","","null","","","","null","","","","","","","","","","","","","","","","","","","","","","","","","","","","","","","","","","","","","","","","","","","",""
"","see_reward","","html-keyboard-response","188","1649125","0.0-100.0","0","0","uNe1z","People","","1087","","","","32","","2","","1","","","","1","","","","","1","","","","","149","1087","","","","","","","","","","","","","","","","","","","","","","","","",""
"","reward_outcome","","html-keyboard-response","189","1651138","0.0-101.0","0","0","uNe1z","People","","null","","","","null","","2","","1","","","","","","","","","","","","","","","","NaN","null","","","","","","","","","","","","","","","","","","","","","","",""
"","respond_faster","","html-keyboard-response","190","1652658","0.0-102.0-0.0","1","0","uNe1z","People","","null","","","","null","","","","","","","","","","","","","","","","","","","","","","","","","","","","","","","","","","","","","","","","","","","",""
"","fixation","","html-keyboard-response","191","1653668","0.0-104.0","0","0","uNe1z","People","","null","","","","null","","","","","","","","","","","","","","","","","","","","","","","","","","","","","","","","","","","","","","","","","","","",""
"","see_reward","","html-keyboard-response","192","1654970","0.0-105.0","0","0","uNe1z","People","","1298","","","","32","","39","","2","","","","1","","","","","1","","","","","145","1298","","","","","","","","","","","","","","","","","","","","","","","","",""
"","reward_outcome","","html-keyboard-response","193","1656998","0.0-106.0","0","0","uNe1z","People","","null","","","","null","","39","","2","","","","","","","","","","","","","","","","NaN","null","","","","","","","","","","","","","","","","","","","","","","",""
"","respond_faster","","html-keyboard-response","194","1658513","0.0-107.0-0.0","1","0","uNe1z","People","","null","","","","null","","","","","","","","","","","","","","","","","","","","","","","","","","","","","","","","","","","","","","","","","","","",""
"","fixation","","html-keyboard-response","195","1659533","0.0-109.0","0","0","uNe1z","People","","null","","","","null","","","","","","","","","","","","","","","","","","","","","","","","","","","","","","","","","","","","","","","","","","","",""
"","see_reward","","html-keyboard-response","196","1660263","0.0-110.0","0","0","uNe1z","People","","724","","","","32","","10","","3","","","","-1","","","","","1","","","","","0","724","","","","","","","","","","","","","","","","","","","","","","","","",""
"","reward_outcome","","html-keyboard-response","197","1662278","0.0-111.0","0","0","uNe1z","People","","221","","","","38","","10","","3","","","","","","","","","","","","","","","","1","221","","","","","","","","","","","","","","","","","","","","","","",""
"","fixation","","html-keyboard-response","198","1663282","0.0-114.0","0","0","uNe1z","People","","null","","","","null","","","","","","","","","","","","","","","","","","","","","","","","","","","","","","","","","","","","","","","","","","","",""
"","see_reward","","html-keyboard-response","199","1664143","0.0-115.0","0","0","uNe1z","People","","846","","","","32","","10","","4","","","","-1","","","","","1","","","","","0","846","","","","","","","","","","","","","","","","","","","","","","","","",""
"","reward_outcome","","html-keyboard-response","200","1666154","0.0-116.0","0","0","uNe1z","People","","209","","","","40","","10","","4","","","","","","","","","","","","","","","","-1","209","","","","","","","","","","","","","","","","","","","","","","",""
"","fixation","","html-keyboard-response","201","1667178","0.0-119.0","0","0","uNe1z","People","","null","","","","null","","","","","","","","","","","","","","","","","","","","","","","","","","","","","","","","","","","","","","","","","","","",""
"","see_reward","","html-keyboard-response","202","1667839","0.0-120.0","0","0","uNe1z","People","","651","","","","32","","7","","5","","","","1","","","","","1","","","","","153","651","","","","","","","","","","","","","","","","","","","","","","","","",""
"","reward_outcome","","html-keyboard-response","203","1669857","0.0-121.0","0","0","uNe1z","People","","203","","","","38","","7","","5","","","","","","","","","","","","","","","","1","203","","","","","","","","","","","","","","","","","","","","","","",""
"","fixation","","html-keyboard-response","204","1670866","0.0-124.0","0","0","uNe1z","People","","null","","","","null","","","","","","","","","","","","","","","","","","","","","","","","","","","","","","","","","","","","","","","","","","","",""
"","see_reward","","html-keyboard-response","205","1671789","0.0-125.0","0","0","uNe1z","People","","920","","","","32","","16","","6","","","","-1","","","","","1","","","","","0","920","","","","","","","","","","","","","","","","","","","","","","","","",""
"","reward_outcome","","html-keyboard-response","206","1673795","0.0-126.0","0","0","uNe1z","People","","254","","","","38","","16","","6","","","","","","","","","","","","","","","","1","254","","","","","","","","","","","","","","","","","","","","","","",""
"","fixation","","html-keyboard-response","207","1674811","0.0-129.0","0","0","uNe1z","People","","null","","","","null","","","","","","","","","","","","","","","","","","","","","","","","","","","","","","","","","","","","","","","","","","","",""
"","see_reward","","html-keyboard-response","208","1675842","0.0-130.0","0","0","uNe1z","People","","1029","","","","32","","30","","7","","","","-1","","","","","1","","","","","0","1029","","","","","","","","","","","","","","","","","","","","","","","","",""
"","reward_outcome","","html-keyboard-response","209","1677856","0.0-131.0","0","0","uNe1z","People","","277","","","","40","","30","","7","","","","","","","","","","","","","","","","-1","277","","","","","","","","","","","","","","","","","","","","","","",""
"","fixation","","html-keyboard-response","210","1678876","0.0-134.0","0","0","uNe1z","People","","null","","","","null","","","","","","","","","","","","","","","","","","","","","","","","","","","","","","","","","","","","","","","","","","","",""
"","see_reward","","html-keyboard-response","211","1679461","0.0-135.0","0","0","uNe1z","People","","573","","","","32","","16","","8","","","","-1","","","","","1","","","","","0","573","","","","","","","","","","","","","","","","","","","","","","","","",""
"","reward_outcome","","html-keyboard-response","212","1681469","0.0-136.0","0","0","uNe1z","People","","568","","","","38","","16","","8","","","","","","","","","","","","","","","","1","568","","","","","","","","","","","","","","","","","","","","","","",""
"","fixation","","html-keyboard-response","213","1682487","0.0-139.0","0","0","uNe1z","People","","null","","","","null","","","","","","","","","","","","","","","","","","","","","","","","","","","","","","","","","","","","","","","","","","","",""
"","see_reward","","html-keyboard-response","214","1683292","0.0-140.0","0","0","uNe1z","People","","803","","","","32","","30","","9","","","","-1","","","","","1","","","","","0","803","","","","","","","","","","","","","","","","","","","","","","","","",""
"","reward_outcome","","html-keyboard-response","215","1685309","0.0-141.0","0","0","uNe1z","People","","174","","","","38","","30","","9","","","","","","","","","","","","","","","","1","174","","","","","","","","","","","","","","","","","","","","","","",""
"","fixation","","html-keyboard-response","216","1686329","0.0-144.0","0","0","uNe1z","People","","null","","","","null","","","","","","","","","","","","","","","","","","","","","","","","","","","","","","","","","","","","","","","","","","","",""
"","see_reward","","html-keyboard-response","217","1687392","0.0-145.0","0","0","uNe1z","People","","1057","","","","32","","39","","10","","","","1","","","","","1","","","","","145","1057","","","","","","","","","","","","","","","","","","","","","","","","",""
"","reward_outcome","","html-keyboard-response","218","1689406","0.0-146.0","0","0","uNe1z","People","","null","","","","null","","39","","10","","","","","","","","","","","","","","","","NaN","null","","","","","","","","","","","","","","","","","","","","","","",""
"","respond_faster","","html-keyboard-response","219","1690918","0.0-147.0-0.0","1","0","uNe1z","People","","null","","","","null","","","","","","","","","","","","","","","","","","","","","","","","","","","","","","","","","","","","","","","","","","","",""
"","fixation","","html-keyboard-response","220","1691935","0.0-149.0","0","0","uNe1z","People","","null","","","","null","","","","","","","","","","","","","","","","","","","","","","","","","","","","","","","","","","","","","","","","","","","",""
"","see_reward","","html-keyboard-response","221","1692781","0.0-150.0","0","0","uNe1z","People","","842","","","","32","","47","","11","","","","1","","","","","1","","","","","145","842","","","","","","","","","","","","","","","","","","","","","","","","",""
"","reward_outcome","","html-keyboard-response","222","1694795","0.0-151.0","0","0","uNe1z","People","","151","","","","40","","47","","11","","","","","","","","","","","","","","","","-1","151","","","","","","","","","","","","","","","","","","","","","","",""
"","fixation","","html-keyboard-response","223","1695810","0.0-154.0","0","0","uNe1z","People","","null","","","","null","","","","","","","","","","","","","","","","","","","","","","","","","","","","","","","","","","","","","","","","","","","",""
"","see_reward","","html-keyboard-response","224","1696360","0.0-155.0","0","0","uNe1z","People","","546","","","","32","","13","","12","","","","1","","","","","1","","","","","142","546","","","","","","","","","","","","","","","","","","","","","","","","",""
"","reward_outcome","","html-keyboard-response","225","1698375","0.0-156.0","0","0","uNe1z","People","","100","","","","38","","13","","12","","","","","","","","","","","","","","","","1","100","","","","","","","","","","","","","","","","","","","","","","",""
"","fixation","","html-keyboard-response","226","1699389","0.0-159.0","0","0","uNe1z","People","","null","","","","null","","","","","","","","","","","","","","","","","","","","","","","","","","","","","","","","","","","","","","","","","","","",""
"","see_reward","","html-keyboard-response","227","1699972","0.0-160.0","0","0","uNe1z","People","","576","","","","32","","15","","13","","","","1","","","","","1","","","","","150","576","","","","","","","","","","","","","","","","","","","","","","","","",""
"","reward_outcome","","html-keyboard-response","228","1701983","0.0-161.0","0","0","uNe1z","People","","162","","","","40","","15","","13","","","","","","","","","","","","","","","","-1","162","","","","","","","","","","","","","","","","","","","","","","",""
"","fixation","","html-keyboard-response","229","1702987","0.0-164.0","0","0","uNe1z","People","","null","","","","null","","","","","","","","","","","","","","","","","","","","","","","","","","","","","","","","","","","","","","","","","","","",""
"","see_reward","","html-keyboard-response","230","1703512","0.0-165.0","0","0","uNe1z","People","","509","","","","32","","13","","14","","","","1","","","","","1","","","","","142","509","","","","","","","","","","","","","","","","","","","","","","","","",""
"","reward_outcome","","html-keyboard-response","231","1705516","0.0-166.0","0","0","uNe1z","People","","null","","","","null","","13","","14","","","","","","","","","","","","","","","","NaN","null","","","","","","","","","","","","","","","","","","","","","","",""
"","respond_faster","","html-keyboard-response","232","1707026","0.0-167.0-0.0","1","0","uNe1z","People","","null","","","","null","","","","","","","","","","","","","","","","","","","","","","","","","","","","","","","","","","","","","","","","","","","",""
"","fixation","","html-keyboard-response","233","1708039","0.0-169.0","0","0","uNe1z","People","","null","","","","null","","","","","","","","","","","","","","","","","","","","","","","","","","","","","","","","","","","","","","","","","","","",""
"","see_reward","","html-keyboard-response","234","1708634","0.0-170.0","0","0","uNe1z","People","","583","","","","32","","47","","15","","","","1","","","","","1","","","","","145","583","","","","","","","","","","","","","","","","","","","","","","","","",""
"","reward_outcome","","html-keyboard-response","235","1710655","0.0-171.0","0","0","uNe1z","People","","108","","","","40","","47","","15","","","","","","","","","","","","","","","","-1","108","","","","","","","","","","","","","","","","","","","","","","",""
"","fixation","","html-keyboard-response","236","1711678","0.0-174.0","0","0","uNe1z","People","","null","","","","null","","","","","","","","","","","","","","","","","","","","","","","","","","","","","","","","","","","","","","","","","","","",""
"","see_reward","","html-keyboard-response","237","1712275","0.0-175.0","0","0","uNe1z","People","","582","","","","32","","1","","16","","","","-1","","","","","1","","","","","0","582","","","","","","","","","","","","","","","","","","","","","","","","",""
"","reward_outcome","","html-keyboard-response","238","1714306","0.0-176.0","0","0","uNe1z","People","","null","","","","null","","1","","16","","","","","","","","","","","","","","","","NaN","null","","","","","","","","","","","","","","","","","","","","","","",""
"","respond_faster","","html-keyboard-response","239","1715810","0.0-177.0-0.0","1","0","uNe1z","People","","null","","","","null","","","","","","","","","","","","","","","","","","","","","","","","","","","","","","","","","","","","","","","","","","","",""
"","fixation","","html-keyboard-response","240","1716843","0.0-179.0","0","0","uNe1z","People","","null","","","","null","","","","","","","","","","","","","","","","","","","","","","","","","","","","","","","","","","","","","","","","","","","",""
"","see_reward","","html-keyboard-response","241","1717568","0.0-180.0","0","0","uNe1z","People","","715","","","","32","","22","","17","","","","-1","","","","","1","","","","","0","715","","","","","","","","","","","","","","","","","","","","","","","","",""
"","reward_outcome","","html-keyboard-response","242","1719575","0.0-181.0","0","0","uNe1z","People","","null","","","","null","","22","","17","","","","","","","","","","","","","","","","NaN","null","","","","","","","","","","","","","","","","","","","","","","",""
"","respond_faster","","html-keyboard-response","243","1721083","0.0-182.0-0.0","1","0","uNe1z","People","","null","","","","null","","","","","","","","","","","","","","","","","","","","","","","","","","","","","","","","","","","","","","","","","","","",""
"","fixation","","html-keyboard-response","244","1722091","0.0-184.0","0","0","uNe1z","People","","null","","","","null","","","","","","","","","","","","","","","","","","","","","","","","","","","","","","","","","","","","","","","","","","","",""
"","see_reward","","html-keyboard-response","245","1722804","0.0-185.0","0","0","uNe1z","People","","703","","","","32","","2","","18","","","","1","","","","","1","","","","","149","703","","","","","","","","","","","","","","","","","","","","","","","","",""
"","reward_outcome","","html-keyboard-response","246","1724811","0.0-186.0","0","0","uNe1z","People","","301","","","","40","","2","","18","","","","","","","","","","","","","","","","-1","301","","","","","","","","","","","","","","","","","","","","","","",""
"","fixation","","html-keyboard-response","247","1725830","0.0-189.0","0","0","uNe1z","People","","null","","","","null","","","","","","","","","","","","","","","","","","","","","","","","","","","","","","","","","","","","","","","","","","","",""
"","see_reward","","html-keyboard-response","248","1726544","0.0-190.0","0","0","uNe1z","People","","698","","","","32","","40","","19","","","","-1","","","","","1","","","","","0","698","","","","","","","","","","","","","","","","","","","","","","","","",""
"","reward_outcome","","html-keyboard-response","249","1728563","0.0-191.0","0","0","uNe1z","People","","null","","","","null","","40","","19","","","","","","","","","","","","","","","","NaN","null","","","","","","","","","","","","","","","","","","","","","","",""
"","respond_faster","","html-keyboard-response","250","1730077","0.0-192.0-0.0","1","0","uNe1z","People","","null","","","","null","","","","","","","","","","","","","","","","","","","","","","","","","","","","","","","","","","","","","","","","","","","",""
"","fixation","","html-keyboard-response","251","1731086","0.0-194.0","0","0","uNe1z","People","","null","","","","null","","","","","","","","","","","","","","","","","","","","","","","","","","","","","","","","","","","","","","","","","","","",""
"","see_reward","","html-keyboard-response","252","1731688","0.0-195.0","0","0","uNe1z","People","","600","","","","32","","22","","20","","","","-1","","","","","1","","","","","0","600","","","","","","","","","","","","","","","","","","","","","","","","",""
"","reward_outcome","","html-keyboard-response","253","1733703","0.0-196.0","0","0","uNe1z","People","","null","","","","null","","22","","20","","","","","","","","","","","","","","","","NaN","null","","","","","","","","","","","","","","","","","","","","","","",""
"","respond_faster","","html-keyboard-response","254","1735216","0.0-197.0-0.0","1","0","uNe1z","People","","null","","","","null","","","","","","","","","","","","","","","","","","","","","","","","","","","","","","","","","","","","","","","","","","","",""
"","fixation","","html-keyboard-response","255","1736231","0.0-199.0","0","0","uNe1z","People","","null","","","","null","","","","","","","","","","","","","","","","","","","","","","","","","","","","","","","","","","","","","","","","","","","",""
"","see_reward","","html-keyboard-response","256","1736725","0.0-200.0","0","0","uNe1z","People","","492","","","","32","","40","","21","","","","-1","","","","","1","","","","","0","492","","","","","","","","","","","","","","","","","","","","","","","","",""
"","reward_outcome","","html-keyboard-response","257","1738731","0.0-201.0","0","0","uNe1z","People","","1053","","","","40","","40","","21","","","","","","","","","","","","","","","","-1","1053","","","","","","","","","","","","","","","","","","","","","","",""
"","fixation","","html-keyboard-response","258","1739740","0.0-204.0","0","0","uNe1z","People","","null","","","","null","","","","","","","","","","","","","","","","","","","","","","","","","","","","","","","","","","","","","","","","","","","",""
"","see_reward","","html-keyboard-response","259","1740765","0.0-205.0","0","0","uNe1z","People","","1020","","","","32","","1","","22","","","","-1","","","","","1","","","","","0","1020","","","","","","","","","","","","","","","","","","","","","","","","",""
"","reward_outcome","","html-keyboard-response","260","1742779","0.0-206.0","0","0","uNe1z","People","","null","","","","null","","1","","22","","","","","","","","","","","","","","","","NaN","null","","","","","","","","","","","","","","","","","","","","","","",""
"","respond_faster","","html-keyboard-response","261","1744282","0.0-207.0-0.0","1","0","uNe1z","People","","null","","","","null","","","","","","","","","","","","","","","","","","","","","","","","","","","","","","","","","","","","","","","","","","","",""
"","fixation","","html-keyboard-response","262","1745294","0.0-209.0","0","0","uNe1z","People","","null","","","","null","","","","","","","","","","","","","","","","","","","","","","","","","","","","","","","","","","","","","","","","","","","",""
"","see_reward","","html-keyboard-response","263","1745909","0.0-210.0","0","0","uNe1z","People","","613","","","","32","","7","","23","","","","1","","","","","1","","","","","153","613","","","","","","","","","","","","","","","","","","","","","","","","",""
"","reward_outcome","","html-keyboard-response","264","1747915","0.0-211.0","0","0","uNe1z","People","","297","","","","40","","7","","23","","","","","","","","","","","","","","","","-1","297","","","","","","","","","","","","","","","","","","","","","","",""
"","block_over","","html-keyboard-response","265","1756214","0.0-213.0-0.0","0","0","uNe1z","People","","8286","","","","78","","","","","","","","","","","","","","","","","","","","","","","","","","","","","","","","","","","","","","","","","","","",""
"","fixation","","html-keyboard-response","266","1757220","0.0-214.0","0","0","uNe1z","People","","null","","","","null","","","","","","","","","","","","","","","","","","","","","","","","","","","","","","","","","","","","","","","","","","","",""
"","see_reward","","html-keyboard-response","267","1758001","0.0-215.0","0","0","uNe1z","People","","775","","","","32","","22","","24","","","","-1","","","","","2","","","","","0","775","","","","","","","","","","","","","","","","","","","","","","","","",""
"","reward_outcome","","html-keyboard-response","268","1760013","0.0-216.0","0","0","uNe1z","People","","199","","","","40","","22","","24","","","","","","","","","","","","","","","","-1","199","","","","","","","","","","","","","","","","","","","","","","",""
"","fixation","","html-keyboard-response","269","1761028","0.0-219.0","0","0","uNe1z","People","","null","","","","null","","","","","","","","","","","","","","","","","","","","","","","","","","","","","","","","","","","","","","","","","","","",""
"","see_reward","","html-keyboard-response","270","1761864","0.0-220.0","0","0","uNe1z","People","","828","","","","32","","47","","25","","","","1","","","","","2","","","","","145","828","","","","","","","","","","","","","","","","","","","","","","","","",""
"","reward_outcome","","html-keyboard-response","271","1763871","0.0-221.0","0","0","uNe1z","People","","194","","","","38","","47","","25","","","","","","","","","","","","","","","","1","194","","","","","","","","","","","","","","","","","","","","","","",""
"","fixation","","html-keyboard-response","272","1764874","0.0-224.0","0","0","uNe1z","People","","null","","","","null","","","","","","","","","","","","","","","","","","","","","","","","","","","","","","","","","","","","","","","","","","","",""
"","see_reward","","html-keyboard-response","273","1765460","0.0-225.0","0","0","uNe1z","People","","575","","","","32","","22","","26","","","","-1","","","","","2","","","","","0","575","","","","","","","","","","","","","","","","","","","","","","","","",""
"","reward_outcome","","html-keyboard-response","274","1767481","0.0-226.0","0","0","uNe1z","People","","157","","","","40","","22","","26","","","","","","","","","","","","","","","","-1","157","","","","","","","","","","","","","","","","","","","","","","",""
"","fixation","","html-keyboard-response","275","1768488","0.0-229.0","0","0","uNe1z","People","","null","","","","null","","","","","","","","","","","","","","","","","","","","","","","","","","","","","","","","","","","","","","","","","","","",""
"","see_reward","","html-keyboard-response","276","1769151","0.0-230.0","0","0","uNe1z","People","","662","","","","32","","15","","27","","","","1","","","","","2","","","","","150","662","","","","","","","","","","","","","","","","","","","","","","","","",""
"","reward_outcome","","html-keyboard-response","277","1771170","0.0-231.0","0","0","uNe1z","People","","355","","","","38","","15","","27","","","","","","","","","","","","","","","","1","355","","","","","","","","","","","","","","","","","","","","","","",""
"","fixation","","html-keyboard-response","278","1772186","0.0-234.0","0","0","uNe1z","People","","null","","","","null","","","","","","","","","","","","","","","","","","","","","","","","","","","","","","","","","","","","","","","","","","","",""
"","see_reward","","html-keyboard-response","279","1772750","0.0-235.0","0","0","uNe1z","People","","561","","","","32","","40","","28","","","","-1","","","","","2","","","","","0","561","","","","","","","","","","","","","","","","","","","","","","","","",""
"","reward_outcome","","html-keyboard-response","280","1774756","0.0-236.0","0","0","uNe1z","People","","156","","","","40","","40","","28","","","","","","","","","","","","","","","","-1","156","","","","","","","","","","","","","","","","","","","","","","",""
"","fixation","","html-keyboard-response","281","1775763","0.0-239.0","0","0","uNe1z","People","","null","","","","null","","","","","","","","","","","","","","","","","","","","","","","","","","","","","","","","","","","","","","","","","","","",""
"","see_reward","","html-keyboard-response","282","1776425","0.0-240.0","0","0","uNe1z","People","","655","","","","32","","13","","29","","","","1","","","","","2","","","","","142","655","","","","","","","","","","","","","","","","","","","","","","","","",""
"","reward_outcome","","html-keyboard-response","283","1778438","0.0-241.0","0","0","uNe1z","People","","196","","","","38","","13","","29","","","","","","","","","","","","","","","","1","196","","","","","","","","","","","","","","","","","","","","","","",""
"","fixation","","html-keyboard-response","284","1779451","0.0-244.0","0","0","uNe1z","People","","null","","","","null","","","","","","","","","","","","","","","","","","","","","","","","","","","","","","","","","","","","","","","","","","","",""
"","see_reward","","html-keyboard-response","285","1780009","0.0-245.0","0","0","uNe1z","People","","546","","","","32","","30","","30","","","","-1","","","","","2","","","","","0","546","","","","","","","","","","","","","","","","","","","","","","","","",""
"","reward_outcome","","html-keyboard-response","286","1782011","0.0-246.0","0","0","uNe1z","People","","165","","","","40","","30","","30","","","","","","","","","","","","","","","","-1","165","","","","","","","","","","","","","","","","","","","","","","",""
"","fixation","","html-keyboard-response","287","1783029","0.0-249.0","0","0","uNe1z","People","","null","","","","null","","","","","","","","","","","","","","","","","","","","","","","","","","","","","","","","","","","","","","","","","","","",""
"","see_reward","","html-keyboard-response","288","1783568","0.0-250.0","0","0","uNe1z","People","","531","","","","32","","7","","31","","","","1","","","","","2","","","","","153","531","","","","","","","","","","","","","","","","","","","","","","","","",""
"","reward_outcome","","html-keyboard-response","289","1785578","0.0-251.0","0","0","uNe1z","People","","147","","","","38","","7","","31","","","","","","","","","","","","","","","","1","147","","","","","","","","","","","","","","","","","","","","","","",""
"","fixation","","html-keyboard-response","290","1786594","0.0-254.0","0","0","uNe1z","People","","null","","","","null","","","","","","","","","","","","","","","","","","","","","","","","","","","","","","","","","","","","","","","","","","","",""
"","see_reward","","html-keyboard-response","291","1787211","0.0-255.0","0","0","uNe1z","People","","615","","","","32","","30","","32","","","","-1","","","","","2","","","","","0","615","","","","","","","","","","","","","","","","","","","","","","","","",""
"","reward_outcome","","html-keyboard-response","292","1789219","0.0-256.0","0","0","uNe1z","People","","109","","","","40","","30","","32","","","","","","","","","","","","","","","","-1","109","","","","","","","","","","","","","","","","","","","","","","",""
"","fixation","","html-keyboard-response","293","1790236","0.0-259.0","0","0","uNe1z","People","","null","","","","null","","","","","","","","","","","","","","","","","","","","","","","","","","","","","","","","","","","","","","","","","","","",""
"","see_reward","","html-keyboard-response","294","1790730","0.0-260.0","0","0","uNe1z","People","","478","","","","32","","2","","33","","","","1","","","","","2","","","","","149","478","","","","","","","","","","","","","","","","","","","","","","","","",""
"","reward_outcome","","html-keyboard-response","295","1792747","0.0-261.0","0","0","uNe1z","People","","79","","","","38","","2","","33","","","","","","","","","","","","","","","","1","79","","","","","","","","","","","","","","","","","","","","","","",""
"","fixation","","html-keyboard-response","296","1793763","0.0-264.0","0","0","uNe1z","People","","null","","","","null","","","","","","","","","","","","","","","","","","","","","","","","","","","","","","","","","","","","","","","","","","","",""
"","see_reward","","html-keyboard-response","297","1794347","0.0-265.0","0","0","uNe1z","People","","582","","","","32","","7","","34","","","","1","","","","","2","","","","","153","582","","","","","","","","","","","","","","","","","","","","","","","","",""
"","reward_outcome","","html-keyboard-response","298","1796356","0.0-266.0","0","0","uNe1z","People","","141","","","","40","","7","","34","","","","","","","","","","","","","","","","-1","141","","","","","","","","","","","","","","","","","","","","","","",""
"","fixation","","html-keyboard-response","299","1797405","0.0-269.0","0","0","uNe1z","People","","null","","","","null","","","","","","","","","","","","","","","","","","","","","","","","","","","","","","","","","","","","","","","","","","","",""
"","see_reward","","html-keyboard-response","300","1798066","0.0-270.0","0","0","uNe1z","People","","654","","","","32","","13","","35","","","","1","","","","","2","","","","","142","654","","","","","","","","","","","","","","","","","","","","","","","","",""
"","reward_outcome","","html-keyboard-response","301","1800075","0.0-271.0","0","0","uNe1z","People","","211","","","","40","","13","","35","","","","","","","","","","","","","","","","-1","211","","","","","","","","","","","","","","","","","","","","","","",""
"","fixation","","html-keyboard-response","302","1801091","0.0-274.0","0","0","uNe1z","People","","null","","","","null","","","","","","","","","","","","","","","","","","","","","","","","","","","","","","","","","","","","","","","","","","","",""
"","see_reward","","html-keyboard-response","303","1801966","0.0-275.0","0","0","uNe1z","People","","874","","","","32","","39","","36","","","","1","","","","","2","","","","","145","874","","","","","","","","","","","","","","","","","","","","","","","","",""
"","reward_outcome","","html-keyboard-response","304","1803983","0.0-276.0","0","0","uNe1z","People","","null","","","","null","","39","","36","","","","","","","","","","","","","","","","NaN","null","","","","","","","","","","","","","","","","","","","","","","",""
"","respond_faster","","html-keyboard-response","305","1805496","0.0-277.0-0.0","1","0","uNe1z","People","","null","","","","null","","","","","","","","","","","","","","","","","","","","","","","","","","","","","","","","","","","","","","","","","","","",""
"","fixation","","html-keyboard-response","306","1806499","0.0-279.0","0","0","uNe1z","People","","null","","","","null","","","","","","","","","","","","","","","","","","","","","","","","","","","","","","","","","","","","","","","","","","","",""
"","see_reward","","html-keyboard-response","307","1807147","0.0-280.0","0","0","uNe1z","People","","638","","","","32","","15","","37","","","","1","","","","","2","","","","","150","638","","","","","","","","","","","","","","","","","","","","","","","","",""
"","reward_outcome","","html-keyboard-response","308","1809172","0.0-281.0","0","0","uNe1z","People","","349","","","","38","","15","","37","","","","","","","","","","","","","","","","1","349","","","","","","","","","","","","","","","","","","","","","","",""
"","fixation","","html-keyboard-response","309","1810179","0.0-284.0","0","0","uNe1z","People","","null","","","","null","","","","","","","","","","","","","","","","","","","","","","","","","","","","","","","","","","","","","","","","","","","",""
"","see_reward","","html-keyboard-response","310","1810790","0.0-285.0","0","0","uNe1z","People","","598","","","","32","","1","","38","","","","-1","","","","","2","","","","","0","598","","","","","","","","","","","","","","","","","","","","","","","","",""
"","reward_outcome","","html-keyboard-response","311","1812795","0.0-286.0","0","0","uNe1z","People","","238","","","","40","","1","","38","","","","","","","","","","","","","","","","-1","238","","","","","","","","","","","","","","","","","","","","","","",""
"","fixation","","html-keyboard-response","312","1813810","0.0-289.0","0","0","uNe1z","People","","null","","","","null","","","","","","","","","","","","","","","","","","","","","","","","","","","","","","","","","","","","","","","","","","","",""
"","see_reward","","html-keyboard-response","313","1814342","0.0-290.0","0","0","uNe1z","People","","529","","","","32","","10","","39","","","","-1","","","","","2","","","","","0","529","","","","","","","","","","","","","","","","","","","","","","","","",""
"","reward_outcome","","html-keyboard-response","314","1816356","0.0-291.0","0","0","uNe1z","People","","123","","","","38","","10","","39","","","","","","","","","","","","","","","","1","123","","","","","","","","","","","","","","","","","","","","","","",""
"","fixation","","html-keyboard-response","315","1817373","0.0-294.0","0","0","uNe1z","People","","null","","","","null","","","","","","","","","","","","","","","","","","","","","","","","","","","","","","","","","","","","","","","","","","","",""
"","see_reward","","html-keyboard-response","316","1817897","0.0-295.0","0","0","uNe1z","People","","514","","","","32","","1","","40","","","","-1","","","","","2","","","","","0","514","","","","","","","","","","","","","","","","","","","","","","","","",""
"","reward_outcome","","html-keyboard-response","317","1819920","0.0-296.0","0","0","uNe1z","People","","185","","","","40","","1","","40","","","","","","","","","","","","","","","","-1","185","","","","","","","","","","","","","","","","","","","","","","",""
"","fixation","","html-keyboard-response","318","1820934","0.0-299.0","0","0","uNe1z","People","","null","","","","null","","","","","","","","","","","","","","","","","","","","","","","","","","","","","","","","","","","","","","","","","","","",""
"","see_reward","","html-keyboard-response","319","1821517","0.0-300.0","0","0","uNe1z","People","","577","","","","32","","39","","41","","","","1","","","","","2","","","","","145","577","","","","","","","","","","","","","","","","","","","","","","","","",""
"","reward_outcome","","html-keyboard-response","320","1823529","0.0-301.0","0","0","uNe1z","People","","166","","","","38","","39","","41","","","","","","","","","","","","","","","","1","166","","","","","","","","","","","","","","","","","","","","","","",""
"","fixation","","html-keyboard-response","321","1824531","0.0-304.0","0","0","uNe1z","People","","null","","","","null","","","","","","","","","","","","","","","","","","","","","","","","","","","","","","","","","","","","","","","","","","","",""
"","see_reward","","html-keyboard-response","322","1825173","0.0-305.0","0","0","uNe1z","People","","637","","","","32","","2","","42","","","","1","","","","","2","","","","","149","637","","","","","","","","","","","","","","","","","","","","","","","","",""
"","reward_outcome","","html-keyboard-response","323","1827199","0.0-306.0","0","0","uNe1z","People","","197","","","","40","","2","","42","","","","","","","","","","","","","","","","-1","197","","","","","","","","","","","","","","","","","","","","","","",""
"","fixation","","html-keyboard-response","324","1828218","0.0-309.0","0","0","uNe1z","People","","null","","","","null","","","","","","","","","","","","","","","","","","","","","","","","","","","","","","","","","","","","","","","","","","","",""
"","see_reward","","html-keyboard-response","325","1828825","0.0-310.0","0","0","uNe1z","People","","602","","","","32","","16","","43","","","","-1","","","","","2","","","","","0","602","","","","","","","","","","","","","","","","","","","","","","","","",""
"","reward_outcome","","html-keyboard-response","326","1830835","0.0-311.0","0","0","uNe1z","People","","110","","","","38","","16","","43","","","","","","","","","","","","","","","","1","110","","","","","","","","","","","","","","","","","","","","","","",""
"","fixation","","html-keyboard-response","327","1831857","0.0-314.0","0","0","uNe1z","People","","null","","","","null","","","","","","","","","","","","","","","","","","","","","","","","","","","","","","","","","","","","","","","","","","","",""
"","see_reward","","html-keyboard-response","328","1832407","0.0-315.0","0","0","uNe1z","People","","545","","","","32","","10","","44","","","","-1","","","","","2","","","","","0","545","","","","","","","","","","","","","","","","","","","","","","","","",""
"","reward_outcome","","html-keyboard-response","329","1834412","0.0-316.0","0","0","uNe1z","People","","171","","","","40","","10","","44","","","","","","","","","","","","","","","","-1","171","","","","","","","","","","","","","","","","","","","","","","",""
"","fixation","","html-keyboard-response","330","1835422","0.0-319.0","0","0","uNe1z","People","","null","","","","null","","","","","","","","","","","","","","","","","","","","","","","","","","","","","","","","","","","","","","","","","","","",""
"","see_reward","","html-keyboard-response","331","1835927","0.0-320.0","0","0","uNe1z","People","","503","","","","32","","40","","45","","","","-1","","","","","2","","","","","0","503","","","","","","","","","","","","","","","","","","","","","","","","",""
"","reward_outcome","","html-keyboard-response","332","1837944","0.0-321.0","0","0","uNe1z","People","","132","","","","38","","40","","45","","","","","","","","","","","","","","","","1","132","","","","","","","","","","","","","","","","","","","","","","",""
"","fixation","","html-keyboard-response","333","1838948","0.0-324.0","0","0","uNe1z","People","","null","","","","null","","","","","","","","","","","","","","","","","","","","","","","","","","","","","","","","","","","","","","","","","","","",""
"","see_reward","","html-keyboard-response","334","1839992","0.0-325.0","0","0","uNe1z","People","","1032","","","","32","","47","","46","","","","1","","","","","2","","","","","145","1032","","","","","","","","","","","","","","","","","","","","","","","","",""
"","reward_outcome","","html-keyboard-response","335","1841996","0.0-326.0","0","0","uNe1z","People","","null","","","","null","","47","","46","","","","","","","","","","","","","","","","NaN","null","","","","","","","","","","","","","","","","","","","","","","",""
"","respond_faster","","html-keyboard-response","336","1843514","0.0-327.0-0.0","1","0","uNe1z","People","","null","","","","null","","","","","","","","","","","","","","","","","","","","","","","","","","","","","","","","","","","","","","","","","","","",""
"","fixation","","html-keyboard-response","337","1844529","0.0-329.0","0","0","uNe1z","People","","null","","","","null","","","","","","","","","","","","","","","","","","","","","","","","","","","","","","","","","","","","","","","","","","","",""
"","see_reward","","html-keyboard-response","338","1845323","0.0-330.0","0","0","uNe1z","People","","780","","","","32","","16","","47","","","","-1","","","","","2","","","","","0","780","","","","","","","","","","","","","","","","","","","","","","","","",""
"","reward_outcome","","html-keyboard-response","339","1847341","0.0-331.0","0","0","uNe1z","People","","81","","","","38","","16","","47","","","","","","","","","","","","","","","","1","81","","","","","","","","","","","","","","","","","","","","","","",""
"","block_over","","html-keyboard-response","340","1849564","0.0-333.0-0.0","0","0","uNe1z","People","","2217","","","","78","","","","","","","","","","","","","","","","","","","","","","","","","","","","","","","","","","","","","","","","","","","",""
"","fixation","","html-keyboard-response","341","1850571","0.0-334.0","0","0","uNe1z","People","","null","","","","null","","","","","","","","","","","","","","","","","","","","","","","","","","","","","","","","","","","","","","","","","","","",""
"","see_reward","","html-keyboard-response","342","1851352","0.0-335.0","0","0","uNe1z","People","","778","","","","32","","7","","48","","","","1","","","","","3","","","","","153","778","","","","","","","","","","","","","","","","","","","","","","","","",""
"","reward_outcome","","html-keyboard-response","343","1853392","0.0-336.0","0","0","uNe1z","People","","254","","","","40","","7","","48","","","","","","","","","","","","","","","","-1","254","","","","","","","","","","","","","","","","","","","","","","",""
"","fixation","","html-keyboard-response","344","1854396","0.0-339.0","0","0","uNe1z","People","","null","","","","null","","","","","","","","","","","","","","","","","","","","","","","","","","","","","","","","","","","","","","","","","","","",""
"","see_reward","","html-keyboard-response","345","1855082","0.0-340.0","0","0","uNe1z","People","","678","","","","32","","47","","49","","","","1","","","","","3","","","","","145","678","","","","","","","","","","","","","","","","","","","","","","","","",""
"","reward_outcome","","html-keyboard-response","346","1857091","0.0-341.0","0","0","uNe1z","People","","102","","","","38","","47","","49","","","","","","","","","","","","","","","","1","102","","","","","","","","","","","","","","","","","","","","","","",""
"","fixation","","html-keyboard-response","347","1858108","0.0-344.0","0","0","uNe1z","People","","null","","","","null","","","","","","","","","","","","","","","","","","","","","","","","","","","","","","","","","","","","","","","","","","","",""
"","see_reward","","html-keyboard-response","348","1858624","0.0-345.0","0","0","uNe1z","People","","513","","","","32","","13","","50","","","","1","","","","","3","","","","","142","513","","","","","","","","","","","","","","","","","","","","","","","","",""
"","reward_outcome","","html-keyboard-response","349","1860640","0.0-346.0","0","0","uNe1z","People","","169","","","","40","","13","","50","","","","","","","","","","","","","","","","-1","169","","","","","","","","","","","","","","","","","","","","","","",""
"","fixation","","html-keyboard-response","350","1861654","0.0-349.0","0","0","uNe1z","People","","null","","","","null","","","","","","","","","","","","","","","","","","","","","","","","","","","","","","","","","","","","","","","","","","","",""
"","see_reward","","html-keyboard-response","351","1862159","0.0-350.0","0","0","uNe1z","People","","499","","","","32","","2","","51","","","","1","","","","","3","","","","","149","499","","","","","","","","","","","","","","","","","","","","","","","","",""
"","reward_outcome","","html-keyboard-response","352","1864165","0.0-351.0","0","0","uNe1z","People","","227","","","","38","","2","","51","","","","","","","","","","","","","","","","1","227","","","","","","","","","","","","","","","","","","","","","","",""
