"success","ttype","start_time","trial_type","trial_index","time_elapsed","internal_node_id","warning","missed_checkup","PID","stim_type","view_history","rt","responses","repeat_instructions","key_press","response","stimulus_id","painting","index","stimulus_left","stimulus_right","explain_trial","reward_type","rating_left","rating_right","painting_left","painting_right","block","left_chosen","chosen_obj","unchosen_obj","explain_response","reward_amount","see_reward_rt","register_reward_response","register_reward_rt","deliberation_reward_tally","stimulus_left_deliberation_ind","stimulus_right_deliberation_ind","chosen_trial","gain_left","higher_outcome_chosen","old_pair","chosen_object","rt_pairs","left_object_chosen","rt_object","old_response","new_rating","deliberated_stim","initial_rating","outcome_eval_rt","outcome_eval_response","outcome_eval_gain","outcome_eval_acc","preamble","outcome_eval_confidence","outcome_eval_confidence_rt","total_reward_tally"
"true","full_screen","d01192023hr2034","fullscreen","0","8788","0.0-0.0","0","0","AT3xf","Scenes","","","","","","","","","","","","","","","","","","","","","","","","","","","","","","","","","","","","","","","","","","","","","","","","",""
"","rating_instructions","","instructions","1","15594","0.0-1.0-0.0","0","0","AT3xf","Scenes","[{""page_index"":0,""viewing_time"":5081},{""page_index"":1,""viewing_time"":1725}]","6806","","","","","","","","","","","","","","","","","","","","","","","","","","","","","","","","","","","","","","","","","","","","","","",""
"","rating_comprehension_check","","survey-multi-choice","2","20595","0.0-1.0-1.0","0","0","AT3xf","Scenes","","5000","{""Q0"":""True"",""Q1"":""Mouse""}","0","","","","","","","","","","","","","","","","","","","","","","","","","","","","","","","","","","","","","","","","","","","","",""
"","start_phase","","html-keyboard-response","3","22397","0.0-2.0","0","0","AT3xf","Scenes","","1800","","","78","","","","","","","","","","","","","","","","","","","","","","","","","","","","","","","","","","","","","","","","","","","",""
"","rating","","html-slider-response","4","24693","0.0-3.0","0","0","AT3xf","Scenes","","2295","","","","70","122","jeff-king-bJHWJeiHfHc-unsplash.jpg","0","","","","","","","","","","","","","","","","","","","","","","","","","","","","","","","","","","","","","","","",""
"","rating","","html-slider-response","5","26385","0.0-4.0","0","0","AT3xf","Scenes","","1690","","","","88","147","tobias-keller-73F4pKoUkM0-unsplash.jpg","1","","","","","","","","","","","","","","","","","","","","","","","","","","","","","","","","","","","","","","","",""
"","rating","","html-slider-response","6","27881","0.0-5.0","0","0","AT3xf","Scenes","","1494","","","","79","139","samsommer-vddccTqwal8-unsplash.jpg","2","","","","","","","","","","","","","","","","","","","","","","","","","","","","","","","","","","","","","","","",""
"","rating","","html-slider-response","7","29480","0.0-6.0","0","0","AT3xf","Scenes","","1597","","","","93","124","johannes-plenio-sPt5RIjKfpk-unsplash.jpg","3","","","","","","","","","","","","","","","","","","","","","","","","","","","","","","","","","","","","","","","",""
"","rating","","html-slider-response","8","30785","0.0-7.0","0","0","AT3xf","Scenes","","1304","","","","92","119","james-wheeler-AFC0XvICMgs-unsplash.jpg","4","","","","","","","","","","","","","","","","","","","","","","","","","","","","","","","","","","","","","","","",""
"","rating","","html-slider-response","9","32350","0.0-8.0","0","0","AT3xf","Scenes","","1565","","","","67","117","frank-mckenna-OD9EOzfSOh0-unsplash.jpg","5","","","","","","","","","","","","","","","","","","","","","","","","","","","","","","","","","","","","","","","",""
"","rating","","html-slider-response","10","34201","0.0-9.0","0","0","AT3xf","Scenes","","1850","","","","59","107","benjamin-davies-Zm2n2O7Fph4-unsplash.jpg","6","","","","","","","","","","","","","","","","","","","","","","","","","","","","","","","","","","","","","","","",""
"","rating","","html-slider-response","11","35911","0.0-10.0","0","0","AT3xf","Scenes","","1709","","","","92","108","benjamin-voros-phIFdC6lA4E-unsplash.jpg","7","","","","","","","","","","","","","","","","","","","","","","","","","","","","","","","","","","","","","","","",""
"","rating","","html-slider-response","12","37457","0.0-11.0","0","0","AT3xf","Scenes","","1544","","","","85","125","john-lee-oMneOBYhJxY-unsplash.jpg","8","","","","","","","","","","","","","","","","","","","","","","","","","","","","","","","","","","","","","","","",""
"","rating","","html-slider-response","13","38998","0.0-12.0","0","0","AT3xf","Scenes","","1539","","","","82","106","ashim-d-silva-WeYamle9fDM-unsplash.jpg","9","","","","","","","","","","","","","","","","","","","","","","","","","","","","","","","","","","","","","","","",""
"","rating","","html-slider-response","14","40576","0.0-13.0","0","0","AT3xf","Scenes","","1577","","","","66","144","solotravelgoals-7kLufxYoqWk-unsplash.jpg","10","","","","","","","","","","","","","","","","","","","","","","","","","","","","","","","","","","","","","","","",""
"","rating","","html-slider-response","15","42033","0.0-14.0","0","0","AT3xf","Scenes","","1457","","","","67","116","david-marcu-W5MhJ6cy1So-unsplash.jpg","11","","","","","","","","","","","","","","","","","","","","","","","","","","","","","","","","","","","","","","","",""
"","rating","","html-slider-response","16","43553","0.0-15.0","0","0","AT3xf","Scenes","","1518","","","","64","114","daniel-sessler-z_9VmsxR8hs-unsplash.jpg","12","","","","","","","","","","","","","","","","","","","","","","","","","","","","","","","","","","","","","","","",""
"","rating","","html-slider-response","17","45274","0.0-16.0","0","0","AT3xf","Scenes","","1721","","","","57","104","artem-sapegin-XGDBdSQ70O0-unsplash.jpg","13","","","","","","","","","","","","","","","","","","","","","","","","","","","","","","","","","","","","","","","",""
"","rating","","html-slider-response","18","46867","0.0-17.0","0","0","AT3xf","Scenes","","1591","","","","57","121","jean-pierre-brungs-qxCqkbF7tUc-unsplash.jpg","14","","","","","","","","","","","","","","","","","","","","","","","","","","","","","","","","","","","","","","","",""
"","rating","","html-slider-response","19","48644","0.0-18.0","0","0","AT3xf","Scenes","","1777","","","","56","105","ashim-d-silva-S2Q5mdOrrVc-unsplash.jpg","15","","","","","","","","","","","","","","","","","","","","","","","","","","","","","","","","","","","","","","","",""
"","rating","","html-slider-response","20","51752","0.0-19.0","0","0","AT3xf","Scenes","","3108","","","","67","136","nicolas-jehly-LzVB84KkZOE-unsplash.jpg","16","","","","","","","","","","","","","","","","","","","","","","","","","","","","","","","","","","","","","","","",""
"","rating","","html-slider-response","21","53357","0.0-20.0","0","0","AT3xf","Scenes","","1603","","","","75","101","aniket-deole-T-tOgjWZ0fQ-unsplash.jpg","17","","","","","","","","","","","","","","","","","","","","","","","","","","","","","","","","","","","","","","","",""
"","rating","","html-slider-response","22","54830","0.0-21.0","0","0","AT3xf","Scenes","","1473","","","","77","145","stephen-leonardi-gyIRjKPXupE-unsplash.jpg","18","","","","","","","","","","","","","","","","","","","","","","","","","","","","","","","","","","","","","","","",""
"","rating","","html-slider-response","23","56320","0.0-22.0","0","0","AT3xf","Scenes","","1488","","","","66","143","sigurdur-fjalar-jonsson-1KxBabIntpE-unsplash.jpg","19","","","","","","","","","","","","","","","","","","","","","","","","","","","","","","","","","","","","","","","",""
"","rating","","html-slider-response","24","58351","0.0-23.0","0","0","AT3xf","Scenes","","2031","","","","59","113","damian-denis-D8R_txR_0PE-unsplash.jpg","20","","","","","","","","","","","","","","","","","","","","","","","","","","","","","","","","","","","","","","","",""
"","rating","","html-slider-response","25","59889","0.0-24.0","0","0","AT3xf","Scenes","","1538","","","","56","126","jordan-mcqueen-PJCZOWuOxbU-unsplash.jpg","21","","","","","","","","","","","","","","","","","","","","","","","","","","","","","","","","","","","","","","","",""
"","rating","","html-slider-response","26","62129","0.0-25.0","0","0","AT3xf","Scenes","","2238","","","","56","129","kurt-cotoaga-cqbLg3lZEpk-unsplash.jpg","22","","","","","","","","","","","","","","","","","","","","","","","","","","","","","","","","","","","","","","","",""
"","rating","","html-slider-response","27","64322","0.0-26.0","0","0","AT3xf","Scenes","","2191","","","","93","140","samuele-errico-piccarini-JEBqFu2AOOA-unsplash.jpg","23","","","","","","","","","","","","","","","","","","","","","","","","","","","","","","","","","","","","","","","",""
"","rating","","html-slider-response","28","66220","0.0-27.0","0","0","AT3xf","Scenes","","1897","","","","79","134","milada-vigerova-pQMM63GE7fo-unsplash.jpg","24","","","","","","","","","","","","","","","","","","","","","","","","","","","","","","","","","","","","","","","",""
"","rating","","html-slider-response","29","67553","0.0-28.0","0","0","AT3xf","Scenes","","1332","","","","65","111","claudio-testa-U3F2o6vz3bs-unsplash.jpg","25","","","","","","","","","","","","","","","","","","","","","","","","","","","","","","","","","","","","","","","",""
"","rating","","html-slider-response","30","69500","0.0-29.0","0","0","AT3xf","Scenes","","1946","","","","95","112","cosmic-timetraveler-pYyOZ8q7AII-unsplash.jpg","26","","","","","","","","","","","","","","","","","","","","","","","","","","","","","","","","","","","","","","","",""
"","rating","","html-slider-response","31","71215","0.0-30.0","0","0","AT3xf","Scenes","","1714","","","","61","100","aleksandra-boguslawska-MS7KD9Ti7FQ-unsplash.jpg","27","","","","","","","","","","","","","","","","","","","","","","","","","","","","","","","","","","","","","","","",""
"","rating","","html-slider-response","32","72947","0.0-31.0","0","0","AT3xf","Scenes","","1732","","","","57","149","yuriy-bogdanov-W51VK3Obcj0-unsplash.jpg","28","","","","","","","","","","","","","","","","","","","","","","","","","","","","","","","","","","","","","","","",""
"","rating","","html-slider-response","33","74776","0.0-32.0","0","0","AT3xf","Scenes","","1827","","","","55","131","luca-bravo-hFzIoD0F_i8-unsplash.jpg","29","","","","","","","","","","","","","","","","","","","","","","","","","","","","","","","","","","","","","","","",""
"","rating","","html-slider-response","34","76134","0.0-33.0","0","0","AT3xf","Scenes","","1357","","","","67","110","bruno-van-der-kraan-qez8mNJ3ilU-unsplash.jpg","30","","","","","","","","","","","","","","","","","","","","","","","","","","","","","","","","","","","","","","","",""
"","rating","","html-slider-response","35","77698","0.0-34.0","0","0","AT3xf","Scenes","","1563","","","","59","102","anisur-rahman-K2b7UDed6uQ-unsplash.jpg","31","","","","","","","","","","","","","","","","","","","","","","","","","","","","","","","","","","","","","","","",""
"","rating","","html-slider-response","36","79033","0.0-35.0","0","0","AT3xf","Scenes","","1334","","","","61","103","anton-darius-FBJugtbHsWU-unsplash.jpg","32","","","","","","","","","","","","","","","","","","","","","","","","","","","","","","","","","","","","","","","",""
"","rating","","html-slider-response","37","80530","0.0-36.0","0","0","AT3xf","Scenes","","1496","","","","82","137","olga-stalska-QaWRyEdlffY-unsplash.jpg","33","","","","","","","","","","","","","","","","","","","","","","","","","","","","","","","","","","","","","","","",""
"","rating","","html-slider-response","38","81846","0.0-37.0","0","0","AT3xf","Scenes","","1315","","","","68","109","brigitta-schneiter-hXXRLtTxXCU-unsplash.jpg","34","","","","","","","","","","","","","","","","","","","","","","","","","","","","","","","","","","","","","","","",""
"","rating","","html-slider-response","39","83559","0.0-38.0","0","0","AT3xf","Scenes","","1713","","","","80","135","mohammad-alizade-4wzRuAb-KWs-unsplash.jpg","35","","","","","","","","","","","","","","","","","","","","","","","","","","","","","","","","","","","","","","","",""
"","rating","","html-slider-response","40","85035","0.0-39.0","0","0","AT3xf","Scenes","","1474","","","","88","148","tom-gainor-ZqLeQDjY6fY-unsplash.jpg","36","","","","","","","","","","","","","","","","","","","","","","","","","","","","","","","","","","","","","","","",""
"","rating","","html-slider-response","41","86484","0.0-40.0","0","0","AT3xf","Scenes","","1448","","","","77","127","kace-rodriguez-p3OzJuT_Dks-unsplash.jpg","37","","","","","","","","","","","","","","","","","","","","","","","","","","","","","","","","","","","","","","","",""
"","rating","","html-slider-response","42","87836","0.0-41.0","0","0","AT3xf","Scenes","","1351","","","","78","128","karsten-wurth-jS0zC2PJ17A-unsplash.jpg","38","","","","","","","","","","","","","","","","","","","","","","","","","","","","","","","","","","","","","","","",""
"","rating","","html-slider-response","43","89025","0.0-42.0","0","0","AT3xf","Scenes","","1188","","","","65","146","thomas-morse-cuKKa0vWZSY-unsplash.jpg","39","","","","","","","","","","","","","","","","","","","","","","","","","","","","","","","","","","","","","","","",""
"","rating","","html-slider-response","44","91102","0.0-43.0","0","0","AT3xf","Scenes","","2076","","","","81","132","meng-ji-8BH_M-53CyA-unsplash.jpg","40","","","","","","","","","","","","","","","","","","","","","","","","","","","","","","","","","","","","","","","",""
"","rating","","html-slider-response","45","93307","0.0-44.0","0","0","AT3xf","Scenes","","2204","","","","74","142","sergey-pesterev-y-b_FOmJXdg-unsplash.jpg","41","","","","","","","","","","","","","","","","","","","","","","","","","","","","","","","","","","","","","","","",""
"","rating","","html-slider-response","46","95218","0.0-45.0","0","0","AT3xf","Scenes","","1910","","","","89","123","joel-jasmin-forestbird-efuwb5eBDrI-unsplash.jpg","42","","","","","","","","","","","","","","","","","","","","","","","","","","","","","","","","","","","","","","","",""
"","rating","","html-slider-response","47","97047","0.0-46.0","0","0","AT3xf","Scenes","","1828","","","","82","141","sebastian-unrau-v4e3JI7DDHI-unsplash.jpg","43","","","","","","","","","","","","","","","","","","","","","","","","","","","","","","","","","","","","","","","",""
"","rating","","html-slider-response","48","98292","0.0-47.0","0","0","AT3xf","Scenes","","1245","","","","77","118","henry-be-NLF6hTe4PAg-unsplash.jpg","44","","","","","","","","","","","","","","","","","","","","","","","","","","","","","","","","","","","","","","","",""
"","rating","","html-slider-response","49","99545","0.0-48.0","0","0","AT3xf","Scenes","","1252","","","","77","120","jarrett-kow-1ZOyYPOBn7I-unsplash.jpg","45","","","","","","","","","","","","","","","","","","","","","","","","","","","","","","","","","","","","","","","",""
"","rating","","html-slider-response","50","100522","0.0-49.0","0","0","AT3xf","Scenes","","976","","","","78","138","petr-vysohlid-9fqwGqGLUxc-unsplash.jpg","46","","","","","","","","","","","","","","","","","","","","","","","","","","","","","","","","","","","","","","","",""
"","rating","","html-slider-response","51","101848","0.0-50.0","0","0","AT3xf","Scenes","","1325","","","","79","130","lina-loos-04-C1NZk1hE-unsplash.jpg","47","","","","","","","","","","","","","","","","","","","","","","","","","","","","","","","","","","","","","","","",""
"","rating","","html-slider-response","52","102894","0.0-51.0","0","0","AT3xf","Scenes","","1045","","","","79","115","darrell-cassell-hoCXpPUMCoE-unsplash.jpg","48","","","","","","","","","","","","","","","","","","","","","","","","","","","","","","","","","","","","","","","",""
"","rating","","html-slider-response","53","103874","0.0-52.0","0","0","AT3xf","Scenes","","978","","","","67","133","mickey-o-neil-xL66l--msXU-unsplash.jpg","49","","","","","","","","","","","","","","","","","","","","","","","","","","","","","","","","","","","","","","","",""
"","deliberation_instructions","","instructions","54","142542","0.0-53.0-0.0","0","0","AT3xf","Scenes","[{""page_index"":0,""viewing_time"":10592},{""page_index"":1,""viewing_time"":9493},{""page_index"":2,""viewing_time"":3575},{""page_index"":3,""viewing_time"":13593},{""page_index"":4,""viewing_time"":1413}]","38666","","","","","","","","","","","","","","","","","","","","","","","","","","","","","","","","","","","","","","","","","","","","","","",""
"","deliberation_comprehension_check","","survey-multi-choice","55","169596","0.0-53.0-1.0","0","0","AT3xf","Scenes","","27051","{""Q0"":""True"",""Q1"":""True"",""Q2"":""Consider carefully and take your time (up to 10 seconds)"",""Q3"":""False"",""Q4"":""K""}","1","","","","","","","","","","","","","","","","","","","","","","","","","","","","","","","","","","","","","","","","","","","","",""
"","missed_instruction_checkup","","html-keyboard-response","56","171856","0.0-53.0-2.0-0.0","0","1","AT3xf","Scenes","","2259","","","78","","","","","","","","","","","","","","","","","","","","","","","","","","","","","","","","","","","","","","","","","","","",""
"","deliberation_instructions","","instructions","57","193006","0.0-53.1-0.1","0","0","AT3xf","Scenes","[{""page_index"":0,""viewing_time"":2921},{""page_index"":1,""viewing_time"":3687},{""page_index"":2,""viewing_time"":12608},{""page_index"":3,""viewing_time"":902},{""page_index"":4,""viewing_time"":1031}]","21149","","","","","","","","","","","","","","","","","","","","","","","","","","","","","","","","","","","","","","","","","","","","","","",""
"","deliberation_comprehension_check","","survey-multi-choice","58","199326","0.0-53.1-1.1","0","0","AT3xf","Scenes","","6317","{""Q0"":""True"",""Q1"":""True"",""Q2"":""Consider carefully and take your time (up to 10 seconds)"",""Q3"":""True"",""Q4"":""D""}","0","","","","","","","","","","","","","","","","","","","","","","","","","","","","","","","","","","","","","","","","","","","","",""
"","start_phase","","html-keyboard-response","59","201077","0.0-54.0","0","0","AT3xf","Scenes","","1749","","","78","","","","","","","","","","","","","","","","","","","","","","","","","","","","","","","","","","","","","","","","","","","",""
"","first_deliberation_block","","html-keyboard-response","60","202855","0.0-55.0","0","0","AT3xf","Scenes","","1778","","","78","","","","","","","","","","","","","","","","","","","","","","","","","","","","","","","","","","","","","","","","","","","",""
"","fixation","","html-keyboard-response","61","203867","0.0-56.0-0.0","0","0","AT3xf","Scenes","","null","","","null","","","","","","","","","","","","","","","","","","","","","","","","","","","","","","","","","","","","","","","","","","","",""
"","deliberation","","html-keyboard-response","62","205555","0.0-56.0-1.0","0","0","AT3xf","Scenes","","1687","","","68","","","","0","120","116","1","1","77","67","jarrett-kow-1ZOyYPOBn7I-unsplash.jpg","david-marcu-W5MhJ6cy1So-unsplash.jpg","1","1","120","116","","","","","","","","","","","","","","","","","","","","","","","","","","","",""
"","choice_confirmation","","html-keyboard-response","63","206069","0.0-56.0-2.0-0.0","0","0","AT3xf","Scenes","","null","","","null","","","","0","120","116","","","","","","","","","","","","","","","","","","","","","","","","","","","","","","","","","","","","","",""
"","explain_trial","","survey-text","64","216244","0.0-56.0-5.0-0.0","0","0","AT3xf","Scenes","","10173","{""Q0"":""I like the color pallet better""}","","","","","","0","120","116","","","","","","","","","","","{""Q0"":""I like the color pallet better""}","","","","","","","","","","","","","","","","","","","","","","","","","","",""
"","fixation","","html-keyboard-response","65","217249","0.0-57.0-0.0","0","0","AT3xf","Scenes","","null","","","null","","","","","","","","","","","","","","","","","","","","","","","","","","","","","","","","","","","","","","","","","","","",""
"","deliberation","","html-keyboard-response","66","219003","0.0-57.0-1.0","0","0","AT3xf","Scenes","","1753","","","68","","","","1","101","130","1","-1","75","79","aniket-deole-T-tOgjWZ0fQ-unsplash.jpg","lina-loos-04-C1NZk1hE-unsplash.jpg","1","1","101","130","","","","","","","","","","","","","","","","","","","","","","","","","","","",""
"","choice_confirmation","","html-keyboard-response","67","219505","0.0-57.0-2.0-0.0","0","0","AT3xf","Scenes","","null","","","null","","","","1","101","130","","","","","","","","","","","","","","","","","","","","","","","","","","","","","","","","","","","","","",""
"","explain_trial","","survey-text","68","229707","0.0-57.0-5.0-0.0","0","0","AT3xf","Scenes","","10202","{""Q0"":""I think overall the angle is more pleasing""}","","","","","","1","101","130","","","","","","","","","","","{""Q0"":""I think overall the angle is more pleasing""}","","","","","","","","","","","","","","","","","","","","","","","","","","",""
"","fixation","","html-keyboard-response","69","230712","0.0-58.0-0.0","0","0","AT3xf","Scenes","","null","","","null","","","","","","","","","","","","","","","","","","","","","","","","","","","","","","","","","","","","","","","","","","","",""
"","deliberation","","html-keyboard-response","70","232411","0.0-58.0-1.0","0","0","AT3xf","Scenes","","1697","","","75","","","","2","111","146","0","1","65","65","claudio-testa-U3F2o6vz3bs-unsplash.jpg","thomas-morse-cuKKa0vWZSY-unsplash.jpg","1","0","146","111","","","","","","","","","","","","","","","","","","","","","","","","","","","",""
"","choice_confirmation","","html-keyboard-response","71","232915","0.0-58.0-2.0-0.0","0","0","AT3xf","Scenes","","null","","","null","","","","2","111","146","","","","","","","","","","","","","","","","","","","","","","","","","","","","","","","","","","","","","",""
"","fixation","","html-keyboard-response","72","233917","0.0-59.0-0.0","0","0","AT3xf","Scenes","","null","","","null","","","","","","","","","","","","","","","","","","","","","","","","","","","","","","","","","","","","","","","","","","","",""
"","deliberation","","html-keyboard-response","73","235500","0.0-59.0-1.0","0","0","AT3xf","Scenes","","1581","","","68","","","","3","135","145","0","-1","80","77","mohammad-alizade-4wzRuAb-KWs-unsplash.jpg","stephen-leonardi-gyIRjKPXupE-unsplash.jpg","1","1","135","145","","","","","","","","","","","","","","","","","","","","","","","","","","","",""
"","choice_confirmation","","html-keyboard-response","74","236013","0.0-59.0-2.0-0.0","0","0","AT3xf","Scenes","","null","","","null","","","","3","135","145","","","","","","","","","","","","","","","","","","","","","","","","","","","","","","","","","","","","","",""
"","fixation","","html-keyboard-response","75","237023","0.0-60.0-0.0","0","0","AT3xf","Scenes","","null","","","null","","","","","","","","","","","","","","","","","","","","","","","","","","","","","","","","","","","","","","","","","","","",""
"","deliberation","","html-keyboard-response","76","239048","0.0-60.0-1.0","0","0","AT3xf","Scenes","","2023","","","68","","","","4","144","138","1","1","66","78","solotravelgoals-7kLufxYoqWk-unsplash.jpg","petr-vysohlid-9fqwGqGLUxc-unsplash.jpg","1","1","144","138","","","","","","","","","","","","","","","","","","","","","","","","","","","",""
"","choice_confirmation","","html-keyboard-response","77","239558","0.0-60.0-2.0-0.0","0","0","AT3xf","Scenes","","null","","","null","","","","4","144","138","","","","","","","","","","","","","","","","","","","","","","","","","","","","","","","","","","","","","",""
"","explain_trial","","survey-text","78","252204","0.0-60.0-5.0-0.0","0","0","AT3xf","Scenes","","12646","{""Q0"":""I like the contrast of the blue sky to the red rocks""}","","","","","","4","144","138","","","","","","","","","","","{""Q0"":""I like the contrast of the blue sky to the red rocks""}","","","","","","","","","","","","","","","","","","","","","","","","","","",""
"","fixation","","html-keyboard-response","79","253208","0.0-61.0-0.0","0","0","AT3xf","Scenes","","null","","","null","","","","","","","","","","","","","","","","","","","","","","","","","","","","","","","","","","","","","","","","","","","",""
"","deliberation","","html-keyboard-response","80","255605","0.0-61.0-1.0","0","0","AT3xf","Scenes","","2395","","","68","","","","5","136","117","0","-1","67","67","nicolas-jehly-LzVB84KkZOE-unsplash.jpg","frank-mckenna-OD9EOzfSOh0-unsplash.jpg","1","1","136","117","","","","","","","","","","","","","","","","","","","","","","","","","","","",""
"","choice_confirmation","","html-keyboard-response","81","256122","0.0-61.0-2.0-0.0","0","0","AT3xf","Scenes","","null","","","null","","","","5","136","117","","","","","","","","","","","","","","","","","","","","","","","","","","","","","","","","","","","","","",""
"","fixation","","html-keyboard-response","82","257136","0.0-62.0-0.0","0","0","AT3xf","Scenes","","null","","","null","","","","","","","","","","","","","","","","","","","","","","","","","","","","","","","","","","","","","","","","","","","",""
"","deliberation","","html-keyboard-response","83","258774","0.0-62.0-1.0","0","0","AT3xf","Scenes","","1636","","","68","","","","6","110","134","0","-1","67","79","bruno-van-der-kraan-qez8mNJ3ilU-unsplash.jpg","milada-vigerova-pQMM63GE7fo-unsplash.jpg","1","1","110","134","","","","","","","","","","","","","","","","","","","","","","","","","","","",""
"","choice_confirmation","","html-keyboard-response","84","259286","0.0-62.0-2.0-0.0","0","0","AT3xf","Scenes","","null","","","null","","","","6","110","134","","","","","","","","","","","","","","","","","","","","","","","","","","","","","","","","","","","","","",""
"","fixation","","html-keyboard-response","85","260309","0.0-63.0-0.0","0","0","AT3xf","Scenes","","null","","","null","","","","","","","","","","","","","","","","","","","","","","","","","","","","","","","","","","","","","","","","","","","",""
"","deliberation","","html-keyboard-response","86","261203","0.0-63.0-1.0","0","0","AT3xf","Scenes","","893","","","68","","","","7","109","143","0","1","68","66","brigitta-schneiter-hXXRLtTxXCU-unsplash.jpg","sigurdur-fjalar-jonsson-1KxBabIntpE-unsplash.jpg","1","1","109","143","","","","","","","","","","","","","","","","","","","","","","","","","","","",""
"","choice_confirmation","","html-keyboard-response","87","261714","0.0-63.0-2.0-0.0","0","0","AT3xf","Scenes","","null","","","null","","","","7","109","143","","","","","","","","","","","","","","","","","","","","","","","","","","","","","","","","","","","","","",""
"","fixation","","html-keyboard-response","88","262732","0.0-64.0-0.0","0","0","AT3xf","Scenes","","null","","","null","","","","","","","","","","","","","","","","","","","","","","","","","","","","","","","","","","","","","","","","","","","",""
"","deliberation","","html-keyboard-response","89","264365","0.0-64.0-1.0","0","0","AT3xf","Scenes","","1631","","","75","","","","8","118","142","1","1","77","74","henry-be-NLF6hTe4PAg-unsplash.jpg","sergey-pesterev-y-b_FOmJXdg-unsplash.jpg","1","0","142","118","","","","","","","","","","","","","","","","","","","","","","","","","","","",""
"","choice_confirmation","","html-keyboard-response","90","264882","0.0-64.0-2.0-0.0","0","0","AT3xf","Scenes","","null","","","null","","","","8","118","142","","","","","","","","","","","","","","","","","","","","","","","","","","","","","","","","","","","","","",""
"","explain_trial","","survey-text","91","278277","0.0-64.0-5.0-0.0","0","0","AT3xf","Scenes","","13394","{""Q0"":""I like how different this looks, its very unique ""}","","","","","","8","118","142","","","","","","","","","","","{""Q0"":""I like how different this looks, its very unique ""}","","","","","","","","","","","","","","","","","","","","","","","","","","",""
"","fixation","","html-keyboard-response","92","279286","0.0-65.0-0.0","0","0","AT3xf","Scenes","","null","","","null","","","","","","","","","","","","","","","","","","","","","","","","","","","","","","","","","","","","","","","","","","","",""
"","deliberation","","html-keyboard-response","93","281499","0.0-65.0-1.0","0","0","AT3xf","Scenes","","2212","","","75","","","","9","115","128","0","-1","79","78","darrell-cassell-hoCXpPUMCoE-unsplash.jpg","karsten-wurth-jS0zC2PJ17A-unsplash.jpg","1","0","128","115","","","","","","","","","","","","","","","","","","","","","","","","","","","",""
"","choice_confirmation","","html-keyboard-response","94","282010","0.0-65.0-2.0-0.0","0","0","AT3xf","Scenes","","null","","","null","","","","9","115","128","","","","","","","","","","","","","","","","","","","","","","","","","","","","","","","","","","","","","",""
"","fixation","","html-keyboard-response","95","283018","0.0-66.0-0.0","0","0","AT3xf","Scenes","","null","","","null","","","","","","","","","","","","","","","","","","","","","","","","","","","","","","","","","","","","","","","","","","","",""
"","deliberation","","html-keyboard-response","96","284264","0.0-66.0-1.0","0","0","AT3xf","Scenes","","1244","","","68","","","","10","133","127","1","1","67","77","mickey-o-neil-xL66l--msXU-unsplash.jpg","kace-rodriguez-p3OzJuT_Dks-unsplash.jpg","1","1","133","127","","","","","","","","","","","","","","","","","","","","","","","","","","","",""
"","choice_confirmation","","html-keyboard-response","97","284772","0.0-66.0-2.0-0.0","0","0","AT3xf","Scenes","","null","","","null","","","","10","133","127","","","","","","","","","","","","","","","","","","","","","","","","","","","","","","","","","","","","","",""
"","explain_trial","","survey-text","98","299160","0.0-66.0-5.0-0.0","0","0","AT3xf","Scenes","","14386","{""Q0"":""I really like the bright blue boat on the white sand it really stands out""}","","","","","","10","133","127","","","","","","","","","","","{""Q0"":""I really like the bright blue boat on the white sand it really stands out""}","","","","","","","","","","","","","","","","","","","","","","","","","","",""
"","fixation","","html-keyboard-response","99","300173","0.0-67.0-0.0","0","0","AT3xf","Scenes","","null","","","null","","","","","","","","","","","","","","","","","","","","","","","","","","","","","","","","","","","","","","","","","","","",""
"","deliberation","","html-keyboard-response","100","301249","0.0-67.0-1.0","0","0","AT3xf","Scenes","","1075","","","68","","","","11","139","122","1","-1","79","70","samsommer-vddccTqwal8-unsplash.jpg","jeff-king-bJHWJeiHfHc-unsplash.jpg","1","1","139","122","","","","","","","","","","","","","","","","","","","","","","","","","","","",""
"","choice_confirmation","","html-keyboard-response","101","301752","0.0-67.0-2.0-0.0","0","0","AT3xf","Scenes","","null","","","null","","","","11","139","122","","","","","","","","","","","","","","","","","","","","","","","","","","","","","","","","","","","","","",""
"","explain_trial","","survey-text","102","343364","0.0-67.0-5.0-0.0","0","0","AT3xf","Scenes","","41611","{""Q0"":""I like the other worldly feel this has""}","","","","","","11","139","122","","","","","","","","","","","{""Q0"":""I like the other worldly feel this has""}","","","","","","","","","","","","","","","","","","","","","","","","","","",""
"","practice_deliberation_again","","html-keyboard-response","103","346303","0.0-67.0-6.0-0.0","0","0","AT3xf","Scenes","","2937","","","78","","","","","","","","","","","","","","","","","","","","","","","","","","","","","","","","","","","","","","","","","","","",""
"","fixation","","html-keyboard-response","104","347321","0.0-68.0-0.0","0","0","AT3xf","Scenes","","null","","","null","","","","","","","","","","","","","","","","","","","","","","","","","","","","","","","","","","","","","","","","","","","",""
"","deliberation","","html-keyboard-response","105","349272","0.0-68.0-1.0","0","0","AT3xf","Scenes","","1949","","","75","","","","12","118","142","0","1","77","74","henry-be-NLF6hTe4PAg-unsplash.jpg","sergey-pesterev-y-b_FOmJXdg-unsplash.jpg","2","0","142","118","","","","","","","","","","","","","","","","","","","","","","","","","","","",""
"","choice_confirmation","","html-keyboard-response","106","349780","0.0-68.0-2.0-0.0","0","0","AT3xf","Scenes","","null","","","null","","","","12","118","142","","","","","","","","","","","","","","","","","","","","","","","","","","","","","","","","","","","","","",""
"","fixation","","html-keyboard-response","107","350787","0.0-69.0-0.0","0","0","AT3xf","Scenes","","null","","","null","","","","","","","","","","","","","","","","","","","","","","","","","","","","","","","","","","","","","","","","","","","",""
"","deliberation","","html-keyboard-response","108","351911","0.0-69.0-1.0","0","0","AT3xf","Scenes","","1124","","","68","","","","13","120","116","0","1","77","67","jarrett-kow-1ZOyYPOBn7I-unsplash.jpg","david-marcu-W5MhJ6cy1So-unsplash.jpg","2","1","120","116","","","","","","","","","","","","","","","","","","","","","","","","","","","",""
"","choice_confirmation","","html-keyboard-response","109","352417","0.0-69.0-2.0-0.0","0","0","AT3xf","Scenes","","null","","","null","","","","13","120","116","","","","","","","","","","","","","","","","","","","","","","","","","","","","","","","","","","","","","",""
"","fixation","","html-keyboard-response","110","353438","0.0-70.0-0.0","0","0","AT3xf","Scenes","","null","","","null","","","","","","","","","","","","","","","","","","","","","","","","","","","","","","","","","","","","","","","","","","","",""
"","deliberation","","html-keyboard-response","111","354942","0.0-70.0-1.0","0","0","AT3xf","Scenes","","1503","","","68","","","","14","136","117","1","-1","67","67","nicolas-jehly-LzVB84KkZOE-unsplash.jpg","frank-mckenna-OD9EOzfSOh0-unsplash.jpg","2","1","136","117","","","","","","","","","","","","","","","","","","","","","","","","","","","",""
"","choice_confirmation","","html-keyboard-response","112","355449","0.0-70.0-2.0-0.0","0","0","AT3xf","Scenes","","null","","","null","","","","14","136","117","","","","","","","","","","","","","","","","","","","","","","","","","","","","","","","","","","","","","",""
"","explain_trial","","survey-text","113","368821","0.0-70.0-5.0-0.0","0","0","AT3xf","Scenes","","13370","{""Q0"":""I like how sci fi this looks witht eh huge sun over the hill\n""}","","","","","","14","136","117","","","","","","","","","","","{""Q0"":""I like how sci fi this looks witht eh huge sun over the hill\n""}","","","","","","","","","","","","","","","","","","","","","","","","","","",""
"","fixation","","html-keyboard-response","114","369824","0.0-71.0-0.0","0","0","AT3xf","Scenes","","null","","","null","","","","","","","","","","","","","","","","","","","","","","","","","","","","","","","","","","","","","","","","","","","",""
"","deliberation","","html-keyboard-response","115","371432","0.0-71.0-1.0","0","0","AT3xf","Scenes","","1606","","","68","","","","15","110","134","1","-1","67","79","bruno-van-der-kraan-qez8mNJ3ilU-unsplash.jpg","milada-vigerova-pQMM63GE7fo-unsplash.jpg","2","1","110","134","","","","","","","","","","","","","","","","","","","","","","","","","","","",""
"","choice_confirmation","","html-keyboard-response","116","371941","0.0-71.0-2.0-0.0","0","0","AT3xf","Scenes","","null","","","null","","","","15","110","134","","","","","","","","","","","","","","","","","","","","","","","","","","","","","","","","","","","","","",""
"","explain_trial","","survey-text","117","388146","0.0-71.0-5.0-0.0","0","0","AT3xf","Scenes","","16203","{""Q0"":""This has a very norse feel and I like how it looks\n""}","","","","","","15","110","134","","","","","","","","","","","{""Q0"":""This has a very norse feel and I like how it looks\n""}","","","","","","","","","","","","","","","","","","","","","","","","","","",""
"","fixation","","html-keyboard-response","118","389155","0.0-72.0-0.0","0","0","AT3xf","Scenes","","null","","","null","","","","","","","","","","","","","","","","","","","","","","","","","","","","","","","","","","","","","","","","","","","",""
"","deliberation","","html-keyboard-response","119","390574","0.0-72.0-1.0","0","0","AT3xf","Scenes","","1417","","","68","","","","16","109","143","1","1","68","66","brigitta-schneiter-hXXRLtTxXCU-unsplash.jpg","sigurdur-fjalar-jonsson-1KxBabIntpE-unsplash.jpg","2","1","109","143","","","","","","","","","","","","","","","","","","","","","","","","","","","",""
"","choice_confirmation","","html-keyboard-response","120","391083","0.0-72.0-2.0-0.0","0","0","AT3xf","Scenes","","null","","","null","","","","16","109","143","","","","","","","","","","","","","","","","","","","","","","","","","","","","","","","","","","","","","",""
"","explain_trial","","survey-text","121","399719","0.0-72.0-5.0-0.0","0","0","AT3xf","Scenes","","8634","{""Q0"":""I like the overall blue tone of the image""}","","","","","","16","109","143","","","","","","","","","","","{""Q0"":""I like the overall blue tone of the image""}","","","","","","","","","","","","","","","","","","","","","","","","","","",""
"","fixation","","html-keyboard-response","122","400722","0.0-73.0-0.0","0","0","AT3xf","Scenes","","null","","","null","","","","","","","","","","","","","","","","","","","","","","","","","","","","","","","","","","","","","","","","","","","",""
"","deliberation","","html-keyboard-response","123","402299","0.0-73.0-1.0","0","0","AT3xf","Scenes","","1575","","","68","","","","17","139","122","0","-1","79","70","samsommer-vddccTqwal8-unsplash.jpg","jeff-king-bJHWJeiHfHc-unsplash.jpg","2","1","139","122","","","","","","","","","","","","","","","","","","","","","","","","","","","",""
"","choice_confirmation","","html-keyboard-response","124","402810","0.0-73.0-2.0-0.0","0","0","AT3xf","Scenes","","null","","","null","","","","17","139","122","","","","","","","","","","","","","","","","","","","","","","","","","","","","","","","","","","","","","",""
"","fixation","","html-keyboard-response","125","403819","0.0-74.0-0.0","0","0","AT3xf","Scenes","","null","","","null","","","","","","","","","","","","","","","","","","","","","","","","","","","","","","","","","","","","","","","","","","","",""
"","deliberation","","html-keyboard-response","126","404656","0.0-74.0-1.0","0","0","AT3xf","Scenes","","836","","","68","","","","18","135","145","1","-1","80","77","mohammad-alizade-4wzRuAb-KWs-unsplash.jpg","stephen-leonardi-gyIRjKPXupE-unsplash.jpg","2","1","135","145","","","","","","","","","","","","","","","","","","","","","","","","","","","",""
"","choice_confirmation","","html-keyboard-response","127","405168","0.0-74.0-2.0-0.0","0","0","AT3xf","Scenes","","null","","","null","","","","18","135","145","","","","","","","","","","","","","","","","","","","","","","","","","","","","","","","","","","","","","",""
"","explain_trial","","survey-text","128","419325","0.0-74.0-5.0-0.0","0","0","AT3xf","Scenes","","14156","{""Q0"":""this has a very spacey feel and I think the contrast of colors is interesting""}","","","","","","18","135","145","","","","","","","","","","","{""Q0"":""this has a very spacey feel and I think the contrast of colors is interesting""}","","","","","","","","","","","","","","","","","","","","","","","","","","",""
"","fixation","","html-keyboard-response","129","420334","0.0-75.0-0.0","0","0","AT3xf","Scenes","","null","","","null","","","","","","","","","","","","","","","","","","","","","","","","","","","","","","","","","","","","","","","","","","","",""
"","deliberation","","html-keyboard-response","130","421752","0.0-75.0-1.0","0","0","AT3xf","Scenes","","1416","","","68","","","","19","144","138","0","1","66","78","solotravelgoals-7kLufxYoqWk-unsplash.jpg","petr-vysohlid-9fqwGqGLUxc-unsplash.jpg","2","1","144","138","","","","","","","","","","","","","","","","","","","","","","","","","","","",""
"","choice_confirmation","","html-keyboard-response","131","422265","0.0-75.0-2.0-0.0","0","0","AT3xf","Scenes","","null","","","null","","","","19","144","138","","","","","","","","","","","","","","","","","","","","","","","","","","","","","","","","","","","","","",""
"","fixation","","html-keyboard-response","132","423283","0.0-76.0-0.0","0","0","AT3xf","Scenes","","null","","","null","","","","","","","","","","","","","","","","","","","","","","","","","","","","","","","","","","","","","","","","","","","",""
"","deliberation","","html-keyboard-response","133","424712","0.0-76.0-1.0","0","0","AT3xf","Scenes","","1427","","","75","","","","20","115","128","1","-1","79","78","darrell-cassell-hoCXpPUMCoE-unsplash.jpg","karsten-wurth-jS0zC2PJ17A-unsplash.jpg","2","0","128","115","","","","","","","","","","","","","","","","","","","","","","","","","","","",""
"","choice_confirmation","","html-keyboard-response","134","425223","0.0-76.0-2.0-0.0","0","0","AT3xf","Scenes","","null","","","null","","","","20","115","128","","","","","","","","","","","","","","","","","","","","","","","","","","","","","","","","","","","","","",""
"","explain_trial","","survey-text","135","442635","0.0-76.0-5.0-0.0","0","0","AT3xf","Scenes","","17411","{""Q0"":""I like the different colors here teh bluish sky with the yellow grass""}","","","","","","20","115","128","","","","","","","","","","","{""Q0"":""I like the different colors here teh bluish sky with the yellow grass""}","","","","","","","","","","","","","","","","","","","","","","","","","","",""
"","fixation","","html-keyboard-response","136","443652","0.0-77.0-0.0","0","0","AT3xf","Scenes","","null","","","null","","","","","","","","","","","","","","","","","","","","","","","","","","","","","","","","","","","","","","","","","","","",""
"","deliberation","","html-keyboard-response","137","445049","0.0-77.0-1.0","0","0","AT3xf","Scenes","","1395","","","68","","","","21","101","130","0","-1","75","79","aniket-deole-T-tOgjWZ0fQ-unsplash.jpg","lina-loos-04-C1NZk1hE-unsplash.jpg","2","1","101","130","","","","","","","","","","","","","","","","","","","","","","","","","","","",""
"","choice_confirmation","","html-keyboard-response","138","445551","0.0-77.0-2.0-0.0","0","0","AT3xf","Scenes","","null","","","null","","","","21","101","130","","","","","","","","","","","","","","","","","","","","","","","","","","","","","","","","","","","","","",""
"","fixation","","html-keyboard-response","139","446569","0.0-78.0-0.0","0","0","AT3xf","Scenes","","null","","","null","","","","","","","","","","","","","","","","","","","","","","","","","","","","","","","","","","","","","","","","","","","",""
"","deliberation","","html-keyboard-response","140","447180","0.0-78.0-1.0","0","0","AT3xf","Scenes","","610","","","68","","","","22","133","127","0","1","67","77","mickey-o-neil-xL66l--msXU-unsplash.jpg","kace-rodriguez-p3OzJuT_Dks-unsplash.jpg","2","1","133","127","","","","","","","","","","","","","","","","","","","","","","","","","","","",""
"","choice_confirmation","","html-keyboard-response","141","447694","0.0-78.0-2.0-0.0","0","0","AT3xf","Scenes","","null","","","null","","","","22","133","127","","","","","","","","","","","","","","","","","","","","","","","","","","","","","","","","","","","","","",""
"","fixation","","html-keyboard-response","142","448702","0.0-79.0-0.0","0","0","AT3xf","Scenes","","null","","","null","","","","","","","","","","","","","","","","","","","","","","","","","","","","","","","","","","","","","","","","","","","",""
"","deliberation","","html-keyboard-response","143","449609","0.0-79.0-1.0","0","0","AT3xf","Scenes","","906","","","68","","","","23","111","146","1","1","65","65","claudio-testa-U3F2o6vz3bs-unsplash.jpg","thomas-morse-cuKKa0vWZSY-unsplash.jpg","2","1","111","146","","","","","","","","","","","","","","","","","","","","","","","","","","","",""
"","choice_confirmation","","html-keyboard-response","144","450125","0.0-79.0-2.0-0.0","0","0","AT3xf","Scenes","","null","","","null","","","","23","111","146","","","","","","","","","","","","","","","","","","","","","","","","","","","","","","","","","","","","","",""
"","explain_trial","","survey-text","145","458751","0.0-79.0-5.0-0.0","0","0","AT3xf","Scenes","","8624","{""Q0"":""I like th long lines that draw me in""}","","","","","","23","111","146","","","","","","","","","","","{""Q0"":""I like th long lines that draw me in""}","","","","","","","","","","","","","","","","","","","","","","","","","","",""
"","start_critical_deliberation_block","","html-keyboard-response","146","461680","0.0-79.0-7.0-0.0","0","0","AT3xf","Scenes","","2929","","","78","","","","","","","","","","","","","","","","","","","","","","","","","","","","","","","","","","","","","","","","","","","",""
"","fixation","","html-keyboard-response","147","462689","0.0-80.0-0.0","0","0","AT3xf","Scenes","","null","","","null","","","","","","","","","","","","","","","","","","","","","","","","","","","","","","","","","","","","","","","","","","","",""
"","deliberation","","html-keyboard-response","148","463960","0.0-80.0-1.0","0","0","AT3xf","Scenes","","1269","","","68","","","","24","109","143","0","1","68","66","brigitta-schneiter-hXXRLtTxXCU-unsplash.jpg","sigurdur-fjalar-jonsson-1KxBabIntpE-unsplash.jpg","3","1","109","143","","","","","","","","","","","","","","","","","","","","","","","","","","","",""
"","choice_confirmation","","html-keyboard-response","149","464465","0.0-80.0-2.0-0.0","0","0","AT3xf","Scenes","","null","","","null","","","","24","109","143","","","","","","","","","","","","","","","","","","","","","","","","","","","","","","","","","","","","","",""
"","fixation","","html-keyboard-response","150","465483","0.0-81.0-0.0","0","0","AT3xf","Scenes","","null","","","null","","","","","","","","","","","","","","","","","","","","","","","","","","","","","","","","","","","","","","","","","","","",""
"","deliberation","","html-keyboard-response","151","466258","0.0-81.0-1.0","0","0","AT3xf","Scenes","","774","","","68","","","","25","139","122","0","-1","79","70","samsommer-vddccTqwal8-unsplash.jpg","jeff-king-bJHWJeiHfHc-unsplash.jpg","3","1","139","122","","","","","","","","","","","","","","","","","","","","","","","","","","","",""
"","choice_confirmation","","html-keyboard-response","152","466764","0.0-81.0-2.0-0.0","0","0","AT3xf","Scenes","","null","","","null","","","","25","139","122","","","","","","","","","","","","","","","","","","","","","","","","","","","","","","","","","","","","","",""
"","fixation","","html-keyboard-response","153","467780","0.0-82.0-0.0","0","0","AT3xf","Scenes","","null","","","null","","","","","","","","","","","","","","","","","","","","","","","","","","","","","","","","","","","","","","","","","","","",""
"","deliberation","","html-keyboard-response","154","469908","0.0-82.0-1.0","0","0","AT3xf","Scenes","","2128","","","75","","","","26","115","128","0","-1","79","78","darrell-cassell-hoCXpPUMCoE-unsplash.jpg","karsten-wurth-jS0zC2PJ17A-unsplash.jpg","3","0","128","115","","","","","","","","","","","","","","","","","","","","","","","","","","","",""
"","choice_confirmation","","html-keyboard-response","155","470417","0.0-82.0-2.0-0.0","0","0","AT3xf","Scenes","","null","","","null","","","","26","115","128","","","","","","","","","","","","","","","","","","","","","","","","","","","","","","","","","","","","","",""
"","fixation","","html-keyboard-response","156","471437","0.0-83.0-0.0","0","0","AT3xf","Scenes","","null","","","null","","","","","","","","","","","","","","","","","","","","","","","","","","","","","","","","","","","","","","","","","","","",""
"","deliberation","","html-keyboard-response","157","472737","0.0-83.0-1.0","0","0","AT3xf","Scenes","","1299","","","68","","","","27","133","127","0","1","67","77","mickey-o-neil-xL66l--msXU-unsplash.jpg","kace-rodriguez-p3OzJuT_Dks-unsplash.jpg","3","1","133","127","","","","","","","","","","","","","","","","","","","","","","","","","","","",""
"","choice_confirmation","","html-keyboard-response","158","473246","0.0-83.0-2.0-0.0","0","0","AT3xf","Scenes","","null","","","null","","","","27","133","127","","","","","","","","","","","","","","","","","","","","","","","","","","","","","","","","","","","","","",""
"","fixation","","html-keyboard-response","159","474248","0.0-84.0-0.0","0","0","AT3xf","Scenes","","null","","","null","","","","","","","","","","","","","","","","","","","","","","","","","","","","","","","","","","","","","","","","","","","",""
"","deliberation","","html-keyboard-response","160","475177","0.0-84.0-1.0","0","0","AT3xf","Scenes","","928","","","68","","","","28","110","134","0","-1","67","79","bruno-van-der-kraan-qez8mNJ3ilU-unsplash.jpg","milada-vigerova-pQMM63GE7fo-unsplash.jpg","3","1","110","134","","","","","","","","","","","","","","","","","","","","","","","","","","","",""
"","choice_confirmation","","html-keyboard-response","161","475689","0.0-84.0-2.0-0.0","0","0","AT3xf","Scenes","","null","","","null","","","","28","110","134","","","","","","","","","","","","","","","","","","","","","","","","","","","","","","","","","","","","","",""
"","fixation","","html-keyboard-response","162","476710","0.0-85.0-0.0","0","0","AT3xf","Scenes","","null","","","null","","","","","","","","","","","","","","","","","","","","","","","","","","","","","","","","","","","","","","","","","","","",""
"","deliberation","","html-keyboard-response","163","477541","0.0-85.0-1.0","0","0","AT3xf","Scenes","","830","","","68","","","","29","135","145","0","-1","80","77","mohammad-alizade-4wzRuAb-KWs-unsplash.jpg","stephen-leonardi-gyIRjKPXupE-unsplash.jpg","3","1","135","145","","","","","","","","","","","","","","","","","","","","","","","","","","","",""
"","choice_confirmation","","html-keyboard-response","164","478056","0.0-85.0-2.0-0.0","0","0","AT3xf","Scenes","","null","","","null","","","","29","135","145","","","","","","","","","","","","","","","","","","","","","","","","","","","","","","","","","","","","","",""
"","fixation","","html-keyboard-response","165","479078","0.0-86.0-0.0","0","0","AT3xf","Scenes","","null","","","null","","","","","","","","","","","","","","","","","","","","","","","","","","","","","","","","","","","","","","","","","","","",""
"","deliberation","","html-keyboard-response","166","479710","0.0-86.0-1.0","0","0","AT3xf","Scenes","","631","","","68","","","","30","120","116","0","1","77","67","jarrett-kow-1ZOyYPOBn7I-unsplash.jpg","david-marcu-W5MhJ6cy1So-unsplash.jpg","3","1","120","116","","","","","","","","","","","","","","","","","","","","","","","","","","","",""
"","choice_confirmation","","html-keyboard-response","167","480219","0.0-86.0-2.0-0.0","0","0","AT3xf","Scenes","","null","","","null","","","","30","120","116","","","","","","","","","","","","","","","","","","","","","","","","","","","","","","","","","","","","","",""
"","fixation","","html-keyboard-response","168","481226","0.0-87.0-0.0","0","0","AT3xf","Scenes","","null","","","null","","","","","","","","","","","","","","","","","","","","","","","","","","","","","","","","","","","","","","","","","","","",""
"","deliberation","","html-keyboard-response","169","482013","0.0-87.0-1.0","0","0","AT3xf","Scenes","","786","","","68","","","","31","144","138","0","1","66","78","solotravelgoals-7kLufxYoqWk-unsplash.jpg","petr-vysohlid-9fqwGqGLUxc-unsplash.jpg","3","1","144","138","","","","","","","","","","","","","","","","","","","","","","","","","","","",""
"","choice_confirmation","","html-keyboard-response","170","482529","0.0-87.0-2.0-0.0","0","0","AT3xf","Scenes","","null","","","null","","","","31","144","138","","","","","","","","","","","","","","","","","","","","","","","","","","","","","","","","","","","","","",""
"","fixation","","html-keyboard-response","171","483536","0.0-88.0-0.0","0","0","AT3xf","Scenes","","null","","","null","","","","","","","","","","","","","","","","","","","","","","","","","","","","","","","","","","","","","","","","","","","",""
"","deliberation","","html-keyboard-response","172","484953","0.0-88.0-1.0","0","0","AT3xf","Scenes","","1416","","","68","","","","32","101","130","0","-1","75","79","aniket-deole-T-tOgjWZ0fQ-unsplash.jpg","lina-loos-04-C1NZk1hE-unsplash.jpg","3","1","101","130","","","","","","","","","","","","","","","","","","","","","","","","","","","",""
"","choice_confirmation","","html-keyboard-response","173","485456","0.0-88.0-2.0-0.0","0","0","AT3xf","Scenes","","null","","","null","","","","32","101","130","","","","","","","","","","","","","","","","","","","","","","","","","","","","","","","","","","","","","",""
"","fixation","","html-keyboard-response","174","486478","0.0-89.0-0.0","0","0","AT3xf","Scenes","","null","","","null","","","","","","","","","","","","","","","","","","","","","","","","","","","","","","","","","","","","","","","","","","","",""
"","deliberation","","html-keyboard-response","175","488522","0.0-89.0-1.0","0","0","AT3xf","Scenes","","2043","","","75","","","","33","111","146","0","1","65","65","claudio-testa-U3F2o6vz3bs-unsplash.jpg","thomas-morse-cuKKa0vWZSY-unsplash.jpg","3","0","146","111","","","","","","","","","","","","","","","","","","","","","","","","","","","",""
"","choice_confirmation","","html-keyboard-response","176","489027","0.0-89.0-2.0-0.0","0","0","AT3xf","Scenes","","null","","","null","","","","33","111","146","","","","","","","","","","","","","","","","","","","","","","","","","","","","","","","","","","","","","",""
"","fixation","","html-keyboard-response","177","490035","0.0-90.0-0.0","0","0","AT3xf","Scenes","","null","","","null","","","","","","","","","","","","","","","","","","","","","","","","","","","","","","","","","","","","","","","","","","","",""
"","deliberation","","html-keyboard-response","178","490690","0.0-90.0-1.0","0","0","AT3xf","Scenes","","653","","","68","","","","34","136","117","0","-1","67","67","nicolas-jehly-LzVB84KkZOE-unsplash.jpg","frank-mckenna-OD9EOzfSOh0-unsplash.jpg","3","1","136","117","","","","","","","","","","","","","","","","","","","","","","","","","","","",""
"","choice_confirmation","","html-keyboard-response","179","491195","0.0-90.0-2.0-0.0","0","0","AT3xf","Scenes","","null","","","null","","","","34","136","117","","","","","","","","","","","","","","","","","","","","","","","","","","","","","","","","","","","","","",""
"","fixation","","html-keyboard-response","180","492199","0.0-91.0-0.0","0","0","AT3xf","Scenes","","null","","","null","","","","","","","","","","","","","","","","","","","","","","","","","","","","","","","","","","","","","","","","","","","",""
"","deliberation","","html-keyboard-response","181","493510","0.0-91.0-1.0","0","0","AT3xf","Scenes","","1308","","","75","","","","35","118","142","0","1","77","74","henry-be-NLF6hTe4PAg-unsplash.jpg","sergey-pesterev-y-b_FOmJXdg-unsplash.jpg","3","0","142","118","","","","","","","","","","","","","","","","","","","","","","","","","","","",""
"","choice_confirmation","","html-keyboard-response","182","494035","0.0-91.0-2.0-0.0","0","0","AT3xf","Scenes","","null","","","null","","","","35","118","142","","","","","","","","","","","","","","","","","","","","","","","","","","","","","","","","","","","","","",""
"","reward_learning_instructions","","instructions","183","531925","0.0-92.0-0.0","0","0","AT3xf","Scenes","[{""page_index"":0,""viewing_time"":15324},{""page_index"":1,""viewing_time"":21105},{""page_index"":2,""viewing_time"":1461}]","37890","","","","","","","","","","","","","","","","","","","","","","","","","","","","","","","","","","","","","","","","","","","","","","",""
"","reward_comprehension_check","","survey-multi-choice","184","544202","0.0-92.0-1.0","0","0","AT3xf","Scenes","","12275","{""Q0"":""True"",""Q1"":""True"",""Q2"":""Press the space bar to see its outcome"",""Q3"":""Press the relevant key while the outcome is presented""}","0","","","","","","","","","","","","","","","","","","","","","","","","","","","","","","","","","","","","","","","","","","","","",""
"","start_phase","","html-keyboard-response","185","545589","0.0-93.0","0","0","AT3xf","Scenes","","1385","","","78","","","","","","","","","","","","","","","","","","","","","","","","","","","","","","","","","","","","","","","","","","","",""
"","fixation","","html-keyboard-response","186","546593","0.0-94.0","0","0","AT3xf","Scenes","","null","","","null","","","","","","","","","","","","","","","","","","","","","","","","","","","","","","","","","","","","","","","","","","","",""
"","see_reward","","html-keyboard-response","187","547114","0.0-95.0","0","0","AT3xf","Scenes","","520","","","32","","133","","0","","","","1","","","","","1","","","","","151","520","","","","","","","","","","","","","","","","","","","","","","","","",""
"","reward_outcome","","html-keyboard-response","188","549128","0.0-96.0","0","0","AT3xf","Scenes","","1208","","","38","","133","","0","","","","","","","","","","","","","","","","1","1208","","","","","","","","","","","","","","","","","","","","","","",""
"","fixation","","html-keyboard-response","189","550138","0.0-99.0","0","0","AT3xf","Scenes","","null","","","null","","","","","","","","","","","","","","","","","","","","","","","","","","","","","","","","","","","","","","","","","","","",""
"","see_reward","","html-keyboard-response","190","550622","0.0-100.0","0","0","AT3xf","Scenes","","482","","","32","","144","","1","","","","1","","","","","1","","","","","146","482","","","","","","","","","","","","","","","","","","","","","","","","",""
"","reward_outcome","","html-keyboard-response","191","552630","0.0-101.0","0","0","AT3xf","Scenes","","573","","","38","","144","","1","","","","","","","","","","","","","","","","1","573","","","","","","","","","","","","","","","","","","","","","","",""
"","fixation","","html-keyboard-response","192","553649","0.0-104.0","0","0","AT3xf","Scenes","","null","","","null","","","","","","","","","","","","","","","","","","","","","","","","","","","","","","","","","","","","","","","","","","","",""
"","see_reward","","html-keyboard-response","193","554064","0.0-105.0","0","0","AT3xf","Scenes","","413","","","32","","133","","2","","","","1","","","","","1","","","","","151","413","","","","","","","","","","","","","","","","","","","","","","","","",""
"","reward_outcome","","html-keyboard-response","194","556081","0.0-106.0","0","0","AT3xf","Scenes","","680","","","38","","133","","2","","","","","","","","","","","","","","","","1","680","","","","","","","","","","","","","","","","","","","","","","",""
"","fixation","","html-keyboard-response","195","557089","0.0-109.0","0","0","AT3xf","Scenes","","null","","","null","","","","","","","","","","","","","","","","","","","","","","","","","","","","","","","","","","","","","","","","","","","",""
"","see_reward","","html-keyboard-response","196","557636","0.0-110.0","0","0","AT3xf","Scenes","","546","","","32","","139","","3","","","","-1","","","","","1","","","","","0","546","","","","","","","","","","","","","","","","","","","","","","","","",""
"","reward_outcome","","html-keyboard-response","197","559641","0.0-111.0","0","0","AT3xf","Scenes","","836","","","40","","139","","3","","","","","","","","","","","","","","","","-1","836","","","","","","","","","","","","","","","","","","","","","","",""
"","fixation","","html-keyboard-response","198","560661","0.0-114.0","0","0","AT3xf","Scenes","","null","","","null","","","","","","","","","","","","","","","","","","","","","","","","","","","","","","","","","","","","","","","","","","","",""
"","see_reward","","html-keyboard-response","199","561142","0.0-115.0","0","0","AT3xf","Scenes","","478","","","32","","101","","4","","","","-1","","","","","1","","","","","0","478","","","","","","","","","","","","","","","","","","","","","","","","",""
"","reward_outcome","","html-keyboard-response","200","563154","0.0-116.0","0","0","AT3xf","Scenes","","541","","","40","","101","","4","","","","","","","","","","","","","","","","-1","541","","","","","","","","","","","","","","","","","","","","","","",""
"","fixation","","html-keyboard-response","201","564163","0.0-119.0","0","0","AT3xf","Scenes","","null","","","null","","","","","","","","","","","","","","","","","","","","","","","","","","","","","","","","","","","","","","","","","","","",""
"","see_reward","","html-keyboard-response","202","564531","0.0-120.0","0","0","AT3xf","Scenes","","366","","","32","","110","","5","","","","-1","","","","","1","","","","","0","366","","","","","","","","","","","","","","","","","","","","","","","","",""
"","reward_outcome","","html-keyboard-response","203","566542","0.0-121.0","0","0","AT3xf","Scenes","","545","","","40","","110","","5","","","","","","","","","","","","","","","","-1","545","","","","","","","","","","","","","","","","","","","","","","",""
"","fixation","","html-keyboard-response","204","567563","0.0-124.0","0","0","AT3xf","Scenes","","null","","","null","","","","","","","","","","","","","","","","","","","","","","","","","","","","","","","","","","","","","","","","","","","",""
"","see_reward","","html-keyboard-response","205","567997","0.0-125.0","0","0","AT3xf","Scenes","","432","","","32","","110","","6","","","","-1","","","","","1","","","","","0","432","","","","","","","","","","","","","","","","","","","","","","","","",""
"","reward_outcome","","html-keyboard-response","206","570013","0.0-126.0","0","0","AT3xf","Scenes","","567","","","40","","110","","6","","","","","","","","","","","","","","","","-1","567","","","","","","","","","","","","","","","","","","","","","","",""
"","fixation","","html-keyboard-response","207","571030","0.0-129.0","0","0","AT3xf","Scenes","","null","","","null","","","","","","","","","","","","","","","","","","","","","","","","","","","","","","","","","","","","","","","","","","","",""
"","see_reward","","html-keyboard-response","208","571449","0.0-130.0","0","0","AT3xf","Scenes","","418","","","32","","120","","7","","","","1","","","","","1","","","","","141","418","","","","","","","","","","","","","","","","","","","","","","","","",""
"","reward_outcome","","html-keyboard-response","209","573467","0.0-131.0","0","0","AT3xf","Scenes","","486","","","38","","120","","7","","","","","","","","","","","","","","","","1","486","","","","","","","","","","","","","","","","","","","","","","",""
"","fixation","","html-keyboard-response","210","574474","0.0-134.0","0","0","AT3xf","Scenes","","null","","","null","","","","","","","","","","","","","","","","","","","","","","","","","","","","","","","","","","","","","","","","","","","",""
"","see_reward","","html-keyboard-response","211","574969","0.0-135.0","0","0","AT3xf","Scenes","","494","","","32","","139","","8","","","","-1","","","","","1","","","","","0","494","","","","","","","","","","","","","","","","","","","","","","","","",""
"","reward_outcome","","html-keyboard-response","212","576981","0.0-136.0","0","0","AT3xf","Scenes","","463","","","40","","139","","8","","","","","","","","","","","","","","","","-1","463","","","","","","","","","","","","","","","","","","","","","","",""
"","fixation","","html-keyboard-response","213","577984","0.0-139.0","0","0","AT3xf","Scenes","","null","","","null","","","","","","","","","","","","","","","","","","","","","","","","","","","","","","","","","","","","","","","","","","","",""
"","see_reward","","html-keyboard-response","214","578328","0.0-140.0","0","0","AT3xf","Scenes","","343","","","32","","128","","9","","","","-1","","","","","1","","","","","0","343","","","","","","","","","","","","","","","","","","","","","","","","",""
"","reward_outcome","","html-keyboard-response","215","580350","0.0-141.0","0","0","AT3xf","Scenes","","465","","","40","","128","","9","","","","","","","","","","","","","","","","-1","465","","","","","","","","","","","","","","","","","","","","","","",""
"","fixation","","html-keyboard-response","216","581366","0.0-144.0","0","0","AT3xf","Scenes","","null","","","null","","","","","","","","","","","","","","","","","","","","","","","","","","","","","","","","","","","","","","","","","","","",""
"","see_reward","","html-keyboard-response","217","581789","0.0-145.0","0","0","AT3xf","Scenes","","423","","","32","","142","","10","","","","1","","","","","1","","","","","160","423","","","","","","","","","","","","","","","","","","","","","","","","",""
"","reward_outcome","","html-keyboard-response","218","583794","0.0-146.0","0","0","AT3xf","Scenes","","482","","","38","","142","","10","","","","","","","","","","","","","","","","1","482","","","","","","","","","","","","","","","","","","","","","","",""
"","fixation","","html-keyboard-response","219","584801","0.0-149.0","0","0","AT3xf","Scenes","","null","","","null","","","","","","","","","","","","","","","","","","","","","","","","","","","","","","","","","","","","","","","","","","","",""
"","see_reward","","html-keyboard-response","220","585346","0.0-150.0","0","0","AT3xf","Scenes","","544","","","32","","146","","11","","","","1","","","","","1","","","","","160","544","","","","","","","","","","","","","","","","","","","","","","","","",""
"","reward_outcome","","html-keyboard-response","221","587362","0.0-151.0","0","0","AT3xf","Scenes","","473","","","38","","146","","11","","","","","","","","","","","","","","","","1","473","","","","","","","","","","","","","","","","","","","","","","",""
"","fixation","","html-keyboard-response","222","588379","0.0-154.0","0","0","AT3xf","Scenes","","null","","","null","","","","","","","","","","","","","","","","","","","","","","","","","","","","","","","","","","","","","","","","","","","",""
"","see_reward","","html-keyboard-response","223","588764","0.0-155.0","0","0","AT3xf","Scenes","","383","","","32","","146","","12","","","","1","","","","","1","","","","","160","383","","","","","","","","","","","","","","","","","","","","","","","","",""
"","reward_outcome","","html-keyboard-response","224","590770","0.0-156.0","0","0","AT3xf","Scenes","","455","","","38","","146","","12","","","","","","","","","","","","","","","","1","455","","","","","","","","","","","","","","","","","","","","","","",""
"","fixation","","html-keyboard-response","225","591789","0.0-159.0","0","0","AT3xf","Scenes","","null","","","null","","","","","","","","","","","","","","","","","","","","","","","","","","","","","","","","","","","","","","","","","","","",""
"","see_reward","","html-keyboard-response","226","592267","0.0-160.0","0","0","AT3xf","Scenes","","477","","","32","","135","","13","","","","-1","","","","","1","","","","","0","477","","","","","","","","","","","","","","","","","","","","","","","","",""
"","reward_outcome","","html-keyboard-response","227","594278","0.0-161.0","0","0","AT3xf","Scenes","","552","","","40","","135","","13","","","","","","","","","","","","","","","","-1","552","","","","","","","","","","","","","","","","","","","","","","",""
"","fixation","","html-keyboard-response","228","595302","0.0-164.0","0","0","AT3xf","Scenes","","null","","","null","","","","","","","","","","","","","","","","","","","","","","","","","","","","","","","","","","","","","","","","","","","",""
"","see_reward","","html-keyboard-response","229","595569","0.0-165.0","0","0","AT3xf","Scenes","","265","","","32","","142","","14","","","","1","","","","","1","","","","","160","265","","","","","","","","","","","","","","","","","","","","","","","","",""
"","reward_outcome","","html-keyboard-response","230","597584","0.0-166.0","0","0","AT3xf","Scenes","","446","","","38","","142","","14","","","","","","","","","","","","","","","","1","446","","","","","","","","","","","","","","","","","","","","","","",""
"","fixation","","html-keyboard-response","231","598605","0.0-169.0","0","0","AT3xf","Scenes","","null","","","null","","","","","","","","","","","","","","","","","","","","","","","","","","","","","","","","","","","","","","","","","","","",""
"","see_reward","","html-keyboard-response","232","598985","0.0-170.0","0","0","AT3xf","Scenes","","378","","","32","","120","","15","","","","1","","","","","1","","","","","141","378","","","","","","","","","","","","","","","","","","","","","","","","",""
"","reward_outcome","","html-keyboard-response","233","601003","0.0-171.0","0","0","AT3xf","Scenes","","316","","","38","","120","","15","","","","","","","","","","","","","","","","1","316","","","","","","","","","","","","","","","","","","","","","","",""
"","fixation","","html-keyboard-response","234","602010","0.0-174.0","0","0","AT3xf","Scenes","","null","","","null","","","","","","","","","","","","","","","","","","","","","","","","","","","","","","","","","","","","","","","","","","","",""
"","see_reward","","html-keyboard-response","235","603807","0.0-175.0","0","0","AT3xf","Scenes","","1795","","","32","","109","","16","","","","1","","","","","1","","","","","150","1795","","","","","","","","","","","","","","","","","","","","","","","","",""
"","reward_outcome","","html-keyboard-response","236","605824","0.0-176.0","0","0","AT3xf","Scenes","","542","","","38","","109","","16","","","","","","","","","","","","","","","","1","542","","","","","","","","","","","","","","","","","","","","","","",""
"","fixation","","html-keyboard-response","237","606833","0.0-179.0","0","0","AT3xf","Scenes","","null","","","null","","","","","","","","","","","","","","","","","","","","","","","","","","","","","","","","","","","","","","","","","","","",""
"","see_reward","","html-keyboard-response","238","607448","0.0-180.0","0","0","AT3xf","Scenes","","613","","","32","","128","","17","","","","-1","","","","","1","","","","","0","613","","","","","","","","","","","","","","","","","","","","","","","","",""
"","reward_outcome","","html-keyboard-response","239","609462","0.0-181.0","0","0","AT3xf","Scenes","","450","","","40","","128","","17","","","","","","","","","","","","","","","","-1","450","","","","","","","","","","","","","","","","","","","","","","",""
"","fixation","","html-keyboard-response","240","610467","0.0-184.0","0","0","AT3xf","Scenes","","null","","","null","","","","","","","","","","","","","","","","","","","","","","","","","","","","","","","","","","","","","","","","","","","",""
"","see_reward","","html-keyboard-response","241","610599","0.0-185.0","0","0","AT3xf","Scenes","","130","","","32","","136","","18","","","","-1","","","","","1","","","","","0","130","","","","","","","","","","","","","","","","","","","","","","","","",""
"","reward_outcome","","html-keyboard-response","242","612618","0.0-186.0","0","0","AT3xf","Scenes","","489","","","40","","136","","18","","","","","","","","","","","","","","","","-1","489","","","","","","","","","","","","","","","","","","","","","","",""
"","fixation","","html-keyboard-response","243","613638","0.0-189.0","0","0","AT3xf","Scenes","","null","","","null","","","","","","","","","","","","","","","","","","","","","","","","","","","","","","","","","","","","","","","","","","","",""
"","see_reward","","html-keyboard-response","244","613972","0.0-190.0","0","0","AT3xf","Scenes","","333","","","32","","109","","19","","","","1","","","","","1","","","","","150","333","","","","","","","","","","","","","","","","","","","","","","","","",""
"","reward_outcome","","html-keyboard-response","245","615975","0.0-191.0","0","0","AT3xf","Scenes","","447","","","38","","109","","19","","","","","","","","","","","","","","","","1","447","","","","","","","","","","","","","","","","","","","","","","",""
"","fixation","","html-keyboard-response","246","616997","0.0-194.0","0","0","AT3xf","Scenes","","null","","","null","","","","","","","","","","","","","","","","","","","","","","","","","","","","","","","","","","","","","","","","","","","",""
"","see_reward","","html-keyboard-response","247","617410","0.0-195.0","0","0","AT3xf","Scenes","","411","","","32","","136","","20","","","","-1","","","","","1","","","","","0","411","","","","","","","","","","","","","","","","","","","","","","","","",""
"","reward_outcome","","html-keyboard-response","248","619428","0.0-196.0","0","0","AT3xf","Scenes","","373","","","40","","136","","20","","","","","","","","","","","","","","","","-1","373","","","","","","","","","","","","","","","","","","","","","","",""
"","fixation","","html-keyboard-response","249","620433","0.0-199.0","0","0","AT3xf","Scenes","","null","","","null","","","","","","","","","","","","","","","","","","","","","","","","","","","","","","","","","","","","","","","","","","","",""
"","see_reward","","html-keyboard-response","250","621024","0.0-200.0","0","0","AT3xf","Scenes","","589","","","32","","101","","21","","","","-1","","","","","1","","","","","0","589","","","","","","","","","","","","","","","","","","","","","","","","",""
"","reward_outcome","","html-keyboard-response","251","623035","0.0-201.0","0","0","AT3xf","Scenes","","1138","","","40","","101","","21","","","","","","","","","","","","","","","","-1","1138","","","","","","","","","","","","","","","","","","","","","","",""
"","fixation","","html-keyboard-response","252","624055","0.0-204.0","0","0","AT3xf","Scenes","","null","","","null","","","","","","","","","","","","","","","","","","","","","","","","","","","","","","","","","","","","","","","","","","","",""
"","see_reward","","html-keyboard-response","253","624280","0.0-205.0","0","0","AT3xf","Scenes","","224","","","32","","144","","22","","","","1","","","","","1","","","","","146","224","","","","","","","","","","","","","","","","","","","","","","","","",""
"","reward_outcome","","html-keyboard-response","254","626291","0.0-206.0","0","0","AT3xf","Scenes","","454","","","38","","144","","22","","","","","","","","","","","","","","","","1","454","","","","","","","","","","","","","","","","","","","","","","",""
"","fixation","","html-keyboard-response","255","627301","0.0-209.0","0","0","AT3xf","Scenes","","null","","","null","","","","","","","","","","","","","","","","","","","","","","","","","","","","","","","","","","","","","","","","","","","",""
"","see_reward","","html-keyboard-response","256","627625","0.0-210.0","0","0","AT3xf","Scenes","","322","","","32","","135","","23","","","","-1","","","","","1","","","","","0","322","","","","","","","","","","","","","","","","","","","","","","","","",""
"","reward_outcome","","html-keyboard-response","257","629642","0.0-211.0","0","0","AT3xf","Scenes","","353","","","40","","135","","23","","","","","","","","","","","","","","","","-1","353","","","","","","","","","","","","","","","","","","","","","","",""
"","block_over","","html-keyboard-response","258","631678","0.0-213.0-0.0","0","0","AT3xf","Scenes","","2035","","","78","","","","","","","","","","","","","","","","","","","","","","","","","","","","","","","","","","","","","","","","","","","",""
"","fixation","","html-keyboard-response","259","632689","0.0-214.0","0","0","AT3xf","Scenes","","null","","","null","","","","","","","","","","","","","","","","","","","","","","","","","","","","","","","","","","","","","","","","","","","",""
"","see_reward","","html-keyboard-response","260","634204","0.0-215.0","0","0","AT3xf","Scenes","","1514","","","32","","142","","24","","","","1","","","","","2","","","","","160","1514","","","","","","","","","","","","","","","","","","","","","","","","",""
"","reward_outcome","","html-keyboard-response","261","636214","0.0-216.0","0","0","AT3xf","Scenes","","431","","","38","","142","","24","","","","","","","","","","","","","","","","1","431","","","","","","","","","","","","","","","","","","","","","","",""
"","fixation","","html-keyboard-response","262","637236","0.0-219.0","0","0","AT3xf","Scenes","","null","","","null","","","","","","","","","","","","","","","","","","","","","","","","","","","","","","","","","","","","","","","","","","","",""
"","see_reward","","html-keyboard-response","263","637532","0.0-220.0","0","0","AT3xf","Scenes","","294","","","32","","144","","25","","","","1","","","","","2","","","","","146","294","","","","","","","","","","","","","","","","","","","","","","","","",""
"","reward_outcome","","html-keyboard-response","264","639538","0.0-221.0","0","0","AT3xf","Scenes","","422","","","38","","144","","25","","","","","","","","","","","","","","","","1","422","","","","","","","","","","","","","","","","","","","","","","",""
"","fixation","","html-keyboard-response","265","640544","0.0-224.0","0","0","AT3xf","Scenes","","null","","","null","","","","","","","","","","","","","","","","","","","","","","","","","","","","","","","","","","","","","","","","","","","",""
"","see_reward","","html-keyboard-response","266","640943","0.0-225.0","0","0","AT3xf","Scenes","","397","","","32","","135","","26","","","","-1","","","","","2","","","","","0","397","","","","","","","","","","","","","","","","","","","","","","","","",""
"","reward_outcome","","html-keyboard-response","267","642954","0.0-226.0","0","0","AT3xf","Scenes","","386","","","40","","135","","26","","","","","","","","","","","","","","","","-1","386","","","","","","","","","","","","","","","","","","","","","","",""
"","fixation","","html-keyboard-response","268","643975","0.0-229.0","0","0","AT3xf","Scenes","","null","","","null","","","","","","","","","","","","","","","","","","","","","","","","","","","","","","","","","","","","","","","","","","","",""
"","see_reward","","html-keyboard-response","269","644234","0.0-230.0","0","0","AT3xf","Scenes","","257","","","32","","139","","27","","","","-1","","","","","2","","","","","0","257","","","","","","","","","","","","","","","","","","","","","","","","",""
"","reward_outcome","","html-keyboard-response","270","646248","0.0-231.0","0","0","AT3xf","Scenes","","426","","","40","","139","","27","","","","","","","","","","","","","","","","-1","426","","","","","","","","","","","","","","","","","","","","","","",""
"","fixation","","html-keyboard-response","271","647269","0.0-234.0","0","0","AT3xf","Scenes","","null","","","null","","","","","","","","","","","","","","","","","","","","","","","","","","","","","","","","","","","","","","","","","","","",""
"","see_reward","","html-keyboard-response","272","647949","0.0-235.0","0","0","AT3xf","Scenes","","679","","","32","","109","","28","","","","1","","","","","2","","","","","150","679","","","","","","","","","","","","","","","","","","","","","","","","",""
"","reward_outcome","","html-keyboard-response","273","649961","0.0-236.0","0","0","AT3xf","Scenes","","513","","","38","","109","","28","","","","","","","","","","","","","","","","1","513","","","","","","","","","","","","","","","","","","","","","","",""
"","fixation","","html-keyboard-response","274","650972","0.0-239.0","0","0","AT3xf","Scenes","","null","","","null","","","","","","","","","","","","","","","","","","","","","","","","","","","","","","","","","","","","","","","","","","","",""
"","see_reward","","html-keyboard-response","275","651269","0.0-240.0","0","0","AT3xf","Scenes","","293","","","32","","101","","29","","","","-1","","","","","2","","","","","0","293","","","","","","","","","","","","","","","","","","","","","","","","",""
"","reward_outcome","","html-keyboard-response","276","653277","0.0-241.0","0","0","AT3xf","Scenes","","395","","","40","","101","","29","","","","","","","","","","","","","","","","-1","395","","","","","","","","","","","","","","","","","","","","","","",""
"","fixation","","html-keyboard-response","277","654280","0.0-244.0","0","0","AT3xf","Scenes","","null","","","null","","","","","","","","","","","","","","","","","","","","","","","","","","","","","","","","","","","","","","","","","","","",""
"","see_reward","","html-keyboard-response","278","654542","0.0-245.0","0","0","AT3xf","Scenes","","261","","","32","","133","","30","","","","1","","","","","2","","","","","151","261","","","","","","","","","","","","","","","","","","","","","","","","",""
"","reward_outcome","","html-keyboard-response","279","656554","0.0-246.0","0","0","AT3xf","Scenes","","436","","","38","","133","","30","","","","","","","","","","","","","","","","1","436","","","","","","","","","","","","","","","","","","","","","","",""
"","fixation","","html-keyboard-response","280","657560","0.0-249.0","0","0","AT3xf","Scenes","","null","","","null","","","","","","","","","","","","","","","","","","","","","","","","","","","","","","","","","","","","","","","","","","","",""
"","see_reward","","html-keyboard-response","281","657835","0.0-250.0","0","0","AT3xf","Scenes","","274","","","32","","146","","31","","","","1","","","","","2","","","","","160","274","","","","","","","","","","","","","","","","","","","","","","","","",""
"","reward_outcome","","html-keyboard-response","282","659853","0.0-251.0","0","0","AT3xf","Scenes","","588","","","40","","146","","31","","","","","","","","","","","","","","","","-1","588","","","","","","","","","","","","","","","","","","","","","","",""
"","fixation","","html-keyboard-response","283","660866","0.0-254.0","0","0","AT3xf","Scenes","","null","","","null","","","","","","","","","","","","","","","","","","","","","","","","","","","","","","","","","","","","","","","","","","","",""
"","see_reward","","html-keyboard-response","284","661139","0.0-255.0","0","0","AT3xf","Scenes","","271","","","32","","110","","32","","","","-1","","","","","2","","","","","0","271","","","","","","","","","","","","","","","","","","","","","","","","",""
"","reward_outcome","","html-keyboard-response","285","663156","0.0-256.0","0","0","AT3xf","Scenes","","569","","","40","","110","","32","","","","","","","","","","","","","","","","-1","569","","","","","","","","","","","","","","","","","","","","","","",""
"","fixation","","html-keyboard-response","286","664163","0.0-259.0","0","0","AT3xf","Scenes","","null","","","null","","","","","","","","","","","","","","","","","","","","","","","","","","","","","","","","","","","","","","","","","","","",""
"","see_reward","","html-keyboard-response","287","664403","0.0-260.0","0","0","AT3xf","Scenes","","240","","","32","","128","","33","","","","-1","","","","","2","","","","","0","240","","","","","","","","","","","","","","","","","","","","","","","","",""
"","reward_outcome","","html-keyboard-response","288","666412","0.0-261.0","0","0","AT3xf","Scenes","","441","","","40","","128","","33","","","","","","","","","","","","","","","","-1","441","","","","","","","","","","","","","","","","","","","","","","",""
"","fixation","","html-keyboard-response","289","667416","0.0-264.0","0","0","AT3xf","Scenes","","null","","","null","","","","","","","","","","","","","","","","","","","","","","","","","","","","","","","","","","","","","","","","","","","",""
"","see_reward","","html-keyboard-response","290","667707","0.0-265.0","0","0","AT3xf","Scenes","","289","","","32","","120","","34","","","","1","","","","","2","","","","","141","289","","","","","","","","","","","","","","","","","","","","","","","","",""
"","reward_outcome","","html-keyboard-response","291","669720","0.0-266.0","0","0","AT3xf","Scenes","","363","","","38","","120","","34","","","","","","","","","","","","","","","","1","363","","","","","","","","","","","","","","","","","","","","","","",""
"","fixation","","html-keyboard-response","292","670729","0.0-269.0","0","0","AT3xf","Scenes","","null","","","null","","","","","","","","","","","","","","","","","","","","","","","","","","","","","","","","","","","","","","","","","","","",""
"","see_reward","","html-keyboard-response","293","671178","0.0-270.0","0","0","AT3xf","Scenes","","449","","","32","","146","","35","","","","1","","","","","2","","","","","160","449","","","","","","","","","","","","","","","","","","","","","","","","",""
"","reward_outcome","","html-keyboard-response","294","673199","0.0-271.0","0","0","AT3xf","Scenes","","414","","","38","","146","","35","","","","","","","","","","","","","","","","1","414","","","","","","","","","","","","","","","","","","","","","","",""
"","fixation","","html-keyboard-response","295","674200","0.0-274.0","0","0","AT3xf","Scenes","","null","","","null","","","","","","","","","","","","","","","","","","","","","","","","","","","","","","","","","","","","","","","","","","","",""
"","see_reward","","html-keyboard-response","296","674566","0.0-275.0","0","0","AT3xf","Scenes","","365","","","32","","120","","36","","","","1","","","","","2","","","","","141","365","","","","","","","","","","","","","","","","","","","","","","","","",""
"","reward_outcome","","html-keyboard-response","297","676578","0.0-276.0","0","0","AT3xf","Scenes","","256","","","38","","120","","36","","","","","","","","","","","","","","","","1","256","","","","","","","","","","","","","","","","","","","","","","",""
"","fixation","","html-keyboard-response","298","677598","0.0-279.0","0","0","AT3xf","Scenes","","null","","","null","","","","","","","","","","","","","","","","","","","","","","","","","","","","","","","","","","","","","","","","","","","",""
"","see_reward","","html-keyboard-response","299","678026","0.0-280.0","0","0","AT3xf","Scenes","","428","","","32","","144","","37","","","","1","","","","","2","","","","","146","428","","","","","","","","","","","","","","","","","","","","","","","","",""
"","reward_outcome","","html-keyboard-response","300","680042","0.0-281.0","0","0","AT3xf","Scenes","","453","","","38","","144","","37","","","","","","","","","","","","","","","","1","453","","","","","","","","","","","","","","","","","","","","","","",""
"","fixation","","html-keyboard-response","301","681048","0.0-284.0","0","0","AT3xf","Scenes","","null","","","null","","","","","","","","","","","","","","","","","","","","","","","","","","","","","","","","","","","","","","","","","","","",""
"","see_reward","","html-keyboard-response","302","681480","0.0-285.0","0","0","AT3xf","Scenes","","432","","","32","","109","","38","","","","1","","","","","2","","","","","150","432","","","","","","","","","","","","","","","","","","","","","","","","",""
"","reward_outcome","","html-keyboard-response","303","683491","0.0-286.0","0","0","AT3xf","Scenes","","400","","","38","","109","","38","","","","","","","","","","","","","","","","1","400","","","","","","","","","","","","","","","","","","","","","","",""
"","fixation","","html-keyboard-response","304","684500","0.0-289.0","0","0","AT3xf","Scenes","","null","","","null","","","","","","","","","","","","","","","","","","","","","","","","","","","","","","","","","","","","","","","","","","","",""
"","see_reward","","html-keyboard-response","305","684859","0.0-290.0","0","0","AT3xf","Scenes","","357","","","32","","142","","39","","","","1","","","","","2","","","","","160","357","","","","","","","","","","","","","","","","","","","","","","","","",""
"","reward_outcome","","html-keyboard-response","306","686880","0.0-291.0","0","0","AT3xf","Scenes","","369","","","38","","142","","39","","","","","","","","","","","","","","","","1","369","","","","","","","","","","","","","","","","","","","","","","",""
"","fixation","","html-keyboard-response","307","687899","0.0-294.0","0","0","AT3xf","Scenes","","null","","","null","","","","","","","","","","","","","","","","","","","","","","","","","","","","","","","","","","","","","","","","","","","",""
"","see_reward","","html-keyboard-response","308","688238","0.0-295.0","0","0","AT3xf","Scenes","","337","","","32","","136","","40","","","","-1","","","","","2","","","","","0","337","","","","","","","","","","","","","","","","","","","","","","","","",""
"","reward_outcome","","html-keyboard-response","309","690249","0.0-296.0","0","0","AT3xf","Scenes","","526","","","40","","136","","40","","","","","","","","","","","","","","","","-1","526","","","","","","","","","","","","","","","","","","","","","","",""
"","fixation","","html-keyboard-response","310","691271","0.0-299.0","0","0","AT3xf","Scenes","","null","","","null","","","","","","","","","","","","","","","","","","","","","","","","","","","","","","","","","","","","","","","","","","","",""
"","see_reward","","html-keyboard-response","311","691553","0.0-300.0","0","0","AT3xf","Scenes","","281","","","32","","139","","41","","","","-1","","","","","2","","","","","0","281","","","","","","","","","","","","","","","","","","","","","","","","",""
"","reward_outcome","","html-keyboard-response","312","693561","0.0-301.0","0","0","AT3xf","Scenes","","390","","","40","","139","","41","","","","","","","","","","","","","","","","-1","390","","","","","","","","","","","","","","","","","","","","","","",""
"","fixation","","html-keyboard-response","313","694582","0.0-304.0","0","0","AT3xf","Scenes","","null","","","null","","","","","","","","","","","","","","","","","","","","","","","","","","","","","","","","","","","","","","","","","","","",""
"","see_reward","","html-keyboard-response","314","694913","0.0-305.0","0","0","AT3xf","Scenes","","328","","","32","","136","","42","","","","-1","","","","","2","","","","","0","328","","","","","","","","","","","","","","","","","","","","","","","","",""
"","reward_outcome","","html-keyboard-response","315","696929","0.0-306.0","0","0","AT3xf","Scenes","","361","","","40","","136","","42","","","","","","","","","","","","","","","","-1","361","","","","","","","","","","","","","","","","","","","","","","",""
"","fixation","","html-keyboard-response","316","697948","0.0-309.0","0","0","AT3xf","Scenes","","null","","","null","","","","","","","","","","","","","","","","","","","","","","","","","","","","","","","","","","","","","","","","","","","",""
"","see_reward","","html-keyboard-response","317","698197","0.0-310.0","0","0","AT3xf","Scenes","","247","","","32","","133","","43","","","","1","","","","","2","","","","","151","247","","","","","","","","","","","","","","","","","","","","","","","","",""
"","reward_outcome","","html-keyboard-response","318","700208","0.0-311.0","0","0","AT3xf","Scenes","","374","","","38","","133","","43","","","","","","","","","","","","","","","","1","374","","","","","","","","","","","","","","","","","","","","","","",""
"","fixation","","html-keyboard-response","319","701224","0.0-314.0","0","0","AT3xf","Scenes","","null","","","null","","","","","","","","","","","","","","","","","","","","","","","","","","","","","","","","","","","","","","","","","","","",""
"","see_reward","","html-keyboard-response","320","701477","0.0-315.0","0","0","AT3xf","Scenes","","252","","","32","","101","","44","","","","-1","","","","","2","","","","","0","252","","","","","","","","","","","","","","","","","","","","","","","","",""
"","reward_outcome","","html-keyboard-response","321","703485","0.0-316.0","0","0","AT3xf","Scenes","","415","","","40","","101","","44","","","","","","","","","","","","","","","","-1","415","","","","","","","","","","","","","","","","","","","","","","",""
"","fixation","","html-keyboard-response","322","704501","0.0-319.0","0","0","AT3xf","Scenes","","null","","","null","","","","","","","","","","","","","","","","","","","","","","","","","","","","","","","","","","","","","","","","","","","",""
"","see_reward","","html-keyboard-response","323","704791","0.0-320.0","0","0","AT3xf","Scenes","","288","","","32","","110","","45","","","","-1","","","","","2","","","","","0","288","","","","","","","","","","","","","","","","","","","","","","","","",""
"","reward_outcome","","html-keyboard-response","324","706806","0.0-321.0","0","0","AT3xf","Scenes","","371","","","40","","110","","45","","","","","","","","","","","","","","","","-1","371","","","","","","","","","","","","","","","","","","","","","","",""
"","fixation","","html-keyboard-response","325","707823","0.0-324.0","0","0","AT3xf","Scenes","","null","","","null","","","","","","","","","","","","","","","","","","","","","","","","","","","","","","","","","","","","","","","","","","","",""
"","see_reward","","html-keyboard-response","326","708261","0.0-325.0","0","0","AT3xf","Scenes","","434","","","32","","128","","46","","","","-1","","","","","2","","","","","0","434","","","","","","","","","","","","","","","","","","","","","","","","",""
"","reward_outcome","","html-keyboard-response","327","710282","0.0-326.0","0","0","AT3xf","Scenes","","372","","","40","","128","","46","","","","","","","","","","","","","","","","-1","372","","","","","","","","","","","","","","","","","","","","","","",""
"","fixation","","html-keyboard-response","328","711291","0.0-329.0","0","0","AT3xf","Scenes","","null","","","null","","","","","","","","","","","","","","","","","","","","","","","","","","","","","","","","","","","","","","","","","","","",""
"","see_reward","","html-keyboard-response","329","711688","0.0-330.0","0","0","AT3xf","Scenes","","395","","","32","","135","","47","","","","-1","","","","","2","","","","","0","395","","","","","","","","","","","","","","","","","","","","","","","","",""
"","reward_outcome","","html-keyboard-response","330","713703","0.0-331.0","0","0","AT3xf","Scenes","","299","","","40","","135","","47","","","","","","","","","","","","","","","","-1","299","","","","","","","","","","","","","","","","","","","","","","",""
"","block_over","","html-keyboard-response","331","722071","0.0-333.0-0.0","0","0","AT3xf","Scenes","","8366","","","78","","","","","","","","","","","","","","","","","","","","","","","","","","","","","","","","","","","","","","","","","","","",""
"","fixation","","html-keyboard-response","332","723094","0.0-334.0","0","0","AT3xf","Scenes","","null","","","null","","","","","","","","","","","","","","","","","","","","","","","","","","","","","","","","","","","","","","","","","","","",""
"","see_reward","","html-keyboard-response","333","723362","0.0-335.0","0","0","AT3xf","Scenes","","265","","","32","","146","","48","","","","1","","","","","3","","","","","160","265","","","","","","","","","","","","","","","","","","","","","","","","",""
"","reward_outcome","","html-keyboard-response","334","725382","0.0-336.0","0","0","AT3xf","Scenes","","382","","","38","","146","","48","","","","","","","","","","","","","","","","1","382","","","","","","","","","","","","","","","","","","","","","","",""
"","fixation","","html-keyboard-response","335","726387","0.0-339.0","0","0","AT3xf","Scenes","","null","","","null","","","","","","","","","","","","","","","","","","","","","","","","","","","","","","","","","","","","","","","","","","","",""
"","see_reward","","html-keyboard-response","336","726664","0.0-340.0","0","0","AT3xf","Scenes","","276","","","32","","133","","49","","","","1","","","","","3","","","","","151","276","","","","","","","","","","","","","","","","","","","","","","","","",""
"","reward_outcome","","html-keyboard-response","337","728675","0.0-341.0","0","0","AT3xf","Scenes","","369","","","38","","133","","49","","","","","","","","","","","","","","","","1","369","","","","","","","","","","","","","","","","","","","","","","",""
"","fixation","","html-keyboard-response","338","729681","0.0-344.0","0","0","AT3xf","Scenes","","null","","","null","","","","","","","","","","","","","","","","","","","","","","","","","","","","","","","","","","","","","","","","","","","",""
"","see_reward","","html-keyboard-response","339","730022","0.0-345.0","0","0","AT3xf","Scenes","","340","","","32","","139","","50","","","","-1","","","","","3","","","","","0","340","","","","","","","","","","","","","","","","","","","","","","","","",""
"","reward_outcome","","html-keyboard-response","340","732047","0.0-346.0","0","0","AT3xf","Scenes","","886","","","40","","139","","50","","","","","","","","","","","","","","","","-1","886","","","","","","","","","","","","","","","","","","","","","","",""
"","fixation","","html-keyboard-response","341","733070","0.0-349.0","0","0","AT3xf","Scenes","","null","","","null","","","","","","","","","","","","","","","","","","","","","","","","","","","","","","","","","","","","","","","","","","","",""
"","see_reward","","html-keyboard-response","342","733436","0.0-350.0","0","0","AT3xf","Scenes","","364","","","32","","136","","51","","","","-1","","","","","3","","","","","0","364","","","","","","","","","","","","","","","","","","","","","","","","",""
"","reward_outcome","","html-keyboard-response","343","735454","0.0-351.0","0","0","AT3xf","Scenes","","267","","","40","","136","","51","","","","","","","","","","","","","","","","-1","267","","","","","","","","","","","","","","","","","","","","","","",""
"","fixation","","html-keyboard-response","344","736459","0.0-354.0","0","0","AT3xf","Scenes","","null","","","null","","","","","","","","","","","","","","","","","","","","","","","","","","","","","","","","","","","","","","","","","","","",""
"","see_reward","","html-keyboard-response","345","736723","0.0-355.0","0","0","AT3xf","Scenes","","263","","","32","","142","","52","","","","1","","","","","3","","","","","160","263","","","","","","","","","","","","","","","","","","","","","","","","",""
"","reward_outcome","","html-keyboard-response","346","738733","0.0-356.0","0","0","AT3xf","Scenes","","488","","","38","","142","","52","","","","","","","","","","","","","","","","1","488","","","","","","","","","","","","","","","","","","","","","","",""
"","fixation","","html-keyboard-response","347","739740","0.0-359.0","0","0","AT3xf","Scenes","","null","","","null","","","","","","","","","","","","","","","","","","","","","","","","","","","","","","","","","","","","","","","","","","","",""
"","see_reward","","html-keyboard-response","348","740249","0.0-360.0","0","0","AT3xf","Scenes","","506","","","32","","120","","53","","","","1","","","","","3","","","","","141","506","","","","","","","","","","","","","","","","","","","","","","","","",""
"","reward_outcome","","html-keyboard-response","349","742258","0.0-361.0","0","0","AT3xf","Scenes","","395","","","38","","120","","53","","","","","","","","","","","","","","","","1","395","","","","","","","","","","","","","","","","","","","","","","",""
"","fixation","","html-keyboard-response","350","743278","0.0-364.0","0","0","AT3xf","Scenes","","null","","","null","","","","","","","","","","","","","","","","","","","","","","","","","","","","","","","","","","","","","","","","","","","",""
"","see_reward","","html-keyboard-response","351","743566","0.0-365.0","0","0","AT3xf","Scenes","","286","","","32","","133","","54","","","","1","","","","","3","","","","","151","286","","","","","","","","","","","","","","","","","","","","","","","","",""
"","reward_outcome","","html-keyboard-response","352","745582","0.0-366.0","0","0","AT3xf","Scenes","","376","","","38","","133","","54","","","","","","","","","","","","","","","","1","376","","","","","","","","","","","","","","","","","","","","","","",""
