"success","ttype","start_time","trial_type","trial_index","time_elapsed","internal_node_id","warning","missed_checkup","PID","stim_type","view_history","rt","responses","repeat_instructions","key_press","response","stimulus_id","painting","index","stimulus_left","stimulus_right","explain_trial","reward_type","rating_left","rating_right","painting_left","painting_right","block","left_chosen","chosen_obj","unchosen_obj","explain_response","reward_amount","see_reward_rt","register_reward_response","register_reward_rt","deliberation_reward_tally","stimulus_left_deliberation_ind","stimulus_right_deliberation_ind","chosen_trial","gain_left","higher_outcome_chosen","old_pair","chosen_object","rt_pairs","left_object_chosen","rt_object","old_response","new_rating","deliberated_stim","initial_rating","outcome_eval_rt","outcome_eval_response","outcome_eval_gain","outcome_eval_acc","preamble","outcome_eval_confidence","outcome_eval_confidence_rt","total_reward_tally"
"true","full_screen","d01192023hr2140","fullscreen","0","38824","0.0-0.0","0","0","s0LdK","Scenes","","","","","","","","","","","","","","","","","","","","","","","","","","","","","","","","","","","","","","","","","","","","","","","","",""
"","rating_instructions","","instructions","1","56221","0.0-1.0-0.0","0","0","s0LdK","Scenes","[{""page_index"":0,""viewing_time"":13112},{""page_index"":1,""viewing_time"":4279}]","17392","","","","","","","","","","","","","","","","","","","","","","","","","","","","","","","","","","","","","","","","","","","","","","",""
"","rating_comprehension_check","","survey-multi-choice","2","63592","0.0-1.0-1.0","0","0","s0LdK","Scenes","","7365","{""Q0"":""True"",""Q1"":""Mouse""}","0","","","","","","","","","","","","","","","","","","","","","","","","","","","","","","","","","","","","","","","","","","","","",""
"","start_phase","","html-keyboard-response","3","66031","0.0-2.0","0","0","s0LdK","Scenes","","2434","","","78","","","","","","","","","","","","","","","","","","","","","","","","","","","","","","","","","","","","","","","","","","","",""
"","rating","","html-slider-response","4","71337","0.0-3.0","0","0","s0LdK","Scenes","","5299","","","","87","112","cosmic-timetraveler-pYyOZ8q7AII-unsplash.jpg","0","","","","","","","","","","","","","","","","","","","","","","","","","","","","","","","","","","","","","","","",""
"","rating","","html-slider-response","5","75272","0.0-4.0","0","0","s0LdK","Scenes","","3933","","","","52","138","petr-vysohlid-9fqwGqGLUxc-unsplash.jpg","1","","","","","","","","","","","","","","","","","","","","","","","","","","","","","","","","","","","","","","","",""
"","rating","","html-slider-response","6","78921","0.0-5.0","0","0","s0LdK","Scenes","","3645","","","","60","131","luca-bravo-hFzIoD0F_i8-unsplash.jpg","2","","","","","","","","","","","","","","","","","","","","","","","","","","","","","","","","","","","","","","","",""
"","rating","","html-slider-response","7","82638","0.0-6.0","0","0","s0LdK","Scenes","","3713","","","","76","137","olga-stalska-QaWRyEdlffY-unsplash.jpg","3","","","","","","","","","","","","","","","","","","","","","","","","","","","","","","","","","","","","","","","",""
"","rating","","html-slider-response","8","86707","0.0-7.0","0","0","s0LdK","Scenes","","4062","","","","91","122","jeff-king-bJHWJeiHfHc-unsplash.jpg","4","","","","","","","","","","","","","","","","","","","","","","","","","","","","","","","","","","","","","","","",""
"","rating","","html-slider-response","9","90699","0.0-8.0","0","0","s0LdK","Scenes","","3985","","","","32","105","ashim-d-silva-S2Q5mdOrrVc-unsplash.jpg","5","","","","","","","","","","","","","","","","","","","","","","","","","","","","","","","","","","","","","","","",""
"","rating","","html-slider-response","10","93323","0.0-9.0","0","0","s0LdK","Scenes","","2618","","","","58","128","karsten-wurth-jS0zC2PJ17A-unsplash.jpg","6","","","","","","","","","","","","","","","","","","","","","","","","","","","","","","","","","","","","","","","",""
"","rating","","html-slider-response","11","96158","0.0-10.0","0","0","s0LdK","Scenes","","2831","","","","57","119","james-wheeler-AFC0XvICMgs-unsplash.jpg","7","","","","","","","","","","","","","","","","","","","","","","","","","","","","","","","","","","","","","","","",""
"","rating","","html-slider-response","12","99450","0.0-11.0","0","0","s0LdK","Scenes","","3288","","","","67","145","stephen-leonardi-gyIRjKPXupE-unsplash.jpg","8","","","","","","","","","","","","","","","","","","","","","","","","","","","","","","","","","","","","","","","",""
"","rating","","html-slider-response","13","102588","0.0-12.0","0","0","s0LdK","Scenes","","3133","","","","79","125","john-lee-oMneOBYhJxY-unsplash.jpg","9","","","","","","","","","","","","","","","","","","","","","","","","","","","","","","","","","","","","","","","",""
"","rating","","html-slider-response","14","105699","0.0-13.0","0","0","s0LdK","Scenes","","3105","","","","43","144","solotravelgoals-7kLufxYoqWk-unsplash.jpg","10","","","","","","","","","","","","","","","","","","","","","","","","","","","","","","","","","","","","","","","",""
"","rating","","html-slider-response","15","109260","0.0-14.0","0","0","s0LdK","Scenes","","3556","","","","52","147","tobias-keller-73F4pKoUkM0-unsplash.jpg","11","","","","","","","","","","","","","","","","","","","","","","","","","","","","","","","","","","","","","","","",""
"","rating","","html-slider-response","16","111974","0.0-15.0","0","0","s0LdK","Scenes","","2708","","","","61","143","sigurdur-fjalar-jonsson-1KxBabIntpE-unsplash.jpg","12","","","","","","","","","","","","","","","","","","","","","","","","","","","","","","","","","","","","","","","",""
"","rating","","html-slider-response","17","117016","0.0-16.0","0","0","s0LdK","Scenes","","5038","","","","51","120","jarrett-kow-1ZOyYPOBn7I-unsplash.jpg","13","","","","","","","","","","","","","","","","","","","","","","","","","","","","","","","","","","","","","","","",""
"","rating","","html-slider-response","18","120210","0.0-17.0","0","0","s0LdK","Scenes","","3192","","","","55","133","mickey-o-neil-xL66l--msXU-unsplash.jpg","14","","","","","","","","","","","","","","","","","","","","","","","","","","","","","","","","","","","","","","","",""
"","rating","","html-slider-response","19","123378","0.0-18.0","0","0","s0LdK","Scenes","","3162","","","","41","149","yuriy-bogdanov-W51VK3Obcj0-unsplash.jpg","15","","","","","","","","","","","","","","","","","","","","","","","","","","","","","","","","","","","","","","","",""
"","rating","","html-slider-response","20","126413","0.0-19.0","0","0","s0LdK","Scenes","","3031","","","","55","117","frank-mckenna-OD9EOzfSOh0-unsplash.jpg","16","","","","","","","","","","","","","","","","","","","","","","","","","","","","","","","","","","","","","","","",""
"","rating","","html-slider-response","21","129448","0.0-20.0","0","0","s0LdK","Scenes","","3030","","","","52","109","brigitta-schneiter-hXXRLtTxXCU-unsplash.jpg","17","","","","","","","","","","","","","","","","","","","","","","","","","","","","","","","","","","","","","","","",""
"","rating","","html-slider-response","22","132446","0.0-21.0","0","0","s0LdK","Scenes","","2996","","","","59","123","joel-jasmin-forestbird-efuwb5eBDrI-unsplash.jpg","18","","","","","","","","","","","","","","","","","","","","","","","","","","","","","","","","","","","","","","","",""
"","rating","","html-slider-response","23","135671","0.0-22.0","0","0","s0LdK","Scenes","","3222","","","","52","127","kace-rodriguez-p3OzJuT_Dks-unsplash.jpg","19","","","","","","","","","","","","","","","","","","","","","","","","","","","","","","","","","","","","","","","",""
"","rating","","html-slider-response","24","139202","0.0-23.0","0","0","s0LdK","Scenes","","3526","","","","74","111","claudio-testa-U3F2o6vz3bs-unsplash.jpg","20","","","","","","","","","","","","","","","","","","","","","","","","","","","","","","","","","","","","","","","",""
"","rating","","html-slider-response","25","141926","0.0-24.0","0","0","s0LdK","Scenes","","2721","","","","56","101","aniket-deole-T-tOgjWZ0fQ-unsplash.jpg","21","","","","","","","","","","","","","","","","","","","","","","","","","","","","","","","","","","","","","","","",""
"","rating","","html-slider-response","26","145770","0.0-25.0","0","0","s0LdK","Scenes","","3840","","","","49","136","nicolas-jehly-LzVB84KkZOE-unsplash.jpg","22","","","","","","","","","","","","","","","","","","","","","","","","","","","","","","","","","","","","","","","",""
"","rating","","html-slider-response","27","148457","0.0-26.0","0","0","s0LdK","Scenes","","2684","","","","56","115","darrell-cassell-hoCXpPUMCoE-unsplash.jpg","23","","","","","","","","","","","","","","","","","","","","","","","","","","","","","","","","","","","","","","","",""
"","rating","","html-slider-response","28","151909","0.0-27.0","0","0","s0LdK","Scenes","","3446","","","","78","124","johannes-plenio-sPt5RIjKfpk-unsplash.jpg","24","","","","","","","","","","","","","","","","","","","","","","","","","","","","","","","","","","","","","","","",""
"","rating","","html-slider-response","29","157370","0.0-28.0","0","0","s0LdK","Scenes","","5454","","","","63","140","samuele-errico-piccarini-JEBqFu2AOOA-unsplash.jpg","25","","","","","","","","","","","","","","","","","","","","","","","","","","","","","","","","","","","","","","","",""
"","rating","","html-slider-response","30","161882","0.0-29.0","0","0","s0LdK","Scenes","","4509","","","","67","104","artem-sapegin-XGDBdSQ70O0-unsplash.jpg","26","","","","","","","","","","","","","","","","","","","","","","","","","","","","","","","","","","","","","","","",""
"","rating","","html-slider-response","31","164320","0.0-30.0","0","0","s0LdK","Scenes","","2435","","","","56","114","daniel-sessler-z_9VmsxR8hs-unsplash.jpg","27","","","","","","","","","","","","","","","","","","","","","","","","","","","","","","","","","","","","","","","",""
"","rating","","html-slider-response","32","167368","0.0-31.0","0","0","s0LdK","Scenes","","3043","","","","43","142","sergey-pesterev-y-b_FOmJXdg-unsplash.jpg","28","","","","","","","","","","","","","","","","","","","","","","","","","","","","","","","","","","","","","","","",""
"","rating","","html-slider-response","33","170011","0.0-32.0","0","0","s0LdK","Scenes","","2637","","","","55","134","milada-vigerova-pQMM63GE7fo-unsplash.jpg","29","","","","","","","","","","","","","","","","","","","","","","","","","","","","","","","","","","","","","","","",""
"","rating","","html-slider-response","34","172593","0.0-33.0","0","0","s0LdK","Scenes","","2578","","","","67","118","henry-be-NLF6hTe4PAg-unsplash.jpg","30","","","","","","","","","","","","","","","","","","","","","","","","","","","","","","","","","","","","","","","",""
"","rating","","html-slider-response","35","175260","0.0-34.0","0","0","s0LdK","Scenes","","2662","","","","76","130","lina-loos-04-C1NZk1hE-unsplash.jpg","31","","","","","","","","","","","","","","","","","","","","","","","","","","","","","","","","","","","","","","","",""
"","rating","","html-slider-response","36","178117","0.0-35.0","0","0","s0LdK","Scenes","","2852","","","","56","100","aleksandra-boguslawska-MS7KD9Ti7FQ-unsplash.jpg","32","","","","","","","","","","","","","","","","","","","","","","","","","","","","","","","","","","","","","","","",""
"","rating","","html-slider-response","37","180276","0.0-36.0","0","0","s0LdK","Scenes","","2157","","","","43","121","jean-pierre-brungs-qxCqkbF7tUc-unsplash.jpg","33","","","","","","","","","","","","","","","","","","","","","","","","","","","","","","","","","","","","","","","",""
"","rating","","html-slider-response","38","183390","0.0-37.0","0","0","s0LdK","Scenes","","3112","","","","30","106","ashim-d-silva-WeYamle9fDM-unsplash.jpg","34","","","","","","","","","","","","","","","","","","","","","","","","","","","","","","","","","","","","","","","",""
"","rating","","html-slider-response","39","185685","0.0-38.0","0","0","s0LdK","Scenes","","2292","","","","57","132","meng-ji-8BH_M-53CyA-unsplash.jpg","35","","","","","","","","","","","","","","","","","","","","","","","","","","","","","","","","","","","","","","","",""
"","rating","","html-slider-response","40","189743","0.0-39.0","0","0","s0LdK","Scenes","","4053","","","","52","129","kurt-cotoaga-cqbLg3lZEpk-unsplash.jpg","36","","","","","","","","","","","","","","","","","","","","","","","","","","","","","","","","","","","","","","","",""
"","rating","","html-slider-response","41","192863","0.0-40.0","0","0","s0LdK","Scenes","","3114","","","","54","102","anisur-rahman-K2b7UDed6uQ-unsplash.jpg","37","","","","","","","","","","","","","","","","","","","","","","","","","","","","","","","","","","","","","","","",""
"","rating","","html-slider-response","42","195576","0.0-41.0","0","0","s0LdK","Scenes","","2709","","","","61","146","thomas-morse-cuKKa0vWZSY-unsplash.jpg","38","","","","","","","","","","","","","","","","","","","","","","","","","","","","","","","","","","","","","","","",""
"","rating","","html-slider-response","43","198124","0.0-42.0","0","0","s0LdK","Scenes","","2545","","","","59","110","bruno-van-der-kraan-qez8mNJ3ilU-unsplash.jpg","39","","","","","","","","","","","","","","","","","","","","","","","","","","","","","","","","","","","","","","","",""
"","rating","","html-slider-response","44","200629","0.0-43.0","0","0","s0LdK","Scenes","","2502","","","","45","126","jordan-mcqueen-PJCZOWuOxbU-unsplash.jpg","40","","","","","","","","","","","","","","","","","","","","","","","","","","","","","","","","","","","","","","","",""
"","rating","","html-slider-response","45","203256","0.0-44.0","0","0","s0LdK","Scenes","","2621","","","","57","141","sebastian-unrau-v4e3JI7DDHI-unsplash.jpg","41","","","","","","","","","","","","","","","","","","","","","","","","","","","","","","","","","","","","","","","",""
"","rating","","html-slider-response","46","205616","0.0-45.0","0","0","s0LdK","Scenes","","2357","","","","56","108","benjamin-voros-phIFdC6lA4E-unsplash.jpg","42","","","","","","","","","","","","","","","","","","","","","","","","","","","","","","","","","","","","","","","",""
"","rating","","html-slider-response","47","209434","0.0-46.0","0","0","s0LdK","Scenes","","3813","","","","52","135","mohammad-alizade-4wzRuAb-KWs-unsplash.jpg","43","","","","","","","","","","","","","","","","","","","","","","","","","","","","","","","","","","","","","","","",""
"","rating","","html-slider-response","48","212463","0.0-47.0","0","0","s0LdK","Scenes","","3025","","","","52","148","tom-gainor-ZqLeQDjY6fY-unsplash.jpg","44","","","","","","","","","","","","","","","","","","","","","","","","","","","","","","","","","","","","","","","",""
"","rating","","html-slider-response","49","215625","0.0-48.0","0","0","s0LdK","Scenes","","3159","","","","42","139","samsommer-vddccTqwal8-unsplash.jpg","45","","","","","","","","","","","","","","","","","","","","","","","","","","","","","","","","","","","","","","","",""
"","rating","","html-slider-response","50","218019","0.0-49.0","0","0","s0LdK","Scenes","","2388","","","","59","107","benjamin-davies-Zm2n2O7Fph4-unsplash.jpg","46","","","","","","","","","","","","","","","","","","","","","","","","","","","","","","","","","","","","","","","",""
"","rating","","html-slider-response","51","220633","0.0-50.0","0","0","s0LdK","Scenes","","2610","","","","46","116","david-marcu-W5MhJ6cy1So-unsplash.jpg","47","","","","","","","","","","","","","","","","","","","","","","","","","","","","","","","","","","","","","","","",""
"","rating","","html-slider-response","52","223029","0.0-51.0","0","0","s0LdK","Scenes","","2392","","","","71","103","anton-darius-FBJugtbHsWU-unsplash.jpg","48","","","","","","","","","","","","","","","","","","","","","","","","","","","","","","","","","","","","","","","",""
"","rating","","html-slider-response","53","227009","0.0-52.0","0","0","s0LdK","Scenes","","3975","","","","39","113","damian-denis-D8R_txR_0PE-unsplash.jpg","49","","","","","","","","","","","","","","","","","","","","","","","","","","","","","","","","","","","","","","","",""
"","deliberation_instructions","","instructions","54","370931","0.0-53.0-0.0","0","0","s0LdK","Scenes","[{""page_index"":0,""viewing_time"":46444},{""page_index"":1,""viewing_time"":28196},{""page_index"":2,""viewing_time"":1784},{""page_index"":1,""viewing_time"":9803},{""page_index"":2,""viewing_time"":2310},{""page_index"":1,""viewing_time"":656},{""page_index"":2,""viewing_time"":21711},{""page_index"":3,""viewing_time"":30974},{""page_index"":4,""viewing_time"":2035}]","143916","","","","","","","","","","","","","","","","","","","","","","","","","","","","","","","","","","","","","","","","","","","","","","",""
"","deliberation_comprehension_check","","survey-multi-choice","55","402183","0.0-53.0-1.0","0","0","s0LdK","Scenes","","31247","{""Q0"":""True"",""Q1"":""True"",""Q2"":""Consider carefully and take your time (up to 10 seconds)"",""Q3"":""True"",""Q4"":""D""}","0","","","","","","","","","","","","","","","","","","","","","","","","","","","","","","","","","","","","","","","","","","","","",""
"","start_phase","","html-keyboard-response","56","404379","0.0-54.0","0","0","s0LdK","Scenes","","2190","","","78","","","","","","","","","","","","","","","","","","","","","","","","","","","","","","","","","","","","","","","","","","","",""
"","first_deliberation_block","","html-keyboard-response","57","408158","0.0-55.0","0","0","s0LdK","Scenes","","3774","","","78","","","","","","","","","","","","","","","","","","","","","","","","","","","","","","","","","","","","","","","","","","","",""
"","fixation","","html-keyboard-response","58","409169","0.0-56.0-0.0","0","0","s0LdK","Scenes","","null","","","null","","","","","","","","","","","","","","","","","","","","","","","","","","","","","","","","","","","","","","","","","","","",""
"","deliberation","","html-keyboard-response","59","411290","0.0-56.0-1.0","0","0","s0LdK","Scenes","","2115","","","75","","","","0","102","127","0","-1","54","52","anisur-rahman-K2b7UDed6uQ-unsplash.jpg","kace-rodriguez-p3OzJuT_Dks-unsplash.jpg","1","0","127","102","","","","","","","","","","","","","","","","","","","","","","","","","","","",""
"","choice_confirmation","","html-keyboard-response","60","411799","0.0-56.0-2.0-0.0","0","0","s0LdK","Scenes","","null","","","null","","","","0","102","127","","","","","","","","","","","","","","","","","","","","","","","","","","","","","","","","","","","","","",""
"","fixation","","html-keyboard-response","61","412811","0.0-57.0-0.0","0","0","s0LdK","Scenes","","null","","","null","","","","","","","","","","","","","","","","","","","","","","","","","","","","","","","","","","","","","","","","","","","",""
"","deliberation","","html-keyboard-response","62","414648","0.0-57.0-1.0","0","0","s0LdK","Scenes","","1832","","","68","","","","1","148","117","0","1","52","55","tom-gainor-ZqLeQDjY6fY-unsplash.jpg","frank-mckenna-OD9EOzfSOh0-unsplash.jpg","1","1","148","117","","","","","","","","","","","","","","","","","","","","","","","","","","","",""
"","choice_confirmation","","html-keyboard-response","63","415155","0.0-57.0-2.0-0.0","0","0","s0LdK","Scenes","","null","","","null","","","","1","148","117","","","","","","","","","","","","","","","","","","","","","","","","","","","","","","","","","","","","","",""
"","fixation","","html-keyboard-response","64","416168","0.0-58.0-0.0","0","0","s0LdK","Scenes","","null","","","null","","","","","","","","","","","","","","","","","","","","","","","","","","","","","","","","","","","","","","","","","","","",""
"","deliberation","","html-keyboard-response","65","418093","0.0-58.0-1.0","0","0","s0LdK","Scenes","","1919","","","68","","","","2","108","119","0","-1","56","57","benjamin-voros-phIFdC6lA4E-unsplash.jpg","james-wheeler-AFC0XvICMgs-unsplash.jpg","1","1","108","119","","","","","","","","","","","","","","","","","","","","","","","","","","","",""
"","choice_confirmation","","html-keyboard-response","66","418600","0.0-58.0-2.0-0.0","0","0","s0LdK","Scenes","","null","","","null","","","","2","108","119","","","","","","","","","","","","","","","","","","","","","","","","","","","","","","","","","","","","","",""
"","fixation","","html-keyboard-response","67","419611","0.0-59.0-0.0","0","0","s0LdK","Scenes","","null","","","null","","","","","","","","","","","","","","","","","","","","","","","","","","","","","","","","","","","","","","","","","","","",""
"","deliberation","","html-keyboard-response","68","421147","0.0-59.0-1.0","0","0","s0LdK","Scenes","","1532","","","75","","","","3","147","110","1","1","52","59","tobias-keller-73F4pKoUkM0-unsplash.jpg","bruno-van-der-kraan-qez8mNJ3ilU-unsplash.jpg","1","0","110","147","","","","","","","","","","","","","","","","","","","","","","","","","","","",""
"","choice_confirmation","","html-keyboard-response","69","421658","0.0-59.0-2.0-0.0","0","0","s0LdK","Scenes","","null","","","null","","","","3","147","110","","","","","","","","","","","","","","","","","","","","","","","","","","","","","","","","","","","","","",""
"","explain_trial","","survey-text","70","465746","0.0-59.0-5.0-0.0","0","0","s0LdK","Scenes","","44082","{""Q0"":""It's more vibrant and colorful,, the landscape looks more lively.""}","","","","","","3","147","110","","","","","","","","","","","{""Q0"":""It's more vibrant and colorful,, the landscape looks more lively.""}","","","","","","","","","","","","","","","","","","","","","","","","","","",""
"","fixation","","html-keyboard-response","71","466764","0.0-60.0-0.0","0","0","s0LdK","Scenes","","null","","","null","","","","","","","","","","","","","","","","","","","","","","","","","","","","","","","","","","","","","","","","","","","",""
"","deliberation","","html-keyboard-response","72","468665","0.0-60.0-1.0","0","0","s0LdK","Scenes","","1896","","","75","","","","4","115","100","1","-1","56","56","darrell-cassell-hoCXpPUMCoE-unsplash.jpg","aleksandra-boguslawska-MS7KD9Ti7FQ-unsplash.jpg","1","0","100","115","","","","","","","","","","","","","","","","","","","","","","","","","","","",""
"","choice_confirmation","","html-keyboard-response","73","469172","0.0-60.0-2.0-0.0","0","0","s0LdK","Scenes","","null","","","null","","","","4","115","100","","","","","","","","","","","","","","","","","","","","","","","","","","","","","","","","","","","","","",""
"","explain_trial","","survey-text","74","509603","0.0-60.0-5.0-0.0","0","0","s0LdK","Scenes","","40427","{""Q0"":""The boardwalk makes the picture look more interesting than the other. The ocean has a better color.""}","","","","","","4","115","100","","","","","","","","","","","{""Q0"":""The boardwalk makes the picture look more interesting than the other. The ocean has a better color.""}","","","","","","","","","","","","","","","","","","","","","","","","","","",""
"","fixation","","html-keyboard-response","75","510620","0.0-61.0-0.0","0","0","s0LdK","Scenes","","null","","","null","","","","","","","","","","","","","","","","","","","","","","","","","","","","","","","","","","","","","","","","","","","",""
"","deliberation","","html-keyboard-response","76","512069","0.0-61.0-1.0","0","0","s0LdK","Scenes","","1444","","","68","","","","5","101","133","1","1","56","55","aniket-deole-T-tOgjWZ0fQ-unsplash.jpg","mickey-o-neil-xL66l--msXU-unsplash.jpg","1","1","101","133","","","","","","","","","","","","","","","","","","","","","","","","","","","",""
"","choice_confirmation","","html-keyboard-response","77","512579","0.0-61.0-2.0-0.0","0","0","s0LdK","Scenes","","null","","","null","","","","5","101","133","","","","","","","","","","","","","","","","","","","","","","","","","","","","","","","","","","","","","",""
"","explain_trial","","survey-text","78","534093","0.0-61.0-5.0-0.0","0","0","s0LdK","Scenes","","21508","{""Q0"":""The multitude of colors and landscape make it more interesting.""}","","","","","","5","101","133","","","","","","","","","","","{""Q0"":""The multitude of colors and landscape make it more interesting.""}","","","","","","","","","","","","","","","","","","","","","","","","","","",""
"","fixation","","html-keyboard-response","79","535108","0.0-62.0-0.0","0","0","s0LdK","Scenes","","null","","","null","","","","","","","","","","","","","","","","","","","","","","","","","","","","","","","","","","","","","","","","","","","",""
"","deliberation","","html-keyboard-response","80","536336","0.0-62.0-1.0","0","0","s0LdK","Scenes","","1225","","","68","","","","6","134","129","1","1","55","52","milada-vigerova-pQMM63GE7fo-unsplash.jpg","kurt-cotoaga-cqbLg3lZEpk-unsplash.jpg","1","1","134","129","","","","","","","","","","","","","","","","","","","","","","","","","","","",""
"","choice_confirmation","","html-keyboard-response","81","536848","0.0-62.0-2.0-0.0","0","0","s0LdK","Scenes","","null","","","null","","","","6","134","129","","","","","","","","","","","","","","","","","","","","","","","","","","","","","","","","","","","","","",""
"","explain_trial","","survey-text","82","552607","0.0-62.0-5.0-0.0","0","0","s0LdK","Scenes","","15755","{""Q0"":""The colors are more vibrant and lively.""}","","","","","","6","134","129","","","","","","","","","","","{""Q0"":""The colors are more vibrant and lively.""}","","","","","","","","","","","","","","","","","","","","","","","","","","",""
"","fixation","","html-keyboard-response","83","553614","0.0-63.0-0.0","0","0","s0LdK","Scenes","","null","","","null","","","","","","","","","","","","","","","","","","","","","","","","","","","","","","","","","","","","","","","","","","","",""
"","deliberation","","html-keyboard-response","84","554843","0.0-63.0-1.0","0","0","s0LdK","Scenes","","1224","","","75","","","","7","109","123","0","-1","52","59","brigitta-schneiter-hXXRLtTxXCU-unsplash.jpg","joel-jasmin-forestbird-efuwb5eBDrI-unsplash.jpg","1","0","123","109","","","","","","","","","","","","","","","","","","","","","","","","","","","",""
"","choice_confirmation","","html-keyboard-response","85","555353","0.0-63.0-2.0-0.0","0","0","s0LdK","Scenes","","null","","","null","","","","7","109","123","","","","","","","","","","","","","","","","","","","","","","","","","","","","","","","","","","","","","",""
"","fixation","","html-keyboard-response","86","556358","0.0-64.0-0.0","0","0","s0LdK","Scenes","","null","","","null","","","","","","","","","","","","","","","","","","","","","","","","","","","","","","","","","","","","","","","","","","","",""
"","deliberation","","html-keyboard-response","87","558399","0.0-64.0-1.0","0","0","s0LdK","Scenes","","2038","","","75","","","","8","143","114","1","-1","61","56","sigurdur-fjalar-jonsson-1KxBabIntpE-unsplash.jpg","daniel-sessler-z_9VmsxR8hs-unsplash.jpg","1","0","114","143","","","","","","","","","","","","","","","","","","","","","","","","","","","",""
"","choice_confirmation","","html-keyboard-response","88","558909","0.0-64.0-2.0-0.0","0","0","s0LdK","Scenes","","null","","","null","","","","8","143","114","","","","","","","","","","","","","","","","","","","","","","","","","","","","","","","","","","","","","",""
"","explain_trial","","survey-text","89","586022","0.0-64.0-5.0-0.0","0","0","s0LdK","Scenes","","27108","{""Q0"":""The island is nice and centered and more pleasing to look at.""}","","","","","","8","143","114","","","","","","","","","","","{""Q0"":""The island is nice and centered and more pleasing to look at.""}","","","","","","","","","","","","","","","","","","","","","","","","","","",""
"","fixation","","html-keyboard-response","90","587036","0.0-65.0-0.0","0","0","s0LdK","Scenes","","null","","","null","","","","","","","","","","","","","","","","","","","","","","","","","","","","","","","","","","","","","","","","","","","",""
"","deliberation","","html-keyboard-response","91","587990","0.0-65.0-1.0","0","0","s0LdK","Scenes","","948","","","68","","","","9","132","135","0","-1","57","52","meng-ji-8BH_M-53CyA-unsplash.jpg","mohammad-alizade-4wzRuAb-KWs-unsplash.jpg","1","1","132","135","","","","","","","","","","","","","","","","","","","","","","","","","","","",""
"","choice_confirmation","","html-keyboard-response","92","588498","0.0-65.0-2.0-0.0","0","0","s0LdK","Scenes","","null","","","null","","","","9","132","135","","","","","","","","","","","","","","","","","","","","","","","","","","","","","","","","","","","","","",""
"","fixation","","html-keyboard-response","93","589516","0.0-66.0-0.0","0","0","s0LdK","Scenes","","null","","","null","","","","","","","","","","","","","","","","","","","","","","","","","","","","","","","","","","","","","","","","","","","",""
"","deliberation","","html-keyboard-response","94","591222","0.0-66.0-1.0","0","0","s0LdK","Scenes","","1700","","","68","","","","10","128","107","0","1","58","59","karsten-wurth-jS0zC2PJ17A-unsplash.jpg","benjamin-davies-Zm2n2O7Fph4-unsplash.jpg","1","1","128","107","","","","","","","","","","","","","","","","","","","","","","","","","","","",""
"","choice_confirmation","","html-keyboard-response","95","591732","0.0-66.0-2.0-0.0","0","0","s0LdK","Scenes","","null","","","null","","","","10","128","107","","","","","","","","","","","","","","","","","","","","","","","","","","","","","","","","","","","","","",""
"","fixation","","html-keyboard-response","96","592746","0.0-67.0-0.0","0","0","s0LdK","Scenes","","null","","","null","","","","","","","","","","","","","","","","","","","","","","","","","","","","","","","","","","","","","","","","","","","",""
"","deliberation","","html-keyboard-response","97","594320","0.0-67.0-1.0","0","0","s0LdK","Scenes","","1568","","","75","","","","11","141","131","1","1","57","60","sebastian-unrau-v4e3JI7DDHI-unsplash.jpg","luca-bravo-hFzIoD0F_i8-unsplash.jpg","1","0","131","141","","","","","","","","","","","","","","","","","","","","","","","","","","","",""
"","choice_confirmation","","html-keyboard-response","98","594828","0.0-67.0-2.0-0.0","0","0","s0LdK","Scenes","","null","","","null","","","","11","141","131","","","","","","","","","","","","","","","","","","","","","","","","","","","","","","","","","","","","","",""
"","explain_trial","","survey-text","99","612845","0.0-67.0-5.0-0.0","0","0","s0LdK","Scenes","","18014","{""Q0"":""The cabin gives it a nice majestic and lively feel.""}","","","","","","11","141","131","","","","","","","","","","","{""Q0"":""The cabin gives it a nice majestic and lively feel.""}","","","","","","","","","","","","","","","","","","","","","","","","","","",""
"","practice_deliberation_again","","html-keyboard-response","100","615024","0.0-67.0-6.0-0.0","0","0","s0LdK","Scenes","","2174","","","78","","","","","","","","","","","","","","","","","","","","","","","","","","","","","","","","","","","","","","","","","","","",""
"","fixation","","html-keyboard-response","101","616035","0.0-68.0-0.0","0","0","s0LdK","Scenes","","null","","","null","","","","","","","","","","","","","","","","","","","","","","","","","","","","","","","","","","","","","","","","","","","",""
"","deliberation","","html-keyboard-response","102","617132","0.0-68.0-1.0","0","0","s0LdK","Scenes","","1091","","","75","","","","12","108","119","1","-1","56","57","benjamin-voros-phIFdC6lA4E-unsplash.jpg","james-wheeler-AFC0XvICMgs-unsplash.jpg","2","0","119","108","","","","","","","","","","","","","","","","","","","","","","","","","","","",""
"","choice_confirmation","","html-keyboard-response","103","617644","0.0-68.0-2.0-0.0","0","0","s0LdK","Scenes","","null","","","null","","","","12","108","119","","","","","","","","","","","","","","","","","","","","","","","","","","","","","","","","","","","","","",""
"","explain_trial","","survey-text","104","635439","0.0-68.0-5.0-0.0","0","0","s0LdK","Scenes","","17790","{""Q0"":""The beautiful blue and mountains make it appealing.""}","","","","","","12","108","119","","","","","","","","","","","{""Q0"":""The beautiful blue and mountains make it appealing.""}","","","","","","","","","","","","","","","","","","","","","","","","","","",""
"","fixation","","html-keyboard-response","105","636451","0.0-69.0-0.0","0","0","s0LdK","Scenes","","null","","","null","","","","","","","","","","","","","","","","","","","","","","","","","","","","","","","","","","","","","","","","","","","",""
"","deliberation","","html-keyboard-response","106","637789","0.0-69.0-1.0","0","0","s0LdK","Scenes","","1333","","","75","","","","13","109","123","1","-1","52","59","brigitta-schneiter-hXXRLtTxXCU-unsplash.jpg","joel-jasmin-forestbird-efuwb5eBDrI-unsplash.jpg","2","0","123","109","","","","","","","","","","","","","","","","","","","","","","","","","","","",""
"","choice_confirmation","","html-keyboard-response","107","638300","0.0-69.0-2.0-0.0","0","0","s0LdK","Scenes","","null","","","null","","","","13","109","123","","","","","","","","","","","","","","","","","","","","","","","","","","","","","","","","","","","","","",""
"","explain_trial","","survey-text","108","659895","0.0-69.0-5.0-0.0","0","0","s0LdK","Scenes","","21590","{""Q0"":""The mixture of snow and water make it more beautiful.""}","","","","","","13","109","123","","","","","","","","","","","{""Q0"":""The mixture of snow and water make it more beautiful.""}","","","","","","","","","","","","","","","","","","","","","","","","","","",""
"","fixation","","html-keyboard-response","109","660906","0.0-70.0-0.0","0","0","s0LdK","Scenes","","null","","","null","","","","","","","","","","","","","","","","","","","","","","","","","","","","","","","","","","","","","","","","","","","",""
"","deliberation","","html-keyboard-response","110","662597","0.0-70.0-1.0","0","0","s0LdK","Scenes","","1684","","","68","","","","14","143","114","0","-1","61","56","sigurdur-fjalar-jonsson-1KxBabIntpE-unsplash.jpg","daniel-sessler-z_9VmsxR8hs-unsplash.jpg","2","1","143","114","","","","","","","","","","","","","","","","","","","","","","","","","","","",""
"","choice_confirmation","","html-keyboard-response","111","663113","0.0-70.0-2.0-0.0","0","0","s0LdK","Scenes","","null","","","null","","","","14","143","114","","","","","","","","","","","","","","","","","","","","","","","","","","","","","","","","","","","","","",""
"","fixation","","html-keyboard-response","112","664132","0.0-71.0-0.0","0","0","s0LdK","Scenes","","null","","","null","","","","","","","","","","","","","","","","","","","","","","","","","","","","","","","","","","","","","","","","","","","",""
"","deliberation","","html-keyboard-response","113","666088","0.0-71.0-1.0","0","0","s0LdK","Scenes","","1953","","","68","","","","15","128","107","1","1","58","59","karsten-wurth-jS0zC2PJ17A-unsplash.jpg","benjamin-davies-Zm2n2O7Fph4-unsplash.jpg","2","1","128","107","","","","","","","","","","","","","","","","","","","","","","","","","","","",""
"","choice_confirmation","","html-keyboard-response","114","666602","0.0-71.0-2.0-0.0","0","0","s0LdK","Scenes","","null","","","null","","","","15","128","107","","","","","","","","","","","","","","","","","","","","","","","","","","","","","","","","","","","","","",""
"","explain_trial","","survey-text","115","698630","0.0-71.0-5.0-0.0","0","0","s0LdK","Scenes","","32021","{""Q0"":""The house with the mountains in the backdrop make it more interesting and lively.""}","","","","","","15","128","107","","","","","","","","","","","{""Q0"":""The house with the mountains in the backdrop make it more interesting and lively.""}","","","","","","","","","","","","","","","","","","","","","","","","","","",""
"","fixation","","html-keyboard-response","116","699641","0.0-72.0-0.0","0","0","s0LdK","Scenes","","null","","","null","","","","","","","","","","","","","","","","","","","","","","","","","","","","","","","","","","","","","","","","","","","",""
"","deliberation","","html-keyboard-response","117","700794","0.0-72.0-1.0","0","0","s0LdK","Scenes","","1147","","","75","","","","16","147","110","0","1","52","59","tobias-keller-73F4pKoUkM0-unsplash.jpg","bruno-van-der-kraan-qez8mNJ3ilU-unsplash.jpg","2","0","110","147","","","","","","","","","","","","","","","","","","","","","","","","","","","",""
"","choice_confirmation","","html-keyboard-response","118","701303","0.0-72.0-2.0-0.0","0","0","s0LdK","Scenes","","null","","","null","","","","16","147","110","","","","","","","","","","","","","","","","","","","","","","","","","","","","","","","","","","","","","",""
"","fixation","","html-keyboard-response","119","702312","0.0-73.0-0.0","0","0","s0LdK","Scenes","","null","","","null","","","","","","","","","","","","","","","","","","","","","","","","","","","","","","","","","","","","","","","","","","","",""
"","deliberation","","html-keyboard-response","120","703608","0.0-73.0-1.0","0","0","s0LdK","Scenes","","1292","","","68","","","","17","132","135","1","-1","57","52","meng-ji-8BH_M-53CyA-unsplash.jpg","mohammad-alizade-4wzRuAb-KWs-unsplash.jpg","2","1","132","135","","","","","","","","","","","","","","","","","","","","","","","","","","","",""
"","choice_confirmation","","html-keyboard-response","121","704116","0.0-73.0-2.0-0.0","0","0","s0LdK","Scenes","","null","","","null","","","","17","132","135","","","","","","","","","","","","","","","","","","","","","","","","","","","","","","","","","","","","","",""
"","explain_trial","","survey-text","122","725735","0.0-73.0-5.0-0.0","0","0","s0LdK","Scenes","","21611","{""Q0"":""The blue and bright color to the art makes it more appealing.""}","","","","","","17","132","135","","","","","","","","","","","{""Q0"":""The blue and bright color to the art makes it more appealing.""}","","","","","","","","","","","","","","","","","","","","","","","","","","",""
"","fixation","","html-keyboard-response","123","726747","0.0-74.0-0.0","0","0","s0LdK","Scenes","","null","","","null","","","","","","","","","","","","","","","","","","","","","","","","","","","","","","","","","","","","","","","","","","","",""
"","deliberation","","html-keyboard-response","124","728092","0.0-74.0-1.0","0","0","s0LdK","Scenes","","1343","","","68","","","","18","148","117","1","1","52","55","tom-gainor-ZqLeQDjY6fY-unsplash.jpg","frank-mckenna-OD9EOzfSOh0-unsplash.jpg","2","1","148","117","","","","","","","","","","","","","","","","","","","","","","","","","","","",""
"","choice_confirmation","","html-keyboard-response","125","728598","0.0-74.0-2.0-0.0","0","0","s0LdK","Scenes","","null","","","null","","","","18","148","117","","","","","","","","","","","","","","","","","","","","","","","","","","","","","","","","","","","","","",""
"","explain_trial","","survey-text","126","746063","0.0-74.0-5.0-0.0","0","0","s0LdK","Scenes","","17459","{""Q0"":""The uniform look with the water and mountains make it more appealing.""}","","","","","","18","148","117","","","","","","","","","","","{""Q0"":""The uniform look with the water and mountains make it more appealing.""}","","","","","","","","","","","","","","","","","","","","","","","","","","",""
"","fixation","","html-keyboard-response","127","747072","0.0-75.0-0.0","0","0","s0LdK","Scenes","","null","","","null","","","","","","","","","","","","","","","","","","","","","","","","","","","","","","","","","","","","","","","","","","","",""
"","deliberation","","html-keyboard-response","128","748671","0.0-75.0-1.0","0","0","s0LdK","Scenes","","1595","","","68","","","","19","101","133","0","1","56","55","aniket-deole-T-tOgjWZ0fQ-unsplash.jpg","mickey-o-neil-xL66l--msXU-unsplash.jpg","2","1","101","133","","","","","","","","","","","","","","","","","","","","","","","","","","","",""
"","choice_confirmation","","html-keyboard-response","129","749179","0.0-75.0-2.0-0.0","0","0","s0LdK","Scenes","","null","","","null","","","","19","101","133","","","","","","","","","","","","","","","","","","","","","","","","","","","","","","","","","","","","","",""
"","fixation","","html-keyboard-response","130","750193","0.0-76.0-0.0","0","0","s0LdK","Scenes","","null","","","null","","","","","","","","","","","","","","","","","","","","","","","","","","","","","","","","","","","","","","","","","","","",""
"","deliberation","","html-keyboard-response","131","751439","0.0-76.0-1.0","0","0","s0LdK","Scenes","","1240","","","68","","","","20","134","129","0","1","55","52","milada-vigerova-pQMM63GE7fo-unsplash.jpg","kurt-cotoaga-cqbLg3lZEpk-unsplash.jpg","2","1","134","129","","","","","","","","","","","","","","","","","","","","","","","","","","","",""
"","choice_confirmation","","html-keyboard-response","132","751949","0.0-76.0-2.0-0.0","0","0","s0LdK","Scenes","","null","","","null","","","","20","134","129","","","","","","","","","","","","","","","","","","","","","","","","","","","","","","","","","","","","","",""
"","fixation","","html-keyboard-response","133","752963","0.0-77.0-0.0","0","0","s0LdK","Scenes","","null","","","null","","","","","","","","","","","","","","","","","","","","","","","","","","","","","","","","","","","","","","","","","","","",""
"","deliberation","","html-keyboard-response","134","753877","0.0-77.0-1.0","0","0","s0LdK","Scenes","","908","","","75","","","","21","115","100","0","-1","56","56","darrell-cassell-hoCXpPUMCoE-unsplash.jpg","aleksandra-boguslawska-MS7KD9Ti7FQ-unsplash.jpg","2","0","100","115","","","","","","","","","","","","","","","","","","","","","","","","","","","",""
"","choice_confirmation","","html-keyboard-response","135","754382","0.0-77.0-2.0-0.0","0","0","s0LdK","Scenes","","null","","","null","","","","21","115","100","","","","","","","","","","","","","","","","","","","","","","","","","","","","","","","","","","","","","",""
"","fixation","","html-keyboard-response","136","755393","0.0-78.0-0.0","0","0","s0LdK","Scenes","","null","","","null","","","","","","","","","","","","","","","","","","","","","","","","","","","","","","","","","","","","","","","","","","","",""
"","deliberation","","html-keyboard-response","137","756544","0.0-78.0-1.0","0","0","s0LdK","Scenes","","1147","","","75","","","","22","102","127","1","-1","54","52","anisur-rahman-K2b7UDed6uQ-unsplash.jpg","kace-rodriguez-p3OzJuT_Dks-unsplash.jpg","2","0","127","102","","","","","","","","","","","","","","","","","","","","","","","","","","","",""
"","choice_confirmation","","html-keyboard-response","138","757051","0.0-78.0-2.0-0.0","0","0","s0LdK","Scenes","","null","","","null","","","","22","102","127","","","","","","","","","","","","","","","","","","","","","","","","","","","","","","","","","","","","","",""
"","explain_trial","","survey-text","139","781309","0.0-78.0-5.0-0.0","0","0","s0LdK","Scenes","","24253","{""Q0"":""The rocks and water make it a nice art piece that has more interesting features.""}","","","","","","22","102","127","","","","","","","","","","","{""Q0"":""The rocks and water make it a nice art piece that has more interesting features.""}","","","","","","","","","","","","","","","","","","","","","","","","","","",""
"","fixation","","html-keyboard-response","140","782322","0.0-79.0-0.0","0","0","s0LdK","Scenes","","null","","","null","","","","","","","","","","","","","","","","","","","","","","","","","","","","","","","","","","","","","","","","","","","",""
"","deliberation","","html-keyboard-response","141","784574","0.0-79.0-1.0","0","0","s0LdK","Scenes","","2248","","","75","","","","23","141","131","0","1","57","60","sebastian-unrau-v4e3JI7DDHI-unsplash.jpg","luca-bravo-hFzIoD0F_i8-unsplash.jpg","2","0","131","141","","","","","","","","","","","","","","","","","","","","","","","","","","","",""
"","choice_confirmation","","html-keyboard-response","142","785080","0.0-79.0-2.0-0.0","0","0","s0LdK","Scenes","","null","","","null","","","","23","141","131","","","","","","","","","","","","","","","","","","","","","","","","","","","","","","","","","","","","","",""
"","start_critical_deliberation_block","","html-keyboard-response","143","788147","0.0-79.0-7.0-0.0","0","0","s0LdK","Scenes","","3062","","","78","","","","","","","","","","","","","","","","","","","","","","","","","","","","","","","","","","","","","","","","","","","",""
"","fixation","","html-keyboard-response","144","789160","0.0-80.0-0.0","0","0","s0LdK","Scenes","","null","","","null","","","","","","","","","","","","","","","","","","","","","","","","","","","","","","","","","","","","","","","","","","","",""
"","deliberation","","html-keyboard-response","145","791195","0.0-80.0-1.0","0","0","s0LdK","Scenes","","2029","","","75","","","","24","143","114","0","-1","61","56","sigurdur-fjalar-jonsson-1KxBabIntpE-unsplash.jpg","daniel-sessler-z_9VmsxR8hs-unsplash.jpg","3","0","114","143","","","","","","","","","","","","","","","","","","","","","","","","","","","",""
"","choice_confirmation","","html-keyboard-response","146","791708","0.0-80.0-2.0-0.0","0","0","s0LdK","Scenes","","null","","","null","","","","24","143","114","","","","","","","","","","","","","","","","","","","","","","","","","","","","","","","","","","","","","",""
"","fixation","","html-keyboard-response","147","792721","0.0-81.0-0.0","0","0","s0LdK","Scenes","","null","","","null","","","","","","","","","","","","","","","","","","","","","","","","","","","","","","","","","","","","","","","","","","","",""
"","deliberation","","html-keyboard-response","148","794404","0.0-81.0-1.0","0","0","s0LdK","Scenes","","1676","","","68","","","","25","134","129","0","1","55","52","milada-vigerova-pQMM63GE7fo-unsplash.jpg","kurt-cotoaga-cqbLg3lZEpk-unsplash.jpg","3","1","134","129","","","","","","","","","","","","","","","","","","","","","","","","","","","",""
"","choice_confirmation","","html-keyboard-response","149","794916","0.0-81.0-2.0-0.0","0","0","s0LdK","Scenes","","null","","","null","","","","25","134","129","","","","","","","","","","","","","","","","","","","","","","","","","","","","","","","","","","","","","",""
"","fixation","","html-keyboard-response","150","795931","0.0-82.0-0.0","0","0","s0LdK","Scenes","","null","","","null","","","","","","","","","","","","","","","","","","","","","","","","","","","","","","","","","","","","","","","","","","","",""
"","deliberation","","html-keyboard-response","151","797408","0.0-82.0-1.0","0","0","s0LdK","Scenes","","1473","","","68","","","","26","132","135","0","-1","57","52","meng-ji-8BH_M-53CyA-unsplash.jpg","mohammad-alizade-4wzRuAb-KWs-unsplash.jpg","3","1","132","135","","","","","","","","","","","","","","","","","","","","","","","","","","","",""
"","choice_confirmation","","html-keyboard-response","152","797916","0.0-82.0-2.0-0.0","0","0","s0LdK","Scenes","","null","","","null","","","","26","132","135","","","","","","","","","","","","","","","","","","","","","","","","","","","","","","","","","","","","","",""
"","fixation","","html-keyboard-response","153","798932","0.0-83.0-0.0","0","0","s0LdK","Scenes","","null","","","null","","","","","","","","","","","","","","","","","","","","","","","","","","","","","","","","","","","","","","","","","","","",""
"","deliberation","","html-keyboard-response","154","800396","0.0-83.0-1.0","0","0","s0LdK","Scenes","","1458","","","75","","","","27","102","127","0","-1","54","52","anisur-rahman-K2b7UDed6uQ-unsplash.jpg","kace-rodriguez-p3OzJuT_Dks-unsplash.jpg","3","0","127","102","","","","","","","","","","","","","","","","","","","","","","","","","","","",""
"","choice_confirmation","","html-keyboard-response","155","800908","0.0-83.0-2.0-0.0","0","0","s0LdK","Scenes","","null","","","null","","","","27","102","127","","","","","","","","","","","","","","","","","","","","","","","","","","","","","","","","","","","","","",""
"","fixation","","html-keyboard-response","156","801923","0.0-84.0-0.0","0","0","s0LdK","Scenes","","null","","","null","","","","","","","","","","","","","","","","","","","","","","","","","","","","","","","","","","","","","","","","","","","",""
"","deliberation","","html-keyboard-response","157","803442","0.0-84.0-1.0","0","0","s0LdK","Scenes","","1517","","","75","","","","28","108","119","0","-1","56","57","benjamin-voros-phIFdC6lA4E-unsplash.jpg","james-wheeler-AFC0XvICMgs-unsplash.jpg","3","0","119","108","","","","","","","","","","","","","","","","","","","","","","","","","","","",""
"","choice_confirmation","","html-keyboard-response","158","803952","0.0-84.0-2.0-0.0","0","0","s0LdK","Scenes","","null","","","null","","","","28","108","119","","","","","","","","","","","","","","","","","","","","","","","","","","","","","","","","","","","","","",""
"","fixation","","html-keyboard-response","159","804962","0.0-85.0-0.0","0","0","s0LdK","Scenes","","null","","","null","","","","","","","","","","","","","","","","","","","","","","","","","","","","","","","","","","","","","","","","","","","",""
"","deliberation","","html-keyboard-response","160","806091","0.0-85.0-1.0","0","0","s0LdK","Scenes","","1123","","","68","","","","29","101","133","0","1","56","55","aniket-deole-T-tOgjWZ0fQ-unsplash.jpg","mickey-o-neil-xL66l--msXU-unsplash.jpg","3","1","101","133","","","","","","","","","","","","","","","","","","","","","","","","","","","",""
"","choice_confirmation","","html-keyboard-response","161","806597","0.0-85.0-2.0-0.0","0","0","s0LdK","Scenes","","null","","","null","","","","29","101","133","","","","","","","","","","","","","","","","","","","","","","","","","","","","","","","","","","","","","",""
"","fixation","","html-keyboard-response","162","807612","0.0-86.0-0.0","0","0","s0LdK","Scenes","","null","","","null","","","","","","","","","","","","","","","","","","","","","","","","","","","","","","","","","","","","","","","","","","","",""
"","deliberation","","html-keyboard-response","163","808847","0.0-86.0-1.0","0","0","s0LdK","Scenes","","1229","","","75","","","","30","141","131","0","1","57","60","sebastian-unrau-v4e3JI7DDHI-unsplash.jpg","luca-bravo-hFzIoD0F_i8-unsplash.jpg","3","0","131","141","","","","","","","","","","","","","","","","","","","","","","","","","","","",""
"","choice_confirmation","","html-keyboard-response","164","809356","0.0-86.0-2.0-0.0","0","0","s0LdK","Scenes","","null","","","null","","","","30","141","131","","","","","","","","","","","","","","","","","","","","","","","","","","","","","","","","","","","","","",""
"","fixation","","html-keyboard-response","165","810368","0.0-87.0-0.0","0","0","s0LdK","Scenes","","null","","","null","","","","","","","","","","","","","","","","","","","","","","","","","","","","","","","","","","","","","","","","","","","",""
"","deliberation","","html-keyboard-response","166","811671","0.0-87.0-1.0","0","0","s0LdK","Scenes","","1297","","","75","","","","31","147","110","0","1","52","59","tobias-keller-73F4pKoUkM0-unsplash.jpg","bruno-van-der-kraan-qez8mNJ3ilU-unsplash.jpg","3","0","110","147","","","","","","","","","","","","","","","","","","","","","","","","","","","",""
"","choice_confirmation","","html-keyboard-response","167","812175","0.0-87.0-2.0-0.0","0","0","s0LdK","Scenes","","null","","","null","","","","31","147","110","","","","","","","","","","","","","","","","","","","","","","","","","","","","","","","","","","","","","",""
"","fixation","","html-keyboard-response","168","813187","0.0-88.0-0.0","0","0","s0LdK","Scenes","","null","","","null","","","","","","","","","","","","","","","","","","","","","","","","","","","","","","","","","","","","","","","","","","","",""
"","deliberation","","html-keyboard-response","169","814794","0.0-88.0-1.0","0","0","s0LdK","Scenes","","1603","","","68","","","","32","128","107","0","1","58","59","karsten-wurth-jS0zC2PJ17A-unsplash.jpg","benjamin-davies-Zm2n2O7Fph4-unsplash.jpg","3","1","128","107","","","","","","","","","","","","","","","","","","","","","","","","","","","",""
"","choice_confirmation","","html-keyboard-response","170","815305","0.0-88.0-2.0-0.0","0","0","s0LdK","Scenes","","null","","","null","","","","32","128","107","","","","","","","","","","","","","","","","","","","","","","","","","","","","","","","","","","","","","",""
"","fixation","","html-keyboard-response","171","816323","0.0-89.0-0.0","0","0","s0LdK","Scenes","","null","","","null","","","","","","","","","","","","","","","","","","","","","","","","","","","","","","","","","","","","","","","","","","","",""
"","deliberation","","html-keyboard-response","172","817584","0.0-89.0-1.0","0","0","s0LdK","Scenes","","1256","","","75","","","","33","109","123","0","-1","52","59","brigitta-schneiter-hXXRLtTxXCU-unsplash.jpg","joel-jasmin-forestbird-efuwb5eBDrI-unsplash.jpg","3","0","123","109","","","","","","","","","","","","","","","","","","","","","","","","","","","",""
"","choice_confirmation","","html-keyboard-response","173","818092","0.0-89.0-2.0-0.0","0","0","s0LdK","Scenes","","null","","","null","","","","33","109","123","","","","","","","","","","","","","","","","","","","","","","","","","","","","","","","","","","","","","",""
"","fixation","","html-keyboard-response","174","819103","0.0-90.0-0.0","0","0","s0LdK","Scenes","","null","","","null","","","","","","","","","","","","","","","","","","","","","","","","","","","","","","","","","","","","","","","","","","","",""
"","deliberation","","html-keyboard-response","175","820345","0.0-90.0-1.0","0","0","s0LdK","Scenes","","1235","","","75","","","","34","115","100","0","-1","56","56","darrell-cassell-hoCXpPUMCoE-unsplash.jpg","aleksandra-boguslawska-MS7KD9Ti7FQ-unsplash.jpg","3","0","100","115","","","","","","","","","","","","","","","","","","","","","","","","","","","",""
"","choice_confirmation","","html-keyboard-response","176","820855","0.0-90.0-2.0-0.0","0","0","s0LdK","Scenes","","null","","","null","","","","34","115","100","","","","","","","","","","","","","","","","","","","","","","","","","","","","","","","","","","","","","",""
"","fixation","","html-keyboard-response","177","821863","0.0-91.0-0.0","0","0","s0LdK","Scenes","","null","","","null","","","","","","","","","","","","","","","","","","","","","","","","","","","","","","","","","","","","","","","","","","","",""
"","deliberation","","html-keyboard-response","178","823054","0.0-91.0-1.0","0","0","s0LdK","Scenes","","1186","","","68","","","","35","148","117","0","1","52","55","tom-gainor-ZqLeQDjY6fY-unsplash.jpg","frank-mckenna-OD9EOzfSOh0-unsplash.jpg","3","1","148","117","","","","","","","","","","","","","","","","","","","","","","","","","","","",""
"","choice_confirmation","","html-keyboard-response","179","823578","0.0-91.0-2.0-0.0","0","0","s0LdK","Scenes","","null","","","null","","","","35","148","117","","","","","","","","","","","","","","","","","","","","","","","","","","","","","","","","","","","","","",""
"","reward_learning_instructions","","instructions","180","871212","0.0-92.0-0.0","0","0","s0LdK","Scenes","[{""page_index"":0,""viewing_time"":18225},{""page_index"":1,""viewing_time"":27539},{""page_index"":2,""viewing_time"":1866}]","47631","","","","","","","","","","","","","","","","","","","","","","","","","","","","","","","","","","","","","","","","","","","","","","",""
"","reward_comprehension_check","","survey-multi-choice","181","905665","0.0-92.0-1.0","0","0","s0LdK","Scenes","","34448","{""Q0"":""True"",""Q1"":""True"",""Q2"":""Press the space bar to see its outcome"",""Q3"":""Press the relevant key while the outcome is presented""}","0","","","","","","","","","","","","","","","","","","","","","","","","","","","","","","","","","","","","","","","","","","","","",""
"","start_phase","","html-keyboard-response","182","907458","0.0-93.0","0","0","s0LdK","Scenes","","1790","","","78","","","","","","","","","","","","","","","","","","","","","","","","","","","","","","","","","","","","","","","","","","","",""
"","fixation","","html-keyboard-response","183","908473","0.0-94.0","0","0","s0LdK","Scenes","","null","","","null","","","","","","","","","","","","","","","","","","","","","","","","","","","","","","","","","","","","","","","","","","","",""
"","see_reward","","html-keyboard-response","184","909404","0.0-95.0","0","0","s0LdK","Scenes","","926","","","32","","127","","0","","","","-1","","","","","1","","","","","0","926","","","","","","","","","","","","","","","","","","","","","","","","",""
"","reward_outcome","","html-keyboard-response","185","911416","0.0-96.0","0","0","s0LdK","Scenes","","1136","","","40","","127","","0","","","","","","","","","","","","","","","","-1","1136","","","","","","","","","","","","","","","","","","","","","","",""
"","fixation","","html-keyboard-response","186","912428","0.0-99.0","0","0","s0LdK","Scenes","","null","","","null","","","","","","","","","","","","","","","","","","","","","","","","","","","","","","","","","","","","","","","","","","","",""
"","see_reward","","html-keyboard-response","187","913353","0.0-100.0","0","0","s0LdK","Scenes","","922","","","32","","148","","1","","","","1","","","","","1","","","","","159","922","","","","","","","","","","","","","","","","","","","","","","","","",""
"","reward_outcome","","html-keyboard-response","188","915368","0.0-101.0","0","0","s0LdK","Scenes","","919","","","38","","148","","1","","","","","","","","","","","","","","","","1","919","","","","","","","","","","","","","","","","","","","","","","",""
"","fixation","","html-keyboard-response","189","916380","0.0-104.0","0","0","s0LdK","Scenes","","null","","","null","","","","","","","","","","","","","","","","","","","","","","","","","","","","","","","","","","","","","","","","","","","",""
"","see_reward","","html-keyboard-response","190","917210","0.0-105.0","0","0","s0LdK","Scenes","","826","","","32","","128","","2","","","","1","","","","","1","","","","","156","826","","","","","","","","","","","","","","","","","","","","","","","","",""
"","reward_outcome","","html-keyboard-response","191","919228","0.0-106.0","0","0","s0LdK","Scenes","","847","","","38","","128","","2","","","","","","","","","","","","","","","","1","847","","","","","","","","","","","","","","","","","","","","","","",""
"","fixation","","html-keyboard-response","192","920241","0.0-109.0","0","0","s0LdK","Scenes","","null","","","null","","","","","","","","","","","","","","","","","","","","","","","","","","","","","","","","","","","","","","","","","","","",""
"","see_reward","","html-keyboard-response","193","921213","0.0-110.0","0","0","s0LdK","Scenes","","967","","","32","","123","","3","","","","-1","","","","","1","","","","","0","967","","","","","","","","","","","","","","","","","","","","","","","","",""
"","reward_outcome","","html-keyboard-response","194","923228","0.0-111.0","0","0","s0LdK","Scenes","","968","","","40","","123","","3","","","","","","","","","","","","","","","","-1","968","","","","","","","","","","","","","","","","","","","","","","",""
"","fixation","","html-keyboard-response","195","924239","0.0-114.0","0","0","s0LdK","Scenes","","null","","","null","","","","","","","","","","","","","","","","","","","","","","","","","","","","","","","","","","","","","","","","","","","",""
"","see_reward","","html-keyboard-response","196","925054","0.0-115.0","0","0","s0LdK","Scenes","","809","","","32","","110","","4","","","","1","","","","","1","","","","","145","809","","","","","","","","","","","","","","","","","","","","","","","","",""
"","reward_outcome","","html-keyboard-response","197","927065","0.0-116.0","0","0","s0LdK","Scenes","","817","","","38","","110","","4","","","","","","","","","","","","","","","","1","817","","","","","","","","","","","","","","","","","","","","","","",""
"","fixation","","html-keyboard-response","198","928076","0.0-119.0","0","0","s0LdK","Scenes","","null","","","null","","","","","","","","","","","","","","","","","","","","","","","","","","","","","","","","","","","","","","","","","","","",""
"","see_reward","","html-keyboard-response","199","929147","0.0-120.0","0","0","s0LdK","Scenes","","1066","","","32","","119","","5","","","","-1","","","","","1","","","","","0","1066","","","","","","","","","","","","","","","","","","","","","","","","",""
"","reward_outcome","","html-keyboard-response","200","931161","0.0-121.0","0","0","s0LdK","Scenes","","808","","","40","","119","","5","","","","","","","","","","","","","","","","-1","808","","","","","","","","","","","","","","","","","","","","","","",""
"","fixation","","html-keyboard-response","201","932172","0.0-124.0","0","0","s0LdK","Scenes","","null","","","null","","","","","","","","","","","","","","","","","","","","","","","","","","","","","","","","","","","","","","","","","","","",""
"","see_reward","","html-keyboard-response","202","932861","0.0-125.0","0","0","s0LdK","Scenes","","684","","","32","","128","","6","","","","1","","","","","1","","","","","156","684","","","","","","","","","","","","","","","","","","","","","","","","",""
"","reward_outcome","","html-keyboard-response","203","934876","0.0-126.0","0","0","s0LdK","Scenes","","1117","","","38","","128","","6","","","","","","","","","","","","","","","","1","1117","","","","","","","","","","","","","","","","","","","","","","",""
"","fixation","","html-keyboard-response","204","935892","0.0-129.0","0","0","s0LdK","Scenes","","null","","","null","","","","","","","","","","","","","","","","","","","","","","","","","","","","","","","","","","","","","","","","","","","",""
"","see_reward","","html-keyboard-response","205","936728","0.0-130.0","0","0","s0LdK","Scenes","","833","","","32","","134","","7","","","","1","","","","","1","","","","","150","833","","","","","","","","","","","","","","","","","","","","","","","","",""
"","reward_outcome","","html-keyboard-response","206","938738","0.0-131.0","0","0","s0LdK","Scenes","","1050","","","38","","134","","7","","","","","","","","","","","","","","","","1","1050","","","","","","","","","","","","","","","","","","","","","","",""
"","fixation","","html-keyboard-response","207","939756","0.0-134.0","0","0","s0LdK","Scenes","","null","","","null","","","","","","","","","","","","","","","","","","","","","","","","","","","","","","","","","","","","","","","","","","","",""
"","see_reward","","html-keyboard-response","208","940564","0.0-135.0","0","0","s0LdK","Scenes","","804","","","32","","114","","8","","","","-1","","","","","1","","","","","0","804","","","","","","","","","","","","","","","","","","","","","","","","",""
"","reward_outcome","","html-keyboard-response","209","942580","0.0-136.0","0","0","s0LdK","Scenes","","1138","","","40","","114","","8","","","","","","","","","","","","","","","","-1","1138","","","","","","","","","","","","","","","","","","","","","","",""
"","fixation","","html-keyboard-response","210","943592","0.0-139.0","0","0","s0LdK","Scenes","","null","","","null","","","","","","","","","","","","","","","","","","","","","","","","","","","","","","","","","","","","","","","","","","","",""
"","see_reward","","html-keyboard-response","211","944484","0.0-140.0","0","0","s0LdK","Scenes","","886","","","32","","132","","9","","","","-1","","","","","1","","","","","0","886","","","","","","","","","","","","","","","","","","","","","","","","",""
"","reward_outcome","","html-keyboard-response","212","946500","0.0-141.0","0","0","s0LdK","Scenes","","1171","","","40","","132","","9","","","","","","","","","","","","","","","","-1","1171","","","","","","","","","","","","","","","","","","","","","","",""
"","fixation","","html-keyboard-response","213","947513","0.0-144.0","0","0","s0LdK","Scenes","","null","","","null","","","","","","","","","","","","","","","","","","","","","","","","","","","","","","","","","","","","","","","","","","","",""
"","see_reward","","html-keyboard-response","214","948265","0.0-145.0","0","0","s0LdK","Scenes","","748","","","32","","100","","10","","","","-1","","","","","1","","","","","0","748","","","","","","","","","","","","","","","","","","","","","","","","",""
"","reward_outcome","","html-keyboard-response","215","950278","0.0-146.0","0","0","s0LdK","Scenes","","1180","","","40","","100","","10","","","","","","","","","","","","","","","","-1","1180","","","","","","","","","","","","","","","","","","","","","","",""
"","fixation","","html-keyboard-response","216","951290","0.0-149.0","0","0","s0LdK","Scenes","","null","","","null","","","","","","","","","","","","","","","","","","","","","","","","","","","","","","","","","","","","","","","","","","","",""
"","see_reward","","html-keyboard-response","217","952470","0.0-150.0","0","0","s0LdK","Scenes","","1174","","","32","","100","","11","","","","-1","","","","","1","","","","","0","1174","","","","","","","","","","","","","","","","","","","","","","","","",""
"","reward_outcome","","html-keyboard-response","218","954483","0.0-151.0","0","0","s0LdK","Scenes","","876","","","40","","100","","11","","","","","","","","","","","","","","","","-1","876","","","","","","","","","","","","","","","","","","","","","","",""
"","fixation","","html-keyboard-response","219","955497","0.0-154.0","0","0","s0LdK","Scenes","","null","","","null","","","","","","","","","","","","","","","","","","","","","","","","","","","","","","","","","","","","","","","","","","","",""
"","see_reward","","html-keyboard-response","220","956423","0.0-155.0","0","0","s0LdK","Scenes","","920","","","32","","101","","12","","","","1","","","","","1","","","","","155","920","","","","","","","","","","","","","","","","","","","","","","","","",""
"","reward_outcome","","html-keyboard-response","221","958436","0.0-156.0","0","0","s0LdK","Scenes","","1093","","","38","","101","","12","","","","","","","","","","","","","","","","1","1093","","","","","","","","","","","","","","","","","","","","","","",""
"","fixation","","html-keyboard-response","222","959452","0.0-159.0","0","0","s0LdK","Scenes","","null","","","null","","","","","","","","","","","","","","","","","","","","","","","","","","","","","","","","","","","","","","","","","","","",""
"","see_reward","","html-keyboard-response","223","960198","0.0-160.0","0","0","s0LdK","Scenes","","739","","","32","","110","","13","","","","1","","","","","1","","","","","145","739","","","","","","","","","","","","","","","","","","","","","","","","",""
"","reward_outcome","","html-keyboard-response","224","962212","0.0-161.0","0","0","s0LdK","Scenes","","933","","","38","","110","","13","","","","","","","","","","","","","","","","1","933","","","","","","","","","","","","","","","","","","","","","","",""
"","fixation","","html-keyboard-response","225","963224","0.0-164.0","0","0","s0LdK","Scenes","","null","","","null","","","","","","","","","","","","","","","","","","","","","","","","","","","","","","","","","","","","","","","","","","","",""
"","see_reward","","html-keyboard-response","226","963936","0.0-165.0","0","0","s0LdK","Scenes","","707","","","32","","131","","14","","","","1","","","","","1","","","","","158","707","","","","","","","","","","","","","","","","","","","","","","","","",""
"","reward_outcome","","html-keyboard-response","227","965956","0.0-166.0","0","0","s0LdK","Scenes","","1005","","","38","","131","","14","","","","","","","","","","","","","","","","1","1005","","","","","","","","","","","","","","","","","","","","","","",""
"","fixation","","html-keyboard-response","228","966968","0.0-169.0","0","0","s0LdK","Scenes","","null","","","null","","","","","","","","","","","","","","","","","","","","","","","","","","","","","","","","","","","","","","","","","","","",""
"","see_reward","","html-keyboard-response","229","967659","0.0-170.0","0","0","s0LdK","Scenes","","684","","","32","","131","","15","","","","1","","","","","1","","","","","158","684","","","","","","","","","","","","","","","","","","","","","","","","",""
"","reward_outcome","","html-keyboard-response","230","969674","0.0-171.0","0","0","s0LdK","Scenes","","1035","","","38","","131","","15","","","","","","","","","","","","","","","","1","1035","","","","","","","","","","","","","","","","","","","","","","",""
"","fixation","","html-keyboard-response","231","970692","0.0-174.0","0","0","s0LdK","Scenes","","null","","","null","","","","","","","","","","","","","","","","","","","","","","","","","","","","","","","","","","","","","","","","","","","",""
"","see_reward","","html-keyboard-response","232","971238","0.0-175.0","0","0","s0LdK","Scenes","","542","","","32","","114","","16","","","","-1","","","","","1","","","","","0","542","","","","","","","","","","","","","","","","","","","","","","","","",""
"","reward_outcome","","html-keyboard-response","233","973252","0.0-176.0","0","0","s0LdK","Scenes","","858","","","40","","114","","16","","","","","","","","","","","","","","","","-1","858","","","","","","","","","","","","","","","","","","","","","","",""
"","fixation","","html-keyboard-response","234","974265","0.0-179.0","0","0","s0LdK","Scenes","","null","","","null","","","","","","","","","","","","","","","","","","","","","","","","","","","","","","","","","","","","","","","","","","","",""
"","see_reward","","html-keyboard-response","235","974863","0.0-180.0","0","0","s0LdK","Scenes","","594","","","32","","101","","17","","","","1","","","","","1","","","","","155","594","","","","","","","","","","","","","","","","","","","","","","","","",""
"","reward_outcome","","html-keyboard-response","236","976876","0.0-181.0","0","0","s0LdK","Scenes","","835","","","38","","101","","17","","","","","","","","","","","","","","","","1","835","","","","","","","","","","","","","","","","","","","","","","",""
"","fixation","","html-keyboard-response","237","977887","0.0-184.0","0","0","s0LdK","Scenes","","null","","","null","","","","","","","","","","","","","","","","","","","","","","","","","","","","","","","","","","","","","","","","","","","",""
"","see_reward","","html-keyboard-response","238","978612","0.0-185.0","0","0","s0LdK","Scenes","","718","","","32","","132","","18","","","","-1","","","","","1","","","","","0","718","","","","","","","","","","","","","","","","","","","","","","","","",""
"","reward_outcome","","html-keyboard-response","239","980625","0.0-186.0","0","0","s0LdK","Scenes","","956","","","40","","132","","18","","","","","","","","","","","","","","","","-1","956","","","","","","","","","","","","","","","","","","","","","","",""
"","fixation","","html-keyboard-response","240","981636","0.0-189.0","0","0","s0LdK","Scenes","","null","","","null","","","","","","","","","","","","","","","","","","","","","","","","","","","","","","","","","","","","","","","","","","","",""
"","see_reward","","html-keyboard-response","241","982430","0.0-190.0","0","0","s0LdK","Scenes","","787","","","32","","134","","19","","","","1","","","","","1","","","","","150","787","","","","","","","","","","","","","","","","","","","","","","","","",""
"","reward_outcome","","html-keyboard-response","242","984444","0.0-191.0","0","0","s0LdK","Scenes","","807","","","38","","134","","19","","","","","","","","","","","","","","","","1","807","","","","","","","","","","","","","","","","","","","","","","",""
"","fixation","","html-keyboard-response","243","985455","0.0-194.0","0","0","s0LdK","Scenes","","null","","","null","","","","","","","","","","","","","","","","","","","","","","","","","","","","","","","","","","","","","","","","","","","",""
"","see_reward","","html-keyboard-response","244","986120","0.0-195.0","0","0","s0LdK","Scenes","","661","","","32","","148","","20","","","","1","","","","","1","","","","","159","661","","","","","","","","","","","","","","","","","","","","","","","","",""
"","reward_outcome","","html-keyboard-response","245","988130","0.0-196.0","0","0","s0LdK","Scenes","","866","","","38","","148","","20","","","","","","","","","","","","","","","","1","866","","","","","","","","","","","","","","","","","","","","","","",""
"","fixation","","html-keyboard-response","246","989145","0.0-199.0","0","0","s0LdK","Scenes","","null","","","null","","","","","","","","","","","","","","","","","","","","","","","","","","","","","","","","","","","","","","","","","","","",""
"","see_reward","","html-keyboard-response","247","989680","0.0-200.0","0","0","s0LdK","Scenes","","529","","","32","","127","","21","","","","-1","","","","","1","","","","","0","529","","","","","","","","","","","","","","","","","","","","","","","","",""
"","reward_outcome","","html-keyboard-response","248","991692","0.0-201.0","0","0","s0LdK","Scenes","","868","","","40","","127","","21","","","","","","","","","","","","","","","","-1","868","","","","","","","","","","","","","","","","","","","","","","",""
"","fixation","","html-keyboard-response","249","992705","0.0-204.0","0","0","s0LdK","Scenes","","null","","","null","","","","","","","","","","","","","","","","","","","","","","","","","","","","","","","","","","","","","","","","","","","",""
"","see_reward","","html-keyboard-response","250","993375","0.0-205.0","0","0","s0LdK","Scenes","","665","","","32","","119","","22","","","","-1","","","","","1","","","","","0","665","","","","","","","","","","","","","","","","","","","","","","","","",""
"","reward_outcome","","html-keyboard-response","251","995388","0.0-206.0","0","0","s0LdK","Scenes","","829","","","40","","119","","22","","","","","","","","","","","","","","","","-1","829","","","","","","","","","","","","","","","","","","","","","","",""
"","fixation","","html-keyboard-response","252","996399","0.0-209.0","0","0","s0LdK","Scenes","","null","","","null","","","","","","","","","","","","","","","","","","","","","","","","","","","","","","","","","","","","","","","","","","","",""
"","see_reward","","html-keyboard-response","253","997114","0.0-210.0","0","0","s0LdK","Scenes","","708","","","32","","123","","23","","","","-1","","","","","1","","","","","0","708","","","","","","","","","","","","","","","","","","","","","","","","",""
"","reward_outcome","","html-keyboard-response","254","999131","0.0-211.0","0","0","s0LdK","Scenes","","930","","","40","","123","","23","","","","","","","","","","","","","","","","-1","930","","","","","","","","","","","","","","","","","","","","","","",""
"","block_over","","html-keyboard-response","255","1001315","0.0-213.0-0.0","0","0","s0LdK","Scenes","","2179","","","78","","","","","","","","","","","","","","","","","","","","","","","","","","","","","","","","","","","","","","","","","","","",""
"","fixation","","html-keyboard-response","256","1002332","0.0-214.0","0","0","s0LdK","Scenes","","null","","","null","","","","","","","","","","","","","","","","","","","","","","","","","","","","","","","","","","","","","","","","","","","",""
"","see_reward","","html-keyboard-response","257","1005482","0.0-215.0","0","0","s0LdK","Scenes","","3146","","","32","","100","","24","","","","-1","","","","","2","","","","","0","3146","","","","","","","","","","","","","","","","","","","","","","","","",""
"","reward_outcome","","html-keyboard-response","258","1007499","0.0-216.0","0","0","s0LdK","Scenes","","867","","","40","","100","","24","","","","","","","","","","","","","","","","-1","867","","","","","","","","","","","","","","","","","","","","","","",""
"","fixation","","html-keyboard-response","259","1008513","0.0-219.0","0","0","s0LdK","Scenes","","null","","","null","","","","","","","","","","","","","","","","","","","","","","","","","","","","","","","","","","","","","","","","","","","",""
"","see_reward","","html-keyboard-response","260","1009439","0.0-220.0","0","0","s0LdK","Scenes","","924","","","32","","119","","25","","","","-1","","","","","2","","","","","0","924","","","","","","","","","","","","","","","","","","","","","","","","",""
"","reward_outcome","","html-keyboard-response","261","1011449","0.0-221.0","0","0","s0LdK","Scenes","","864","","","40","","119","","25","","","","","","","","","","","","","","","","-1","864","","","","","","","","","","","","","","","","","","","","","","",""
"","fixation","","html-keyboard-response","262","1012460","0.0-224.0","0","0","s0LdK","Scenes","","null","","","null","","","","","","","","","","","","","","","","","","","","","","","","","","","","","","","","","","","","","","","","","","","",""
"","see_reward","","html-keyboard-response","263","1013230","0.0-225.0","0","0","s0LdK","Scenes","","763","","","32","","110","","26","","","","1","","","","","2","","","","","145","763","","","","","","","","","","","","","","","","","","","","","","","","",""
"","reward_outcome","","html-keyboard-response","264","1015240","0.0-226.0","0","0","s0LdK","Scenes","","972","","","38","","110","","26","","","","","","","","","","","","","","","","1","972","","","","","","","","","","","","","","","","","","","","","","",""
"","fixation","","html-keyboard-response","265","1016249","0.0-229.0","0","0","s0LdK","Scenes","","null","","","null","","","","","","","","","","","","","","","","","","","","","","","","","","","","","","","","","","","","","","","","","","","",""
"","see_reward","","html-keyboard-response","266","1017210","0.0-230.0","0","0","s0LdK","Scenes","","953","","","32","","148","","27","","","","1","","","","","2","","","","","159","953","","","","","","","","","","","","","","","","","","","","","","","","",""
"","reward_outcome","","html-keyboard-response","267","1019228","0.0-231.0","0","0","s0LdK","Scenes","","769","","","38","","148","","27","","","","","","","","","","","","","","","","1","769","","","","","","","","","","","","","","","","","","","","","","",""
"","fixation","","html-keyboard-response","268","1020242","0.0-234.0","0","0","s0LdK","Scenes","","null","","","null","","","","","","","","","","","","","","","","","","","","","","","","","","","","","","","","","","","","","","","","","","","",""
"","see_reward","","html-keyboard-response","269","1020961","0.0-235.0","0","0","s0LdK","Scenes","","717","","","32","","114","","28","","","","-1","","","","","2","","","","","0","717","","","","","","","","","","","","","","","","","","","","","","","","",""
"","reward_outcome","","html-keyboard-response","270","1022980","0.0-236.0","0","0","s0LdK","Scenes","","892","","","40","","114","","28","","","","","","","","","","","","","","","","-1","892","","","","","","","","","","","","","","","","","","","","","","",""
"","fixation","","html-keyboard-response","271","1023995","0.0-239.0","0","0","s0LdK","Scenes","","null","","","null","","","","","","","","","","","","","","","","","","","","","","","","","","","","","","","","","","","","","","","","","","","",""
"","see_reward","","html-keyboard-response","272","1024708","0.0-240.0","0","0","s0LdK","Scenes","","707","","","32","","127","","29","","","","-1","","","","","2","","","","","0","707","","","","","","","","","","","","","","","","","","","","","","","","",""
"","reward_outcome","","html-keyboard-response","273","1026724","0.0-241.0","0","0","s0LdK","Scenes","","933","","","40","","127","","29","","","","","","","","","","","","","","","","-1","933","","","","","","","","","","","","","","","","","","","","","","",""
"","fixation","","html-keyboard-response","274","1027740","0.0-244.0","0","0","s0LdK","Scenes","","null","","","null","","","","","","","","","","","","","","","","","","","","","","","","","","","","","","","","","","","","","","","","","","","",""
"","see_reward","","html-keyboard-response","275","1028365","0.0-245.0","0","0","s0LdK","Scenes","","618","","","32","","123","","30","","","","-1","","","","","2","","","","","0","618","","","","","","","","","","","","","","","","","","","","","","","","",""
"","reward_outcome","","html-keyboard-response","276","1030377","0.0-246.0","0","0","s0LdK","Scenes","","1660","","","40","","123","","30","","","","","","","","","","","","","","","","-1","1660","","","","","","","","","","","","","","","","","","","","","","",""
"","fixation","","html-keyboard-response","277","1031396","0.0-249.0","0","0","s0LdK","Scenes","","null","","","null","","","","","","","","","","","","","","","","","","","","","","","","","","","","","","","","","","","","","","","","","","","",""
"","see_reward","","html-keyboard-response","278","1032065","0.0-250.0","0","0","s0LdK","Scenes","","663","","","32","","100","","31","","","","-1","","","","","2","","","","","0","663","","","","","","","","","","","","","","","","","","","","","","","","",""
"","reward_outcome","","html-keyboard-response","279","1034072","0.0-251.0","0","0","s0LdK","Scenes","","941","","","40","","100","","31","","","","","","","","","","","","","","","","-1","941","","","","","","","","","","","","","","","","","","","","","","",""
"","fixation","","html-keyboard-response","280","1035092","0.0-254.0","0","0","s0LdK","Scenes","","null","","","null","","","","","","","","","","","","","","","","","","","","","","","","","","","","","","","","","","","","","","","","","","","",""
"","see_reward","","html-keyboard-response","281","1035669","0.0-255.0","0","0","s0LdK","Scenes","","570","","","32","","132","","32","","","","-1","","","","","2","","","","","0","570","","","","","","","","","","","","","","","","","","","","","","","","",""
"","reward_outcome","","html-keyboard-response","282","1037684","0.0-256.0","0","0","s0LdK","Scenes","","1057","","","40","","132","","32","","","","","","","","","","","","","","","","-1","1057","","","","","","","","","","","","","","","","","","","","","","",""
"","fixation","","html-keyboard-response","283","1038700","0.0-259.0","0","0","s0LdK","Scenes","","null","","","null","","","","","","","","","","","","","","","","","","","","","","","","","","","","","","","","","","","","","","","","","","","",""
"","see_reward","","html-keyboard-response","284","1039378","0.0-260.0","0","0","s0LdK","Scenes","","673","","","32","","148","","33","","","","1","","","","","2","","","","","159","673","","","","","","","","","","","","","","","","","","","","","","","","",""
"","reward_outcome","","html-keyboard-response","285","1041396","0.0-261.0","0","0","s0LdK","Scenes","","754","","","38","","148","","33","","","","","","","","","","","","","","","","1","754","","","","","","","","","","","","","","","","","","","","","","",""
"","fixation","","html-keyboard-response","286","1042407","0.0-264.0","0","0","s0LdK","Scenes","","null","","","null","","","","","","","","","","","","","","","","","","","","","","","","","","","","","","","","","","","","","","","","","","","",""
"","see_reward","","html-keyboard-response","287","1043146","0.0-265.0","0","0","s0LdK","Scenes","","733","","","32","","131","","34","","","","1","","","","","2","","","","","158","733","","","","","","","","","","","","","","","","","","","","","","","","",""
"","reward_outcome","","html-keyboard-response","288","1045164","0.0-266.0","0","0","s0LdK","Scenes","","533","","","38","","131","","34","","","","","","","","","","","","","","","","1","533","","","","","","","","","","","","","","","","","","","","","","",""
"","fixation","","html-keyboard-response","289","1046180","0.0-269.0","0","0","s0LdK","Scenes","","null","","","null","","","","","","","","","","","","","","","","","","","","","","","","","","","","","","","","","","","","","","","","","","","",""
"","see_reward","","html-keyboard-response","290","1047082","0.0-270.0","0","0","s0LdK","Scenes","","898","","","32","","128","","35","","","","1","","","","","2","","","","","156","898","","","","","","","","","","","","","","","","","","","","","","","","",""
"","reward_outcome","","html-keyboard-response","291","1049097","0.0-271.0","0","0","s0LdK","Scenes","","780","","","38","","128","","35","","","","","","","","","","","","","","","","1","780","","","","","","","","","","","","","","","","","","","","","","",""
"","fixation","","html-keyboard-response","292","1050103","0.0-274.0","0","0","s0LdK","Scenes","","null","","","null","","","","","","","","","","","","","","","","","","","","","","","","","","","","","","","","","","","","","","","","","","","",""
"","see_reward","","html-keyboard-response","293","1050789","0.0-275.0","0","0","s0LdK","Scenes","","681","","","32","","132","","36","","","","-1","","","","","2","","","","","0","681","","","","","","","","","","","","","","","","","","","","","","","","",""
"","reward_outcome","","html-keyboard-response","294","1052804","0.0-276.0","0","0","s0LdK","Scenes","","689","","","40","","132","","36","","","","","","","","","","","","","","","","-1","689","","","","","","","","","","","","","","","","","","","","","","",""
"","fixation","","html-keyboard-response","295","1053820","0.0-279.0","0","0","s0LdK","Scenes","","null","","","null","","","","","","","","","","","","","","","","","","","","","","","","","","","","","","","","","","","","","","","","","","","",""
"","see_reward","","html-keyboard-response","296","1054498","0.0-280.0","0","0","s0LdK","Scenes","","673","","","32","","114","","37","","","","-1","","","","","2","","","","","0","673","","","","","","","","","","","","","","","","","","","","","","","","",""
"","reward_outcome","","html-keyboard-response","297","1056516","0.0-281.0","0","0","s0LdK","Scenes","","709","","","40","","114","","37","","","","","","","","","","","","","","","","-1","709","","","","","","","","","","","","","","","","","","","","","","",""
"","fixation","","html-keyboard-response","298","1057529","0.0-284.0","0","0","s0LdK","Scenes","","null","","","null","","","","","","","","","","","","","","","","","","","","","","","","","","","","","","","","","","","","","","","","","","","",""
"","see_reward","","html-keyboard-response","299","1058084","0.0-285.0","0","0","s0LdK","Scenes","","549","","","32","","128","","38","","","","1","","","","","2","","","","","156","549","","","","","","","","","","","","","","","","","","","","","","","","",""
"","reward_outcome","","html-keyboard-response","300","1060099","0.0-286.0","0","0","s0LdK","Scenes","","984","","","38","","128","","38","","","","","","","","","","","","","","","","1","984","","","","","","","","","","","","","","","","","","","","","","",""
"","fixation","","html-keyboard-response","301","1061116","0.0-289.0","0","0","s0LdK","Scenes","","null","","","null","","","","","","","","","","","","","","","","","","","","","","","","","","","","","","","","","","","","","","","","","","","",""
"","see_reward","","html-keyboard-response","302","1061850","0.0-290.0","0","0","s0LdK","Scenes","","727","","","32","","101","","39","","","","1","","","","","2","","","","","155","727","","","","","","","","","","","","","","","","","","","","","","","","",""
"","reward_outcome","","html-keyboard-response","303","1063868","0.0-291.0","0","0","s0LdK","Scenes","","804","","","38","","101","","39","","","","","","","","","","","","","","","","1","804","","","","","","","","","","","","","","","","","","","","","","",""
"","fixation","","html-keyboard-response","304","1064881","0.0-294.0","0","0","s0LdK","Scenes","","null","","","null","","","","","","","","","","","","","","","","","","","","","","","","","","","","","","","","","","","","","","","","","","","",""
"","see_reward","","html-keyboard-response","305","1065445","0.0-295.0","0","0","s0LdK","Scenes","","561","","","32","","131","","40","","","","1","","","","","2","","","","","158","561","","","","","","","","","","","","","","","","","","","","","","","","",""
"","reward_outcome","","html-keyboard-response","306","1067459","0.0-296.0","0","0","s0LdK","Scenes","","868","","","38","","131","","40","","","","","","","","","","","","","","","","1","868","","","","","","","","","","","","","","","","","","","","","","",""
"","fixation","","html-keyboard-response","307","1068475","0.0-299.0","0","0","s0LdK","Scenes","","null","","","null","","","","","","","","","","","","","","","","","","","","","","","","","","","","","","","","","","","","","","","","","","","",""
"","see_reward","","html-keyboard-response","308","1069137","0.0-300.0","0","0","s0LdK","Scenes","","657","","","32","","127","","41","","","","-1","","","","","2","","","","","0","657","","","","","","","","","","","","","","","","","","","","","","","","",""
"","reward_outcome","","html-keyboard-response","309","1071155","0.0-301.0","0","0","s0LdK","Scenes","","758","","","40","","127","","41","","","","","","","","","","","","","","","","-1","758","","","","","","","","","","","","","","","","","","","","","","",""
"","fixation","","html-keyboard-response","310","1072167","0.0-304.0","0","0","s0LdK","Scenes","","null","","","null","","","","","","","","","","","","","","","","","","","","","","","","","","","","","","","","","","","","","","","","","","","",""
"","see_reward","","html-keyboard-response","311","1072834","0.0-305.0","0","0","s0LdK","Scenes","","663","","","32","","134","","42","","","","1","","","","","2","","","","","150","663","","","","","","","","","","","","","","","","","","","","","","","","",""
"","reward_outcome","","html-keyboard-response","312","1074851","0.0-306.0","0","0","s0LdK","Scenes","","660","","","38","","134","","42","","","","","","","","","","","","","","","","1","660","","","","","","","","","","","","","","","","","","","","","","",""
"","fixation","","html-keyboard-response","313","1075867","0.0-309.0","0","0","s0LdK","Scenes","","null","","","null","","","","","","","","","","","","","","","","","","","","","","","","","","","","","","","","","","","","","","","","","","","",""
"","see_reward","","html-keyboard-response","314","1076595","0.0-310.0","0","0","s0LdK","Scenes","","725","","","32","","110","","43","","","","1","","","","","2","","","","","145","725","","","","","","","","","","","","","","","","","","","","","","","","",""
"","reward_outcome","","html-keyboard-response","315","1078611","0.0-311.0","0","0","s0LdK","Scenes","","854","","","38","","110","","43","","","","","","","","","","","","","","","","1","854","","","","","","","","","","","","","","","","","","","","","","",""
"","fixation","","html-keyboard-response","316","1079623","0.0-314.0","0","0","s0LdK","Scenes","","null","","","null","","","","","","","","","","","","","","","","","","","","","","","","","","","","","","","","","","","","","","","","","","","",""
"","see_reward","","html-keyboard-response","317","1080117","0.0-315.0","0","0","s0LdK","Scenes","","489","","","32","","119","","44","","","","-1","","","","","2","","","","","0","489","","","","","","","","","","","","","","","","","","","","","","","","",""
"","reward_outcome","","html-keyboard-response","318","1082131","0.0-316.0","0","0","s0LdK","Scenes","","802","","","40","","119","","44","","","","","","","","","","","","","","","","-1","802","","","","","","","","","","","","","","","","","","","","","","",""
"","fixation","","html-keyboard-response","319","1083144","0.0-319.0","0","0","s0LdK","Scenes","","null","","","null","","","","","","","","","","","","","","","","","","","","","","","","","","","","","","","","","","","","","","","","","","","",""
"","see_reward","","html-keyboard-response","320","1083694","0.0-320.0","0","0","s0LdK","Scenes","","544","","","32","","134","","45","","","","1","","","","","2","","","","","150","544","","","","","","","","","","","","","","","","","","","","","","","","",""
"","reward_outcome","","html-keyboard-response","321","1085707","0.0-321.0","0","0","s0LdK","Scenes","","739","","","38","","134","","45","","","","","","","","","","","","","","","","1","739","","","","","","","","","","","","","","","","","","","","","","",""
"","fixation","","html-keyboard-response","322","1086719","0.0-324.0","0","0","s0LdK","Scenes","","null","","","null","","","","","","","","","","","","","","","","","","","","","","","","","","","","","","","","","","","","","","","","","","","",""
"","see_reward","","html-keyboard-response","323","1087533","0.0-325.0","0","0","s0LdK","Scenes","","811","","","32","","101","","46","","","","1","","","","","2","","","","","155","811","","","","","","","","","","","","","","","","","","","","","","","","",""
"","reward_outcome","","html-keyboard-response","324","1089547","0.0-326.0","0","0","s0LdK","Scenes","","773","","","38","","101","","46","","","","","","","","","","","","","","","","1","773","","","","","","","","","","","","","","","","","","","","","","",""
"","fixation","","html-keyboard-response","325","1090563","0.0-329.0","0","0","s0LdK","Scenes","","null","","","null","","","","","","","","","","","","","","","","","","","","","","","","","","","","","","","","","","","","","","","","","","","",""
"","see_reward","","html-keyboard-response","326","1091445","0.0-330.0","0","0","s0LdK","Scenes","","876","","","32","","123","","47","","","","-1","","","","","2","","","","","0","876","","","","","","","","","","","","","","","","","","","","","","","","",""
"","reward_outcome","","html-keyboard-response","327","1093459","0.0-331.0","0","0","s0LdK","Scenes","","833","","","40","","123","","47","","","","","","","","","","","","","","","","-1","833","","","","","","","","","","","","","","","","","","","","","","",""
"","block_over","","html-keyboard-response","328","1095900","0.0-333.0-0.0","0","0","s0LdK","Scenes","","2438","","","78","","","","","","","","","","","","","","","","","","","","","","","","","","","","","","","","","","","","","","","","","","","",""
"","fixation","","html-keyboard-response","329","1096912","0.0-334.0","0","0","s0LdK","Scenes","","null","","","null","","","","","","","","","","","","","","","","","","","","","","","","","","","","","","","","","","","","","","","","","","","",""
"","see_reward","","html-keyboard-response","330","1098176","0.0-335.0","0","0","s0LdK","Scenes","","1261","","","32","","123","","48","","","","-1","","","","","3","","","","","0","1261","","","","","","","","","","","","","","","","","","","","","","","","",""
"","reward_outcome","","html-keyboard-response","331","1100186","0.0-336.0","0","0","s0LdK","Scenes","","777","","","40","","123","","48","","","","","","","","","","","","","","","","-1","777","","","","","","","","","","","","","","","","","","","","","","",""
"","fixation","","html-keyboard-response","332","1101199","0.0-339.0","0","0","s0LdK","Scenes","","null","","","null","","","","","","","","","","","","","","","","","","","","","","","","","","","","","","","","","","","","","","","","","","","",""
"","see_reward","","html-keyboard-response","333","1102039","0.0-340.0","0","0","s0LdK","Scenes","","837","","","32","","100","","49","","","","-1","","","","","3","","","","","0","837","","","","","","","","","","","","","","","","","","","","","","","","",""
"","reward_outcome","","html-keyboard-response","334","1104051","0.0-341.0","0","0","s0LdK","Scenes","","791","","","40","","100","","49","","","","","","","","","","","","","","","","-1","791","","","","","","","","","","","","","","","","","","","","","","",""
"","fixation","","html-keyboard-response","335","1105067","0.0-344.0","0","0","s0LdK","Scenes","","null","","","null","","","","","","","","","","","","","","","","","","","","","","","","","","","","","","","","","","","","","","","","","","","",""
"","see_reward","","html-keyboard-response","336","1105801","0.0-345.0","0","0","s0LdK","Scenes","","729","","","32","","114","","50","","","","-1","","","","","3","","","","","0","729","","","","","","","","","","","","","","","","","","","","","","","","",""
"","reward_outcome","","html-keyboard-response","337","1107819","0.0-346.0","0","0","s0LdK","Scenes","","911","","","40","","114","","50","","","","","","","","","","","","","","","","-1","911","","","","","","","","","","","","","","","","","","","","","","",""
"","fixation","","html-keyboard-response","338","1108835","0.0-349.0","0","0","s0LdK","Scenes","","null","","","null","","","","","","","","","","","","","","","","","","","","","","","","","","","","","","","","","","","","","","","","","","","",""
"","see_reward","","html-keyboard-response","339","1109485","0.0-350.0","0","0","s0LdK","Scenes","","646","","","32","","127","","51","","","","-1","","","","","3","","","","","0","646","","","","","","","","","","","","","","","","","","","","","","","","",""
"","reward_outcome","","html-keyboard-response","340","1111499","0.0-351.0","0","0","s0LdK","Scenes","","825","","","40","","127","","51","","","","","","","","","","","","","","","","-1","825","","","","","","","","","","","","","","","","","","","","","","",""
"","fixation","","html-keyboard-response","341","1112511","0.0-354.0","0","0","s0LdK","Scenes","","null","","","null","","","","","","","","","","","","","","","","","","","","","","","","","","","","","","","","","","","","","","","","","","","",""
"","see_reward","","html-keyboard-response","342","1113392","0.0-355.0","0","0","s0LdK","Scenes","","878","","","32","","131","","52","","","","1","","","","","3","","","","","158","878","","","","","","","","","","","","","","","","","","","","","","","","",""
"","reward_outcome","","html-keyboard-response","343","1115403","0.0-356.0","0","0","s0LdK","Scenes","","735","","","38","","131","","52","","","","","","","","","","","","","","","","1","735","","","","","","","","","","","","","","","","","","","","","","",""
"","fixation","","html-keyboard-response","344","1116419","0.0-359.0","0","0","s0LdK","Scenes","","null","","","null","","","","","","","","","","","","","","","","","","","","","","","","","","","","","","","","","","","","","","","","","","","",""
"","see_reward","","html-keyboard-response","345","1116917","0.0-360.0","0","0","s0LdK","Scenes","","495","","","32","","134","","53","","","","1","","","","","3","","","","","150","495","","","","","","","","","","","","","","","","","","","","","","","","",""
"","reward_outcome","","html-keyboard-response","346","1118931","0.0-361.0","0","0","s0LdK","Scenes","","838","","","38","","134","","53","","","","","","","","","","","","","","","","1","838","","","","","","","","","","","","","","","","","","","","","","",""
"","fixation","","html-keyboard-response","347","1119947","0.0-364.0","0","0","s0LdK","Scenes","","null","","","null","","","","","","","","","","","","","","","","","","","","","","","","","","","","","","","","","","","","","","","","","","","",""
"","see_reward","","html-keyboard-response","348","1120584","0.0-365.0","0","0","s0LdK","Scenes","","631","","","32","","110","","54","","","","1","","","","","3","","","","","145","631","","","","","","","","","","","","","","","","","","","","","","","","",""
"","reward_outcome","","html-keyboard-response","349","1122595","0.0-366.0","0","0","s0LdK","Scenes","","785","","","38","","110","","54","","","","","","","","","","","","","","","","1","785","","","","","","","","","","","","","","","","","","","","","","",""
"","fixation","","html-keyboard-response","350","1123606","0.0-369.0","0","0","s0LdK","Scenes","","null","","","null","","","","","","","","","","","","","","","","","","","","","","","","","","","","","","","","","","","","","","","","","","","",""
"","see_reward","","html-keyboard-response","351","1124241","0.0-370.0","0","0","s0LdK","Scenes","","629","","","32","","128","","55","","","","1","","","","","3","","","","","156","629","","","","","","","","","","","","","","","","","","","","","","","","",""
