"success","ttype","start_time","trial_type","trial_index","time_elapsed","internal_node_id","warning","missed_checkup","PID","stim_type","view_history","rt","responses","repeat_instructions","key_press","response","stimulus_id","painting","index","stimulus_left","stimulus_right","explain_trial","reward_type","rating_left","rating_right","painting_left","painting_right","block","left_chosen","chosen_obj","unchosen_obj","explain_response","reward_amount","see_reward_rt","register_reward_response","register_reward_rt","deliberation_reward_tally","stimulus_left_deliberation_ind","stimulus_right_deliberation_ind","chosen_trial","gain_left","higher_outcome_chosen","old_pair","chosen_object","rt_pairs","left_object_chosen","rt_object","old_response","new_rating","deliberated_stim","initial_rating","outcome_eval_rt","outcome_eval_response","outcome_eval_gain","outcome_eval_acc","preamble","outcome_eval_confidence","outcome_eval_confidence_rt","total_reward_tally"
"true","full_screen","d01192023hr2036","fullscreen","0","794245","0.0-0.0","0","0","Aefo0","Scenes","","","","","","","","","","","","","","","","","","","","","","","","","","","","","","","","","","","","","","","","","","","","","","","","",""
"","rating_instructions","","instructions","1","814982","0.0-1.0-0.0","0","0","Aefo0","Scenes","[{""page_index"":0,""viewing_time"":16749},{""page_index"":1,""viewing_time"":3973}]","20725","","","","","","","","","","","","","","","","","","","","","","","","","","","","","","","","","","","","","","","","","","","","","","",""
"","rating_comprehension_check","","survey-multi-choice","2","825631","0.0-1.0-1.0","0","0","Aefo0","Scenes","","10630","{""Q0"":""True"",""Q1"":""Mouse""}","0","","","","","","","","","","","","","","","","","","","","","","","","","","","","","","","","","","","","","","","","","","","","",""
"","start_phase","","html-keyboard-response","3","832464","0.0-2.0","0","0","Aefo0","Scenes","","6820","","","78","","","","","","","","","","","","","","","","","","","","","","","","","","","","","","","","","","","","","","","","","","","",""
"","rating","","html-slider-response","4","842959","0.0-3.0","0","0","Aefo0","Scenes","","10480","","","","95","140","samuele-errico-piccarini-JEBqFu2AOOA-unsplash.jpg","0","","","","","","","","","","","","","","","","","","","","","","","","","","","","","","","","","","","","","","","",""
"","rating","","html-slider-response","5","848370","0.0-4.0","0","0","Aefo0","Scenes","","5401","","","","87","120","jarrett-kow-1ZOyYPOBn7I-unsplash.jpg","1","","","","","","","","","","","","","","","","","","","","","","","","","","","","","","","","","","","","","","","",""
"","rating","","html-slider-response","6","854279","0.0-5.0","0","0","Aefo0","Scenes","","5903","","","","79","109","brigitta-schneiter-hXXRLtTxXCU-unsplash.jpg","2","","","","","","","","","","","","","","","","","","","","","","","","","","","","","","","","","","","","","","","",""
"","rating","","html-slider-response","7","860950","0.0-6.0","0","0","Aefo0","Scenes","","6664","","","","100","131","luca-bravo-hFzIoD0F_i8-unsplash.jpg","3","","","","","","","","","","","","","","","","","","","","","","","","","","","","","","","","","","","","","","","",""
"","rating","","html-slider-response","8","865336","0.0-7.0","0","0","Aefo0","Scenes","","4380","","","","19","106","ashim-d-silva-WeYamle9fDM-unsplash.jpg","4","","","","","","","","","","","","","","","","","","","","","","","","","","","","","","","","","","","","","","","",""
"","rating","","html-slider-response","9","869899","0.0-8.0","0","0","Aefo0","Scenes","","4559","","","","69","107","benjamin-davies-Zm2n2O7Fph4-unsplash.jpg","5","","","","","","","","","","","","","","","","","","","","","","","","","","","","","","","","","","","","","","","",""
"","rating","","html-slider-response","10","874581","0.0-9.0","0","0","Aefo0","Scenes","","4676","","","","73","148","tom-gainor-ZqLeQDjY6fY-unsplash.jpg","6","","","","","","","","","","","","","","","","","","","","","","","","","","","","","","","","","","","","","","","",""
"","rating","","html-slider-response","11","878690","0.0-10.0","0","0","Aefo0","Scenes","","4098","","","","95","139","samsommer-vddccTqwal8-unsplash.jpg","7","","","","","","","","","","","","","","","","","","","","","","","","","","","","","","","","","","","","","","","",""
"","rating","","html-slider-response","12","884590","0.0-11.0","0","0","Aefo0","Scenes","","5892","","","","66","112","cosmic-timetraveler-pYyOZ8q7AII-unsplash.jpg","8","","","","","","","","","","","","","","","","","","","","","","","","","","","","","","","","","","","","","","","",""
"","rating","","html-slider-response","13","889501","0.0-12.0","0","0","Aefo0","Scenes","","4903","","","","65","103","anton-darius-FBJugtbHsWU-unsplash.jpg","9","","","","","","","","","","","","","","","","","","","","","","","","","","","","","","","","","","","","","","","",""
"","rating","","html-slider-response","14","895357","0.0-13.0","0","0","Aefo0","Scenes","","5847","","","","63","129","kurt-cotoaga-cqbLg3lZEpk-unsplash.jpg","10","","","","","","","","","","","","","","","","","","","","","","","","","","","","","","","","","","","","","","","",""
"","rating","","html-slider-response","15","900886","0.0-14.0","0","0","Aefo0","Scenes","","5519","","","","87","146","thomas-morse-cuKKa0vWZSY-unsplash.jpg","11","","","","","","","","","","","","","","","","","","","","","","","","","","","","","","","","","","","","","","","",""
"","rating","","html-slider-response","16","904275","0.0-15.0","0","0","Aefo0","Scenes","","3380","","","","90","119","james-wheeler-AFC0XvICMgs-unsplash.jpg","12","","","","","","","","","","","","","","","","","","","","","","","","","","","","","","","","","","","","","","","",""
"","rating","","html-slider-response","17","907310","0.0-16.0","0","0","Aefo0","Scenes","","3028","","","","90","124","johannes-plenio-sPt5RIjKfpk-unsplash.jpg","13","","","","","","","","","","","","","","","","","","","","","","","","","","","","","","","","","","","","","","","",""
"","rating","","html-slider-response","18","910192","0.0-17.0","0","0","Aefo0","Scenes","","2874","","","","78","117","frank-mckenna-OD9EOzfSOh0-unsplash.jpg","14","","","","","","","","","","","","","","","","","","","","","","","","","","","","","","","","","","","","","","","",""
"","rating","","html-slider-response","19","913378","0.0-18.0","0","0","Aefo0","Scenes","","3181","","","","86","127","kace-rodriguez-p3OzJuT_Dks-unsplash.jpg","15","","","","","","","","","","","","","","","","","","","","","","","","","","","","","","","","","","","","","","","",""
"","rating","","html-slider-response","20","916732","0.0-19.0","0","0","Aefo0","Scenes","","3349","","","","87","132","meng-ji-8BH_M-53CyA-unsplash.jpg","16","","","","","","","","","","","","","","","","","","","","","","","","","","","","","","","","","","","","","","","",""
"","rating","","html-slider-response","21","919551","0.0-20.0","0","0","Aefo0","Scenes","","2815","","","","92","144","solotravelgoals-7kLufxYoqWk-unsplash.jpg","17","","","","","","","","","","","","","","","","","","","","","","","","","","","","","","","","","","","","","","","",""
"","rating","","html-slider-response","22","925375","0.0-21.0","0","0","Aefo0","Scenes","","5816","","","","75","141","sebastian-unrau-v4e3JI7DDHI-unsplash.jpg","18","","","","","","","","","","","","","","","","","","","","","","","","","","","","","","","","","","","","","","","",""
"","rating","","html-slider-response","23","928801","0.0-22.0","0","0","Aefo0","Scenes","","3419","","","","64","147","tobias-keller-73F4pKoUkM0-unsplash.jpg","19","","","","","","","","","","","","","","","","","","","","","","","","","","","","","","","","","","","","","","","",""
"","rating","","html-slider-response","24","932440","0.0-23.0","0","0","Aefo0","Scenes","","3634","","","","85","116","david-marcu-W5MhJ6cy1So-unsplash.jpg","20","","","","","","","","","","","","","","","","","","","","","","","","","","","","","","","","","","","","","","","",""
"","rating","","html-slider-response","25","936477","0.0-24.0","0","0","Aefo0","Scenes","","4030","","","","76","145","stephen-leonardi-gyIRjKPXupE-unsplash.jpg","21","","","","","","","","","","","","","","","","","","","","","","","","","","","","","","","","","","","","","","","",""
"","rating","","html-slider-response","26","939565","0.0-25.0","0","0","Aefo0","Scenes","","3083","","","","68","101","aniket-deole-T-tOgjWZ0fQ-unsplash.jpg","22","","","","","","","","","","","","","","","","","","","","","","","","","","","","","","","","","","","","","","","",""
"","rating","","html-slider-response","27","943960","0.0-26.0","0","0","Aefo0","Scenes","","4390","","","","79","118","henry-be-NLF6hTe4PAg-unsplash.jpg","23","","","","","","","","","","","","","","","","","","","","","","","","","","","","","","","","","","","","","","","",""
"","rating","","html-slider-response","28","948606","0.0-27.0","0","0","Aefo0","Scenes","","4636","","","","99","142","sergey-pesterev-y-b_FOmJXdg-unsplash.jpg","24","","","","","","","","","","","","","","","","","","","","","","","","","","","","","","","","","","","","","","","",""
"","rating","","html-slider-response","29","952914","0.0-28.0","0","0","Aefo0","Scenes","","4296","","","","21","138","petr-vysohlid-9fqwGqGLUxc-unsplash.jpg","25","","","","","","","","","","","","","","","","","","","","","","","","","","","","","","","","","","","","","","","",""
"","rating","","html-slider-response","30","956838","0.0-29.0","0","0","Aefo0","Scenes","","3917","","","","10","111","claudio-testa-U3F2o6vz3bs-unsplash.jpg","26","","","","","","","","","","","","","","","","","","","","","","","","","","","","","","","","","","","","","","","",""
"","rating","","html-slider-response","31","961104","0.0-30.0","0","0","Aefo0","Scenes","","4263","","","","2","121","jean-pierre-brungs-qxCqkbF7tUc-unsplash.jpg","27","","","","","","","","","","","","","","","","","","","","","","","","","","","","","","","","","","","","","","","",""
"","rating","","html-slider-response","32","964699","0.0-31.0","0","0","Aefo0","Scenes","","3587","","","","58","115","darrell-cassell-hoCXpPUMCoE-unsplash.jpg","28","","","","","","","","","","","","","","","","","","","","","","","","","","","","","","","","","","","","","","","",""
"","rating","","html-slider-response","33","968079","0.0-32.0","0","0","Aefo0","Scenes","","3374","","","","78","123","joel-jasmin-forestbird-efuwb5eBDrI-unsplash.jpg","29","","","","","","","","","","","","","","","","","","","","","","","","","","","","","","","","","","","","","","","",""
"","rating","","html-slider-response","34","972482","0.0-33.0","0","0","Aefo0","Scenes","","4397","","","","55","136","nicolas-jehly-LzVB84KkZOE-unsplash.jpg","30","","","","","","","","","","","","","","","","","","","","","","","","","","","","","","","","","","","","","","","",""
"","rating","","html-slider-response","35","977427","0.0-34.0","0","0","Aefo0","Scenes","","4941","","","","2","108","benjamin-voros-phIFdC6lA4E-unsplash.jpg","31","","","","","","","","","","","","","","","","","","","","","","","","","","","","","","","","","","","","","","","",""
"","rating","","html-slider-response","36","981792","0.0-35.0","0","0","Aefo0","Scenes","","4360","","","","58","135","mohammad-alizade-4wzRuAb-KWs-unsplash.jpg","32","","","","","","","","","","","","","","","","","","","","","","","","","","","","","","","","","","","","","","","",""
"","rating","","html-slider-response","37","987314","0.0-36.0","0","0","Aefo0","Scenes","","5505","","","","24","114","daniel-sessler-z_9VmsxR8hs-unsplash.jpg","33","","","","","","","","","","","","","","","","","","","","","","","","","","","","","","","","","","","","","","","",""
"","rating","","html-slider-response","38","990914","0.0-37.0","0","0","Aefo0","Scenes","","3588","","","","8","149","yuriy-bogdanov-W51VK3Obcj0-unsplash.jpg","34","","","","","","","","","","","","","","","","","","","","","","","","","","","","","","","","","","","","","","","",""
"","rating","","html-slider-response","39","995066","0.0-38.0","0","0","Aefo0","Scenes","","4143","","","","79","100","aleksandra-boguslawska-MS7KD9Ti7FQ-unsplash.jpg","35","","","","","","","","","","","","","","","","","","","","","","","","","","","","","","","","","","","","","","","",""
"","rating","","html-slider-response","40","998357","0.0-39.0","0","0","Aefo0","Scenes","","3281","","","","61","143","sigurdur-fjalar-jonsson-1KxBabIntpE-unsplash.jpg","36","","","","","","","","","","","","","","","","","","","","","","","","","","","","","","","","","","","","","","","",""
"","rating","","html-slider-response","41","1001962","0.0-40.0","0","0","Aefo0","Scenes","","3598","","","","65","137","olga-stalska-QaWRyEdlffY-unsplash.jpg","37","","","","","","","","","","","","","","","","","","","","","","","","","","","","","","","","","","","","","","","",""
"","rating","","html-slider-response","42","1005726","0.0-41.0","0","0","Aefo0","Scenes","","3755","","","","25","122","jeff-king-bJHWJeiHfHc-unsplash.jpg","38","","","","","","","","","","","","","","","","","","","","","","","","","","","","","","","","","","","","","","","",""
"","rating","","html-slider-response","43","1009010","0.0-42.0","0","0","Aefo0","Scenes","","3276","","","","73","130","lina-loos-04-C1NZk1hE-unsplash.jpg","39","","","","","","","","","","","","","","","","","","","","","","","","","","","","","","","","","","","","","","","",""
"","rating","","html-slider-response","44","1012930","0.0-43.0","0","0","Aefo0","Scenes","","3916","","","","0","110","bruno-van-der-kraan-qez8mNJ3ilU-unsplash.jpg","40","","","","","","","","","","","","","","","","","","","","","","","","","","","","","","","","","","","","","","","",""
"","rating","","html-slider-response","45","1017089","0.0-44.0","0","0","Aefo0","Scenes","","4149","","","","21","102","anisur-rahman-K2b7UDed6uQ-unsplash.jpg","41","","","","","","","","","","","","","","","","","","","","","","","","","","","","","","","","","","","","","","","",""
"","rating","","html-slider-response","46","1021103","0.0-45.0","0","0","Aefo0","Scenes","","4006","","","","5","113","damian-denis-D8R_txR_0PE-unsplash.jpg","42","","","","","","","","","","","","","","","","","","","","","","","","","","","","","","","","","","","","","","","",""
"","rating","","html-slider-response","47","1026324","0.0-46.0","0","0","Aefo0","Scenes","","5214","","","","57","128","karsten-wurth-jS0zC2PJ17A-unsplash.jpg","43","","","","","","","","","","","","","","","","","","","","","","","","","","","","","","","","","","","","","","","",""
"","rating","","html-slider-response","48","1031165","0.0-47.0","0","0","Aefo0","Scenes","","4833","","","","95","134","milada-vigerova-pQMM63GE7fo-unsplash.jpg","44","","","","","","","","","","","","","","","","","","","","","","","","","","","","","","","","","","","","","","","",""
"","rating","","html-slider-response","49","1034718","0.0-48.0","0","0","Aefo0","Scenes","","3541","","","","100","125","john-lee-oMneOBYhJxY-unsplash.jpg","45","","","","","","","","","","","","","","","","","","","","","","","","","","","","","","","","","","","","","","","",""
"","rating","","html-slider-response","50","1038481","0.0-49.0","0","0","Aefo0","Scenes","","3754","","","","12","104","artem-sapegin-XGDBdSQ70O0-unsplash.jpg","46","","","","","","","","","","","","","","","","","","","","","","","","","","","","","","","","","","","","","","","",""
"","rating","","html-slider-response","51","1042287","0.0-50.0","0","0","Aefo0","Scenes","","3797","","","","13","133","mickey-o-neil-xL66l--msXU-unsplash.jpg","47","","","","","","","","","","","","","","","","","","","","","","","","","","","","","","","","","","","","","","","",""
"","rating","","html-slider-response","52","1046016","0.0-51.0","0","0","Aefo0","Scenes","","3721","","","","22","126","jordan-mcqueen-PJCZOWuOxbU-unsplash.jpg","48","","","","","","","","","","","","","","","","","","","","","","","","","","","","","","","","","","","","","","","",""
"","rating","","html-slider-response","53","1051575","0.0-52.0","0","0","Aefo0","Scenes","","5549","","","","30","105","ashim-d-silva-S2Q5mdOrrVc-unsplash.jpg","49","","","","","","","","","","","","","","","","","","","","","","","","","","","","","","","","","","","","","","","",""
"","deliberation_instructions","","instructions","54","1158227","0.0-53.0-0.0","0","0","Aefo0","Scenes","[{""page_index"":0,""viewing_time"":27710},{""page_index"":1,""viewing_time"":27678},{""page_index"":2,""viewing_time"":16443},{""page_index"":3,""viewing_time"":31646},{""page_index"":4,""viewing_time"":3165}]","106643","","","","","","","","","","","","","","","","","","","","","","","","","","","","","","","","","","","","","","","","","","","","","","",""
"","deliberation_comprehension_check","","survey-multi-choice","55","1217928","0.0-53.0-1.0","0","0","Aefo0","Scenes","","59685","{""Q0"":""True"",""Q1"":""True"",""Q2"":""Consider carefully and take your time (up to 10 seconds)"",""Q3"":""True"",""Q4"":""D""}","0","","","","","","","","","","","","","","","","","","","","","","","","","","","","","","","","","","","","","","","","","","","","",""
"","start_phase","","html-keyboard-response","56","1224777","0.0-54.0","0","0","Aefo0","Scenes","","6841","","","78","","","","","","","","","","","","","","","","","","","","","","","","","","","","","","","","","","","","","","","","","","","",""
"","first_deliberation_block","","html-keyboard-response","57","1232442","0.0-55.0","0","0","Aefo0","Scenes","","7649","","","78","","","","","","","","","","","","","","","","","","","","","","","","","","","","","","","","","","","","","","","","","","","",""
"","fixation","","html-keyboard-response","58","1233534","0.0-56.0-0.0","0","0","Aefo0","Scenes","","null","","","null","","","","","","","","","","","","","","","","","","","","","","","","","","","","","","","","","","","","","","","","","","","",""
"","deliberation","","html-keyboard-response","59","1239230","0.0-56.0-1.0","0","0","Aefo0","Scenes","","5669","","","75","","","","0","145","101","1","-1","76","68","stephen-leonardi-gyIRjKPXupE-unsplash.jpg","aniket-deole-T-tOgjWZ0fQ-unsplash.jpg","1","0","101","145","","","","","","","","","","","","","","","","","","","","","","","","","","","",""
"","choice_confirmation","","html-keyboard-response","60","1239739","0.0-56.0-2.0-0.0","0","0","Aefo0","Scenes","","null","","","null","","","","0","145","101","","","","","","","","","","","","","","","","","","","","","","","","","","","","","","","","","","","","","",""
"","explain_trial","","survey-text","61","1274400","0.0-56.0-5.0-0.0","0","0","Aefo0","Scenes","","34647","{""Q0"":""This art was colorful and depicts nature""}","","","","","","0","145","101","","","","","","","","","","","{""Q0"":""This art was colorful and depicts nature""}","","","","","","","","","","","","","","","","","","","","","","","","","","",""
"","fixation","","html-keyboard-response","62","1275415","0.0-57.0-0.0","0","0","Aefo0","Scenes","","null","","","null","","","","","","","","","","","","","","","","","","","","","","","","","","","","","","","","","","","","","","","","","","","",""
"","deliberation","","html-keyboard-response","63","1280609","0.0-57.0-1.0","0","0","Aefo0","Scenes","","5191","","","68","","","","1","147","130","1","-1","64","73","tobias-keller-73F4pKoUkM0-unsplash.jpg","lina-loos-04-C1NZk1hE-unsplash.jpg","1","1","147","130","","","","","","","","","","","","","","","","","","","","","","","","","","","",""
"","choice_confirmation","","html-keyboard-response","64","1281118","0.0-57.0-2.0-0.0","0","0","Aefo0","Scenes","","null","","","null","","","","1","147","130","","","","","","","","","","","","","","","","","","","","","","","","","","","","","","","","","","","","","",""
"","explain_trial","","survey-text","65","1311543","0.0-57.0-5.0-0.0","0","0","Aefo0","Scenes","","30409","{""Q0"":""This art has a theme of water which was lively.""}","","","","","","1","147","130","","","","","","","","","","","{""Q0"":""This art has a theme of water which was lively.""}","","","","","","","","","","","","","","","","","","","","","","","","","","",""
"","fixation","","html-keyboard-response","66","1312564","0.0-58.0-0.0","0","0","Aefo0","Scenes","","null","","","null","","","","","","","","","","","","","","","","","","","","","","","","","","","","","","","","","","","","","","","","","","","",""
"","deliberation","","html-keyboard-response","67","1319711","0.0-58.0-1.0","0","0","Aefo0","Scenes","","7142","","","68","","","","2","143","135","0","1","61","58","sigurdur-fjalar-jonsson-1KxBabIntpE-unsplash.jpg","mohammad-alizade-4wzRuAb-KWs-unsplash.jpg","1","1","143","135","","","","","","","","","","","","","","","","","","","","","","","","","","","",""
"","choice_confirmation","","html-keyboard-response","68","1320224","0.0-58.0-2.0-0.0","0","0","Aefo0","Scenes","","null","","","null","","","","2","143","135","","","","","","","","","","","","","","","","","","","","","","","","","","","","","","","","","","","","","",""
"","fixation","","html-keyboard-response","69","1321301","0.0-59.0-0.0","0","0","Aefo0","Scenes","","null","","","null","","","","","","","","","","","","","","","","","","","","","","","","","","","","","","","","","","","","","","","","","","","",""
"","deliberation","","html-keyboard-response","70","1325554","0.0-59.0-1.0","0","0","Aefo0","Scenes","","4236","","","75","","","","3","128","112","0","1","57","66","karsten-wurth-jS0zC2PJ17A-unsplash.jpg","cosmic-timetraveler-pYyOZ8q7AII-unsplash.jpg","1","0","112","128","","","","","","","","","","","","","","","","","","","","","","","","","","","",""
"","choice_confirmation","","html-keyboard-response","71","1326067","0.0-59.0-2.0-0.0","0","0","Aefo0","Scenes","","null","","","null","","","","3","128","112","","","","","","","","","","","","","","","","","","","","","","","","","","","","","","","","","","","","","",""
"","fixation","","html-keyboard-response","72","1327095","0.0-60.0-0.0","0","0","Aefo0","Scenes","","null","","","null","","","","","","","","","","","","","","","","","","","","","","","","","","","","","","","","","","","","","","","","","","","",""
"","deliberation","","html-keyboard-response","73","1331035","0.0-60.0-1.0","0","0","Aefo0","Scenes","","3920","","","68","","","","4","118","136","1","1","79","55","henry-be-NLF6hTe4PAg-unsplash.jpg","nicolas-jehly-LzVB84KkZOE-unsplash.jpg","1","1","118","136","","","","","","","","","","","","","","","","","","","","","","","","","","","",""
"","choice_confirmation","","html-keyboard-response","74","1331548","0.0-60.0-2.0-0.0","0","0","Aefo0","Scenes","","null","","","null","","","","4","118","136","","","","","","","","","","","","","","","","","","","","","","","","","","","","","","","","","","","","","",""
"","explain_trial","","survey-text","75","1363546","0.0-60.0-5.0-0.0","0","0","Aefo0","Scenes","","31990","{""Q0"":""The flowers add beauty to the art.""}","","","","","","4","118","136","","","","","","","","","","","{""Q0"":""The flowers add beauty to the art.""}","","","","","","","","","","","","","","","","","","","","","","","","","","",""
"","fixation","","html-keyboard-response","76","1364604","0.0-61.0-0.0","0","0","Aefo0","Scenes","","null","","","null","","","","","","","","","","","","","","","","","","","","","","","","","","","","","","","","","","","","","","","","","","","",""
"","deliberation","","html-keyboard-response","77","1368755","0.0-61.0-1.0","0","0","Aefo0","Scenes","","4145","","","75","","","","5","137","141","1","1","65","75","olga-stalska-QaWRyEdlffY-unsplash.jpg","sebastian-unrau-v4e3JI7DDHI-unsplash.jpg","1","0","141","137","","","","","","","","","","","","","","","","","","","","","","","","","","","",""
"","choice_confirmation","","html-keyboard-response","78","1369266","0.0-61.0-2.0-0.0","0","0","Aefo0","Scenes","","null","","","null","","","","5","137","141","","","","","","","","","","","","","","","","","","","","","","","","","","","","","","","","","","","","","",""
"","explain_trial","","survey-text","79","1401157","0.0-61.0-5.0-0.0","0","0","Aefo0","Scenes","","31881","{""Q0"":""The sunny climate was outstanding in this art.""}","","","","","","5","137","141","","","","","","","","","","","{""Q0"":""The sunny climate was outstanding in this art.""}","","","","","","","","","","","","","","","","","","","","","","","","","","",""
"","fixation","","html-keyboard-response","80","1402183","0.0-62.0-0.0","0","0","Aefo0","Scenes","","null","","","null","","","","","","","","","","","","","","","","","","","","","","","","","","","","","","","","","","","","","","","","","","","",""
"","deliberation","","html-keyboard-response","81","1406931","0.0-62.0-1.0","0","0","Aefo0","Scenes","","4739","","","68","","","","6","115","105","1","-1","58","30","darrell-cassell-hoCXpPUMCoE-unsplash.jpg","ashim-d-silva-S2Q5mdOrrVc-unsplash.jpg","1","1","115","105","","","","","","","","","","","","","","","","","","","","","","","","","","","",""
"","choice_confirmation","","html-keyboard-response","82","1407456","0.0-62.0-2.0-0.0","0","0","Aefo0","Scenes","","null","","","null","","","","6","115","105","","","","","","","","","","","","","","","","","","","","","","","","","","","","","","","","","","","","","",""
"","explain_trial","","survey-text","83","1426707","0.0-62.0-5.0-0.0","0","0","Aefo0","Scenes","","19242","{""Q0"":""The sky and water coincide.""}","","","","","","6","115","105","","","","","","","","","","","{""Q0"":""The sky and water coincide.""}","","","","","","","","","","","","","","","","","","","","","","","","","","",""
"","fixation","","html-keyboard-response","84","1427714","0.0-63.0-0.0","0","0","Aefo0","Scenes","","null","","","null","","","","","","","","","","","","","","","","","","","","","","","","","","","","","","","","","","","","","","","","","","","",""
"","deliberation","","html-keyboard-response","85","1432292","0.0-63.0-1.0","0","0","Aefo0","Scenes","","4573","","","68","","","","7","109","122","1","-1","79","25","brigitta-schneiter-hXXRLtTxXCU-unsplash.jpg","jeff-king-bJHWJeiHfHc-unsplash.jpg","1","1","109","122","","","","","","","","","","","","","","","","","","","","","","","","","","","",""
"","choice_confirmation","","html-keyboard-response","86","1432797","0.0-63.0-2.0-0.0","0","0","Aefo0","Scenes","","null","","","null","","","","7","109","122","","","","","","","","","","","","","","","","","","","","","","","","","","","","","","","","","","","","","",""
"","explain_trial","","survey-text","87","1456274","0.0-63.0-5.0-0.0","0","0","Aefo0","Scenes","","23467","{""Q0"":""The sky and the water are in the same color.""}","","","","","","7","109","122","","","","","","","","","","","{""Q0"":""The sky and the water are in the same color.""}","","","","","","","","","","","","","","","","","","","","","","","","","","",""
"","fixation","","html-keyboard-response","88","1457281","0.0-64.0-0.0","0","0","Aefo0","Scenes","","null","","","null","","","","","","","","","","","","","","","","","","","","","","","","","","","","","","","","","","","","","","","","","","","",""
"","deliberation","","html-keyboard-response","89","1459899","0.0-64.0-1.0","0","0","Aefo0","Scenes","","2609","","","68","","","","8","116","100","0","-1","85","79","david-marcu-W5MhJ6cy1So-unsplash.jpg","aleksandra-boguslawska-MS7KD9Ti7FQ-unsplash.jpg","1","1","116","100","","","","","","","","","","","","","","","","","","","","","","","","","","","",""
"","choice_confirmation","","html-keyboard-response","90","1460463","0.0-64.0-2.0-0.0","0","0","Aefo0","Scenes","","null","","","null","","","","8","116","100","","","","","","","","","","","","","","","","","","","","","","","","","","","","","","","","","","","","","",""
"","fixation","","html-keyboard-response","91","1461714","0.0-65.0-0.0","0","0","Aefo0","Scenes","","null","","","null","","","","","","","","","","","","","","","","","","","","","","","","","","","","","","","","","","","","","","","","","","","",""
"","deliberation","","html-keyboard-response","92","1464055","0.0-65.0-1.0","0","0","Aefo0","Scenes","","2333","","","75","","","","9","129","123","0","-1","63","78","kurt-cotoaga-cqbLg3lZEpk-unsplash.jpg","joel-jasmin-forestbird-efuwb5eBDrI-unsplash.jpg","1","0","123","129","","","","","","","","","","","","","","","","","","","","","","","","","","","",""
"","choice_confirmation","","html-keyboard-response","93","1464566","0.0-65.0-2.0-0.0","0","0","Aefo0","Scenes","","null","","","null","","","","9","129","123","","","","","","","","","","","","","","","","","","","","","","","","","","","","","","","","","","","","","",""
"","fixation","","html-keyboard-response","94","1465589","0.0-66.0-0.0","0","0","Aefo0","Scenes","","null","","","null","","","","","","","","","","","","","","","","","","","","","","","","","","","","","","","","","","","","","","","","","","","",""
"","deliberation","","html-keyboard-response","95","1468011","0.0-66.0-1.0","0","0","Aefo0","Scenes","","2419","","","68","","","","10","107","117","0","1","69","78","benjamin-davies-Zm2n2O7Fph4-unsplash.jpg","frank-mckenna-OD9EOzfSOh0-unsplash.jpg","1","1","107","117","","","","","","","","","","","","","","","","","","","","","","","","","","","",""
"","choice_confirmation","","html-keyboard-response","96","1468520","0.0-66.0-2.0-0.0","0","0","Aefo0","Scenes","","null","","","null","","","","10","107","117","","","","","","","","","","","","","","","","","","","","","","","","","","","","","","","","","","","","","",""
"","fixation","","html-keyboard-response","97","1469529","0.0-67.0-0.0","0","0","Aefo0","Scenes","","null","","","null","","","","","","","","","","","","","","","","","","","","","","","","","","","","","","","","","","","","","","","","","","","",""
"","deliberation","","html-keyboard-response","98","1472652","0.0-67.0-1.0","0","0","Aefo0","Scenes","","3102","","","75","","","","11","103","148","0","1","65","73","anton-darius-FBJugtbHsWU-unsplash.jpg","tom-gainor-ZqLeQDjY6fY-unsplash.jpg","1","0","148","103","","","","","","","","","","","","","","","","","","","","","","","","","","","",""
"","choice_confirmation","","html-keyboard-response","99","1473175","0.0-67.0-2.0-0.0","0","0","Aefo0","Scenes","","null","","","null","","","","11","103","148","","","","","","","","","","","","","","","","","","","","","","","","","","","","","","","","","","","","","",""
"","practice_deliberation_again","","html-keyboard-response","100","1479822","0.0-67.0-6.0-0.0","0","0","Aefo0","Scenes","","6635","","","78","","","","","","","","","","","","","","","","","","","","","","","","","","","","","","","","","","","","","","","","","","","",""
"","fixation","","html-keyboard-response","101","1480855","0.0-68.0-0.0","0","0","Aefo0","Scenes","","null","","","null","","","","","","","","","","","","","","","","","","","","","","","","","","","","","","","","","","","","","","","","","","","",""
"","deliberation","","html-keyboard-response","102","1483116","0.0-68.0-1.0","0","0","Aefo0","Scenes","","2251","","","68","","","","12","137","141","0","1","65","75","olga-stalska-QaWRyEdlffY-unsplash.jpg","sebastian-unrau-v4e3JI7DDHI-unsplash.jpg","2","1","137","141","","","","","","","","","","","","","","","","","","","","","","","","","","","",""
"","choice_confirmation","","html-keyboard-response","103","1483630","0.0-68.0-2.0-0.0","0","0","Aefo0","Scenes","","null","","","null","","","","12","137","141","","","","","","","","","","","","","","","","","","","","","","","","","","","","","","","","","","","","","",""
"","fixation","","html-keyboard-response","104","1484662","0.0-69.0-0.0","0","0","Aefo0","Scenes","","null","","","null","","","","","","","","","","","","","","","","","","","","","","","","","","","","","","","","","","","","","","","","","","","",""
"","deliberation","","html-keyboard-response","105","1486513","0.0-69.0-1.0","0","0","Aefo0","Scenes","","1835","","","68","","","","13","109","122","0","-1","79","25","brigitta-schneiter-hXXRLtTxXCU-unsplash.jpg","jeff-king-bJHWJeiHfHc-unsplash.jpg","2","1","109","122","","","","","","","","","","","","","","","","","","","","","","","","","","","",""
"","choice_confirmation","","html-keyboard-response","106","1487174","0.0-69.0-2.0-0.0","0","0","Aefo0","Scenes","","null","","","null","","","","13","109","122","","","","","","","","","","","","","","","","","","","","","","","","","","","","","","","","","","","","","",""
"","fixation","","html-keyboard-response","107","1488191","0.0-70.0-0.0","0","0","Aefo0","Scenes","","null","","","null","","","","","","","","","","","","","","","","","","","","","","","","","","","","","","","","","","","","","","","","","","","",""
"","deliberation","","html-keyboard-response","108","1489879","0.0-70.0-1.0","0","0","Aefo0","Scenes","","1679","","","68","","","","14","107","117","1","1","69","78","benjamin-davies-Zm2n2O7Fph4-unsplash.jpg","frank-mckenna-OD9EOzfSOh0-unsplash.jpg","2","1","107","117","","","","","","","","","","","","","","","","","","","","","","","","","","","",""
"","choice_confirmation","","html-keyboard-response","109","1490386","0.0-70.0-2.0-0.0","0","0","Aefo0","Scenes","","null","","","null","","","","14","107","117","","","","","","","","","","","","","","","","","","","","","","","","","","","","","","","","","","","","","",""
"","explain_trial","","survey-text","110","1506793","0.0-70.0-5.0-0.0","0","0","Aefo0","Scenes","","16399","{""Q0"":""Beautiful morning sunset.""}","","","","","","14","107","117","","","","","","","","","","","{""Q0"":""Beautiful morning sunset.""}","","","","","","","","","","","","","","","","","","","","","","","","","","",""
"","fixation","","html-keyboard-response","111","1507804","0.0-71.0-0.0","0","0","Aefo0","Scenes","","null","","","null","","","","","","","","","","","","","","","","","","","","","","","","","","","","","","","","","","","","","","","","","","","",""
"","deliberation","","html-keyboard-response","112","1510262","0.0-71.0-1.0","0","0","Aefo0","Scenes","","2445","","","68","","","","15","118","136","0","1","79","55","henry-be-NLF6hTe4PAg-unsplash.jpg","nicolas-jehly-LzVB84KkZOE-unsplash.jpg","2","1","118","136","","","","","","","","","","","","","","","","","","","","","","","","","","","",""
"","choice_confirmation","","html-keyboard-response","113","1510801","0.0-71.0-2.0-0.0","0","0","Aefo0","Scenes","","null","","","null","","","","15","118","136","","","","","","","","","","","","","","","","","","","","","","","","","","","","","","","","","","","","","",""
"","fixation","","html-keyboard-response","114","1511871","0.0-72.0-0.0","0","0","Aefo0","Scenes","","null","","","null","","","","","","","","","","","","","","","","","","","","","","","","","","","","","","","","","","","","","","","","","","","",""
"","deliberation","","html-keyboard-response","115","1513706","0.0-72.0-1.0","0","0","Aefo0","Scenes","","1812","","","75","","","","16","147","130","0","-1","64","73","tobias-keller-73F4pKoUkM0-unsplash.jpg","lina-loos-04-C1NZk1hE-unsplash.jpg","2","0","130","147","","","","","","","","","","","","","","","","","","","","","","","","","","","",""
"","choice_confirmation","","html-keyboard-response","116","1514216","0.0-72.0-2.0-0.0","0","0","Aefo0","Scenes","","null","","","null","","","","16","147","130","","","","","","","","","","","","","","","","","","","","","","","","","","","","","","","","","","","","","",""
"","fixation","","html-keyboard-response","117","1515231","0.0-73.0-0.0","0","0","Aefo0","Scenes","","null","","","null","","","","","","","","","","","","","","","","","","","","","","","","","","","","","","","","","","","","","","","","","","","",""
"","deliberation","","html-keyboard-response","118","1516652","0.0-73.0-1.0","0","0","Aefo0","Scenes","","1407","","","68","","","","17","115","105","0","-1","58","30","darrell-cassell-hoCXpPUMCoE-unsplash.jpg","ashim-d-silva-S2Q5mdOrrVc-unsplash.jpg","2","1","115","105","","","","","","","","","","","","","","","","","","","","","","","","","","","",""
"","choice_confirmation","","html-keyboard-response","119","1517162","0.0-73.0-2.0-0.0","0","0","Aefo0","Scenes","","null","","","null","","","","17","115","105","","","","","","","","","","","","","","","","","","","","","","","","","","","","","","","","","","","","","",""
"","fixation","","html-keyboard-response","120","1518178","0.0-74.0-0.0","0","0","Aefo0","Scenes","","null","","","null","","","","","","","","","","","","","","","","","","","","","","","","","","","","","","","","","","","","","","","","","","","",""
"","deliberation","","html-keyboard-response","121","1519631","0.0-74.0-1.0","0","0","Aefo0","Scenes","","1449","","","75","","","","18","129","123","1","-1","63","78","kurt-cotoaga-cqbLg3lZEpk-unsplash.jpg","joel-jasmin-forestbird-efuwb5eBDrI-unsplash.jpg","2","0","123","129","","","","","","","","","","","","","","","","","","","","","","","","","","","",""
"","choice_confirmation","","html-keyboard-response","122","1520136","0.0-74.0-2.0-0.0","0","0","Aefo0","Scenes","","null","","","null","","","","18","129","123","","","","","","","","","","","","","","","","","","","","","","","","","","","","","","","","","","","","","",""
"","explain_trial","","survey-text","123","1544811","0.0-74.0-5.0-0.0","0","0","Aefo0","Scenes","","24668","{""Q0"":""Very different and authentic view.""}","","","","","","18","129","123","","","","","","","","","","","{""Q0"":""Very different and authentic view.""}","","","","","","","","","","","","","","","","","","","","","","","","","","",""
"","fixation","","html-keyboard-response","124","1546046","0.0-75.0-0.0","0","0","Aefo0","Scenes","","null","","","null","","","","","","","","","","","","","","","","","","","","","","","","","","","","","","","","","","","","","","","","","","","",""
"","deliberation","","html-keyboard-response","125","1549962","0.0-75.0-1.0","0","0","Aefo0","Scenes","","3912","","","68","","","","19","145","101","0","-1","76","68","stephen-leonardi-gyIRjKPXupE-unsplash.jpg","aniket-deole-T-tOgjWZ0fQ-unsplash.jpg","2","1","145","101","","","","","","","","","","","","","","","","","","","","","","","","","","","",""
"","choice_confirmation","","html-keyboard-response","126","1550487","0.0-75.0-2.0-0.0","0","0","Aefo0","Scenes","","null","","","null","","","","19","145","101","","","","","","","","","","","","","","","","","","","","","","","","","","","","","","","","","","","","","",""
"","fixation","","html-keyboard-response","127","1551529","0.0-76.0-0.0","0","0","Aefo0","Scenes","","null","","","null","","","","","","","","","","","","","","","","","","","","","","","","","","","","","","","","","","","","","","","","","","","",""
"","deliberation","","html-keyboard-response","128","1553447","0.0-76.0-1.0","0","0","Aefo0","Scenes","","1908","","","68","","","","20","116","100","1","-1","85","79","david-marcu-W5MhJ6cy1So-unsplash.jpg","aleksandra-boguslawska-MS7KD9Ti7FQ-unsplash.jpg","2","1","116","100","","","","","","","","","","","","","","","","","","","","","","","","","","","",""
"","choice_confirmation","","html-keyboard-response","129","1553968","0.0-76.0-2.0-0.0","0","0","Aefo0","Scenes","","null","","","null","","","","20","116","100","","","","","","","","","","","","","","","","","","","","","","","","","","","","","","","","","","","","","",""
"","explain_trial","","survey-text","130","1582868","0.0-76.0-5.0-0.0","0","0","Aefo0","Scenes","","28893","{""Q0"":""Beautiful trees and wonderful sight.""}","","","","","","20","116","100","","","","","","","","","","","{""Q0"":""Beautiful trees and wonderful sight.""}","","","","","","","","","","","","","","","","","","","","","","","","","","",""
"","fixation","","html-keyboard-response","131","1583880","0.0-77.0-0.0","0","0","Aefo0","Scenes","","null","","","null","","","","","","","","","","","","","","","","","","","","","","","","","","","","","","","","","","","","","","","","","","","",""
"","deliberation","","html-keyboard-response","132","1587508","0.0-77.0-1.0","0","0","Aefo0","Scenes","","3623","","","75","","","","21","143","135","1","1","61","58","sigurdur-fjalar-jonsson-1KxBabIntpE-unsplash.jpg","mohammad-alizade-4wzRuAb-KWs-unsplash.jpg","2","0","135","143","","","","","","","","","","","","","","","","","","","","","","","","","","","",""
"","choice_confirmation","","html-keyboard-response","133","1588018","0.0-77.0-2.0-0.0","0","0","Aefo0","Scenes","","null","","","null","","","","21","143","135","","","","","","","","","","","","","","","","","","","","","","","","","","","","","","","","","","","","","",""
"","explain_trial","","survey-text","134","1608912","0.0-77.0-5.0-0.0","0","0","Aefo0","Scenes","","20889","{""Q0"":""The sky looks different in this art.""}","","","","","","21","143","135","","","","","","","","","","","{""Q0"":""The sky looks different in this art.""}","","","","","","","","","","","","","","","","","","","","","","","","","","",""
"","fixation","","html-keyboard-response","135","1610066","0.0-78.0-0.0","0","0","Aefo0","Scenes","","null","","","null","","","","","","","","","","","","","","","","","","","","","","","","","","","","","","","","","","","","","","","","","","","",""
"","deliberation","","html-keyboard-response","136","1613970","0.0-78.0-1.0","0","0","Aefo0","Scenes","","3901","","","75","","","","22","103","148","1","1","65","73","anton-darius-FBJugtbHsWU-unsplash.jpg","tom-gainor-ZqLeQDjY6fY-unsplash.jpg","2","0","148","103","","","","","","","","","","","","","","","","","","","","","","","","","","","",""
"","choice_confirmation","","html-keyboard-response","137","1614475","0.0-78.0-2.0-0.0","0","0","Aefo0","Scenes","","null","","","null","","","","22","103","148","","","","","","","","","","","","","","","","","","","","","","","","","","","","","","","","","","","","","",""
"","explain_trial","","survey-text","138","1635413","0.0-78.0-5.0-0.0","0","0","Aefo0","Scenes","","20924","{""Q0"":""The color of the sky was authentic.""}","","","","","","22","103","148","","","","","","","","","","","{""Q0"":""The color of the sky was authentic.""}","","","","","","","","","","","","","","","","","","","","","","","","","","",""
"","fixation","","html-keyboard-response","139","1636426","0.0-79.0-0.0","0","0","Aefo0","Scenes","","null","","","null","","","","","","","","","","","","","","","","","","","","","","","","","","","","","","","","","","","","","","","","","","","",""
"","deliberation","","html-keyboard-response","140","1639043","0.0-79.0-1.0","0","0","Aefo0","Scenes","","2611","","","75","","","","23","128","112","1","1","57","66","karsten-wurth-jS0zC2PJ17A-unsplash.jpg","cosmic-timetraveler-pYyOZ8q7AII-unsplash.jpg","2","0","112","128","","","","","","","","","","","","","","","","","","","","","","","","","","","",""
"","choice_confirmation","","html-keyboard-response","141","1639642","0.0-79.0-2.0-0.0","0","0","Aefo0","Scenes","","null","","","null","","","","23","128","112","","","","","","","","","","","","","","","","","","","","","","","","","","","","","","","","","","","","","",""
"","explain_trial","","survey-text","142","1667684","0.0-79.0-5.0-0.0","0","0","Aefo0","Scenes","","28036","{""Q0"":""The place looks very beautiful""}","","","","","","23","128","112","","","","","","","","","","","{""Q0"":""The place looks very beautiful""}","","","","","","","","","","","","","","","","","","","","","","","","","","",""
"","start_critical_deliberation_block","","html-keyboard-response","143","1679736","0.0-79.0-7.0-0.0","0","0","Aefo0","Scenes","","12045","","","78","","","","","","","","","","","","","","","","","","","","","","","","","","","","","","","","","","","","","","","","","","","",""
"","fixation","","html-keyboard-response","144","1680745","0.0-80.0-0.0","0","0","Aefo0","Scenes","","null","","","null","","","","","","","","","","","","","","","","","","","","","","","","","","","","","","","","","","","","","","","","","","","",""
"","deliberation","","html-keyboard-response","145","1685501","0.0-80.0-1.0","0","0","Aefo0","Scenes","","4737","","","75","","","","24","129","123","0","-1","63","78","kurt-cotoaga-cqbLg3lZEpk-unsplash.jpg","joel-jasmin-forestbird-efuwb5eBDrI-unsplash.jpg","3","0","123","129","","","","","","","","","","","","","","","","","","","","","","","","","","","",""
"","choice_confirmation","","html-keyboard-response","146","1686107","0.0-80.0-2.0-0.0","0","0","Aefo0","Scenes","","null","","","null","","","","24","129","123","","","","","","","","","","","","","","","","","","","","","","","","","","","","","","","","","","","","","",""
"","fixation","","html-keyboard-response","147","1687115","0.0-81.0-0.0","0","0","Aefo0","Scenes","","null","","","null","","","","","","","","","","","","","","","","","","","","","","","","","","","","","","","","","","","","","","","","","","","",""
"","deliberation","","html-keyboard-response","148","1697129","0.0-81.0-1.0","0","0","Aefo0","Scenes","","null","","","null","","","","25","143","135","0","1","61","58","sigurdur-fjalar-jonsson-1KxBabIntpE-unsplash.jpg","mohammad-alizade-4wzRuAb-KWs-unsplash.jpg","3","","","","","","","","","","","","","","","","","","","","","","","","","","","","","","",""
"","deliberation_too_slow","","html-keyboard-response","149","1698644","0.0-81.0-4.0-0.0","1","0","Aefo0","Scenes","","null","","","null","","","","25","","","","","","","","","","","","","","","","","","","","","","","","","","","","","","","","","","","","","","","",""
"","fixation","","html-keyboard-response","150","1699660","0.0-81.1-0.1","0","0","Aefo0","Scenes","","null","","","null","","","","","","","","","","","","","","","","","","","","","","","","","","","","","","","","","","","","","","","","","","","",""
"","deliberation","","html-keyboard-response","151","1709677","0.0-81.1-1.1","0","0","Aefo0","Scenes","","null","","","null","","","","25","143","135","0","1","61","58","sigurdur-fjalar-jonsson-1KxBabIntpE-unsplash.jpg","mohammad-alizade-4wzRuAb-KWs-unsplash.jpg","3","","","","","","","","","","","","","","","","","","","","","","","","","","","","","","",""
"","deliberation_too_slow","","html-keyboard-response","152","1711188","0.0-81.1-4.1-0.1","1","0","Aefo0","Scenes","","null","","","null","","","","25","","","","","","","","","","","","","","","","","","","","","","","","","","","","","","","","","","","","","","","",""
"","fixation","","html-keyboard-response","153","1712230","0.0-81.2-0.2","0","0","Aefo0","Scenes","","null","","","null","","","","","","","","","","","","","","","","","","","","","","","","","","","","","","","","","","","","","","","","","","","",""
"","deliberation","","html-keyboard-response","154","1720490","0.0-81.2-1.2","0","0","Aefo0","Scenes","","8256","","","75","","","","25","143","135","0","1","61","58","sigurdur-fjalar-jonsson-1KxBabIntpE-unsplash.jpg","mohammad-alizade-4wzRuAb-KWs-unsplash.jpg","3","0","135","143","","","","","","","","","","","","","","","","","","","","","","","","","","","",""
"","choice_confirmation","","html-keyboard-response","155","1721019","0.0-81.2-2.2-0.2","0","0","Aefo0","Scenes","","null","","","null","","","","25","143","135","","","","","","","","","","","","","","","","","","","","","","","","","","","","","","","","","","","","","",""
"","fixation","","html-keyboard-response","156","1722160","0.0-82.0-0.0","0","0","Aefo0","Scenes","","null","","","null","","","","","","","","","","","","","","","","","","","","","","","","","","","","","","","","","","","","","","","","","","","",""
"","deliberation","","html-keyboard-response","157","1724851","0.0-82.0-1.0","0","0","Aefo0","Scenes","","2681","","","68","","","","26","118","136","0","1","79","55","henry-be-NLF6hTe4PAg-unsplash.jpg","nicolas-jehly-LzVB84KkZOE-unsplash.jpg","3","1","118","136","","","","","","","","","","","","","","","","","","","","","","","","","","","",""
"","choice_confirmation","","html-keyboard-response","158","1725365","0.0-82.0-2.0-0.0","0","0","Aefo0","Scenes","","null","","","null","","","","26","118","136","","","","","","","","","","","","","","","","","","","","","","","","","","","","","","","","","","","","","",""
"","fixation","","html-keyboard-response","159","1726394","0.0-83.0-0.0","0","0","Aefo0","Scenes","","null","","","null","","","","","","","","","","","","","","","","","","","","","","","","","","","","","","","","","","","","","","","","","","","",""
"","deliberation","","html-keyboard-response","160","1728094","0.0-83.0-1.0","0","0","Aefo0","Scenes","","1682","","","68","","","","27","147","130","0","-1","64","73","tobias-keller-73F4pKoUkM0-unsplash.jpg","lina-loos-04-C1NZk1hE-unsplash.jpg","3","1","147","130","","","","","","","","","","","","","","","","","","","","","","","","","","","",""
"","choice_confirmation","","html-keyboard-response","161","1729012","0.0-83.0-2.0-0.0","0","0","Aefo0","Scenes","","null","","","null","","","","27","147","130","","","","","","","","","","","","","","","","","","","","","","","","","","","","","","","","","","","","","",""
"","fixation","","html-keyboard-response","162","1730033","0.0-84.0-0.0","0","0","Aefo0","Scenes","","null","","","null","","","","","","","","","","","","","","","","","","","","","","","","","","","","","","","","","","","","","","","","","","","",""
"","deliberation","","html-keyboard-response","163","1731688","0.0-84.0-1.0","0","0","Aefo0","Scenes","","1651","","","75","","","","28","103","148","0","1","65","73","anton-darius-FBJugtbHsWU-unsplash.jpg","tom-gainor-ZqLeQDjY6fY-unsplash.jpg","3","0","148","103","","","","","","","","","","","","","","","","","","","","","","","","","","","",""
"","choice_confirmation","","html-keyboard-response","164","1732406","0.0-84.0-2.0-0.0","0","0","Aefo0","Scenes","","null","","","null","","","","28","103","148","","","","","","","","","","","","","","","","","","","","","","","","","","","","","","","","","","","","","",""
"","fixation","","html-keyboard-response","165","1733425","0.0-85.0-0.0","0","0","Aefo0","Scenes","","null","","","null","","","","","","","","","","","","","","","","","","","","","","","","","","","","","","","","","","","","","","","","","","","",""
"","deliberation","","html-keyboard-response","166","1734837","0.0-85.0-1.0","0","0","Aefo0","Scenes","","1399","","","68","","","","29","137","141","0","1","65","75","olga-stalska-QaWRyEdlffY-unsplash.jpg","sebastian-unrau-v4e3JI7DDHI-unsplash.jpg","3","1","137","141","","","","","","","","","","","","","","","","","","","","","","","","","","","",""
"","choice_confirmation","","html-keyboard-response","167","1735363","0.0-85.0-2.0-0.0","0","0","Aefo0","Scenes","","null","","","null","","","","29","137","141","","","","","","","","","","","","","","","","","","","","","","","","","","","","","","","","","","","","","",""
"","fixation","","html-keyboard-response","168","1736406","0.0-86.0-0.0","0","0","Aefo0","Scenes","","null","","","null","","","","","","","","","","","","","","","","","","","","","","","","","","","","","","","","","","","","","","","","","","","",""
"","deliberation","","html-keyboard-response","169","1737633","0.0-86.0-1.0","0","0","Aefo0","Scenes","","1194","","","68","","","","30","115","105","0","-1","58","30","darrell-cassell-hoCXpPUMCoE-unsplash.jpg","ashim-d-silva-S2Q5mdOrrVc-unsplash.jpg","3","1","115","105","","","","","","","","","","","","","","","","","","","","","","","","","","","",""
"","choice_confirmation","","html-keyboard-response","170","1738142","0.0-86.0-2.0-0.0","0","0","Aefo0","Scenes","","null","","","null","","","","30","115","105","","","","","","","","","","","","","","","","","","","","","","","","","","","","","","","","","","","","","",""
"","fixation","","html-keyboard-response","171","1739148","0.0-87.0-0.0","0","0","Aefo0","Scenes","","null","","","null","","","","","","","","","","","","","","","","","","","","","","","","","","","","","","","","","","","","","","","","","","","",""
"","deliberation","","html-keyboard-response","172","1740639","0.0-87.0-1.0","0","0","Aefo0","Scenes","","1476","","","68","","","","31","109","122","0","-1","79","25","brigitta-schneiter-hXXRLtTxXCU-unsplash.jpg","jeff-king-bJHWJeiHfHc-unsplash.jpg","3","1","109","122","","","","","","","","","","","","","","","","","","","","","","","","","","","",""
"","choice_confirmation","","html-keyboard-response","173","1741151","0.0-87.0-2.0-0.0","0","0","Aefo0","Scenes","","null","","","null","","","","31","109","122","","","","","","","","","","","","","","","","","","","","","","","","","","","","","","","","","","","","","",""
"","fixation","","html-keyboard-response","174","1742183","0.0-88.0-0.0","0","0","Aefo0","Scenes","","null","","","null","","","","","","","","","","","","","","","","","","","","","","","","","","","","","","","","","","","","","","","","","","","",""
"","deliberation","","html-keyboard-response","175","1743825","0.0-88.0-1.0","0","0","Aefo0","Scenes","","1615","","","68","","","","32","107","117","0","1","69","78","benjamin-davies-Zm2n2O7Fph4-unsplash.jpg","frank-mckenna-OD9EOzfSOh0-unsplash.jpg","3","1","107","117","","","","","","","","","","","","","","","","","","","","","","","","","","","",""
"","choice_confirmation","","html-keyboard-response","176","1744414","0.0-88.0-2.0-0.0","0","0","Aefo0","Scenes","","null","","","null","","","","32","107","117","","","","","","","","","","","","","","","","","","","","","","","","","","","","","","","","","","","","","",""
"","fixation","","html-keyboard-response","177","1745434","0.0-89.0-0.0","0","0","Aefo0","Scenes","","null","","","null","","","","","","","","","","","","","","","","","","","","","","","","","","","","","","","","","","","","","","","","","","","",""
"","deliberation","","html-keyboard-response","178","1746818","0.0-89.0-1.0","0","0","Aefo0","Scenes","","1374","","","68","","","","33","116","100","0","-1","85","79","david-marcu-W5MhJ6cy1So-unsplash.jpg","aleksandra-boguslawska-MS7KD9Ti7FQ-unsplash.jpg","3","1","116","100","","","","","","","","","","","","","","","","","","","","","","","","","","","",""
"","choice_confirmation","","html-keyboard-response","179","1747367","0.0-89.0-2.0-0.0","0","0","Aefo0","Scenes","","null","","","null","","","","33","116","100","","","","","","","","","","","","","","","","","","","","","","","","","","","","","","","","","","","","","",""
"","fixation","","html-keyboard-response","180","1748393","0.0-90.0-0.0","0","0","Aefo0","Scenes","","null","","","null","","","","","","","","","","","","","","","","","","","","","","","","","","","","","","","","","","","","","","","","","","","",""
"","deliberation","","html-keyboard-response","181","1749554","0.0-90.0-1.0","0","0","Aefo0","Scenes","","1154","","","75","","","","34","128","112","0","1","57","66","karsten-wurth-jS0zC2PJ17A-unsplash.jpg","cosmic-timetraveler-pYyOZ8q7AII-unsplash.jpg","3","0","112","128","","","","","","","","","","","","","","","","","","","","","","","","","","","",""
"","choice_confirmation","","html-keyboard-response","182","1750072","0.0-90.0-2.0-0.0","0","0","Aefo0","Scenes","","null","","","null","","","","34","128","112","","","","","","","","","","","","","","","","","","","","","","","","","","","","","","","","","","","","","",""
"","fixation","","html-keyboard-response","183","1751102","0.0-91.0-0.0","0","0","Aefo0","Scenes","","null","","","null","","","","","","","","","","","","","","","","","","","","","","","","","","","","","","","","","","","","","","","","","","","",""
"","deliberation","","html-keyboard-response","184","1752232","0.0-91.0-1.0","0","0","Aefo0","Scenes","","1116","","","68","","","","35","145","101","0","-1","76","68","stephen-leonardi-gyIRjKPXupE-unsplash.jpg","aniket-deole-T-tOgjWZ0fQ-unsplash.jpg","3","1","145","101","","","","","","","","","","","","","","","","","","","","","","","","","","","",""
"","choice_confirmation","","html-keyboard-response","185","1753085","0.0-91.0-2.0-0.0","0","0","Aefo0","Scenes","","null","","","null","","","","35","145","101","","","","","","","","","","","","","","","","","","","","","","","","","","","","","","","","","","","","","",""
"","reward_learning_instructions","","instructions","186","1835673","0.0-92.0-0.0","0","0","Aefo0","Scenes","[{""page_index"":0,""viewing_time"":40052},{""page_index"":1,""viewing_time"":39561},{""page_index"":2,""viewing_time"":2957}]","82572","","","","","","","","","","","","","","","","","","","","","","","","","","","","","","","","","","","","","","","","","","","","","","",""
"","reward_comprehension_check","","survey-multi-choice","187","1863698","0.0-92.0-1.0","0","0","Aefo0","Scenes","","28015","{""Q0"":""True"",""Q1"":""True"",""Q2"":""Press the space bar to see its outcome"",""Q3"":""Press the relevant key while the outcome is presented""}","0","","","","","","","","","","","","","","","","","","","","","","","","","","","","","","","","","","","","","","","","","","","","",""
"","start_phase","","html-keyboard-response","188","1867181","0.0-93.0","0","0","Aefo0","Scenes","","3472","","","78","","","","","","","","","","","","","","","","","","","","","","","","","","","","","","","","","","","","","","","","","","","",""
"","fixation","","html-keyboard-response","189","1868209","0.0-94.0","0","0","Aefo0","Scenes","","null","","","null","","","","","","","","","","","","","","","","","","","","","","","","","","","","","","","","","","","","","","","","","","","",""
"","see_reward","","html-keyboard-response","190","1870168","0.0-95.0","0","0","Aefo0","Scenes","","1952","","","32","","137","","0","","","","1","","","","","1","","","","","152","1952","","","","","","","","","","","","","","","","","","","","","","","","",""
"","reward_outcome","","html-keyboard-response","191","1872178","0.0-96.0","0","0","Aefo0","Scenes","","null","","","null","","137","","0","","","","","","","","","","","","","","","","NaN","null","","","","","","","","","","","","","","","","","","","","","","",""
"","respond_faster","","html-keyboard-response","192","1873692","0.0-97.0-0.0","1","0","Aefo0","Scenes","","null","","","null","","","","","","","","","","","","","","","","","","","","","","","","","","","","","","","","","","","","","","","","","","","",""
"","fixation","","html-keyboard-response","193","1874713","0.0-99.0","0","0","Aefo0","Scenes","","null","","","null","","","","","","","","","","","","","","","","","","","","","","","","","","","","","","","","","","","","","","","","","","","",""
"","see_reward","","html-keyboard-response","194","1876114","0.0-100.0","0","0","Aefo0","Scenes","","1393","","","32","","123","","1","","","","-1","","","","","1","","","","","0","1393","","","","","","","","","","","","","","","","","","","","","","","","",""
"","reward_outcome","","html-keyboard-response","195","1878129","0.0-101.0","0","0","Aefo0","Scenes","","1323","","","40","","123","","1","","","","","","","","","","","","","","","","-1","1323","","","","","","","","","","","","","","","","","","","","","","",""
"","fixation","","html-keyboard-response","196","1879185","0.0-104.0","0","0","Aefo0","Scenes","","null","","","null","","","","","","","","","","","","","","","","","","","","","","","","","","","","","","","","","","","","","","","","","","","",""
"","see_reward","","html-keyboard-response","197","1880772","0.0-105.0","0","0","Aefo0","Scenes","","1580","","","32","","107","","2","","","","1","","","","","1","","","","","141","1580","","","","","","","","","","","","","","","","","","","","","","","","",""
"","reward_outcome","","html-keyboard-response","198","1882814","0.0-106.0","0","0","Aefo0","Scenes","","1289","","","38","","107","","2","","","","","","","","","","","","","","","","1","1289","","","","","","","","","","","","","","","","","","","","","","",""
"","fixation","","html-keyboard-response","199","1883830","0.0-109.0","0","0","Aefo0","Scenes","","null","","","null","","","","","","","","","","","","","","","","","","","","","","","","","","","","","","","","","","","","","","","","","","","",""
"","see_reward","","html-keyboard-response","200","1885457","0.0-110.0","0","0","Aefo0","Scenes","","1618","","","32","","148","","3","","","","1","","","","","1","","","","","150","1618","","","","","","","","","","","","","","","","","","","","","","","","",""
"","reward_outcome","","html-keyboard-response","201","1887518","0.0-111.0","0","0","Aefo0","Scenes","","1215","","","40","","148","","3","","","","","","","","","","","","","","","","-1","1215","","","","","","","","","","","","","","","","","","","","","","",""
"","fixation","","html-keyboard-response","202","1888530","0.0-114.0","0","0","Aefo0","Scenes","","null","","","null","","","","","","","","","","","","","","","","","","","","","","","","","","","","","","","","","","","","","","","","","","","",""
"","see_reward","","html-keyboard-response","203","1890173","0.0-115.0","0","0","Aefo0","Scenes","","1634","","","32","","135","","4","","","","1","","","","","1","","","","","148","1634","","","","","","","","","","","","","","","","","","","","","","","","",""
"","reward_outcome","","html-keyboard-response","204","1892189","0.0-116.0","0","0","Aefo0","Scenes","","1546","","","38","","135","","4","","","","","","","","","","","","","","","","1","1546","","","","","","","","","","","","","","","","","","","","","","",""
"","fixation","","html-keyboard-response","205","1893231","0.0-119.0","0","0","Aefo0","Scenes","","null","","","null","","","","","","","","","","","","","","","","","","","","","","","","","","","","","","","","","","","","","","","","","","","",""
"","see_reward","","html-keyboard-response","206","1894856","0.0-120.0","0","0","Aefo0","Scenes","","1612","","","32","","148","","5","","","","1","","","","","1","","","","","150","1612","","","","","","","","","","","","","","","","","","","","","","","","",""
"","reward_outcome","","html-keyboard-response","207","1896868","0.0-121.0","0","0","Aefo0","Scenes","","1180","","","38","","148","","5","","","","","","","","","","","","","","","","1","1180","","","","","","","","","","","","","","","","","","","","","","",""
"","fixation","","html-keyboard-response","208","1897875","0.0-124.0","0","0","Aefo0","Scenes","","null","","","null","","","","","","","","","","","","","","","","","","","","","","","","","","","","","","","","","","","","","","","","","","","",""
"","see_reward","","html-keyboard-response","209","1900836","0.0-125.0","0","0","Aefo0","Scenes","","2952","","","32","","147","","6","","","","-1","","","","","1","","","","","0","2952","","","","","","","","","","","","","","","","","","","","","","","","",""
"","reward_outcome","","html-keyboard-response","210","1902881","0.0-126.0","0","0","Aefo0","Scenes","","1081","","","40","","147","","6","","","","","","","","","","","","","","","","-1","1081","","","","","","","","","","","","","","","","","","","","","","",""
"","fixation","","html-keyboard-response","211","1903893","0.0-129.0","0","0","Aefo0","Scenes","","null","","","null","","","","","","","","","","","","","","","","","","","","","","","","","","","","","","","","","","","","","","","","","","","",""
"","see_reward","","html-keyboard-response","212","1905112","0.0-130.0","0","0","Aefo0","Scenes","","1214","","","32","","118","","7","","","","1","","","","","1","","","","","159","1214","","","","","","","","","","","","","","","","","","","","","","","","",""
"","reward_outcome","","html-keyboard-response","213","1907172","0.0-131.0","0","0","Aefo0","Scenes","","1108","","","38","","118","","7","","","","","","","","","","","","","","","","1","1108","","","","","","","","","","","","","","","","","","","","","","",""
"","fixation","","html-keyboard-response","214","1908459","0.0-134.0","0","0","Aefo0","Scenes","","null","","","null","","","","","","","","","","","","","","","","","","","","","","","","","","","","","","","","","","","","","","","","","","","",""
"","see_reward","","html-keyboard-response","215","1909559","0.0-135.0","0","0","Aefo0","Scenes","","1088","","","32","","145","","8","","","","-1","","","","","1","","","","","0","1088","","","","","","","","","","","","","","","","","","","","","","","","",""
"","reward_outcome","","html-keyboard-response","216","1911575","0.0-136.0","0","0","Aefo0","Scenes","","935","","","40","","145","","8","","","","","","","","","","","","","","","","-1","935","","","","","","","","","","","","","","","","","","","","","","",""
"","fixation","","html-keyboard-response","217","1912590","0.0-139.0","0","0","Aefo0","Scenes","","null","","","null","","","","","","","","","","","","","","","","","","","","","","","","","","","","","","","","","","","","","","","","","","","",""
"","see_reward","","html-keyboard-response","218","1914044","0.0-140.0","0","0","Aefo0","Scenes","","1450","","","32","","116","","9","","","","-1","","","","","1","","","","","0","1450","","","","","","","","","","","","","","","","","","","","","","","","",""
"","reward_outcome","","html-keyboard-response","219","1916091","0.0-141.0","0","0","Aefo0","Scenes","","988","","","40","","116","","9","","","","","","","","","","","","","","","","-1","988","","","","","","","","","","","","","","","","","","","","","","",""
"","fixation","","html-keyboard-response","220","1917116","0.0-144.0","0","0","Aefo0","Scenes","","null","","","null","","","","","","","","","","","","","","","","","","","","","","","","","","","","","","","","","","","","","","","","","","","",""
"","see_reward","","html-keyboard-response","221","1918311","0.0-145.0","0","0","Aefo0","Scenes","","1179","","","32","","112","","10","","","","1","","","","","1","","","","","144","1179","","","","","","","","","","","","","","","","","","","","","","","","",""
"","reward_outcome","","html-keyboard-response","222","1920333","0.0-146.0","0","0","Aefo0","Scenes","","795","","","38","","112","","10","","","","","","","","","","","","","","","","1","795","","","","","","","","","","","","","","","","","","","","","","",""
"","fixation","","html-keyboard-response","223","1921449","0.0-149.0","0","0","Aefo0","Scenes","","null","","","null","","","","","","","","","","","","","","","","","","","","","","","","","","","","","","","","","","","","","","","","","","","",""
"","see_reward","","html-keyboard-response","224","1922593","0.0-150.0","0","0","Aefo0","Scenes","","1125","","","32","","118","","11","","","","1","","","","","1","","","","","159","1125","","","","","","","","","","","","","","","","","","","","","","","","",""
"","reward_outcome","","html-keyboard-response","225","1924605","0.0-151.0","0","0","Aefo0","Scenes","","699","","","38","","118","","11","","","","","","","","","","","","","","","","1","699","","","","","","","","","","","","","","","","","","","","","","",""
"","fixation","","html-keyboard-response","226","1925635","0.0-154.0","0","0","Aefo0","Scenes","","null","","","null","","","","","","","","","","","","","","","","","","","","","","","","","","","","","","","","","","","","","","","","","","","",""
"","see_reward","","html-keyboard-response","227","1926914","0.0-155.0","0","0","Aefo0","Scenes","","1272","","","32","","123","","12","","","","-1","","","","","1","","","","","0","1272","","","","","","","","","","","","","","","","","","","","","","","","",""
"","reward_outcome","","html-keyboard-response","228","1928927","0.0-156.0","0","0","Aefo0","Scenes","","1023","","","40","","123","","12","","","","","","","","","","","","","","","","-1","1023","","","","","","","","","","","","","","","","","","","","","","",""
"","fixation","","html-keyboard-response","229","1929940","0.0-159.0","0","0","Aefo0","Scenes","","null","","","null","","","","","","","","","","","","","","","","","","","","","","","","","","","","","","","","","","","","","","","","","","","",""
"","see_reward","","html-keyboard-response","230","1931218","0.0-160.0","0","0","Aefo0","Scenes","","1273","","","32","","116","","13","","","","-1","","","","","1","","","","","0","1273","","","","","","","","","","","","","","","","","","","","","","","","",""
"","reward_outcome","","html-keyboard-response","231","1933285","0.0-161.0","0","0","Aefo0","Scenes","","667","","","40","","116","","13","","","","","","","","","","","","","","","","-1","667","","","","","","","","","","","","","","","","","","","","","","",""
"","fixation","","html-keyboard-response","232","1934448","0.0-164.0","0","0","Aefo0","Scenes","","null","","","null","","","","","","","","","","","","","","","","","","","","","","","","","","","","","","","","","","","","","","","","","","","",""
"","see_reward","","html-keyboard-response","233","1935281","0.0-165.0","0","0","Aefo0","Scenes","","760","","","32","","145","","14","","","","-1","","","","","1","","","","","0","760","","","","","","","","","","","","","","","","","","","","","","","","",""
"","reward_outcome","","html-keyboard-response","234","1937391","0.0-166.0","0","0","Aefo0","Scenes","","946","","","40","","145","","14","","","","","","","","","","","","","","","","-1","946","","","","","","","","","","","","","","","","","","","","","","",""
"","fixation","","html-keyboard-response","235","1938417","0.0-169.0","0","0","Aefo0","Scenes","","null","","","null","","","","","","","","","","","","","","","","","","","","","","","","","","","","","","","","","","","","","","","","","","","",""
"","see_reward","","html-keyboard-response","236","1939488","0.0-170.0","0","0","Aefo0","Scenes","","1066","","","32","","135","","15","","","","1","","","","","1","","","","","148","1066","","","","","","","","","","","","","","","","","","","","","","","","",""
"","reward_outcome","","html-keyboard-response","237","1941500","0.0-171.0","0","0","Aefo0","Scenes","","887","","","38","","135","","15","","","","","","","","","","","","","","","","1","887","","","","","","","","","","","","","","","","","","","","","","",""
"","fixation","","html-keyboard-response","238","1942506","0.0-174.0","0","0","Aefo0","Scenes","","null","","","null","","","","","","","","","","","","","","","","","","","","","","","","","","","","","","","","","","","","","","","","","","","",""
"","see_reward","","html-keyboard-response","239","1943782","0.0-175.0","0","0","Aefo0","Scenes","","1258","","","32","","107","","16","","","","1","","","","","1","","","","","141","1258","","","","","","","","","","","","","","","","","","","","","","","","",""
"","reward_outcome","","html-keyboard-response","240","1945792","0.0-176.0","0","0","Aefo0","Scenes","","990","","","38","","107","","16","","","","","","","","","","","","","","","","1","990","","","","","","","","","","","","","","","","","","","","","","",""
"","fixation","","html-keyboard-response","241","1946817","0.0-179.0","0","0","Aefo0","Scenes","","null","","","null","","","","","","","","","","","","","","","","","","","","","","","","","","","","","","","","","","","","","","","","","","","",""
"","see_reward","","html-keyboard-response","242","1947705","0.0-180.0","0","0","Aefo0","Scenes","","882","","","32","","115","","17","","","","-1","","","","","1","","","","","0","882","","","","","","","","","","","","","","","","","","","","","","","","",""
"","reward_outcome","","html-keyboard-response","243","1949729","0.0-181.0","0","0","Aefo0","Scenes","","936","","","40","","115","","17","","","","","","","","","","","","","","","","-1","936","","","","","","","","","","","","","","","","","","","","","","",""
"","fixation","","html-keyboard-response","244","1950738","0.0-184.0","0","0","Aefo0","Scenes","","null","","","null","","","","","","","","","","","","","","","","","","","","","","","","","","","","","","","","","","","","","","","","","","","",""
"","see_reward","","html-keyboard-response","245","1951473","0.0-185.0","0","0","Aefo0","Scenes","","724","","","32","","115","","18","","","","-1","","","","","1","","","","","0","724","","","","","","","","","","","","","","","","","","","","","","","","",""
"","reward_outcome","","html-keyboard-response","246","1953485","0.0-186.0","0","0","Aefo0","Scenes","","696","","","40","","115","","18","","","","","","","","","","","","","","","","-1","696","","","","","","","","","","","","","","","","","","","","","","",""
"","fixation","","html-keyboard-response","247","1954512","0.0-189.0","0","0","Aefo0","Scenes","","null","","","null","","","","","","","","","","","","","","","","","","","","","","","","","","","","","","","","","","","","","","","","","","","",""
"","see_reward","","html-keyboard-response","248","1955693","0.0-190.0","0","0","Aefo0","Scenes","","1173","","","32","","147","","19","","","","-1","","","","","1","","","","","0","1173","","","","","","","","","","","","","","","","","","","","","","","","",""
"","reward_outcome","","html-keyboard-response","249","1957699","0.0-191.0","0","0","Aefo0","Scenes","","852","","","40","","147","","19","","","","","","","","","","","","","","","","-1","852","","","","","","","","","","","","","","","","","","","","","","",""
"","fixation","","html-keyboard-response","250","1958885","0.0-194.0","0","0","Aefo0","Scenes","","null","","","null","","","","","","","","","","","","","","","","","","","","","","","","","","","","","","","","","","","","","","","","","","","",""
"","see_reward","","html-keyboard-response","251","1959687","0.0-195.0","0","0","Aefo0","Scenes","","794","","","32","","112","","20","","","","1","","","","","1","","","","","144","794","","","","","","","","","","","","","","","","","","","","","","","","",""
"","reward_outcome","","html-keyboard-response","252","1961697","0.0-196.0","0","0","Aefo0","Scenes","","917","","","38","","112","","20","","","","","","","","","","","","","","","","1","917","","","","","","","","","","","","","","","","","","","","","","",""
"","fixation","","html-keyboard-response","253","1962706","0.0-199.0","0","0","Aefo0","Scenes","","null","","","null","","","","","","","","","","","","","","","","","","","","","","","","","","","","","","","","","","","","","","","","","","","",""
"","see_reward","","html-keyboard-response","254","1963546","0.0-200.0","0","0","Aefo0","Scenes","","822","","","32","","109","","21","","","","-1","","","","","1","","","","","0","822","","","","","","","","","","","","","","","","","","","","","","","","",""
"","reward_outcome","","html-keyboard-response","255","1965566","0.0-201.0","0","0","Aefo0","Scenes","","790","","","40","","109","","21","","","","","","","","","","","","","","","","-1","790","","","","","","","","","","","","","","","","","","","","","","",""
"","fixation","","html-keyboard-response","256","1966582","0.0-204.0","0","0","Aefo0","Scenes","","null","","","null","","","","","","","","","","","","","","","","","","","","","","","","","","","","","","","","","","","","","","","","","","","",""
"","see_reward","","html-keyboard-response","257","1967541","0.0-205.0","0","0","Aefo0","Scenes","","954","","","32","","137","","22","","","","1","","","","","1","","","","","152","954","","","","","","","","","","","","","","","","","","","","","","","","",""
"","reward_outcome","","html-keyboard-response","258","1969592","0.0-206.0","0","0","Aefo0","Scenes","","771","","","38","","137","","22","","","","","","","","","","","","","","","","1","771","","","","","","","","","","","","","","","","","","","","","","",""
"","fixation","","html-keyboard-response","259","1970613","0.0-209.0","0","0","Aefo0","Scenes","","null","","","null","","","","","","","","","","","","","","","","","","","","","","","","","","","","","","","","","","","","","","","","","","","",""
"","see_reward","","html-keyboard-response","260","1971530","0.0-210.0","0","0","Aefo0","Scenes","","913","","","32","","109","","23","","","","-1","","","","","1","","","","","0","913","","","","","","","","","","","","","","","","","","","","","","","","",""
"","reward_outcome","","html-keyboard-response","261","1973539","0.0-211.0","0","0","Aefo0","Scenes","","938","","","40","","109","","23","","","","","","","","","","","","","","","","-1","938","","","","","","","","","","","","","","","","","","","","","","",""
"","block_over","","html-keyboard-response","262","1977770","0.0-213.0-0.0","0","0","Aefo0","Scenes","","4227","","","78","","","","","","","","","","","","","","","","","","","","","","","","","","","","","","","","","","","","","","","","","","","",""
"","fixation","","html-keyboard-response","263","1978805","0.0-214.0","0","0","Aefo0","Scenes","","null","","","null","","","","","","","","","","","","","","","","","","","","","","","","","","","","","","","","","","","","","","","","","","","",""
"","see_reward","","html-keyboard-response","264","1981294","0.0-215.0","0","0","Aefo0","Scenes","","2480","","","32","","112","","24","","","","1","","","","","2","","","","","144","2480","","","","","","","","","","","","","","","","","","","","","","","","",""
"","reward_outcome","","html-keyboard-response","265","1983308","0.0-216.0","0","0","Aefo0","Scenes","","1111","","","38","","112","","24","","","","","","","","","","","","","","","","1","1111","","","","","","","","","","","","","","","","","","","","","","",""
"","fixation","","html-keyboard-response","266","1984318","0.0-219.0","0","0","Aefo0","Scenes","","null","","","null","","","","","","","","","","","","","","","","","","","","","","","","","","","","","","","","","","","","","","","","","","","",""
"","see_reward","","html-keyboard-response","267","1985324","0.0-220.0","0","0","Aefo0","Scenes","","1001","","","32","","112","","25","","","","1","","","","","2","","","","","144","1001","","","","","","","","","","","","","","","","","","","","","","","","",""
"","reward_outcome","","html-keyboard-response","268","1987353","0.0-221.0","0","0","Aefo0","Scenes","","652","","","38","","112","","25","","","","","","","","","","","","","","","","1","652","","","","","","","","","","","","","","","","","","","","","","",""
"","fixation","","html-keyboard-response","269","1988376","0.0-224.0","0","0","Aefo0","Scenes","","null","","","null","","","","","","","","","","","","","","","","","","","","","","","","","","","","","","","","","","","","","","","","","","","",""
"","see_reward","","html-keyboard-response","270","1989056","0.0-225.0","0","0","Aefo0","Scenes","","667","","","32","","135","","26","","","","1","","","","","2","","","","","148","667","","","","","","","","","","","","","","","","","","","","","","","","",""
"","reward_outcome","","html-keyboard-response","271","1991069","0.0-226.0","0","0","Aefo0","Scenes","","735","","","38","","135","","26","","","","","","","","","","","","","","","","1","735","","","","","","","","","","","","","","","","","","","","","","",""
"","fixation","","html-keyboard-response","272","1992470","0.0-229.0","0","0","Aefo0","Scenes","","null","","","null","","","","","","","","","","","","","","","","","","","","","","","","","","","","","","","","","","","","","","","","","","","",""
"","see_reward","","html-keyboard-response","273","1993373","0.0-230.0","0","0","Aefo0","Scenes","","895","","","32","","148","","27","","","","1","","","","","2","","","","","150","895","","","","","","","","","","","","","","","","","","","","","","","","",""
"","reward_outcome","","html-keyboard-response","274","1995380","0.0-231.0","0","0","Aefo0","Scenes","","780","","","38","","148","","27","","","","","","","","","","","","","","","","1","780","","","","","","","","","","","","","","","","","","","","","","",""
"","fixation","","html-keyboard-response","275","1996436","0.0-234.0","0","0","Aefo0","Scenes","","null","","","null","","","","","","","","","","","","","","","","","","","","","","","","","","","","","","","","","","","","","","","","","","","",""
"","see_reward","","html-keyboard-response","276","1997284","0.0-235.0","0","0","Aefo0","Scenes","","845","","","32","","118","","28","","","","1","","","","","2","","","","","159","845","","","","","","","","","","","","","","","","","","","","","","","","",""
"","reward_outcome","","html-keyboard-response","277","1999299","0.0-236.0","0","0","Aefo0","Scenes","","857","","","38","","118","","28","","","","","","","","","","","","","","","","1","857","","","","","","","","","","","","","","","","","","","","","","",""
"","fixation","","html-keyboard-response","278","2000375","0.0-239.0","0","0","Aefo0","Scenes","","null","","","null","","","","","","","","","","","","","","","","","","","","","","","","","","","","","","","","","","","","","","","","","","","",""
"","see_reward","","html-keyboard-response","279","2001141","0.0-240.0","0","0","Aefo0","Scenes","","752","","","32","","123","","29","","","","-1","","","","","2","","","","","0","752","","","","","","","","","","","","","","","","","","","","","","","","",""
"","reward_outcome","","html-keyboard-response","280","2003464","0.0-241.0","0","0","Aefo0","Scenes","","794","","","40","","123","","29","","","","","","","","","","","","","","","","-1","794","","","","","","","","","","","","","","","","","","","","","","",""
"","fixation","","html-keyboard-response","281","2004502","0.0-244.0","0","0","Aefo0","Scenes","","null","","","null","","","","","","","","","","","","","","","","","","","","","","","","","","","","","","","","","","","","","","","","","","","",""
"","see_reward","","html-keyboard-response","282","2005314","0.0-245.0","0","0","Aefo0","Scenes","","795","","","32","","145","","30","","","","-1","","","","","2","","","","","0","795","","","","","","","","","","","","","","","","","","","","","","","","",""
"","reward_outcome","","html-keyboard-response","283","2007602","0.0-246.0","0","0","Aefo0","Scenes","","700","","","40","","145","","30","","","","","","","","","","","","","","","","-1","700","","","","","","","","","","","","","","","","","","","","","","",""
"","fixation","","html-keyboard-response","284","2008610","0.0-249.0","0","0","Aefo0","Scenes","","null","","","null","","","","","","","","","","","","","","","","","","","","","","","","","","","","","","","","","","","","","","","","","","","",""
"","see_reward","","html-keyboard-response","285","2009352","0.0-250.0","0","0","Aefo0","Scenes","","736","","","32","","118","","31","","","","1","","","","","2","","","","","159","736","","","","","","","","","","","","","","","","","","","","","","","","",""
"","reward_outcome","","html-keyboard-response","286","2011362","0.0-251.0","0","0","Aefo0","Scenes","","633","","","38","","118","","31","","","","","","","","","","","","","","","","1","633","","","","","","","","","","","","","","","","","","","","","","",""
"","fixation","","html-keyboard-response","287","2012370","0.0-254.0","0","0","Aefo0","Scenes","","null","","","null","","","","","","","","","","","","","","","","","","","","","","","","","","","","","","","","","","","","","","","","","","","",""
"","see_reward","","html-keyboard-response","288","2013045","0.0-255.0","0","0","Aefo0","Scenes","","671","","","32","","115","","32","","","","-1","","","","","2","","","","","0","671","","","","","","","","","","","","","","","","","","","","","","","","",""
"","reward_outcome","","html-keyboard-response","289","2015197","0.0-256.0","0","0","Aefo0","Scenes","","802","","","40","","115","","32","","","","","","","","","","","","","","","","-1","802","","","","","","","","","","","","","","","","","","","","","","",""
"","fixation","","html-keyboard-response","290","2016287","0.0-259.0","0","0","Aefo0","Scenes","","null","","","null","","","","","","","","","","","","","","","","","","","","","","","","","","","","","","","","","","","","","","","","","","","",""
"","see_reward","","html-keyboard-response","291","2016911","0.0-260.0","0","0","Aefo0","Scenes","","622","","","32","","137","","33","","","","1","","","","","2","","","","","152","622","","","","","","","","","","","","","","","","","","","","","","","","",""
"","reward_outcome","","html-keyboard-response","292","2018923","0.0-261.0","0","0","Aefo0","Scenes","","615","","","38","","137","","33","","","","","","","","","","","","","","","","1","615","","","","","","","","","","","","","","","","","","","","","","",""
"","fixation","","html-keyboard-response","293","2020019","0.0-264.0","0","0","Aefo0","Scenes","","null","","","null","","","","","","","","","","","","","","","","","","","","","","","","","","","","","","","","","","","","","","","","","","","",""
"","see_reward","","html-keyboard-response","294","2020699","0.0-265.0","0","0","Aefo0","Scenes","","668","","","32","","145","","34","","","","-1","","","","","2","","","","","0","668","","","","","","","","","","","","","","","","","","","","","","","","",""
"","reward_outcome","","html-keyboard-response","295","2022739","0.0-266.0","0","0","Aefo0","Scenes","","628","","","40","","145","","34","","","","","","","","","","","","","","","","-1","628","","","","","","","","","","","","","","","","","","","","","","",""
"","fixation","","html-keyboard-response","296","2024042","0.0-269.0","0","0","Aefo0","Scenes","","null","","","null","","","","","","","","","","","","","","","","","","","","","","","","","","","","","","","","","","","","","","","","","","","",""
"","see_reward","","html-keyboard-response","297","2026496","0.0-270.0","0","0","Aefo0","Scenes","","2444","","","32","","107","","35","","","","1","","","","","2","","","","","141","2444","","","","","","","","","","","","","","","","","","","","","","","","",""
"","reward_outcome","","html-keyboard-response","298","2028540","0.0-271.0","0","0","Aefo0","Scenes","","799","","","38","","107","","35","","","","","","","","","","","","","","","","1","799","","","","","","","","","","","","","","","","","","","","","","",""
"","fixation","","html-keyboard-response","299","2029548","0.0-274.0","0","0","Aefo0","Scenes","","null","","","null","","","","","","","","","","","","","","","","","","","","","","","","","","","","","","","","","","","","","","","","","","","",""
"","see_reward","","html-keyboard-response","300","2030430","0.0-275.0","0","0","Aefo0","Scenes","","863","","","32","","109","","36","","","","-1","","","","","2","","","","","0","863","","","","","","","","","","","","","","","","","","","","","","","","",""
"","reward_outcome","","html-keyboard-response","301","2032446","0.0-276.0","0","0","Aefo0","Scenes","","807","","","40","","109","","36","","","","","","","","","","","","","","","","-1","807","","","","","","","","","","","","","","","","","","","","","","",""
"","fixation","","html-keyboard-response","302","2033495","0.0-279.0","0","0","Aefo0","Scenes","","null","","","null","","","","","","","","","","","","","","","","","","","","","","","","","","","","","","","","","","","","","","","","","","","",""
"","see_reward","","html-keyboard-response","303","2035005","0.0-280.0","0","0","Aefo0","Scenes","","1486","","","32","","148","","37","","","","1","","","","","2","","","","","150","1486","","","","","","","","","","","","","","","","","","","","","","","","",""
"","reward_outcome","","html-keyboard-response","304","2037124","0.0-281.0","0","0","Aefo0","Scenes","","781","","","38","","148","","37","","","","","","","","","","","","","","","","1","781","","","","","","","","","","","","","","","","","","","","","","",""
"","fixation","","html-keyboard-response","305","2038132","0.0-284.0","0","0","Aefo0","Scenes","","null","","","null","","","","","","","","","","","","","","","","","","","","","","","","","","","","","","","","","","","","","","","","","","","",""
"","see_reward","","html-keyboard-response","306","2049970","0.0-285.0","0","0","Aefo0","Scenes","","11819","","","32","","123","","38","","","","-1","","","","","2","","","","","0","11819","","","","","","","","","","","","","","","","","","","","","","","","",""
"","reward_outcome","","html-keyboard-response","307","2051985","0.0-286.0","0","0","Aefo0","Scenes","","981","","","40","","123","","38","","","","","","","","","","","","","","","","-1","981","","","","","","","","","","","","","","","","","","","","","","",""
"","fixation","","html-keyboard-response","308","2053001","0.0-289.0","0","0","Aefo0","Scenes","","null","","","null","","","","","","","","","","","","","","","","","","","","","","","","","","","","","","","","","","","","","","","","","","","",""
"","see_reward","","html-keyboard-response","309","2054044","0.0-290.0","0","0","Aefo0","Scenes","","1030","","","32","","116","","39","","","","-1","","","","","2","","","","","0","1030","","","","","","","","","","","","","","","","","","","","","","","","",""
"","reward_outcome","","html-keyboard-response","310","2056052","0.0-291.0","0","0","Aefo0","Scenes","","583","","","40","","116","","39","","","","","","","","","","","","","","","","-1","583","","","","","","","","","","","","","","","","","","","","","","",""
"","fixation","","html-keyboard-response","311","2057066","0.0-294.0","0","0","Aefo0","Scenes","","null","","","null","","","","","","","","","","","","","","","","","","","","","","","","","","","","","","","","","","","","","","","","","","","",""
"","see_reward","","html-keyboard-response","312","2057904","0.0-295.0","0","0","Aefo0","Scenes","","825","","","32","","135","","40","","","","1","","","","","2","","","","","148","825","","","","","","","","","","","","","","","","","","","","","","","","",""
"","reward_outcome","","html-keyboard-response","313","2059913","0.0-296.0","0","0","Aefo0","Scenes","","774","","","38","","135","","40","","","","","","","","","","","","","","","","1","774","","","","","","","","","","","","","","","","","","","","","","",""
"","fixation","","html-keyboard-response","314","2060923","0.0-299.0","0","0","Aefo0","Scenes","","null","","","null","","","","","","","","","","","","","","","","","","","","","","","","","","","","","","","","","","","","","","","","","","","",""
"","see_reward","","html-keyboard-response","315","2061664","0.0-300.0","0","0","Aefo0","Scenes","","737","","","32","","115","","41","","","","-1","","","","","2","","","","","0","737","","","","","","","","","","","","","","","","","","","","","","","","",""
"","reward_outcome","","html-keyboard-response","316","2063680","0.0-301.0","0","0","Aefo0","Scenes","","816","","","40","","115","","41","","","","","","","","","","","","","","","","-1","816","","","","","","","","","","","","","","","","","","","","","","",""
"","fixation","","html-keyboard-response","317","2064699","0.0-304.0","0","0","Aefo0","Scenes","","null","","","null","","","","","","","","","","","","","","","","","","","","","","","","","","","","","","","","","","","","","","","","","","","",""
"","see_reward","","html-keyboard-response","318","2065760","0.0-305.0","0","0","Aefo0","Scenes","","1049","","","32","","109","","42","","","","-1","","","","","2","","","","","0","1049","","","","","","","","","","","","","","","","","","","","","","","","",""
"","reward_outcome","","html-keyboard-response","319","2067773","0.0-306.0","0","0","Aefo0","Scenes","","660","","","40","","109","","42","","","","","","","","","","","","","","","","-1","660","","","","","","","","","","","","","","","","","","","","","","",""
"","fixation","","html-keyboard-response","320","2068790","0.0-309.0","0","0","Aefo0","Scenes","","null","","","null","","","","","","","","","","","","","","","","","","","","","","","","","","","","","","","","","","","","","","","","","","","",""
"","see_reward","","html-keyboard-response","321","2069813","0.0-310.0","0","0","Aefo0","Scenes","","1019","","","32","","147","","43","","","","-1","","","","","2","","","","","0","1019","","","","","","","","","","","","","","","","","","","","","","","","",""
"","reward_outcome","","html-keyboard-response","322","2071842","0.0-311.0","0","0","Aefo0","Scenes","","826","","","38","","147","","43","","","","","","","","","","","","","","","","1","826","","","","","","","","","","","","","","","","","","","","","","",""
"","fixation","","html-keyboard-response","323","2072853","0.0-314.0","0","0","Aefo0","Scenes","","null","","","null","","","","","","","","","","","","","","","","","","","","","","","","","","","","","","","","","","","","","","","","","","","",""
"","see_reward","","html-keyboard-response","324","2073733","0.0-315.0","0","0","Aefo0","Scenes","","864","","","32","","107","","44","","","","1","","","","","2","","","","","141","864","","","","","","","","","","","","","","","","","","","","","","","","",""
"","reward_outcome","","html-keyboard-response","325","2075756","0.0-316.0","0","0","Aefo0","Scenes","","789","","","38","","107","","44","","","","","","","","","","","","","","","","1","789","","","","","","","","","","","","","","","","","","","","","","",""
"","fixation","","html-keyboard-response","326","2076776","0.0-319.0","0","0","Aefo0","Scenes","","null","","","null","","","","","","","","","","","","","","","","","","","","","","","","","","","","","","","","","","","","","","","","","","","",""
"","see_reward","","html-keyboard-response","327","2077755","0.0-320.0","0","0","Aefo0","Scenes","","972","","","32","","147","","45","","","","-1","","","","","2","","","","","0","972","","","","","","","","","","","","","","","","","","","","","","","","",""
"","reward_outcome","","html-keyboard-response","328","2079897","0.0-321.0","0","0","Aefo0","Scenes","","619","","","40","","147","","45","","","","","","","","","","","","","","","","-1","619","","","","","","","","","","","","","","","","","","","","","","",""
"","fixation","","html-keyboard-response","329","2081037","0.0-324.0","0","0","Aefo0","Scenes","","null","","","null","","","","","","","","","","","","","","","","","","","","","","","","","","","","","","","","","","","","","","","","","","","",""
"","see_reward","","html-keyboard-response","330","2082086","0.0-325.0","0","0","Aefo0","Scenes","","1042","","","32","","116","","46","","","","-1","","","","","2","","","","","0","1042","","","","","","","","","","","","","","","","","","","","","","","","",""
"","reward_outcome","","html-keyboard-response","331","2084097","0.0-326.0","0","0","Aefo0","Scenes","","573","","","40","","116","","46","","","","","","","","","","","","","","","","-1","573","","","","","","","","","","","","","","","","","","","","","","",""
"","fixation","","html-keyboard-response","332","2085114","0.0-329.0","0","0","Aefo0","Scenes","","null","","","null","","","","","","","","","","","","","","","","","","","","","","","","","","","","","","","","","","","","","","","","","","","",""
"","see_reward","","html-keyboard-response","333","2086019","0.0-330.0","0","0","Aefo0","Scenes","","881","","","32","","137","","47","","","","1","","","","","2","","","","","152","881","","","","","","","","","","","","","","","","","","","","","","","","",""
"","reward_outcome","","html-keyboard-response","334","2088028","0.0-331.0","0","0","Aefo0","Scenes","","496","","","38","","137","","47","","","","","","","","","","","","","","","","1","496","","","","","","","","","","","","","","","","","","","","","","",""
"","block_over","","html-keyboard-response","335","2091449","0.0-333.0-0.0","0","0","Aefo0","Scenes","","3407","","","78","","","","","","","","","","","","","","","","","","","","","","","","","","","","","","","","","","","","","","","","","","","",""
"","fixation","","html-keyboard-response","336","2092461","0.0-334.0","0","0","Aefo0","Scenes","","null","","","null","","","","","","","","","","","","","","","","","","","","","","","","","","","","","","","","","","","","","","","","","","","",""
"","see_reward","","html-keyboard-response","337","2094556","0.0-335.0","0","0","Aefo0","Scenes","","2089","","","32","","112","","48","","","","1","","","","","3","","","","","144","2089","","","","","","","","","","","","","","","","","","","","","","","","",""
"","reward_outcome","","html-keyboard-response","338","2096580","0.0-336.0","0","0","Aefo0","Scenes","","535","","","38","","112","","48","","","","","","","","","","","","","","","","1","535","","","","","","","","","","","","","","","","","","","","","","",""
"","fixation","","html-keyboard-response","339","2097698","0.0-339.0","0","0","Aefo0","Scenes","","null","","","null","","","","","","","","","","","","","","","","","","","","","","","","","","","","","","","","","","","","","","","","","","","",""
"","see_reward","","html-keyboard-response","340","2097771","0.0-340.0","0","0","Aefo0","Scenes","","70","","","32","","118","","49","","","","1","","","","","3","","","","","159","70","","","","","","","","","","","","","","","","","","","","","","","","",""
"","reward_outcome","","html-keyboard-response","341","2099787","0.0-341.0","0","0","Aefo0","Scenes","","1016","","","38","","118","","49","","","","","","","","","","","","","","","","1","1016","","","","","","","","","","","","","","","","","","","","","","",""
"","fixation","","html-keyboard-response","342","2100797","0.0-344.0","0","0","Aefo0","Scenes","","null","","","null","","","","","","","","","","","","","","","","","","","","","","","","","","","","","","","","","","","","","","","","","","","",""
"","see_reward","","html-keyboard-response","343","2101605","0.0-345.0","0","0","Aefo0","Scenes","","797","","","32","","145","","50","","","","-1","","","","","3","","","","","0","797","","","","","","","","","","","","","","","","","","","","","","","","",""
"","reward_outcome","","html-keyboard-response","344","2103610","0.0-346.0","0","0","Aefo0","Scenes","","918","","","40","","145","","50","","","","","","","","","","","","","","","","-1","918","","","","","","","","","","","","","","","","","","","","","","",""
"","fixation","","html-keyboard-response","345","2104621","0.0-349.0","0","0","Aefo0","Scenes","","null","","","null","","","","","","","","","","","","","","","","","","","","","","","","","","","","","","","","","","","","","","","","","","","",""
"","see_reward","","html-keyboard-response","346","2106468","0.0-350.0","0","0","Aefo0","Scenes","","1842","","","32","","109","","51","","","","-1","","","","","3","","","","","0","1842","","","","","","","","","","","","","","","","","","","","","","","","",""
"","reward_outcome","","html-keyboard-response","347","2108498","0.0-351.0","0","0","Aefo0","Scenes","","912","","","40","","109","","51","","","","","","","","","","","","","","","","-1","912","","","","","","","","","","","","","","","","","","","","","","",""
"","fixation","","html-keyboard-response","348","2109519","0.0-354.0","0","0","Aefo0","Scenes","","null","","","null","","","","","","","","","","","","","","","","","","","","","","","","","","","","","","","","","","","","","","","","","","","",""
"","see_reward","","html-keyboard-response","349","2110414","0.0-355.0","0","0","Aefo0","Scenes","","886","","","32","","148","","52","","","","1","","","","","3","","","","","150","886","","","","","","","","","","","","","","","","","","","","","","","","",""
"","reward_outcome","","html-keyboard-response","350","2112424","0.0-356.0","0","0","Aefo0","Scenes","","512","","","38","","148","","52","","","","","","","","","","","","","","","","1","512","","","","","","","","","","","","","","","","","","","","","","",""
"","fixation","","html-keyboard-response","351","2113432","0.0-359.0","0","0","Aefo0","Scenes","","null","","","null","","","","","","","","","","","","","","","","","","","","","","","","","","","","","","","","","","","","","","","","","","","",""
"","see_reward","","html-keyboard-response","352","2114072","0.0-360.0","0","0","Aefo0","Scenes","","631","","","32","","107","","53","","","","1","","","","","3","","","","","141","631","","","","","","","","","","","","","","","","","","","","","","","","",""
