"success","ttype","start_time","trial_type","trial_index","time_elapsed","internal_node_id","warning","missed_checkup","PID","stim_type","view_history","rt","responses","category","repeat_instructions","key_press","response","stimulus_id","painting","index","stimulus_left","stimulus_right","explain_trial","reward_type","rating_left","rating_right","painting_left","painting_right","block","left_chosen","chosen_obj","unchosen_obj","explain_response","reward_amount","see_reward_rt","register_reward_response","register_reward_rt","deliberation_reward_tally","stimulus_left_deliberation_ind","stimulus_right_deliberation_ind","chosen_trial","gain_left","higher_outcome_chosen","old_pair","chosen_object","rt_pairs","left_object_chosen","rt_object","old_response","new_rating","deliberated_stim","initial_rating","outcome_eval_rt","outcome_eval_response","outcome_eval_gain","outcome_eval_acc","preamble","outcome_eval_confidence","outcome_eval_confidence_rt","total_reward_tally"
"true","full_screen","d01182023hr1711","fullscreen","0","68159","0.0-0.0","0","0","OgF5m","People","","","","","","","","","","","","","","","","","","","","","","","","","","","","","","","","","","","","","","","","","","","","","","","","","",""
"","rating_instructions","","instructions","1","108153","0.0-1.0-0.0","0","0","OgF5m","People","[{""page_index"":0,""viewing_time"":26015},{""page_index"":1,""viewing_time"":13978}]","39994","","","","","","","","","","","","","","","","","","","","","","","","","","","","","","","","","","","","","","","","","","","","","","","",""
"","","","survey-multi-choice","2","115666","0.0-1.0-1.0","0","0","OgF5m","People","","7510","{""Q0"":""True"",""Q1"":""Mouse""}","rating_comprehension_check","0","","","","","","","","","","","","","","","","","","","","","","","","","","","","","","","","","","","","","","","","","","","","",""
"","start_phase","","html-keyboard-response","3","119366","0.0-2.0","0","0","OgF5m","People","","3699","","","","78","","","","","","","","","","","","","","","","","","","","","","","","","","","","","","","","","","","","","","","","","","","",""
"","rating","","html-slider-response","4","124249","0.0-3.0","0","0","OgF5m","People","","4881","","","","","78","42","prince-akachi-l3IHXOdMyHQ-unsplash.jpg","0","","","","","","","","","","","","","","","","","","","","","","","","","","","","","","","","","","","","","","","",""
"","rating","","html-slider-response","5","130095","0.0-4.0","0","0","OgF5m","People","","5845","","","","","39","9","carlos-andres-gomez-vJuk8Y86mRw-unsplash.jpg","1","","","","","","","","","","","","","","","","","","","","","","","","","","","","","","","","","","","","","","","",""
"","rating","","html-slider-response","6","134899","0.0-5.0","0","0","OgF5m","People","","4803","","","","","17","4","barna-bartis-2x3vfVxwR7o-unsplash.jpg","2","","","","","","","","","","","","","","","","","","","","","","","","","","","","","","","","","","","","","","","",""
"","rating","","html-slider-response","7","140756","0.0-6.0","0","0","OgF5m","People","","5856","","","","","54","39","philip-martin-5aGUyCW_PJw-unsplash.jpg","3","","","","","","","","","","","","","","","","","","","","","","","","","","","","","","","","","","","","","","","",""
"","rating","","html-slider-response","8","149854","0.0-7.0","0","0","OgF5m","People","","9097","","","","","42","31","mathilda-khoo-vLR0YP_otCo-unsplash.jpg","4","","","","","","","","","","","","","","","","","","","","","","","","","","","","","","","","","","","","","","","",""
"","rating","","html-slider-response","9","158369","0.0-8.0","0","0","OgF5m","People","","8513","","","","","64","21","jessica-felicio-_cvwXhGqG-o-unsplash.jpg","5","","","","","","","","","","","","","","","","","","","","","","","","","","","","","","","","","","","","","","","",""
"","rating","","html-slider-response","10","161935","0.0-9.0","0","0","OgF5m","People","","3565","","","","","88","24","joel-mott-LaK153ghdig-unsplash.jpg","6","","","","","","","","","","","","","","","","","","","","","","","","","","","","","","","","","","","","","","","",""
"","rating","","html-slider-response","11","164862","0.0-10.0","0","0","OgF5m","People","","2927","","","","","16","43","raamin-ka-0qJBEzudn5E-unsplash.jpg","7","","","","","","","","","","","","","","","","","","","","","","","","","","","","","","","","","","","","","","","",""
"","rating","","html-slider-response","12","168807","0.0-11.0","0","0","OgF5m","People","","3943","","","","","55","37","pavel-anoshin-d0peGya6R5Y-unsplash.jpg","8","","","","","","","","","","","","","","","","","","","","","","","","","","","","","","","","","","","","","","","",""
"","rating","","html-slider-response","13","172051","0.0-12.0","0","0","OgF5m","People","","3243","","","","","84","38","petr-sevcovic-HzDF-rxlSeM-unsplash.jpg","9","","","","","","","","","","","","","","","","","","","","","","","","","","","","","","","","","","","","","","","",""
"","rating","","html-slider-response","14","179601","0.0-13.0","0","0","OgF5m","People","","7549","","","","","63","17","gleb-lukomets-paBzWCPN23k-unsplash.jpg","10","","","","","","","","","","","","","","","","","","","","","","","","","","","","","","","","","","","","","","","",""
"","rating","","html-slider-response","15","184025","0.0-14.0","0","0","OgF5m","People","","4424","","","","","20","16","giano-currie-5-9YOsmf8IQ-unsplash.jpg","11","","","","","","","","","","","","","","","","","","","","","","","","","","","","","","","","","","","","","","","",""
"","rating","","html-slider-response","16","187548","0.0-15.0","0","0","OgF5m","People","","3521","","","","","79","5","batel-studio-ttSRjiYG_WM-unsplash.jpg","12","","","","","","","","","","","","","","","","","","","","","","","","","","","","","","","","","","","","","","","",""
"","rating","","html-slider-response","17","190611","0.0-16.0","0","0","OgF5m","People","","3062","","","","","73","14","freddy-kearney-o-ioeoATbIM-unsplash.jpg","13","","","","","","","","","","","","","","","","","","","","","","","","","","","","","","","","","","","","","","","",""
"","rating","","html-slider-response","18","194159","0.0-17.0","0","0","OgF5m","People","","3547","","","","","41","23","joanna-nix-walkup-H4fEMshfwTE-unsplash.jpg","14","","","","","","","","","","","","","","","","","","","","","","","","","","","","","","","","","","","","","","","",""
"","rating","","html-slider-response","19","198058","0.0-18.0","0","0","OgF5m","People","","3897","","","","","58","46","stefan-stefancik-QXevDflbl8A-unsplash.jpg","15","","","","","","","","","","","","","","","","","","","","","","","","","","","","","","","","","","","","","","","",""
"","rating","","html-slider-response","20","201741","0.0-19.0","0","0","OgF5m","People","","3683","","","","","41","33","olena-sergienko-0TSd6uCKTKc-unsplash.jpg","16","","","","","","","","","","","","","","","","","","","","","","","","","","","","","","","","","","","","","","","",""
"","rating","","html-slider-response","21","204545","0.0-20.0","0","0","OgF5m","People","","2803","","","","","55","47","tyler-nix-ZGa9d1a_4tA-unsplash.jpg","17","","","","","","","","","","","","","","","","","","","","","","","","","","","","","","","","","","","","","","","",""
"","rating","","html-slider-response","22","210816","0.0-21.0","0","0","OgF5m","People","","6269","","","","","11","28","justin-chen-J7Cf1Gch49E-unsplash.jpg","18","","","","","","","","","","","","","","","","","","","","","","","","","","","","","","","","","","","","","","","",""
"","rating","","html-slider-response","23","214838","0.0-22.0","0","0","OgF5m","People","","4021","","","","","33","2","arjunsyah-TBUA5KHJn6k-unsplash.jpg","19","","","","","","","","","","","","","","","","","","","","","","","","","","","","","","","","","","","","","","","",""
"","rating","","html-slider-response","24","221388","0.0-23.0","0","0","OgF5m","People","","6549","","","","","54","18","good-faces-xmSWVeGEnJw-unsplash.jpg","20","","","","","","","","","","","","","","","","","","","","","","","","","","","","","","","","","","","","","","","",""
"","rating","","html-slider-response","25","228576","0.0-24.0","0","0","OgF5m","People","","7187","","","","","63","12","daniel-rigdon-dXmXKPP2L4E-unsplash.jpg","21","","","","","","","","","","","","","","","","","","","","","","","","","","","","","","","","","","","","","","","",""
"","rating","","html-slider-response","26","238301","0.0-25.0","0","0","OgF5m","People","","9724","","","","","59","0","abstral-official-cyOKLSgkgCE-unsplash.jpg","22","","","","","","","","","","","","","","","","","","","","","","","","","","","","","","","","","","","","","","","",""
"","rating","","html-slider-response","27","241654","0.0-26.0","0","0","OgF5m","People","","3350","","","","","79","15","gabriel-silverio-u3WmDyKGsrY-unsplash.jpg","23","","","","","","","","","","","","","","","","","","","","","","","","","","","","","","","","","","","","","","","",""
"","rating","","html-slider-response","28","244515","0.0-27.0","0","0","OgF5m","People","","2858","","","","","38","19","ha-nguy-n-OFSQ6bHjFjs-unsplash.jpg","24","","","","","","","","","","","","","","","","","","","","","","","","","","","","","","","","","","","","","","","",""
"","rating","","html-slider-response","29","247497","0.0-28.0","0","0","OgF5m","People","","2981","","","","","35","3","art-hauntington-jzY0KRJopEI-unsplash.jpg","25","","","","","","","","","","","","","","","","","","","","","","","","","","","","","","","","","","","","","","","",""
"","rating","","html-slider-response","30","251015","0.0-29.0","0","0","OgF5m","People","","3518","","","","","70","8","bruce-dixon-3M9WJQVHzog-unsplash.jpg","26","","","","","","","","","","","","","","","","","","","","","","","","","","","","","","","","","","","","","","","",""
"","rating","","html-slider-response","31","254217","0.0-30.0","0","0","OgF5m","People","","3200","","","","","76","40","prince-akachi-4Yv84VgQkRM-unsplash.jpg","27","","","","","","","","","","","","","","","","","","","","","","","","","","","","","","","","","","","","","","","",""
"","rating","","html-slider-response","32","257366","0.0-31.0","0","0","OgF5m","People","","3148","","","","","27","49","vicky-hladynets-_gDoyVv5F4c-unsplash.jpg","28","","","","","","","","","","","","","","","","","","","","","","","","","","","","","","","","","","","","","","","",""
"","rating","","html-slider-response","33","261247","0.0-32.0","0","0","OgF5m","People","","3881","","","","","36","26","juri-gianfrancesco-9EZadYaMzk4-unsplash.jpg","29","","","","","","","","","","","","","","","","","","","","","","","","","","","","","","","","","","","","","","","",""
"","rating","","html-slider-response","34","264911","0.0-33.0","0","0","OgF5m","People","","3663","","","","","70","7","brooke-cagle-HRZUzoX1e6w-unsplash.jpg","30","","","","","","","","","","","","","","","","","","","","","","","","","","","","","","","","","","","","","","","",""
"","rating","","html-slider-response","35","268790","0.0-34.0","0","0","OgF5m","People","","3877","","","","","26","20","houcine-ncib-B4TjXnI0Y2c-unsplash.jpg","31","","","","","","","","","","","","","","","","","","","","","","","","","","","","","","","","","","","","","","","",""
"","rating","","html-slider-response","36","271712","0.0-35.0","0","0","OgF5m","People","","2921","","","","","76","6","ben-o-bro-C5XyLljkMrY-unsplash.jpg","32","","","","","","","","","","","","","","","","","","","","","","","","","","","","","","","","","","","","","","","",""
"","rating","","html-slider-response","37","275086","0.0-36.0","0","0","OgF5m","People","","3373","","","","","60","36","ospan-ali-mGdA2fzjWLo-unsplash.jpg","33","","","","","","","","","","","","","","","","","","","","","","","","","","","","","","","","","","","","","","","",""
"","rating","","html-slider-response","38","277978","0.0-37.0","0","0","OgF5m","People","","2891","","","","","78","41","prince-akachi-i2hoD-C2RUA-unsplash.jpg","34","","","","","","","","","","","","","","","","","","","","","","","","","","","","","","","","","","","","","","","",""
"","rating","","html-slider-response","39","280754","0.0-38.0","0","0","OgF5m","People","","2775","","","","","36","30","matheus-ferrero-pg_WCHWSdT8-unsplash.jpg","35","","","","","","","","","","","","","","","","","","","","","","","","","","","","","","","","","","","","","","","",""
"","rating","","html-slider-response","40","283376","0.0-39.0","0","0","OgF5m","People","","2620","","","","","32","1","aiony-haust-jmATI5Q_YgY-unsplash.jpg","36","","","","","","","","","","","","","","","","","","","","","","","","","","","","","","","","","","","","","","","",""
"","rating","","html-slider-response","41","286020","0.0-40.0","0","0","OgF5m","People","","2643","","","","","81","10","charles-etoroma-95UF6LXe-Lo-unsplash.jpg","37","","","","","","","","","","","","","","","","","","","","","","","","","","","","","","","","","","","","","","","",""
"","rating","","html-slider-response","42","288990","0.0-41.0","0","0","OgF5m","People","","2970","","","","","66","29","leilani-angel-K84vnnzxmTQ-unsplash.jpg","38","","","","","","","","","","","","","","","","","","","","","","","","","","","","","","","","","","","","","","","",""
"","rating","","html-slider-response","43","292775","0.0-42.0","0","0","OgF5m","People","","3783","","","","","62","48","velizar-ivanov-7ktP9yZA1g4-unsplash.jpg","39","","","","","","","","","","","","","","","","","","","","","","","","","","","","","","","","","","","","","","","",""
"","rating","","html-slider-response","44","295220","0.0-43.0","0","0","OgF5m","People","","2445","","","","","28","11","christian-ferrer-8vT-DgHZDG4-unsplash.jpg","40","","","","","","","","","","","","","","","","","","","","","","","","","","","","","","","","","","","","","","","",""
"","rating","","html-slider-response","45","300145","0.0-44.0","0","0","OgF5m","People","","4923","","","","","33","34","oliver-johnson-1TUIcKob7Zs-unsplash.jpg","41","","","","","","","","","","","","","","","","","","","","","","","","","","","","","","","","","","","","","","","",""
"","rating","","html-slider-response","46","304051","0.0-45.0","0","0","OgF5m","People","","3905","","","","","26","25","joseph-gonzalez-iFgRcqHznqg-unsplash.jpg","42","","","","","","","","","","","","","","","","","","","","","","","","","","","","","","","","","","","","","","","",""
"","rating","","html-slider-response","47","307198","0.0-46.0","0","0","OgF5m","People","","3147","","","","","61","45","sarah-noltner-pL5ZzPp1zqg-unsplash.jpg","43","","","","","","","","","","","","","","","","","","","","","","","","","","","","","","","","","","","","","","","",""
"","rating","","html-slider-response","48","309623","0.0-47.0","0","0","OgF5m","People","","2423","","","","","33","27","jurica-koletic-7YVZYZeITc8-unsplash.jpg","44","","","","","","","","","","","","","","","","","","","","","","","","","","","","","","","","","","","","","","","",""
"","rating","","html-slider-response","49","313399","0.0-48.0","0","0","OgF5m","People","","3774","","","","","64","13","erik-lucatero-d2MSDujJl2g-unsplash.jpg","45","","","","","","","","","","","","","","","","","","","","","","","","","","","","","","","","","","","","","","","",""
"","rating","","html-slider-response","50","317135","0.0-49.0","0","0","OgF5m","People","","3735","","","","","37","35","oliver-ragfelt-khV4fTy6-D8-unsplash.jpg","46","","","","","","","","","","","","","","","","","","","","","","","","","","","","","","","","","","","","","","","",""
"","rating","","html-slider-response","51","328141","0.0-50.0","0","0","OgF5m","People","","11005","","","","","65","32","nathan-dumlao-ger61_TX6oI-unsplash.jpg","47","","","","","","","","","","","","","","","","","","","","","","","","","","","","","","","","","","","","","","","",""
"","rating","","html-slider-response","52","332581","0.0-51.0","0","0","OgF5m","People","","4440","","","","","58","22","jessica-radanavong-mrYkTuAesKE-unsplash.jpg","48","","","","","","","","","","","","","","","","","","","","","","","","","","","","","","","","","","","","","","","",""
"","rating","","html-slider-response","53","336539","0.0-52.0","0","0","OgF5m","People","","3956","","","","","62","44","rikonavt-HQjfrvdTfak-unsplash.jpg","49","","","","","","","","","","","","","","","","","","","","","","","","","","","","","","","","","","","","","","","",""
"","deliberation_instructions","","instructions","54","444487","0.0-53.0-0.0","0","0","OgF5m","People","[{""page_index"":0,""viewing_time"":35866},{""page_index"":1,""viewing_time"":29003},{""page_index"":2,""viewing_time"":19983},{""page_index"":3,""viewing_time"":20436},{""page_index"":4,""viewing_time"":2658}]","107947","","","","","","","","","","","","","","","","","","","","","","","","","","","","","","","","","","","","","","","","","","","","","","","",""
"","","","survey-multi-choice","55","467306","0.0-53.0-1.0","0","0","OgF5m","People","","22816","{""Q0"":""True"",""Q1"":""True"",""Q2"":""Consider carefully and take your time (up to 10 seconds)"",""Q3"":""True"",""Q4"":""D""}","deliberation_comprehension_check","0","","","","","","","","","","","","","","","","","","","","","","","","","","","","","","","","","","","","","","","","","","","","",""
"","start_phase","","html-keyboard-response","56","469942","0.0-54.0","0","0","OgF5m","People","","2635","","","","78","","","","","","","","","","","","","","","","","","","","","","","","","","","","","","","","","","","","","","","","","","","",""
"","first_deliberation_block","","html-keyboard-response","57","472945","0.0-55.0","0","0","OgF5m","People","","3002","","","","78","","","","","","","","","","","","","","","","","","","","","","","","","","","","","","","","","","","","","","","","","","","",""
"","fixation","","html-keyboard-response","58","473959","0.0-56.0-0.0","0","0","OgF5m","People","","null","","","","null","","","","","","","","","","","","","","","","","","","","","","","","","","","","","","","","","","","","","","","","","","","",""
"","deliberation","","html-keyboard-response","59","475322","0.0-56.0-1.0","0","0","OgF5m","People","","1362","","","","75","","","","0","45","46","0","1","61","58","sarah-noltner-pL5ZzPp1zqg-unsplash.jpg","stefan-stefancik-QXevDflbl8A-unsplash.jpg","1","0","46","45","","","","","","","","","","","","","","","","","","","","","","","","","","","",""
"","choice_confirmation","","html-keyboard-response","60","475836","0.0-56.0-2.0-0.0","0","0","OgF5m","People","","null","","","","null","","","","0","45","46","","","","","","","","","","","","","","","","","","","","","","","","","","","","","","","","","","","","","",""
"","fixation","","html-keyboard-response","61","476842","0.0-57.0-0.0","0","0","OgF5m","People","","null","","","","null","","","","","","","","","","","","","","","","","","","","","","","","","","","","","","","","","","","","","","","","","","","",""
"","deliberation","","html-keyboard-response","62","478226","0.0-57.0-1.0","0","0","OgF5m","People","","1383","","","","68","","","","1","47","35","1","-1","55","37","tyler-nix-ZGa9d1a_4tA-unsplash.jpg","oliver-ragfelt-khV4fTy6-D8-unsplash.jpg","1","1","47","35","","","","","","","","","","","","","","","","","","","","","","","","","","","",""
"","choice_confirmation","","html-keyboard-response","63","478727","0.0-57.0-2.0-0.0","0","0","OgF5m","People","","null","","","","null","","","","1","47","35","","","","","","","","","","","","","","","","","","","","","","","","","","","","","","","","","","","","","",""
"","explain_trial","","survey-text","64","507502","0.0-57.0-5.0-0.0","0","0","OgF5m","People","","28773","{""Q0"":""It was just my first instinct. This photo stood out to me more""}","","","","","","","1","47","35","","","","","","","","","","","{""Q0"":""It was just my first instinct. This photo stood out to me more""}","","","","","","","","","","","","","","","","","","","","","","","","","","",""
"","fixation","","html-keyboard-response","65","508509","0.0-58.0-0.0","0","0","OgF5m","People","","null","","","","null","","","","","","","","","","","","","","","","","","","","","","","","","","","","","","","","","","","","","","","","","","","",""
"","deliberation","","html-keyboard-response","66","511594","0.0-58.0-1.0","0","0","OgF5m","People","","3085","","","","68","","","","2","37","22","1","-1","55","58","pavel-anoshin-d0peGya6R5Y-unsplash.jpg","jessica-radanavong-mrYkTuAesKE-unsplash.jpg","1","1","37","22","","","","","","","","","","","","","","","","","","","","","","","","","","","",""
"","choice_confirmation","","html-keyboard-response","67","512111","0.0-58.0-2.0-0.0","0","0","OgF5m","People","","null","","","","null","","","","2","37","22","","","","","","","","","","","","","","","","","","","","","","","","","","","","","","","","","","","","","",""
"","explain_trial","","survey-text","68","530547","0.0-58.0-5.0-0.0","0","0","OgF5m","People","","18436","{""Q0"":""I think the person in this photo looks more natural and it looks more candid""}","","","","","","","2","37","22","","","","","","","","","","","{""Q0"":""I think the person in this photo looks more natural and it looks more candid""}","","","","","","","","","","","","","","","","","","","","","","","","","","",""
"","fixation","","html-keyboard-response","69","531565","0.0-59.0-0.0","0","0","OgF5m","People","","null","","","","null","","","","","","","","","","","","","","","","","","","","","","","","","","","","","","","","","","","","","","","","","","","",""
"","deliberation","","html-keyboard-response","70","534070","0.0-59.0-1.0","0","0","OgF5m","People","","2504","","","","75","","","","3","48","19","1","-1","62","38","velizar-ivanov-7ktP9yZA1g4-unsplash.jpg","ha-nguy-n-OFSQ6bHjFjs-unsplash.jpg","1","0","19","48","","","","","","","","","","","","","","","","","","","","","","","","","","","",""
"","choice_confirmation","","html-keyboard-response","71","534589","0.0-59.0-2.0-0.0","0","0","OgF5m","People","","null","","","","null","","","","3","48","19","","","","","","","","","","","","","","","","","","","","","","","","","","","","","","","","","","","","","",""
"","explain_trial","","survey-text","72","563335","0.0-59.0-5.0-0.0","0","0","OgF5m","People","","28745","{""Q0"":""Again I think this photo looks more like a candid shot and I like that""}","","","","","","","3","48","19","","","","","","","","","","","{""Q0"":""Again I think this photo looks more like a candid shot and I like that""}","","","","","","","","","","","","","","","","","","","","","","","","","","",""
"","fixation","","html-keyboard-response","73","564344","0.0-60.0-0.0","0","0","OgF5m","People","","null","","","","null","","","","","","","","","","","","","","","","","","","","","","","","","","","","","","","","","","","","","","","","","","","",""
"","deliberation","","html-keyboard-response","74","567927","0.0-60.0-1.0","0","0","OgF5m","People","","3583","","","","68","","","","4","13","44","0","1","64","62","erik-lucatero-d2MSDujJl2g-unsplash.jpg","rikonavt-HQjfrvdTfak-unsplash.jpg","1","1","13","44","","","","","","","","","","","","","","","","","","","","","","","","","","","",""
"","choice_confirmation","","html-keyboard-response","75","568441","0.0-60.0-2.0-0.0","0","0","OgF5m","People","","null","","","","null","","","","4","13","44","","","","","","","","","","","","","","","","","","","","","","","","","","","","","","","","","","","","","",""
"","fixation","","html-keyboard-response","76","569459","0.0-61.0-0.0","0","0","OgF5m","People","","null","","","","null","","","","","","","","","","","","","","","","","","","","","","","","","","","","","","","","","","","","","","","","","","","",""
"","deliberation","","html-keyboard-response","77","573026","0.0-61.0-1.0","0","0","OgF5m","People","","3565","","","","75","","","","5","33","32","0","1","41","65","olena-sergienko-0TSd6uCKTKc-unsplash.jpg","nathan-dumlao-ger61_TX6oI-unsplash.jpg","1","0","32","33","","","","","","","","","","","","","","","","","","","","","","","","","","","",""
"","choice_confirmation","","html-keyboard-response","78","573541","0.0-61.0-2.0-0.0","0","0","OgF5m","People","","null","","","","null","","","","5","33","32","","","","","","","","","","","","","","","","","","","","","","","","","","","","","","","","","","","","","",""
"","fixation","","html-keyboard-response","79","574558","0.0-62.0-0.0","0","0","OgF5m","People","","null","","","","null","","","","","","","","","","","","","","","","","","","","","","","","","","","","","","","","","","","","","","","","","","","",""
"","deliberation","","html-keyboard-response","80","577529","0.0-62.0-1.0","0","0","OgF5m","People","","2970","","","","75","","","","6","36","21","0","1","60","64","ospan-ali-mGdA2fzjWLo-unsplash.jpg","jessica-felicio-_cvwXhGqG-o-unsplash.jpg","1","0","21","36","","","","","","","","","","","","","","","","","","","","","","","","","","","",""
"","choice_confirmation","","html-keyboard-response","81","578039","0.0-62.0-2.0-0.0","0","0","OgF5m","People","","null","","","","null","","","","6","36","21","","","","","","","","","","","","","","","","","","","","","","","","","","","","","","","","","","","","","",""
"","fixation","","html-keyboard-response","82","579059","0.0-63.0-0.0","0","0","OgF5m","People","","null","","","","null","","","","","","","","","","","","","","","","","","","","","","","","","","","","","","","","","","","","","","","","","","","",""
"","deliberation","","html-keyboard-response","83","581421","0.0-63.0-1.0","0","0","OgF5m","People","","2362","","","","75","","","","7","9","0","1","1","39","59","carlos-andres-gomez-vJuk8Y86mRw-unsplash.jpg","abstral-official-cyOKLSgkgCE-unsplash.jpg","1","0","0","9","","","","","","","","","","","","","","","","","","","","","","","","","","","",""
"","choice_confirmation","","html-keyboard-response","84","581935","0.0-63.0-2.0-0.0","0","0","OgF5m","People","","null","","","","null","","","","7","9","0","","","","","","","","","","","","","","","","","","","","","","","","","","","","","","","","","","","","","",""
"","explain_trial","","survey-text","85","614834","0.0-63.0-5.0-0.0","0","0","OgF5m","People","","32897","{""Q0"":""The person in this phot looks more natural and I just like the lighting more""}","","","","","","","7","9","0","","","","","","","","","","","{""Q0"":""The person in this phot looks more natural and I just like the lighting more""}","","","","","","","","","","","","","","","","","","","","","","","","","","",""
"","fixation","","html-keyboard-response","86","615848","0.0-64.0-0.0","0","0","OgF5m","People","","null","","","","null","","","","","","","","","","","","","","","","","","","","","","","","","","","","","","","","","","","","","","","","","","","",""
"","deliberation","","html-keyboard-response","87","619014","0.0-64.0-1.0","0","0","OgF5m","People","","3164","","","","68","","","","8","39","17","1","1","54","63","philip-martin-5aGUyCW_PJw-unsplash.jpg","gleb-lukomets-paBzWCPN23k-unsplash.jpg","1","1","39","17","","","","","","","","","","","","","","","","","","","","","","","","","","","",""
"","choice_confirmation","","html-keyboard-response","88","619526","0.0-64.0-2.0-0.0","0","0","OgF5m","People","","null","","","","null","","","","8","39","17","","","","","","","","","","","","","","","","","","","","","","","","","","","","","","","","","","","","","",""
"","explain_trial","","survey-text","89","665897","0.0-64.0-5.0-0.0","0","0","OgF5m","People","","46370","{""Q0"":""I like the background more. I feel like it makes me feel like I know him a little better""}","","","","","","","8","39","17","","","","","","","","","","","{""Q0"":""I like the background more. I feel like it makes me feel like I know him a little better""}","","","","","","","","","","","","","","","","","","","","","","","","","","",""
"","fixation","","html-keyboard-response","90","666912","0.0-65.0-0.0","0","0","OgF5m","People","","null","","","","null","","","","","","","","","","","","","","","","","","","","","","","","","","","","","","","","","","","","","","","","","","","",""
"","deliberation","","html-keyboard-response","91","670271","0.0-65.0-1.0","0","0","OgF5m","People","","3357","","","","68","","","","9","12","23","0","-1","63","41","daniel-rigdon-dXmXKPP2L4E-unsplash.jpg","joanna-nix-walkup-H4fEMshfwTE-unsplash.jpg","1","1","12","23","","","","","","","","","","","","","","","","","","","","","","","","","","","",""
"","choice_confirmation","","html-keyboard-response","92","670778","0.0-65.0-2.0-0.0","0","0","OgF5m","People","","null","","","","null","","","","9","12","23","","","","","","","","","","","","","","","","","","","","","","","","","","","","","","","","","","","","","",""
"","fixation","","html-keyboard-response","93","671796","0.0-66.0-0.0","0","0","OgF5m","People","","null","","","","null","","","","","","","","","","","","","","","","","","","","","","","","","","","","","","","","","","","","","","","","","","","",""
"","deliberation","","html-keyboard-response","94","674882","0.0-66.0-1.0","0","0","OgF5m","People","","3085","","","","68","","","","10","18","30","0","-1","54","36","good-faces-xmSWVeGEnJw-unsplash.jpg","matheus-ferrero-pg_WCHWSdT8-unsplash.jpg","1","1","18","30","","","","","","","","","","","","","","","","","","","","","","","","","","","",""
"","choice_confirmation","","html-keyboard-response","95","675396","0.0-66.0-2.0-0.0","0","0","OgF5m","People","","null","","","","null","","","","10","18","30","","","","","","","","","","","","","","","","","","","","","","","","","","","","","","","","","","","","","",""
"","fixation","","html-keyboard-response","96","676414","0.0-67.0-0.0","0","0","OgF5m","People","","null","","","","null","","","","","","","","","","","","","","","","","","","","","","","","","","","","","","","","","","","","","","","","","","","",""
"","deliberation","","html-keyboard-response","97","678691","0.0-67.0-1.0","0","0","OgF5m","People","","2277","","","","75","","","","11","26","31","1","-1","36","42","juri-gianfrancesco-9EZadYaMzk4-unsplash.jpg","mathilda-khoo-vLR0YP_otCo-unsplash.jpg","1","0","31","26","","","","","","","","","","","","","","","","","","","","","","","","","","","",""
"","choice_confirmation","","html-keyboard-response","98","679205","0.0-67.0-2.0-0.0","0","0","OgF5m","People","","null","","","","null","","","","11","26","31","","","","","","","","","","","","","","","","","","","","","","","","","","","","","","","","","","","","","",""
"","explain_trial","","survey-text","99","692949","0.0-67.0-5.0-0.0","0","0","OgF5m","People","","13742","{""Q0"":""This photo looks less fake and less staged to me ""}","","","","","","","11","26","31","","","","","","","","","","","{""Q0"":""This photo looks less fake and less staged to me ""}","","","","","","","","","","","","","","","","","","","","","","","","","","",""
"","practice_deliberation_again","","html-keyboard-response","100","697128","0.0-67.0-6.0-0.0","0","0","OgF5m","People","","4178","","","","78","","","","","","","","","","","","","","","","","","","","","","","","","","","","","","","","","","","","","","","","","","","",""
"","fixation","","html-keyboard-response","101","698144","0.0-68.0-0.0","0","0","OgF5m","People","","null","","","","null","","","","","","","","","","","","","","","","","","","","","","","","","","","","","","","","","","","","","","","","","","","",""
"","deliberation","","html-keyboard-response","102","699927","0.0-68.0-1.0","0","0","OgF5m","People","","1782","","","","68","","","","12","37","22","0","-1","55","58","pavel-anoshin-d0peGya6R5Y-unsplash.jpg","jessica-radanavong-mrYkTuAesKE-unsplash.jpg","2","1","37","22","","","","","","","","","","","","","","","","","","","","","","","","","","","",""
"","choice_confirmation","","html-keyboard-response","103","700433","0.0-68.0-2.0-0.0","0","0","OgF5m","People","","null","","","","null","","","","12","37","22","","","","","","","","","","","","","","","","","","","","","","","","","","","","","","","","","","","","","",""
"","fixation","","html-keyboard-response","104","701441","0.0-69.0-0.0","0","0","OgF5m","People","","null","","","","null","","","","","","","","","","","","","","","","","","","","","","","","","","","","","","","","","","","","","","","","","","","",""
"","deliberation","","html-keyboard-response","105","703191","0.0-69.0-1.0","0","0","OgF5m","People","","1749","","","","68","","","","13","39","17","0","1","54","63","philip-martin-5aGUyCW_PJw-unsplash.jpg","gleb-lukomets-paBzWCPN23k-unsplash.jpg","2","1","39","17","","","","","","","","","","","","","","","","","","","","","","","","","","","",""
"","choice_confirmation","","html-keyboard-response","106","703697","0.0-69.0-2.0-0.0","0","0","OgF5m","People","","null","","","","null","","","","13","39","17","","","","","","","","","","","","","","","","","","","","","","","","","","","","","","","","","","","","","",""
"","fixation","","html-keyboard-response","107","704714","0.0-70.0-0.0","0","0","OgF5m","People","","null","","","","null","","","","","","","","","","","","","","","","","","","","","","","","","","","","","","","","","","","","","","","","","","","",""
"","deliberation","","html-keyboard-response","108","706490","0.0-70.0-1.0","0","0","OgF5m","People","","1774","","","","75","","","","14","12","23","1","-1","63","41","daniel-rigdon-dXmXKPP2L4E-unsplash.jpg","joanna-nix-walkup-H4fEMshfwTE-unsplash.jpg","2","0","23","12","","","","","","","","","","","","","","","","","","","","","","","","","","","",""
"","choice_confirmation","","html-keyboard-response","109","706992","0.0-70.0-2.0-0.0","0","0","OgF5m","People","","null","","","","null","","","","14","12","23","","","","","","","","","","","","","","","","","","","","","","","","","","","","","","","","","","","","","",""
"","explain_trial","","survey-text","110","721950","0.0-70.0-5.0-0.0","0","0","OgF5m","People","","14956","{""Q0"":""This one looks more natural ""}","","","","","","","14","12","23","","","","","","","","","","","{""Q0"":""This one looks more natural ""}","","","","","","","","","","","","","","","","","","","","","","","","","","",""
"","fixation","","html-keyboard-response","111","722958","0.0-71.0-0.0","0","0","OgF5m","People","","null","","","","null","","","","","","","","","","","","","","","","","","","","","","","","","","","","","","","","","","","","","","","","","","","",""
"","deliberation","","html-keyboard-response","112","724383","0.0-71.0-1.0","0","0","OgF5m","People","","1424","","","","75","","","","15","26","31","0","-1","36","42","juri-gianfrancesco-9EZadYaMzk4-unsplash.jpg","mathilda-khoo-vLR0YP_otCo-unsplash.jpg","2","0","31","26","","","","","","","","","","","","","","","","","","","","","","","","","","","",""
"","choice_confirmation","","html-keyboard-response","113","724892","0.0-71.0-2.0-0.0","0","0","OgF5m","People","","null","","","","null","","","","15","26","31","","","","","","","","","","","","","","","","","","","","","","","","","","","","","","","","","","","","","",""
"","fixation","","html-keyboard-response","114","725899","0.0-72.0-0.0","0","0","OgF5m","People","","null","","","","null","","","","","","","","","","","","","","","","","","","","","","","","","","","","","","","","","","","","","","","","","","","",""
"","deliberation","","html-keyboard-response","115","727428","0.0-72.0-1.0","0","0","OgF5m","People","","1528","","","","75","","","","16","36","21","1","1","60","64","ospan-ali-mGdA2fzjWLo-unsplash.jpg","jessica-felicio-_cvwXhGqG-o-unsplash.jpg","2","0","21","36","","","","","","","","","","","","","","","","","","","","","","","","","","","",""
"","choice_confirmation","","html-keyboard-response","116","727945","0.0-72.0-2.0-0.0","0","0","OgF5m","People","","null","","","","null","","","","16","36","21","","","","","","","","","","","","","","","","","","","","","","","","","","","","","","","","","","","","","",""
"","explain_trial","","survey-text","117","755203","0.0-72.0-5.0-0.0","0","0","OgF5m","People","","27256","{""Q0"":""I like the color in this one and the cloudy stuff in front of her""}","","","","","","","16","36","21","","","","","","","","","","","{""Q0"":""I like the color in this one and the cloudy stuff in front of her""}","","","","","","","","","","","","","","","","","","","","","","","","","","",""
"","fixation","","html-keyboard-response","118","756208","0.0-73.0-0.0","0","0","OgF5m","People","","null","","","","null","","","","","","","","","","","","","","","","","","","","","","","","","","","","","","","","","","","","","","","","","","","",""
"","deliberation","","html-keyboard-response","119","757945","0.0-73.0-1.0","0","0","OgF5m","People","","1736","","","","68","","","","17","18","30","1","-1","54","36","good-faces-xmSWVeGEnJw-unsplash.jpg","matheus-ferrero-pg_WCHWSdT8-unsplash.jpg","2","1","18","30","","","","","","","","","","","","","","","","","","","","","","","","","","","",""
"","choice_confirmation","","html-keyboard-response","120","758456","0.0-73.0-2.0-0.0","0","0","OgF5m","People","","null","","","","null","","","","17","18","30","","","","","","","","","","","","","","","","","","","","","","","","","","","","","","","","","","","","","",""
"","explain_trial","","survey-text","121","783561","0.0-73.0-5.0-0.0","0","0","OgF5m","People","","25104","{""Q0"":""I think this person looks less staged""}","","","","","","","17","18","30","","","","","","","","","","","{""Q0"":""I think this person looks less staged""}","","","","","","","","","","","","","","","","","","","","","","","","","","",""
"","fixation","","html-keyboard-response","122","784578","0.0-74.0-0.0","0","0","OgF5m","People","","null","","","","null","","","","","","","","","","","","","","","","","","","","","","","","","","","","","","","","","","","","","","","","","","","",""
"","deliberation","","html-keyboard-response","123","786956","0.0-74.0-1.0","0","0","OgF5m","People","","2378","","","","68","","","","18","13","44","1","1","64","62","erik-lucatero-d2MSDujJl2g-unsplash.jpg","rikonavt-HQjfrvdTfak-unsplash.jpg","2","1","13","44","","","","","","","","","","","","","","","","","","","","","","","","","","","",""
"","choice_confirmation","","html-keyboard-response","124","787465","0.0-74.0-2.0-0.0","0","0","OgF5m","People","","null","","","","null","","","","18","13","44","","","","","","","","","","","","","","","","","","","","","","","","","","","","","","","","","","","","","",""
"","explain_trial","","survey-text","125","810793","0.0-74.0-5.0-0.0","0","0","OgF5m","People","","23326","{""Q0"":""The lighting looks more natural in this one""}","","","","","","","18","13","44","","","","","","","","","","","{""Q0"":""The lighting looks more natural in this one""}","","","","","","","","","","","","","","","","","","","","","","","","","","",""
"","fixation","","html-keyboard-response","126","811810","0.0-75.0-0.0","0","0","OgF5m","People","","null","","","","null","","","","","","","","","","","","","","","","","","","","","","","","","","","","","","","","","","","","","","","","","","","",""
"","deliberation","","html-keyboard-response","127","813291","0.0-75.0-1.0","0","0","OgF5m","People","","1480","","","","75","","","","19","45","46","1","1","61","58","sarah-noltner-pL5ZzPp1zqg-unsplash.jpg","stefan-stefancik-QXevDflbl8A-unsplash.jpg","2","0","46","45","","","","","","","","","","","","","","","","","","","","","","","","","","","",""
"","choice_confirmation","","html-keyboard-response","128","813802","0.0-75.0-2.0-0.0","0","0","OgF5m","People","","null","","","","null","","","","19","45","46","","","","","","","","","","","","","","","","","","","","","","","","","","","","","","","","","","","","","",""
"","explain_trial","","survey-text","129","827443","0.0-75.0-5.0-0.0","0","0","OgF5m","People","","13639","{""Q0"":""This one just caught my attention more""}","","","","","","","19","45","46","","","","","","","","","","","{""Q0"":""This one just caught my attention more""}","","","","","","","","","","","","","","","","","","","","","","","","","","",""
"","fixation","","html-keyboard-response","130","828453","0.0-76.0-0.0","0","0","OgF5m","People","","null","","","","null","","","","","","","","","","","","","","","","","","","","","","","","","","","","","","","","","","","","","","","","","","","",""
"","deliberation","","html-keyboard-response","131","830155","0.0-76.0-1.0","0","0","OgF5m","People","","1701","","","","75","","","","20","48","19","0","-1","62","38","velizar-ivanov-7ktP9yZA1g4-unsplash.jpg","ha-nguy-n-OFSQ6bHjFjs-unsplash.jpg","2","0","19","48","","","","","","","","","","","","","","","","","","","","","","","","","","","",""
"","choice_confirmation","","html-keyboard-response","132","830662","0.0-76.0-2.0-0.0","0","0","OgF5m","People","","null","","","","null","","","","20","48","19","","","","","","","","","","","","","","","","","","","","","","","","","","","","","","","","","","","","","",""
"","fixation","","html-keyboard-response","133","831668","0.0-77.0-0.0","0","0","OgF5m","People","","null","","","","null","","","","","","","","","","","","","","","","","","","","","","","","","","","","","","","","","","","","","","","","","","","",""
"","deliberation","","html-keyboard-response","134","833019","0.0-77.0-1.0","0","0","OgF5m","People","","1351","","","","68","","","","21","47","35","0","-1","55","37","tyler-nix-ZGa9d1a_4tA-unsplash.jpg","oliver-ragfelt-khV4fTy6-D8-unsplash.jpg","2","1","47","35","","","","","","","","","","","","","","","","","","","","","","","","","","","",""
"","choice_confirmation","","html-keyboard-response","135","833522","0.0-77.0-2.0-0.0","0","0","OgF5m","People","","null","","","","null","","","","21","47","35","","","","","","","","","","","","","","","","","","","","","","","","","","","","","","","","","","","","","",""
"","fixation","","html-keyboard-response","136","834540","0.0-78.0-0.0","0","0","OgF5m","People","","null","","","","null","","","","","","","","","","","","","","","","","","","","","","","","","","","","","","","","","","","","","","","","","","","",""
"","deliberation","","html-keyboard-response","137","835532","0.0-78.0-1.0","0","0","OgF5m","People","","991","","","","75","","","","22","9","0","0","1","39","59","carlos-andres-gomez-vJuk8Y86mRw-unsplash.jpg","abstral-official-cyOKLSgkgCE-unsplash.jpg","2","0","0","9","","","","","","","","","","","","","","","","","","","","","","","","","","","",""
"","choice_confirmation","","html-keyboard-response","138","836053","0.0-78.0-2.0-0.0","0","0","OgF5m","People","","null","","","","null","","","","22","9","0","","","","","","","","","","","","","","","","","","","","","","","","","","","","","","","","","","","","","",""
"","fixation","","html-keyboard-response","139","837058","0.0-79.0-0.0","0","0","OgF5m","People","","null","","","","null","","","","","","","","","","","","","","","","","","","","","","","","","","","","","","","","","","","","","","","","","","","",""
"","deliberation","","html-keyboard-response","140","838976","0.0-79.0-1.0","0","0","OgF5m","People","","1917","","","","75","","","","23","33","32","1","1","41","65","olena-sergienko-0TSd6uCKTKc-unsplash.jpg","nathan-dumlao-ger61_TX6oI-unsplash.jpg","2","0","32","33","","","","","","","","","","","","","","","","","","","","","","","","","","","",""
"","choice_confirmation","","html-keyboard-response","141","839481","0.0-79.0-2.0-0.0","0","0","OgF5m","People","","null","","","","null","","","","23","33","32","","","","","","","","","","","","","","","","","","","","","","","","","","","","","","","","","","","","","",""
"","explain_trial","","survey-text","142","860922","0.0-79.0-5.0-0.0","0","0","OgF5m","People","","21439","{""Q0"":""I think this guy's unique features make this photo stand out more""}","","","","","","","23","33","32","","","","","","","","","","","{""Q0"":""I think this guy's unique features make this photo stand out more""}","","","","","","","","","","","","","","","","","","","","","","","","","","",""
"","start_critical_deliberation_block","","html-keyboard-response","143","873293","0.0-79.0-7.0-0.0","0","0","OgF5m","People","","12371","","","","78","","","","","","","","","","","","","","","","","","","","","","","","","","","","","","","","","","","","","","","","","","","",""
"","fixation","","html-keyboard-response","144","874306","0.0-80.0-0.0","0","0","OgF5m","People","","null","","","","null","","","","","","","","","","","","","","","","","","","","","","","","","","","","","","","","","","","","","","","","","","","",""
"","deliberation","","html-keyboard-response","145","875596","0.0-80.0-1.0","0","0","OgF5m","People","","1290","","","","75","","","","24","26","31","0","-1","36","42","juri-gianfrancesco-9EZadYaMzk4-unsplash.jpg","mathilda-khoo-vLR0YP_otCo-unsplash.jpg","3","0","31","26","","","","","","","","","","","","","","","","","","","","","","","","","","","",""
"","choice_confirmation","","html-keyboard-response","146","876113","0.0-80.0-2.0-0.0","0","0","OgF5m","People","","null","","","","null","","","","24","26","31","","","","","","","","","","","","","","","","","","","","","","","","","","","","","","","","","","","","","",""
"","fixation","","html-keyboard-response","147","877134","0.0-81.0-0.0","0","0","OgF5m","People","","null","","","","null","","","","","","","","","","","","","","","","","","","","","","","","","","","","","","","","","","","","","","","","","","","",""
"","deliberation","","html-keyboard-response","148","878893","0.0-81.0-1.0","0","0","OgF5m","People","","1758","","","","75","","","","25","33","32","0","1","41","65","olena-sergienko-0TSd6uCKTKc-unsplash.jpg","nathan-dumlao-ger61_TX6oI-unsplash.jpg","3","0","32","33","","","","","","","","","","","","","","","","","","","","","","","","","","","",""
"","choice_confirmation","","html-keyboard-response","149","879404","0.0-81.0-2.0-0.0","0","0","OgF5m","People","","null","","","","null","","","","25","33","32","","","","","","","","","","","","","","","","","","","","","","","","","","","","","","","","","","","","","",""
"","fixation","","html-keyboard-response","150","880423","0.0-82.0-0.0","0","0","OgF5m","People","","null","","","","null","","","","","","","","","","","","","","","","","","","","","","","","","","","","","","","","","","","","","","","","","","","",""
"","deliberation","","html-keyboard-response","151","881823","0.0-82.0-1.0","0","0","OgF5m","People","","1400","","","","68","","","","26","13","44","0","1","64","62","erik-lucatero-d2MSDujJl2g-unsplash.jpg","rikonavt-HQjfrvdTfak-unsplash.jpg","3","1","13","44","","","","","","","","","","","","","","","","","","","","","","","","","","","",""
"","choice_confirmation","","html-keyboard-response","152","882338","0.0-82.0-2.0-0.0","0","0","OgF5m","People","","null","","","","null","","","","26","13","44","","","","","","","","","","","","","","","","","","","","","","","","","","","","","","","","","","","","","",""
"","fixation","","html-keyboard-response","153","883357","0.0-83.0-0.0","0","0","OgF5m","People","","null","","","","null","","","","","","","","","","","","","","","","","","","","","","","","","","","","","","","","","","","","","","","","","","","",""
"","deliberation","","html-keyboard-response","154","884167","0.0-83.0-1.0","0","0","OgF5m","People","","808","","","","68","","","","27","47","35","0","-1","55","37","tyler-nix-ZGa9d1a_4tA-unsplash.jpg","oliver-ragfelt-khV4fTy6-D8-unsplash.jpg","3","1","47","35","","","","","","","","","","","","","","","","","","","","","","","","","","","",""
"","choice_confirmation","","html-keyboard-response","155","884677","0.0-83.0-2.0-0.0","0","0","OgF5m","People","","null","","","","null","","","","27","47","35","","","","","","","","","","","","","","","","","","","","","","","","","","","","","","","","","","","","","",""
"","fixation","","html-keyboard-response","156","885685","0.0-84.0-0.0","0","0","OgF5m","People","","null","","","","null","","","","","","","","","","","","","","","","","","","","","","","","","","","","","","","","","","","","","","","","","","","",""
"","deliberation","","html-keyboard-response","157","886592","0.0-84.0-1.0","0","0","OgF5m","People","","905","","","","75","","","","28","36","21","0","1","60","64","ospan-ali-mGdA2fzjWLo-unsplash.jpg","jessica-felicio-_cvwXhGqG-o-unsplash.jpg","3","0","21","36","","","","","","","","","","","","","","","","","","","","","","","","","","","",""
"","choice_confirmation","","html-keyboard-response","158","887102","0.0-84.0-2.0-0.0","0","0","OgF5m","People","","null","","","","null","","","","28","36","21","","","","","","","","","","","","","","","","","","","","","","","","","","","","","","","","","","","","","",""
"","fixation","","html-keyboard-response","159","888107","0.0-85.0-0.0","0","0","OgF5m","People","","null","","","","null","","","","","","","","","","","","","","","","","","","","","","","","","","","","","","","","","","","","","","","","","","","",""
"","deliberation","","html-keyboard-response","160","889351","0.0-85.0-1.0","0","0","OgF5m","People","","1242","","","","75","","","","29","48","19","0","-1","62","38","velizar-ivanov-7ktP9yZA1g4-unsplash.jpg","ha-nguy-n-OFSQ6bHjFjs-unsplash.jpg","3","0","19","48","","","","","","","","","","","","","","","","","","","","","","","","","","","",""
"","choice_confirmation","","html-keyboard-response","161","889864","0.0-85.0-2.0-0.0","0","0","OgF5m","People","","null","","","","null","","","","29","48","19","","","","","","","","","","","","","","","","","","","","","","","","","","","","","","","","","","","","","",""
"","fixation","","html-keyboard-response","162","890882","0.0-86.0-0.0","0","0","OgF5m","People","","null","","","","null","","","","","","","","","","","","","","","","","","","","","","","","","","","","","","","","","","","","","","","","","","","",""
"","deliberation","","html-keyboard-response","163","891862","0.0-86.0-1.0","0","0","OgF5m","People","","978","","","","75","","","","30","45","46","0","1","61","58","sarah-noltner-pL5ZzPp1zqg-unsplash.jpg","stefan-stefancik-QXevDflbl8A-unsplash.jpg","3","0","46","45","","","","","","","","","","","","","","","","","","","","","","","","","","","",""
"","choice_confirmation","","html-keyboard-response","164","892379","0.0-86.0-2.0-0.0","0","0","OgF5m","People","","null","","","","null","","","","30","45","46","","","","","","","","","","","","","","","","","","","","","","","","","","","","","","","","","","","","","",""
"","fixation","","html-keyboard-response","165","893397","0.0-87.0-0.0","0","0","OgF5m","People","","null","","","","null","","","","","","","","","","","","","","","","","","","","","","","","","","","","","","","","","","","","","","","","","","","",""
"","deliberation","","html-keyboard-response","166","894443","0.0-87.0-1.0","0","0","OgF5m","People","","1046","","","","68","","","","31","18","30","0","-1","54","36","good-faces-xmSWVeGEnJw-unsplash.jpg","matheus-ferrero-pg_WCHWSdT8-unsplash.jpg","3","1","18","30","","","","","","","","","","","","","","","","","","","","","","","","","","","",""
"","choice_confirmation","","html-keyboard-response","167","894960","0.0-87.0-2.0-0.0","0","0","OgF5m","People","","null","","","","null","","","","31","18","30","","","","","","","","","","","","","","","","","","","","","","","","","","","","","","","","","","","","","",""
"","fixation","","html-keyboard-response","168","895979","0.0-88.0-0.0","0","0","OgF5m","People","","null","","","","null","","","","","","","","","","","","","","","","","","","","","","","","","","","","","","","","","","","","","","","","","","","",""
"","deliberation","","html-keyboard-response","169","896870","0.0-88.0-1.0","0","0","OgF5m","People","","891","","","","75","","","","32","9","0","0","1","39","59","carlos-andres-gomez-vJuk8Y86mRw-unsplash.jpg","abstral-official-cyOKLSgkgCE-unsplash.jpg","3","0","0","9","","","","","","","","","","","","","","","","","","","","","","","","","","","",""
"","choice_confirmation","","html-keyboard-response","170","897389","0.0-88.0-2.0-0.0","0","0","OgF5m","People","","null","","","","null","","","","32","9","0","","","","","","","","","","","","","","","","","","","","","","","","","","","","","","","","","","","","","",""
"","fixation","","html-keyboard-response","171","898407","0.0-89.0-0.0","0","0","OgF5m","People","","null","","","","null","","","","","","","","","","","","","","","","","","","","","","","","","","","","","","","","","","","","","","","","","","","",""
"","deliberation","","html-keyboard-response","172","899352","0.0-89.0-1.0","0","0","OgF5m","People","","944","","","","75","","","","33","12","23","0","-1","63","41","daniel-rigdon-dXmXKPP2L4E-unsplash.jpg","joanna-nix-walkup-H4fEMshfwTE-unsplash.jpg","3","0","23","12","","","","","","","","","","","","","","","","","","","","","","","","","","","",""
"","choice_confirmation","","html-keyboard-response","173","899860","0.0-89.0-2.0-0.0","0","0","OgF5m","People","","null","","","","null","","","","33","12","23","","","","","","","","","","","","","","","","","","","","","","","","","","","","","","","","","","","","","",""
"","fixation","","html-keyboard-response","174","900877","0.0-90.0-0.0","0","0","OgF5m","People","","null","","","","null","","","","","","","","","","","","","","","","","","","","","","","","","","","","","","","","","","","","","","","","","","","",""
"","deliberation","","html-keyboard-response","175","901704","0.0-90.0-1.0","0","0","OgF5m","People","","826","","","","68","","","","34","37","22","0","-1","55","58","pavel-anoshin-d0peGya6R5Y-unsplash.jpg","jessica-radanavong-mrYkTuAesKE-unsplash.jpg","3","1","37","22","","","","","","","","","","","","","","","","","","","","","","","","","","","",""
"","choice_confirmation","","html-keyboard-response","176","902220","0.0-90.0-2.0-0.0","0","0","OgF5m","People","","null","","","","null","","","","34","37","22","","","","","","","","","","","","","","","","","","","","","","","","","","","","","","","","","","","","","",""
"","fixation","","html-keyboard-response","177","903235","0.0-91.0-0.0","0","0","OgF5m","People","","null","","","","null","","","","","","","","","","","","","","","","","","","","","","","","","","","","","","","","","","","","","","","","","","","",""
"","deliberation","","html-keyboard-response","178","904500","0.0-91.0-1.0","0","0","OgF5m","People","","1264","","","","68","","","","35","39","17","0","1","54","63","philip-martin-5aGUyCW_PJw-unsplash.jpg","gleb-lukomets-paBzWCPN23k-unsplash.jpg","3","1","39","17","","","","","","","","","","","","","","","","","","","","","","","","","","","",""
"","choice_confirmation","","html-keyboard-response","179","905014","0.0-91.0-2.0-0.0","0","0","OgF5m","People","","null","","","","null","","","","35","39","17","","","","","","","","","","","","","","","","","","","","","","","","","","","","","","","","","","","","","",""
"","reward_learning_instructions","","instructions","180","953603","0.0-92.0-0.0","0","0","OgF5m","People","[{""page_index"":0,""viewing_time"":17636},{""page_index"":1,""viewing_time"":28655},{""page_index"":2,""viewing_time"":2297}]","48589","","","","","","","","","","","","","","","","","","","","","","","","","","","","","","","","","","","","","","","","","","","","","","","",""
"","","","survey-multi-choice","181","966628","0.0-92.0-1.0","0","0","OgF5m","People","","13022","{""Q0"":""True"",""Q1"":""True"",""Q2"":""Press the space bar to see its outcome"",""Q3"":""Press the relevant key while the outcome is presented""}","reward_comprehension_check","0","","","","","","","","","","","","","","","","","","","","","","","","","","","","","","","","","","","","","","","","","","","","",""
"","start_phase","","html-keyboard-response","182","968319","0.0-93.0","0","0","OgF5m","People","","1690","","","","78","","","","","","","","","","","","","","","","","","","","","","","","","","","","","","","","","","","","","","","","","","","",""
"","fixation","","html-keyboard-response","183","969321","0.0-94.0","0","0","OgF5m","People","","null","","","","null","","","","","","","","","","","","","","","","","","","","","","","","","","","","","","","","","","","","","","","","","","","",""
"","see_reward","","html-keyboard-response","184","970746","0.0-95.0","0","0","OgF5m","People","","1424","","","","32","","13","","0","","","","1","","","","","1","","","","","142","1424","","","","","","","","","","","","","","","","","","","","","","","","",""
"","reward_outcome","","html-keyboard-response","185","972762","0.0-96.0","0","0","OgF5m","People","","1216","","","","38","","13","","0","","","","","","","","","","","","","","","","1","1216","","","","","","","","","","","","","","","","","","","","","","",""
"","fixation","","html-keyboard-response","186","973772","0.0-99.0","0","0","OgF5m","People","","null","","","","null","","","","","","","","","","","","","","","","","","","","","","","","","","","","","","","","","","","","","","","","","","","",""
"","see_reward","","html-keyboard-response","187","974656","0.0-100.0","0","0","OgF5m","People","","884","","","","32","","19","","1","","","","-1","","","","","1","","","","","0","884","","","","","","","","","","","","","","","","","","","","","","","","",""
"","reward_outcome","","html-keyboard-response","188","976675","0.0-101.0","0","0","OgF5m","People","","676","","","","40","","19","","1","","","","","","","","","","","","","","","","-1","676","","","","","","","","","","","","","","","","","","","","","","",""
"","fixation","","html-keyboard-response","189","977694","0.0-104.0","0","0","OgF5m","People","","null","","","","null","","","","","","","","","","","","","","","","","","","","","","","","","","","","","","","","","","","","","","","","","","","",""
"","see_reward","","html-keyboard-response","190","978290","0.0-105.0","0","0","OgF5m","People","","596","","","","32","","39","","2","","","","1","","","","","1","","","","","160","596","","","","","","","","","","","","","","","","","","","","","","","","",""
"","reward_outcome","","html-keyboard-response","191","980305","0.0-106.0","0","0","OgF5m","People","","803","","","","38","","39","","2","","","","","","","","","","","","","","","","1","803","","","","","","","","","","","","","","","","","","","","","","",""
"","fixation","","html-keyboard-response","192","981322","0.0-109.0","0","0","OgF5m","People","","null","","","","null","","","","","","","","","","","","","","","","","","","","","","","","","","","","","","","","","","","","","","","","","","","",""
"","see_reward","","html-keyboard-response","193","981872","0.0-110.0","0","0","OgF5m","People","","549","","","","32","","32","","3","","","","1","","","","","1","","","","","150","549","","","","","","","","","","","","","","","","","","","","","","","","",""
"","reward_outcome","","html-keyboard-response","194","983885","0.0-111.0","0","0","OgF5m","People","","919","","","","38","","32","","3","","","","","","","","","","","","","","","","1","919","","","","","","","","","","","","","","","","","","","","","","",""
"","fixation","","html-keyboard-response","195","984903","0.0-114.0","0","0","OgF5m","People","","null","","","","null","","","","","","","","","","","","","","","","","","","","","","","","","","","","","","","","","","","","","","","","","","","",""
"","see_reward","","html-keyboard-response","196","985525","0.0-115.0","0","0","OgF5m","People","","622","","","","32","","47","","4","","","","-1","","","","","1","","","","","0","622","","","","","","","","","","","","","","","","","","","","","","","","",""
"","reward_outcome","","html-keyboard-response","197","987537","0.0-116.0","0","0","OgF5m","People","","872","","","","40","","47","","4","","","","","","","","","","","","","","","","-1","872","","","","","","","","","","","","","","","","","","","","","","",""
"","fixation","","html-keyboard-response","198","988558","0.0-119.0","0","0","OgF5m","People","","null","","","","null","","","","","","","","","","","","","","","","","","","","","","","","","","","","","","","","","","","","","","","","","","","",""
"","see_reward","","html-keyboard-response","199","989164","0.0-120.0","0","0","OgF5m","People","","605","","","","32","","31","","5","","","","-1","","","","","1","","","","","0","605","","","","","","","","","","","","","","","","","","","","","","","","",""
"","reward_outcome","","html-keyboard-response","200","991179","0.0-121.0","0","0","OgF5m","People","","879","","","","40","","31","","5","","","","","","","","","","","","","","","","-1","879","","","","","","","","","","","","","","","","","","","","","","",""
"","fixation","","html-keyboard-response","201","992184","0.0-124.0","0","0","OgF5m","People","","null","","","","null","","","","","","","","","","","","","","","","","","","","","","","","","","","","","","","","","","","","","","","","","","","",""
"","see_reward","","html-keyboard-response","202","992809","0.0-125.0","0","0","OgF5m","People","","623","","","","32","","18","","6","","","","-1","","","","","1","","","","","0","623","","","","","","","","","","","","","","","","","","","","","","","","",""
"","reward_outcome","","html-keyboard-response","203","994826","0.0-126.0","0","0","OgF5m","People","","891","","","","40","","18","","6","","","","","","","","","","","","","","","","-1","891","","","","","","","","","","","","","","","","","","","","","","",""
"","fixation","","html-keyboard-response","204","995845","0.0-129.0","0","0","OgF5m","People","","null","","","","null","","","","","","","","","","","","","","","","","","","","","","","","","","","","","","","","","","","","","","","","","","","",""
"","see_reward","","html-keyboard-response","205","996564","0.0-130.0","0","0","OgF5m","People","","719","","","","32","","37","","7","","","","-1","","","","","1","","","","","0","719","","","","","","","","","","","","","","","","","","","","","","","","",""
"","reward_outcome","","html-keyboard-response","206","998583","0.0-131.0","0","0","OgF5m","People","","875","","","","40","","37","","7","","","","","","","","","","","","","","","","-1","875","","","","","","","","","","","","","","","","","","","","","","",""
"","fixation","","html-keyboard-response","207","999605","0.0-134.0","0","0","OgF5m","People","","null","","","","null","","","","","","","","","","","","","","","","","","","","","","","","","","","","","","","","","","","","","","","","","","","",""
"","see_reward","","html-keyboard-response","208","1000147","0.0-135.0","0","0","OgF5m","People","","540","","","","32","","32","","8","","","","1","","","","","1","","","","","150","540","","","","","","","","","","","","","","","","","","","","","","","","",""
"","reward_outcome","","html-keyboard-response","209","1002158","0.0-136.0","0","0","OgF5m","People","","724","","","","38","","32","","8","","","","","","","","","","","","","","","","1","724","","","","","","","","","","","","","","","","","","","","","","",""
"","fixation","","html-keyboard-response","210","1003160","0.0-139.0","0","0","OgF5m","People","","null","","","","null","","","","","","","","","","","","","","","","","","","","","","","","","","","","","","","","","","","","","","","","","","","",""
"","see_reward","","html-keyboard-response","211","1003861","0.0-140.0","0","0","OgF5m","People","","699","","","","32","","19","","9","","","","-1","","","","","1","","","","","0","699","","","","","","","","","","","","","","","","","","","","","","","","",""
"","reward_outcome","","html-keyboard-response","212","1005878","0.0-141.0","0","0","OgF5m","People","","809","","","","38","","19","","9","","","","","","","","","","","","","","","","1","809","","","","","","","","","","","","","","","","","","","","","","",""
"","fixation","","html-keyboard-response","213","1006885","0.0-144.0","0","0","OgF5m","People","","null","","","","null","","","","","","","","","","","","","","","","","","","","","","","","","","","","","","","","","","","","","","","","","","","",""
"","see_reward","","html-keyboard-response","214","1007497","0.0-145.0","0","0","OgF5m","People","","611","","","","32","","37","","10","","","","-1","","","","","1","","","","","0","611","","","","","","","","","","","","","","","","","","","","","","","","",""
"","reward_outcome","","html-keyboard-response","215","1009513","0.0-146.0","0","0","OgF5m","People","","756","","","","40","","37","","10","","","","","","","","","","","","","","","","-1","756","","","","","","","","","","","","","","","","","","","","","","",""
"","fixation","","html-keyboard-response","216","1010532","0.0-149.0","0","0","OgF5m","People","","null","","","","null","","","","","","","","","","","","","","","","","","","","","","","","","","","","","","","","","","","","","","","","","","","",""
"","see_reward","","html-keyboard-response","217","1011111","0.0-150.0","0","0","OgF5m","People","","578","","","","32","","21","","11","","","","1","","","","","1","","","","","153","578","","","","","","","","","","","","","","","","","","","","","","","","",""
"","reward_outcome","","html-keyboard-response","218","1013125","0.0-151.0","0","0","OgF5m","People","","898","","","","38","","21","","11","","","","","","","","","","","","","","","","1","898","","","","","","","","","","","","","","","","","","","","","","",""
"","fixation","","html-keyboard-response","219","1014128","0.0-154.0","0","0","OgF5m","People","","null","","","","null","","","","","","","","","","","","","","","","","","","","","","","","","","","","","","","","","","","","","","","","","","","",""
"","see_reward","","html-keyboard-response","220","1014658","0.0-155.0","0","0","OgF5m","People","","529","","","","32","","39","","12","","","","1","","","","","1","","","","","160","529","","","","","","","","","","","","","","","","","","","","","","","","",""
"","reward_outcome","","html-keyboard-response","221","1016676","0.0-156.0","0","0","OgF5m","People","","692","","","","38","","39","","12","","","","","","","","","","","","","","","","1","692","","","","","","","","","","","","","","","","","","","","","","",""
"","fixation","","html-keyboard-response","222","1017680","0.0-159.0","0","0","OgF5m","People","","null","","","","null","","","","","","","","","","","","","","","","","","","","","","","","","","","","","","","","","","","","","","","","","","","",""
"","see_reward","","html-keyboard-response","223","1018279","0.0-160.0","0","0","OgF5m","People","","597","","","","32","","0","","13","","","","1","","","","","1","","","","","152","597","","","","","","","","","","","","","","","","","","","","","","","","",""
"","reward_outcome","","html-keyboard-response","224","1020302","0.0-161.0","0","0","OgF5m","People","","841","","","","38","","0","","13","","","","","","","","","","","","","","","","1","841","","","","","","","","","","","","","","","","","","","","","","",""
"","fixation","","html-keyboard-response","225","1021304","0.0-164.0","0","0","OgF5m","People","","null","","","","null","","","","","","","","","","","","","","","","","","","","","","","","","","","","","","","","","","","","","","","","","","","",""
"","see_reward","","html-keyboard-response","226","1021771","0.0-165.0","0","0","OgF5m","People","","466","","","","32","","46","","14","","","","1","","","","","1","","","","","147","466","","","","","","","","","","","","","","","","","","","","","","","","",""
"","reward_outcome","","html-keyboard-response","227","1023778","0.0-166.0","0","0","OgF5m","People","","1023","","","","38","","46","","14","","","","","","","","","","","","","","","","1","1023","","","","","","","","","","","","","","","","","","","","","","",""
"","fixation","","html-keyboard-response","228","1024794","0.0-169.0","0","0","OgF5m","People","","null","","","","null","","","","","","","","","","","","","","","","","","","","","","","","","","","","","","","","","","","","","","","","","","","",""
"","see_reward","","html-keyboard-response","229","1025331","0.0-170.0","0","0","OgF5m","People","","536","","","","32","","18","","15","","","","-1","","","","","1","","","","","0","536","","","","","","","","","","","","","","","","","","","","","","","","",""
"","reward_outcome","","html-keyboard-response","230","1027345","0.0-171.0","0","0","OgF5m","People","","829","","","","40","","18","","15","","","","","","","","","","","","","","","","-1","829","","","","","","","","","","","","","","","","","","","","","","",""
"","fixation","","html-keyboard-response","231","1028364","0.0-174.0","0","0","OgF5m","People","","null","","","","null","","","","","","","","","","","","","","","","","","","","","","","","","","","","","","","","","","","","","","","","","","","",""
"","see_reward","","html-keyboard-response","232","1028950","0.0-175.0","0","0","OgF5m","People","","584","","","","32","","21","","16","","","","1","","","","","1","","","","","153","584","","","","","","","","","","","","","","","","","","","","","","","","",""
"","reward_outcome","","html-keyboard-response","233","1030958","0.0-176.0","0","0","OgF5m","People","","807","","","","38","","21","","16","","","","","","","","","","","","","","","","1","807","","","","","","","","","","","","","","","","","","","","","","",""
"","fixation","","html-keyboard-response","234","1031968","0.0-179.0","0","0","OgF5m","People","","null","","","","null","","","","","","","","","","","","","","","","","","","","","","","","","","","","","","","","","","","","","","","","","","","",""
"","see_reward","","html-keyboard-response","235","1032612","0.0-180.0","0","0","OgF5m","People","","643","","","","32","","13","","17","","","","1","","","","","1","","","","","142","643","","","","","","","","","","","","","","","","","","","","","","","","",""
"","reward_outcome","","html-keyboard-response","236","1034621","0.0-181.0","0","0","OgF5m","People","","967","","","","38","","13","","17","","","","","","","","","","","","","","","","1","967","","","","","","","","","","","","","","","","","","","","","","",""
"","fixation","","html-keyboard-response","237","1035628","0.0-184.0","0","0","OgF5m","People","","null","","","","null","","","","","","","","","","","","","","","","","","","","","","","","","","","","","","","","","","","","","","","","","","","",""
"","see_reward","","html-keyboard-response","238","1036134","0.0-185.0","0","0","OgF5m","People","","505","","","","32","","46","","18","","","","1","","","","","1","","","","","147","505","","","","","","","","","","","","","","","","","","","","","","","","",""
"","reward_outcome","","html-keyboard-response","239","1038146","0.0-186.0","0","0","OgF5m","People","","998","","","","38","","46","","18","","","","","","","","","","","","","","","","1","998","","","","","","","","","","","","","","","","","","","","","","",""
"","fixation","","html-keyboard-response","240","1039164","0.0-189.0","0","0","OgF5m","People","","null","","","","null","","","","","","","","","","","","","","","","","","","","","","","","","","","","","","","","","","","","","","","","","","","",""
"","see_reward","","html-keyboard-response","241","1039659","0.0-190.0","0","0","OgF5m","People","","494","","","","32","","23","","19","","","","-1","","","","","1","","","","","0","494","","","","","","","","","","","","","","","","","","","","","","","","",""
"","reward_outcome","","html-keyboard-response","242","1041679","0.0-191.0","0","0","OgF5m","People","","997","","","","40","","23","","19","","","","","","","","","","","","","","","","-1","997","","","","","","","","","","","","","","","","","","","","","","",""
"","fixation","","html-keyboard-response","243","1042700","0.0-194.0","0","0","OgF5m","People","","null","","","","null","","","","","","","","","","","","","","","","","","","","","","","","","","","","","","","","","","","","","","","","","","","",""
"","see_reward","","html-keyboard-response","244","1043421","0.0-195.0","0","0","OgF5m","People","","721","","","","32","","31","","20","","","","-1","","","","","1","","","","","0","721","","","","","","","","","","","","","","","","","","","","","","","","",""
"","reward_outcome","","html-keyboard-response","245","1045436","0.0-196.0","0","0","OgF5m","People","","978","","","","40","","31","","20","","","","","","","","","","","","","","","","-1","978","","","","","","","","","","","","","","","","","","","","","","",""
"","fixation","","html-keyboard-response","246","1046453","0.0-199.0","0","0","OgF5m","People","","null","","","","null","","","","","","","","","","","","","","","","","","","","","","","","","","","","","","","","","","","","","","","","","","","",""
"","see_reward","","html-keyboard-response","247","1046933","0.0-200.0","0","0","OgF5m","People","","480","","","","32","","0","","21","","","","1","","","","","1","","","","","152","480","","","","","","","","","","","","","","","","","","","","","","","","",""
"","reward_outcome","","html-keyboard-response","248","1048950","0.0-201.0","0","0","OgF5m","People","","762","","","","38","","0","","21","","","","","","","","","","","","","","","","1","762","","","","","","","","","","","","","","","","","","","","","","",""
"","fixation","","html-keyboard-response","249","1049954","0.0-204.0","0","0","OgF5m","People","","null","","","","null","","","","","","","","","","","","","","","","","","","","","","","","","","","","","","","","","","","","","","","","","","","",""
"","see_reward","","html-keyboard-response","250","1050438","0.0-205.0","0","0","OgF5m","People","","483","","","","32","","23","","22","","","","-1","","","","","1","","","","","0","483","","","","","","","","","","","","","","","","","","","","","","","","",""
"","reward_outcome","","html-keyboard-response","251","1052441","0.0-206.0","0","0","OgF5m","People","","698","","","","40","","23","","22","","","","","","","","","","","","","","","","-1","698","","","","","","","","","","","","","","","","","","","","","","",""
"","fixation","","html-keyboard-response","252","1053462","0.0-209.0","0","0","OgF5m","People","","null","","","","null","","","","","","","","","","","","","","","","","","","","","","","","","","","","","","","","","","","","","","","","","","","",""
"","see_reward","","html-keyboard-response","253","1054070","0.0-210.0","0","0","OgF5m","People","","608","","","","32","","47","","23","","","","-1","","","","","1","","","","","0","608","","","","","","","","","","","","","","","","","","","","","","","","",""
"","reward_outcome","","html-keyboard-response","254","1056082","0.0-211.0","0","0","OgF5m","People","","854","","","","40","","47","","23","","","","","","","","","","","","","","","","-1","854","","","","","","","","","","","","","","","","","","","","","","",""
"","block_over","","html-keyboard-response","255","1059046","0.0-213.0-0.0","0","0","OgF5m","People","","2963","","","","78","","","","","","","","","","","","","","","","","","","","","","","","","","","","","","","","","","","","","","","","","","","",""
"","fixation","","html-keyboard-response","256","1060050","0.0-214.0","0","0","OgF5m","People","","null","","","","null","","","","","","","","","","","","","","","","","","","","","","","","","","","","","","","","","","","","","","","","","","","",""
"","see_reward","","html-keyboard-response","257","1060962","0.0-215.0","0","0","OgF5m","People","","911","","","","32","","18","","24","","","","-1","","","","","2","","","","","0","911","","","","","","","","","","","","","","","","","","","","","","","","",""
"","reward_outcome","","html-keyboard-response","258","1062978","0.0-216.0","0","0","OgF5m","People","","781","","","","40","","18","","24","","","","","","","","","","","","","","","","-1","781","","","","","","","","","","","","","","","","","","","","","","",""
"","fixation","","html-keyboard-response","259","1063998","0.0-219.0","0","0","OgF5m","People","","null","","","","null","","","","","","","","","","","","","","","","","","","","","","","","","","","","","","","","","","","","","","","","","","","",""
"","see_reward","","html-keyboard-response","260","1064551","0.0-220.0","0","0","OgF5m","People","","552","","","","32","","13","","25","","","","1","","","","","2","","","","","142","552","","","","","","","","","","","","","","","","","","","","","","","","",""
"","reward_outcome","","html-keyboard-response","261","1066555","0.0-221.0","0","0","OgF5m","People","","707","","","","38","","13","","25","","","","","","","","","","","","","","","","1","707","","","","","","","","","","","","","","","","","","","","","","",""
"","fixation","","html-keyboard-response","262","1067574","0.0-224.0","0","0","OgF5m","People","","null","","","","null","","","","","","","","","","","","","","","","","","","","","","","","","","","","","","","","","","","","","","","","","","","",""
"","see_reward","","html-keyboard-response","263","1067975","0.0-225.0","0","0","OgF5m","People","","401","","","","32","","37","","26","","","","-1","","","","","2","","","","","0","401","","","","","","","","","","","","","","","","","","","","","","","","",""
"","reward_outcome","","html-keyboard-response","264","1069986","0.0-226.0","0","0","OgF5m","People","","736","","","","40","","37","","26","","","","","","","","","","","","","","","","-1","736","","","","","","","","","","","","","","","","","","","","","","",""
"","fixation","","html-keyboard-response","265","1071002","0.0-229.0","0","0","OgF5m","People","","null","","","","null","","","","","","","","","","","","","","","","","","","","","","","","","","","","","","","","","","","","","","","","","","","",""
"","see_reward","","html-keyboard-response","266","1071498","0.0-230.0","0","0","OgF5m","People","","496","","","","32","","47","","27","","","","-1","","","","","2","","","","","0","496","","","","","","","","","","","","","","","","","","","","","","","","",""
"","reward_outcome","","html-keyboard-response","267","1073517","0.0-231.0","0","0","OgF5m","People","","724","","","","40","","47","","27","","","","","","","","","","","","","","","","-1","724","","","","","","","","","","","","","","","","","","","","","","",""
"","fixation","","html-keyboard-response","268","1074522","0.0-234.0","0","0","OgF5m","People","","null","","","","null","","","","","","","","","","","","","","","","","","","","","","","","","","","","","","","","","","","","","","","","","","","",""
"","see_reward","","html-keyboard-response","269","1074949","0.0-235.0","0","0","OgF5m","People","","425","","","","32","","32","","28","","","","1","","","","","2","","","","","150","425","","","","","","","","","","","","","","","","","","","","","","","","",""
"","reward_outcome","","html-keyboard-response","270","1076960","0.0-236.0","0","0","OgF5m","People","","690","","","","38","","32","","28","","","","","","","","","","","","","","","","1","690","","","","","","","","","","","","","","","","","","","","","","",""
"","fixation","","html-keyboard-response","271","1077981","0.0-239.0","0","0","OgF5m","People","","null","","","","null","","","","","","","","","","","","","","","","","","","","","","","","","","","","","","","","","","","","","","","","","","","",""
"","see_reward","","html-keyboard-response","272","1078422","0.0-240.0","0","0","OgF5m","People","","440","","","","32","","47","","29","","","","-1","","","","","2","","","","","0","440","","","","","","","","","","","","","","","","","","","","","","","","",""
"","reward_outcome","","html-keyboard-response","273","1080435","0.0-241.0","0","0","OgF5m","People","","882","","","","40","","47","","29","","","","","","","","","","","","","","","","-1","882","","","","","","","","","","","","","","","","","","","","","","",""
"","fixation","","html-keyboard-response","274","1081444","0.0-244.0","0","0","OgF5m","People","","null","","","","null","","","","","","","","","","","","","","","","","","","","","","","","","","","","","","","","","","","","","","","","","","","",""
"","see_reward","","html-keyboard-response","275","1081916","0.0-245.0","0","0","OgF5m","People","","470","","","","32","","18","","30","","","","-1","","","","","2","","","","","0","470","","","","","","","","","","","","","","","","","","","","","","","","",""
"","reward_outcome","","html-keyboard-response","276","1083927","0.0-246.0","0","0","OgF5m","People","","735","","","","40","","18","","30","","","","","","","","","","","","","","","","-1","735","","","","","","","","","","","","","","","","","","","","","","",""
"","fixation","","html-keyboard-response","277","1084944","0.0-249.0","0","0","OgF5m","People","","null","","","","null","","","","","","","","","","","","","","","","","","","","","","","","","","","","","","","","","","","","","","","","","","","",""
"","see_reward","","html-keyboard-response","278","1085461","0.0-250.0","0","0","OgF5m","People","","517","","","","32","","21","","31","","","","1","","","","","2","","","","","153","517","","","","","","","","","","","","","","","","","","","","","","","","",""
"","reward_outcome","","html-keyboard-response","279","1087478","0.0-251.0","0","0","OgF5m","People","","677","","","","38","","21","","31","","","","","","","","","","","","","","","","1","677","","","","","","","","","","","","","","","","","","","","","","",""
"","fixation","","html-keyboard-response","280","1088481","0.0-254.0","0","0","OgF5m","People","","null","","","","null","","","","","","","","","","","","","","","","","","","","","","","","","","","","","","","","","","","","","","","","","","","",""
"","see_reward","","html-keyboard-response","281","1088977","0.0-255.0","0","0","OgF5m","People","","495","","","","32","","31","","32","","","","-1","","","","","2","","","","","0","495","","","","","","","","","","","","","","","","","","","","","","","","",""
"","reward_outcome","","html-keyboard-response","282","1090986","0.0-256.0","0","0","OgF5m","People","","892","","","","40","","31","","32","","","","","","","","","","","","","","","","-1","892","","","","","","","","","","","","","","","","","","","","","","",""
"","fixation","","html-keyboard-response","283","1092006","0.0-259.0","0","0","OgF5m","People","","null","","","","null","","","","","","","","","","","","","","","","","","","","","","","","","","","","","","","","","","","","","","","","","","","",""
"","see_reward","","html-keyboard-response","284","1092549","0.0-260.0","0","0","OgF5m","People","","542","","","","32","","37","","33","","","","-1","","","","","2","","","","","0","542","","","","","","","","","","","","","","","","","","","","","","","","",""
"","reward_outcome","","html-keyboard-response","285","1094554","0.0-261.0","0","0","OgF5m","People","","869","","","","40","","37","","33","","","","","","","","","","","","","","","","-1","869","","","","","","","","","","","","","","","","","","","","","","",""
"","fixation","","html-keyboard-response","286","1095575","0.0-264.0","0","0","OgF5m","People","","null","","","","null","","","","","","","","","","","","","","","","","","","","","","","","","","","","","","","","","","","","","","","","","","","",""
"","see_reward","","html-keyboard-response","287","1096230","0.0-265.0","0","0","OgF5m","People","","653","","","","32","","19","","34","","","","-1","","","","","2","","","","","0","653","","","","","","","","","","","","","","","","","","","","","","","","",""
"","reward_outcome","","html-keyboard-response","288","1098238","0.0-266.0","0","0","OgF5m","People","","918","","","","40","","19","","34","","","","","","","","","","","","","","","","-1","918","","","","","","","","","","","","","","","","","","","","","","",""
"","fixation","","html-keyboard-response","289","1099242","0.0-269.0","0","0","OgF5m","People","","null","","","","null","","","","","","","","","","","","","","","","","","","","","","","","","","","","","","","","","","","","","","","","","","","",""
"","see_reward","","html-keyboard-response","290","1099757","0.0-270.0","0","0","OgF5m","People","","514","","","","32","","23","","35","","","","-1","","","","","2","","","","","0","514","","","","","","","","","","","","","","","","","","","","","","","","",""
"","reward_outcome","","html-keyboard-response","291","1101764","0.0-271.0","0","0","OgF5m","People","","1042","","","","40","","23","","35","","","","","","","","","","","","","","","","-1","1042","","","","","","","","","","","","","","","","","","","","","","",""
"","fixation","","html-keyboard-response","292","1102781","0.0-274.0","0","0","OgF5m","People","","null","","","","null","","","","","","","","","","","","","","","","","","","","","","","","","","","","","","","","","","","","","","","","","","","",""
"","see_reward","","html-keyboard-response","293","1103400","0.0-275.0","0","0","OgF5m","People","","619","","","","32","","19","","36","","","","-1","","","","","2","","","","","0","619","","","","","","","","","","","","","","","","","","","","","","","","",""
"","reward_outcome","","html-keyboard-response","294","1105408","0.0-276.0","0","0","OgF5m","People","","668","","","","40","","19","","36","","","","","","","","","","","","","","","","-1","668","","","","","","","","","","","","","","","","","","","","","","",""
"","fixation","","html-keyboard-response","295","1106427","0.0-279.0","0","0","OgF5m","People","","null","","","","null","","","","","","","","","","","","","","","","","","","","","","","","","","","","","","","","","","","","","","","","","","","",""
"","see_reward","","html-keyboard-response","296","1107140","0.0-280.0","0","0","OgF5m","People","","710","","","","32","","39","","37","","","","1","","","","","2","","","","","160","710","","","","","","","","","","","","","","","","","","","","","","","","",""
"","reward_outcome","","html-keyboard-response","297","1109152","0.0-281.0","0","0","OgF5m","People","","932","","","","38","","39","","37","","","","","","","","","","","","","","","","1","932","","","","","","","","","","","","","","","","","","","","","","",""
"","fixation","","html-keyboard-response","298","1110172","0.0-284.0","0","0","OgF5m","People","","null","","","","null","","","","","","","","","","","","","","","","","","","","","","","","","","","","","","","","","","","","","","","","","","","",""
"","see_reward","","html-keyboard-response","299","1110670","0.0-285.0","0","0","OgF5m","People","","496","","","","32","","46","","38","","","","1","","","","","2","","","","","147","496","","","","","","","","","","","","","","","","","","","","","","","","",""
"","reward_outcome","","html-keyboard-response","300","1112673","0.0-286.0","0","0","OgF5m","People","","824","","","","38","","46","","38","","","","","","","","","","","","","","","","1","824","","","","","","","","","","","","","","","","","","","","","","",""
"","fixation","","html-keyboard-response","301","1113691","0.0-289.0","0","0","OgF5m","People","","null","","","","null","","","","","","","","","","","","","","","","","","","","","","","","","","","","","","","","","","","","","","","","","","","",""
"","see_reward","","html-keyboard-response","302","1114184","0.0-290.0","0","0","OgF5m","People","","492","","","","32","","31","","39","","","","-1","","","","","2","","","","","0","492","","","","","","","","","","","","","","","","","","","","","","","","",""
"","reward_outcome","","html-keyboard-response","303","1116206","0.0-291.0","0","0","OgF5m","People","","703","","","","40","","31","","39","","","","","","","","","","","","","","","","-1","703","","","","","","","","","","","","","","","","","","","","","","",""
"","fixation","","html-keyboard-response","304","1117210","0.0-294.0","0","0","OgF5m","People","","null","","","","null","","","","","","","","","","","","","","","","","","","","","","","","","","","","","","","","","","","","","","","","","","","",""
"","see_reward","","html-keyboard-response","305","1117522","0.0-295.0","0","0","OgF5m","People","","312","","","","32","","46","","40","","","","1","","","","","2","","","","","147","312","","","","","","","","","","","","","","","","","","","","","","","","",""
"","reward_outcome","","html-keyboard-response","306","1119539","0.0-296.0","0","0","OgF5m","People","","826","","","","38","","46","","40","","","","","","","","","","","","","","","","1","826","","","","","","","","","","","","","","","","","","","","","","",""
"","fixation","","html-keyboard-response","307","1120555","0.0-299.0","0","0","OgF5m","People","","null","","","","null","","","","","","","","","","","","","","","","","","","","","","","","","","","","","","","","","","","","","","","","","","","",""
"","see_reward","","html-keyboard-response","308","1121084","0.0-300.0","0","0","OgF5m","People","","529","","","","32","","0","","41","","","","1","","","","","2","","","","","152","529","","","","","","","","","","","","","","","","","","","","","","","","",""
"","reward_outcome","","html-keyboard-response","309","1123101","0.0-301.0","0","0","OgF5m","People","","734","","","","38","","0","","41","","","","","","","","","","","","","","","","1","734","","","","","","","","","","","","","","","","","","","","","","",""
"","fixation","","html-keyboard-response","310","1124104","0.0-304.0","0","0","OgF5m","People","","null","","","","null","","","","","","","","","","","","","","","","","","","","","","","","","","","","","","","","","","","","","","","","","","","",""
"","see_reward","","html-keyboard-response","311","1124692","0.0-305.0","0","0","OgF5m","People","","587","","","","32","","13","","42","","","","1","","","","","2","","","","","142","587","","","","","","","","","","","","","","","","","","","","","","","","",""
"","reward_outcome","","html-keyboard-response","312","1126710","0.0-306.0","0","0","OgF5m","People","","958","","","","38","","13","","42","","","","","","","","","","","","","","","","1","958","","","","","","","","","","","","","","","","","","","","","","",""
"","fixation","","html-keyboard-response","313","1127720","0.0-309.0","0","0","OgF5m","People","","null","","","","null","","","","","","","","","","","","","","","","","","","","","","","","","","","","","","","","","","","","","","","","","","","",""
"","see_reward","","html-keyboard-response","314","1128179","0.0-310.0","0","0","OgF5m","People","","459","","","","32","","0","","43","","","","1","","","","","2","","","","","152","459","","","","","","","","","","","","","","","","","","","","","","","","",""
"","reward_outcome","","html-keyboard-response","315","1130189","0.0-311.0","0","0","OgF5m","People","","686","","","","38","","0","","43","","","","","","","","","","","","","","","","1","686","","","","","","","","","","","","","","","","","","","","","","",""
"","fixation","","html-keyboard-response","316","1131194","0.0-314.0","0","0","OgF5m","People","","null","","","","null","","","","","","","","","","","","","","","","","","","","","","","","","","","","","","","","","","","","","","","","","","","",""
"","see_reward","","html-keyboard-response","317","1131902","0.0-315.0","0","0","OgF5m","People","","708","","","","32","","23","","44","","","","-1","","","","","2","","","","","0","708","","","","","","","","","","","","","","","","","","","","","","","","",""
"","reward_outcome","","html-keyboard-response","318","1133911","0.0-316.0","0","0","OgF5m","People","","644","","","","40","","23","","44","","","","","","","","","","","","","","","","-1","644","","","","","","","","","","","","","","","","","","","","","","",""
"","fixation","","html-keyboard-response","319","1134929","0.0-319.0","0","0","OgF5m","People","","null","","","","null","","","","","","","","","","","","","","","","","","","","","","","","","","","","","","","","","","","","","","","","","","","",""
"","see_reward","","html-keyboard-response","320","1135458","0.0-320.0","0","0","OgF5m","People","","529","","","","32","","21","","45","","","","1","","","","","2","","","","","153","529","","","","","","","","","","","","","","","","","","","","","","","","",""
"","reward_outcome","","html-keyboard-response","321","1137479","0.0-321.0","0","0","OgF5m","People","","714","","","","38","","21","","45","","","","","","","","","","","","","","","","1","714","","","","","","","","","","","","","","","","","","","","","","",""
"","fixation","","html-keyboard-response","322","1138499","0.0-324.0","0","0","OgF5m","People","","null","","","","null","","","","","","","","","","","","","","","","","","","","","","","","","","","","","","","","","","","","","","","","","","","",""
"","see_reward","","html-keyboard-response","323","1138922","0.0-325.0","0","0","OgF5m","People","","422","","","","32","","32","","46","","","","1","","","","","2","","","","","150","422","","","","","","","","","","","","","","","","","","","","","","","","",""
"","reward_outcome","","html-keyboard-response","324","1140938","0.0-326.0","0","0","OgF5m","People","","787","","","","38","","32","","46","","","","","","","","","","","","","","","","1","787","","","","","","","","","","","","","","","","","","","","","","",""
"","fixation","","html-keyboard-response","325","1141953","0.0-329.0","0","0","OgF5m","People","","null","","","","null","","","","","","","","","","","","","","","","","","","","","","","","","","","","","","","","","","","","","","","","","","","",""
"","see_reward","","html-keyboard-response","326","1142338","0.0-330.0","0","0","OgF5m","People","","384","","","","32","","39","","47","","","","1","","","","","2","","","","","160","384","","","","","","","","","","","","","","","","","","","","","","","","",""
"","reward_outcome","","html-keyboard-response","327","1144346","0.0-331.0","0","0","OgF5m","People","","927","","","","38","","39","","47","","","","","","","","","","","","","","","","1","927","","","","","","","","","","","","","","","","","","","","","","",""
"","block_over","","html-keyboard-response","328","1146276","0.0-333.0-0.0","0","0","OgF5m","People","","1929","","","","78","","","","","","","","","","","","","","","","","","","","","","","","","","","","","","","","","","","","","","","","","","","",""
"","fixation","","html-keyboard-response","329","1147292","0.0-334.0","0","0","OgF5m","People","","null","","","","null","","","","","","","","","","","","","","","","","","","","","","","","","","","","","","","","","","","","","","","","","","","",""
"","see_reward","","html-keyboard-response","330","1147847","0.0-335.0","0","0","OgF5m","People","","554","","","","32","","39","","48","","","","1","","","","","3","","","","","160","554","","","","","","","","","","","","","","","","","","","","","","","","",""
"","reward_outcome","","html-keyboard-response","331","1149867","0.0-336.0","0","0","OgF5m","People","","749","","","","38","","39","","48","","","","","","","","","","","","","","","","1","749","","","","","","","","","","","","","","","","","","","","","","",""
"","fixation","","html-keyboard-response","332","1150887","0.0-339.0","0","0","OgF5m","People","","null","","","","null","","","","","","","","","","","","","","","","","","","","","","","","","","","","","","","","","","","","","","","","","","","",""
"","see_reward","","html-keyboard-response","333","1151333","0.0-340.0","0","0","OgF5m","People","","445","","","","32","","13","","49","","","","1","","","","","3","","","","","142","445","","","","","","","","","","","","","","","","","","","","","","","","",""
"","reward_outcome","","html-keyboard-response","334","1153344","0.0-341.0","0","0","OgF5m","People","","776","","","","38","","13","","49","","","","","","","","","","","","","","","","1","776","","","","","","","","","","","","","","","","","","","","","","",""
"","fixation","","html-keyboard-response","335","1154353","0.0-344.0","0","0","OgF5m","People","","null","","","","null","","","","","","","","","","","","","","","","","","","","","","","","","","","","","","","","","","","","","","","","","","","",""
"","see_reward","","html-keyboard-response","336","1154913","0.0-345.0","0","0","OgF5m","People","","558","","","","32","","18","","50","","","","-1","","","","","3","","","","","0","558","","","","","","","","","","","","","","","","","","","","","","","","",""
"","reward_outcome","","html-keyboard-response","337","1156925","0.0-346.0","0","0","OgF5m","People","","771","","","","40","","18","","50","","","","","","","","","","","","","","","","-1","771","","","","","","","","","","","","","","","","","","","","","","",""
"","fixation","","html-keyboard-response","338","1157935","0.0-349.0","0","0","OgF5m","People","","null","","","","null","","","","","","","","","","","","","","","","","","","","","","","","","","","","","","","","","","","","","","","","","","","",""
"","see_reward","","html-keyboard-response","339","1158535","0.0-350.0","0","0","OgF5m","People","","599","","","","32","","47","","51","","","","-1","","","","","3","","","","","0","599","","","","","","","","","","","","","","","","","","","","","","","","",""
"","reward_outcome","","html-keyboard-response","340","1160545","0.0-351.0","0","0","OgF5m","People","","699","","","","40","","47","","51","","","","","","","","","","","","","","","","-1","699","","","","","","","","","","","","","","","","","","","","","","",""
"","fixation","","html-keyboard-response","341","1161565","0.0-354.0","0","0","OgF5m","People","","null","","","","null","","","","","","","","","","","","","","","","","","","","","","","","","","","","","","","","","","","","","","","","","","","",""
"","see_reward","","html-keyboard-response","342","1162017","0.0-355.0","0","0","OgF5m","People","","452","","","","32","","37","","52","","","","-1","","","","","3","","","","","0","452","","","","","","","","","","","","","","","","","","","","","","","","",""
"","reward_outcome","","html-keyboard-response","343","1164039","0.0-356.0","0","0","OgF5m","People","","739","","","","40","","37","","52","","","","","","","","","","","","","","","","-1","739","","","","","","","","","","","","","","","","","","","","","","",""
"","fixation","","html-keyboard-response","344","1165053","0.0-359.0","0","0","OgF5m","People","","null","","","","null","","","","","","","","","","","","","","","","","","","","","","","","","","","","","","","","","","","","","","","","","","","",""
"","see_reward","","html-keyboard-response","345","1165676","0.0-360.0","0","0","OgF5m","People","","622","","","","32","","23","","53","","","","-1","","","","","3","","","","","0","622","","","","","","","","","","","","","","","","","","","","","","","","",""
"","reward_outcome","","html-keyboard-response","346","1167692","0.0-361.0","0","0","OgF5m","People","","687","","","","40","","23","","53","","","","","","","","","","","","","","","","-1","687","","","","","","","","","","","","","","","","","","","","","","",""
"","fixation","","html-keyboard-response","347","1168706","0.0-364.0","0","0","OgF5m","People","","null","","","","null","","","","","","","","","","","","","","","","","","","","","","","","","","","","","","","","","","","","","","","","","","","",""
"","see_reward","","html-keyboard-response","348","1169207","0.0-365.0","0","0","OgF5m","People","","499","","","","32","","31","","54","","","","-1","","","","","3","","","","","0","499","","","","","","","","","","","","","","","","","","","","","","","","",""
"","reward_outcome","","html-keyboard-response","349","1171221","0.0-366.0","0","0","OgF5m","People","","781","","","","40","","31","","54","","","","","","","","","","","","","","","","-1","781","","","","","","","","","","","","","","","","","","","","","","",""
"","fixation","","html-keyboard-response","350","1172239","0.0-369.0","0","0","OgF5m","People","","null","","","","null","","","","","","","","","","","","","","","","","","","","","","","","","","","","","","","","","","","","","","","","","","","",""
