"success","ttype","start_time","trial_type","trial_index","time_elapsed","internal_node_id","warning","missed_checkup","PID","stim_type","view_history","rt","responses","repeat_instructions","key_press","response","stimulus_id","painting","index","stimulus_left","stimulus_right","explain_trial","reward_type","rating_left","rating_right","painting_left","painting_right","block","left_chosen","chosen_obj","unchosen_obj","explain_response","reward_amount","see_reward_rt","register_reward_response","register_reward_rt","deliberation_reward_tally","stimulus_left_deliberation_ind","stimulus_right_deliberation_ind","chosen_trial","gain_left","higher_outcome_chosen","old_pair","chosen_object","rt_pairs","left_object_chosen","rt_object","old_response","new_rating","deliberated_stim","initial_rating","outcome_eval_rt","outcome_eval_response","outcome_eval_gain","outcome_eval_acc","preamble","outcome_eval_confidence","outcome_eval_confidence_rt","total_reward_tally"
"true","full_screen","d01192023hr2036","fullscreen","0","10974","0.0-0.0","0","0","1aJL1","Scenes","","","","","","","","","","","","","","","","","","","","","","","","","","","","","","","","","","","","","","","","","","","","","","","","",""
"","rating_instructions","","instructions","1","82348","0.0-1.0-0.0","0","0","1aJL1","Scenes","[{""page_index"":0,""viewing_time"":7990},{""page_index"":1,""viewing_time"":61176},{""page_index"":0,""viewing_time"":1063},{""page_index"":1,""viewing_time"":1143}]","71372","","","","","","","","","","","","","","","","","","","","","","","","","","","","","","","","","","","","","","","","","","","","","","",""
"","rating_comprehension_check","","survey-multi-choice","2","86886","0.0-1.0-1.0","0","0","1aJL1","Scenes","","4536","{""Q0"":""True"",""Q1"":""Mouse""}","0","","","","","","","","","","","","","","","","","","","","","","","","","","","","","","","","","","","","","","","","","","","","",""
"","start_phase","","html-keyboard-response","3","88581","0.0-2.0","0","0","1aJL1","Scenes","","1691","","","78","","","","","","","","","","","","","","","","","","","","","","","","","","","","","","","","","","","","","","","","","","","",""
"","rating","","html-slider-response","4","92504","0.0-3.0","0","0","1aJL1","Scenes","","3920","","","","100","134","milada-vigerova-pQMM63GE7fo-unsplash.jpg","0","","","","","","","","","","","","","","","","","","","","","","","","","","","","","","","","","","","","","","","",""
"","rating","","html-slider-response","5","94410","0.0-4.0","0","0","1aJL1","Scenes","","1905","","","","100","121","jean-pierre-brungs-qxCqkbF7tUc-unsplash.jpg","1","","","","","","","","","","","","","","","","","","","","","","","","","","","","","","","","","","","","","","","",""
"","rating","","html-slider-response","6","96294","0.0-5.0","0","0","1aJL1","Scenes","","1883","","","","100","125","john-lee-oMneOBYhJxY-unsplash.jpg","2","","","","","","","","","","","","","","","","","","","","","","","","","","","","","","","","","","","","","","","",""
"","rating","","html-slider-response","7","98568","0.0-6.0","0","0","1aJL1","Scenes","","2273","","","","100","104","artem-sapegin-XGDBdSQ70O0-unsplash.jpg","3","","","","","","","","","","","","","","","","","","","","","","","","","","","","","","","","","","","","","","","",""
"","rating","","html-slider-response","8","100937","0.0-7.0","0","0","1aJL1","Scenes","","2368","","","","100","147","tobias-keller-73F4pKoUkM0-unsplash.jpg","4","","","","","","","","","","","","","","","","","","","","","","","","","","","","","","","","","","","","","","","",""
"","rating","","html-slider-response","9","103360","0.0-8.0","0","0","1aJL1","Scenes","","2421","","","","74","106","ashim-d-silva-WeYamle9fDM-unsplash.jpg","5","","","","","","","","","","","","","","","","","","","","","","","","","","","","","","","","","","","","","","","",""
"","rating","","html-slider-response","10","105954","0.0-9.0","0","0","1aJL1","Scenes","","2593","","","","100","142","sergey-pesterev-y-b_FOmJXdg-unsplash.jpg","6","","","","","","","","","","","","","","","","","","","","","","","","","","","","","","","","","","","","","","","",""
"","rating","","html-slider-response","11","108037","0.0-10.0","0","0","1aJL1","Scenes","","2082","","","","100","128","karsten-wurth-jS0zC2PJ17A-unsplash.jpg","7","","","","","","","","","","","","","","","","","","","","","","","","","","","","","","","","","","","","","","","",""
"","rating","","html-slider-response","12","110673","0.0-11.0","0","0","1aJL1","Scenes","","2634","","","","81","111","claudio-testa-U3F2o6vz3bs-unsplash.jpg","8","","","","","","","","","","","","","","","","","","","","","","","","","","","","","","","","","","","","","","","",""
"","rating","","html-slider-response","13","112999","0.0-12.0","0","0","1aJL1","Scenes","","2324","","","","86","120","jarrett-kow-1ZOyYPOBn7I-unsplash.jpg","9","","","","","","","","","","","","","","","","","","","","","","","","","","","","","","","","","","","","","","","",""
"","rating","","html-slider-response","14","115310","0.0-13.0","0","0","1aJL1","Scenes","","2309","","","","90","100","aleksandra-boguslawska-MS7KD9Ti7FQ-unsplash.jpg","10","","","","","","","","","","","","","","","","","","","","","","","","","","","","","","","","","","","","","","","",""
"","rating","","html-slider-response","15","117254","0.0-14.0","0","0","1aJL1","Scenes","","1943","","","","66","105","ashim-d-silva-S2Q5mdOrrVc-unsplash.jpg","11","","","","","","","","","","","","","","","","","","","","","","","","","","","","","","","","","","","","","","","",""
"","rating","","html-slider-response","16","118897","0.0-15.0","0","0","1aJL1","Scenes","","1641","","","","57","102","anisur-rahman-K2b7UDed6uQ-unsplash.jpg","12","","","","","","","","","","","","","","","","","","","","","","","","","","","","","","","","","","","","","","","",""
"","rating","","html-slider-response","17","121257","0.0-16.0","0","0","1aJL1","Scenes","","2358","","","","56","113","damian-denis-D8R_txR_0PE-unsplash.jpg","13","","","","","","","","","","","","","","","","","","","","","","","","","","","","","","","","","","","","","","","",""
"","rating","","html-slider-response","18","123343","0.0-17.0","0","0","1aJL1","Scenes","","2084","","","","94","146","thomas-morse-cuKKa0vWZSY-unsplash.jpg","14","","","","","","","","","","","","","","","","","","","","","","","","","","","","","","","","","","","","","","","",""
"","rating","","html-slider-response","19","125683","0.0-18.0","0","0","1aJL1","Scenes","","2339","","","","100","139","samsommer-vddccTqwal8-unsplash.jpg","15","","","","","","","","","","","","","","","","","","","","","","","","","","","","","","","","","","","","","","","",""
"","rating","","html-slider-response","20","127393","0.0-19.0","0","0","1aJL1","Scenes","","1708","","","","83","119","james-wheeler-AFC0XvICMgs-unsplash.jpg","16","","","","","","","","","","","","","","","","","","","","","","","","","","","","","","","","","","","","","","","",""
"","rating","","html-slider-response","21","128811","0.0-20.0","0","0","1aJL1","Scenes","","1416","","","","71","103","anton-darius-FBJugtbHsWU-unsplash.jpg","17","","","","","","","","","","","","","","","","","","","","","","","","","","","","","","","","","","","","","","","",""
"","rating","","html-slider-response","22","130321","0.0-21.0","0","0","1aJL1","Scenes","","1508","","","","55","138","petr-vysohlid-9fqwGqGLUxc-unsplash.jpg","18","","","","","","","","","","","","","","","","","","","","","","","","","","","","","","","","","","","","","","","",""
"","rating","","html-slider-response","23","131799","0.0-22.0","0","0","1aJL1","Scenes","","1476","","","","63","118","henry-be-NLF6hTe4PAg-unsplash.jpg","19","","","","","","","","","","","","","","","","","","","","","","","","","","","","","","","","","","","","","","","",""
"","rating","","html-slider-response","24","133104","0.0-23.0","0","0","1aJL1","Scenes","","1305","","","","69","122","jeff-king-bJHWJeiHfHc-unsplash.jpg","20","","","","","","","","","","","","","","","","","","","","","","","","","","","","","","","","","","","","","","","",""
"","rating","","html-slider-response","25","134440","0.0-24.0","0","0","1aJL1","Scenes","","1334","","","","71","116","david-marcu-W5MhJ6cy1So-unsplash.jpg","21","","","","","","","","","","","","","","","","","","","","","","","","","","","","","","","","","","","","","","","",""
"","rating","","html-slider-response","26","136932","0.0-25.0","0","0","1aJL1","Scenes","","2491","","","","84","126","jordan-mcqueen-PJCZOWuOxbU-unsplash.jpg","22","","","","","","","","","","","","","","","","","","","","","","","","","","","","","","","","","","","","","","","",""
"","rating","","html-slider-response","27","138561","0.0-26.0","0","0","1aJL1","Scenes","","1628","","","","97","109","brigitta-schneiter-hXXRLtTxXCU-unsplash.jpg","23","","","","","","","","","","","","","","","","","","","","","","","","","","","","","","","","","","","","","","","",""
"","rating","","html-slider-response","28","140251","0.0-27.0","0","0","1aJL1","Scenes","","1689","","","","58","149","yuriy-bogdanov-W51VK3Obcj0-unsplash.jpg","24","","","","","","","","","","","","","","","","","","","","","","","","","","","","","","","","","","","","","","","",""
"","rating","","html-slider-response","29","141659","0.0-28.0","0","0","1aJL1","Scenes","","1406","","","","68","117","frank-mckenna-OD9EOzfSOh0-unsplash.jpg","25","","","","","","","","","","","","","","","","","","","","","","","","","","","","","","","","","","","","","","","",""
"","rating","","html-slider-response","30","143391","0.0-29.0","0","0","1aJL1","Scenes","","1730","","","","83","136","nicolas-jehly-LzVB84KkZOE-unsplash.jpg","26","","","","","","","","","","","","","","","","","","","","","","","","","","","","","","","","","","","","","","","",""
"","rating","","html-slider-response","31","145081","0.0-30.0","0","0","1aJL1","Scenes","","1689","","","","61","133","mickey-o-neil-xL66l--msXU-unsplash.jpg","27","","","","","","","","","","","","","","","","","","","","","","","","","","","","","","","","","","","","","","","",""
"","rating","","html-slider-response","32","146330","0.0-31.0","0","0","1aJL1","Scenes","","1248","","","","77","144","solotravelgoals-7kLufxYoqWk-unsplash.jpg","28","","","","","","","","","","","","","","","","","","","","","","","","","","","","","","","","","","","","","","","",""
"","rating","","html-slider-response","33","147867","0.0-32.0","0","0","1aJL1","Scenes","","1537","","","","84","145","stephen-leonardi-gyIRjKPXupE-unsplash.jpg","29","","","","","","","","","","","","","","","","","","","","","","","","","","","","","","","","","","","","","","","",""
"","rating","","html-slider-response","34","149077","0.0-33.0","0","0","1aJL1","Scenes","","1209","","","","69","112","cosmic-timetraveler-pYyOZ8q7AII-unsplash.jpg","30","","","","","","","","","","","","","","","","","","","","","","","","","","","","","","","","","","","","","","","",""
"","rating","","html-slider-response","35","150278","0.0-34.0","0","0","1aJL1","Scenes","","1199","","","","73","115","darrell-cassell-hoCXpPUMCoE-unsplash.jpg","31","","","","","","","","","","","","","","","","","","","","","","","","","","","","","","","","","","","","","","","",""
"","rating","","html-slider-response","36","151459","0.0-35.0","0","0","1aJL1","Scenes","","1180","","","","64","148","tom-gainor-ZqLeQDjY6fY-unsplash.jpg","32","","","","","","","","","","","","","","","","","","","","","","","","","","","","","","","","","","","","","","","",""
"","rating","","html-slider-response","37","152570","0.0-36.0","0","0","1aJL1","Scenes","","1109","","","","82","101","aniket-deole-T-tOgjWZ0fQ-unsplash.jpg","33","","","","","","","","","","","","","","","","","","","","","","","","","","","","","","","","","","","","","","","",""
"","rating","","html-slider-response","38","154449","0.0-37.0","0","0","1aJL1","Scenes","","1878","","","","40","129","kurt-cotoaga-cqbLg3lZEpk-unsplash.jpg","34","","","","","","","","","","","","","","","","","","","","","","","","","","","","","","","","","","","","","","","",""
"","rating","","html-slider-response","39","155436","0.0-38.0","0","0","1aJL1","Scenes","","986","","","","65","140","samuele-errico-piccarini-JEBqFu2AOOA-unsplash.jpg","35","","","","","","","","","","","","","","","","","","","","","","","","","","","","","","","","","","","","","","","",""
"","rating","","html-slider-response","40","157546","0.0-39.0","0","0","1aJL1","Scenes","","2109","","","","79","107","benjamin-davies-Zm2n2O7Fph4-unsplash.jpg","36","","","","","","","","","","","","","","","","","","","","","","","","","","","","","","","","","","","","","","","",""
"","rating","","html-slider-response","41","159658","0.0-40.0","0","0","1aJL1","Scenes","","2110","","","","66","143","sigurdur-fjalar-jonsson-1KxBabIntpE-unsplash.jpg","37","","","","","","","","","","","","","","","","","","","","","","","","","","","","","","","","","","","","","","","",""
"","rating","","html-slider-response","42","161289","0.0-41.0","0","0","1aJL1","Scenes","","1630","","","","78","123","joel-jasmin-forestbird-efuwb5eBDrI-unsplash.jpg","38","","","","","","","","","","","","","","","","","","","","","","","","","","","","","","","","","","","","","","","",""
"","rating","","html-slider-response","43","163454","0.0-42.0","0","0","1aJL1","Scenes","","2163","","","","90","108","benjamin-voros-phIFdC6lA4E-unsplash.jpg","39","","","","","","","","","","","","","","","","","","","","","","","","","","","","","","","","","","","","","","","",""
"","rating","","html-slider-response","44","165317","0.0-43.0","0","0","1aJL1","Scenes","","1862","","","","100","137","olga-stalska-QaWRyEdlffY-unsplash.jpg","40","","","","","","","","","","","","","","","","","","","","","","","","","","","","","","","","","","","","","","","",""
"","rating","","html-slider-response","45","167056","0.0-44.0","0","0","1aJL1","Scenes","","1738","","","","100","110","bruno-van-der-kraan-qez8mNJ3ilU-unsplash.jpg","41","","","","","","","","","","","","","","","","","","","","","","","","","","","","","","","","","","","","","","","",""
"","rating","","html-slider-response","46","168438","0.0-45.0","0","0","1aJL1","Scenes","","1380","","","","76","141","sebastian-unrau-v4e3JI7DDHI-unsplash.jpg","42","","","","","","","","","","","","","","","","","","","","","","","","","","","","","","","","","","","","","","","",""
"","rating","","html-slider-response","47","170500","0.0-46.0","0","0","1aJL1","Scenes","","2061","","","","88","135","mohammad-alizade-4wzRuAb-KWs-unsplash.jpg","43","","","","","","","","","","","","","","","","","","","","","","","","","","","","","","","","","","","","","","","",""
"","rating","","html-slider-response","48","172448","0.0-47.0","0","0","1aJL1","Scenes","","1947","","","","87","114","daniel-sessler-z_9VmsxR8hs-unsplash.jpg","44","","","","","","","","","","","","","","","","","","","","","","","","","","","","","","","","","","","","","","","",""
"","rating","","html-slider-response","49","174056","0.0-48.0","0","0","1aJL1","Scenes","","1607","","","","85","131","luca-bravo-hFzIoD0F_i8-unsplash.jpg","45","","","","","","","","","","","","","","","","","","","","","","","","","","","","","","","","","","","","","","","",""
"","rating","","html-slider-response","50","175553","0.0-49.0","0","0","1aJL1","Scenes","","1497","","","","77","132","meng-ji-8BH_M-53CyA-unsplash.jpg","46","","","","","","","","","","","","","","","","","","","","","","","","","","","","","","","","","","","","","","","",""
"","rating","","html-slider-response","51","177158","0.0-50.0","0","0","1aJL1","Scenes","","1603","","","","78","127","kace-rodriguez-p3OzJuT_Dks-unsplash.jpg","47","","","","","","","","","","","","","","","","","","","","","","","","","","","","","","","","","","","","","","","",""
"","rating","","html-slider-response","52","178672","0.0-51.0","0","0","1aJL1","Scenes","","1513","","","","82","130","lina-loos-04-C1NZk1hE-unsplash.jpg","48","","","","","","","","","","","","","","","","","","","","","","","","","","","","","","","","","","","","","","","",""
"","rating","","html-slider-response","53","180827","0.0-52.0","0","0","1aJL1","Scenes","","2154","","","","100","124","johannes-plenio-sPt5RIjKfpk-unsplash.jpg","49","","","","","","","","","","","","","","","","","","","","","","","","","","","","","","","","","","","","","","","",""
"","deliberation_instructions","","instructions","54","375082","0.0-53.0-0.0","0","0","1aJL1","Scenes","[{""page_index"":0,""viewing_time"":157854},{""page_index"":1,""viewing_time"":7445},{""page_index"":2,""viewing_time"":10828},{""page_index"":3,""viewing_time"":15897},{""page_index"":4,""viewing_time"":2228}]","194252","","","","","","","","","","","","","","","","","","","","","","","","","","","","","","","","","","","","","","","","","","","","","","",""
"","deliberation_comprehension_check","","survey-multi-choice","55","396865","0.0-53.0-1.0","0","0","1aJL1","Scenes","","21781","{""Q0"":""True"",""Q1"":""False"",""Q2"":""Consider carefully and take your time (up to 10 seconds)"",""Q3"":""True"",""Q4"":""D""}","1","","","","","","","","","","","","","","","","","","","","","","","","","","","","","","","","","","","","","","","","","","","","",""
"","missed_instruction_checkup","","html-keyboard-response","56","399399","0.0-53.0-2.0-0.0","0","1","1aJL1","Scenes","","2531","","","78","","","","","","","","","","","","","","","","","","","","","","","","","","","","","","","","","","","","","","","","","","","",""
"","deliberation_instructions","","instructions","57","439626","0.0-53.1-0.1","0","0","1aJL1","Scenes","[{""page_index"":0,""viewing_time"":1580},{""page_index"":1,""viewing_time"":10566},{""page_index"":2,""viewing_time"":13260},{""page_index"":3,""viewing_time"":13566},{""page_index"":4,""viewing_time"":1254}]","40226","","","","","","","","","","","","","","","","","","","","","","","","","","","","","","","","","","","","","","","","","","","","","","",""
"","deliberation_comprehension_check","","survey-multi-choice","58","461331","0.0-53.1-1.1","0","0","1aJL1","Scenes","","21702","{""Q0"":""True"",""Q1"":""True"",""Q2"":""Consider carefully and take your time (up to 10 seconds)"",""Q3"":""True"",""Q4"":""D""}","0","","","","","","","","","","","","","","","","","","","","","","","","","","","","","","","","","","","","","","","","","","","","",""
"","start_phase","","html-keyboard-response","59","462943","0.0-54.0","0","0","1aJL1","Scenes","","1611","","","78","","","","","","","","","","","","","","","","","","","","","","","","","","","","","","","","","","","","","","","","","","","",""
"","first_deliberation_block","","html-keyboard-response","60","466094","0.0-55.0","0","0","1aJL1","Scenes","","3150","","","78","","","","","","","","","","","","","","","","","","","","","","","","","","","","","","","","","","","","","","","","","","","",""
"","fixation","","html-keyboard-response","61","467102","0.0-56.0-0.0","0","0","1aJL1","Scenes","","null","","","null","","","","","","","","","","","","","","","","","","","","","","","","","","","","","","","","","","","","","","","","","","","",""
"","deliberation","","html-keyboard-response","62","470956","0.0-56.0-1.0","0","0","1aJL1","Scenes","","3852","","","68","","","","0","145","126","0","1","84","84","stephen-leonardi-gyIRjKPXupE-unsplash.jpg","jordan-mcqueen-PJCZOWuOxbU-unsplash.jpg","1","1","145","126","","","","","","","","","","","","","","","","","","","","","","","","","","","",""
"","choice_confirmation","","html-keyboard-response","63","471462","0.0-56.0-2.0-0.0","0","0","1aJL1","Scenes","","null","","","null","","","","0","145","126","","","","","","","","","","","","","","","","","","","","","","","","","","","","","","","","","","","","","",""
"","fixation","","html-keyboard-response","64","472471","0.0-57.0-0.0","0","0","1aJL1","Scenes","","null","","","null","","","","","","","","","","","","","","","","","","","","","","","","","","","","","","","","","","","","","","","","","","","",""
"","deliberation","","html-keyboard-response","65","474151","0.0-57.0-1.0","0","0","1aJL1","Scenes","","1679","","","68","","","","1","136","116","1","1","83","71","nicolas-jehly-LzVB84KkZOE-unsplash.jpg","david-marcu-W5MhJ6cy1So-unsplash.jpg","1","1","136","116","","","","","","","","","","","","","","","","","","","","","","","","","","","",""
"","choice_confirmation","","html-keyboard-response","66","474654","0.0-57.0-2.0-0.0","0","0","1aJL1","Scenes","","null","","","null","","","","1","136","116","","","","","","","","","","","","","","","","","","","","","","","","","","","","","","","","","","","","","",""
"","explain_trial","","survey-text","67","480725","0.0-57.0-5.0-0.0","0","0","1aJL1","Scenes","","6069","{""Q0"":""It is more unique""}","","","","","","1","136","116","","","","","","","","","","","{""Q0"":""It is more unique""}","","","","","","","","","","","","","","","","","","","","","","","","","","",""
"","fixation","","html-keyboard-response","68","481734","0.0-58.0-0.0","0","0","1aJL1","Scenes","","null","","","null","","","","","","","","","","","","","","","","","","","","","","","","","","","","","","","","","","","","","","","","","","","",""
"","deliberation","","html-keyboard-response","69","485448","0.0-58.0-1.0","0","0","1aJL1","Scenes","","3713","","","68","","","","2","119","123","1","1","83","78","james-wheeler-AFC0XvICMgs-unsplash.jpg","joel-jasmin-forestbird-efuwb5eBDrI-unsplash.jpg","1","1","119","123","","","","","","","","","","","","","","","","","","","","","","","","","","","",""
"","choice_confirmation","","html-keyboard-response","70","485950","0.0-58.0-2.0-0.0","0","0","1aJL1","Scenes","","null","","","null","","","","2","119","123","","","","","","","","","","","","","","","","","","","","","","","","","","","","","","","","","","","","","",""
"","explain_trial","","survey-text","71","500712","0.0-58.0-5.0-0.0","0","0","1aJL1","Scenes","","14760","{""Q0"":""I think there is more beautiful colors in this one""}","","","","","","2","119","123","","","","","","","","","","","{""Q0"":""I think there is more beautiful colors in this one""}","","","","","","","","","","","","","","","","","","","","","","","","","","",""
"","fixation","","html-keyboard-response","72","501718","0.0-59.0-0.0","0","0","1aJL1","Scenes","","null","","","null","","","","","","","","","","","","","","","","","","","","","","","","","","","","","","","","","","","","","","","","","","","",""
"","deliberation","","html-keyboard-response","73","508583","0.0-59.0-1.0","0","0","1aJL1","Scenes","","6863","","","68","","","","3","144","131","1","1","77","85","solotravelgoals-7kLufxYoqWk-unsplash.jpg","luca-bravo-hFzIoD0F_i8-unsplash.jpg","1","1","144","131","","","","","","","","","","","","","","","","","","","","","","","","","","","",""
"","choice_confirmation","","html-keyboard-response","74","509086","0.0-59.0-2.0-0.0","0","0","1aJL1","Scenes","","null","","","null","","","","3","144","131","","","","","","","","","","","","","","","","","","","","","","","","","","","","","","","","","","","","","",""
"","explain_trial","","survey-text","75","523246","0.0-59.0-5.0-0.0","0","0","1aJL1","Scenes","","14159","{""Q0"":""I can see it being more popular but they are both great""}","","","","","","3","144","131","","","","","","","","","","","{""Q0"":""I can see it being more popular but they are both great""}","","","","","","","","","","","","","","","","","","","","","","","","","","",""
"","fixation","","html-keyboard-response","76","524253","0.0-60.0-0.0","0","0","1aJL1","Scenes","","null","","","null","","","","","","","","","","","","","","","","","","","","","","","","","","","","","","","","","","","","","","","","","","","",""
"","deliberation","","html-keyboard-response","77","534262","0.0-60.0-1.0","0","0","1aJL1","Scenes","","null","","","null","","","","4","132","108","0","-1","77","90","meng-ji-8BH_M-53CyA-unsplash.jpg","benjamin-voros-phIFdC6lA4E-unsplash.jpg","1","","","","","","","","","","","","","","","","","","","","","","","","","","","","","","",""
"","deliberation_too_slow","","html-keyboard-response","78","535765","0.0-60.0-4.0-0.0","1","0","1aJL1","Scenes","","null","","","null","","","","4","","","","","","","","","","","","","","","","","","","","","","","","","","","","","","","","","","","","","","","",""
"","fixation","","html-keyboard-response","79","536774","0.0-60.1-0.1","0","0","1aJL1","Scenes","","null","","","null","","","","","","","","","","","","","","","","","","","","","","","","","","","","","","","","","","","","","","","","","","","",""
"","deliberation","","html-keyboard-response","80","540819","0.0-60.1-1.1","0","0","1aJL1","Scenes","","4043","","","75","","","","4","132","108","0","-1","77","90","meng-ji-8BH_M-53CyA-unsplash.jpg","benjamin-voros-phIFdC6lA4E-unsplash.jpg","1","0","108","132","","","","","","","","","","","","","","","","","","","","","","","","","","","",""
"","choice_confirmation","","html-keyboard-response","81","541326","0.0-60.1-2.1-0.1","0","0","1aJL1","Scenes","","null","","","null","","","","4","132","108","","","","","","","","","","","","","","","","","","","","","","","","","","","","","","","","","","","","","",""
"","fixation","","html-keyboard-response","82","542331","0.0-61.0-0.0","0","0","1aJL1","Scenes","","null","","","null","","","","","","","","","","","","","","","","","","","","","","","","","","","","","","","","","","","","","","","","","","","",""
"","deliberation","","html-keyboard-response","83","544916","0.0-61.0-1.0","0","0","1aJL1","Scenes","","2585","","","75","","","","5","111","130","0","1","81","82","claudio-testa-U3F2o6vz3bs-unsplash.jpg","lina-loos-04-C1NZk1hE-unsplash.jpg","1","0","130","111","","","","","","","","","","","","","","","","","","","","","","","","","","","",""
"","choice_confirmation","","html-keyboard-response","84","545422","0.0-61.0-2.0-0.0","0","0","1aJL1","Scenes","","null","","","null","","","","5","111","130","","","","","","","","","","","","","","","","","","","","","","","","","","","","","","","","","","","","","",""
"","fixation","","html-keyboard-response","85","546430","0.0-62.0-0.0","0","0","1aJL1","Scenes","","null","","","null","","","","","","","","","","","","","","","","","","","","","","","","","","","","","","","","","","","","","","","","","","","",""
"","deliberation","","html-keyboard-response","86","547989","0.0-62.0-1.0","0","0","1aJL1","Scenes","","1558","","","68","","","","6","127","120","1","-1","78","86","kace-rodriguez-p3OzJuT_Dks-unsplash.jpg","jarrett-kow-1ZOyYPOBn7I-unsplash.jpg","1","1","127","120","","","","","","","","","","","","","","","","","","","","","","","","","","","",""
"","choice_confirmation","","html-keyboard-response","87","548494","0.0-62.0-2.0-0.0","0","0","1aJL1","Scenes","","null","","","null","","","","6","127","120","","","","","","","","","","","","","","","","","","","","","","","","","","","","","","","","","","","","","",""
"","explain_trial","","survey-text","88","555673","0.0-62.0-5.0-0.0","0","0","1aJL1","Scenes","","7177","{""Q0"":""Makes me feel relaxed""}","","","","","","6","127","120","","","","","","","","","","","{""Q0"":""Makes me feel relaxed""}","","","","","","","","","","","","","","","","","","","","","","","","","","",""
"","fixation","","html-keyboard-response","89","556676","0.0-63.0-0.0","0","0","1aJL1","Scenes","","null","","","null","","","","","","","","","","","","","","","","","","","","","","","","","","","","","","","","","","","","","","","","","","","",""
"","deliberation","","html-keyboard-response","90","560941","0.0-63.0-1.0","0","0","1aJL1","Scenes","","4264","","","68","","","","7","135","107","1","-1","88","79","mohammad-alizade-4wzRuAb-KWs-unsplash.jpg","benjamin-davies-Zm2n2O7Fph4-unsplash.jpg","1","1","135","107","","","","","","","","","","","","","","","","","","","","","","","","","","","",""
"","choice_confirmation","","html-keyboard-response","91","561445","0.0-63.0-2.0-0.0","0","0","1aJL1","Scenes","","null","","","null","","","","7","135","107","","","","","","","","","","","","","","","","","","","","","","","","","","","","","","","","","","","","","",""
"","explain_trial","","survey-text","92","572081","0.0-63.0-5.0-0.0","0","0","1aJL1","Scenes","","10634","{""Q0"":""I enjoy space and sky photography""}","","","","","","7","135","107","","","","","","","","","","","{""Q0"":""I enjoy space and sky photography""}","","","","","","","","","","","","","","","","","","","","","","","","","","",""
"","fixation","","html-keyboard-response","93","573087","0.0-64.0-0.0","0","0","1aJL1","Scenes","","null","","","null","","","","","","","","","","","","","","","","","","","","","","","","","","","","","","","","","","","","","","","","","","","",""
"","deliberation","","html-keyboard-response","94","577512","0.0-64.0-1.0","0","0","1aJL1","Scenes","","4425","","","68","","","","8","101","106","1","1","82","74","aniket-deole-T-tOgjWZ0fQ-unsplash.jpg","ashim-d-silva-WeYamle9fDM-unsplash.jpg","1","1","101","106","","","","","","","","","","","","","","","","","","","","","","","","","","","",""
"","choice_confirmation","","html-keyboard-response","95","578014","0.0-64.0-2.0-0.0","0","0","1aJL1","Scenes","","null","","","null","","","","8","101","106","","","","","","","","","","","","","","","","","","","","","","","","","","","","","","","","","","","","","",""
"","explain_trial","","survey-text","96","589705","0.0-64.0-5.0-0.0","0","0","1aJL1","Scenes","","11689","{""Q0"":""I enjoyed it more""}","","","","","","8","101","106","","","","","","","","","","","{""Q0"":""I enjoyed it more""}","","","","","","","","","","","","","","","","","","","","","","","","","","",""
"","fixation","","html-keyboard-response","97","590711","0.0-65.0-0.0","0","0","1aJL1","Scenes","","null","","","null","","","","","","","","","","","","","","","","","","","","","","","","","","","","","","","","","","","","","","","","","","","",""
"","deliberation","","html-keyboard-response","98","595375","0.0-65.0-1.0","0","0","1aJL1","Scenes","","4663","","","68","","","","9","141","103","0","-1","76","71","sebastian-unrau-v4e3JI7DDHI-unsplash.jpg","anton-darius-FBJugtbHsWU-unsplash.jpg","1","1","141","103","","","","","","","","","","","","","","","","","","","","","","","","","","","",""
"","choice_confirmation","","html-keyboard-response","99","595878","0.0-65.0-2.0-0.0","0","0","1aJL1","Scenes","","null","","","null","","","","9","141","103","","","","","","","","","","","","","","","","","","","","","","","","","","","","","","","","","","","","","",""
"","fixation","","html-keyboard-response","100","596886","0.0-66.0-0.0","0","0","1aJL1","Scenes","","null","","","null","","","","","","","","","","","","","","","","","","","","","","","","","","","","","","","","","","","","","","","","","","","",""
"","deliberation","","html-keyboard-response","101","598816","0.0-66.0-1.0","0","0","1aJL1","Scenes","","1928","","","68","","","","10","112","114","0","-1","69","87","cosmic-timetraveler-pYyOZ8q7AII-unsplash.jpg","daniel-sessler-z_9VmsxR8hs-unsplash.jpg","1","1","112","114","","","","","","","","","","","","","","","","","","","","","","","","","","","",""
"","choice_confirmation","","html-keyboard-response","102","599319","0.0-66.0-2.0-0.0","0","0","1aJL1","Scenes","","null","","","null","","","","10","112","114","","","","","","","","","","","","","","","","","","","","","","","","","","","","","","","","","","","","","",""
"","fixation","","html-keyboard-response","103","600326","0.0-67.0-0.0","0","0","1aJL1","Scenes","","null","","","null","","","","","","","","","","","","","","","","","","","","","","","","","","","","","","","","","","","","","","","","","","","",""
"","deliberation","","html-keyboard-response","104","602480","0.0-67.0-1.0","0","0","1aJL1","Scenes","","2153","","","75","","","","11","100","115","0","-1","90","73","aleksandra-boguslawska-MS7KD9Ti7FQ-unsplash.jpg","darrell-cassell-hoCXpPUMCoE-unsplash.jpg","1","0","115","100","","","","","","","","","","","","","","","","","","","","","","","","","","","",""
"","choice_confirmation","","html-keyboard-response","105","602983","0.0-67.0-2.0-0.0","0","0","1aJL1","Scenes","","null","","","null","","","","11","100","115","","","","","","","","","","","","","","","","","","","","","","","","","","","","","","","","","","","","","",""
"","practice_deliberation_again","","html-keyboard-response","106","605807","0.0-67.0-6.0-0.0","0","0","1aJL1","Scenes","","2822","","","78","","","","","","","","","","","","","","","","","","","","","","","","","","","","","","","","","","","","","","","","","","","",""
"","fixation","","html-keyboard-response","107","606815","0.0-68.0-0.0","0","0","1aJL1","Scenes","","null","","","null","","","","","","","","","","","","","","","","","","","","","","","","","","","","","","","","","","","","","","","","","","","",""
"","deliberation","","html-keyboard-response","108","609806","0.0-68.0-1.0","0","0","1aJL1","Scenes","","2990","","","68","","","","12","119","123","0","1","83","78","james-wheeler-AFC0XvICMgs-unsplash.jpg","joel-jasmin-forestbird-efuwb5eBDrI-unsplash.jpg","2","1","119","123","","","","","","","","","","","","","","","","","","","","","","","","","","","",""
"","choice_confirmation","","html-keyboard-response","109","610310","0.0-68.0-2.0-0.0","0","0","1aJL1","Scenes","","null","","","null","","","","12","119","123","","","","","","","","","","","","","","","","","","","","","","","","","","","","","","","","","","","","","",""
"","fixation","","html-keyboard-response","110","611319","0.0-69.0-0.0","0","0","1aJL1","Scenes","","null","","","null","","","","","","","","","","","","","","","","","","","","","","","","","","","","","","","","","","","","","","","","","","","",""
"","deliberation","","html-keyboard-response","111","612686","0.0-69.0-1.0","0","0","1aJL1","Scenes","","1366","","","68","","","","13","127","120","0","-1","78","86","kace-rodriguez-p3OzJuT_Dks-unsplash.jpg","jarrett-kow-1ZOyYPOBn7I-unsplash.jpg","2","1","127","120","","","","","","","","","","","","","","","","","","","","","","","","","","","",""
"","choice_confirmation","","html-keyboard-response","112","613191","0.0-69.0-2.0-0.0","0","0","1aJL1","Scenes","","null","","","null","","","","13","127","120","","","","","","","","","","","","","","","","","","","","","","","","","","","","","","","","","","","","","",""
"","fixation","","html-keyboard-response","113","614198","0.0-70.0-0.0","0","0","1aJL1","Scenes","","null","","","null","","","","","","","","","","","","","","","","","","","","","","","","","","","","","","","","","","","","","","","","","","","",""
"","deliberation","","html-keyboard-response","114","615143","0.0-70.0-1.0","0","0","1aJL1","Scenes","","944","","","68","","","","14","112","114","1","-1","69","87","cosmic-timetraveler-pYyOZ8q7AII-unsplash.jpg","daniel-sessler-z_9VmsxR8hs-unsplash.jpg","2","1","112","114","","","","","","","","","","","","","","","","","","","","","","","","","","","",""
"","choice_confirmation","","html-keyboard-response","115","615646","0.0-70.0-2.0-0.0","0","0","1aJL1","Scenes","","null","","","null","","","","14","112","114","","","","","","","","","","","","","","","","","","","","","","","","","","","","","","","","","","","","","",""
"","explain_trial","","survey-text","116","624135","0.0-70.0-5.0-0.0","0","0","1aJL1","Scenes","","8487","{""Q0"":""I love the colors""}","","","","","","14","112","114","","","","","","","","","","","{""Q0"":""I love the colors""}","","","","","","","","","","","","","","","","","","","","","","","","","","",""
"","fixation","","html-keyboard-response","117","625142","0.0-71.0-0.0","0","0","1aJL1","Scenes","","null","","","null","","","","","","","","","","","","","","","","","","","","","","","","","","","","","","","","","","","","","","","","","","","",""
"","deliberation","","html-keyboard-response","118","627102","0.0-71.0-1.0","0","0","1aJL1","Scenes","","1958","","","75","","","","15","111","130","1","1","81","82","claudio-testa-U3F2o6vz3bs-unsplash.jpg","lina-loos-04-C1NZk1hE-unsplash.jpg","2","0","130","111","","","","","","","","","","","","","","","","","","","","","","","","","","","",""
"","choice_confirmation","","html-keyboard-response","119","627607","0.0-71.0-2.0-0.0","0","0","1aJL1","Scenes","","null","","","null","","","","15","111","130","","","","","","","","","","","","","","","","","","","","","","","","","","","","","","","","","","","","","",""
"","explain_trial","","survey-text","120","926020","0.0-71.0-5.0-0.0","0","0","1aJL1","Scenes","","298411","{""Q0"":""Really great birds eye view""}","","","","","","15","111","130","","","","","","","","","","","{""Q0"":""Really great birds eye view""}","","","","","","","","","","","","","","","","","","","","","","","","","","",""
"","fixation","","html-keyboard-response","121","927030","0.0-72.0-0.0","0","0","1aJL1","Scenes","","null","","","null","","","","","","","","","","","","","","","","","","","","","","","","","","","","","","","","","","","","","","","","","","","",""
"","deliberation","","html-keyboard-response","122","929674","0.0-72.0-1.0","0","0","1aJL1","Scenes","","2643","","","68","","","","16","101","106","0","1","82","74","aniket-deole-T-tOgjWZ0fQ-unsplash.jpg","ashim-d-silva-WeYamle9fDM-unsplash.jpg","2","1","101","106","","","","","","","","","","","","","","","","","","","","","","","","","","","",""
"","choice_confirmation","","html-keyboard-response","123","930182","0.0-72.0-2.0-0.0","0","0","1aJL1","Scenes","","null","","","null","","","","16","101","106","","","","","","","","","","","","","","","","","","","","","","","","","","","","","","","","","","","","","",""
"","fixation","","html-keyboard-response","124","931190","0.0-73.0-0.0","0","0","1aJL1","Scenes","","null","","","null","","","","","","","","","","","","","","","","","","","","","","","","","","","","","","","","","","","","","","","","","","","",""
"","deliberation","","html-keyboard-response","125","933869","0.0-73.0-1.0","0","0","1aJL1","Scenes","","2678","","","68","","","","17","135","107","0","-1","88","79","mohammad-alizade-4wzRuAb-KWs-unsplash.jpg","benjamin-davies-Zm2n2O7Fph4-unsplash.jpg","2","1","135","107","","","","","","","","","","","","","","","","","","","","","","","","","","","",""
"","choice_confirmation","","html-keyboard-response","126","934375","0.0-73.0-2.0-0.0","0","0","1aJL1","Scenes","","null","","","null","","","","17","135","107","","","","","","","","","","","","","","","","","","","","","","","","","","","","","","","","","","","","","",""
"","fixation","","html-keyboard-response","127","935382","0.0-74.0-0.0","0","0","1aJL1","Scenes","","null","","","null","","","","","","","","","","","","","","","","","","","","","","","","","","","","","","","","","","","","","","","","","","","",""
"","deliberation","","html-keyboard-response","128","938442","0.0-74.0-1.0","0","0","1aJL1","Scenes","","3059","","","75","","","","18","132","108","1","-1","77","90","meng-ji-8BH_M-53CyA-unsplash.jpg","benjamin-voros-phIFdC6lA4E-unsplash.jpg","2","0","108","132","","","","","","","","","","","","","","","","","","","","","","","","","","","",""
"","choice_confirmation","","html-keyboard-response","129","938950","0.0-74.0-2.0-0.0","0","0","1aJL1","Scenes","","null","","","null","","","","18","132","108","","","","","","","","","","","","","","","","","","","","","","","","","","","","","","","","","","","","","",""
"","explain_trial","","survey-text","130","948017","0.0-74.0-5.0-0.0","0","0","1aJL1","Scenes","","9066","{""Q0"":""I enjoy space and sky photography""}","","","","","","18","132","108","","","","","","","","","","","{""Q0"":""I enjoy space and sky photography""}","","","","","","","","","","","","","","","","","","","","","","","","","","",""
"","fixation","","html-keyboard-response","131","949021","0.0-75.0-0.0","0","0","1aJL1","Scenes","","null","","","null","","","","","","","","","","","","","","","","","","","","","","","","","","","","","","","","","","","","","","","","","","","",""
"","deliberation","","html-keyboard-response","132","953174","0.0-75.0-1.0","0","0","1aJL1","Scenes","","4151","","","68","","","","19","145","126","1","1","84","84","stephen-leonardi-gyIRjKPXupE-unsplash.jpg","jordan-mcqueen-PJCZOWuOxbU-unsplash.jpg","2","1","145","126","","","","","","","","","","","","","","","","","","","","","","","","","","","",""
"","choice_confirmation","","html-keyboard-response","133","953678","0.0-75.0-2.0-0.0","0","0","1aJL1","Scenes","","null","","","null","","","","19","145","126","","","","","","","","","","","","","","","","","","","","","","","","","","","","","","","","","","","","","",""
"","explain_trial","","survey-text","134","963901","0.0-75.0-5.0-0.0","0","0","1aJL1","Scenes","","10222","{""Q0"":""Really cozy feeling looks amazing for a walk""}","","","","","","19","145","126","","","","","","","","","","","{""Q0"":""Really cozy feeling looks amazing for a walk""}","","","","","","","","","","","","","","","","","","","","","","","","","","",""
"","fixation","","html-keyboard-response","135","964911","0.0-76.0-0.0","0","0","1aJL1","Scenes","","null","","","null","","","","","","","","","","","","","","","","","","","","","","","","","","","","","","","","","","","","","","","","","","","",""
"","deliberation","","html-keyboard-response","136","971514","0.0-76.0-1.0","0","0","1aJL1","Scenes","","6602","","","68","","","","20","144","131","0","1","77","85","solotravelgoals-7kLufxYoqWk-unsplash.jpg","luca-bravo-hFzIoD0F_i8-unsplash.jpg","2","1","144","131","","","","","","","","","","","","","","","","","","","","","","","","","","","",""
"","choice_confirmation","","html-keyboard-response","137","972022","0.0-76.0-2.0-0.0","0","0","1aJL1","Scenes","","null","","","null","","","","20","144","131","","","","","","","","","","","","","","","","","","","","","","","","","","","","","","","","","","","","","",""
"","fixation","","html-keyboard-response","138","973030","0.0-77.0-0.0","0","0","1aJL1","Scenes","","null","","","null","","","","","","","","","","","","","","","","","","","","","","","","","","","","","","","","","","","","","","","","","","","",""
"","deliberation","","html-keyboard-response","139","975912","0.0-77.0-1.0","0","0","1aJL1","Scenes","","2881","","","68","","","","21","100","115","1","-1","90","73","aleksandra-boguslawska-MS7KD9Ti7FQ-unsplash.jpg","darrell-cassell-hoCXpPUMCoE-unsplash.jpg","2","1","100","115","","","","","","","","","","","","","","","","","","","","","","","","","","","",""
"","choice_confirmation","","html-keyboard-response","140","976414","0.0-77.0-2.0-0.0","0","0","1aJL1","Scenes","","null","","","null","","","","21","100","115","","","","","","","","","","","","","","","","","","","","","","","","","","","","","","","","","","","","","",""
"","explain_trial","","survey-text","141","983143","0.0-77.0-5.0-0.0","0","0","1aJL1","Scenes","","6728","{""Q0"":""More unique then the other choice""}","","","","","","21","100","115","","","","","","","","","","","{""Q0"":""More unique then the other choice""}","","","","","","","","","","","","","","","","","","","","","","","","","","",""
"","fixation","","html-keyboard-response","142","984150","0.0-78.0-0.0","0","0","1aJL1","Scenes","","null","","","null","","","","","","","","","","","","","","","","","","","","","","","","","","","","","","","","","","","","","","","","","","","",""
"","deliberation","","html-keyboard-response","143","994159","0.0-78.0-1.0","0","0","1aJL1","Scenes","","null","","","null","","","","22","136","116","0","1","83","71","nicolas-jehly-LzVB84KkZOE-unsplash.jpg","david-marcu-W5MhJ6cy1So-unsplash.jpg","2","","","","","","","","","","","","","","","","","","","","","","","","","","","","","","",""
"","deliberation_too_slow","","html-keyboard-response","144","995660","0.0-78.0-4.0-0.0","1","0","1aJL1","Scenes","","null","","","null","","","","22","","","","","","","","","","","","","","","","","","","","","","","","","","","","","","","","","","","","","","","",""
"","fixation","","html-keyboard-response","145","996664","0.0-78.1-0.1","0","0","1aJL1","Scenes","","null","","","null","","","","","","","","","","","","","","","","","","","","","","","","","","","","","","","","","","","","","","","","","","","",""
"","deliberation","","html-keyboard-response","146","1000092","0.0-78.1-1.1","0","0","1aJL1","Scenes","","3426","","","68","","","","22","136","116","0","1","83","71","nicolas-jehly-LzVB84KkZOE-unsplash.jpg","david-marcu-W5MhJ6cy1So-unsplash.jpg","2","1","136","116","","","","","","","","","","","","","","","","","","","","","","","","","","","",""
"","choice_confirmation","","html-keyboard-response","147","1000599","0.0-78.1-2.1-0.1","0","0","1aJL1","Scenes","","null","","","null","","","","22","136","116","","","","","","","","","","","","","","","","","","","","","","","","","","","","","","","","","","","","","",""
"","fixation","","html-keyboard-response","148","1001606","0.0-79.0-0.0","0","0","1aJL1","Scenes","","null","","","null","","","","","","","","","","","","","","","","","","","","","","","","","","","","","","","","","","","","","","","","","","","",""
"","deliberation","","html-keyboard-response","149","1004284","0.0-79.0-1.0","0","0","1aJL1","Scenes","","2676","","","68","","","","23","141","103","1","-1","76","71","sebastian-unrau-v4e3JI7DDHI-unsplash.jpg","anton-darius-FBJugtbHsWU-unsplash.jpg","2","1","141","103","","","","","","","","","","","","","","","","","","","","","","","","","","","",""
"","choice_confirmation","","html-keyboard-response","150","1004790","0.0-79.0-2.0-0.0","0","0","1aJL1","Scenes","","null","","","null","","","","23","141","103","","","","","","","","","","","","","","","","","","","","","","","","","","","","","","","","","","","","","",""
"","explain_trial","","survey-text","151","1595101","0.0-79.0-5.0-0.0","0","0","1aJL1","Scenes","","590309","{""Q0"":""Very cozy fall vibes are my favorite""}","","","","","","23","141","103","","","","","","","","","","","{""Q0"":""Very cozy fall vibes are my favorite""}","","","","","","","","","","","","","","","","","","","","","","","","","","",""
"","start_critical_deliberation_block","","html-keyboard-response","152","1599855","0.0-79.0-7.0-0.0","0","0","1aJL1","Scenes","","4753","","","78","","","","","","","","","","","","","","","","","","","","","","","","","","","","","","","","","","","","","","","","","","","",""
"","fixation","","html-keyboard-response","153","1600863","0.0-80.0-0.0","0","0","1aJL1","Scenes","","null","","","null","","","","","","","","","","","","","","","","","","","","","","","","","","","","","","","","","","","","","","","","","","","",""
"","deliberation","","html-keyboard-response","154","1603618","0.0-80.0-1.0","0","0","1aJL1","Scenes","","2753","","","68","","","","24","135","107","0","-1","88","79","mohammad-alizade-4wzRuAb-KWs-unsplash.jpg","benjamin-davies-Zm2n2O7Fph4-unsplash.jpg","3","1","135","107","","","","","","","","","","","","","","","","","","","","","","","","","","","",""
"","choice_confirmation","","html-keyboard-response","155","1604126","0.0-80.0-2.0-0.0","0","0","1aJL1","Scenes","","null","","","null","","","","24","135","107","","","","","","","","","","","","","","","","","","","","","","","","","","","","","","","","","","","","","",""
"","fixation","","html-keyboard-response","156","1605135","0.0-81.0-0.0","0","0","1aJL1","Scenes","","null","","","null","","","","","","","","","","","","","","","","","","","","","","","","","","","","","","","","","","","","","","","","","","","",""
"","deliberation","","html-keyboard-response","157","1606851","0.0-81.0-1.0","0","0","1aJL1","Scenes","","1715","","","68","","","","25","127","120","0","-1","78","86","kace-rodriguez-p3OzJuT_Dks-unsplash.jpg","jarrett-kow-1ZOyYPOBn7I-unsplash.jpg","3","1","127","120","","","","","","","","","","","","","","","","","","","","","","","","","","","",""
"","choice_confirmation","","html-keyboard-response","158","1607358","0.0-81.0-2.0-0.0","0","0","1aJL1","Scenes","","null","","","null","","","","25","127","120","","","","","","","","","","","","","","","","","","","","","","","","","","","","","","","","","","","","","",""
"","fixation","","html-keyboard-response","159","1608366","0.0-82.0-0.0","0","0","1aJL1","Scenes","","null","","","null","","","","","","","","","","","","","","","","","","","","","","","","","","","","","","","","","","","","","","","","","","","",""
"","deliberation","","html-keyboard-response","160","1609588","0.0-82.0-1.0","0","0","1aJL1","Scenes","","1221","","","75","","","","26","132","108","0","-1","77","90","meng-ji-8BH_M-53CyA-unsplash.jpg","benjamin-voros-phIFdC6lA4E-unsplash.jpg","3","0","108","132","","","","","","","","","","","","","","","","","","","","","","","","","","","",""
"","choice_confirmation","","html-keyboard-response","161","1610094","0.0-82.0-2.0-0.0","0","0","1aJL1","Scenes","","null","","","null","","","","26","132","108","","","","","","","","","","","","","","","","","","","","","","","","","","","","","","","","","","","","","",""
"","fixation","","html-keyboard-response","162","1611102","0.0-83.0-0.0","0","0","1aJL1","Scenes","","null","","","null","","","","","","","","","","","","","","","","","","","","","","","","","","","","","","","","","","","","","","","","","","","",""
"","deliberation","","html-keyboard-response","163","1612469","0.0-83.0-1.0","0","0","1aJL1","Scenes","","1367","","","68","","","","27","145","126","0","1","84","84","stephen-leonardi-gyIRjKPXupE-unsplash.jpg","jordan-mcqueen-PJCZOWuOxbU-unsplash.jpg","3","1","145","126","","","","","","","","","","","","","","","","","","","","","","","","","","","",""
"","choice_confirmation","","html-keyboard-response","164","1612975","0.0-83.0-2.0-0.0","0","0","1aJL1","Scenes","","null","","","null","","","","27","145","126","","","","","","","","","","","","","","","","","","","","","","","","","","","","","","","","","","","","","",""
"","fixation","","html-keyboard-response","165","1613982","0.0-84.0-0.0","0","0","1aJL1","Scenes","","null","","","null","","","","","","","","","","","","","","","","","","","","","","","","","","","","","","","","","","","","","","","","","","","",""
"","deliberation","","html-keyboard-response","166","1615337","0.0-84.0-1.0","0","0","1aJL1","Scenes","","1354","","","68","","","","28","119","123","0","1","83","78","james-wheeler-AFC0XvICMgs-unsplash.jpg","joel-jasmin-forestbird-efuwb5eBDrI-unsplash.jpg","3","1","119","123","","","","","","","","","","","","","","","","","","","","","","","","","","","",""
"","choice_confirmation","","html-keyboard-response","167","1615839","0.0-84.0-2.0-0.0","0","0","1aJL1","Scenes","","null","","","null","","","","28","119","123","","","","","","","","","","","","","","","","","","","","","","","","","","","","","","","","","","","","","",""
"","fixation","","html-keyboard-response","168","1616846","0.0-85.0-0.0","0","0","1aJL1","Scenes","","null","","","null","","","","","","","","","","","","","","","","","","","","","","","","","","","","","","","","","","","","","","","","","","","",""
"","deliberation","","html-keyboard-response","169","1618962","0.0-85.0-1.0","0","0","1aJL1","Scenes","","2114","","","68","","","","29","141","103","0","-1","76","71","sebastian-unrau-v4e3JI7DDHI-unsplash.jpg","anton-darius-FBJugtbHsWU-unsplash.jpg","3","1","141","103","","","","","","","","","","","","","","","","","","","","","","","","","","","",""
"","choice_confirmation","","html-keyboard-response","170","1619470","0.0-85.0-2.0-0.0","0","0","1aJL1","Scenes","","null","","","null","","","","29","141","103","","","","","","","","","","","","","","","","","","","","","","","","","","","","","","","","","","","","","",""
"","fixation","","html-keyboard-response","171","1620479","0.0-86.0-0.0","0","0","1aJL1","Scenes","","null","","","null","","","","","","","","","","","","","","","","","","","","","","","","","","","","","","","","","","","","","","","","","","","",""
"","deliberation","","html-keyboard-response","172","1624814","0.0-86.0-1.0","0","0","1aJL1","Scenes","","4334","","","75","","","","30","100","115","0","-1","90","73","aleksandra-boguslawska-MS7KD9Ti7FQ-unsplash.jpg","darrell-cassell-hoCXpPUMCoE-unsplash.jpg","3","0","115","100","","","","","","","","","","","","","","","","","","","","","","","","","","","",""
"","choice_confirmation","","html-keyboard-response","173","1625319","0.0-86.0-2.0-0.0","0","0","1aJL1","Scenes","","null","","","null","","","","30","100","115","","","","","","","","","","","","","","","","","","","","","","","","","","","","","","","","","","","","","",""
"","fixation","","html-keyboard-response","174","1626327","0.0-87.0-0.0","0","0","1aJL1","Scenes","","null","","","null","","","","","","","","","","","","","","","","","","","","","","","","","","","","","","","","","","","","","","","","","","","",""
"","deliberation","","html-keyboard-response","175","1629663","0.0-87.0-1.0","0","0","1aJL1","Scenes","","3335","","","68","","","","31","101","106","0","1","82","74","aniket-deole-T-tOgjWZ0fQ-unsplash.jpg","ashim-d-silva-WeYamle9fDM-unsplash.jpg","3","1","101","106","","","","","","","","","","","","","","","","","","","","","","","","","","","",""
"","choice_confirmation","","html-keyboard-response","176","1630167","0.0-87.0-2.0-0.0","0","0","1aJL1","Scenes","","null","","","null","","","","31","101","106","","","","","","","","","","","","","","","","","","","","","","","","","","","","","","","","","","","","","",""
"","fixation","","html-keyboard-response","177","1631174","0.0-88.0-0.0","0","0","1aJL1","Scenes","","null","","","null","","","","","","","","","","","","","","","","","","","","","","","","","","","","","","","","","","","","","","","","","","","",""
"","deliberation","","html-keyboard-response","178","1633832","0.0-88.0-1.0","0","0","1aJL1","Scenes","","2658","","","75","","","","32","144","131","0","1","77","85","solotravelgoals-7kLufxYoqWk-unsplash.jpg","luca-bravo-hFzIoD0F_i8-unsplash.jpg","3","0","131","144","","","","","","","","","","","","","","","","","","","","","","","","","","","",""
"","choice_confirmation","","html-keyboard-response","179","1634335","0.0-88.0-2.0-0.0","0","0","1aJL1","Scenes","","null","","","null","","","","32","144","131","","","","","","","","","","","","","","","","","","","","","","","","","","","","","","","","","","","","","",""
"","fixation","","html-keyboard-response","180","1635342","0.0-89.0-0.0","0","0","1aJL1","Scenes","","null","","","null","","","","","","","","","","","","","","","","","","","","","","","","","","","","","","","","","","","","","","","","","","","",""
"","deliberation","","html-keyboard-response","181","1636566","0.0-89.0-1.0","0","0","1aJL1","Scenes","","1222","","","75","","","","33","111","130","0","1","81","82","claudio-testa-U3F2o6vz3bs-unsplash.jpg","lina-loos-04-C1NZk1hE-unsplash.jpg","3","0","130","111","","","","","","","","","","","","","","","","","","","","","","","","","","","",""
"","choice_confirmation","","html-keyboard-response","182","1637070","0.0-89.0-2.0-0.0","0","0","1aJL1","Scenes","","null","","","null","","","","33","111","130","","","","","","","","","","","","","","","","","","","","","","","","","","","","","","","","","","","","","",""
"","fixation","","html-keyboard-response","183","1638078","0.0-90.0-0.0","0","0","1aJL1","Scenes","","null","","","null","","","","","","","","","","","","","","","","","","","","","","","","","","","","","","","","","","","","","","","","","","","",""
"","deliberation","","html-keyboard-response","184","1639456","0.0-90.0-1.0","0","0","1aJL1","Scenes","","1376","","","68","","","","34","136","116","0","1","83","71","nicolas-jehly-LzVB84KkZOE-unsplash.jpg","david-marcu-W5MhJ6cy1So-unsplash.jpg","3","1","136","116","","","","","","","","","","","","","","","","","","","","","","","","","","","",""
"","choice_confirmation","","html-keyboard-response","185","1639959","0.0-90.0-2.0-0.0","0","0","1aJL1","Scenes","","null","","","null","","","","34","136","116","","","","","","","","","","","","","","","","","","","","","","","","","","","","","","","","","","","","","",""
"","fixation","","html-keyboard-response","186","1640966","0.0-91.0-0.0","0","0","1aJL1","Scenes","","null","","","null","","","","","","","","","","","","","","","","","","","","","","","","","","","","","","","","","","","","","","","","","","","",""
"","deliberation","","html-keyboard-response","187","1642019","0.0-91.0-1.0","0","0","1aJL1","Scenes","","1051","","","68","","","","35","112","114","0","-1","69","87","cosmic-timetraveler-pYyOZ8q7AII-unsplash.jpg","daniel-sessler-z_9VmsxR8hs-unsplash.jpg","3","1","112","114","","","","","","","","","","","","","","","","","","","","","","","","","","","",""
"","choice_confirmation","","html-keyboard-response","188","1642526","0.0-91.0-2.0-0.0","0","0","1aJL1","Scenes","","null","","","null","","","","35","112","114","","","","","","","","","","","","","","","","","","","","","","","","","","","","","","","","","","","","","",""
"","reward_learning_instructions","","instructions","189","1685907","0.0-92.0-0.0","0","0","1aJL1","Scenes","[{""page_index"":0,""viewing_time"":17620},{""page_index"":1,""viewing_time"":23732},{""page_index"":2,""viewing_time"":2028}]","43380","","","","","","","","","","","","","","","","","","","","","","","","","","","","","","","","","","","","","","","","","","","","","","",""
"","reward_comprehension_check","","survey-multi-choice","190","1698054","0.0-92.0-1.0","0","0","1aJL1","Scenes","","12144","{""Q0"":""True"",""Q1"":""True"",""Q2"":""Press the space bar to see its outcome"",""Q3"":""Press the relevant key while the outcome is presented""}","0","","","","","","","","","","","","","","","","","","","","","","","","","","","","","","","","","","","","","","","","","","","","",""
"","start_phase","","html-keyboard-response","191","1700496","0.0-93.0","0","0","1aJL1","Scenes","","2440","","","78","","","","","","","","","","","","","","","","","","","","","","","","","","","","","","","","","","","","","","","","","","","",""
"","fixation","","html-keyboard-response","192","1701502","0.0-94.0","0","0","1aJL1","Scenes","","null","","","null","","","","","","","","","","","","","","","","","","","","","","","","","","","","","","","","","","","","","","","","","","","",""
"","see_reward","","html-keyboard-response","193","1702831","0.0-95.0","0","0","1aJL1","Scenes","","1327","","","32","","119","","0","","","","1","","","","","1","","","","","150","1327","","","","","","","","","","","","","","","","","","","","","","","","",""
"","reward_outcome","","html-keyboard-response","194","1704839","0.0-96.0","0","0","1aJL1","Scenes","","890","","","38","","119","","0","","","","","","","","","","","","","","","","1","890","","","","","","","","","","","","","","","","","","","","","","",""
"","fixation","","html-keyboard-response","195","1705847","0.0-99.0","0","0","1aJL1","Scenes","","null","","","null","","","","","","","","","","","","","","","","","","","","","","","","","","","","","","","","","","","","","","","","","","","",""
"","see_reward","","html-keyboard-response","196","1706778","0.0-100.0","0","0","1aJL1","Scenes","","931","","","32","","112","","1","","","","-1","","","","","1","","","","","0","931","","","","","","","","","","","","","","","","","","","","","","","","",""
"","reward_outcome","","html-keyboard-response","197","1708782","0.0-101.0","0","0","1aJL1","Scenes","","748","","","40","","112","","1","","","","","","","","","","","","","","","","-1","748","","","","","","","","","","","","","","","","","","","","","","",""
"","fixation","","html-keyboard-response","198","1709790","0.0-104.0","0","0","1aJL1","Scenes","","null","","","null","","","","","","","","","","","","","","","","","","","","","","","","","","","","","","","","","","","","","","","","","","","",""
"","see_reward","","html-keyboard-response","199","1710592","0.0-105.0","0","0","1aJL1","Scenes","","800","","","32","","108","","2","","","","-1","","","","","1","","","","","0","800","","","","","","","","","","","","","","","","","","","","","","","","",""
"","reward_outcome","","html-keyboard-response","200","1712598","0.0-106.0","0","0","1aJL1","Scenes","","585","","","40","","108","","2","","","","","","","","","","","","","","","","-1","585","","","","","","","","","","","","","","","","","","","","","","",""
"","fixation","","html-keyboard-response","201","1713606","0.0-109.0","0","0","1aJL1","Scenes","","null","","","null","","","","","","","","","","","","","","","","","","","","","","","","","","","","","","","","","","","","","","","","","","","",""
"","see_reward","","html-keyboard-response","202","1714227","0.0-110.0","0","0","1aJL1","Scenes","","619","","","32","","115","","3","","","","-1","","","","","1","","","","","0","619","","","","","","","","","","","","","","","","","","","","","","","","",""
"","reward_outcome","","html-keyboard-response","203","1716230","0.0-111.0","0","0","1aJL1","Scenes","","598","","","40","","115","","3","","","","","","","","","","","","","","","","-1","598","","","","","","","","","","","","","","","","","","","","","","",""
"","fixation","","html-keyboard-response","204","1717238","0.0-114.0","0","0","1aJL1","Scenes","","null","","","null","","","","","","","","","","","","","","","","","","","","","","","","","","","","","","","","","","","","","","","","","","","",""
"","see_reward","","html-keyboard-response","205","1717594","0.0-115.0","0","0","1aJL1","Scenes","","356","","","32","","136","","4","","","","1","","","","","1","","","","","158","356","","","","","","","","","","","","","","","","","","","","","","","","",""
"","reward_outcome","","html-keyboard-response","206","1719598","0.0-116.0","0","0","1aJL1","Scenes","","731","","","38","","136","","4","","","","","","","","","","","","","","","","1","731","","","","","","","","","","","","","","","","","","","","","","",""
"","fixation","","html-keyboard-response","207","1720606","0.0-119.0","0","0","1aJL1","Scenes","","null","","","null","","","","","","","","","","","","","","","","","","","","","","","","","","","","","","","","","","","","","","","","","","","",""
"","see_reward","","html-keyboard-response","208","1721427","0.0-120.0","0","0","1aJL1","Scenes","","820","","","32","","130","","5","","","","1","","","","","1","","","","","158","820","","","","","","","","","","","","","","","","","","","","","","","","",""
"","reward_outcome","","html-keyboard-response","209","1723430","0.0-121.0","0","0","1aJL1","Scenes","","656","","","38","","130","","5","","","","","","","","","","","","","","","","1","656","","","","","","","","","","","","","","","","","","","","","","",""
"","fixation","","html-keyboard-response","210","1724438","0.0-124.0","0","0","1aJL1","Scenes","","null","","","null","","","","","","","","","","","","","","","","","","","","","","","","","","","","","","","","","","","","","","","","","","","",""
"","see_reward","","html-keyboard-response","211","1725505","0.0-125.0","0","0","1aJL1","Scenes","","1065","","","32","","135","","6","","","","-1","","","","","1","","","","","0","1065","","","","","","","","","","","","","","","","","","","","","","","","",""
"","reward_outcome","","html-keyboard-response","212","1727510","0.0-126.0","0","0","1aJL1","Scenes","","630","","","40","","135","","6","","","","","","","","","","","","","","","","-1","630","","","","","","","","","","","","","","","","","","","","","","",""
"","fixation","","html-keyboard-response","213","1728518","0.0-129.0","0","0","1aJL1","Scenes","","null","","","null","","","","","","","","","","","","","","","","","","","","","","","","","","","","","","","","","","","","","","","","","","","",""
"","see_reward","","html-keyboard-response","214","1728874","0.0-130.0","0","0","1aJL1","Scenes","","354","","","32","","127","","7","","","","-1","","","","","1","","","","","0","354","","","","","","","","","","","","","","","","","","","","","","","","",""
"","reward_outcome","","html-keyboard-response","215","1730879","0.0-131.0","0","0","1aJL1","Scenes","","577","","","40","","127","","7","","","","","","","","","","","","","","","","-1","577","","","","","","","","","","","","","","","","","","","","","","",""
"","fixation","","html-keyboard-response","216","1731886","0.0-134.0","0","0","1aJL1","Scenes","","null","","","null","","","","","","","","","","","","","","","","","","","","","","","","","","","","","","","","","","","","","","","","","","","",""
"","see_reward","","html-keyboard-response","217","1732938","0.0-135.0","0","0","1aJL1","Scenes","","1052","","","32","","101","","8","","","","1","","","","","1","","","","","147","1052","","","","","","","","","","","","","","","","","","","","","","","","",""
"","reward_outcome","","html-keyboard-response","218","1734942","0.0-136.0","0","0","1aJL1","Scenes","","475","","","38","","101","","8","","","","","","","","","","","","","","","","1","475","","","","","","","","","","","","","","","","","","","","","","",""
"","fixation","","html-keyboard-response","219","1735950","0.0-139.0","0","0","1aJL1","Scenes","","null","","","null","","","","","","","","","","","","","","","","","","","","","","","","","","","","","","","","","","","","","","","","","","","",""
"","see_reward","","html-keyboard-response","220","1737757","0.0-140.0","0","0","1aJL1","Scenes","","1805","","","32","","127","","9","","","","-1","","","","","1","","","","","0","1805","","","","","","","","","","","","","","","","","","","","","","","","",""
"","reward_outcome","","html-keyboard-response","221","1739767","0.0-141.0","0","0","1aJL1","Scenes","","552","","","40","","127","","9","","","","","","","","","","","","","","","","-1","552","","","","","","","","","","","","","","","","","","","","","","",""
"","fixation","","html-keyboard-response","222","1740775","0.0-144.0","0","0","1aJL1","Scenes","","null","","","null","","","","","","","","","","","","","","","","","","","","","","","","","","","","","","","","","","","","","","","","","","","",""
"","see_reward","","html-keyboard-response","223","1743096","0.0-145.0","0","0","1aJL1","Scenes","","2320","","","32","","136","","10","","","","1","","","","","1","","","","","158","2320","","","","","","","","","","","","","","","","","","","","","","","","",""
"","reward_outcome","","html-keyboard-response","224","1745102","0.0-146.0","0","0","1aJL1","Scenes","","734","","","38","","136","","10","","","","","","","","","","","","","","","","1","734","","","","","","","","","","","","","","","","","","","","","","",""
"","fixation","","html-keyboard-response","225","1746110","0.0-149.0","0","0","1aJL1","Scenes","","null","","","null","","","","","","","","","","","","","","","","","","","","","","","","","","","","","","","","","","","","","","","","","","","",""
"","see_reward","","html-keyboard-response","226","1748621","0.0-150.0","0","0","1aJL1","Scenes","","2510","","","32","","145","","11","","","","1","","","","","1","","","","","144","2510","","","","","","","","","","","","","","","","","","","","","","","","",""
"","reward_outcome","","html-keyboard-response","227","1750631","0.0-151.0","0","0","1aJL1","Scenes","","671","","","38","","145","","11","","","","","","","","","","","","","","","","1","671","","","","","","","","","","","","","","","","","","","","","","",""
"","fixation","","html-keyboard-response","228","1751639","0.0-154.0","0","0","1aJL1","Scenes","","null","","","null","","","","","","","","","","","","","","","","","","","","","","","","","","","","","","","","","","","","","","","","","","","",""
"","see_reward","","html-keyboard-response","229","1754265","0.0-155.0","0","0","1aJL1","Scenes","","2626","","","32","","145","","12","","","","1","","","","","1","","","","","144","2626","","","","","","","","","","","","","","","","","","","","","","","","",""
"","reward_outcome","","html-keyboard-response","230","1756270","0.0-156.0","0","0","1aJL1","Scenes","","599","","","38","","145","","12","","","","","","","","","","","","","","","","1","599","","","","","","","","","","","","","","","","","","","","","","",""
"","fixation","","html-keyboard-response","231","1757279","0.0-159.0","0","0","1aJL1","Scenes","","null","","","null","","","","","","","","","","","","","","","","","","","","","","","","","","","","","","","","","","","","","","","","","","","",""
"","see_reward","","html-keyboard-response","232","1758591","0.0-160.0","0","0","1aJL1","Scenes","","1312","","","32","","131","","13","","","","1","","","","","1","","","","","155","1312","","","","","","","","","","","","","","","","","","","","","","","","",""
"","reward_outcome","","html-keyboard-response","233","1760598","0.0-161.0","0","0","1aJL1","Scenes","","574","","","38","","131","","13","","","","","","","","","","","","","","","","1","574","","","","","","","","","","","","","","","","","","","","","","",""
"","fixation","","html-keyboard-response","234","1761607","0.0-164.0","0","0","1aJL1","Scenes","","null","","","null","","","","","","","","","","","","","","","","","","","","","","","","","","","","","","","","","","","","","","","","","","","",""
"","see_reward","","html-keyboard-response","235","1762354","0.0-165.0","0","0","1aJL1","Scenes","","747","","","32","","135","","14","","","","-1","","","","","1","","","","","0","747","","","","","","","","","","","","","","","","","","","","","","","","",""
"","reward_outcome","","html-keyboard-response","236","1764359","0.0-166.0","0","0","1aJL1","Scenes","","640","","","40","","135","","14","","","","","","","","","","","","","","","","-1","640","","","","","","","","","","","","","","","","","","","","","","",""
"","fixation","","html-keyboard-response","237","1765366","0.0-169.0","0","0","1aJL1","Scenes","","null","","","null","","","","","","","","","","","","","","","","","","","","","","","","","","","","","","","","","","","","","","","","","","","",""
"","see_reward","","html-keyboard-response","238","1766242","0.0-170.0","0","0","1aJL1","Scenes","","876","","","32","","101","","15","","","","1","","","","","1","","","","","147","876","","","","","","","","","","","","","","","","","","","","","","","","",""
"","reward_outcome","","html-keyboard-response","239","1768245","0.0-171.0","0","0","1aJL1","Scenes","","570","","","38","","101","","15","","","","","","","","","","","","","","","","1","570","","","","","","","","","","","","","","","","","","","","","","",""
"","fixation","","html-keyboard-response","240","1769253","0.0-174.0","0","0","1aJL1","Scenes","","null","","","null","","","","","","","","","","","","","","","","","","","","","","","","","","","","","","","","","","","","","","","","","","","",""
"","see_reward","","html-keyboard-response","241","1770335","0.0-175.0","0","0","1aJL1","Scenes","","1081","","","32","","108","","16","","","","-1","","","","","1","","","","","0","1081","","","","","","","","","","","","","","","","","","","","","","","","",""
"","reward_outcome","","html-keyboard-response","242","1772342","0.0-176.0","0","0","1aJL1","Scenes","","749","","","40","","108","","16","","","","","","","","","","","","","","","","-1","749","","","","","","","","","","","","","","","","","","","","","","",""
"","fixation","","html-keyboard-response","243","1773350","0.0-179.0","0","0","1aJL1","Scenes","","null","","","null","","","","","","","","","","","","","","","","","","","","","","","","","","","","","","","","","","","","","","","","","","","",""
"","see_reward","","html-keyboard-response","244","1774639","0.0-180.0","0","0","1aJL1","Scenes","","1288","","","32","","112","","17","","","","-1","","","","","1","","","","","0","1288","","","","","","","","","","","","","","","","","","","","","","","","",""
"","reward_outcome","","html-keyboard-response","245","1776646","0.0-181.0","0","0","1aJL1","Scenes","","699","","","38","","112","","17","","","","","","","","","","","","","","","","1","699","","","","","","","","","","","","","","","","","","","","","","",""
"","fixation","","html-keyboard-response","246","1777654","0.0-184.0","0","0","1aJL1","Scenes","","null","","","null","","","","","","","","","","","","","","","","","","","","","","","","","","","","","","","","","","","","","","","","","","","",""
"","see_reward","","html-keyboard-response","247","1778322","0.0-185.0","0","0","1aJL1","Scenes","","667","","","32","","141","","18","","","","-1","","","","","1","","","","","0","667","","","","","","","","","","","","","","","","","","","","","","","","",""
"","reward_outcome","","html-keyboard-response","248","1780326","0.0-186.0","0","0","1aJL1","Scenes","","679","","","40","","141","","18","","","","","","","","","","","","","","","","-1","679","","","","","","","","","","","","","","","","","","","","","","",""
"","fixation","","html-keyboard-response","249","1781333","0.0-189.0","0","0","1aJL1","Scenes","","null","","","null","","","","","","","","","","","","","","","","","","","","","","","","","","","","","","","","","","","","","","","","","","","",""
"","see_reward","","html-keyboard-response","250","1782361","0.0-190.0","0","0","1aJL1","Scenes","","1027","","","32","","115","","19","","","","-1","","","","","1","","","","","0","1027","","","","","","","","","","","","","","","","","","","","","","","","",""
"","reward_outcome","","html-keyboard-response","251","1784365","0.0-191.0","0","0","1aJL1","Scenes","","585","","","40","","115","","19","","","","","","","","","","","","","","","","-1","585","","","","","","","","","","","","","","","","","","","","","","",""
"","fixation","","html-keyboard-response","252","1785373","0.0-194.0","0","0","1aJL1","Scenes","","null","","","null","","","","","","","","","","","","","","","","","","","","","","","","","","","","","","","","","","","","","","","","","","","",""
"","see_reward","","html-keyboard-response","253","1785910","0.0-195.0","0","0","1aJL1","Scenes","","535","","","32","","119","","20","","","","1","","","","","1","","","","","150","535","","","","","","","","","","","","","","","","","","","","","","","","",""
"","reward_outcome","","html-keyboard-response","254","1787918","0.0-196.0","0","0","1aJL1","Scenes","","572","","","40","","119","","20","","","","","","","","","","","","","","","","-1","572","","","","","","","","","","","","","","","","","","","","","","",""
"","fixation","","html-keyboard-response","255","1788926","0.0-199.0","0","0","1aJL1","Scenes","","null","","","null","","","","","","","","","","","","","","","","","","","","","","","","","","","","","","","","","","","","","","","","","","","",""
"","see_reward","","html-keyboard-response","256","1789550","0.0-200.0","0","0","1aJL1","Scenes","","624","","","32","","130","","21","","","","1","","","","","1","","","","","158","624","","","","","","","","","","","","","","","","","","","","","","","","",""
"","reward_outcome","","html-keyboard-response","257","1791557","0.0-201.0","0","0","1aJL1","Scenes","","669","","","38","","130","","21","","","","","","","","","","","","","","","","1","669","","","","","","","","","","","","","","","","","","","","","","",""
"","fixation","","html-keyboard-response","258","1792567","0.0-204.0","0","0","1aJL1","Scenes","","null","","","null","","","","","","","","","","","","","","","","","","","","","","","","","","","","","","","","","","","","","","","","","","","",""
"","see_reward","","html-keyboard-response","259","1793213","0.0-205.0","0","0","1aJL1","Scenes","","646","","","32","","131","","22","","","","1","","","","","1","","","","","155","646","","","","","","","","","","","","","","","","","","","","","","","","",""
"","reward_outcome","","html-keyboard-response","260","1795222","0.0-206.0","0","0","1aJL1","Scenes","","472","","","38","","131","","22","","","","","","","","","","","","","","","","1","472","","","","","","","","","","","","","","","","","","","","","","",""
"","fixation","","html-keyboard-response","261","1796231","0.0-209.0","0","0","1aJL1","Scenes","","null","","","null","","","","","","","","","","","","","","","","","","","","","","","","","","","","","","","","","","","","","","","","","","","",""
"","see_reward","","html-keyboard-response","262","1796522","0.0-210.0","0","0","1aJL1","Scenes","","290","","","32","","141","","23","","","","-1","","","","","1","","","","","0","290","","","","","","","","","","","","","","","","","","","","","","","","",""
"","reward_outcome","","html-keyboard-response","263","1798526","0.0-211.0","0","0","1aJL1","Scenes","","432","","","40","","141","","23","","","","","","","","","","","","","","","","-1","432","","","","","","","","","","","","","","","","","","","","","","",""
"","block_over","","html-keyboard-response","264","1800643","0.0-213.0-0.0","0","0","1aJL1","Scenes","","2115","","","78","","","","","","","","","","","","","","","","","","","","","","","","","","","","","","","","","","","","","","","","","","","",""
"","fixation","","html-keyboard-response","265","1801646","0.0-214.0","0","0","1aJL1","Scenes","","null","","","null","","","","","","","","","","","","","","","","","","","","","","","","","","","","","","","","","","","","","","","","","","","",""
"","see_reward","","html-keyboard-response","266","1802362","0.0-215.0","0","0","1aJL1","Scenes","","715","","","32","","131","","24","","","","1","","","","","2","","","","","155","715","","","","","","","","","","","","","","","","","","","","","","","","",""
"","reward_outcome","","html-keyboard-response","267","1804366","0.0-216.0","0","0","1aJL1","Scenes","","499","","","38","","131","","24","","","","","","","","","","","","","","","","1","499","","","","","","","","","","","","","","","","","","","","","","",""
"","fixation","","html-keyboard-response","268","1805373","0.0-219.0","0","0","1aJL1","Scenes","","null","","","null","","","","","","","","","","","","","","","","","","","","","","","","","","","","","","","","","","","","","","","","","","","",""
"","see_reward","","html-keyboard-response","269","1805757","0.0-220.0","0","0","1aJL1","Scenes","","383","","","32","","141","","25","","","","-1","","","","","2","","","","","0","383","","","","","","","","","","","","","","","","","","","","","","","","",""
"","reward_outcome","","html-keyboard-response","270","1807767","0.0-221.0","0","0","1aJL1","Scenes","","531","","","40","","141","","25","","","","","","","","","","","","","","","","-1","531","","","","","","","","","","","","","","","","","","","","","","",""
"","fixation","","html-keyboard-response","271","1808773","0.0-224.0","0","0","1aJL1","Scenes","","null","","","null","","","","","","","","","","","","","","","","","","","","","","","","","","","","","","","","","","","","","","","","","","","",""
"","see_reward","","html-keyboard-response","272","1809312","0.0-225.0","0","0","1aJL1","Scenes","","538","","","32","","108","","26","","","","-1","","","","","2","","","","","0","538","","","","","","","","","","","","","","","","","","","","","","","","",""
"","reward_outcome","","html-keyboard-response","273","1811318","0.0-226.0","0","0","1aJL1","Scenes","","1323","","","40","","108","","26","","","","","","","","","","","","","","","","-1","1323","","","","","","","","","","","","","","","","","","","","","","",""
"","fixation","","html-keyboard-response","274","1812326","0.0-229.0","0","0","1aJL1","Scenes","","null","","","null","","","","","","","","","","","","","","","","","","","","","","","","","","","","","","","","","","","","","","","","","","","",""
"","see_reward","","html-keyboard-response","275","1813020","0.0-230.0","0","0","1aJL1","Scenes","","693","","","32","","115","","27","","","","-1","","","","","2","","","","","0","693","","","","","","","","","","","","","","","","","","","","","","","","",""
"","reward_outcome","","html-keyboard-response","276","1815030","0.0-231.0","0","0","1aJL1","Scenes","","612","","","40","","115","","27","","","","","","","","","","","","","","","","-1","612","","","","","","","","","","","","","","","","","","","","","","",""
"","fixation","","html-keyboard-response","277","1816037","0.0-234.0","0","0","1aJL1","Scenes","","null","","","null","","","","","","","","","","","","","","","","","","","","","","","","","","","","","","","","","","","","","","","","","","","",""
"","see_reward","","html-keyboard-response","278","1816386","0.0-235.0","0","0","1aJL1","Scenes","","347","","","32","","127","","28","","","","-1","","","","","2","","","","","0","347","","","","","","","","","","","","","","","","","","","","","","","","",""
"","reward_outcome","","html-keyboard-response","279","1818389","0.0-236.0","0","0","1aJL1","Scenes","","478","","","40","","127","","28","","","","","","","","","","","","","","","","-1","478","","","","","","","","","","","","","","","","","","","","","","",""
"","fixation","","html-keyboard-response","280","1819398","0.0-239.0","0","0","1aJL1","Scenes","","null","","","null","","","","","","","","","","","","","","","","","","","","","","","","","","","","","","","","","","","","","","","","","","","",""
"","see_reward","","html-keyboard-response","281","1819866","0.0-240.0","0","0","1aJL1","Scenes","","467","","","32","","119","","29","","","","1","","","","","2","","","","","150","467","","","","","","","","","","","","","","","","","","","","","","","","",""
"","reward_outcome","","html-keyboard-response","282","1821869","0.0-241.0","0","0","1aJL1","Scenes","","521","","","38","","119","","29","","","","","","","","","","","","","","","","1","521","","","","","","","","","","","","","","","","","","","","","","",""
"","fixation","","html-keyboard-response","283","1822877","0.0-244.0","0","0","1aJL1","Scenes","","null","","","null","","","","","","","","","","","","","","","","","","","","","","","","","","","","","","","","","","","","","","","","","","","",""
"","see_reward","","html-keyboard-response","284","1823635","0.0-245.0","0","0","1aJL1","Scenes","","756","","","32","","136","","30","","","","1","","","","","2","","","","","158","756","","","","","","","","","","","","","","","","","","","","","","","","",""
"","reward_outcome","","html-keyboard-response","285","1825637","0.0-246.0","0","0","1aJL1","Scenes","","450","","","38","","136","","30","","","","","","","","","","","","","","","","1","450","","","","","","","","","","","","","","","","","","","","","","",""
"","fixation","","html-keyboard-response","286","1826646","0.0-249.0","0","0","1aJL1","Scenes","","null","","","null","","","","","","","","","","","","","","","","","","","","","","","","","","","","","","","","","","","","","","","","","","","",""
"","see_reward","","html-keyboard-response","287","1827009","0.0-250.0","0","0","1aJL1","Scenes","","363","","","32","","112","","31","","","","-1","","","","","2","","","","","0","363","","","","","","","","","","","","","","","","","","","","","","","","",""
"","reward_outcome","","html-keyboard-response","288","1829014","0.0-251.0","0","0","1aJL1","Scenes","","517","","","40","","112","","31","","","","","","","","","","","","","","","","-1","517","","","","","","","","","","","","","","","","","","","","","","",""
"","fixation","","html-keyboard-response","289","1830022","0.0-254.0","0","0","1aJL1","Scenes","","null","","","null","","","","","","","","","","","","","","","","","","","","","","","","","","","","","","","","","","","","","","","","","","","",""
"","see_reward","","html-keyboard-response","290","1830485","0.0-255.0","0","0","1aJL1","Scenes","","462","","","32","","130","","32","","","","1","","","","","2","","","","","158","462","","","","","","","","","","","","","","","","","","","","","","","","",""
"","reward_outcome","","html-keyboard-response","291","1832495","0.0-256.0","0","0","1aJL1","Scenes","","546","","","38","","130","","32","","","","","","","","","","","","","","","","1","546","","","","","","","","","","","","","","","","","","","","","","",""
"","fixation","","html-keyboard-response","292","1833502","0.0-259.0","0","0","1aJL1","Scenes","","null","","","null","","","","","","","","","","","","","","","","","","","","","","","","","","","","","","","","","","","","","","","","","","","",""
"","see_reward","","html-keyboard-response","293","1833973","0.0-260.0","0","0","1aJL1","Scenes","","470","","","32","","136","","33","","","","1","","","","","2","","","","","158","470","","","","","","","","","","","","","","","","","","","","","","","","",""
"","reward_outcome","","html-keyboard-response","294","1835983","0.0-261.0","0","0","1aJL1","Scenes","","439","","","38","","136","","33","","","","","","","","","","","","","","","","1","439","","","","","","","","","","","","","","","","","","","","","","",""
"","fixation","","html-keyboard-response","295","1836990","0.0-264.0","0","0","1aJL1","Scenes","","null","","","null","","","","","","","","","","","","","","","","","","","","","","","","","","","","","","","","","","","","","","","","","","","",""
"","see_reward","","html-keyboard-response","296","1838227","0.0-265.0","0","0","1aJL1","Scenes","","1235","","","32","","130","","34","","","","1","","","","","2","","","","","158","1235","","","","","","","","","","","","","","","","","","","","","","","","",""
"","reward_outcome","","html-keyboard-response","297","1840230","0.0-266.0","0","0","1aJL1","Scenes","","519","","","38","","130","","34","","","","","","","","","","","","","","","","1","519","","","","","","","","","","","","","","","","","","","","","","",""
"","fixation","","html-keyboard-response","298","1841239","0.0-269.0","0","0","1aJL1","Scenes","","null","","","null","","","","","","","","","","","","","","","","","","","","","","","","","","","","","","","","","","","","","","","","","","","",""
"","see_reward","","html-keyboard-response","299","1841819","0.0-270.0","0","0","1aJL1","Scenes","","580","","","32","","141","","35","","","","-1","","","","","2","","","","","0","580","","","","","","","","","","","","","","","","","","","","","","","","",""
"","reward_outcome","","html-keyboard-response","300","1843822","0.0-271.0","0","0","1aJL1","Scenes","","442","","","40","","141","","35","","","","","","","","","","","","","","","","-1","442","","","","","","","","","","","","","","","","","","","","","","",""
"","fixation","","html-keyboard-response","301","1844831","0.0-274.0","0","0","1aJL1","Scenes","","null","","","null","","","","","","","","","","","","","","","","","","","","","","","","","","","","","","","","","","","","","","","","","","","",""
"","see_reward","","html-keyboard-response","302","1845680","0.0-275.0","0","0","1aJL1","Scenes","","848","","","32","","115","","36","","","","-1","","","","","2","","","","","0","848","","","","","","","","","","","","","","","","","","","","","","","","",""
"","reward_outcome","","html-keyboard-response","303","1847687","0.0-276.0","0","0","1aJL1","Scenes","","468","","","40","","115","","36","","","","","","","","","","","","","","","","-1","468","","","","","","","","","","","","","","","","","","","","","","",""
"","fixation","","html-keyboard-response","304","1848694","0.0-279.0","0","0","1aJL1","Scenes","","null","","","null","","","","","","","","","","","","","","","","","","","","","","","","","","","","","","","","","","","","","","","","","","","",""
"","see_reward","","html-keyboard-response","305","1849549","0.0-280.0","0","0","1aJL1","Scenes","","853","","","32","","145","","37","","","","1","","","","","2","","","","","144","853","","","","","","","","","","","","","","","","","","","","","","","","",""
"","reward_outcome","","html-keyboard-response","306","1851558","0.0-281.0","0","0","1aJL1","Scenes","","540","","","38","","145","","37","","","","","","","","","","","","","","","","1","540","","","","","","","","","","","","","","","","","","","","","","",""
"","fixation","","html-keyboard-response","307","1852566","0.0-284.0","0","0","1aJL1","Scenes","","null","","","null","","","","","","","","","","","","","","","","","","","","","","","","","","","","","","","","","","","","","","","","","","","",""
"","see_reward","","html-keyboard-response","308","1853149","0.0-285.0","0","0","1aJL1","Scenes","","582","","","32","","108","","38","","","","-1","","","","","2","","","","","0","582","","","","","","","","","","","","","","","","","","","","","","","","",""
"","reward_outcome","","html-keyboard-response","309","1855159","0.0-286.0","0","0","1aJL1","Scenes","","512","","","40","","108","","38","","","","","","","","","","","","","","","","-1","512","","","","","","","","","","","","","","","","","","","","","","",""
"","fixation","","html-keyboard-response","310","1856166","0.0-289.0","0","0","1aJL1","Scenes","","null","","","null","","","","","","","","","","","","","","","","","","","","","","","","","","","","","","","","","","","","","","","","","","","",""
"","see_reward","","html-keyboard-response","311","1857129","0.0-290.0","0","0","1aJL1","Scenes","","961","","","32","","101","","39","","","","1","","","","","2","","","","","147","961","","","","","","","","","","","","","","","","","","","","","","","","",""
"","reward_outcome","","html-keyboard-response","312","1859135","0.0-291.0","0","0","1aJL1","Scenes","","565","","","38","","101","","39","","","","","","","","","","","","","","","","1","565","","","","","","","","","","","","","","","","","","","","","","",""
"","fixation","","html-keyboard-response","313","1860142","0.0-294.0","0","0","1aJL1","Scenes","","null","","","null","","","","","","","","","","","","","","","","","","","","","","","","","","","","","","","","","","","","","","","","","","","",""
"","see_reward","","html-keyboard-response","314","1861528","0.0-295.0","0","0","1aJL1","Scenes","","1384","","","32","","119","","40","","","","1","","","","","2","","","","","150","1384","","","","","","","","","","","","","","","","","","","","","","","","",""
"","reward_outcome","","html-keyboard-response","315","1863533","0.0-296.0","0","0","1aJL1","Scenes","","570","","","38","","119","","40","","","","","","","","","","","","","","","","1","570","","","","","","","","","","","","","","","","","","","","","","",""
"","fixation","","html-keyboard-response","316","1864542","0.0-299.0","0","0","1aJL1","Scenes","","null","","","null","","","","","","","","","","","","","","","","","","","","","","","","","","","","","","","","","","","","","","","","","","","",""
"","see_reward","","html-keyboard-response","317","1865552","0.0-300.0","0","0","1aJL1","Scenes","","1009","","","32","","112","","41","","","","-1","","","","","2","","","","","0","1009","","","","","","","","","","","","","","","","","","","","","","","","",""
"","reward_outcome","","html-keyboard-response","318","1867558","0.0-301.0","0","0","1aJL1","Scenes","","415","","","40","","112","","41","","","","","","","","","","","","","","","","-1","415","","","","","","","","","","","","","","","","","","","","","","",""
"","fixation","","html-keyboard-response","319","1868567","0.0-304.0","0","0","1aJL1","Scenes","","null","","","null","","","","","","","","","","","","","","","","","","","","","","","","","","","","","","","","","","","","","","","","","","","",""
"","see_reward","","html-keyboard-response","320","1869035","0.0-305.0","0","0","1aJL1","Scenes","","467","","","32","","101","","42","","","","1","","","","","2","","","","","147","467","","","","","","","","","","","","","","","","","","","","","","","","",""
"","reward_outcome","","html-keyboard-response","321","1871038","0.0-306.0","0","0","1aJL1","Scenes","","395","","","38","","101","","42","","","","","","","","","","","","","","","","1","395","","","","","","","","","","","","","","","","","","","","","","",""
"","fixation","","html-keyboard-response","322","1872046","0.0-309.0","0","0","1aJL1","Scenes","","null","","","null","","","","","","","","","","","","","","","","","","","","","","","","","","","","","","","","","","","","","","","","","","","",""
"","see_reward","","html-keyboard-response","323","1872678","0.0-310.0","0","0","1aJL1","Scenes","","631","","","32","","135","","43","","","","-1","","","","","2","","","","","0","631","","","","","","","","","","","","","","","","","","","","","","","","",""
"","reward_outcome","","html-keyboard-response","324","1874686","0.0-311.0","0","0","1aJL1","Scenes","","411","","","40","","135","","43","","","","","","","","","","","","","","","","-1","411","","","","","","","","","","","","","","","","","","","","","","",""
"","fixation","","html-keyboard-response","325","1875695","0.0-314.0","0","0","1aJL1","Scenes","","null","","","null","","","","","","","","","","","","","","","","","","","","","","","","","","","","","","","","","","","","","","","","","","","",""
"","see_reward","","html-keyboard-response","326","1876276","0.0-315.0","0","0","1aJL1","Scenes","","579","","","32","","145","","44","","","","1","","","","","2","","","","","144","579","","","","","","","","","","","","","","","","","","","","","","","","",""
"","reward_outcome","","html-keyboard-response","327","1878279","0.0-316.0","0","0","1aJL1","Scenes","","495","","","38","","145","","44","","","","","","","","","","","","","","","","1","495","","","","","","","","","","","","","","","","","","","","","","",""
"","fixation","","html-keyboard-response","328","1879287","0.0-319.0","0","0","1aJL1","Scenes","","null","","","null","","","","","","","","","","","","","","","","","","","","","","","","","","","","","","","","","","","","","","","","","","","",""
"","see_reward","","html-keyboard-response","329","1879881","0.0-320.0","0","0","1aJL1","Scenes","","594","","","32","","135","","45","","","","-1","","","","","2","","","","","0","594","","","","","","","","","","","","","","","","","","","","","","","","",""
"","reward_outcome","","html-keyboard-response","330","1881886","0.0-321.0","0","0","1aJL1","Scenes","","445","","","40","","135","","45","","","","","","","","","","","","","","","","-1","445","","","","","","","","","","","","","","","","","","","","","","",""
"","fixation","","html-keyboard-response","331","1882895","0.0-324.0","0","0","1aJL1","Scenes","","null","","","null","","","","","","","","","","","","","","","","","","","","","","","","","","","","","","","","","","","","","","","","","","","",""
"","see_reward","","html-keyboard-response","332","1883471","0.0-325.0","0","0","1aJL1","Scenes","","575","","","32","","131","","46","","","","1","","","","","2","","","","","155","575","","","","","","","","","","","","","","","","","","","","","","","","",""
"","reward_outcome","","html-keyboard-response","333","1885478","0.0-326.0","0","0","1aJL1","Scenes","","522","","","38","","131","","46","","","","","","","","","","","","","","","","1","522","","","","","","","","","","","","","","","","","","","","","","",""
"","fixation","","html-keyboard-response","334","1886487","0.0-329.0","0","0","1aJL1","Scenes","","null","","","null","","","","","","","","","","","","","","","","","","","","","","","","","","","","","","","","","","","","","","","","","","","",""
"","see_reward","","html-keyboard-response","335","1887265","0.0-330.0","0","0","1aJL1","Scenes","","778","","","32","","127","","47","","","","-1","","","","","2","","","","","0","778","","","","","","","","","","","","","","","","","","","","","","","","",""
"","reward_outcome","","html-keyboard-response","336","1889270","0.0-331.0","0","0","1aJL1","Scenes","","506","","","40","","127","","47","","","","","","","","","","","","","","","","-1","506","","","","","","","","","","","","","","","","","","","","","","",""
"","block_over","","html-keyboard-response","337","1891340","0.0-333.0-0.0","0","0","1aJL1","Scenes","","2068","","","78","","","","","","","","","","","","","","","","","","","","","","","","","","","","","","","","","","","","","","","","","","","",""
"","fixation","","html-keyboard-response","338","1892343","0.0-334.0","0","0","1aJL1","Scenes","","null","","","null","","","","","","","","","","","","","","","","","","","","","","","","","","","","","","","","","","","","","","","","","","","",""
"","see_reward","","html-keyboard-response","339","1893011","0.0-335.0","0","0","1aJL1","Scenes","","667","","","32","","119","","48","","","","1","","","","","3","","","","","150","667","","","","","","","","","","","","","","","","","","","","","","","","",""
"","reward_outcome","","html-keyboard-response","340","1895015","0.0-336.0","0","0","1aJL1","Scenes","","464","","","38","","119","","48","","","","","","","","","","","","","","","","1","464","","","","","","","","","","","","","","","","","","","","","","",""
"","fixation","","html-keyboard-response","341","1896022","0.0-339.0","0","0","1aJL1","Scenes","","null","","","null","","","","","","","","","","","","","","","","","","","","","","","","","","","","","","","","","","","","","","","","","","","",""
"","see_reward","","html-keyboard-response","342","1896977","0.0-340.0","0","0","1aJL1","Scenes","","953","","","32","","112","","49","","","","-1","","","","","3","","","","","0","953","","","","","","","","","","","","","","","","","","","","","","","","",""
"","reward_outcome","","html-keyboard-response","343","1898983","0.0-341.0","0","0","1aJL1","Scenes","","383","","","40","","112","","49","","","","","","","","","","","","","","","","-1","383","","","","","","","","","","","","","","","","","","","","","","",""
"","fixation","","html-keyboard-response","344","1899991","0.0-344.0","0","0","1aJL1","Scenes","","null","","","null","","","","","","","","","","","","","","","","","","","","","","","","","","","","","","","","","","","","","","","","","","","",""
"","see_reward","","html-keyboard-response","345","1900680","0.0-345.0","0","0","1aJL1","Scenes","","689","","","32","","108","","50","","","","-1","","","","","3","","","","","0","689","","","","","","","","","","","","","","","","","","","","","","","","",""
"","reward_outcome","","html-keyboard-response","346","1902687","0.0-346.0","0","0","1aJL1","Scenes","","408","","","40","","108","","50","","","","","","","","","","","","","","","","-1","408","","","","","","","","","","","","","","","","","","","","","","",""
"","fixation","","html-keyboard-response","347","1903694","0.0-349.0","0","0","1aJL1","Scenes","","null","","","null","","","","","","","","","","","","","","","","","","","","","","","","","","","","","","","","","","","","","","","","","","","",""
"","see_reward","","html-keyboard-response","348","1904165","0.0-350.0","0","0","1aJL1","Scenes","","471","","","32","","127","","51","","","","-1","","","","","3","","","","","0","471","","","","","","","","","","","","","","","","","","","","","","","","",""
"","reward_outcome","","html-keyboard-response","349","1906174","0.0-351.0","0","0","1aJL1","Scenes","","539","","","40","","127","","51","","","","","","","","","","","","","","","","-1","539","","","","","","","","","","","","","","","","","","","","","","",""
"","fixation","","html-keyboard-response","350","1907182","0.0-354.0","0","0","1aJL1","Scenes","","null","","","null","","","","","","","","","","","","","","","","","","","","","","","","","","","","","","","","","","","","","","","","","","","",""
"","see_reward","","html-keyboard-response","351","1907858","0.0-355.0","0","0","1aJL1","Scenes","","675","","","32","","108","","52","","","","-1","","","","","3","","","","","0","675","","","","","","","","","","","","","","","","","","","","","","","","",""
"","reward_outcome","","html-keyboard-response","352","1909863","0.0-356.0","0","0","1aJL1","Scenes","","469","","","40","","108","","52","","","","","","","","","","","","","","","","-1","469","","","","","","","","","","","","","","","","","","","","","","",""
