"success","ttype","start_time","trial_type","trial_index","time_elapsed","internal_node_id","warning","missed_checkup","PID","stim_type","view_history","rt","responses","category","repeat_instructions","key_press","response","stimulus_id","painting","index","stimulus_left","stimulus_right","explain_trial","reward_type","rating_left","rating_right","painting_left","painting_right","block","left_chosen","chosen_obj","unchosen_obj","explain_response","reward_amount","see_reward_rt","register_reward_response","register_reward_rt","deliberation_reward_tally","stimulus_left_deliberation_ind","stimulus_right_deliberation_ind","chosen_trial","gain_left","higher_outcome_chosen","old_pair","chosen_object","rt_pairs","left_object_chosen","rt_object","old_response","new_rating","deliberated_stim","initial_rating","outcome_eval_rt","outcome_eval_response","outcome_eval_gain","outcome_eval_acc","preamble","outcome_eval_confidence","outcome_eval_confidence_rt","total_reward_tally"
"true","full_screen","d01182023hr1359","fullscreen","0","11409","0.0-0.0","0","0","1ae5n","People","","","","","","","","","","","","","","","","","","","","","","","","","","","","","","","","","","","","","","","","","","","","","","","","","",""
"","rating_instructions","","instructions","1","18067","0.0-1.0-0.0","0","0","1ae5n","People","[{""page_index"":0,""viewing_time"":4776},{""page_index"":1,""viewing_time"":1877}]","6653","","","","","","","","","","","","","","","","","","","","","","","","","","","","","","","","","","","","","","","","","","","","","","","",""
"","","","survey-multi-choice","2","23635","0.0-1.0-1.0","0","0","1ae5n","People","","5557","{""Q0"":""True"",""Q1"":""Mouse""}","rating_comprehension_check","0","","","","","","","","","","","","","","","","","","","","","","","","","","","","","","","","","","","","","","","","","","","","",""
"","start_phase","","html-keyboard-response","3","25789","0.0-2.0","0","0","1ae5n","People","","2149","","","","78","","","","","","","","","","","","","","","","","","","","","","","","","","","","","","","","","","","","","","","","","","","",""
"","rating","","html-slider-response","4","30785","0.0-3.0","0","0","1ae5n","People","","4991","","","","","74","44","rikonavt-HQjfrvdTfak-unsplash.jpg","0","","","","","","","","","","","","","","","","","","","","","","","","","","","","","","","","","","","","","","","",""
"","rating","","html-slider-response","5","33312","0.0-4.0","0","0","1ae5n","People","","2525","","","","","56","17","gleb-lukomets-paBzWCPN23k-unsplash.jpg","1","","","","","","","","","","","","","","","","","","","","","","","","","","","","","","","","","","","","","","","",""
"","rating","","html-slider-response","6","35944","0.0-5.0","0","0","1ae5n","People","","2630","","","","","80","10","charles-etoroma-95UF6LXe-Lo-unsplash.jpg","2","","","","","","","","","","","","","","","","","","","","","","","","","","","","","","","","","","","","","","","",""
"","rating","","html-slider-response","7","38805","0.0-6.0","0","0","1ae5n","People","","2858","","","","","57","22","jessica-radanavong-mrYkTuAesKE-unsplash.jpg","3","","","","","","","","","","","","","","","","","","","","","","","","","","","","","","","","","","","","","","","",""
"","rating","","html-slider-response","8","42166","0.0-7.0","0","0","1ae5n","People","","3360","","","","","38","4","barna-bartis-2x3vfVxwR7o-unsplash.jpg","4","","","","","","","","","","","","","","","","","","","","","","","","","","","","","","","","","","","","","","","",""
"","rating","","html-slider-response","9","45106","0.0-8.0","0","0","1ae5n","People","","2938","","","","","26","30","matheus-ferrero-pg_WCHWSdT8-unsplash.jpg","5","","","","","","","","","","","","","","","","","","","","","","","","","","","","","","","","","","","","","","","",""
"","rating","","html-slider-response","10","48584","0.0-9.0","0","0","1ae5n","People","","3476","","","","","55","46","stefan-stefancik-QXevDflbl8A-unsplash.jpg","6","","","","","","","","","","","","","","","","","","","","","","","","","","","","","","","","","","","","","","","",""
"","rating","","html-slider-response","11","52027","0.0-10.0","0","0","1ae5n","People","","3441","","","","","62","31","mathilda-khoo-vLR0YP_otCo-unsplash.jpg","7","","","","","","","","","","","","","","","","","","","","","","","","","","","","","","","","","","","","","","","",""
"","rating","","html-slider-response","12","54904","0.0-11.0","0","0","1ae5n","People","","2875","","","","","82","6","ben-o-bro-C5XyLljkMrY-unsplash.jpg","8","","","","","","","","","","","","","","","","","","","","","","","","","","","","","","","","","","","","","","","",""
"","rating","","html-slider-response","13","59934","0.0-12.0","0","0","1ae5n","People","","5028","","","","","73","0","abstral-official-cyOKLSgkgCE-unsplash.jpg","9","","","","","","","","","","","","","","","","","","","","","","","","","","","","","","","","","","","","","","","",""
"","rating","","html-slider-response","14","71905","0.0-13.0","0","0","1ae5n","People","","11969","","","","","75","14","freddy-kearney-o-ioeoATbIM-unsplash.jpg","10","","","","","","","","","","","","","","","","","","","","","","","","","","","","","","","","","","","","","","","",""
"","rating","","html-slider-response","15","77505","0.0-14.0","0","0","1ae5n","People","","5597","","","","","62","19","ha-nguy-n-OFSQ6bHjFjs-unsplash.jpg","11","","","","","","","","","","","","","","","","","","","","","","","","","","","","","","","","","","","","","","","",""
"","rating","","html-slider-response","16","80161","0.0-15.0","0","0","1ae5n","People","","2653","","","","","34","42","prince-akachi-l3IHXOdMyHQ-unsplash.jpg","12","","","","","","","","","","","","","","","","","","","","","","","","","","","","","","","","","","","","","","","",""
"","rating","","html-slider-response","17","82411","0.0-16.0","0","0","1ae5n","People","","2248","","","","","43","35","oliver-ragfelt-khV4fTy6-D8-unsplash.jpg","13","","","","","","","","","","","","","","","","","","","","","","","","","","","","","","","","","","","","","","","",""
"","rating","","html-slider-response","18","84637","0.0-17.0","0","0","1ae5n","People","","2224","","","","","57","41","prince-akachi-i2hoD-C2RUA-unsplash.jpg","14","","","","","","","","","","","","","","","","","","","","","","","","","","","","","","","","","","","","","","","",""
"","rating","","html-slider-response","19","86963","0.0-18.0","0","0","1ae5n","People","","2324","","","","","62","21","jessica-felicio-_cvwXhGqG-o-unsplash.jpg","15","","","","","","","","","","","","","","","","","","","","","","","","","","","","","","","","","","","","","","","",""
"","rating","","html-slider-response","20","93191","0.0-19.0","0","0","1ae5n","People","","6226","","","","","61","36","ospan-ali-mGdA2fzjWLo-unsplash.jpg","16","","","","","","","","","","","","","","","","","","","","","","","","","","","","","","","","","","","","","","","",""
"","rating","","html-slider-response","21","96707","0.0-20.0","0","0","1ae5n","People","","3514","","","","","47","2","arjunsyah-TBUA5KHJn6k-unsplash.jpg","17","","","","","","","","","","","","","","","","","","","","","","","","","","","","","","","","","","","","","","","",""
"","rating","","html-slider-response","22","99490","0.0-21.0","0","0","1ae5n","People","","2781","","","","","35","20","houcine-ncib-B4TjXnI0Y2c-unsplash.jpg","18","","","","","","","","","","","","","","","","","","","","","","","","","","","","","","","","","","","","","","","",""
"","rating","","html-slider-response","23","102220","0.0-22.0","0","0","1ae5n","People","","2728","","","","","53","3","art-hauntington-jzY0KRJopEI-unsplash.jpg","19","","","","","","","","","","","","","","","","","","","","","","","","","","","","","","","","","","","","","","","",""
"","rating","","html-slider-response","24","104339","0.0-23.0","0","0","1ae5n","People","","2117","","","","","31","9","carlos-andres-gomez-vJuk8Y86mRw-unsplash.jpg","20","","","","","","","","","","","","","","","","","","","","","","","","","","","","","","","","","","","","","","","",""
"","rating","","html-slider-response","25","106999","0.0-24.0","0","0","1ae5n","People","","2658","","","","","44","39","philip-martin-5aGUyCW_PJw-unsplash.jpg","21","","","","","","","","","","","","","","","","","","","","","","","","","","","","","","","","","","","","","","","",""
"","rating","","html-slider-response","26","109394","0.0-25.0","0","0","1ae5n","People","","2392","","","","","61","8","bruce-dixon-3M9WJQVHzog-unsplash.jpg","22","","","","","","","","","","","","","","","","","","","","","","","","","","","","","","","","","","","","","","","",""
"","rating","","html-slider-response","27","111935","0.0-26.0","0","0","1ae5n","People","","2540","","","","","56","45","sarah-noltner-pL5ZzPp1zqg-unsplash.jpg","23","","","","","","","","","","","","","","","","","","","","","","","","","","","","","","","","","","","","","","","",""
"","rating","","html-slider-response","28","114564","0.0-27.0","0","0","1ae5n","People","","2627","","","","","56","33","olena-sergienko-0TSd6uCKTKc-unsplash.jpg","24","","","","","","","","","","","","","","","","","","","","","","","","","","","","","","","","","","","","","","","",""
"","rating","","html-slider-response","29","117365","0.0-28.0","0","0","1ae5n","People","","2799","","","","","46","49","vicky-hladynets-_gDoyVv5F4c-unsplash.jpg","25","","","","","","","","","","","","","","","","","","","","","","","","","","","","","","","","","","","","","","","",""
"","rating","","html-slider-response","30","119775","0.0-29.0","0","0","1ae5n","People","","2409","","","","","60","1","aiony-haust-jmATI5Q_YgY-unsplash.jpg","26","","","","","","","","","","","","","","","","","","","","","","","","","","","","","","","","","","","","","","","",""
"","rating","","html-slider-response","31","122489","0.0-30.0","0","0","1ae5n","People","","2712","","","","","57","48","velizar-ivanov-7ktP9yZA1g4-unsplash.jpg","27","","","","","","","","","","","","","","","","","","","","","","","","","","","","","","","","","","","","","","","",""
"","rating","","html-slider-response","32","125345","0.0-31.0","0","0","1ae5n","People","","2854","","","","","47","27","jurica-koletic-7YVZYZeITc8-unsplash.jpg","28","","","","","","","","","","","","","","","","","","","","","","","","","","","","","","","","","","","","","","","",""
"","rating","","html-slider-response","33","127753","0.0-32.0","0","0","1ae5n","People","","2406","","","","","39","47","tyler-nix-ZGa9d1a_4tA-unsplash.jpg","29","","","","","","","","","","","","","","","","","","","","","","","","","","","","","","","","","","","","","","","",""
"","rating","","html-slider-response","34","136009","0.0-33.0","0","0","1ae5n","People","","8254","","","","","37","11","christian-ferrer-8vT-DgHZDG4-unsplash.jpg","30","","","","","","","","","","","","","","","","","","","","","","","","","","","","","","","","","","","","","","","",""
"","rating","","html-slider-response","35","139599","0.0-34.0","0","0","1ae5n","People","","3588","","","","","70","5","batel-studio-ttSRjiYG_WM-unsplash.jpg","31","","","","","","","","","","","","","","","","","","","","","","","","","","","","","","","","","","","","","","","",""
"","rating","","html-slider-response","36","141663","0.0-35.0","0","0","1ae5n","People","","2062","","","","","55","7","brooke-cagle-HRZUzoX1e6w-unsplash.jpg","32","","","","","","","","","","","","","","","","","","","","","","","","","","","","","","","","","","","","","","","",""
"","rating","","html-slider-response","37","145375","0.0-36.0","0","0","1ae5n","People","","3710","","","","","18","43","raamin-ka-0qJBEzudn5E-unsplash.jpg","33","","","","","","","","","","","","","","","","","","","","","","","","","","","","","","","","","","","","","","","",""
"","rating","","html-slider-response","38","148155","0.0-37.0","0","0","1ae5n","People","","2778","","","","","60","37","pavel-anoshin-d0peGya6R5Y-unsplash.jpg","34","","","","","","","","","","","","","","","","","","","","","","","","","","","","","","","","","","","","","","","",""
"","rating","","html-slider-response","39","150563","0.0-38.0","0","0","1ae5n","People","","2406","","","","","39","34","oliver-johnson-1TUIcKob7Zs-unsplash.jpg","35","","","","","","","","","","","","","","","","","","","","","","","","","","","","","","","","","","","","","","","",""
"","rating","","html-slider-response","40","153623","0.0-39.0","0","0","1ae5n","People","","3058","","","","","66","38","petr-sevcovic-HzDF-rxlSeM-unsplash.jpg","36","","","","","","","","","","","","","","","","","","","","","","","","","","","","","","","","","","","","","","","",""
"","rating","","html-slider-response","41","155975","0.0-40.0","0","0","1ae5n","People","","2350","","","","","36","25","joseph-gonzalez-iFgRcqHznqg-unsplash.jpg","37","","","","","","","","","","","","","","","","","","","","","","","","","","","","","","","","","","","","","","","",""
"","rating","","html-slider-response","42","158713","0.0-41.0","0","0","1ae5n","People","","2736","","","","","56","15","gabriel-silverio-u3WmDyKGsrY-unsplash.jpg","38","","","","","","","","","","","","","","","","","","","","","","","","","","","","","","","","","","","","","","","",""
"","rating","","html-slider-response","43","161233","0.0-42.0","0","0","1ae5n","People","","2518","","","","","32","28","justin-chen-J7Cf1Gch49E-unsplash.jpg","39","","","","","","","","","","","","","","","","","","","","","","","","","","","","","","","","","","","","","","","",""
"","rating","","html-slider-response","44","163313","0.0-43.0","0","0","1ae5n","People","","2078","","","","","45","40","prince-akachi-4Yv84VgQkRM-unsplash.jpg","40","","","","","","","","","","","","","","","","","","","","","","","","","","","","","","","","","","","","","","","",""
"","rating","","html-slider-response","45","169317","0.0-44.0","0","0","1ae5n","People","","6002","","","","","59","26","juri-gianfrancesco-9EZadYaMzk4-unsplash.jpg","41","","","","","","","","","","","","","","","","","","","","","","","","","","","","","","","","","","","","","","","",""
"","rating","","html-slider-response","46","171803","0.0-45.0","0","0","1ae5n","People","","2484","","","","","54","16","giano-currie-5-9YOsmf8IQ-unsplash.jpg","42","","","","","","","","","","","","","","","","","","","","","","","","","","","","","","","","","","","","","","","",""
"","rating","","html-slider-response","47","174483","0.0-46.0","0","0","1ae5n","People","","2678","","","","","81","32","nathan-dumlao-ger61_TX6oI-unsplash.jpg","43","","","","","","","","","","","","","","","","","","","","","","","","","","","","","","","","","","","","","","","",""
"","rating","","html-slider-response","48","177239","0.0-47.0","0","0","1ae5n","People","","2754","","","","","66","18","good-faces-xmSWVeGEnJw-unsplash.jpg","44","","","","","","","","","","","","","","","","","","","","","","","","","","","","","","","","","","","","","","","",""
"","rating","","html-slider-response","49","180203","0.0-48.0","0","0","1ae5n","People","","2962","","","","","60","13","erik-lucatero-d2MSDujJl2g-unsplash.jpg","45","","","","","","","","","","","","","","","","","","","","","","","","","","","","","","","","","","","","","","","",""
"","rating","","html-slider-response","50","183989","0.0-49.0","0","0","1ae5n","People","","3784","","","","","63","29","leilani-angel-K84vnnzxmTQ-unsplash.jpg","46","","","","","","","","","","","","","","","","","","","","","","","","","","","","","","","","","","","","","","","",""
"","rating","","html-slider-response","51","189329","0.0-50.0","0","0","1ae5n","People","","5338","","","","","58","24","joel-mott-LaK153ghdig-unsplash.jpg","47","","","","","","","","","","","","","","","","","","","","","","","","","","","","","","","","","","","","","","","",""
"","rating","","html-slider-response","52","196676","0.0-51.0","0","0","1ae5n","People","","7344","","","","","37","12","daniel-rigdon-dXmXKPP2L4E-unsplash.jpg","48","","","","","","","","","","","","","","","","","","","","","","","","","","","","","","","","","","","","","","","",""
"","rating","","html-slider-response","53","200426","0.0-52.0","0","0","1ae5n","People","","3748","","","","","46","23","joanna-nix-walkup-H4fEMshfwTE-unsplash.jpg","49","","","","","","","","","","","","","","","","","","","","","","","","","","","","","","","","","","","","","","","",""
"","deliberation_instructions","","instructions","54","253271","0.0-53.0-0.0","0","0","1ae5n","People","[{""page_index"":0,""viewing_time"":15769},{""page_index"":1,""viewing_time"":10744},{""page_index"":2,""viewing_time"":15804},{""page_index"":3,""viewing_time"":9142},{""page_index"":4,""viewing_time"":1382}]","52841","","","","","","","","","","","","","","","","","","","","","","","","","","","","","","","","","","","","","","","","","","","","","","","",""
"","","","survey-multi-choice","55","281292","0.0-53.0-1.0","0","0","1ae5n","People","","28010","{""Q0"":""True"",""Q1"":""True"",""Q2"":""Consider carefully and take your time (up to 10 seconds)"",""Q3"":""True"",""Q4"":""D""}","deliberation_comprehension_check","0","","","","","","","","","","","","","","","","","","","","","","","","","","","","","","","","","","","","","","","","","","","","",""
"","start_phase","","html-keyboard-response","56","283727","0.0-54.0","0","0","1ae5n","People","","2432","","","","78","","","","","","","","","","","","","","","","","","","","","","","","","","","","","","","","","","","","","","","","","","","",""
"","first_deliberation_block","","html-keyboard-response","57","286693","0.0-55.0","0","0","1ae5n","People","","2963","","","","78","","","","","","","","","","","","","","","","","","","","","","","","","","","","","","","","","","","","","","","","","","","",""
"","fixation","","html-keyboard-response","58","287708","0.0-56.0-0.0","0","0","1ae5n","People","","null","","","","null","","","","","","","","","","","","","","","","","","","","","","","","","","","","","","","","","","","","","","","","","","","",""
"","deliberation","","html-keyboard-response","59","290412","0.0-56.0-1.0","0","0","1ae5n","People","","2699","","","","68","","","","0","24","22","1","-1","58","57","joel-mott-LaK153ghdig-unsplash.jpg","jessica-radanavong-mrYkTuAesKE-unsplash.jpg","1","1","24","22","","","","","","","","","","","","","","","","","","","","","","","","","","","",""
"","choice_confirmation","","html-keyboard-response","60","290922","0.0-56.0-2.0-0.0","0","0","1ae5n","People","","null","","","","null","","","","0","24","22","","","","","","","","","","","","","","","","","","","","","","","","","","","","","","","","","","","","","",""
"","explain_trial","","survey-text","61","308243","0.0-56.0-5.0-0.0","0","0","1ae5n","People","","17317","{""Q0"":""The model's smile is beautiful and I love the palm trees.""}","","","","","","","0","24","22","","","","","","","","","","","{""Q0"":""The model's smile is beautiful and I love the palm trees.""}","","","","","","","","","","","","","","","","","","","","","","","","","","",""
"","fixation","","html-keyboard-response","62","309259","0.0-57.0-0.0","0","0","1ae5n","People","","null","","","","null","","","","","","","","","","","","","","","","","","","","","","","","","","","","","","","","","","","","","","","","","","","",""
"","deliberation","","html-keyboard-response","63","312505","0.0-57.0-1.0","0","0","1ae5n","People","","3242","","","","68","","","","1","46","23","1","-1","55","46","stefan-stefancik-QXevDflbl8A-unsplash.jpg","joanna-nix-walkup-H4fEMshfwTE-unsplash.jpg","1","1","46","23","","","","","","","","","","","","","","","","","","","","","","","","","","","",""
"","choice_confirmation","","html-keyboard-response","64","313026","0.0-57.0-2.0-0.0","0","0","1ae5n","People","","null","","","","null","","","","1","46","23","","","","","","","","","","","","","","","","","","","","","","","","","","","","","","","","","","","","","",""
"","explain_trial","","survey-text","65","324226","0.0-57.0-5.0-0.0","0","0","1ae5n","People","","11196","{""Q0"":""The sunset and lighting is gorgeous.""}","","","","","","","1","46","23","","","","","","","","","","","{""Q0"":""The sunset and lighting is gorgeous.""}","","","","","","","","","","","","","","","","","","","","","","","","","","",""
"","fixation","","html-keyboard-response","66","325236","0.0-58.0-0.0","0","0","1ae5n","People","","null","","","","null","","","","","","","","","","","","","","","","","","","","","","","","","","","","","","","","","","","","","","","","","","","",""
"","deliberation","","html-keyboard-response","67","327891","0.0-58.0-1.0","0","0","1ae5n","People","","2651","","","","68","","","","2","8","3","0","1","61","53","bruce-dixon-3M9WJQVHzog-unsplash.jpg","art-hauntington-jzY0KRJopEI-unsplash.jpg","1","1","8","3","","","","","","","","","","","","","","","","","","","","","","","","","","","",""
"","choice_confirmation","","html-keyboard-response","68","328410","0.0-58.0-2.0-0.0","0","0","1ae5n","People","","null","","","","null","","","","2","8","3","","","","","","","","","","","","","","","","","","","","","","","","","","","","","","","","","","","","","",""
"","fixation","","html-keyboard-response","69","329422","0.0-59.0-0.0","0","0","1ae5n","People","","null","","","","null","","","","","","","","","","","","","","","","","","","","","","","","","","","","","","","","","","","","","","","","","","","",""
"","deliberation","","html-keyboard-response","70","332627","0.0-59.0-1.0","0","0","1ae5n","People","","3202","","","","68","","","","3","7","48","0","1","55","57","brooke-cagle-HRZUzoX1e6w-unsplash.jpg","velizar-ivanov-7ktP9yZA1g4-unsplash.jpg","1","1","7","48","","","","","","","","","","","","","","","","","","","","","","","","","","","",""
"","choice_confirmation","","html-keyboard-response","71","333146","0.0-59.0-2.0-0.0","0","0","1ae5n","People","","null","","","","null","","","","3","7","48","","","","","","","","","","","","","","","","","","","","","","","","","","","","","","","","","","","","","",""
"","fixation","","html-keyboard-response","72","334158","0.0-60.0-0.0","0","0","1ae5n","People","","null","","","","null","","","","","","","","","","","","","","","","","","","","","","","","","","","","","","","","","","","","","","","","","","","",""
"","deliberation","","html-keyboard-response","73","338187","0.0-60.0-1.0","0","0","1ae5n","People","","4026","","","","75","","","","4","45","39","0","1","56","44","sarah-noltner-pL5ZzPp1zqg-unsplash.jpg","philip-martin-5aGUyCW_PJw-unsplash.jpg","1","0","39","45","","","","","","","","","","","","","","","","","","","","","","","","","","","",""
"","choice_confirmation","","html-keyboard-response","74","338694","0.0-60.0-2.0-0.0","0","0","1ae5n","People","","null","","","","null","","","","4","45","39","","","","","","","","","","","","","","","","","","","","","","","","","","","","","","","","","","","","","",""
"","fixation","","html-keyboard-response","75","339704","0.0-61.0-0.0","0","0","1ae5n","People","","null","","","","null","","","","","","","","","","","","","","","","","","","","","","","","","","","","","","","","","","","","","","","","","","","",""
"","deliberation","","html-keyboard-response","76","343379","0.0-61.0-1.0","0","0","1ae5n","People","","3672","","","","68","","","","5","41","27","1","-1","57","47","prince-akachi-i2hoD-C2RUA-unsplash.jpg","jurica-koletic-7YVZYZeITc8-unsplash.jpg","1","1","41","27","","","","","","","","","","","","","","","","","","","","","","","","","","","",""
"","choice_confirmation","","html-keyboard-response","77","343888","0.0-61.0-2.0-0.0","0","0","1ae5n","People","","null","","","","null","","","","5","41","27","","","","","","","","","","","","","","","","","","","","","","","","","","","","","","","","","","","","","",""
"","explain_trial","","survey-text","78","358859","0.0-61.0-5.0-0.0","0","0","1ae5n","People","","14968","{""Q0"":""Her smile looks very authentic. ""}","","","","","","","5","41","27","","","","","","","","","","","{""Q0"":""Her smile looks very authentic. ""}","","","","","","","","","","","","","","","","","","","","","","","","","","",""
"","fixation","","html-keyboard-response","79","359868","0.0-62.0-0.0","0","0","1ae5n","People","","null","","","","null","","","","","","","","","","","","","","","","","","","","","","","","","","","","","","","","","","","","","","","","","","","",""
"","deliberation","","html-keyboard-response","80","365556","0.0-62.0-1.0","0","0","1ae5n","People","","5683","","","","68","","","","6","1","13","1","-1","60","60","aiony-haust-jmATI5Q_YgY-unsplash.jpg","erik-lucatero-d2MSDujJl2g-unsplash.jpg","1","1","1","13","","","","","","","","","","","","","","","","","","","","","","","","","","","",""
"","choice_confirmation","","html-keyboard-response","81","366075","0.0-62.0-2.0-0.0","0","0","1ae5n","People","","null","","","","null","","","","6","1","13","","","","","","","","","","","","","","","","","","","","","","","","","","","","","","","","","","","","","",""
"","explain_trial","","survey-text","82","380153","0.0-62.0-5.0-0.0","0","0","1ae5n","People","","14073","{""Q0"":""It resembles a classic painting.""}","","","","","","","6","1","13","","","","","","","","","","","{""Q0"":""It resembles a classic painting.""}","","","","","","","","","","","","","","","","","","","","","","","","","","",""
"","fixation","","html-keyboard-response","83","381161","0.0-63.0-0.0","0","0","1ae5n","People","","null","","","","null","","","","","","","","","","","","","","","","","","","","","","","","","","","","","","","","","","","","","","","","","","","",""
"","deliberation","","html-keyboard-response","84","383671","0.0-63.0-1.0","0","0","1ae5n","People","","2505","","","","75","","","","7","16","36","1","-1","54","61","giano-currie-5-9YOsmf8IQ-unsplash.jpg","ospan-ali-mGdA2fzjWLo-unsplash.jpg","1","0","36","16","","","","","","","","","","","","","","","","","","","","","","","","","","","",""
"","choice_confirmation","","html-keyboard-response","85","384178","0.0-63.0-2.0-0.0","0","0","1ae5n","People","","null","","","","null","","","","7","16","36","","","","","","","","","","","","","","","","","","","","","","","","","","","","","","","","","","","","","",""
"","explain_trial","","survey-text","86","404055","0.0-63.0-5.0-0.0","0","0","1ae5n","People","","19873","{""Q0"":""Her features and clothing are very unique and striking.""}","","","","","","","7","16","36","","","","","","","","","","","{""Q0"":""Her features and clothing are very unique and striking.""}","","","","","","","","","","","","","","","","","","","","","","","","","","",""
"","fixation","","html-keyboard-response","87","405074","0.0-64.0-0.0","0","0","1ae5n","People","","null","","","","null","","","","","","","","","","","","","","","","","","","","","","","","","","","","","","","","","","","","","","","","","","","",""
"","deliberation","","html-keyboard-response","88","408955","0.0-64.0-1.0","0","0","1ae5n","People","","3877","","","","68","","","","8","17","15","1","-1","56","56","gleb-lukomets-paBzWCPN23k-unsplash.jpg","gabriel-silverio-u3WmDyKGsrY-unsplash.jpg","1","1","17","15","","","","","","","","","","","","","","","","","","","","","","","","","","","",""
"","choice_confirmation","","html-keyboard-response","89","409459","0.0-64.0-2.0-0.0","0","0","1ae5n","People","","null","","","","null","","","","8","17","15","","","","","","","","","","","","","","","","","","","","","","","","","","","","","","","","","","","","","",""
"","explain_trial","","survey-text","90","422959","0.0-64.0-5.0-0.0","0","0","1ae5n","People","","13496","{""Q0"":""I like the lighting on her face and the shadows. ""}","","","","","","","8","17","15","","","","","","","","","","","{""Q0"":""I like the lighting on her face and the shadows. ""}","","","","","","","","","","","","","","","","","","","","","","","","","","",""
"","fixation","","html-keyboard-response","91","423974","0.0-65.0-0.0","0","0","1ae5n","People","","null","","","","null","","","","","","","","","","","","","","","","","","","","","","","","","","","","","","","","","","","","","","","","","","","",""
"","deliberation","","html-keyboard-response","92","426460","0.0-65.0-1.0","0","0","1ae5n","People","","2482","","","","68","","","","9","2","49","0","1","47","46","arjunsyah-TBUA5KHJn6k-unsplash.jpg","vicky-hladynets-_gDoyVv5F4c-unsplash.jpg","1","1","2","49","","","","","","","","","","","","","","","","","","","","","","","","","","","",""
"","choice_confirmation","","html-keyboard-response","93","426965","0.0-65.0-2.0-0.0","0","0","1ae5n","People","","null","","","","null","","","","9","2","49","","","","","","","","","","","","","","","","","","","","","","","","","","","","","","","","","","","","","",""
"","fixation","","html-keyboard-response","94","427979","0.0-66.0-0.0","0","0","1ae5n","People","","null","","","","null","","","","","","","","","","","","","","","","","","","","","","","","","","","","","","","","","","","","","","","","","","","",""
"","deliberation","","html-keyboard-response","95","430765","0.0-66.0-1.0","0","0","1ae5n","People","","2783","","","","68","","","","10","40","33","0","1","45","56","prince-akachi-4Yv84VgQkRM-unsplash.jpg","olena-sergienko-0TSd6uCKTKc-unsplash.jpg","1","1","40","33","","","","","","","","","","","","","","","","","","","","","","","","","","","",""
"","choice_confirmation","","html-keyboard-response","96","431283","0.0-66.0-2.0-0.0","0","0","1ae5n","People","","null","","","","null","","","","10","40","33","","","","","","","","","","","","","","","","","","","","","","","","","","","","","","","","","","","","","",""
"","fixation","","html-keyboard-response","97","432295","0.0-67.0-0.0","0","0","1ae5n","People","","null","","","","null","","","","","","","","","","","","","","","","","","","","","","","","","","","","","","","","","","","","","","","","","","","",""
"","deliberation","","html-keyboard-response","98","436230","0.0-67.0-1.0","0","0","1ae5n","People","","3930","","","","75","","","","11","26","37","0","1","59","60","juri-gianfrancesco-9EZadYaMzk4-unsplash.jpg","pavel-anoshin-d0peGya6R5Y-unsplash.jpg","1","0","37","26","","","","","","","","","","","","","","","","","","","","","","","","","","","",""
"","choice_confirmation","","html-keyboard-response","99","436736","0.0-67.0-2.0-0.0","0","0","1ae5n","People","","null","","","","null","","","","11","26","37","","","","","","","","","","","","","","","","","","","","","","","","","","","","","","","","","","","","","",""
"","practice_deliberation_again","","html-keyboard-response","100","440601","0.0-67.0-6.0-0.0","0","0","1ae5n","People","","3861","","","","78","","","","","","","","","","","","","","","","","","","","","","","","","","","","","","","","","","","","","","","","","","","",""
"","fixation","","html-keyboard-response","101","441619","0.0-68.0-0.0","0","0","1ae5n","People","","null","","","","null","","","","","","","","","","","","","","","","","","","","","","","","","","","","","","","","","","","","","","","","","","","",""
"","deliberation","","html-keyboard-response","102","443295","0.0-68.0-1.0","0","0","1ae5n","People","","1672","","","","68","","","","12","46","23","0","-1","55","46","stefan-stefancik-QXevDflbl8A-unsplash.jpg","joanna-nix-walkup-H4fEMshfwTE-unsplash.jpg","2","1","46","23","","","","","","","","","","","","","","","","","","","","","","","","","","","",""
"","choice_confirmation","","html-keyboard-response","103","443803","0.0-68.0-2.0-0.0","0","0","1ae5n","People","","null","","","","null","","","","12","46","23","","","","","","","","","","","","","","","","","","","","","","","","","","","","","","","","","","","","","",""
"","fixation","","html-keyboard-response","104","444817","0.0-69.0-0.0","0","0","1ae5n","People","","null","","","","null","","","","","","","","","","","","","","","","","","","","","","","","","","","","","","","","","","","","","","","","","","","",""
"","deliberation","","html-keyboard-response","105","445533","0.0-69.0-1.0","0","0","1ae5n","People","","713","","","","68","","","","13","41","27","0","-1","57","47","prince-akachi-i2hoD-C2RUA-unsplash.jpg","jurica-koletic-7YVZYZeITc8-unsplash.jpg","2","1","41","27","","","","","","","","","","","","","","","","","","","","","","","","","","","",""
"","choice_confirmation","","html-keyboard-response","106","446054","0.0-69.0-2.0-0.0","0","0","1ae5n","People","","null","","","","null","","","","13","41","27","","","","","","","","","","","","","","","","","","","","","","","","","","","","","","","","","","","","","",""
"","fixation","","html-keyboard-response","107","447110","0.0-70.0-0.0","0","0","1ae5n","People","","null","","","","null","","","","","","","","","","","","","","","","","","","","","","","","","","","","","","","","","","","","","","","","","","","",""
"","deliberation","","html-keyboard-response","108","447978","0.0-70.0-1.0","0","0","1ae5n","People","","866","","","","68","","","","14","2","49","1","1","47","46","arjunsyah-TBUA5KHJn6k-unsplash.jpg","vicky-hladynets-_gDoyVv5F4c-unsplash.jpg","2","1","2","49","","","","","","","","","","","","","","","","","","","","","","","","","","","",""
"","choice_confirmation","","html-keyboard-response","109","448491","0.0-70.0-2.0-0.0","0","0","1ae5n","People","","null","","","","null","","","","14","2","49","","","","","","","","","","","","","","","","","","","","","","","","","","","","","","","","","","","","","",""
"","explain_trial","","survey-text","110","459456","0.0-70.0-5.0-0.0","0","0","1ae5n","People","","10962","{""Q0"":""I think the background is really pretty.""}","","","","","","","14","2","49","","","","","","","","","","","{""Q0"":""I think the background is really pretty.""}","","","","","","","","","","","","","","","","","","","","","","","","","","",""
"","fixation","","html-keyboard-response","111","460466","0.0-71.0-0.0","0","0","1ae5n","People","","null","","","","null","","","","","","","","","","","","","","","","","","","","","","","","","","","","","","","","","","","","","","","","","","","",""
"","deliberation","","html-keyboard-response","112","461853","0.0-71.0-1.0","0","0","1ae5n","People","","1383","","","","75","","","","15","45","39","1","1","56","44","sarah-noltner-pL5ZzPp1zqg-unsplash.jpg","philip-martin-5aGUyCW_PJw-unsplash.jpg","2","0","39","45","","","","","","","","","","","","","","","","","","","","","","","","","","","",""
"","choice_confirmation","","html-keyboard-response","113","462366","0.0-71.0-2.0-0.0","0","0","1ae5n","People","","null","","","","null","","","","15","45","39","","","","","","","","","","","","","","","","","","","","","","","","","","","","","","","","","","","","","",""
"","explain_trial","","survey-text","114","481773","0.0-71.0-5.0-0.0","0","0","1ae5n","People","","19404","{""Q0"":""The landscape and the man's black sweater are a gorgeous contrast.""}","","","","","","","15","45","39","","","","","","","","","","","{""Q0"":""The landscape and the man's black sweater are a gorgeous contrast.""}","","","","","","","","","","","","","","","","","","","","","","","","","","",""
"","fixation","","html-keyboard-response","115","482788","0.0-72.0-0.0","0","0","1ae5n","People","","null","","","","null","","","","","","","","","","","","","","","","","","","","","","","","","","","","","","","","","","","","","","","","","","","",""
"","deliberation","","html-keyboard-response","116","492814","0.0-72.0-1.0","0","0","1ae5n","People","","null","","","","null","","","","16","8","3","1","1","61","53","bruce-dixon-3M9WJQVHzog-unsplash.jpg","art-hauntington-jzY0KRJopEI-unsplash.jpg","2","","","","","","","","","","","","","","","","","","","","","","","","","","","","","","",""
"","deliberation_too_slow","","html-keyboard-response","117","494326","0.0-72.0-4.0-0.0","1","0","1ae5n","People","","null","","","","null","","","","16","","","","","","","","","","","","","","","","","","","","","","","","","","","","","","","","","","","","","","","",""
"","fixation","","html-keyboard-response","118","495335","0.0-72.1-0.1","0","0","1ae5n","People","","null","","","","null","","","","","","","","","","","","","","","","","","","","","","","","","","","","","","","","","","","","","","","","","","","",""
"","deliberation","","html-keyboard-response","119","496891","0.0-72.1-1.1","0","0","1ae5n","People","","1552","","","","68","","","","16","8","3","1","1","61","53","bruce-dixon-3M9WJQVHzog-unsplash.jpg","art-hauntington-jzY0KRJopEI-unsplash.jpg","2","1","8","3","","","","","","","","","","","","","","","","","","","","","","","","","","","",""
"","choice_confirmation","","html-keyboard-response","120","497402","0.0-72.1-2.1-0.1","0","0","1ae5n","People","","null","","","","null","","","","16","8","3","","","","","","","","","","","","","","","","","","","","","","","","","","","","","","","","","","","","","",""
"","explain_trial","","survey-text","121","520615","0.0-72.1-5.1-0.1","0","0","1ae5n","People","","23211","{""Q0"":""It looks like an authentic photo and the angle of the man's face works really well. ""}","","","","","","","16","8","3","","","","","","","","","","","{""Q0"":""It looks like an authentic photo and the angle of the man's face works really well. ""}","","","","","","","","","","","","","","","","","","","","","","","","","","",""
"","fixation","","html-keyboard-response","122","521633","0.0-73.0-0.0","0","0","1ae5n","People","","null","","","","null","","","","","","","","","","","","","","","","","","","","","","","","","","","","","","","","","","","","","","","","","","","",""
"","deliberation","","html-keyboard-response","123","524397","0.0-73.0-1.0","0","0","1ae5n","People","","2760","","","","68","","","","17","1","13","0","-1","60","60","aiony-haust-jmATI5Q_YgY-unsplash.jpg","erik-lucatero-d2MSDujJl2g-unsplash.jpg","2","1","1","13","","","","","","","","","","","","","","","","","","","","","","","","","","","",""
"","choice_confirmation","","html-keyboard-response","124","524906","0.0-73.0-2.0-0.0","0","0","1ae5n","People","","null","","","","null","","","","17","1","13","","","","","","","","","","","","","","","","","","","","","","","","","","","","","","","","","","","","","",""
"","fixation","","html-keyboard-response","125","525922","0.0-74.0-0.0","0","0","1ae5n","People","","null","","","","null","","","","","","","","","","","","","","","","","","","","","","","","","","","","","","","","","","","","","","","","","","","",""
"","deliberation","","html-keyboard-response","126","527464","0.0-74.0-1.0","0","0","1ae5n","People","","1540","","","","68","","","","18","40","33","1","1","45","56","prince-akachi-4Yv84VgQkRM-unsplash.jpg","olena-sergienko-0TSd6uCKTKc-unsplash.jpg","2","1","40","33","","","","","","","","","","","","","","","","","","","","","","","","","","","",""
"","choice_confirmation","","html-keyboard-response","127","527978","0.0-74.0-2.0-0.0","0","0","1ae5n","People","","null","","","","null","","","","18","40","33","","","","","","","","","","","","","","","","","","","","","","","","","","","","","","","","","","","","","",""
"","explain_trial","","survey-text","128","535069","0.0-74.0-5.0-0.0","0","0","1ae5n","People","","7087","{""Q0"":""The man's smile""}","","","","","","","18","40","33","","","","","","","","","","","{""Q0"":""The man's smile""}","","","","","","","","","","","","","","","","","","","","","","","","","","",""
"","fixation","","html-keyboard-response","129","536072","0.0-75.0-0.0","0","0","1ae5n","People","","null","","","","null","","","","","","","","","","","","","","","","","","","","","","","","","","","","","","","","","","","","","","","","","","","",""
"","deliberation","","html-keyboard-response","130","537620","0.0-75.0-1.0","0","0","1ae5n","People","","1544","","","","75","","","","19","26","37","1","1","59","60","juri-gianfrancesco-9EZadYaMzk4-unsplash.jpg","pavel-anoshin-d0peGya6R5Y-unsplash.jpg","2","0","37","26","","","","","","","","","","","","","","","","","","","","","","","","","","","",""
"","choice_confirmation","","html-keyboard-response","131","538126","0.0-75.0-2.0-0.0","0","0","1ae5n","People","","null","","","","null","","","","19","26","37","","","","","","","","","","","","","","","","","","","","","","","","","","","","","","","","","","","","","",""
"","explain_trial","","survey-text","132","554801","0.0-75.0-5.0-0.0","0","0","1ae5n","People","","16672","{""Q0"":""I think the black contrasting with the white background is really nice.""}","","","","","","","19","26","37","","","","","","","","","","","{""Q0"":""I think the black contrasting with the white background is really nice.""}","","","","","","","","","","","","","","","","","","","","","","","","","","",""
"","fixation","","html-keyboard-response","133","555814","0.0-76.0-0.0","0","0","1ae5n","People","","null","","","","null","","","","","","","","","","","","","","","","","","","","","","","","","","","","","","","","","","","","","","","","","","","",""
"","deliberation","","html-keyboard-response","134","558108","0.0-76.0-1.0","0","0","1ae5n","People","","2290","","","","68","","","","20","17","15","0","-1","56","56","gleb-lukomets-paBzWCPN23k-unsplash.jpg","gabriel-silverio-u3WmDyKGsrY-unsplash.jpg","2","1","17","15","","","","","","","","","","","","","","","","","","","","","","","","","","","",""
"","choice_confirmation","","html-keyboard-response","135","558617","0.0-76.0-2.0-0.0","0","0","1ae5n","People","","null","","","","null","","","","20","17","15","","","","","","","","","","","","","","","","","","","","","","","","","","","","","","","","","","","","","",""
"","fixation","","html-keyboard-response","136","559637","0.0-77.0-0.0","0","0","1ae5n","People","","null","","","","null","","","","","","","","","","","","","","","","","","","","","","","","","","","","","","","","","","","","","","","","","","","",""
"","deliberation","","html-keyboard-response","137","561053","0.0-77.0-1.0","0","0","1ae5n","People","","1412","","","","68","","","","21","24","22","0","-1","58","57","joel-mott-LaK153ghdig-unsplash.jpg","jessica-radanavong-mrYkTuAesKE-unsplash.jpg","2","1","24","22","","","","","","","","","","","","","","","","","","","","","","","","","","","",""
"","choice_confirmation","","html-keyboard-response","138","561567","0.0-77.0-2.0-0.0","0","0","1ae5n","People","","null","","","","null","","","","21","24","22","","","","","","","","","","","","","","","","","","","","","","","","","","","","","","","","","","","","","",""
"","fixation","","html-keyboard-response","139","562580","0.0-78.0-0.0","0","0","1ae5n","People","","null","","","","null","","","","","","","","","","","","","","","","","","","","","","","","","","","","","","","","","","","","","","","","","","","",""
"","deliberation","","html-keyboard-response","140","563869","0.0-78.0-1.0","0","0","1ae5n","People","","1286","","","","68","","","","22","7","48","1","1","55","57","brooke-cagle-HRZUzoX1e6w-unsplash.jpg","velizar-ivanov-7ktP9yZA1g4-unsplash.jpg","2","1","7","48","","","","","","","","","","","","","","","","","","","","","","","","","","","",""
"","choice_confirmation","","html-keyboard-response","141","564373","0.0-78.0-2.0-0.0","0","0","1ae5n","People","","null","","","","null","","","","22","7","48","","","","","","","","","","","","","","","","","","","","","","","","","","","","","","","","","","","","","",""
"","explain_trial","","survey-text","142","581329","0.0-78.0-5.0-0.0","0","0","1ae5n","People","","16952","{""Q0"":""I love the stripes on her shirt with the palms in the background.""}","","","","","","","22","7","48","","","","","","","","","","","{""Q0"":""I love the stripes on her shirt with the palms in the background.""}","","","","","","","","","","","","","","","","","","","","","","","","","","",""
"","fixation","","html-keyboard-response","143","582339","0.0-79.0-0.0","0","0","1ae5n","People","","null","","","","null","","","","","","","","","","","","","","","","","","","","","","","","","","","","","","","","","","","","","","","","","","","",""
"","deliberation","","html-keyboard-response","144","583756","0.0-79.0-1.0","0","0","1ae5n","People","","1414","","","","75","","","","23","16","36","0","-1","54","61","giano-currie-5-9YOsmf8IQ-unsplash.jpg","ospan-ali-mGdA2fzjWLo-unsplash.jpg","2","0","36","16","","","","","","","","","","","","","","","","","","","","","","","","","","","",""
"","choice_confirmation","","html-keyboard-response","145","584262","0.0-79.0-2.0-0.0","0","0","1ae5n","People","","null","","","","null","","","","23","16","36","","","","","","","","","","","","","","","","","","","","","","","","","","","","","","","","","","","","","",""
"","start_critical_deliberation_block","","html-keyboard-response","146","587598","0.0-79.0-7.0-0.0","0","0","1ae5n","People","","3334","","","","78","","","","","","","","","","","","","","","","","","","","","","","","","","","","","","","","","","","","","","","","","","","",""
"","fixation","","html-keyboard-response","147","588613","0.0-80.0-0.0","0","0","1ae5n","People","","null","","","","null","","","","","","","","","","","","","","","","","","","","","","","","","","","","","","","","","","","","","","","","","","","",""
"","deliberation","","html-keyboard-response","148","589681","0.0-80.0-1.0","0","0","1ae5n","People","","1064","","","","75","","","","24","16","36","0","-1","54","61","giano-currie-5-9YOsmf8IQ-unsplash.jpg","ospan-ali-mGdA2fzjWLo-unsplash.jpg","3","0","36","16","","","","","","","","","","","","","","","","","","","","","","","","","","","",""
"","choice_confirmation","","html-keyboard-response","149","590187","0.0-80.0-2.0-0.0","0","0","1ae5n","People","","null","","","","null","","","","24","16","36","","","","","","","","","","","","","","","","","","","","","","","","","","","","","","","","","","","","","",""
"","fixation","","html-keyboard-response","150","591201","0.0-81.0-0.0","0","0","1ae5n","People","","null","","","","null","","","","","","","","","","","","","","","","","","","","","","","","","","","","","","","","","","","","","","","","","","","",""
"","deliberation","","html-keyboard-response","151","592190","0.0-81.0-1.0","0","0","1ae5n","People","","985","","","","68","","","","25","8","3","0","1","61","53","bruce-dixon-3M9WJQVHzog-unsplash.jpg","art-hauntington-jzY0KRJopEI-unsplash.jpg","3","1","8","3","","","","","","","","","","","","","","","","","","","","","","","","","","","",""
"","choice_confirmation","","html-keyboard-response","152","592699","0.0-81.0-2.0-0.0","0","0","1ae5n","People","","null","","","","null","","","","25","8","3","","","","","","","","","","","","","","","","","","","","","","","","","","","","","","","","","","","","","",""
"","fixation","","html-keyboard-response","153","593710","0.0-82.0-0.0","0","0","1ae5n","People","","null","","","","null","","","","","","","","","","","","","","","","","","","","","","","","","","","","","","","","","","","","","","","","","","","",""
"","deliberation","","html-keyboard-response","154","594728","0.0-82.0-1.0","0","0","1ae5n","People","","1013","","","","68","","","","26","24","22","0","-1","58","57","joel-mott-LaK153ghdig-unsplash.jpg","jessica-radanavong-mrYkTuAesKE-unsplash.jpg","3","1","24","22","","","","","","","","","","","","","","","","","","","","","","","","","","","",""
"","choice_confirmation","","html-keyboard-response","155","595239","0.0-82.0-2.0-0.0","0","0","1ae5n","People","","null","","","","null","","","","26","24","22","","","","","","","","","","","","","","","","","","","","","","","","","","","","","","","","","","","","","",""
"","fixation","","html-keyboard-response","156","596252","0.0-83.0-0.0","0","0","1ae5n","People","","null","","","","null","","","","","","","","","","","","","","","","","","","","","","","","","","","","","","","","","","","","","","","","","","","",""
"","deliberation","","html-keyboard-response","157","597165","0.0-83.0-1.0","0","0","1ae5n","People","","910","","","","75","","","","27","45","39","0","1","56","44","sarah-noltner-pL5ZzPp1zqg-unsplash.jpg","philip-martin-5aGUyCW_PJw-unsplash.jpg","3","0","39","45","","","","","","","","","","","","","","","","","","","","","","","","","","","",""
"","choice_confirmation","","html-keyboard-response","158","597685","0.0-83.0-2.0-0.0","0","0","1ae5n","People","","null","","","","null","","","","27","45","39","","","","","","","","","","","","","","","","","","","","","","","","","","","","","","","","","","","","","",""
"","fixation","","html-keyboard-response","159","598696","0.0-84.0-0.0","0","0","1ae5n","People","","null","","","","null","","","","","","","","","","","","","","","","","","","","","","","","","","","","","","","","","","","","","","","","","","","",""
"","deliberation","","html-keyboard-response","160","599510","0.0-84.0-1.0","0","0","1ae5n","People","","810","","","","68","","","","28","41","27","0","-1","57","47","prince-akachi-i2hoD-C2RUA-unsplash.jpg","jurica-koletic-7YVZYZeITc8-unsplash.jpg","3","1","41","27","","","","","","","","","","","","","","","","","","","","","","","","","","","",""
"","choice_confirmation","","html-keyboard-response","161","600022","0.0-84.0-2.0-0.0","0","0","1ae5n","People","","null","","","","null","","","","28","41","27","","","","","","","","","","","","","","","","","","","","","","","","","","","","","","","","","","","","","",""
"","fixation","","html-keyboard-response","162","601039","0.0-85.0-0.0","0","0","1ae5n","People","","null","","","","null","","","","","","","","","","","","","","","","","","","","","","","","","","","","","","","","","","","","","","","","","","","",""
"","deliberation","","html-keyboard-response","163","601861","0.0-85.0-1.0","0","0","1ae5n","People","","817","","","","68","","","","29","2","49","0","1","47","46","arjunsyah-TBUA5KHJn6k-unsplash.jpg","vicky-hladynets-_gDoyVv5F4c-unsplash.jpg","3","1","2","49","","","","","","","","","","","","","","","","","","","","","","","","","","","",""
"","choice_confirmation","","html-keyboard-response","164","602365","0.0-85.0-2.0-0.0","0","0","1ae5n","People","","null","","","","null","","","","29","2","49","","","","","","","","","","","","","","","","","","","","","","","","","","","","","","","","","","","","","",""
"","fixation","","html-keyboard-response","165","603381","0.0-86.0-0.0","0","0","1ae5n","People","","null","","","","null","","","","","","","","","","","","","","","","","","","","","","","","","","","","","","","","","","","","","","","","","","","",""
"","deliberation","","html-keyboard-response","166","604649","0.0-86.0-1.0","0","0","1ae5n","People","","1264","","","","68","","","","30","40","33","0","1","45","56","prince-akachi-4Yv84VgQkRM-unsplash.jpg","olena-sergienko-0TSd6uCKTKc-unsplash.jpg","3","1","40","33","","","","","","","","","","","","","","","","","","","","","","","","","","","",""
"","choice_confirmation","","html-keyboard-response","167","605162","0.0-86.0-2.0-0.0","0","0","1ae5n","People","","null","","","","null","","","","30","40","33","","","","","","","","","","","","","","","","","","","","","","","","","","","","","","","","","","","","","",""
"","fixation","","html-keyboard-response","168","606174","0.0-87.0-0.0","0","0","1ae5n","People","","null","","","","null","","","","","","","","","","","","","","","","","","","","","","","","","","","","","","","","","","","","","","","","","","","",""
"","deliberation","","html-keyboard-response","169","606982","0.0-87.0-1.0","0","0","1ae5n","People","","806","","","","68","","","","31","7","48","0","1","55","57","brooke-cagle-HRZUzoX1e6w-unsplash.jpg","velizar-ivanov-7ktP9yZA1g4-unsplash.jpg","3","1","7","48","","","","","","","","","","","","","","","","","","","","","","","","","","","",""
"","choice_confirmation","","html-keyboard-response","170","607500","0.0-87.0-2.0-0.0","0","0","1ae5n","People","","null","","","","null","","","","31","7","48","","","","","","","","","","","","","","","","","","","","","","","","","","","","","","","","","","","","","",""
"","fixation","","html-keyboard-response","171","608515","0.0-88.0-0.0","0","0","1ae5n","People","","null","","","","null","","","","","","","","","","","","","","","","","","","","","","","","","","","","","","","","","","","","","","","","","","","",""
"","deliberation","","html-keyboard-response","172","609384","0.0-88.0-1.0","0","0","1ae5n","People","","867","","","","68","","","","32","17","15","0","-1","56","56","gleb-lukomets-paBzWCPN23k-unsplash.jpg","gabriel-silverio-u3WmDyKGsrY-unsplash.jpg","3","1","17","15","","","","","","","","","","","","","","","","","","","","","","","","","","","",""
"","choice_confirmation","","html-keyboard-response","173","609903","0.0-88.0-2.0-0.0","0","0","1ae5n","People","","null","","","","null","","","","32","17","15","","","","","","","","","","","","","","","","","","","","","","","","","","","","","","","","","","","","","",""
"","fixation","","html-keyboard-response","174","610921","0.0-89.0-0.0","0","0","1ae5n","People","","null","","","","null","","","","","","","","","","","","","","","","","","","","","","","","","","","","","","","","","","","","","","","","","","","",""
"","deliberation","","html-keyboard-response","175","611741","0.0-89.0-1.0","0","0","1ae5n","People","","817","","","","68","","","","33","46","23","0","-1","55","46","stefan-stefancik-QXevDflbl8A-unsplash.jpg","joanna-nix-walkup-H4fEMshfwTE-unsplash.jpg","3","1","46","23","","","","","","","","","","","","","","","","","","","","","","","","","","","",""
"","choice_confirmation","","html-keyboard-response","176","612252","0.0-89.0-2.0-0.0","0","0","1ae5n","People","","null","","","","null","","","","33","46","23","","","","","","","","","","","","","","","","","","","","","","","","","","","","","","","","","","","","","",""
"","fixation","","html-keyboard-response","177","613266","0.0-90.0-0.0","0","0","1ae5n","People","","null","","","","null","","","","","","","","","","","","","","","","","","","","","","","","","","","","","","","","","","","","","","","","","","","",""
"","deliberation","","html-keyboard-response","178","614200","0.0-90.0-1.0","0","0","1ae5n","People","","930","","","","68","","","","34","1","13","0","-1","60","60","aiony-haust-jmATI5Q_YgY-unsplash.jpg","erik-lucatero-d2MSDujJl2g-unsplash.jpg","3","1","1","13","","","","","","","","","","","","","","","","","","","","","","","","","","","",""
"","choice_confirmation","","html-keyboard-response","179","614712","0.0-90.0-2.0-0.0","0","0","1ae5n","People","","null","","","","null","","","","34","1","13","","","","","","","","","","","","","","","","","","","","","","","","","","","","","","","","","","","","","",""
"","fixation","","html-keyboard-response","180","615727","0.0-91.0-0.0","0","0","1ae5n","People","","null","","","","null","","","","","","","","","","","","","","","","","","","","","","","","","","","","","","","","","","","","","","","","","","","",""
"","deliberation","","html-keyboard-response","181","616643","0.0-91.0-1.0","0","0","1ae5n","People","","915","","","","75","","","","35","26","37","0","1","59","60","juri-gianfrancesco-9EZadYaMzk4-unsplash.jpg","pavel-anoshin-d0peGya6R5Y-unsplash.jpg","3","0","37","26","","","","","","","","","","","","","","","","","","","","","","","","","","","",""
"","choice_confirmation","","html-keyboard-response","182","617157","0.0-91.0-2.0-0.0","0","0","1ae5n","People","","null","","","","null","","","","35","26","37","","","","","","","","","","","","","","","","","","","","","","","","","","","","","","","","","","","","","",""
"","reward_learning_instructions","","instructions","183","645915","0.0-92.0-0.0","0","0","1ae5n","People","[{""page_index"":0,""viewing_time"":9382},{""page_index"":1,""viewing_time"":17855},{""page_index"":2,""viewing_time"":1518}]","28756","","","","","","","","","","","","","","","","","","","","","","","","","","","","","","","","","","","","","","","","","","","","","","","",""
"","","","survey-multi-choice","184","663761","0.0-92.0-1.0","0","0","1ae5n","People","","17838","{""Q0"":""True"",""Q1"":""True"",""Q2"":""Press the space bar to see its outcome"",""Q3"":""Press the relevant key while the outcome is presented""}","reward_comprehension_check","0","","","","","","","","","","","","","","","","","","","","","","","","","","","","","","","","","","","","","","","","","","","","",""
"","start_phase","","html-keyboard-response","185","665819","0.0-93.0","0","0","1ae5n","People","","2055","","","","78","","","","","","","","","","","","","","","","","","","","","","","","","","","","","","","","","","","","","","","","","","","",""
"","fixation","","html-keyboard-response","186","666829","0.0-94.0","0","0","1ae5n","People","","null","","","","null","","","","","","","","","","","","","","","","","","","","","","","","","","","","","","","","","","","","","","","","","","","",""
"","see_reward","","html-keyboard-response","187","668185","0.0-95.0","0","0","1ae5n","People","","1351","","","","32","","1","","0","","","","-1","","","","","1","","","","","0","1351","","","","","","","","","","","","","","","","","","","","","","","","",""
"","reward_outcome","","html-keyboard-response","188","670198","0.0-96.0","0","0","1ae5n","People","","null","","","","null","","1","","0","","","","","","","","","","","","","","","","NaN","null","","","","","","","","","","","","","","","","","","","","","","",""
"","respond_faster","","html-keyboard-response","189","671708","0.0-97.0-0.0","1","0","1ae5n","People","","null","","","","null","","","","","","","","","","","","","","","","","","","","","","","","","","","","","","","","","","","","","","","","","","","",""
"","fixation","","html-keyboard-response","190","672723","0.0-99.0","0","0","1ae5n","People","","null","","","","null","","","","","","","","","","","","","","","","","","","","","","","","","","","","","","","","","","","","","","","","","","","",""
"","see_reward","","html-keyboard-response","191","673731","0.0-100.0","0","0","1ae5n","People","","1005","","","","32","","41","","1","","","","-1","","","","","1","","","","","0","1005","","","","","","","","","","","","","","","","","","","","","","","","",""
"","reward_outcome","","html-keyboard-response","192","675749","0.0-101.0","0","0","1ae5n","People","","611","","","","40","","41","","1","","","","","","","","","","","","","","","","-1","611","","","","","","","","","","","","","","","","","","","","","","",""
"","fixation","","html-keyboard-response","193","676769","0.0-104.0","0","0","1ae5n","People","","null","","","","null","","","","","","","","","","","","","","","","","","","","","","","","","","","","","","","","","","","","","","","","","","","",""
"","see_reward","","html-keyboard-response","194","677417","0.0-105.0","0","0","1ae5n","People","","645","","","","32","","8","","2","","","","1","","","","","1","","","","","150","645","","","","","","","","","","","","","","","","","","","","","","","","",""
"","reward_outcome","","html-keyboard-response","195","679432","0.0-106.0","0","0","1ae5n","People","","810","","","","38","","8","","2","","","","","","","","","","","","","","","","1","810","","","","","","","","","","","","","","","","","","","","","","",""
"","fixation","","html-keyboard-response","196","680444","0.0-109.0","0","0","1ae5n","People","","null","","","","null","","","","","","","","","","","","","","","","","","","","","","","","","","","","","","","","","","","","","","","","","","","",""
"","see_reward","","html-keyboard-response","197","680975","0.0-110.0","0","0","1ae5n","People","","527","","","","32","","41","","3","","","","-1","","","","","1","","","","","0","527","","","","","","","","","","","","","","","","","","","","","","","","",""
"","reward_outcome","","html-keyboard-response","198","682991","0.0-111.0","0","0","1ae5n","People","","585","","","","40","","41","","3","","","","","","","","","","","","","","","","-1","585","","","","","","","","","","","","","","","","","","","","","","",""
"","fixation","","html-keyboard-response","199","684006","0.0-114.0","0","0","1ae5n","People","","null","","","","null","","","","","","","","","","","","","","","","","","","","","","","","","","","","","","","","","","","","","","","","","","","",""
"","see_reward","","html-keyboard-response","200","684522","0.0-115.0","0","0","1ae5n","People","","513","","","","32","","1","","4","","","","-1","","","","","1","","","","","0","513","","","","","","","","","","","","","","","","","","","","","","","","",""
"","reward_outcome","","html-keyboard-response","201","686533","0.0-116.0","0","0","1ae5n","People","","717","","","","40","","1","","4","","","","","","","","","","","","","","","","-1","717","","","","","","","","","","","","","","","","","","","","","","",""
"","fixation","","html-keyboard-response","202","687548","0.0-119.0","0","0","1ae5n","People","","null","","","","null","","","","","","","","","","","","","","","","","","","","","","","","","","","","","","","","","","","","","","","","","","","",""
"","see_reward","","html-keyboard-response","203","688264","0.0-120.0","0","0","1ae5n","People","","713","","","","32","","2","","5","","","","1","","","","","1","","","","","154","713","","","","","","","","","","","","","","","","","","","","","","","","",""
"","reward_outcome","","html-keyboard-response","204","690278","0.0-121.0","0","0","1ae5n","People","","511","","","","38","","2","","5","","","","","","","","","","","","","","","","1","511","","","","","","","","","","","","","","","","","","","","","","",""
"","fixation","","html-keyboard-response","205","691294","0.0-124.0","0","0","1ae5n","People","","null","","","","null","","","","","","","","","","","","","","","","","","","","","","","","","","","","","","","","","","","","","","","","","","","",""
"","see_reward","","html-keyboard-response","206","691862","0.0-125.0","0","0","1ae5n","People","","565","","","","32","","40","","6","","","","1","","","","","1","","","","","145","565","","","","","","","","","","","","","","","","","","","","","","","","",""
"","reward_outcome","","html-keyboard-response","207","693881","0.0-126.0","0","0","1ae5n","People","","856","","","","38","","40","","6","","","","","","","","","","","","","","","","1","856","","","","","","","","","","","","","","","","","","","","","","",""
"","fixation","","html-keyboard-response","208","694897","0.0-129.0","0","0","1ae5n","People","","null","","","","null","","","","","","","","","","","","","","","","","","","","","","","","","","","","","","","","","","","","","","","","","","","",""
"","see_reward","","html-keyboard-response","209","695841","0.0-130.0","0","0","1ae5n","People","","941","","","","32","","36","","7","","","","-1","","","","","1","","","","","0","941","","","","","","","","","","","","","","","","","","","","","","","","",""
"","reward_outcome","","html-keyboard-response","210","697859","0.0-131.0","0","0","1ae5n","People","","573","","","","40","","36","","7","","","","","","","","","","","","","","","","-1","573","","","","","","","","","","","","","","","","","","","","","","",""
"","fixation","","html-keyboard-response","211","698874","0.0-134.0","0","0","1ae5n","People","","null","","","","null","","","","","","","","","","","","","","","","","","","","","","","","","","","","","","","","","","","","","","","","","","","",""
"","see_reward","","html-keyboard-response","212","699411","0.0-135.0","0","0","1ae5n","People","","534","","","","32","","24","","8","","","","-1","","","","","1","","","","","0","534","","","","","","","","","","","","","","","","","","","","","","","","",""
"","reward_outcome","","html-keyboard-response","213","701430","0.0-136.0","0","0","1ae5n","People","","710","","","","40","","24","","8","","","","","","","","","","","","","","","","-1","710","","","","","","","","","","","","","","","","","","","","","","",""
"","fixation","","html-keyboard-response","214","702444","0.0-139.0","0","0","1ae5n","People","","null","","","","null","","","","","","","","","","","","","","","","","","","","","","","","","","","","","","","","","","","","","","","","","","","",""
"","see_reward","","html-keyboard-response","215","702859","0.0-140.0","0","0","1ae5n","People","","412","","","","32","","37","","9","","","","1","","","","","1","","","","","159","412","","","","","","","","","","","","","","","","","","","","","","","","",""
"","reward_outcome","","html-keyboard-response","216","704876","0.0-141.0","0","0","1ae5n","People","","801","","","","38","","37","","9","","","","","","","","","","","","","","","","1","801","","","","","","","","","","","","","","","","","","","","","","",""
"","fixation","","html-keyboard-response","217","705891","0.0-144.0","0","0","1ae5n","People","","null","","","","null","","","","","","","","","","","","","","","","","","","","","","","","","","","","","","","","","","","","","","","","","","","",""
"","see_reward","","html-keyboard-response","218","706541","0.0-145.0","0","0","1ae5n","People","","646","","","","32","","39","","10","","","","1","","","","","1","","","","","146","646","","","","","","","","","","","","","","","","","","","","","","","","",""
"","reward_outcome","","html-keyboard-response","219","708556","0.0-146.0","0","0","1ae5n","People","","655","","","","38","","39","","10","","","","","","","","","","","","","","","","1","655","","","","","","","","","","","","","","","","","","","","","","",""
"","fixation","","html-keyboard-response","220","709572","0.0-149.0","0","0","1ae5n","People","","null","","","","null","","","","","","","","","","","","","","","","","","","","","","","","","","","","","","","","","","","","","","","","","","","",""
"","see_reward","","html-keyboard-response","221","709913","0.0-150.0","0","0","1ae5n","People","","337","","","","32","","37","","11","","","","1","","","","","1","","","","","159","337","","","","","","","","","","","","","","","","","","","","","","","","",""
"","reward_outcome","","html-keyboard-response","222","711930","0.0-151.0","0","0","1ae5n","People","","813","","","","38","","37","","11","","","","","","","","","","","","","","","","1","813","","","","","","","","","","","","","","","","","","","","","","",""
"","fixation","","html-keyboard-response","223","712942","0.0-154.0","0","0","1ae5n","People","","null","","","","null","","","","","","","","","","","","","","","","","","","","","","","","","","","","","","","","","","","","","","","","","","","",""
"","see_reward","","html-keyboard-response","224","713475","0.0-155.0","0","0","1ae5n","People","","530","","","","32","","17","","12","","","","-1","","","","","1","","","","","0","530","","","","","","","","","","","","","","","","","","","","","","","","",""
"","reward_outcome","","html-keyboard-response","225","715500","0.0-156.0","0","0","1ae5n","People","","683","","","","40","","17","","12","","","","","","","","","","","","","","","","-1","683","","","","","","","","","","","","","","","","","","","","","","",""
"","fixation","","html-keyboard-response","226","716503","0.0-159.0","0","0","1ae5n","People","","null","","","","null","","","","","","","","","","","","","","","","","","","","","","","","","","","","","","","","","","","","","","","","","","","",""
"","see_reward","","html-keyboard-response","227","716952","0.0-160.0","0","0","1ae5n","People","","446","","","","32","","46","","13","","","","-1","","","","","1","","","","","0","446","","","","","","","","","","","","","","","","","","","","","","","","",""
"","reward_outcome","","html-keyboard-response","228","718967","0.0-161.0","0","0","1ae5n","People","","633","","","","40","","46","","13","","","","","","","","","","","","","","","","-1","633","","","","","","","","","","","","","","","","","","","","","","",""
"","fixation","","html-keyboard-response","229","719980","0.0-164.0","0","0","1ae5n","People","","null","","","","null","","","","","","","","","","","","","","","","","","","","","","","","","","","","","","","","","","","","","","","","","","","",""
"","see_reward","","html-keyboard-response","230","720429","0.0-165.0","0","0","1ae5n","People","","445","","","","32","","40","","14","","","","1","","","","","1","","","","","145","445","","","","","","","","","","","","","","","","","","","","","","","","",""
"","reward_outcome","","html-keyboard-response","231","722442","0.0-166.0","0","0","1ae5n","People","","521","","","","38","","40","","14","","","","","","","","","","","","","","","","1","521","","","","","","","","","","","","","","","","","","","","","","",""
"","fixation","","html-keyboard-response","232","723458","0.0-169.0","0","0","1ae5n","People","","null","","","","null","","","","","","","","","","","","","","","","","","","","","","","","","","","","","","","","","","","","","","","","","","","",""
"","see_reward","","html-keyboard-response","233","723923","0.0-170.0","0","0","1ae5n","People","","461","","","","32","","2","","15","","","","1","","","","","1","","","","","154","461","","","","","","","","","","","","","","","","","","","","","","","","",""
"","reward_outcome","","html-keyboard-response","234","725950","0.0-171.0","0","0","1ae5n","People","","682","","","","38","","2","","15","","","","","","","","","","","","","","","","1","682","","","","","","","","","","","","","","","","","","","","","","",""
"","fixation","","html-keyboard-response","235","726964","0.0-174.0","0","0","1ae5n","People","","null","","","","null","","","","","","","","","","","","","","","","","","","","","","","","","","","","","","","","","","","","","","","","","","","",""
"","see_reward","","html-keyboard-response","236","727362","0.0-175.0","0","0","1ae5n","People","","395","","","","32","","24","","16","","","","-1","","","","","1","","","","","0","395","","","","","","","","","","","","","","","","","","","","","","","","",""
"","reward_outcome","","html-keyboard-response","237","729368","0.0-176.0","0","0","1ae5n","People","","594","","","","40","","24","","16","","","","","","","","","","","","","","","","-1","594","","","","","","","","","","","","","","","","","","","","","","",""
"","fixation","","html-keyboard-response","238","730380","0.0-179.0","0","0","1ae5n","People","","null","","","","null","","","","","","","","","","","","","","","","","","","","","","","","","","","","","","","","","","","","","","","","","","","",""
"","see_reward","","html-keyboard-response","239","730763","0.0-180.0","0","0","1ae5n","People","","380","","","","32","","39","","17","","","","1","","","","","1","","","","","146","380","","","","","","","","","","","","","","","","","","","","","","","","",""
"","reward_outcome","","html-keyboard-response","240","732782","0.0-181.0","0","0","1ae5n","People","","1098","","","","38","","39","","17","","","","","","","","","","","","","","","","1","1098","","","","","","","","","","","","","","","","","","","","","","",""
"","fixation","","html-keyboard-response","241","733797","0.0-184.0","0","0","1ae5n","People","","null","","","","null","","","","","","","","","","","","","","","","","","","","","","","","","","","","","","","","","","","","","","","","","","","",""
"","see_reward","","html-keyboard-response","242","734319","0.0-185.0","0","0","1ae5n","People","","517","","","","32","","17","","18","","","","-1","","","","","1","","","","","0","517","","","","","","","","","","","","","","","","","","","","","","","","",""
"","reward_outcome","","html-keyboard-response","243","736339","0.0-186.0","0","0","1ae5n","People","","798","","","","40","","17","","18","","","","","","","","","","","","","","","","-1","798","","","","","","","","","","","","","","","","","","","","","","",""
"","fixation","","html-keyboard-response","244","737358","0.0-189.0","0","0","1ae5n","People","","null","","","","null","","","","","","","","","","","","","","","","","","","","","","","","","","","","","","","","","","","","","","","","","","","",""
"","see_reward","","html-keyboard-response","245","737747","0.0-190.0","0","0","1ae5n","People","","388","","","","32","","7","","19","","","","1","","","","","1","","","","","154","388","","","","","","","","","","","","","","","","","","","","","","","","",""
"","reward_outcome","","html-keyboard-response","246","739758","0.0-191.0","0","0","1ae5n","People","","351","","","","38","","7","","19","","","","","","","","","","","","","","","","1","351","","","","","","","","","","","","","","","","","","","","","","",""
"","fixation","","html-keyboard-response","247","740774","0.0-194.0","0","0","1ae5n","People","","null","","","","null","","","","","","","","","","","","","","","","","","","","","","","","","","","","","","","","","","","","","","","","","","","",""
"","see_reward","","html-keyboard-response","248","741370","0.0-195.0","0","0","1ae5n","People","","591","","","","32","","36","","20","","","","-1","","","","","1","","","","","0","591","","","","","","","","","","","","","","","","","","","","","","","","",""
"","reward_outcome","","html-keyboard-response","249","743393","0.0-196.0","0","0","1ae5n","People","","486","","","","40","","36","","20","","","","","","","","","","","","","","","","-1","486","","","","","","","","","","","","","","","","","","","","","","",""
"","fixation","","html-keyboard-response","250","744410","0.0-199.0","0","0","1ae5n","People","","null","","","","null","","","","","","","","","","","","","","","","","","","","","","","","","","","","","","","","","","","","","","","","","","","",""
"","see_reward","","html-keyboard-response","251","744680","0.0-200.0","0","0","1ae5n","People","","268","","","","32","","46","","21","","","","-1","","","","","1","","","","","0","268","","","","","","","","","","","","","","","","","","","","","","","","",""
"","reward_outcome","","html-keyboard-response","252","746685","0.0-201.0","0","0","1ae5n","People","","684","","","","40","","46","","21","","","","","","","","","","","","","","","","-1","684","","","","","","","","","","","","","","","","","","","","","","",""
"","fixation","","html-keyboard-response","253","747698","0.0-204.0","0","0","1ae5n","People","","null","","","","null","","","","","","","","","","","","","","","","","","","","","","","","","","","","","","","","","","","","","","","","","","","",""
"","see_reward","","html-keyboard-response","254","748203","0.0-205.0","0","0","1ae5n","People","","501","","","","32","","8","","22","","","","1","","","","","1","","","","","150","501","","","","","","","","","","","","","","","","","","","","","","","","",""
"","reward_outcome","","html-keyboard-response","255","750223","0.0-206.0","0","0","1ae5n","People","","884","","","","38","","8","","22","","","","","","","","","","","","","","","","1","884","","","","","","","","","","","","","","","","","","","","","","",""
"","fixation","","html-keyboard-response","256","751239","0.0-209.0","0","0","1ae5n","People","","null","","","","null","","","","","","","","","","","","","","","","","","","","","","","","","","","","","","","","","","","","","","","","","","","",""
"","see_reward","","html-keyboard-response","257","751882","0.0-210.0","0","0","1ae5n","People","","640","","","","32","","7","","23","","","","1","","","","","1","","","","","154","640","","","","","","","","","","","","","","","","","","","","","","","","",""
"","reward_outcome","","html-keyboard-response","258","753902","0.0-211.0","0","0","1ae5n","People","","657","","","","38","","7","","23","","","","","","","","","","","","","","","","1","657","","","","","","","","","","","","","","","","","","","","","","",""
"","block_over","","html-keyboard-response","259","756141","0.0-213.0-0.0","0","0","1ae5n","People","","2236","","","","78","","","","","","","","","","","","","","","","","","","","","","","","","","","","","","","","","","","","","","","","","","","",""
"","fixation","","html-keyboard-response","260","757156","0.0-214.0","0","0","1ae5n","People","","null","","","","null","","","","","","","","","","","","","","","","","","","","","","","","","","","","","","","","","","","","","","","","","","","",""
"","see_reward","","html-keyboard-response","261","757568","0.0-215.0","0","0","1ae5n","People","","409","","","","32","","41","","24","","","","-1","","","","","2","","","","","0","409","","","","","","","","","","","","","","","","","","","","","","","","",""
"","reward_outcome","","html-keyboard-response","262","759589","0.0-216.0","0","0","1ae5n","People","","652","","","","40","","41","","24","","","","","","","","","","","","","","","","-1","652","","","","","","","","","","","","","","","","","","","","","","",""
"","fixation","","html-keyboard-response","263","760600","0.0-219.0","0","0","1ae5n","People","","null","","","","null","","","","","","","","","","","","","","","","","","","","","","","","","","","","","","","","","","","","","","","","","","","",""
"","see_reward","","html-keyboard-response","264","760830","0.0-220.0","0","0","1ae5n","People","","227","","","","32","","37","","25","","","","1","","","","","2","","","","","159","227","","","","","","","","","","","","","","","","","","","","","","","","",""
"","reward_outcome","","html-keyboard-response","265","762848","0.0-221.0","0","0","1ae5n","People","","532","","","","38","","37","","25","","","","","","","","","","","","","","","","1","532","","","","","","","","","","","","","","","","","","","","","","",""
"","fixation","","html-keyboard-response","266","763863","0.0-224.0","0","0","1ae5n","People","","null","","","","null","","","","","","","","","","","","","","","","","","","","","","","","","","","","","","","","","","","","","","","","","","","",""
"","see_reward","","html-keyboard-response","267","764312","0.0-225.0","0","0","1ae5n","People","","445","","","","32","","1","","26","","","","-1","","","","","2","","","","","0","445","","","","","","","","","","","","","","","","","","","","","","","","",""
"","reward_outcome","","html-keyboard-response","268","766325","0.0-226.0","0","0","1ae5n","People","","517","","","","40","","1","","26","","","","","","","","","","","","","","","","-1","517","","","","","","","","","","","","","","","","","","","","","","",""
"","fixation","","html-keyboard-response","269","767338","0.0-229.0","0","0","1ae5n","People","","null","","","","null","","","","","","","","","","","","","","","","","","","","","","","","","","","","","","","","","","","","","","","","","","","",""
"","see_reward","","html-keyboard-response","270","767591","0.0-230.0","0","0","1ae5n","People","","250","","","","32","","39","","27","","","","1","","","","","2","","","","","146","250","","","","","","","","","","","","","","","","","","","","","","","","",""
"","reward_outcome","","html-keyboard-response","271","769602","0.0-231.0","0","0","1ae5n","People","","498","","","","38","","39","","27","","","","","","","","","","","","","","","","1","498","","","","","","","","","","","","","","","","","","","","","","",""
"","fixation","","html-keyboard-response","272","770616","0.0-234.0","0","0","1ae5n","People","","null","","","","null","","","","","","","","","","","","","","","","","","","","","","","","","","","","","","","","","","","","","","","","","","","",""
"","see_reward","","html-keyboard-response","273","770939","0.0-235.0","0","0","1ae5n","People","","320","","","","32","","46","","28","","","","-1","","","","","2","","","","","0","320","","","","","","","","","","","","","","","","","","","","","","","","",""
"","reward_outcome","","html-keyboard-response","274","772952","0.0-236.0","0","0","1ae5n","People","","572","","","","40","","46","","28","","","","","","","","","","","","","","","","-1","572","","","","","","","","","","","","","","","","","","","","","","",""
"","fixation","","html-keyboard-response","275","773965","0.0-239.0","0","0","1ae5n","People","","null","","","","null","","","","","","","","","","","","","","","","","","","","","","","","","","","","","","","","","","","","","","","","","","","",""
"","see_reward","","html-keyboard-response","276","774463","0.0-240.0","0","0","1ae5n","People","","495","","","","32","","41","","29","","","","-1","","","","","2","","","","","0","495","","","","","","","","","","","","","","","","","","","","","","","","",""
"","reward_outcome","","html-keyboard-response","277","776480","0.0-241.0","0","0","1ae5n","People","","519","","","","40","","41","","29","","","","","","","","","","","","","","","","-1","519","","","","","","","","","","","","","","","","","","","","","","",""
"","fixation","","html-keyboard-response","278","777493","0.0-244.0","0","0","1ae5n","People","","null","","","","null","","","","","","","","","","","","","","","","","","","","","","","","","","","","","","","","","","","","","","","","","","","",""
"","see_reward","","html-keyboard-response","279","778130","0.0-245.0","0","0","1ae5n","People","","633","","","","32","","36","","30","","","","-1","","","","","2","","","","","0","633","","","","","","","","","","","","","","","","","","","","","","","","",""
"","reward_outcome","","html-keyboard-response","280","780145","0.0-246.0","0","0","1ae5n","People","","326","","","","40","","36","","30","","","","","","","","","","","","","","","","-1","326","","","","","","","","","","","","","","","","","","","","","","",""
"","fixation","","html-keyboard-response","281","781160","0.0-249.0","0","0","1ae5n","People","","null","","","","null","","","","","","","","","","","","","","","","","","","","","","","","","","","","","","","","","","","","","","","","","","","",""
"","see_reward","","html-keyboard-response","282","781541","0.0-250.0","0","0","1ae5n","People","","376","","","","32","","46","","31","","","","-1","","","","","2","","","","","0","376","","","","","","","","","","","","","","","","","","","","","","","","",""
"","reward_outcome","","html-keyboard-response","283","783558","0.0-251.0","0","0","1ae5n","People","","335","","","","40","","46","","31","","","","","","","","","","","","","","","","-1","335","","","","","","","","","","","","","","","","","","","","","","",""
"","fixation","","html-keyboard-response","284","784571","0.0-254.0","0","0","1ae5n","People","","null","","","","null","","","","","","","","","","","","","","","","","","","","","","","","","","","","","","","","","","","","","","","","","","","",""
"","see_reward","","html-keyboard-response","285","784958","0.0-255.0","0","0","1ae5n","People","","384","","","","32","","24","","32","","","","-1","","","","","2","","","","","0","384","","","","","","","","","","","","","","","","","","","","","","","","",""
"","reward_outcome","","html-keyboard-response","286","786969","0.0-256.0","0","0","1ae5n","People","","490","","","","40","","24","","32","","","","","","","","","","","","","","","","-1","490","","","","","","","","","","","","","","","","","","","","","","",""
"","fixation","","html-keyboard-response","287","787995","0.0-259.0","0","0","1ae5n","People","","null","","","","null","","","","","","","","","","","","","","","","","","","","","","","","","","","","","","","","","","","","","","","","","","","",""
"","see_reward","","html-keyboard-response","288","788416","0.0-260.0","0","0","1ae5n","People","","417","","","","32","","36","","33","","","","-1","","","","","2","","","","","0","417","","","","","","","","","","","","","","","","","","","","","","","","",""
"","reward_outcome","","html-keyboard-response","289","790442","0.0-261.0","0","0","1ae5n","People","","395","","","","40","","36","","33","","","","","","","","","","","","","","","","-1","395","","","","","","","","","","","","","","","","","","","","","","",""
"","fixation","","html-keyboard-response","290","791459","0.0-264.0","0","0","1ae5n","People","","null","","","","null","","","","","","","","","","","","","","","","","","","","","","","","","","","","","","","","","","","","","","","","","","","",""
"","see_reward","","html-keyboard-response","291","791864","0.0-265.0","0","0","1ae5n","People","","401","","","","32","","37","","34","","","","1","","","","","2","","","","","159","401","","","","","","","","","","","","","","","","","","","","","","","","",""
"","reward_outcome","","html-keyboard-response","292","793871","0.0-266.0","0","0","1ae5n","People","","580","","","","38","","37","","34","","","","","","","","","","","","","","","","1","580","","","","","","","","","","","","","","","","","","","","","","",""
"","fixation","","html-keyboard-response","293","794886","0.0-269.0","0","0","1ae5n","People","","null","","","","null","","","","","","","","","","","","","","","","","","","","","","","","","","","","","","","","","","","","","","","","","","","",""
"","see_reward","","html-keyboard-response","294","795650","0.0-270.0","0","0","1ae5n","People","","761","","","","32","","17","","35","","","","-1","","","","","2","","","","","0","761","","","","","","","","","","","","","","","","","","","","","","","","",""
"","reward_outcome","","html-keyboard-response","295","797666","0.0-271.0","0","0","1ae5n","People","","490","","","","40","","17","","35","","","","","","","","","","","","","","","","-1","490","","","","","","","","","","","","","","","","","","","","","","",""
"","fixation","","html-keyboard-response","296","798685","0.0-274.0","0","0","1ae5n","People","","null","","","","null","","","","","","","","","","","","","","","","","","","","","","","","","","","","","","","","","","","","","","","","","","","",""
"","see_reward","","html-keyboard-response","297","799076","0.0-275.0","0","0","1ae5n","People","","388","","","","32","","1","","36","","","","-1","","","","","2","","","","","0","388","","","","","","","","","","","","","","","","","","","","","","","","",""
"","reward_outcome","","html-keyboard-response","298","801085","0.0-276.0","0","0","1ae5n","People","","607","","","","40","","1","","36","","","","","","","","","","","","","","","","-1","607","","","","","","","","","","","","","","","","","","","","","","",""
"","fixation","","html-keyboard-response","299","802101","0.0-279.0","0","0","1ae5n","People","","null","","","","null","","","","","","","","","","","","","","","","","","","","","","","","","","","","","","","","","","","","","","","","","","","",""
"","see_reward","","html-keyboard-response","300","802528","0.0-280.0","0","0","1ae5n","People","","424","","","","32","","8","","37","","","","1","","","","","2","","","","","150","424","","","","","","","","","","","","","","","","","","","","","","","","",""
"","reward_outcome","","html-keyboard-response","301","804544","0.0-281.0","0","0","1ae5n","People","","448","","","","38","","8","","37","","","","","","","","","","","","","","","","1","448","","","","","","","","","","","","","","","","","","","","","","",""
"","fixation","","html-keyboard-response","302","805553","0.0-284.0","0","0","1ae5n","People","","null","","","","null","","","","","","","","","","","","","","","","","","","","","","","","","","","","","","","","","","","","","","","","","","","",""
"","see_reward","","html-keyboard-response","303","806086","0.0-285.0","0","0","1ae5n","People","","530","","","","32","","7","","38","","","","1","","","","","2","","","","","154","530","","","","","","","","","","","","","","","","","","","","","","","","",""
"","reward_outcome","","html-keyboard-response","304","808111","0.0-286.0","0","0","1ae5n","People","","489","","","","38","","7","","38","","","","","","","","","","","","","","","","1","489","","","","","","","","","","","","","","","","","","","","","","",""
"","fixation","","html-keyboard-response","305","809121","0.0-289.0","0","0","1ae5n","People","","null","","","","null","","","","","","","","","","","","","","","","","","","","","","","","","","","","","","","","","","","","","","","","","","","",""
"","see_reward","","html-keyboard-response","306","809445","0.0-290.0","0","0","1ae5n","People","","319","","","","32","","24","","39","","","","-1","","","","","2","","","","","0","319","","","","","","","","","","","","","","","","","","","","","","","","",""
"","reward_outcome","","html-keyboard-response","307","811464","0.0-291.0","0","0","1ae5n","People","","618","","","","40","","24","","39","","","","","","","","","","","","","","","","-1","618","","","","","","","","","","","","","","","","","","","","","","",""
"","fixation","","html-keyboard-response","308","812480","0.0-294.0","0","0","1ae5n","People","","null","","","","null","","","","","","","","","","","","","","","","","","","","","","","","","","","","","","","","","","","","","","","","","","","",""
"","see_reward","","html-keyboard-response","309","812984","0.0-295.0","0","0","1ae5n","People","","502","","","","32","","2","","40","","","","1","","","","","2","","","","","154","502","","","","","","","","","","","","","","","","","","","","","","","","",""
"","reward_outcome","","html-keyboard-response","310","814998","0.0-296.0","0","0","1ae5n","People","","509","","","","38","","2","","40","","","","","","","","","","","","","","","","1","509","","","","","","","","","","","","","","","","","","","","","","",""
"","fixation","","html-keyboard-response","311","816010","0.0-299.0","0","0","1ae5n","People","","null","","","","null","","","","","","","","","","","","","","","","","","","","","","","","","","","","","","","","","","","","","","","","","","","",""
"","see_reward","","html-keyboard-response","312","816461","0.0-300.0","0","0","1ae5n","People","","446","","","","32","","7","","41","","","","1","","","","","2","","","","","154","446","","","","","","","","","","","","","","","","","","","","","","","","",""
"","reward_outcome","","html-keyboard-response","313","818476","0.0-301.0","0","0","1ae5n","People","","921","","","","38","","7","","41","","","","","","","","","","","","","","","","1","921","","","","","","","","","","","","","","","","","","","","","","",""
"","fixation","","html-keyboard-response","314","819491","0.0-304.0","0","0","1ae5n","People","","null","","","","null","","","","","","","","","","","","","","","","","","","","","","","","","","","","","","","","","","","","","","","","","","","",""
"","see_reward","","html-keyboard-response","315","819926","0.0-305.0","0","0","1ae5n","People","","432","","","","32","","39","","42","","","","1","","","","","2","","","","","146","432","","","","","","","","","","","","","","","","","","","","","","","","",""
"","reward_outcome","","html-keyboard-response","316","821942","0.0-306.0","0","0","1ae5n","People","","505","","","","38","","39","","42","","","","","","","","","","","","","","","","1","505","","","","","","","","","","","","","","","","","","","","","","",""
"","fixation","","html-keyboard-response","317","822955","0.0-309.0","0","0","1ae5n","People","","null","","","","null","","","","","","","","","","","","","","","","","","","","","","","","","","","","","","","","","","","","","","","","","","","",""
"","see_reward","","html-keyboard-response","318","823269","0.0-310.0","0","0","1ae5n","People","","312","","","","32","","8","","43","","","","1","","","","","2","","","","","150","312","","","","","","","","","","","","","","","","","","","","","","","","",""
"","reward_outcome","","html-keyboard-response","319","825296","0.0-311.0","0","0","1ae5n","People","","492","","","","38","","8","","43","","","","","","","","","","","","","","","","1","492","","","","","","","","","","","","","","","","","","","","","","",""
"","fixation","","html-keyboard-response","320","826311","0.0-314.0","0","0","1ae5n","People","","null","","","","null","","","","","","","","","","","","","","","","","","","","","","","","","","","","","","","","","","","","","","","","","","","",""
"","see_reward","","html-keyboard-response","321","826817","0.0-315.0","0","0","1ae5n","People","","503","","","","32","","40","","44","","","","1","","","","","2","","","","","145","503","","","","","","","","","","","","","","","","","","","","","","","","",""
"","reward_outcome","","html-keyboard-response","322","828837","0.0-316.0","0","0","1ae5n","People","","420","","","","38","","40","","44","","","","","","","","","","","","","","","","1","420","","","","","","","","","","","","","","","","","","","","","","",""
"","fixation","","html-keyboard-response","323","829850","0.0-319.0","0","0","1ae5n","People","","null","","","","null","","","","","","","","","","","","","","","","","","","","","","","","","","","","","","","","","","","","","","","","","","","",""
"","see_reward","","html-keyboard-response","324","830246","0.0-320.0","0","0","1ae5n","People","","392","","","","32","","2","","45","","","","1","","","","","2","","","","","154","392","","","","","","","","","","","","","","","","","","","","","","","","",""
"","reward_outcome","","html-keyboard-response","325","832266","0.0-321.0","0","0","1ae5n","People","","372","","","","38","","2","","45","","","","","","","","","","","","","","","","1","372","","","","","","","","","","","","","","","","","","","","","","",""
"","fixation","","html-keyboard-response","326","833279","0.0-324.0","0","0","1ae5n","People","","null","","","","null","","","","","","","","","","","","","","","","","","","","","","","","","","","","","","","","","","","","","","","","","","","",""
"","see_reward","","html-keyboard-response","327","833636","0.0-325.0","0","0","1ae5n","People","","353","","","","32","","17","","46","","","","-1","","","","","2","","","","","0","353","","","","","","","","","","","","","","","","","","","","","","","","",""
"","reward_outcome","","html-keyboard-response","328","835653","0.0-326.0","0","0","1ae5n","People","","527","","","","40","","17","","46","","","","","","","","","","","","","","","","-1","527","","","","","","","","","","","","","","","","","","","","","","",""
"","fixation","","html-keyboard-response","329","836680","0.0-329.0","0","0","1ae5n","People","","null","","","","null","","","","","","","","","","","","","","","","","","","","","","","","","","","","","","","","","","","","","","","","","","","",""
"","see_reward","","html-keyboard-response","330","837076","0.0-330.0","0","0","1ae5n","People","","392","","","","32","","40","","47","","","","1","","","","","2","","","","","145","392","","","","","","","","","","","","","","","","","","","","","","","","",""
"","reward_outcome","","html-keyboard-response","331","839081","0.0-331.0","0","0","1ae5n","People","","810","","","","38","","40","","47","","","","","","","","","","","","","","","","1","810","","","","","","","","","","","","","","","","","","","","","","",""
"","block_over","","html-keyboard-response","332","854545","0.0-333.0-0.0","0","0","1ae5n","People","","15461","","","","78","","","","","","","","","","","","","","","","","","","","","","","","","","","","","","","","","","","","","","","","","","","",""
"","fixation","","html-keyboard-response","333","855568","0.0-334.0","0","0","1ae5n","People","","null","","","","null","","","","","","","","","","","","","","","","","","","","","","","","","","","","","","","","","","","","","","","","","","","",""
"","see_reward","","html-keyboard-response","334","856689","0.0-335.0","0","0","1ae5n","People","","1117","","","","32","","1","","48","","","","-1","","","","","3","","","","","0","1117","","","","","","","","","","","","","","","","","","","","","","","","",""
"","reward_outcome","","html-keyboard-response","335","858715","0.0-336.0","0","0","1ae5n","People","","1010","","","","40","","1","","48","","","","","","","","","","","","","","","","-1","1010","","","","","","","","","","","","","","","","","","","","","","",""
"","fixation","","html-keyboard-response","336","859725","0.0-339.0","0","0","1ae5n","People","","null","","","","null","","","","","","","","","","","","","","","","","","","","","","","","","","","","","","","","","","","","","","","","","","","",""
"","see_reward","","html-keyboard-response","337","860497","0.0-340.0","0","0","1ae5n","People","","768","","","","32","","46","","49","","","","-1","","","","","3","","","","","0","768","","","","","","","","","","","","","","","","","","","","","","","","",""
"","reward_outcome","","html-keyboard-response","338","862515","0.0-341.0","0","0","1ae5n","People","","500","","","","40","","46","","49","","","","","","","","","","","","","","","","-1","500","","","","","","","","","","","","","","","","","","","","","","",""
"","fixation","","html-keyboard-response","339","863529","0.0-344.0","0","0","1ae5n","People","","null","","","","null","","","","","","","","","","","","","","","","","","","","","","","","","","","","","","","","","","","","","","","","","","","",""
"","see_reward","","html-keyboard-response","340","863952","0.0-345.0","0","0","1ae5n","People","","420","","","","32","","41","","50","","","","-1","","","","","3","","","","","0","420","","","","","","","","","","","","","","","","","","","","","","","","",""
"","reward_outcome","","html-keyboard-response","341","865963","0.0-346.0","0","0","1ae5n","People","","595","","","","40","","41","","50","","","","","","","","","","","","","","","","-1","595","","","","","","","","","","","","","","","","","","","","","","",""
"","fixation","","html-keyboard-response","342","866975","0.0-349.0","0","0","1ae5n","People","","null","","","","null","","","","","","","","","","","","","","","","","","","","","","","","","","","","","","","","","","","","","","","","","","","",""
"","see_reward","","html-keyboard-response","343","867255","0.0-350.0","0","0","1ae5n","People","","278","","","","32","","36","","51","","","","-1","","","","","3","","","","","0","278","","","","","","","","","","","","","","","","","","","","","","","","",""
"","reward_outcome","","html-keyboard-response","344","869269","0.0-351.0","0","0","1ae5n","People","","380","","","","40","","36","","51","","","","","","","","","","","","","","","","-1","380","","","","","","","","","","","","","","","","","","","","","","",""
"","fixation","","html-keyboard-response","345","870283","0.0-354.0","0","0","1ae5n","People","","null","","","","null","","","","","","","","","","","","","","","","","","","","","","","","","","","","","","","","","","","","","","","","","","","",""
"","see_reward","","html-keyboard-response","346","870630","0.0-355.0","0","0","1ae5n","People","","343","","","","32","","36","","52","","","","-1","","","","","3","","","","","0","343","","","","","","","","","","","","","","","","","","","","","","","","",""
"","reward_outcome","","html-keyboard-response","347","872650","0.0-356.0","0","0","1ae5n","People","","284","","","","40","","36","","52","","","","","","","","","","","","","","","","-1","284","","","","","","","","","","","","","","","","","","","","","","",""
"","fixation","","html-keyboard-response","348","873666","0.0-359.0","0","0","1ae5n","People","","null","","","","null","","","","","","","","","","","","","","","","","","","","","","","","","","","","","","","","","","","","","","","","","","","",""
"","see_reward","","html-keyboard-response","349","875069","0.0-360.0","0","0","1ae5n","People","","1399","","","","32","","7","","53","","","","1","","","","","3","","","","","154","1399","","","","","","","","","","","","","","","","","","","","","","","","",""
"","reward_outcome","","html-keyboard-response","350","877078","0.0-361.0","0","0","1ae5n","People","","622","","","","38","","7","","53","","","","","","","","","","","","","","","","1","622","","","","","","","","","","","","","","","","","","","","","","",""
"","fixation","","html-keyboard-response","351","878095","0.0-364.0","0","0","1ae5n","People","","null","","","","null","","","","","","","","","","","","","","","","","","","","","","","","","","","","","","","","","","","","","","","","","","","",""
