"success","ttype","start_time","trial_type","trial_index","time_elapsed","internal_node_id","warning","missed_checkup","PID","stim_type","view_history","rt","responses","category","repeat_instructions","key_press","response","stimulus_id","painting","index","stimulus_left","stimulus_right","explain_trial","reward_type","rating_left","rating_right","painting_left","painting_right","block","left_chosen","chosen_obj","unchosen_obj","explain_response","reward_amount","see_reward_rt","register_reward_response","register_reward_rt","deliberation_reward_tally","stimulus_left_deliberation_ind","stimulus_right_deliberation_ind","chosen_trial","gain_left","higher_outcome_chosen","old_pair","chosen_object","rt_pairs","left_object_chosen","rt_object","old_response","new_rating","deliberated_stim","initial_rating","outcome_eval_rt","outcome_eval_response","outcome_eval_gain","outcome_eval_acc","preamble","outcome_eval_confidence","outcome_eval_confidence_rt","total_reward_tally"
"true","full_screen","d01182023hr2026","fullscreen","0","2233","0.0-0.0","0","0","8WXnd","People","","","","","","","","","","","","","","","","","","","","","","","","","","","","","","","","","","","","","","","","","","","","","","","","","",""
"","rating_instructions","","instructions","1","6646","0.0-1.0-0.0","0","0","8WXnd","People","[{""page_index"":0,""viewing_time"":3411},{""page_index"":1,""viewing_time"":998}]","4409","","","","","","","","","","","","","","","","","","","","","","","","","","","","","","","","","","","","","","","","","","","","","","","",""
"","","","survey-multi-choice","2","9844","0.0-1.0-1.0","0","0","8WXnd","People","","3195","{""Q0"":""True"",""Q1"":""Mouse""}","rating_comprehension_check","0","","","","","","","","","","","","","","","","","","","","","","","","","","","","","","","","","","","","","","","","","","","","",""
"","start_phase","","html-keyboard-response","3","11350","0.0-2.0","0","0","8WXnd","People","","1502","","","","78","","","","","","","","","","","","","","","","","","","","","","","","","","","","","","","","","","","","","","","","","","","",""
"","rating","","html-slider-response","4","13372","0.0-3.0","0","0","8WXnd","People","","2018","","","","","83","11","christian-ferrer-8vT-DgHZDG4-unsplash.jpg","0","","","","","","","","","","","","","","","","","","","","","","","","","","","","","","","","","","","","","","","",""
"","rating","","html-slider-response","5","15094","0.0-4.0","0","0","8WXnd","People","","1719","","","","","39","32","nathan-dumlao-ger61_TX6oI-unsplash.jpg","1","","","","","","","","","","","","","","","","","","","","","","","","","","","","","","","","","","","","","","","",""
"","rating","","html-slider-response","6","16678","0.0-5.0","0","0","8WXnd","People","","1582","","","","","89","45","sarah-noltner-pL5ZzPp1zqg-unsplash.jpg","2","","","","","","","","","","","","","","","","","","","","","","","","","","","","","","","","","","","","","","","",""
"","rating","","html-slider-response","7","18158","0.0-6.0","0","0","8WXnd","People","","1478","","","","","98","44","rikonavt-HQjfrvdTfak-unsplash.jpg","3","","","","","","","","","","","","","","","","","","","","","","","","","","","","","","","","","","","","","","","",""
"","rating","","html-slider-response","8","19749","0.0-7.0","0","0","8WXnd","People","","1588","","","","","86","29","leilani-angel-K84vnnzxmTQ-unsplash.jpg","4","","","","","","","","","","","","","","","","","","","","","","","","","","","","","","","","","","","","","","","",""
"","rating","","html-slider-response","9","21353","0.0-8.0","0","0","8WXnd","People","","1600","","","","","72","34","oliver-johnson-1TUIcKob7Zs-unsplash.jpg","5","","","","","","","","","","","","","","","","","","","","","","","","","","","","","","","","","","","","","","","",""
"","rating","","html-slider-response","10","22781","0.0-9.0","0","0","8WXnd","People","","1425","","","","","93","21","jessica-felicio-_cvwXhGqG-o-unsplash.jpg","6","","","","","","","","","","","","","","","","","","","","","","","","","","","","","","","","","","","","","","","",""
"","rating","","html-slider-response","11","24396","0.0-10.0","0","0","8WXnd","People","","1613","","","","","31","0","abstral-official-cyOKLSgkgCE-unsplash.jpg","7","","","","","","","","","","","","","","","","","","","","","","","","","","","","","","","","","","","","","","","",""
"","rating","","html-slider-response","12","25921","0.0-11.0","0","0","8WXnd","People","","1521","","","","","61","37","pavel-anoshin-d0peGya6R5Y-unsplash.jpg","8","","","","","","","","","","","","","","","","","","","","","","","","","","","","","","","","","","","","","","","",""
"","rating","","html-slider-response","13","27564","0.0-12.0","0","0","8WXnd","People","","1640","","","","","35","30","matheus-ferrero-pg_WCHWSdT8-unsplash.jpg","9","","","","","","","","","","","","","","","","","","","","","","","","","","","","","","","","","","","","","","","",""
"","rating","","html-slider-response","14","29288","0.0-13.0","0","0","8WXnd","People","","1721","","","","","95","26","juri-gianfrancesco-9EZadYaMzk4-unsplash.jpg","10","","","","","","","","","","","","","","","","","","","","","","","","","","","","","","","","","","","","","","","",""
"","rating","","html-slider-response","15","30759","0.0-14.0","0","0","8WXnd","People","","1467","","","","","59","48","velizar-ivanov-7ktP9yZA1g4-unsplash.jpg","11","","","","","","","","","","","","","","","","","","","","","","","","","","","","","","","","","","","","","","","",""
"","rating","","html-slider-response","16","31893","0.0-15.0","0","0","8WXnd","People","","1131","","","","","77","12","daniel-rigdon-dXmXKPP2L4E-unsplash.jpg","12","","","","","","","","","","","","","","","","","","","","","","","","","","","","","","","","","","","","","","","",""
"","rating","","html-slider-response","17","33444","0.0-16.0","0","0","8WXnd","People","","1550","","","","","78","15","gabriel-silverio-u3WmDyKGsrY-unsplash.jpg","13","","","","","","","","","","","","","","","","","","","","","","","","","","","","","","","","","","","","","","","",""
"","rating","","html-slider-response","18","34653","0.0-17.0","0","0","8WXnd","People","","1206","","","","","84","10","charles-etoroma-95UF6LXe-Lo-unsplash.jpg","14","","","","","","","","","","","","","","","","","","","","","","","","","","","","","","","","","","","","","","","",""
"","rating","","html-slider-response","19","35997","0.0-18.0","0","0","8WXnd","People","","1341","","","","","73","16","giano-currie-5-9YOsmf8IQ-unsplash.jpg","15","","","","","","","","","","","","","","","","","","","","","","","","","","","","","","","","","","","","","","","",""
"","rating","","html-slider-response","20","37184","0.0-19.0","0","0","8WXnd","People","","1184","","","","","93","41","prince-akachi-i2hoD-C2RUA-unsplash.jpg","16","","","","","","","","","","","","","","","","","","","","","","","","","","","","","","","","","","","","","","","",""
"","rating","","html-slider-response","21","38724","0.0-20.0","0","0","8WXnd","People","","1537","","","","","60","22","jessica-radanavong-mrYkTuAesKE-unsplash.jpg","17","","","","","","","","","","","","","","","","","","","","","","","","","","","","","","","","","","","","","","","",""
"","rating","","html-slider-response","22","40168","0.0-21.0","0","0","8WXnd","People","","1441","","","","","86","31","mathilda-khoo-vLR0YP_otCo-unsplash.jpg","18","","","","","","","","","","","","","","","","","","","","","","","","","","","","","","","","","","","","","","","",""
"","rating","","html-slider-response","23","41596","0.0-22.0","0","0","8WXnd","People","","1425","","","","","72","39","philip-martin-5aGUyCW_PJw-unsplash.jpg","19","","","","","","","","","","","","","","","","","","","","","","","","","","","","","","","","","","","","","","","",""
"","rating","","html-slider-response","24","42781","0.0-23.0","0","0","8WXnd","People","","1183","","","","","87","6","ben-o-bro-C5XyLljkMrY-unsplash.jpg","20","","","","","","","","","","","","","","","","","","","","","","","","","","","","","","","","","","","","","","","",""
"","rating","","html-slider-response","25","43986","0.0-24.0","0","0","8WXnd","People","","1199","","","","","98","18","good-faces-xmSWVeGEnJw-unsplash.jpg","21","","","","","","","","","","","","","","","","","","","","","","","","","","","","","","","","","","","","","","","",""
"","rating","","html-slider-response","26","45565","0.0-25.0","0","0","8WXnd","People","","1575","","","","","40","27","jurica-koletic-7YVZYZeITc8-unsplash.jpg","22","","","","","","","","","","","","","","","","","","","","","","","","","","","","","","","","","","","","","","","",""
"","rating","","html-slider-response","27","47338","0.0-26.0","0","0","8WXnd","People","","1770","","","","","35","13","erik-lucatero-d2MSDujJl2g-unsplash.jpg","23","","","","","","","","","","","","","","","","","","","","","","","","","","","","","","","","","","","","","","","",""
"","rating","","html-slider-response","28","49201","0.0-27.0","0","0","8WXnd","People","","1857","","","","","33","49","vicky-hladynets-_gDoyVv5F4c-unsplash.jpg","24","","","","","","","","","","","","","","","","","","","","","","","","","","","","","","","","","","","","","","","",""
"","rating","","html-slider-response","29","50789","0.0-28.0","0","0","8WXnd","People","","1583","","","","","84","40","prince-akachi-4Yv84VgQkRM-unsplash.jpg","25","","","","","","","","","","","","","","","","","","","","","","","","","","","","","","","","","","","","","","","",""
"","rating","","html-slider-response","30","52109","0.0-29.0","0","0","8WXnd","People","","1317","","","","","89","3","art-hauntington-jzY0KRJopEI-unsplash.jpg","26","","","","","","","","","","","","","","","","","","","","","","","","","","","","","","","","","","","","","","","",""
"","rating","","html-slider-response","31","53461","0.0-30.0","0","0","8WXnd","People","","1349","","","","","77","7","brooke-cagle-HRZUzoX1e6w-unsplash.jpg","27","","","","","","","","","","","","","","","","","","","","","","","","","","","","","","","","","","","","","","","",""
"","rating","","html-slider-response","32","55102","0.0-31.0","0","0","8WXnd","People","","1640","","","","","37","35","oliver-ragfelt-khV4fTy6-D8-unsplash.jpg","28","","","","","","","","","","","","","","","","","","","","","","","","","","","","","","","","","","","","","","","",""
"","rating","","html-slider-response","33","56485","0.0-32.0","0","0","8WXnd","People","","1381","","","","","82","25","joseph-gonzalez-iFgRcqHznqg-unsplash.jpg","29","","","","","","","","","","","","","","","","","","","","","","","","","","","","","","","","","","","","","","","",""
"","rating","","html-slider-response","34","58241","0.0-33.0","0","0","8WXnd","People","","1752","","","","","96","42","prince-akachi-l3IHXOdMyHQ-unsplash.jpg","30","","","","","","","","","","","","","","","","","","","","","","","","","","","","","","","","","","","","","","","",""
"","rating","","html-slider-response","35","59448","0.0-34.0","0","0","8WXnd","People","","1204","","","","","94","24","joel-mott-LaK153ghdig-unsplash.jpg","31","","","","","","","","","","","","","","","","","","","","","","","","","","","","","","","","","","","","","","","",""
"","rating","","html-slider-response","36","61045","0.0-35.0","0","0","8WXnd","People","","1594","","","","","82","43","raamin-ka-0qJBEzudn5E-unsplash.jpg","32","","","","","","","","","","","","","","","","","","","","","","","","","","","","","","","","","","","","","","","",""
"","rating","","html-slider-response","37","63219","0.0-36.0","0","0","8WXnd","People","","2171","","","","","95","47","tyler-nix-ZGa9d1a_4tA-unsplash.jpg","33","","","","","","","","","","","","","","","","","","","","","","","","","","","","","","","","","","","","","","","",""
"","rating","","html-slider-response","38","64784","0.0-37.0","0","0","8WXnd","People","","1560","","","","","66","17","gleb-lukomets-paBzWCPN23k-unsplash.jpg","34","","","","","","","","","","","","","","","","","","","","","","","","","","","","","","","","","","","","","","","",""
"","rating","","html-slider-response","39","66405","0.0-38.0","0","0","8WXnd","People","","1618","","","","","82","14","freddy-kearney-o-ioeoATbIM-unsplash.jpg","35","","","","","","","","","","","","","","","","","","","","","","","","","","","","","","","","","","","","","","","",""
"","rating","","html-slider-response","40","68113","0.0-39.0","0","0","8WXnd","People","","1704","","","","","66","33","olena-sergienko-0TSd6uCKTKc-unsplash.jpg","36","","","","","","","","","","","","","","","","","","","","","","","","","","","","","","","","","","","","","","","",""
"","rating","","html-slider-response","41","69573","0.0-40.0","0","0","8WXnd","People","","1458","","","","","78","8","bruce-dixon-3M9WJQVHzog-unsplash.jpg","37","","","","","","","","","","","","","","","","","","","","","","","","","","","","","","","","","","","","","","","",""
"","rating","","html-slider-response","42","71120","0.0-41.0","0","0","8WXnd","People","","1545","","","","","65","46","stefan-stefancik-QXevDflbl8A-unsplash.jpg","38","","","","","","","","","","","","","","","","","","","","","","","","","","","","","","","","","","","","","","","",""
"","rating","","html-slider-response","43","72509","0.0-42.0","0","0","8WXnd","People","","1386","","","","","95","23","joanna-nix-walkup-H4fEMshfwTE-unsplash.jpg","39","","","","","","","","","","","","","","","","","","","","","","","","","","","","","","","","","","","","","","","",""
"","rating","","html-slider-response","44","74063","0.0-43.0","0","0","8WXnd","People","","1551","","","","","76","1","aiony-haust-jmATI5Q_YgY-unsplash.jpg","40","","","","","","","","","","","","","","","","","","","","","","","","","","","","","","","","","","","","","","","",""
"","rating","","html-slider-response","45","75517","0.0-44.0","0","0","8WXnd","People","","1451","","","","","86","38","petr-sevcovic-HzDF-rxlSeM-unsplash.jpg","41","","","","","","","","","","","","","","","","","","","","","","","","","","","","","","","","","","","","","","","",""
"","rating","","html-slider-response","46","77081","0.0-45.0","0","0","8WXnd","People","","1560","","","","","99","9","carlos-andres-gomez-vJuk8Y86mRw-unsplash.jpg","42","","","","","","","","","","","","","","","","","","","","","","","","","","","","","","","","","","","","","","","",""
"","rating","","html-slider-response","47","78649","0.0-46.0","0","0","8WXnd","People","","1564","","","","","100","5","batel-studio-ttSRjiYG_WM-unsplash.jpg","43","","","","","","","","","","","","","","","","","","","","","","","","","","","","","","","","","","","","","","","",""
"","rating","","html-slider-response","48","80302","0.0-47.0","0","0","8WXnd","People","","1650","","","","","89","19","ha-nguy-n-OFSQ6bHjFjs-unsplash.jpg","44","","","","","","","","","","","","","","","","","","","","","","","","","","","","","","","","","","","","","","","",""
"","rating","","html-slider-response","49","81926","0.0-48.0","0","0","8WXnd","People","","1621","","","","","93","36","ospan-ali-mGdA2fzjWLo-unsplash.jpg","45","","","","","","","","","","","","","","","","","","","","","","","","","","","","","","","","","","","","","","","",""
"","rating","","html-slider-response","50","83575","0.0-49.0","0","0","8WXnd","People","","1646","","","","","35","28","justin-chen-J7Cf1Gch49E-unsplash.jpg","46","","","","","","","","","","","","","","","","","","","","","","","","","","","","","","","","","","","","","","","",""
"","rating","","html-slider-response","51","85550","0.0-50.0","0","0","8WXnd","People","","1973","","","","","69","2","arjunsyah-TBUA5KHJn6k-unsplash.jpg","47","","","","","","","","","","","","","","","","","","","","","","","","","","","","","","","","","","","","","","","",""
"","rating","","html-slider-response","52","86934","0.0-51.0","0","0","8WXnd","People","","1382","","","","","76","20","houcine-ncib-B4TjXnI0Y2c-unsplash.jpg","48","","","","","","","","","","","","","","","","","","","","","","","","","","","","","","","","","","","","","","","",""
"","rating","","html-slider-response","53","88704","0.0-52.0","0","0","8WXnd","People","","1767","","","","","29","4","barna-bartis-2x3vfVxwR7o-unsplash.jpg","49","","","","","","","","","","","","","","","","","","","","","","","","","","","","","","","","","","","","","","","",""
"","deliberation_instructions","","instructions","54","112139","0.0-53.0-0.0","0","0","8WXnd","People","[{""page_index"":0,""viewing_time"":6303},{""page_index"":1,""viewing_time"":4276},{""page_index"":2,""viewing_time"":6679},{""page_index"":3,""viewing_time"":4958},{""page_index"":4,""viewing_time"":1210}]","23427","","","","","","","","","","","","","","","","","","","","","","","","","","","","","","","","","","","","","","","","","","","","","","","",""
"","","","survey-multi-choice","55","126337","0.0-53.0-1.0","0","0","8WXnd","People","","14189","{""Q0"":""True"",""Q1"":""True"",""Q2"":""Consider carefully and take your time (up to 10 seconds)"",""Q3"":""True"",""Q4"":""D""}","deliberation_comprehension_check","0","","","","","","","","","","","","","","","","","","","","","","","","","","","","","","","","","","","","","","","","","","","","",""
"","start_phase","","html-keyboard-response","56","127717","0.0-54.0","0","0","8WXnd","People","","1357","","","","78","","","","","","","","","","","","","","","","","","","","","","","","","","","","","","","","","","","","","","","","","","","",""
"","first_deliberation_block","","html-keyboard-response","57","129524","0.0-55.0","0","0","8WXnd","People","","1806","","","","78","","","","","","","","","","","","","","","","","","","","","","","","","","","","","","","","","","","","","","","","","","","",""
"","fixation","","html-keyboard-response","58","130545","0.0-56.0-0.0","0","0","8WXnd","People","","null","","","","null","","","","","","","","","","","","","","","","","","","","","","","","","","","","","","","","","","","","","","","","","","","",""
"","deliberation","","html-keyboard-response","59","132465","0.0-56.0-1.0","0","0","8WXnd","People","","1918","","","","75","","","","0","45","1","0","-1","89","76","sarah-noltner-pL5ZzPp1zqg-unsplash.jpg","aiony-haust-jmATI5Q_YgY-unsplash.jpg","1","0","1","45","","","","","","","","","","","","","","","","","","","","","","","","","","","",""
"","choice_confirmation","","html-keyboard-response","60","132991","0.0-56.0-2.0-0.0","0","0","8WXnd","People","","null","","","","null","","","","0","45","1","","","","","","","","","","","","","","","","","","","","","","","","","","","","","","","","","","","","","",""
"","fixation","","html-keyboard-response","61","133997","0.0-57.0-0.0","0","0","8WXnd","People","","null","","","","null","","","","","","","","","","","","","","","","","","","","","","","","","","","","","","","","","","","","","","","","","","","",""
"","deliberation","","html-keyboard-response","62","135485","0.0-57.0-1.0","0","0","8WXnd","People","","1486","","","","68","","","","1","38","3","1","1","86","89","petr-sevcovic-HzDF-rxlSeM-unsplash.jpg","art-hauntington-jzY0KRJopEI-unsplash.jpg","1","1","38","3","","","","","","","","","","","","","","","","","","","","","","","","","","","",""
"","choice_confirmation","","html-keyboard-response","63","136006","0.0-57.0-2.0-0.0","0","0","8WXnd","People","","null","","","","null","","","","1","38","3","","","","","","","","","","","","","","","","","","","","","","","","","","","","","","","","","","","","","",""
"","explain_trial","","survey-text","64","142508","0.0-57.0-5.0-0.0","0","0","8WXnd","People","","6499","{""Q0"":""I like the filter, it makes it look more artistic""}","","","","","","","1","38","3","","","","","","","","","","","{""Q0"":""I like the filter, it makes it look more artistic""}","","","","","","","","","","","","","","","","","","","","","","","","","","",""
"","fixation","","html-keyboard-response","65","143518","0.0-58.0-0.0","0","0","8WXnd","People","","null","","","","null","","","","","","","","","","","","","","","","","","","","","","","","","","","","","","","","","","","","","","","","","","","",""
"","deliberation","","html-keyboard-response","66","145151","0.0-58.0-1.0","0","0","8WXnd","People","","1630","","","","68","","","","2","12","2","0","1","77","69","daniel-rigdon-dXmXKPP2L4E-unsplash.jpg","arjunsyah-TBUA5KHJn6k-unsplash.jpg","1","1","12","2","","","","","","","","","","","","","","","","","","","","","","","","","","","",""
"","choice_confirmation","","html-keyboard-response","67","145665","0.0-58.0-2.0-0.0","0","0","8WXnd","People","","null","","","","null","","","","2","12","2","","","","","","","","","","","","","","","","","","","","","","","","","","","","","","","","","","","","","",""
"","fixation","","html-keyboard-response","68","146672","0.0-59.0-0.0","0","0","8WXnd","People","","null","","","","null","","","","","","","","","","","","","","","","","","","","","","","","","","","","","","","","","","","","","","","","","","","",""
"","deliberation","","html-keyboard-response","69","147708","0.0-59.0-1.0","0","0","8WXnd","People","","1034","","","","68","","","","3","31","15","0","1","86","78","mathilda-khoo-vLR0YP_otCo-unsplash.jpg","gabriel-silverio-u3WmDyKGsrY-unsplash.jpg","1","1","31","15","","","","","","","","","","","","","","","","","","","","","","","","","","","",""
"","choice_confirmation","","html-keyboard-response","70","148214","0.0-59.0-2.0-0.0","0","0","8WXnd","People","","null","","","","null","","","","3","31","15","","","","","","","","","","","","","","","","","","","","","","","","","","","","","","","","","","","","","",""
"","fixation","","html-keyboard-response","71","149223","0.0-60.0-0.0","0","0","8WXnd","People","","null","","","","null","","","","","","","","","","","","","","","","","","","","","","","","","","","","","","","","","","","","","","","","","","","",""
"","deliberation","","html-keyboard-response","72","150383","0.0-60.0-1.0","0","0","8WXnd","People","","1156","","","","68","","","","4","34","20","1","-1","72","76","oliver-johnson-1TUIcKob7Zs-unsplash.jpg","houcine-ncib-B4TjXnI0Y2c-unsplash.jpg","1","1","34","20","","","","","","","","","","","","","","","","","","","","","","","","","","","",""
"","choice_confirmation","","html-keyboard-response","73","150898","0.0-60.0-2.0-0.0","0","0","8WXnd","People","","null","","","","null","","","","4","34","20","","","","","","","","","","","","","","","","","","","","","","","","","","","","","","","","","","","","","",""
"","explain_trial","","survey-text","74","157447","0.0-60.0-5.0-0.0","0","0","8WXnd","People","","6547","{""Q0"":""The use of shadow makes the photo look very elegant""}","","","","","","","4","34","20","","","","","","","","","","","{""Q0"":""The use of shadow makes the photo look very elegant""}","","","","","","","","","","","","","","","","","","","","","","","","","","",""
"","fixation","","html-keyboard-response","75","158481","0.0-61.0-0.0","0","0","8WXnd","People","","null","","","","null","","","","","","","","","","","","","","","","","","","","","","","","","","","","","","","","","","","","","","","","","","","",""
"","deliberation","","html-keyboard-response","76","160012","0.0-61.0-1.0","0","0","8WXnd","People","","1528","","","","68","","","","5","17","10","0","-1","66","84","gleb-lukomets-paBzWCPN23k-unsplash.jpg","charles-etoroma-95UF6LXe-Lo-unsplash.jpg","1","1","17","10","","","","","","","","","","","","","","","","","","","","","","","","","","","",""
"","choice_confirmation","","html-keyboard-response","77","160522","0.0-61.0-2.0-0.0","0","0","8WXnd","People","","null","","","","null","","","","5","17","10","","","","","","","","","","","","","","","","","","","","","","","","","","","","","","","","","","","","","",""
"","fixation","","html-keyboard-response","78","161540","0.0-62.0-0.0","0","0","8WXnd","People","","null","","","","null","","","","","","","","","","","","","","","","","","","","","","","","","","","","","","","","","","","","","","","","","","","",""
"","deliberation","","html-keyboard-response","79","162964","0.0-62.0-1.0","0","0","8WXnd","People","","1422","","","","75","","","","6","29","14","1","-1","86","82","leilani-angel-K84vnnzxmTQ-unsplash.jpg","freddy-kearney-o-ioeoATbIM-unsplash.jpg","1","0","14","29","","","","","","","","","","","","","","","","","","","","","","","","","","","",""
"","choice_confirmation","","html-keyboard-response","80","163483","0.0-62.0-2.0-0.0","0","0","8WXnd","People","","null","","","","null","","","","6","29","14","","","","","","","","","","","","","","","","","","","","","","","","","","","","","","","","","","","","","",""
"","explain_trial","","survey-text","81","172735","0.0-62.0-5.0-0.0","0","0","8WXnd","People","","9247","{""Q0"":""I like the lighting and the use of an older subject for the photo""}","","","","","","","6","29","14","","","","","","","","","","","{""Q0"":""I like the lighting and the use of an older subject for the photo""}","","","","","","","","","","","","","","","","","","","","","","","","","","",""
"","fixation","","html-keyboard-response","82","173747","0.0-63.0-0.0","0","0","8WXnd","People","","null","","","","null","","","","","","","","","","","","","","","","","","","","","","","","","","","","","","","","","","","","","","","","","","","",""
"","deliberation","","html-keyboard-response","83","175599","0.0-63.0-1.0","0","0","8WXnd","People","","1849","","","","68","","","","7","7","25","0","1","77","82","brooke-cagle-HRZUzoX1e6w-unsplash.jpg","joseph-gonzalez-iFgRcqHznqg-unsplash.jpg","1","1","7","25","","","","","","","","","","","","","","","","","","","","","","","","","","","",""
"","choice_confirmation","","html-keyboard-response","84","176111","0.0-63.0-2.0-0.0","0","0","8WXnd","People","","null","","","","null","","","","7","7","25","","","","","","","","","","","","","","","","","","","","","","","","","","","","","","","","","","","","","",""
"","fixation","","html-keyboard-response","85","177119","0.0-64.0-0.0","0","0","8WXnd","People","","null","","","","null","","","","","","","","","","","","","","","","","","","","","","","","","","","","","","","","","","","","","","","","","","","",""
"","deliberation","","html-keyboard-response","86","178295","0.0-64.0-1.0","0","0","8WXnd","People","","1171","","","","75","","","","8","40","33","0","-1","84","66","prince-akachi-4Yv84VgQkRM-unsplash.jpg","olena-sergienko-0TSd6uCKTKc-unsplash.jpg","1","0","33","40","","","","","","","","","","","","","","","","","","","","","","","","","","","",""
"","choice_confirmation","","html-keyboard-response","87","178811","0.0-64.0-2.0-0.0","0","0","8WXnd","People","","null","","","","null","","","","8","40","33","","","","","","","","","","","","","","","","","","","","","","","","","","","","","","","","","","","","","",""
"","fixation","","html-keyboard-response","88","179834","0.0-65.0-0.0","0","0","8WXnd","People","","null","","","","null","","","","","","","","","","","","","","","","","","","","","","","","","","","","","","","","","","","","","","","","","","","",""
"","deliberation","","html-keyboard-response","89","180975","0.0-65.0-1.0","0","0","8WXnd","People","","1137","","","","68","","","","9","11","16","1","1","83","73","christian-ferrer-8vT-DgHZDG4-unsplash.jpg","giano-currie-5-9YOsmf8IQ-unsplash.jpg","1","1","11","16","","","","","","","","","","","","","","","","","","","","","","","","","","","",""
"","choice_confirmation","","html-keyboard-response","90","181488","0.0-65.0-2.0-0.0","0","0","8WXnd","People","","null","","","","null","","","","9","11","16","","","","","","","","","","","","","","","","","","","","","","","","","","","","","","","","","","","","","",""
"","explain_trial","","survey-text","91","188028","0.0-65.0-5.0-0.0","0","0","8WXnd","People","","6539","{""Q0"":""The use of color makes the picture pop really well""}","","","","","","","9","11","16","","","","","","","","","","","{""Q0"":""The use of color makes the picture pop really well""}","","","","","","","","","","","","","","","","","","","","","","","","","","",""
"","fixation","","html-keyboard-response","92","189046","0.0-66.0-0.0","0","0","8WXnd","People","","null","","","","null","","","","","","","","","","","","","","","","","","","","","","","","","","","","","","","","","","","","","","","","","","","",""
"","deliberation","","html-keyboard-response","93","190403","0.0-66.0-1.0","0","0","8WXnd","People","","1355","","","","75","","","","10","8","6","1","1","78","87","bruce-dixon-3M9WJQVHzog-unsplash.jpg","ben-o-bro-C5XyLljkMrY-unsplash.jpg","1","0","6","8","","","","","","","","","","","","","","","","","","","","","","","","","","","",""
"","choice_confirmation","","html-keyboard-response","94","190915","0.0-66.0-2.0-0.0","0","0","8WXnd","People","","null","","","","null","","","","10","8","6","","","","","","","","","","","","","","","","","","","","","","","","","","","","","","","","","","","","","",""
"","explain_trial","","survey-text","95","197799","0.0-66.0-5.0-0.0","0","0","8WXnd","People","","6880","{""Q0"":""The subject's smile makes the photo very appealing""}","","","","","","","10","8","6","","","","","","","","","","","{""Q0"":""The subject's smile makes the photo very appealing""}","","","","","","","","","","","","","","","","","","","","","","","","","","",""
"","fixation","","html-keyboard-response","96","198805","0.0-67.0-0.0","0","0","8WXnd","People","","null","","","","null","","","","","","","","","","","","","","","","","","","","","","","","","","","","","","","","","","","","","","","","","","","",""
"","deliberation","","html-keyboard-response","97","201278","0.0-67.0-1.0","0","0","8WXnd","People","","2471","","","","68","","","","11","39","43","1","-1","72","82","philip-martin-5aGUyCW_PJw-unsplash.jpg","raamin-ka-0qJBEzudn5E-unsplash.jpg","1","1","39","43","","","","","","","","","","","","","","","","","","","","","","","","","","","",""
"","choice_confirmation","","html-keyboard-response","98","201794","0.0-67.0-2.0-0.0","0","0","8WXnd","People","","null","","","","null","","","","11","39","43","","","","","","","","","","","","","","","","","","","","","","","","","","","","","","","","","","","","","",""
"","explain_trial","","survey-text","99","209819","0.0-67.0-5.0-0.0","0","0","8WXnd","People","","8019","{""Q0"":""The background adds a pretty artistry to the photo""}","","","","","","","11","39","43","","","","","","","","","","","{""Q0"":""The background adds a pretty artistry to the photo""}","","","","","","","","","","","","","","","","","","","","","","","","","","",""
"","practice_deliberation_again","","html-keyboard-response","100","211662","0.0-67.0-6.0-0.0","0","0","8WXnd","People","","1839","","","","78","","","","","","","","","","","","","","","","","","","","","","","","","","","","","","","","","","","","","","","","","","","",""
"","fixation","","html-keyboard-response","101","212681","0.0-68.0-0.0","0","0","8WXnd","People","","null","","","","null","","","","","","","","","","","","","","","","","","","","","","","","","","","","","","","","","","","","","","","","","","","",""
"","deliberation","","html-keyboard-response","102","214483","0.0-68.0-1.0","0","0","8WXnd","People","","1800","","","","75","","","","12","40","33","1","-1","84","66","prince-akachi-4Yv84VgQkRM-unsplash.jpg","olena-sergienko-0TSd6uCKTKc-unsplash.jpg","2","0","33","40","","","","","","","","","","","","","","","","","","","","","","","","","","","",""
"","choice_confirmation","","html-keyboard-response","103","215001","0.0-68.0-2.0-0.0","0","0","8WXnd","People","","null","","","","null","","","","12","40","33","","","","","","","","","","","","","","","","","","","","","","","","","","","","","","","","","","","","","",""
"","explain_trial","","survey-text","104","223324","0.0-68.0-5.0-0.0","0","0","8WXnd","People","","8320","{""Q0"":""The contrast between the subject and the pale background is very striking""}","","","","","","","12","40","33","","","","","","","","","","","{""Q0"":""The contrast between the subject and the pale background is very striking""}","","","","","","","","","","","","","","","","","","","","","","","","","","",""
"","fixation","","html-keyboard-response","105","224348","0.0-69.0-0.0","0","0","8WXnd","People","","null","","","","null","","","","","","","","","","","","","","","","","","","","","","","","","","","","","","","","","","","","","","","","","","","",""
"","deliberation","","html-keyboard-response","106","225235","0.0-69.0-1.0","0","0","8WXnd","People","","885","","","","75","","","","13","8","6","0","1","78","87","bruce-dixon-3M9WJQVHzog-unsplash.jpg","ben-o-bro-C5XyLljkMrY-unsplash.jpg","2","0","6","8","","","","","","","","","","","","","","","","","","","","","","","","","","","",""
"","choice_confirmation","","html-keyboard-response","107","225757","0.0-69.0-2.0-0.0","0","0","8WXnd","People","","null","","","","null","","","","13","8","6","","","","","","","","","","","","","","","","","","","","","","","","","","","","","","","","","","","","","",""
"","fixation","","html-keyboard-response","108","226783","0.0-70.0-0.0","0","0","8WXnd","People","","null","","","","null","","","","","","","","","","","","","","","","","","","","","","","","","","","","","","","","","","","","","","","","","","","",""
"","deliberation","","html-keyboard-response","109","228027","0.0-70.0-1.0","0","0","8WXnd","People","","1242","","","","75","","","","14","11","16","0","1","83","73","christian-ferrer-8vT-DgHZDG4-unsplash.jpg","giano-currie-5-9YOsmf8IQ-unsplash.jpg","2","0","16","11","","","","","","","","","","","","","","","","","","","","","","","","","","","",""
"","choice_confirmation","","html-keyboard-response","110","228546","0.0-70.0-2.0-0.0","0","0","8WXnd","People","","null","","","","null","","","","14","11","16","","","","","","","","","","","","","","","","","","","","","","","","","","","","","","","","","","","","","",""
"","fixation","","html-keyboard-response","111","229549","0.0-71.0-0.0","0","0","8WXnd","People","","null","","","","null","","","","","","","","","","","","","","","","","","","","","","","","","","","","","","","","","","","","","","","","","","","",""
"","deliberation","","html-keyboard-response","112","230779","0.0-71.0-1.0","0","0","8WXnd","People","","1228","","","","68","","","","15","38","3","0","1","86","89","petr-sevcovic-HzDF-rxlSeM-unsplash.jpg","art-hauntington-jzY0KRJopEI-unsplash.jpg","2","1","38","3","","","","","","","","","","","","","","","","","","","","","","","","","","","",""
"","choice_confirmation","","html-keyboard-response","113","231291","0.0-71.0-2.0-0.0","0","0","8WXnd","People","","null","","","","null","","","","15","38","3","","","","","","","","","","","","","","","","","","","","","","","","","","","","","","","","","","","","","",""
"","fixation","","html-keyboard-response","114","232311","0.0-72.0-0.0","0","0","8WXnd","People","","null","","","","null","","","","","","","","","","","","","","","","","","","","","","","","","","","","","","","","","","","","","","","","","","","",""
"","deliberation","","html-keyboard-response","115","233419","0.0-72.0-1.0","0","0","8WXnd","People","","1106","","","","68","","","","16","39","43","0","-1","72","82","philip-martin-5aGUyCW_PJw-unsplash.jpg","raamin-ka-0qJBEzudn5E-unsplash.jpg","2","1","39","43","","","","","","","","","","","","","","","","","","","","","","","","","","","",""
"","choice_confirmation","","html-keyboard-response","116","233935","0.0-72.0-2.0-0.0","0","0","8WXnd","People","","null","","","","null","","","","16","39","43","","","","","","","","","","","","","","","","","","","","","","","","","","","","","","","","","","","","","",""
"","fixation","","html-keyboard-response","117","234957","0.0-73.0-0.0","0","0","8WXnd","People","","null","","","","null","","","","","","","","","","","","","","","","","","","","","","","","","","","","","","","","","","","","","","","","","","","",""
"","deliberation","","html-keyboard-response","118","236708","0.0-73.0-1.0","0","0","8WXnd","People","","1750","","","","75","","","","17","45","1","1","-1","89","76","sarah-noltner-pL5ZzPp1zqg-unsplash.jpg","aiony-haust-jmATI5Q_YgY-unsplash.jpg","2","0","1","45","","","","","","","","","","","","","","","","","","","","","","","","","","","",""
"","choice_confirmation","","html-keyboard-response","119","237226","0.0-73.0-2.0-0.0","0","0","8WXnd","People","","null","","","","null","","","","17","45","1","","","","","","","","","","","","","","","","","","","","","","","","","","","","","","","","","","","","","",""
"","explain_trial","","survey-text","120","244404","0.0-73.0-5.0-0.0","0","0","8WXnd","People","","7175","{""Q0"":""The way the photo is lit makes it look almost similar to a painting""}","","","","","","","17","45","1","","","","","","","","","","","{""Q0"":""The way the photo is lit makes it look almost similar to a painting""}","","","","","","","","","","","","","","","","","","","","","","","","","","",""
"","fixation","","html-keyboard-response","121","245415","0.0-74.0-0.0","0","0","8WXnd","People","","null","","","","null","","","","","","","","","","","","","","","","","","","","","","","","","","","","","","","","","","","","","","","","","","","",""
"","deliberation","","html-keyboard-response","122","247092","0.0-74.0-1.0","0","0","8WXnd","People","","1674","","","","68","","","","18","31","15","1","1","86","78","mathilda-khoo-vLR0YP_otCo-unsplash.jpg","gabriel-silverio-u3WmDyKGsrY-unsplash.jpg","2","1","31","15","","","","","","","","","","","","","","","","","","","","","","","","","","","",""
"","choice_confirmation","","html-keyboard-response","123","247598","0.0-74.0-2.0-0.0","0","0","8WXnd","People","","null","","","","null","","","","18","31","15","","","","","","","","","","","","","","","","","","","","","","","","","","","","","","","","","","","","","",""
"","explain_trial","","survey-text","124","259412","0.0-74.0-5.0-0.0","0","0","8WXnd","People","","11811","{""Q0"":""The shadows make the photo look extremely unique with a pretty contrast to it""}","","","","","","","18","31","15","","","","","","","","","","","{""Q0"":""The shadows make the photo look extremely unique with a pretty contrast to it""}","","","","","","","","","","","","","","","","","","","","","","","","","","",""
"","fixation","","html-keyboard-response","125","260424","0.0-75.0-0.0","0","0","8WXnd","People","","null","","","","null","","","","","","","","","","","","","","","","","","","","","","","","","","","","","","","","","","","","","","","","","","","",""
"","deliberation","","html-keyboard-response","126","261909","0.0-75.0-1.0","0","0","8WXnd","People","","1482","","","","75","","","","19","29","14","0","-1","86","82","leilani-angel-K84vnnzxmTQ-unsplash.jpg","freddy-kearney-o-ioeoATbIM-unsplash.jpg","2","0","14","29","","","","","","","","","","","","","","","","","","","","","","","","","","","",""
"","choice_confirmation","","html-keyboard-response","127","262424","0.0-75.0-2.0-0.0","0","0","8WXnd","People","","null","","","","null","","","","19","29","14","","","","","","","","","","","","","","","","","","","","","","","","","","","","","","","","","","","","","",""
"","fixation","","html-keyboard-response","128","263428","0.0-76.0-0.0","0","0","8WXnd","People","","null","","","","null","","","","","","","","","","","","","","","","","","","","","","","","","","","","","","","","","","","","","","","","","","","",""
"","deliberation","","html-keyboard-response","129","264630","0.0-76.0-1.0","0","0","8WXnd","People","","1200","","","","68","","","","20","17","10","1","-1","66","84","gleb-lukomets-paBzWCPN23k-unsplash.jpg","charles-etoroma-95UF6LXe-Lo-unsplash.jpg","2","1","17","10","","","","","","","","","","","","","","","","","","","","","","","","","","","",""
"","choice_confirmation","","html-keyboard-response","130","265140","0.0-76.0-2.0-0.0","0","0","8WXnd","People","","null","","","","null","","","","20","17","10","","","","","","","","","","","","","","","","","","","","","","","","","","","","","","","","","","","","","",""
"","explain_trial","","survey-text","131","274059","0.0-76.0-5.0-0.0","0","0","8WXnd","People","","8916","{""Q0"":""The shadows and the subject's pose make the photo look like a woodsy painting""}","","","","","","","20","17","10","","","","","","","","","","","{""Q0"":""The shadows and the subject's pose make the photo look like a woodsy painting""}","","","","","","","","","","","","","","","","","","","","","","","","","","",""
"","fixation","","html-keyboard-response","132","275068","0.0-77.0-0.0","0","0","8WXnd","People","","null","","","","null","","","","","","","","","","","","","","","","","","","","","","","","","","","","","","","","","","","","","","","","","","","",""
"","deliberation","","html-keyboard-response","133","276510","0.0-77.0-1.0","0","0","8WXnd","People","","1439","","","","68","","","","21","12","2","1","1","77","69","daniel-rigdon-dXmXKPP2L4E-unsplash.jpg","arjunsyah-TBUA5KHJn6k-unsplash.jpg","2","1","12","2","","","","","","","","","","","","","","","","","","","","","","","","","","","",""
"","choice_confirmation","","html-keyboard-response","134","277017","0.0-77.0-2.0-0.0","0","0","8WXnd","People","","null","","","","null","","","","21","12","2","","","","","","","","","","","","","","","","","","","","","","","","","","","","","","","","","","","","","",""
"","explain_trial","","survey-text","135","285511","0.0-77.0-5.0-0.0","0","0","8WXnd","People","","8490","{""Q0"":""The background adds a pretty contrast to the photo that makes it striking""}","","","","","","","21","12","2","","","","","","","","","","","{""Q0"":""The background adds a pretty contrast to the photo that makes it striking""}","","","","","","","","","","","","","","","","","","","","","","","","","","",""
"","fixation","","html-keyboard-response","136","286527","0.0-78.0-0.0","0","0","8WXnd","People","","null","","","","null","","","","","","","","","","","","","","","","","","","","","","","","","","","","","","","","","","","","","","","","","","","",""
"","deliberation","","html-keyboard-response","137","288199","0.0-78.0-1.0","0","0","8WXnd","People","","1668","","","","68","","","","22","34","20","0","-1","72","76","oliver-johnson-1TUIcKob7Zs-unsplash.jpg","houcine-ncib-B4TjXnI0Y2c-unsplash.jpg","2","1","34","20","","","","","","","","","","","","","","","","","","","","","","","","","","","",""
"","choice_confirmation","","html-keyboard-response","138","288714","0.0-78.0-2.0-0.0","0","0","8WXnd","People","","null","","","","null","","","","22","34","20","","","","","","","","","","","","","","","","","","","","","","","","","","","","","","","","","","","","","",""
"","fixation","","html-keyboard-response","139","289741","0.0-79.0-0.0","0","0","8WXnd","People","","null","","","","null","","","","","","","","","","","","","","","","","","","","","","","","","","","","","","","","","","","","","","","","","","","",""
"","deliberation","","html-keyboard-response","140","290731","0.0-79.0-1.0","0","0","8WXnd","People","","987","","","","68","","","","23","7","25","1","1","77","82","brooke-cagle-HRZUzoX1e6w-unsplash.jpg","joseph-gonzalez-iFgRcqHznqg-unsplash.jpg","2","1","7","25","","","","","","","","","","","","","","","","","","","","","","","","","","","",""
"","choice_confirmation","","html-keyboard-response","141","291239","0.0-79.0-2.0-0.0","0","0","8WXnd","People","","null","","","","null","","","","23","7","25","","","","","","","","","","","","","","","","","","","","","","","","","","","","","","","","","","","","","",""
"","explain_trial","","survey-text","142","298411","0.0-79.0-5.0-0.0","0","0","8WXnd","People","","7170","{""Q0"":""The smile makes the photo look very candid and very cute ""}","","","","","","","23","7","25","","","","","","","","","","","{""Q0"":""The smile makes the photo look very candid and very cute ""}","","","","","","","","","","","","","","","","","","","","","","","","","","",""
"","start_critical_deliberation_block","","html-keyboard-response","143","300247","0.0-79.0-7.0-0.0","0","0","8WXnd","People","","1832","","","","78","","","","","","","","","","","","","","","","","","","","","","","","","","","","","","","","","","","","","","","","","","","",""
"","fixation","","html-keyboard-response","144","301256","0.0-80.0-0.0","0","0","8WXnd","People","","null","","","","null","","","","","","","","","","","","","","","","","","","","","","","","","","","","","","","","","","","","","","","","","","","",""
"","deliberation","","html-keyboard-response","145","302943","0.0-80.0-1.0","0","0","8WXnd","People","","1682","","","","68","","","","24","39","43","0","-1","72","82","philip-martin-5aGUyCW_PJw-unsplash.jpg","raamin-ka-0qJBEzudn5E-unsplash.jpg","3","1","39","43","","","","","","","","","","","","","","","","","","","","","","","","","","","",""
"","choice_confirmation","","html-keyboard-response","146","303456","0.0-80.0-2.0-0.0","0","0","8WXnd","People","","null","","","","null","","","","24","39","43","","","","","","","","","","","","","","","","","","","","","","","","","","","","","","","","","","","","","",""
"","fixation","","html-keyboard-response","147","304477","0.0-81.0-0.0","0","0","8WXnd","People","","null","","","","null","","","","","","","","","","","","","","","","","","","","","","","","","","","","","","","","","","","","","","","","","","","",""
"","deliberation","","html-keyboard-response","148","306556","0.0-81.0-1.0","0","0","8WXnd","People","","2076","","","","75","","","","25","40","33","0","-1","84","66","prince-akachi-4Yv84VgQkRM-unsplash.jpg","olena-sergienko-0TSd6uCKTKc-unsplash.jpg","3","0","33","40","","","","","","","","","","","","","","","","","","","","","","","","","","","",""
"","choice_confirmation","","html-keyboard-response","149","307065","0.0-81.0-2.0-0.0","0","0","8WXnd","People","","null","","","","null","","","","25","40","33","","","","","","","","","","","","","","","","","","","","","","","","","","","","","","","","","","","","","",""
"","fixation","","html-keyboard-response","150","308085","0.0-82.0-0.0","0","0","8WXnd","People","","null","","","","null","","","","","","","","","","","","","","","","","","","","","","","","","","","","","","","","","","","","","","","","","","","",""
"","deliberation","","html-keyboard-response","151","309691","0.0-82.0-1.0","0","0","8WXnd","People","","1604","","","","68","","","","26","38","3","0","1","86","89","petr-sevcovic-HzDF-rxlSeM-unsplash.jpg","art-hauntington-jzY0KRJopEI-unsplash.jpg","3","1","38","3","","","","","","","","","","","","","","","","","","","","","","","","","","","",""
"","choice_confirmation","","html-keyboard-response","152","310206","0.0-82.0-2.0-0.0","0","0","8WXnd","People","","null","","","","null","","","","26","38","3","","","","","","","","","","","","","","","","","","","","","","","","","","","","","","","","","","","","","",""
"","fixation","","html-keyboard-response","153","311214","0.0-83.0-0.0","0","0","8WXnd","People","","null","","","","null","","","","","","","","","","","","","","","","","","","","","","","","","","","","","","","","","","","","","","","","","","","",""
"","deliberation","","html-keyboard-response","154","312308","0.0-83.0-1.0","0","0","8WXnd","People","","1092","","","","75","","","","27","45","1","0","-1","89","76","sarah-noltner-pL5ZzPp1zqg-unsplash.jpg","aiony-haust-jmATI5Q_YgY-unsplash.jpg","3","0","1","45","","","","","","","","","","","","","","","","","","","","","","","","","","","",""
"","choice_confirmation","","html-keyboard-response","155","312819","0.0-83.0-2.0-0.0","0","0","8WXnd","People","","null","","","","null","","","","27","45","1","","","","","","","","","","","","","","","","","","","","","","","","","","","","","","","","","","","","","",""
"","fixation","","html-keyboard-response","156","313837","0.0-84.0-0.0","0","0","8WXnd","People","","null","","","","null","","","","","","","","","","","","","","","","","","","","","","","","","","","","","","","","","","","","","","","","","","","",""
"","deliberation","","html-keyboard-response","157","314782","0.0-84.0-1.0","0","0","8WXnd","People","","942","","","","68","","","","28","12","2","0","1","77","69","daniel-rigdon-dXmXKPP2L4E-unsplash.jpg","arjunsyah-TBUA5KHJn6k-unsplash.jpg","3","1","12","2","","","","","","","","","","","","","","","","","","","","","","","","","","","",""
"","choice_confirmation","","html-keyboard-response","158","315293","0.0-84.0-2.0-0.0","0","0","8WXnd","People","","null","","","","null","","","","28","12","2","","","","","","","","","","","","","","","","","","","","","","","","","","","","","","","","","","","","","",""
"","fixation","","html-keyboard-response","159","316313","0.0-85.0-0.0","0","0","8WXnd","People","","null","","","","null","","","","","","","","","","","","","","","","","","","","","","","","","","","","","","","","","","","","","","","","","","","",""
"","deliberation","","html-keyboard-response","160","317528","0.0-85.0-1.0","0","0","8WXnd","People","","1207","","","","75","","","","29","8","6","0","1","78","87","bruce-dixon-3M9WJQVHzog-unsplash.jpg","ben-o-bro-C5XyLljkMrY-unsplash.jpg","3","0","6","8","","","","","","","","","","","","","","","","","","","","","","","","","","","",""
"","choice_confirmation","","html-keyboard-response","161","318036","0.0-85.0-2.0-0.0","0","0","8WXnd","People","","null","","","","null","","","","29","8","6","","","","","","","","","","","","","","","","","","","","","","","","","","","","","","","","","","","","","",""
"","fixation","","html-keyboard-response","162","319052","0.0-86.0-0.0","0","0","8WXnd","People","","null","","","","null","","","","","","","","","","","","","","","","","","","","","","","","","","","","","","","","","","","","","","","","","","","",""
"","deliberation","","html-keyboard-response","163","319871","0.0-86.0-1.0","0","0","8WXnd","People","","815","","","","68","","","","30","7","25","0","1","77","82","brooke-cagle-HRZUzoX1e6w-unsplash.jpg","joseph-gonzalez-iFgRcqHznqg-unsplash.jpg","3","1","7","25","","","","","","","","","","","","","","","","","","","","","","","","","","","",""
"","choice_confirmation","","html-keyboard-response","164","320407","0.0-86.0-2.0-0.0","0","0","8WXnd","People","","null","","","","null","","","","30","7","25","","","","","","","","","","","","","","","","","","","","","","","","","","","","","","","","","","","","","",""
"","fixation","","html-keyboard-response","165","321428","0.0-87.0-0.0","0","0","8WXnd","People","","null","","","","null","","","","","","","","","","","","","","","","","","","","","","","","","","","","","","","","","","","","","","","","","","","",""
"","deliberation","","html-keyboard-response","166","322223","0.0-87.0-1.0","0","0","8WXnd","People","","763","","","","68","","","","31","17","10","0","-1","66","84","gleb-lukomets-paBzWCPN23k-unsplash.jpg","charles-etoroma-95UF6LXe-Lo-unsplash.jpg","3","1","17","10","","","","","","","","","","","","","","","","","","","","","","","","","","","",""
"","choice_confirmation","","html-keyboard-response","167","322735","0.0-87.0-2.0-0.0","0","0","8WXnd","People","","null","","","","null","","","","31","17","10","","","","","","","","","","","","","","","","","","","","","","","","","","","","","","","","","","","","","",""
"","fixation","","html-keyboard-response","168","323751","0.0-88.0-0.0","0","0","8WXnd","People","","null","","","","null","","","","","","","","","","","","","","","","","","","","","","","","","","","","","","","","","","","","","","","","","","","",""
"","deliberation","","html-keyboard-response","169","324612","0.0-88.0-1.0","0","0","8WXnd","People","","859","","","","75","","","","32","29","14","0","-1","86","82","leilani-angel-K84vnnzxmTQ-unsplash.jpg","freddy-kearney-o-ioeoATbIM-unsplash.jpg","3","0","14","29","","","","","","","","","","","","","","","","","","","","","","","","","","","",""
"","choice_confirmation","","html-keyboard-response","170","325127","0.0-88.0-2.0-0.0","0","0","8WXnd","People","","null","","","","null","","","","32","29","14","","","","","","","","","","","","","","","","","","","","","","","","","","","","","","","","","","","","","",""
"","fixation","","html-keyboard-response","171","326140","0.0-89.0-0.0","0","0","8WXnd","People","","null","","","","null","","","","","","","","","","","","","","","","","","","","","","","","","","","","","","","","","","","","","","","","","","","",""
"","deliberation","","html-keyboard-response","172","326883","0.0-89.0-1.0","0","0","8WXnd","People","","741","","","","68","","","","33","31","15","0","1","86","78","mathilda-khoo-vLR0YP_otCo-unsplash.jpg","gabriel-silverio-u3WmDyKGsrY-unsplash.jpg","3","1","31","15","","","","","","","","","","","","","","","","","","","","","","","","","","","",""
"","choice_confirmation","","html-keyboard-response","173","327399","0.0-89.0-2.0-0.0","0","0","8WXnd","People","","null","","","","null","","","","33","31","15","","","","","","","","","","","","","","","","","","","","","","","","","","","","","","","","","","","","","",""
"","fixation","","html-keyboard-response","174","328411","0.0-90.0-0.0","0","0","8WXnd","People","","null","","","","null","","","","","","","","","","","","","","","","","","","","","","","","","","","","","","","","","","","","","","","","","","","",""
"","deliberation","","html-keyboard-response","175","329894","0.0-90.0-1.0","0","0","8WXnd","People","","1478","","","","68","","","","34","11","16","0","1","83","73","christian-ferrer-8vT-DgHZDG4-unsplash.jpg","giano-currie-5-9YOsmf8IQ-unsplash.jpg","3","1","11","16","","","","","","","","","","","","","","","","","","","","","","","","","","","",""
"","choice_confirmation","","html-keyboard-response","176","330398","0.0-90.0-2.0-0.0","0","0","8WXnd","People","","null","","","","null","","","","34","11","16","","","","","","","","","","","","","","","","","","","","","","","","","","","","","","","","","","","","","",""
"","fixation","","html-keyboard-response","177","331414","0.0-91.0-0.0","0","0","8WXnd","People","","null","","","","null","","","","","","","","","","","","","","","","","","","","","","","","","","","","","","","","","","","","","","","","","","","",""
"","deliberation","","html-keyboard-response","178","332383","0.0-91.0-1.0","0","0","8WXnd","People","","966","","","","68","","","","35","34","20","0","-1","72","76","oliver-johnson-1TUIcKob7Zs-unsplash.jpg","houcine-ncib-B4TjXnI0Y2c-unsplash.jpg","3","1","34","20","","","","","","","","","","","","","","","","","","","","","","","","","","","",""
"","choice_confirmation","","html-keyboard-response","179","332930","0.0-91.0-2.0-0.0","0","0","8WXnd","People","","null","","","","null","","","","35","34","20","","","","","","","","","","","","","","","","","","","","","","","","","","","","","","","","","","","","","",""
"","reward_learning_instructions","","instructions","180","353832","0.0-92.0-0.0","0","0","8WXnd","People","[{""page_index"":0,""viewing_time"":6703},{""page_index"":1,""viewing_time"":12915},{""page_index"":2,""viewing_time"":1279}]","20898","","","","","","","","","","","","","","","","","","","","","","","","","","","","","","","","","","","","","","","","","","","","","","","",""
"","","","survey-multi-choice","181","359826","0.0-92.0-1.0","0","0","8WXnd","People","","5990","{""Q0"":""True"",""Q1"":""True"",""Q2"":""Press the space bar to see its outcome"",""Q3"":""Press the relevant key while the outcome is presented""}","reward_comprehension_check","0","","","","","","","","","","","","","","","","","","","","","","","","","","","","","","","","","","","","","","","","","","","","",""
"","start_phase","","html-keyboard-response","182","360910","0.0-93.0","0","0","8WXnd","People","","1081","","","","78","","","","","","","","","","","","","","","","","","","","","","","","","","","","","","","","","","","","","","","","","","","",""
"","fixation","","html-keyboard-response","183","361919","0.0-94.0","0","0","8WXnd","People","","null","","","","null","","","","","","","","","","","","","","","","","","","","","","","","","","","","","","","","","","","","","","","","","","","",""
"","see_reward","","html-keyboard-response","184","362455","0.0-95.0","0","0","8WXnd","People","","533","","","","32","","33","","0","","","","-1","","","","","1","","","","","0","533","","","","","","","","","","","","","","","","","","","","","","","","",""
"","reward_outcome","","html-keyboard-response","185","364473","0.0-96.0","0","0","8WXnd","People","","972","","","","40","","33","","0","","","","","","","","","","","","","","","","-1","972","","","","","","","","","","","","","","","","","","","","","","",""
"","fixation","","html-keyboard-response","186","365492","0.0-99.0","0","0","8WXnd","People","","null","","","","null","","","","","","","","","","","","","","","","","","","","","","","","","","","","","","","","","","","","","","","","","","","",""
"","see_reward","","html-keyboard-response","187","366262","0.0-100.0","0","0","8WXnd","People","","768","","","","32","","12","","1","","","","1","","","","","1","","","","","140","768","","","","","","","","","","","","","","","","","","","","","","","","",""
"","reward_outcome","","html-keyboard-response","188","368273","0.0-101.0","0","0","8WXnd","People","","587","","","","38","","12","","1","","","","","","","","","","","","","","","","1","587","","","","","","","","","","","","","","","","","","","","","","",""
"","fixation","","html-keyboard-response","189","369295","0.0-104.0","0","0","8WXnd","People","","null","","","","null","","","","","","","","","","","","","","","","","","","","","","","","","","","","","","","","","","","","","","","","","","","",""
"","see_reward","","html-keyboard-response","190","369639","0.0-105.0","0","0","8WXnd","People","","339","","","","32","","6","","2","","","","1","","","","","1","","","","","152","339","","","","","","","","","","","","","","","","","","","","","","","","",""
"","reward_outcome","","html-keyboard-response","191","371649","0.0-106.0","0","0","8WXnd","People","","401","","","","38","","6","","2","","","","","","","","","","","","","","","","1","401","","","","","","","","","","","","","","","","","","","","","","",""
"","fixation","","html-keyboard-response","192","372670","0.0-109.0","0","0","8WXnd","People","","null","","","","null","","","","","","","","","","","","","","","","","","","","","","","","","","","","","","","","","","","","","","","","","","","",""
"","see_reward","","html-keyboard-response","193","373019","0.0-110.0","0","0","8WXnd","People","","348","","","","32","","39","","3","","","","-1","","","","","1","","","","","0","348","","","","","","","","","","","","","","","","","","","","","","","","",""
"","reward_outcome","","html-keyboard-response","194","375039","0.0-111.0","0","0","8WXnd","People","","471","","","","40","","39","","3","","","","","","","","","","","","","","","","-1","471","","","","","","","","","","","","","","","","","","","","","","",""
"","fixation","","html-keyboard-response","195","376053","0.0-114.0","0","0","8WXnd","People","","null","","","","null","","","","","","","","","","","","","","","","","","","","","","","","","","","","","","","","","","","","","","","","","","","",""
"","see_reward","","html-keyboard-response","196","376475","0.0-115.0","0","0","8WXnd","People","","419","","","","32","","1","","4","","","","-1","","","","","1","","","","","0","419","","","","","","","","","","","","","","","","","","","","","","","","",""
"","reward_outcome","","html-keyboard-response","197","378496","0.0-116.0","0","0","8WXnd","People","","455","","","","40","","1","","4","","","","","","","","","","","","","","","","-1","455","","","","","","","","","","","","","","","","","","","","","","",""
"","fixation","","html-keyboard-response","198","379502","0.0-119.0","0","0","8WXnd","People","","null","","","","null","","","","","","","","","","","","","","","","","","","","","","","","","","","","","","","","","","","","","","","","","","","",""
"","see_reward","","html-keyboard-response","199","379797","0.0-120.0","0","0","8WXnd","People","","293","","","","32","","12","","5","","","","1","","","","","1","","","","","140","293","","","","","","","","","","","","","","","","","","","","","","","","",""
"","reward_outcome","","html-keyboard-response","200","381810","0.0-121.0","0","0","8WXnd","People","","454","","","","38","","12","","5","","","","","","","","","","","","","","","","1","454","","","","","","","","","","","","","","","","","","","","","","",""
"","fixation","","html-keyboard-response","201","382831","0.0-124.0","0","0","8WXnd","People","","null","","","","null","","","","","","","","","","","","","","","","","","","","","","","","","","","","","","","","","","","","","","","","","","","",""
"","see_reward","","html-keyboard-response","202","383126","0.0-125.0","0","0","8WXnd","People","","292","","","","32","","39","","6","","","","-1","","","","","1","","","","","0","292","","","","","","","","","","","","","","","","","","","","","","","","",""
"","reward_outcome","","html-keyboard-response","203","385142","0.0-126.0","0","0","8WXnd","People","","540","","","","40","","39","","6","","","","","","","","","","","","","","","","-1","540","","","","","","","","","","","","","","","","","","","","","","",""
"","fixation","","html-keyboard-response","204","386160","0.0-129.0","0","0","8WXnd","People","","null","","","","null","","","","","","","","","","","","","","","","","","","","","","","","","","","","","","","","","","","","","","","","","","","",""
"","see_reward","","html-keyboard-response","205","386484","0.0-130.0","0","0","8WXnd","People","","321","","","","32","","38","","7","","","","1","","","","","1","","","","","150","321","","","","","","","","","","","","","","","","","","","","","","","","",""
"","reward_outcome","","html-keyboard-response","206","388500","0.0-131.0","0","0","8WXnd","People","","436","","","","38","","38","","7","","","","","","","","","","","","","","","","1","436","","","","","","","","","","","","","","","","","","","","","","",""
"","fixation","","html-keyboard-response","207","389519","0.0-134.0","0","0","8WXnd","People","","null","","","","null","","","","","","","","","","","","","","","","","","","","","","","","","","","","","","","","","","","","","","","","","","","",""
"","see_reward","","html-keyboard-response","208","389886","0.0-135.0","0","0","8WXnd","People","","364","","","","32","","6","","8","","","","1","","","","","1","","","","","152","364","","","","","","","","","","","","","","","","","","","","","","","","",""
"","reward_outcome","","html-keyboard-response","209","391897","0.0-136.0","0","0","8WXnd","People","","389","","","","38","","6","","8","","","","","","","","","","","","","","","","1","389","","","","","","","","","","","","","","","","","","","","","","",""
"","fixation","","html-keyboard-response","210","392902","0.0-139.0","0","0","8WXnd","People","","null","","","","null","","","","","","","","","","","","","","","","","","","","","","","","","","","","","","","","","","","","","","","","","","","",""
"","see_reward","","html-keyboard-response","211","393262","0.0-140.0","0","0","8WXnd","People","","356","","","","32","","14","","9","","","","-1","","","","","1","","","","","0","356","","","","","","","","","","","","","","","","","","","","","","","","",""
"","reward_outcome","","html-keyboard-response","212","395283","0.0-141.0","0","0","8WXnd","People","","453","","","","40","","14","","9","","","","","","","","","","","","","","","","-1","453","","","","","","","","","","","","","","","","","","","","","","",""
"","fixation","","html-keyboard-response","213","396299","0.0-144.0","0","0","8WXnd","People","","null","","","","null","","","","","","","","","","","","","","","","","","","","","","","","","","","","","","","","","","","","","","","","","","","",""
"","see_reward","","html-keyboard-response","214","396610","0.0-145.0","0","0","8WXnd","People","","310","","","","32","","7","","10","","","","1","","","","","1","","","","","145","310","","","","","","","","","","","","","","","","","","","","","","","","",""
"","reward_outcome","","html-keyboard-response","215","398626","0.0-146.0","0","0","8WXnd","People","","439","","","","38","","7","","10","","","","","","","","","","","","","","","","1","439","","","","","","","","","","","","","","","","","","","","","","",""
"","fixation","","html-keyboard-response","216","399652","0.0-149.0","0","0","8WXnd","People","","null","","","","null","","","","","","","","","","","","","","","","","","","","","","","","","","","","","","","","","","","","","","","","","","","",""
"","see_reward","","html-keyboard-response","217","399983","0.0-150.0","0","0","8WXnd","People","","327","","","","32","","14","","11","","","","-1","","","","","1","","","","","0","327","","","","","","","","","","","","","","","","","","","","","","","","",""
"","reward_outcome","","html-keyboard-response","218","401988","0.0-151.0","0","0","8WXnd","People","","449","","","","40","","14","","11","","","","","","","","","","","","","","","","-1","449","","","","","","","","","","","","","","","","","","","","","","",""
"","fixation","","html-keyboard-response","219","403024","0.0-154.0","0","0","8WXnd","People","","null","","","","null","","","","","","","","","","","","","","","","","","","","","","","","","","","","","","","","","","","","","","","","","","","",""
"","see_reward","","html-keyboard-response","220","403366","0.0-155.0","0","0","8WXnd","People","","339","","","","32","","17","","12","","","","-1","","","","","1","","","","","0","339","","","","","","","","","","","","","","","","","","","","","","","","",""
"","reward_outcome","","html-keyboard-response","221","405381","0.0-156.0","0","0","8WXnd","People","","411","","","","40","","17","","12","","","","","","","","","","","","","","","","-1","411","","","","","","","","","","","","","","","","","","","","","","",""
"","fixation","","html-keyboard-response","222","406401","0.0-159.0","0","0","8WXnd","People","","null","","","","null","","","","","","","","","","","","","","","","","","","","","","","","","","","","","","","","","","","","","","","","","","","",""
"","see_reward","","html-keyboard-response","223","406678","0.0-160.0","0","0","8WXnd","People","","274","","","","32","","38","","13","","","","1","","","","","1","","","","","150","274","","","","","","","","","","","","","","","","","","","","","","","","",""
"","reward_outcome","","html-keyboard-response","224","408691","0.0-161.0","0","0","8WXnd","People","","396","","","","38","","38","","13","","","","","","","","","","","","","","","","1","396","","","","","","","","","","","","","","","","","","","","","","",""
"","fixation","","html-keyboard-response","225","409705","0.0-164.0","0","0","8WXnd","People","","null","","","","null","","","","","","","","","","","","","","","","","","","","","","","","","","","","","","","","","","","","","","","","","","","",""
"","see_reward","","html-keyboard-response","226","409950","0.0-165.0","0","0","8WXnd","People","","242","","","","32","","11","","14","","","","1","","","","","1","","","","","141","242","","","","","","","","","","","","","","","","","","","","","","","","",""
"","reward_outcome","","html-keyboard-response","227","411960","0.0-166.0","0","0","8WXnd","People","","429","","","","38","","11","","14","","","","","","","","","","","","","","","","1","429","","","","","","","","","","","","","","","","","","","","","","",""
"","fixation","","html-keyboard-response","228","412971","0.0-169.0","0","0","8WXnd","People","","null","","","","null","","","","","","","","","","","","","","","","","","","","","","","","","","","","","","","","","","","","","","","","","","","",""
"","see_reward","","html-keyboard-response","229","413239","0.0-170.0","0","0","8WXnd","People","","266","","","","32","","1","","15","","","","-1","","","","","1","","","","","0","266","","","","","","","","","","","","","","","","","","","","","","","","",""
"","reward_outcome","","html-keyboard-response","230","415249","0.0-171.0","0","0","8WXnd","People","","443","","","","40","","1","","15","","","","","","","","","","","","","","","","-1","443","","","","","","","","","","","","","","","","","","","","","","",""
"","fixation","","html-keyboard-response","231","416274","0.0-174.0","0","0","8WXnd","People","","null","","","","null","","","","","","","","","","","","","","","","","","","","","","","","","","","","","","","","","","","","","","","","","","","",""
"","see_reward","","html-keyboard-response","232","416566","0.0-175.0","0","0","8WXnd","People","","292","","","","32","","31","","16","","","","1","","","","","1","","","","","159","292","","","","","","","","","","","","","","","","","","","","","","","","",""
"","reward_outcome","","html-keyboard-response","233","418581","0.0-176.0","0","0","8WXnd","People","","428","","","","38","","31","","16","","","","","","","","","","","","","","","","1","428","","","","","","","","","","","","","","","","","","","","","","",""
"","fixation","","html-keyboard-response","234","419604","0.0-179.0","0","0","8WXnd","People","","null","","","","null","","","","","","","","","","","","","","","","","","","","","","","","","","","","","","","","","","","","","","","","","","","",""
"","see_reward","","html-keyboard-response","235","419962","0.0-180.0","0","0","8WXnd","People","","356","","","","32","","34","","17","","","","-1","","","","","1","","","","","0","356","","","","","","","","","","","","","","","","","","","","","","","","",""
"","reward_outcome","","html-keyboard-response","236","421977","0.0-181.0","0","0","8WXnd","People","","455","","","","40","","34","","17","","","","","","","","","","","","","","","","-1","455","","","","","","","","","","","","","","","","","","","","","","",""
"","fixation","","html-keyboard-response","237","422995","0.0-184.0","0","0","8WXnd","People","","null","","","","null","","","","","","","","","","","","","","","","","","","","","","","","","","","","","","","","","","","","","","","","","","","",""
"","see_reward","","html-keyboard-response","238","423250","0.0-185.0","0","0","8WXnd","People","","254","","","","32","","33","","18","","","","-1","","","","","1","","","","","0","254","","","","","","","","","","","","","","","","","","","","","","","","",""
"","reward_outcome","","html-keyboard-response","239","425272","0.0-186.0","0","0","8WXnd","People","","1040","","","","40","","33","","18","","","","","","","","","","","","","","","","-1","1040","","","","","","","","","","","","","","","","","","","","","","",""
"","fixation","","html-keyboard-response","240","426297","0.0-189.0","0","0","8WXnd","People","","null","","","","null","","","","","","","","","","","","","","","","","","","","","","","","","","","","","","","","","","","","","","","","","","","",""
"","see_reward","","html-keyboard-response","241","426571","0.0-190.0","0","0","8WXnd","People","","272","","","","32","","11","","19","","","","1","","","","","1","","","","","141","272","","","","","","","","","","","","","","","","","","","","","","","","",""
"","reward_outcome","","html-keyboard-response","242","428586","0.0-191.0","0","0","8WXnd","People","","398","","","","38","","11","","19","","","","","","","","","","","","","","","","1","398","","","","","","","","","","","","","","","","","","","","","","",""
"","fixation","","html-keyboard-response","243","429598","0.0-194.0","0","0","8WXnd","People","","null","","","","null","","","","","","","","","","","","","","","","","","","","","","","","","","","","","","","","","","","","","","","","","","","",""
"","see_reward","","html-keyboard-response","244","429828","0.0-195.0","0","0","8WXnd","People","","228","","","","32","","17","","20","","","","-1","","","","","1","","","","","0","228","","","","","","","","","","","","","","","","","","","","","","","","",""
"","reward_outcome","","html-keyboard-response","245","431838","0.0-196.0","0","0","8WXnd","People","","526","","","","40","","17","","20","","","","","","","","","","","","","","","","-1","526","","","","","","","","","","","","","","","","","","","","","","",""
"","fixation","","html-keyboard-response","246","432856","0.0-199.0","0","0","8WXnd","People","","null","","","","null","","","","","","","","","","","","","","","","","","","","","","","","","","","","","","","","","","","","","","","","","","","",""
"","see_reward","","html-keyboard-response","247","433101","0.0-200.0","0","0","8WXnd","People","","242","","","","32","","7","","21","","","","1","","","","","1","","","","","145","242","","","","","","","","","","","","","","","","","","","","","","","","",""
"","reward_outcome","","html-keyboard-response","248","435119","0.0-201.0","0","0","8WXnd","People","","412","","","","38","","7","","21","","","","","","","","","","","","","","","","1","412","","","","","","","","","","","","","","","","","","","","","","",""
"","fixation","","html-keyboard-response","249","436131","0.0-204.0","0","0","8WXnd","People","","null","","","","null","","","","","","","","","","","","","","","","","","","","","","","","","","","","","","","","","","","","","","","","","","","",""
"","see_reward","","html-keyboard-response","250","436374","0.0-205.0","0","0","8WXnd","People","","239","","","","32","","31","","22","","","","1","","","","","1","","","","","159","239","","","","","","","","","","","","","","","","","","","","","","","","",""
"","reward_outcome","","html-keyboard-response","251","438390","0.0-206.0","0","0","8WXnd","People","","466","","","","38","","31","","22","","","","","","","","","","","","","","","","1","466","","","","","","","","","","","","","","","","","","","","","","",""
"","fixation","","html-keyboard-response","252","439409","0.0-209.0","0","0","8WXnd","People","","null","","","","null","","","","","","","","","","","","","","","","","","","","","","","","","","","","","","","","","","","","","","","","","","","",""
"","see_reward","","html-keyboard-response","253","439757","0.0-210.0","0","0","8WXnd","People","","343","","","","32","","34","","23","","","","-1","","","","","1","","","","","0","343","","","","","","","","","","","","","","","","","","","","","","","","",""
"","reward_outcome","","html-keyboard-response","254","441782","0.0-211.0","0","0","8WXnd","People","","437","","","","40","","34","","23","","","","","","","","","","","","","","","","-1","437","","","","","","","","","","","","","","","","","","","","","","",""
"","block_over","","html-keyboard-response","255","443133","0.0-213.0-0.0","0","0","8WXnd","People","","1349","","","","78","","","","","","","","","","","","","","","","","","","","","","","","","","","","","","","","","","","","","","","","","","","",""
"","fixation","","html-keyboard-response","256","444155","0.0-214.0","0","0","8WXnd","People","","null","","","","null","","","","","","","","","","","","","","","","","","","","","","","","","","","","","","","","","","","","","","","","","","","",""
"","see_reward","","html-keyboard-response","257","444980","0.0-215.0","0","0","8WXnd","People","","821","","","","32","","34","","24","","","","-1","","","","","2","","","","","0","821","","","","","","","","","","","","","","","","","","","","","","","","",""
"","reward_outcome","","html-keyboard-response","258","446991","0.0-216.0","0","0","8WXnd","People","","604","","","","40","","34","","24","","","","","","","","","","","","","","","","-1","604","","","","","","","","","","","","","","","","","","","","","","",""
"","fixation","","html-keyboard-response","259","448015","0.0-219.0","0","0","8WXnd","People","","null","","","","null","","","","","","","","","","","","","","","","","","","","","","","","","","","","","","","","","","","","","","","","","","","",""
"","see_reward","","html-keyboard-response","260","448346","0.0-220.0","0","0","8WXnd","People","","329","","","","32","","31","","25","","","","1","","","","","2","","","","","159","329","","","","","","","","","","","","","","","","","","","","","","","","",""
"","reward_outcome","","html-keyboard-response","261","450365","0.0-221.0","0","0","8WXnd","People","","424","","","","38","","31","","25","","","","","","","","","","","","","","","","1","424","","","","","","","","","","","","","","","","","","","","","","",""
"","fixation","","html-keyboard-response","262","451387","0.0-224.0","0","0","8WXnd","People","","null","","","","null","","","","","","","","","","","","","","","","","","","","","","","","","","","","","","","","","","","","","","","","","","","",""
"","see_reward","","html-keyboard-response","263","451638","0.0-225.0","0","0","8WXnd","People","","246","","","","32","","11","","26","","","","1","","","","","2","","","","","141","246","","","","","","","","","","","","","","","","","","","","","","","","",""
"","reward_outcome","","html-keyboard-response","264","453644","0.0-226.0","0","0","8WXnd","People","","396","","","","38","","11","","26","","","","","","","","","","","","","","","","1","396","","","","","","","","","","","","","","","","","","","","","","",""
"","fixation","","html-keyboard-response","265","454665","0.0-229.0","0","0","8WXnd","People","","null","","","","null","","","","","","","","","","","","","","","","","","","","","","","","","","","","","","","","","","","","","","","","","","","",""
"","see_reward","","html-keyboard-response","266","455018","0.0-230.0","0","0","8WXnd","People","","352","","","","32","","39","","27","","","","-1","","","","","2","","","","","0","352","","","","","","","","","","","","","","","","","","","","","","","","",""
"","reward_outcome","","html-keyboard-response","267","457028","0.0-231.0","0","0","8WXnd","People","","431","","","","40","","39","","27","","","","","","","","","","","","","","","","-1","431","","","","","","","","","","","","","","","","","","","","","","",""
"","fixation","","html-keyboard-response","268","458038","0.0-234.0","0","0","8WXnd","People","","null","","","","null","","","","","","","","","","","","","","","","","","","","","","","","","","","","","","","","","","","","","","","","","","","",""
"","see_reward","","html-keyboard-response","269","458373","0.0-235.0","0","0","8WXnd","People","","333","","","","32","","6","","28","","","","1","","","","","2","","","","","152","333","","","","","","","","","","","","","","","","","","","","","","","","",""
"","reward_outcome","","html-keyboard-response","270","460387","0.0-236.0","0","0","8WXnd","People","","395","","","","38","","6","","28","","","","","","","","","","","","","","","","1","395","","","","","","","","","","","","","","","","","","","","","","",""
"","fixation","","html-keyboard-response","271","461398","0.0-239.0","0","0","8WXnd","People","","null","","","","null","","","","","","","","","","","","","","","","","","","","","","","","","","","","","","","","","","","","","","","","","","","",""
"","see_reward","","html-keyboard-response","272","461634","0.0-240.0","0","0","8WXnd","People","","233","","","","32","","1","","29","","","","-1","","","","","2","","","","","0","233","","","","","","","","","","","","","","","","","","","","","","","","",""
"","reward_outcome","","html-keyboard-response","273","463654","0.0-241.0","0","0","8WXnd","People","","440","","","","40","","1","","29","","","","","","","","","","","","","","","","-1","440","","","","","","","","","","","","","","","","","","","","","","",""
"","fixation","","html-keyboard-response","274","464673","0.0-244.0","0","0","8WXnd","People","","null","","","","null","","","","","","","","","","","","","","","","","","","","","","","","","","","","","","","","","","","","","","","","","","","",""
"","see_reward","","html-keyboard-response","275","464906","0.0-245.0","0","0","8WXnd","People","","232","","","","32","","33","","30","","","","-1","","","","","2","","","","","0","232","","","","","","","","","","","","","","","","","","","","","","","","",""
"","reward_outcome","","html-keyboard-response","276","466915","0.0-246.0","0","0","8WXnd","People","","439","","","","40","","33","","30","","","","","","","","","","","","","","","","-1","439","","","","","","","","","","","","","","","","","","","","","","",""
"","fixation","","html-keyboard-response","277","467925","0.0-249.0","0","0","8WXnd","People","","null","","","","null","","","","","","","","","","","","","","","","","","","","","","","","","","","","","","","","","","","","","","","","","","","",""
"","see_reward","","html-keyboard-response","278","468205","0.0-250.0","0","0","8WXnd","People","","276","","","","32","","7","","31","","","","1","","","","","2","","","","","145","276","","","","","","","","","","","","","","","","","","","","","","","","",""
"","reward_outcome","","html-keyboard-response","279","470215","0.0-251.0","0","0","8WXnd","People","","467","","","","38","","7","","31","","","","","","","","","","","","","","","","1","467","","","","","","","","","","","","","","","","","","","","","","",""
"","fixation","","html-keyboard-response","280","471228","0.0-254.0","0","0","8WXnd","People","","null","","","","null","","","","","","","","","","","","","","","","","","","","","","","","","","","","","","","","","","","","","","","","","","","",""
"","see_reward","","html-keyboard-response","281","471500","0.0-255.0","0","0","8WXnd","People","","269","","","","32","","38","","32","","","","1","","","","","2","","","","","150","269","","","","","","","","","","","","","","","","","","","","","","","","",""
"","reward_outcome","","html-keyboard-response","282","473508","0.0-256.0","0","0","8WXnd","People","","421","","","","38","","38","","32","","","","","","","","","","","","","","","","1","421","","","","","","","","","","","","","","","","","","","","","","",""
"","fixation","","html-keyboard-response","283","474526","0.0-259.0","0","0","8WXnd","People","","null","","","","null","","","","","","","","","","","","","","","","","","","","","","","","","","","","","","","","","","","","","","","","","","","",""
"","see_reward","","html-keyboard-response","284","474763","0.0-260.0","0","0","8WXnd","People","","235","","","","32","","14","","33","","","","-1","","","","","2","","","","","0","235","","","","","","","","","","","","","","","","","","","","","","","","",""
"","reward_outcome","","html-keyboard-response","285","476768","0.0-261.0","0","0","8WXnd","People","","447","","","","40","","14","","33","","","","","","","","","","","","","","","","-1","447","","","","","","","","","","","","","","","","","","","","","","",""
"","fixation","","html-keyboard-response","286","477785","0.0-264.0","0","0","8WXnd","People","","null","","","","null","","","","","","","","","","","","","","","","","","","","","","","","","","","","","","","","","","","","","","","","","","","",""
"","see_reward","","html-keyboard-response","287","477811","0.0-265.0","0","0","8WXnd","People","","23","","","","32","","12","","34","","","","1","","","","","2","","","","","140","23","","","","","","","","","","","","","","","","","","","","","","","","",""
"","reward_outcome","","html-keyboard-response","288","479830","0.0-266.0","0","0","8WXnd","People","","504","","","","38","","12","","34","","","","","","","","","","","","","","","","1","504","","","","","","","","","","","","","","","","","","","","","","",""
"","fixation","","html-keyboard-response","289","480849","0.0-269.0","0","0","8WXnd","People","","null","","","","null","","","","","","","","","","","","","","","","","","","","","","","","","","","","","","","","","","","","","","","","","","","",""
"","see_reward","","html-keyboard-response","290","484397","0.0-270.0","0","0","8WXnd","People","","3545","","","","32","","6","","35","","","","1","","","","","2","","","","","152","3545","","","","","","","","","","","","","","","","","","","","","","","","",""
"","reward_outcome","","html-keyboard-response","291","486411","0.0-271.0","0","0","8WXnd","People","","427","","","","38","","6","","35","","","","","","","","","","","","","","","","1","427","","","","","","","","","","","","","","","","","","","","","","",""
"","fixation","","html-keyboard-response","292","487426","0.0-274.0","0","0","8WXnd","People","","null","","","","null","","","","","","","","","","","","","","","","","","","","","","","","","","","","","","","","","","","","","","","","","","","",""
"","see_reward","","html-keyboard-response","293","487704","0.0-275.0","0","0","8WXnd","People","","275","","","","32","","33","","36","","","","-1","","","","","2","","","","","0","275","","","","","","","","","","","","","","","","","","","","","","","","",""
"","reward_outcome","","html-keyboard-response","294","489711","0.0-276.0","0","0","8WXnd","People","","448","","","","40","","33","","36","","","","","","","","","","","","","","","","-1","448","","","","","","","","","","","","","","","","","","","","","","",""
"","fixation","","html-keyboard-response","295","490719","0.0-279.0","0","0","8WXnd","People","","null","","","","null","","","","","","","","","","","","","","","","","","","","","","","","","","","","","","","","","","","","","","","","","","","",""
"","see_reward","","html-keyboard-response","296","490995","0.0-280.0","0","0","8WXnd","People","","274","","","","32","","7","","37","","","","1","","","","","2","","","","","145","274","","","","","","","","","","","","","","","","","","","","","","","","",""
"","reward_outcome","","html-keyboard-response","297","493010","0.0-281.0","0","0","8WXnd","People","","358","","","","38","","7","","37","","","","","","","","","","","","","","","","1","358","","","","","","","","","","","","","","","","","","","","","","",""
"","fixation","","html-keyboard-response","298","494023","0.0-284.0","0","0","8WXnd","People","","null","","","","null","","","","","","","","","","","","","","","","","","","","","","","","","","","","","","","","","","","","","","","","","","","",""
"","see_reward","","html-keyboard-response","299","494245","0.0-285.0","0","0","8WXnd","People","","220","","","","32","","12","","38","","","","1","","","","","2","","","","","140","220","","","","","","","","","","","","","","","","","","","","","","","","",""
"","reward_outcome","","html-keyboard-response","300","496253","0.0-286.0","0","0","8WXnd","People","","378","","","","38","","12","","38","","","","","","","","","","","","","","","","1","378","","","","","","","","","","","","","","","","","","","","","","",""
"","fixation","","html-keyboard-response","301","497273","0.0-289.0","0","0","8WXnd","People","","null","","","","null","","","","","","","","","","","","","","","","","","","","","","","","","","","","","","","","","","","","","","","","","","","",""
"","see_reward","","html-keyboard-response","302","497510","0.0-290.0","0","0","8WXnd","People","","233","","","","32","","1","","39","","","","-1","","","","","2","","","","","0","233","","","","","","","","","","","","","","","","","","","","","","","","",""
"","reward_outcome","","html-keyboard-response","303","499516","0.0-291.0","0","0","8WXnd","People","","378","","","","40","","1","","39","","","","","","","","","","","","","","","","-1","378","","","","","","","","","","","","","","","","","","","","","","",""
"","fixation","","html-keyboard-response","304","500534","0.0-294.0","0","0","8WXnd","People","","null","","","","null","","","","","","","","","","","","","","","","","","","","","","","","","","","","","","","","","","","","","","","","","","","",""
"","see_reward","","html-keyboard-response","305","500909","0.0-295.0","0","0","8WXnd","People","","372","","","","32","","11","","40","","","","1","","","","","2","","","","","141","372","","","","","","","","","","","","","","","","","","","","","","","","",""
"","reward_outcome","","html-keyboard-response","306","502922","0.0-296.0","0","0","8WXnd","People","","388","","","","38","","11","","40","","","","","","","","","","","","","","","","1","388","","","","","","","","","","","","","","","","","","","","","","",""
"","fixation","","html-keyboard-response","307","503945","0.0-299.0","0","0","8WXnd","People","","null","","","","null","","","","","","","","","","","","","","","","","","","","","","","","","","","","","","","","","","","","","","","","","","","",""
"","see_reward","","html-keyboard-response","308","504253","0.0-300.0","0","0","8WXnd","People","","305","","","","32","","14","","41","","","","-1","","","","","2","","","","","0","305","","","","","","","","","","","","","","","","","","","","","","","","",""
"","reward_outcome","","html-keyboard-response","309","506270","0.0-301.0","0","0","8WXnd","People","","459","","","","40","","14","","41","","","","","","","","","","","","","","","","-1","459","","","","","","","","","","","","","","","","","","","","","","",""
"","fixation","","html-keyboard-response","310","507288","0.0-304.0","0","0","8WXnd","People","","null","","","","null","","","","","","","","","","","","","","","","","","","","","","","","","","","","","","","","","","","","","","","","","","","",""
"","see_reward","","html-keyboard-response","311","507613","0.0-305.0","0","0","8WXnd","People","","321","","","","32","","17","","42","","","","-1","","","","","2","","","","","0","321","","","","","","","","","","","","","","","","","","","","","","","","",""
"","reward_outcome","","html-keyboard-response","312","509639","0.0-306.0","0","0","8WXnd","People","","388","","","","40","","17","","42","","","","","","","","","","","","","","","","-1","388","","","","","","","","","","","","","","","","","","","","","","",""
"","fixation","","html-keyboard-response","313","510650","0.0-309.0","0","0","8WXnd","People","","null","","","","null","","","","","","","","","","","","","","","","","","","","","","","","","","","","","","","","","","","","","","","","","","","",""
"","see_reward","","html-keyboard-response","314","510970","0.0-310.0","0","0","8WXnd","People","","318","","","","32","","34","","43","","","","-1","","","","","2","","","","","0","318","","","","","","","","","","","","","","","","","","","","","","","","",""
"","reward_outcome","","html-keyboard-response","315","512990","0.0-311.0","0","0","8WXnd","People","","423","","","","40","","34","","43","","","","","","","","","","","","","","","","-1","423","","","","","","","","","","","","","","","","","","","","","","",""
"","fixation","","html-keyboard-response","316","514009","0.0-314.0","0","0","8WXnd","People","","null","","","","null","","","","","","","","","","","","","","","","","","","","","","","","","","","","","","","","","","","","","","","","","","","",""
"","see_reward","","html-keyboard-response","317","514266","0.0-315.0","0","0","8WXnd","People","","255","","","","32","","17","","44","","","","-1","","","","","2","","","","","0","255","","","","","","","","","","","","","","","","","","","","","","","","",""
"","reward_outcome","","html-keyboard-response","318","516285","0.0-316.0","0","0","8WXnd","People","","399","","","","40","","17","","44","","","","","","","","","","","","","","","","-1","399","","","","","","","","","","","","","","","","","","","","","","",""
"","fixation","","html-keyboard-response","319","517300","0.0-319.0","0","0","8WXnd","People","","null","","","","null","","","","","","","","","","","","","","","","","","","","","","","","","","","","","","","","","","","","","","","","","","","",""
"","see_reward","","html-keyboard-response","320","517597","0.0-320.0","0","0","8WXnd","People","","293","","","","32","","39","","45","","","","-1","","","","","2","","","","","0","293","","","","","","","","","","","","","","","","","","","","","","","","",""
"","reward_outcome","","html-keyboard-response","321","519617","0.0-321.0","0","0","8WXnd","People","","428","","","","40","","39","","45","","","","","","","","","","","","","","","","-1","428","","","","","","","","","","","","","","","","","","","","","","",""
"","fixation","","html-keyboard-response","322","520638","0.0-324.0","0","0","8WXnd","People","","null","","","","null","","","","","","","","","","","","","","","","","","","","","","","","","","","","","","","","","","","","","","","","","","","",""
"","see_reward","","html-keyboard-response","323","520922","0.0-325.0","0","0","8WXnd","People","","283","","","","32","","38","","46","","","","1","","","","","2","","","","","150","283","","","","","","","","","","","","","","","","","","","","","","","","",""
"","reward_outcome","","html-keyboard-response","324","522932","0.0-326.0","0","0","8WXnd","People","","430","","","","38","","38","","46","","","","","","","","","","","","","","","","1","430","","","","","","","","","","","","","","","","","","","","","","",""
"","fixation","","html-keyboard-response","325","523942","0.0-329.0","0","0","8WXnd","People","","null","","","","null","","","","","","","","","","","","","","","","","","","","","","","","","","","","","","","","","","","","","","","","","","","",""
"","see_reward","","html-keyboard-response","326","524018","0.0-330.0","0","0","8WXnd","People","","74","","","","32","","31","","47","","","","1","","","","","2","","","","","159","74","","","","","","","","","","","","","","","","","","","","","","","","",""
"","reward_outcome","","html-keyboard-response","327","526035","0.0-331.0","0","0","8WXnd","People","","520","","","","38","","31","","47","","","","","","","","","","","","","","","","1","520","","","","","","","","","","","","","","","","","","","","","","",""
"","block_over","","html-keyboard-response","328","527349","0.0-333.0-0.0","0","0","8WXnd","People","","1312","","","","78","","","","","","","","","","","","","","","","","","","","","","","","","","","","","","","","","","","","","","","","","","","",""
"","fixation","","html-keyboard-response","329","528359","0.0-334.0","0","0","8WXnd","People","","null","","","","null","","","","","","","","","","","","","","","","","","","","","","","","","","","","","","","","","","","","","","","","","","","",""
"","see_reward","","html-keyboard-response","330","528690","0.0-335.0","0","0","8WXnd","People","","329","","","","32","","34","","48","","","","-1","","","","","3","","","","","0","329","","","","","","","","","","","","","","","","","","","","","","","","",""
"","reward_outcome","","html-keyboard-response","331","530700","0.0-336.0","0","0","8WXnd","People","","440","","","","40","","34","","48","","","","","","","","","","","","","","","","-1","440","","","","","","","","","","","","","","","","","","","","","","",""
"","fixation","","html-keyboard-response","332","531725","0.0-339.0","0","0","8WXnd","People","","null","","","","null","","","","","","","","","","","","","","","","","","","","","","","","","","","","","","","","","","","","","","","","","","","",""
"","see_reward","","html-keyboard-response","333","532146","0.0-340.0","0","0","8WXnd","People","","419","","","","32","","33","","49","","","","-1","","","","","3","","","","","0","419","","","","","","","","","","","","","","","","","","","","","","","","",""
"","reward_outcome","","html-keyboard-response","334","534163","0.0-341.0","0","0","8WXnd","People","","384","","","","40","","33","","49","","","","","","","","","","","","","","","","-1","384","","","","","","","","","","","","","","","","","","","","","","",""
"","fixation","","html-keyboard-response","335","535168","0.0-344.0","0","0","8WXnd","People","","null","","","","null","","","","","","","","","","","","","","","","","","","","","","","","","","","","","","","","","","","","","","","","","","","",""
"","see_reward","","html-keyboard-response","336","535821","0.0-345.0","0","0","8WXnd","People","","650","","","","32","","7","","50","","","","1","","","","","3","","","","","145","650","","","","","","","","","","","","","","","","","","","","","","","","",""
"","reward_outcome","","html-keyboard-response","337","537833","0.0-346.0","0","0","8WXnd","People","","517","","","","38","","7","","50","","","","","","","","","","","","","","","","1","517","","","","","","","","","","","","","","","","","","","","","","",""
"","fixation","","html-keyboard-response","338","538849","0.0-349.0","0","0","8WXnd","People","","null","","","","null","","","","","","","","","","","","","","","","","","","","","","","","","","","","","","","","","","","","","","","","","","","",""
"","see_reward","","html-keyboard-response","339","539149","0.0-350.0","0","0","8WXnd","People","","297","","","","32","","6","","51","","","","1","","","","","3","","","","","152","297","","","","","","","","","","","","","","","","","","","","","","","","",""
"","reward_outcome","","html-keyboard-response","340","541170","0.0-351.0","0","0","8WXnd","People","","395","","","","38","","6","","51","","","","","","","","","","","","","","","","1","395","","","","","","","","","","","","","","","","","","","","","","",""
"","fixation","","html-keyboard-response","341","542191","0.0-354.0","0","0","8WXnd","People","","null","","","","null","","","","","","","","","","","","","","","","","","","","","","","","","","","","","","","","","","","","","","","","","","","",""
"","see_reward","","html-keyboard-response","342","542538","0.0-355.0","0","0","8WXnd","People","","344","","","","32","","31","","52","","","","1","","","","","3","","","","","159","344","","","","","","","","","","","","","","","","","","","","","","","","",""
"","reward_outcome","","html-keyboard-response","343","544548","0.0-356.0","0","0","8WXnd","People","","415","","","","38","","31","","52","","","","","","","","","","","","","","","","1","415","","","","","","","","","","","","","","","","","","","","","","",""
"","fixation","","html-keyboard-response","344","545572","0.0-359.0","0","0","8WXnd","People","","null","","","","null","","","","","","","","","","","","","","","","","","","","","","","","","","","","","","","","","","","","","","","","","","","",""
"","see_reward","","html-keyboard-response","345","545811","0.0-360.0","0","0","8WXnd","People","","237","","","","32","","14","","53","","","","-1","","","","","3","","","","","0","237","","","","","","","","","","","","","","","","","","","","","","","","",""
"","reward_outcome","","html-keyboard-response","346","547831","0.0-361.0","0","0","8WXnd","People","","399","","","","40","","14","","53","","","","","","","","","","","","","","","","-1","399","","","","","","","","","","","","","","","","","","","","","","",""
"","fixation","","html-keyboard-response","347","548852","0.0-364.0","0","0","8WXnd","People","","null","","","","null","","","","","","","","","","","","","","","","","","","","","","","","","","","","","","","","","","","","","","","","","","","",""
"","see_reward","","html-keyboard-response","348","549131","0.0-365.0","0","0","8WXnd","People","","277","","","","32","","31","","54","","","","1","","","","","3","","","","","159","277","","","","","","","","","","","","","","","","","","","","","","","","",""
"","reward_outcome","","html-keyboard-response","349","551143","0.0-366.0","0","0","8WXnd","People","","383","","","","38","","31","","54","","","","","","","","","","","","","","","","1","383","","","","","","","","","","","","","","","","","","","","","","",""
"","fixation","","html-keyboard-response","350","552157","0.0-369.0","0","0","8WXnd","People","","null","","","","null","","","","","","","","","","","","","","","","","","","","","","","","","","","","","","","","","","","","","","","","","","","",""
"","see_reward","","html-keyboard-response","351","552443","0.0-370.0","0","0","8WXnd","People","","283","","","","32","","38","","55","","","","1","","","","","3","","","","","150","283","","","","","","","","","","","","","","","","","","","","","","","","",""
