"success","ttype","start_time","trial_type","trial_index","time_elapsed","internal_node_id","warning","missed_checkup","PID","stim_type","view_history","rt","responses","category","repeat_instructions","key_press","response","stimulus_id","painting","index","stimulus_left","stimulus_right","explain_trial","reward_type","rating_left","rating_right","painting_left","painting_right","block","left_chosen","chosen_obj","unchosen_obj","explain_response","reward_amount","see_reward_rt","register_reward_response","register_reward_rt","deliberation_reward_tally","stimulus_left_deliberation_ind","stimulus_right_deliberation_ind","chosen_trial","gain_left","higher_outcome_chosen","old_pair","chosen_object","rt_pairs","left_object_chosen","rt_object","old_response","new_rating","deliberated_stim","initial_rating","outcome_eval_rt","outcome_eval_response","outcome_eval_gain","outcome_eval_acc","preamble","outcome_eval_confidence","outcome_eval_confidence_rt","total_reward_tally"
"true","full_screen","d01182023hr1904","fullscreen","0","18409","0.0-0.0","0","0","sNtxH","People","","","","","","","","","","","","","","","","","","","","","","","","","","","","","","","","","","","","","","","","","","","","","","","","","",""
"","rating_instructions","","instructions","1","58838","0.0-1.0-0.0","0","0","sNtxH","People","[{""page_index"":0,""viewing_time"":36813},{""page_index"":1,""viewing_time"":3611}]","40426","","","","","","","","","","","","","","","","","","","","","","","","","","","","","","","","","","","","","","","","","","","","","","","",""
"","","","survey-multi-choice","2","68552","0.0-1.0-1.0","0","0","sNtxH","People","","9705","{""Q0"":""True"",""Q1"":""Mouse""}","rating_comprehension_check","0","","","","","","","","","","","","","","","","","","","","","","","","","","","","","","","","","","","","","","","","","","","","",""
"","start_phase","","html-keyboard-response","3","263584","0.0-2.0","0","0","sNtxH","People","","195025","","","","78","","","","","","","","","","","","","","","","","","","","","","","","","","","","","","","","","","","","","","","","","","","",""
"","rating","","html-slider-response","4","272905","0.0-3.0","0","0","sNtxH","People","","9317","","","","","35","32","nathan-dumlao-ger61_TX6oI-unsplash.jpg","0","","","","","","","","","","","","","","","","","","","","","","","","","","","","","","","","","","","","","","","",""
"","rating","","html-slider-response","5","275961","0.0-4.0","0","0","sNtxH","People","","3049","","","","","68","26","juri-gianfrancesco-9EZadYaMzk4-unsplash.jpg","1","","","","","","","","","","","","","","","","","","","","","","","","","","","","","","","","","","","","","","","",""
"","rating","","html-slider-response","6","278905","0.0-5.0","0","0","sNtxH","People","","2941","","","","","76","48","velizar-ivanov-7ktP9yZA1g4-unsplash.jpg","2","","","","","","","","","","","","","","","","","","","","","","","","","","","","","","","","","","","","","","","",""
"","rating","","html-slider-response","7","282373","0.0-6.0","0","0","sNtxH","People","","3465","","","","","73","45","sarah-noltner-pL5ZzPp1zqg-unsplash.jpg","3","","","","","","","","","","","","","","","","","","","","","","","","","","","","","","","","","","","","","","","",""
"","rating","","html-slider-response","8","285813","0.0-7.0","0","0","sNtxH","People","","3435","","","","","85","28","justin-chen-J7Cf1Gch49E-unsplash.jpg","4","","","","","","","","","","","","","","","","","","","","","","","","","","","","","","","","","","","","","","","",""
"","rating","","html-slider-response","9","288019","0.0-8.0","0","0","sNtxH","People","","2203","","","","","64","24","joel-mott-LaK153ghdig-unsplash.jpg","5","","","","","","","","","","","","","","","","","","","","","","","","","","","","","","","","","","","","","","","",""
"","rating","","html-slider-response","10","288160","0.0-9.0","0","0","sNtxH","People","","137","","","","","50","10","charles-etoroma-95UF6LXe-Lo-unsplash.jpg","6","","","","","","","","","","","","","","","","","","","","","","","","","","","","","","","","","","","","","","","",""
"","rating","","html-slider-response","11","294008","0.0-10.0","0","0","sNtxH","People","","5845","","","","","69","17","gleb-lukomets-paBzWCPN23k-unsplash.jpg","7","","","","","","","","","","","","","","","","","","","","","","","","","","","","","","","","","","","","","","","",""
"","rating","","html-slider-response","12","297091","0.0-11.0","0","0","sNtxH","People","","3081","","","","","79","12","daniel-rigdon-dXmXKPP2L4E-unsplash.jpg","8","","","","","","","","","","","","","","","","","","","","","","","","","","","","","","","","","","","","","","","",""
"","rating","","html-slider-response","13","300342","0.0-12.0","0","0","sNtxH","People","","3247","","","","","84","40","prince-akachi-4Yv84VgQkRM-unsplash.jpg","9","","","","","","","","","","","","","","","","","","","","","","","","","","","","","","","","","","","","","","","",""
"","rating","","html-slider-response","14","312667","0.0-13.0","0","0","sNtxH","People","","12323","","","","","87","9","carlos-andres-gomez-vJuk8Y86mRw-unsplash.jpg","10","","","","","","","","","","","","","","","","","","","","","","","","","","","","","","","","","","","","","","","",""
"","rating","","html-slider-response","15","316230","0.0-14.0","0","0","sNtxH","People","","3560","","","","","78","20","houcine-ncib-B4TjXnI0Y2c-unsplash.jpg","11","","","","","","","","","","","","","","","","","","","","","","","","","","","","","","","","","","","","","","","",""
"","rating","","html-slider-response","16","319622","0.0-15.0","0","0","sNtxH","People","","3388","","","","","88","49","vicky-hladynets-_gDoyVv5F4c-unsplash.jpg","12","","","","","","","","","","","","","","","","","","","","","","","","","","","","","","","","","","","","","","","",""
"","rating","","html-slider-response","17","323005","0.0-16.0","0","0","sNtxH","People","","3378","","","","","64","11","christian-ferrer-8vT-DgHZDG4-unsplash.jpg","13","","","","","","","","","","","","","","","","","","","","","","","","","","","","","","","","","","","","","","","",""
"","rating","","html-slider-response","18","328018","0.0-17.0","0","0","sNtxH","People","","5010","","","","","89","2","arjunsyah-TBUA5KHJn6k-unsplash.jpg","14","","","","","","","","","","","","","","","","","","","","","","","","","","","","","","","","","","","","","","","",""
"","rating","","html-slider-response","19","331619","0.0-18.0","0","0","sNtxH","People","","3598","","","","","59","8","bruce-dixon-3M9WJQVHzog-unsplash.jpg","15","","","","","","","","","","","","","","","","","","","","","","","","","","","","","","","","","","","","","","","",""
"","rating","","html-slider-response","20","334696","0.0-19.0","0","0","sNtxH","People","","3073","","","","","62","41","prince-akachi-i2hoD-C2RUA-unsplash.jpg","16","","","","","","","","","","","","","","","","","","","","","","","","","","","","","","","","","","","","","","","",""
"","rating","","html-slider-response","21","342906","0.0-20.0","0","0","sNtxH","People","","8207","","","","","67","33","olena-sergienko-0TSd6uCKTKc-unsplash.jpg","17","","","","","","","","","","","","","","","","","","","","","","","","","","","","","","","","","","","","","","","",""
"","rating","","html-slider-response","22","347593","0.0-21.0","0","0","sNtxH","People","","4683","","","","","38","46","stefan-stefancik-QXevDflbl8A-unsplash.jpg","18","","","","","","","","","","","","","","","","","","","","","","","","","","","","","","","","","","","","","","","",""
"","rating","","html-slider-response","23","350183","0.0-22.0","0","0","sNtxH","People","","2588","","","","","36","15","gabriel-silverio-u3WmDyKGsrY-unsplash.jpg","19","","","","","","","","","","","","","","","","","","","","","","","","","","","","","","","","","","","","","","","",""
"","rating","","html-slider-response","24","354027","0.0-23.0","0","0","sNtxH","People","","3841","","","","","82","44","rikonavt-HQjfrvdTfak-unsplash.jpg","20","","","","","","","","","","","","","","","","","","","","","","","","","","","","","","","","","","","","","","","",""
"","rating","","html-slider-response","25","356451","0.0-24.0","0","0","sNtxH","People","","2421","","","","","66","34","oliver-johnson-1TUIcKob7Zs-unsplash.jpg","21","","","","","","","","","","","","","","","","","","","","","","","","","","","","","","","","","","","","","","","",""
"","rating","","html-slider-response","26","362505","0.0-25.0","0","0","sNtxH","People","","6049","","","","","32","36","ospan-ali-mGdA2fzjWLo-unsplash.jpg","22","","","","","","","","","","","","","","","","","","","","","","","","","","","","","","","","","","","","","","","",""
"","rating","","html-slider-response","27","368255","0.0-26.0","0","0","sNtxH","People","","5746","","","","","30","35","oliver-ragfelt-khV4fTy6-D8-unsplash.jpg","23","","","","","","","","","","","","","","","","","","","","","","","","","","","","","","","","","","","","","","","",""
"","rating","","html-slider-response","28","371339","0.0-27.0","0","0","sNtxH","People","","3082","","","","","57","42","prince-akachi-l3IHXOdMyHQ-unsplash.jpg","24","","","","","","","","","","","","","","","","","","","","","","","","","","","","","","","","","","","","","","","",""
"","rating","","html-slider-response","29","375830","0.0-28.0","0","0","sNtxH","People","","4487","","","","","70","29","leilani-angel-K84vnnzxmTQ-unsplash.jpg","25","","","","","","","","","","","","","","","","","","","","","","","","","","","","","","","","","","","","","","","",""
"","rating","","html-slider-response","30","379083","0.0-29.0","0","0","sNtxH","People","","3250","","","","","65","1","aiony-haust-jmATI5Q_YgY-unsplash.jpg","26","","","","","","","","","","","","","","","","","","","","","","","","","","","","","","","","","","","","","","","",""
"","rating","","html-slider-response","31","382202","0.0-30.0","0","0","sNtxH","People","","3116","","","","","76","21","jessica-felicio-_cvwXhGqG-o-unsplash.jpg","27","","","","","","","","","","","","","","","","","","","","","","","","","","","","","","","","","","","","","","","",""
"","rating","","html-slider-response","32","386832","0.0-31.0","0","0","sNtxH","People","","4626","","","","","66","43","raamin-ka-0qJBEzudn5E-unsplash.jpg","28","","","","","","","","","","","","","","","","","","","","","","","","","","","","","","","","","","","","","","","",""
"","rating","","html-slider-response","33","392333","0.0-32.0","0","0","sNtxH","People","","5498","","","","","95","31","mathilda-khoo-vLR0YP_otCo-unsplash.jpg","29","","","","","","","","","","","","","","","","","","","","","","","","","","","","","","","","","","","","","","","",""
"","rating","","html-slider-response","34","407843","0.0-33.0","0","0","sNtxH","People","","15507","","","","","67","22","jessica-radanavong-mrYkTuAesKE-unsplash.jpg","30","","","","","","","","","","","","","","","","","","","","","","","","","","","","","","","","","","","","","","","",""
"","rating","","html-slider-response","35","411772","0.0-34.0","0","0","sNtxH","People","","3925","","","","","96","25","joseph-gonzalez-iFgRcqHznqg-unsplash.jpg","31","","","","","","","","","","","","","","","","","","","","","","","","","","","","","","","","","","","","","","","",""
"","rating","","html-slider-response","36","415421","0.0-35.0","0","0","sNtxH","People","","3644","","","","","98","30","matheus-ferrero-pg_WCHWSdT8-unsplash.jpg","32","","","","","","","","","","","","","","","","","","","","","","","","","","","","","","","","","","","","","","","",""
"","rating","","html-slider-response","37","418882","0.0-36.0","0","0","sNtxH","People","","3457","","","","","100","6","ben-o-bro-C5XyLljkMrY-unsplash.jpg","33","","","","","","","","","","","","","","","","","","","","","","","","","","","","","","","","","","","","","","","",""
"","rating","","html-slider-response","38","421780","0.0-37.0","0","0","sNtxH","People","","2895","","","","","65","16","giano-currie-5-9YOsmf8IQ-unsplash.jpg","34","","","","","","","","","","","","","","","","","","","","","","","","","","","","","","","","","","","","","","","",""
"","rating","","html-slider-response","39","424698","0.0-38.0","0","0","sNtxH","People","","2915","","","","","70","5","batel-studio-ttSRjiYG_WM-unsplash.jpg","35","","","","","","","","","","","","","","","","","","","","","","","","","","","","","","","","","","","","","","","",""
"","rating","","html-slider-response","40","428868","0.0-39.0","0","0","sNtxH","People","","4167","","","","","28","37","pavel-anoshin-d0peGya6R5Y-unsplash.jpg","36","","","","","","","","","","","","","","","","","","","","","","","","","","","","","","","","","","","","","","","",""
"","rating","","html-slider-response","41","432183","0.0-40.0","0","0","sNtxH","People","","3313","","","","","84","7","brooke-cagle-HRZUzoX1e6w-unsplash.jpg","37","","","","","","","","","","","","","","","","","","","","","","","","","","","","","","","","","","","","","","","",""
"","rating","","html-slider-response","42","435431","0.0-41.0","0","0","sNtxH","People","","3245","","","","","93","14","freddy-kearney-o-ioeoATbIM-unsplash.jpg","38","","","","","","","","","","","","","","","","","","","","","","","","","","","","","","","","","","","","","","","",""
"","rating","","html-slider-response","43","440467","0.0-42.0","0","0","sNtxH","People","","5032","","","","","11","0","abstral-official-cyOKLSgkgCE-unsplash.jpg","39","","","","","","","","","","","","","","","","","","","","","","","","","","","","","","","","","","","","","","","",""
"","rating","","html-slider-response","44","443272","0.0-43.0","0","0","sNtxH","People","","2802","","","","","20","23","joanna-nix-walkup-H4fEMshfwTE-unsplash.jpg","40","","","","","","","","","","","","","","","","","","","","","","","","","","","","","","","","","","","","","","","",""
"","rating","","html-slider-response","45","447228","0.0-44.0","0","0","sNtxH","People","","3953","","","","","40","38","petr-sevcovic-HzDF-rxlSeM-unsplash.jpg","41","","","","","","","","","","","","","","","","","","","","","","","","","","","","","","","","","","","","","","","",""
"","rating","","html-slider-response","46","449874","0.0-45.0","0","0","sNtxH","People","","2642","","","","","28","13","erik-lucatero-d2MSDujJl2g-unsplash.jpg","42","","","","","","","","","","","","","","","","","","","","","","","","","","","","","","","","","","","","","","","",""
"","rating","","html-slider-response","47","454864","0.0-46.0","0","0","sNtxH","People","","4987","","","","","27","47","tyler-nix-ZGa9d1a_4tA-unsplash.jpg","43","","","","","","","","","","","","","","","","","","","","","","","","","","","","","","","","","","","","","","","",""
"","rating","","html-slider-response","48","458285","0.0-47.0","0","0","sNtxH","People","","3418","","","","","60","19","ha-nguy-n-OFSQ6bHjFjs-unsplash.jpg","44","","","","","","","","","","","","","","","","","","","","","","","","","","","","","","","","","","","","","","","",""
"","rating","","html-slider-response","49","461613","0.0-48.0","0","0","sNtxH","People","","3324","","","","","85","3","art-hauntington-jzY0KRJopEI-unsplash.jpg","45","","","","","","","","","","","","","","","","","","","","","","","","","","","","","","","","","","","","","","","",""
"","rating","","html-slider-response","50","466278","0.0-49.0","0","0","sNtxH","People","","4662","","","","","62","39","philip-martin-5aGUyCW_PJw-unsplash.jpg","46","","","","","","","","","","","","","","","","","","","","","","","","","","","","","","","","","","","","","","","",""
"","rating","","html-slider-response","51","469792","0.0-50.0","0","0","sNtxH","People","","3511","","","","","82","18","good-faces-xmSWVeGEnJw-unsplash.jpg","47","","","","","","","","","","","","","","","","","","","","","","","","","","","","","","","","","","","","","","","",""
"","rating","","html-slider-response","52","474410","0.0-51.0","0","0","sNtxH","People","","4615","","","","","39","4","barna-bartis-2x3vfVxwR7o-unsplash.jpg","48","","","","","","","","","","","","","","","","","","","","","","","","","","","","","","","","","","","","","","","",""
"","rating","","html-slider-response","53","477981","0.0-52.0","0","0","sNtxH","People","","3569","","","","","94","27","jurica-koletic-7YVZYZeITc8-unsplash.jpg","49","","","","","","","","","","","","","","","","","","","","","","","","","","","","","","","","","","","","","","","",""
"","deliberation_instructions","","instructions","54","646911","0.0-53.0-0.0","0","0","sNtxH","People","[{""page_index"":0,""viewing_time"":40613},{""page_index"":1,""viewing_time"":21359},{""page_index"":2,""viewing_time"":17716},{""page_index"":3,""viewing_time"":85403},{""page_index"":4,""viewing_time"":3832}]","168924","","","","","","","","","","","","","","","","","","","","","","","","","","","","","","","","","","","","","","","","","","","","","","","",""
"","","","survey-multi-choice","55","684406","0.0-53.0-1.0","0","0","sNtxH","People","","37484","{""Q0"":""True"",""Q1"":"""",""Q2"":"""",""Q3"":""True"",""Q4"":""D""}","deliberation_comprehension_check","1","","","","","","","","","","","","","","","","","","","","","","","","","","","","","","","","","","","","","","","","","","","","",""
"","missed_instruction_checkup","","html-keyboard-response","56","688494","0.0-53.0-2.0-0.0","0","1","sNtxH","People","","4083","","","","78","","","","","","","","","","","","","","","","","","","","","","","","","","","","","","","","","","","","","","","","","","","",""
"","deliberation_instructions","","instructions","57","702859","0.0-53.1-0.1","0","0","sNtxH","People","[{""page_index"":0,""viewing_time"":2970},{""page_index"":1,""viewing_time"":1269},{""page_index"":2,""viewing_time"":4289},{""page_index"":3,""viewing_time"":4692},{""page_index"":4,""viewing_time"":1143}]","14363","","","","","","","","","","","","","","","","","","","","","","","","","","","","","","","","","","","","","","","","","","","","","","","",""
"","","","survey-multi-choice","58","732075","0.0-53.1-1.1","0","0","sNtxH","People","","29200","{""Q0"":""True"",""Q1"":""True"",""Q2"":""Consider carefully and take your time (up to 10 seconds)"",""Q3"":""True"",""Q4"":""D""}","deliberation_comprehension_check","0","","","","","","","","","","","","","","","","","","","","","","","","","","","","","","","","","","","","","","","","","","","","",""
"","start_phase","","html-keyboard-response","59","744576","0.0-54.0","0","0","sNtxH","People","","12498","","","","78","","","","","","","","","","","","","","","","","","","","","","","","","","","","","","","","","","","","","","","","","","","",""
"","first_deliberation_block","","html-keyboard-response","60","747267","0.0-55.0","0","0","sNtxH","People","","2689","","","","78","","","","","","","","","","","","","","","","","","","","","","","","","","","","","","","","","","","","","","","","","","","",""
"","fixation","","html-keyboard-response","61","748288","0.0-56.0-0.0","0","0","sNtxH","People","","null","","","","null","","","","","","","","","","","","","","","","","","","","","","","","","","","","","","","","","","","","","","","","","","","",""
"","deliberation","","html-keyboard-response","62","751516","0.0-56.0-1.0","0","0","sNtxH","People","","3225","","","","68","","","","0","5","12","0","-1","70","79","batel-studio-ttSRjiYG_WM-unsplash.jpg","daniel-rigdon-dXmXKPP2L4E-unsplash.jpg","1","1","5","12","","","","","","","","","","","","","","","","","","","","","","","","","","","",""
"","choice_confirmation","","html-keyboard-response","63","752028","0.0-56.0-2.0-0.0","0","0","sNtxH","People","","null","","","","null","","","","0","5","12","","","","","","","","","","","","","","","","","","","","","","","","","","","","","","","","","","","","","",""
"","fixation","","html-keyboard-response","64","753037","0.0-57.0-0.0","0","0","sNtxH","People","","null","","","","null","","","","","","","","","","","","","","","","","","","","","","","","","","","","","","","","","","","","","","","","","","","",""
"","deliberation","","html-keyboard-response","65","755650","0.0-57.0-1.0","0","0","sNtxH","People","","2610","","","","75","","","","1","42","41","1","-1","57","62","prince-akachi-l3IHXOdMyHQ-unsplash.jpg","prince-akachi-i2hoD-C2RUA-unsplash.jpg","1","0","41","42","","","","","","","","","","","","","","","","","","","","","","","","","","","",""
"","choice_confirmation","","html-keyboard-response","66","756153","0.0-57.0-2.0-0.0","0","0","sNtxH","People","","null","","","","null","","","","1","42","41","","","","","","","","","","","","","","","","","","","","","","","","","","","","","","","","","","","","","",""
"","explain_trial","","survey-text","67","775224","0.0-57.0-5.0-0.0","0","0","sNtxH","People","","19067","{""Q0"":""I like the bright colors on her scarf.""}","","","","","","","1","42","41","","","","","","","","","","","{""Q0"":""I like the bright colors on her scarf.""}","","","","","","","","","","","","","","","","","","","","","","","","","","",""
"","fixation","","html-keyboard-response","68","776237","0.0-58.0-0.0","0","0","sNtxH","People","","null","","","","null","","","","","","","","","","","","","","","","","","","","","","","","","","","","","","","","","","","","","","","","","","","",""
"","deliberation","","html-keyboard-response","69","779130","0.0-58.0-1.0","0","0","sNtxH","People","","2891","","","","68","","","","2","48","17","0","-1","76","69","velizar-ivanov-7ktP9yZA1g4-unsplash.jpg","gleb-lukomets-paBzWCPN23k-unsplash.jpg","1","1","48","17","","","","","","","","","","","","","","","","","","","","","","","","","","","",""
"","choice_confirmation","","html-keyboard-response","70","779644","0.0-58.0-2.0-0.0","0","0","sNtxH","People","","null","","","","null","","","","2","48","17","","","","","","","","","","","","","","","","","","","","","","","","","","","","","","","","","","","","","",""
"","fixation","","html-keyboard-response","71","781309","0.0-59.0-0.0","0","0","sNtxH","People","","null","","","","null","","","","","","","","","","","","","","","","","","","","","","","","","","","","","","","","","","","","","","","","","","","",""
"","deliberation","","html-keyboard-response","72","786855","0.0-59.0-1.0","0","0","sNtxH","People","","5543","","","","75","","","","3","22","19","1","1","67","60","jessica-radanavong-mrYkTuAesKE-unsplash.jpg","ha-nguy-n-OFSQ6bHjFjs-unsplash.jpg","1","0","19","22","","","","","","","","","","","","","","","","","","","","","","","","","","","",""
"","choice_confirmation","","html-keyboard-response","73","787368","0.0-59.0-2.0-0.0","0","0","sNtxH","People","","null","","","","null","","","","3","22","19","","","","","","","","","","","","","","","","","","","","","","","","","","","","","","","","","","","","","",""
"","explain_trial","","survey-text","74","804165","0.0-59.0-5.0-0.0","0","0","sNtxH","People","","16794","{""Q0"":""Very expressive photo.""}","","","","","","","3","22","19","","","","","","","","","","","{""Q0"":""Very expressive photo.""}","","","","","","","","","","","","","","","","","","","","","","","","","","",""
"","fixation","","html-keyboard-response","75","805307","0.0-60.0-0.0","0","0","sNtxH","People","","null","","","","null","","","","","","","","","","","","","","","","","","","","","","","","","","","","","","","","","","","","","","","","","","","",""
"","deliberation","","html-keyboard-response","76","808653","0.0-60.0-1.0","0","0","sNtxH","People","","3344","","","","68","","","","4","11","24","0","-1","64","64","christian-ferrer-8vT-DgHZDG4-unsplash.jpg","joel-mott-LaK153ghdig-unsplash.jpg","1","1","11","24","","","","","","","","","","","","","","","","","","","","","","","","","","","",""
"","choice_confirmation","","html-keyboard-response","77","809160","0.0-60.0-2.0-0.0","0","0","sNtxH","People","","null","","","","null","","","","4","11","24","","","","","","","","","","","","","","","","","","","","","","","","","","","","","","","","","","","","","",""
"","fixation","","html-keyboard-response","78","810169","0.0-61.0-0.0","0","0","sNtxH","People","","null","","","","null","","","","","","","","","","","","","","","","","","","","","","","","","","","","","","","","","","","","","","","","","","","",""
"","deliberation","","html-keyboard-response","79","812090","0.0-61.0-1.0","0","0","sNtxH","People","","1917","","","","68","","","","5","18","45","1","1","82","73","good-faces-xmSWVeGEnJw-unsplash.jpg","sarah-noltner-pL5ZzPp1zqg-unsplash.jpg","1","1","18","45","","","","","","","","","","","","","","","","","","","","","","","","","","","",""
"","choice_confirmation","","html-keyboard-response","80","812601","0.0-61.0-2.0-0.0","0","0","sNtxH","People","","null","","","","null","","","","5","18","45","","","","","","","","","","","","","","","","","","","","","","","","","","","","","","","","","","","","","",""
"","explain_trial","","survey-text","81","839457","0.0-61.0-5.0-0.0","0","0","sNtxH","People","","26853","{""Q0"":""This photo is mysterious.""}","","","","","","","5","18","45","","","","","","","","","","","{""Q0"":""This photo is mysterious.""}","","","","","","","","","","","","","","","","","","","","","","","","","","",""
"","fixation","","html-keyboard-response","82","841298","0.0-62.0-0.0","0","0","sNtxH","People","","null","","","","null","","","","","","","","","","","","","","","","","","","","","","","","","","","","","","","","","","","","","","","","","","","",""
"","deliberation","","html-keyboard-response","83","844343","0.0-62.0-1.0","0","0","sNtxH","People","","3042","","","","68","","","","6","44","26","1","1","82","68","rikonavt-HQjfrvdTfak-unsplash.jpg","juri-gianfrancesco-9EZadYaMzk4-unsplash.jpg","1","1","44","26","","","","","","","","","","","","","","","","","","","","","","","","","","","",""
"","choice_confirmation","","html-keyboard-response","84","844858","0.0-62.0-2.0-0.0","0","0","sNtxH","People","","null","","","","null","","","","6","44","26","","","","","","","","","","","","","","","","","","","","","","","","","","","","","","","","","","","","","",""
"","explain_trial","","survey-text","85","878386","0.0-62.0-5.0-0.0","0","0","sNtxH","People","","33524","{""Q0"":""The hat and face are a perfect match and gives the photo great synergy.""}","","","","","","","6","44","26","","","","","","","","","","","{""Q0"":""The hat and face are a perfect match and gives the photo great synergy.""}","","","","","","","","","","","","","","","","","","","","","","","","","","",""
"","fixation","","html-keyboard-response","86","879398","0.0-63.0-0.0","0","0","sNtxH","People","","null","","","","null","","","","","","","","","","","","","","","","","","","","","","","","","","","","","","","","","","","","","","","","","","","",""
"","deliberation","","html-keyboard-response","87","882894","0.0-63.0-1.0","0","0","sNtxH","People","","3492","","","","68","","","","7","43","34","1","1","66","66","raamin-ka-0qJBEzudn5E-unsplash.jpg","oliver-johnson-1TUIcKob7Zs-unsplash.jpg","1","1","43","34","","","","","","","","","","","","","","","","","","","","","","","","","","","",""
"","choice_confirmation","","html-keyboard-response","88","883406","0.0-63.0-2.0-0.0","0","0","sNtxH","People","","null","","","","null","","","","7","43","34","","","","","","","","","","","","","","","","","","","","","","","","","","","","","","","","","","","","","",""
"","explain_trial","","survey-text","89","905669","0.0-63.0-5.0-0.0","0","0","sNtxH","People","","22259","{""Q0"":""Clarity and beautiful shot taken.""}","","","","","","","7","43","34","","","","","","","","","","","{""Q0"":""Clarity and beautiful shot taken.""}","","","","","","","","","","","","","","","","","","","","","","","","","","",""
"","fixation","","html-keyboard-response","90","907316","0.0-64.0-0.0","0","0","sNtxH","People","","null","","","","null","","","","","","","","","","","","","","","","","","","","","","","","","","","","","","","","","","","","","","","","","","","",""
"","deliberation","","html-keyboard-response","91","910653","0.0-64.0-1.0","0","0","sNtxH","People","","3333","","","","75","","","","8","29","39","0","1","70","62","leilani-angel-K84vnnzxmTQ-unsplash.jpg","philip-martin-5aGUyCW_PJw-unsplash.jpg","1","0","39","29","","","","","","","","","","","","","","","","","","","","","","","","","","","",""
"","choice_confirmation","","html-keyboard-response","92","911167","0.0-64.0-2.0-0.0","0","0","sNtxH","People","","null","","","","null","","","","8","29","39","","","","","","","","","","","","","","","","","","","","","","","","","","","","","","","","","","","","","",""
"","fixation","","html-keyboard-response","93","912188","0.0-65.0-0.0","0","0","sNtxH","People","","null","","","","null","","","","","","","","","","","","","","","","","","","","","","","","","","","","","","","","","","","","","","","","","","","",""
"","deliberation","","html-keyboard-response","94","914195","0.0-65.0-1.0","0","0","sNtxH","People","","2003","","","","68","","","","9","1","20","0","-1","65","78","aiony-haust-jmATI5Q_YgY-unsplash.jpg","houcine-ncib-B4TjXnI0Y2c-unsplash.jpg","1","1","1","20","","","","","","","","","","","","","","","","","","","","","","","","","","","",""
"","choice_confirmation","","html-keyboard-response","95","914706","0.0-65.0-2.0-0.0","0","0","sNtxH","People","","null","","","","null","","","","9","1","20","","","","","","","","","","","","","","","","","","","","","","","","","","","","","","","","","","","","","",""
"","fixation","","html-keyboard-response","96","916301","0.0-66.0-0.0","0","0","sNtxH","People","","null","","","","null","","","","","","","","","","","","","","","","","","","","","","","","","","","","","","","","","","","","","","","","","","","",""
"","deliberation","","html-keyboard-response","97","918362","0.0-66.0-1.0","0","0","sNtxH","People","","2058","","","","68","","","","10","16","33","1","1","65","67","giano-currie-5-9YOsmf8IQ-unsplash.jpg","olena-sergienko-0TSd6uCKTKc-unsplash.jpg","1","1","16","33","","","","","","","","","","","","","","","","","","","","","","","","","","","",""
"","choice_confirmation","","html-keyboard-response","98","918867","0.0-66.0-2.0-0.0","0","0","sNtxH","People","","null","","","","null","","","","10","16","33","","","","","","","","","","","","","","","","","","","","","","","","","","","","","","","","","","","","","",""
"","explain_trial","","survey-text","99","938695","0.0-66.0-5.0-0.0","0","0","sNtxH","People","","19826","{""Q0"":""Love the background. It goes very well with her expression.""}","","","","","","","10","16","33","","","","","","","","","","","{""Q0"":""Love the background. It goes very well with her expression.""}","","","","","","","","","","","","","","","","","","","","","","","","","","",""
"","fixation","","html-keyboard-response","100","939714","0.0-67.0-0.0","0","0","sNtxH","People","","null","","","","null","","","","","","","","","","","","","","","","","","","","","","","","","","","","","","","","","","","","","","","","","","","",""
"","deliberation","","html-keyboard-response","101","942249","0.0-67.0-1.0","0","0","sNtxH","People","","2532","","","","75","","","","11","21","8","0","-1","76","59","jessica-felicio-_cvwXhGqG-o-unsplash.jpg","bruce-dixon-3M9WJQVHzog-unsplash.jpg","1","0","8","21","","","","","","","","","","","","","","","","","","","","","","","","","","","",""
"","choice_confirmation","","html-keyboard-response","102","942756","0.0-67.0-2.0-0.0","0","0","sNtxH","People","","null","","","","null","","","","11","21","8","","","","","","","","","","","","","","","","","","","","","","","","","","","","","","","","","","","","","",""
"","practice_deliberation_again","","html-keyboard-response","103","947732","0.0-67.0-6.0-0.0","0","0","sNtxH","People","","4974","","","","78","","","","","","","","","","","","","","","","","","","","","","","","","","","","","","","","","","","","","","","","","","","",""
"","fixation","","html-keyboard-response","104","948740","0.0-68.0-0.0","0","0","sNtxH","People","","null","","","","null","","","","","","","","","","","","","","","","","","","","","","","","","","","","","","","","","","","","","","","","","","","",""
"","deliberation","","html-keyboard-response","105","953339","0.0-68.0-1.0","0","0","sNtxH","People","","4596","","","","68","","","","12","18","45","0","1","82","73","good-faces-xmSWVeGEnJw-unsplash.jpg","sarah-noltner-pL5ZzPp1zqg-unsplash.jpg","2","1","18","45","","","","","","","","","","","","","","","","","","","","","","","","","","","",""
"","choice_confirmation","","html-keyboard-response","106","953845","0.0-68.0-2.0-0.0","0","0","sNtxH","People","","null","","","","null","","","","12","18","45","","","","","","","","","","","","","","","","","","","","","","","","","","","","","","","","","","","","","",""
"","fixation","","html-keyboard-response","107","954862","0.0-69.0-0.0","0","0","sNtxH","People","","null","","","","null","","","","","","","","","","","","","","","","","","","","","","","","","","","","","","","","","","","","","","","","","","","",""
"","deliberation","","html-keyboard-response","108","956082","0.0-69.0-1.0","0","0","sNtxH","People","","1217","","","","75","","","","13","42","41","0","-1","57","62","prince-akachi-l3IHXOdMyHQ-unsplash.jpg","prince-akachi-i2hoD-C2RUA-unsplash.jpg","2","0","41","42","","","","","","","","","","","","","","","","","","","","","","","","","","","",""
"","choice_confirmation","","html-keyboard-response","109","956592","0.0-69.0-2.0-0.0","0","0","sNtxH","People","","null","","","","null","","","","13","42","41","","","","","","","","","","","","","","","","","","","","","","","","","","","","","","","","","","","","","",""
"","fixation","","html-keyboard-response","110","957610","0.0-70.0-0.0","0","0","sNtxH","People","","null","","","","null","","","","","","","","","","","","","","","","","","","","","","","","","","","","","","","","","","","","","","","","","","","",""
"","deliberation","","html-keyboard-response","111","958962","0.0-70.0-1.0","0","0","sNtxH","People","","1350","","","","68","","","","14","1","20","1","-1","65","78","aiony-haust-jmATI5Q_YgY-unsplash.jpg","houcine-ncib-B4TjXnI0Y2c-unsplash.jpg","2","1","1","20","","","","","","","","","","","","","","","","","","","","","","","","","","","",""
"","choice_confirmation","","html-keyboard-response","112","959476","0.0-70.0-2.0-0.0","0","0","sNtxH","People","","null","","","","null","","","","14","1","20","","","","","","","","","","","","","","","","","","","","","","","","","","","","","","","","","","","","","",""
"","explain_trial","","survey-text","113","978867","0.0-70.0-5.0-0.0","0","0","sNtxH","People","","19388","{""Q0"":""Very good make up and nice pose.""}","","","","","","","14","1","20","","","","","","","","","","","{""Q0"":""Very good make up and nice pose.""}","","","","","","","","","","","","","","","","","","","","","","","","","","",""
"","fixation","","html-keyboard-response","114","979879","0.0-71.0-0.0","0","0","sNtxH","People","","null","","","","null","","","","","","","","","","","","","","","","","","","","","","","","","","","","","","","","","","","","","","","","","","","",""
"","deliberation","","html-keyboard-response","115","982628","0.0-71.0-1.0","0","0","sNtxH","People","","2747","","","","75","","","","15","29","39","1","1","70","62","leilani-angel-K84vnnzxmTQ-unsplash.jpg","philip-martin-5aGUyCW_PJw-unsplash.jpg","2","0","39","29","","","","","","","","","","","","","","","","","","","","","","","","","","","",""
"","choice_confirmation","","html-keyboard-response","116","983149","0.0-71.0-2.0-0.0","0","0","sNtxH","People","","null","","","","null","","","","15","29","39","","","","","","","","","","","","","","","","","","","","","","","","","","","","","","","","","","","","","",""
"","explain_trial","","survey-text","117","1013614","0.0-71.0-5.0-0.0","0","0","sNtxH","People","","30462","{""Q0"":""Natural and his expression is worth alot.""}","","","","","","","15","29","39","","","","","","","","","","","{""Q0"":""Natural and his expression is worth alot.""}","","","","","","","","","","","","","","","","","","","","","","","","","","",""
"","fixation","","html-keyboard-response","118","1014627","0.0-72.0-0.0","0","0","sNtxH","People","","null","","","","null","","","","","","","","","","","","","","","","","","","","","","","","","","","","","","","","","","","","","","","","","","","",""
"","deliberation","","html-keyboard-response","119","1019218","0.0-72.0-1.0","0","0","sNtxH","People","","4587","","","","75","","","","16","22","19","0","1","67","60","jessica-radanavong-mrYkTuAesKE-unsplash.jpg","ha-nguy-n-OFSQ6bHjFjs-unsplash.jpg","2","0","19","22","","","","","","","","","","","","","","","","","","","","","","","","","","","",""
"","choice_confirmation","","html-keyboard-response","120","1019733","0.0-72.0-2.0-0.0","0","0","sNtxH","People","","null","","","","null","","","","16","22","19","","","","","","","","","","","","","","","","","","","","","","","","","","","","","","","","","","","","","",""
"","fixation","","html-keyboard-response","121","1020749","0.0-73.0-0.0","0","0","sNtxH","People","","null","","","","null","","","","","","","","","","","","","","","","","","","","","","","","","","","","","","","","","","","","","","","","","","","",""
"","deliberation","","html-keyboard-response","122","1021901","0.0-73.0-1.0","0","0","sNtxH","People","","1149","","","","68","","","","17","43","34","0","1","66","66","raamin-ka-0qJBEzudn5E-unsplash.jpg","oliver-johnson-1TUIcKob7Zs-unsplash.jpg","2","1","43","34","","","","","","","","","","","","","","","","","","","","","","","","","","","",""
"","choice_confirmation","","html-keyboard-response","123","1022408","0.0-73.0-2.0-0.0","0","0","sNtxH","People","","null","","","","null","","","","17","43","34","","","","","","","","","","","","","","","","","","","","","","","","","","","","","","","","","","","","","",""
"","fixation","","html-keyboard-response","124","1023416","0.0-74.0-0.0","0","0","sNtxH","People","","null","","","","null","","","","","","","","","","","","","","","","","","","","","","","","","","","","","","","","","","","","","","","","","","","",""
"","deliberation","","html-keyboard-response","125","1024920","0.0-74.0-1.0","0","0","sNtxH","People","","1502","","","","68","","","","18","11","24","1","-1","64","64","christian-ferrer-8vT-DgHZDG4-unsplash.jpg","joel-mott-LaK153ghdig-unsplash.jpg","2","1","11","24","","","","","","","","","","","","","","","","","","","","","","","","","","","",""
"","choice_confirmation","","html-keyboard-response","126","1025428","0.0-74.0-2.0-0.0","0","0","sNtxH","People","","null","","","","null","","","","18","11","24","","","","","","","","","","","","","","","","","","","","","","","","","","","","","","","","","","","","","",""
"","explain_trial","","survey-text","127","1057493","0.0-74.0-5.0-0.0","0","0","sNtxH","People","","32061","{""Q0"":""The background and clothing colors make this a piece of art.""}","","","","","","","18","11","24","","","","","","","","","","","{""Q0"":""The background and clothing colors make this a piece of art.""}","","","","","","","","","","","","","","","","","","","","","","","","","","",""
"","fixation","","html-keyboard-response","128","1058498","0.0-75.0-0.0","0","0","sNtxH","People","","null","","","","null","","","","","","","","","","","","","","","","","","","","","","","","","","","","","","","","","","","","","","","","","","","",""
"","deliberation","","html-keyboard-response","129","1062352","0.0-75.0-1.0","0","0","sNtxH","People","","3850","","","","75","","","","19","21","8","1","-1","76","59","jessica-felicio-_cvwXhGqG-o-unsplash.jpg","bruce-dixon-3M9WJQVHzog-unsplash.jpg","2","0","8","21","","","","","","","","","","","","","","","","","","","","","","","","","","","",""
"","choice_confirmation","","html-keyboard-response","130","1062872","0.0-75.0-2.0-0.0","0","0","sNtxH","People","","null","","","","null","","","","19","21","8","","","","","","","","","","","","","","","","","","","","","","","","","","","","","","","","","","","","","",""
"","explain_trial","","survey-text","131","1084086","0.0-75.0-5.0-0.0","0","0","sNtxH","People","","21210","{""Q0"":""Very expressive and original pose.""}","","","","","","","19","21","8","","","","","","","","","","","{""Q0"":""Very expressive and original pose.""}","","","","","","","","","","","","","","","","","","","","","","","","","","",""
"","fixation","","html-keyboard-response","132","1085120","0.0-76.0-0.0","0","0","sNtxH","People","","null","","","","null","","","","","","","","","","","","","","","","","","","","","","","","","","","","","","","","","","","","","","","","","","","",""
"","deliberation","","html-keyboard-response","133","1087683","0.0-76.0-1.0","0","0","sNtxH","People","","2561","","","","68","","","","20","5","12","1","-1","70","79","batel-studio-ttSRjiYG_WM-unsplash.jpg","daniel-rigdon-dXmXKPP2L4E-unsplash.jpg","2","1","5","12","","","","","","","","","","","","","","","","","","","","","","","","","","","",""
"","choice_confirmation","","html-keyboard-response","134","1088198","0.0-76.0-2.0-0.0","0","0","sNtxH","People","","null","","","","null","","","","20","5","12","","","","","","","","","","","","","","","","","","","","","","","","","","","","","","","","","","","","","",""
"","explain_trial","","survey-text","135","1103408","0.0-76.0-5.0-0.0","0","0","sNtxH","People","","15208","{""Q0"":""So authentic and the expression is priceless.""}","","","","","","","20","5","12","","","","","","","","","","","{""Q0"":""So authentic and the expression is priceless.""}","","","","","","","","","","","","","","","","","","","","","","","","","","",""
"","fixation","","html-keyboard-response","136","1104419","0.0-77.0-0.0","0","0","sNtxH","People","","null","","","","null","","","","","","","","","","","","","","","","","","","","","","","","","","","","","","","","","","","","","","","","","","","",""
"","deliberation","","html-keyboard-response","137","1107239","0.0-77.0-1.0","0","0","sNtxH","People","","2816","","","","75","","","","21","48","17","1","-1","76","69","velizar-ivanov-7ktP9yZA1g4-unsplash.jpg","gleb-lukomets-paBzWCPN23k-unsplash.jpg","2","0","17","48","","","","","","","","","","","","","","","","","","","","","","","","","","","",""
"","choice_confirmation","","html-keyboard-response","138","1107745","0.0-77.0-2.0-0.0","0","0","sNtxH","People","","null","","","","null","","","","21","48","17","","","","","","","","","","","","","","","","","","","","","","","","","","","","","","","","","","","","","",""
"","explain_trial","","survey-text","139","1123085","0.0-77.0-5.0-0.0","0","0","sNtxH","People","","15337","{""Q0"":""Reminds me of a painting.""}","","","","","","","21","48","17","","","","","","","","","","","{""Q0"":""Reminds me of a painting.""}","","","","","","","","","","","","","","","","","","","","","","","","","","",""
"","fixation","","html-keyboard-response","140","1124108","0.0-78.0-0.0","0","0","sNtxH","People","","null","","","","null","","","","","","","","","","","","","","","","","","","","","","","","","","","","","","","","","","","","","","","","","","","",""
"","deliberation","","html-keyboard-response","141","1125602","0.0-78.0-1.0","0","0","sNtxH","People","","1490","","","","68","","","","22","44","26","0","1","82","68","rikonavt-HQjfrvdTfak-unsplash.jpg","juri-gianfrancesco-9EZadYaMzk4-unsplash.jpg","2","1","44","26","","","","","","","","","","","","","","","","","","","","","","","","","","","",""
"","choice_confirmation","","html-keyboard-response","142","1126112","0.0-78.0-2.0-0.0","0","0","sNtxH","People","","null","","","","null","","","","22","44","26","","","","","","","","","","","","","","","","","","","","","","","","","","","","","","","","","","","","","",""
"","fixation","","html-keyboard-response","143","1127128","0.0-79.0-0.0","0","0","sNtxH","People","","null","","","","null","","","","","","","","","","","","","","","","","","","","","","","","","","","","","","","","","","","","","","","","","","","",""
"","deliberation","","html-keyboard-response","144","1128171","0.0-79.0-1.0","0","0","sNtxH","People","","1040","","","","68","","","","23","16","33","0","1","65","67","giano-currie-5-9YOsmf8IQ-unsplash.jpg","olena-sergienko-0TSd6uCKTKc-unsplash.jpg","2","1","16","33","","","","","","","","","","","","","","","","","","","","","","","","","","","",""
"","choice_confirmation","","html-keyboard-response","145","1128683","0.0-79.0-2.0-0.0","0","0","sNtxH","People","","null","","","","null","","","","23","16","33","","","","","","","","","","","","","","","","","","","","","","","","","","","","","","","","","","","","","",""
"","start_critical_deliberation_block","","html-keyboard-response","146","1139376","0.0-79.0-7.0-0.0","0","0","sNtxH","People","","10689","","","","78","","","","","","","","","","","","","","","","","","","","","","","","","","","","","","","","","","","","","","","","","","","",""
"","fixation","","html-keyboard-response","147","1140395","0.0-80.0-0.0","0","0","sNtxH","People","","null","","","","null","","","","","","","","","","","","","","","","","","","","","","","","","","","","","","","","","","","","","","","","","","","",""
"","deliberation","","html-keyboard-response","148","1144236","0.0-80.0-1.0","0","0","sNtxH","People","","3838","","","","75","","","","24","29","39","0","1","70","62","leilani-angel-K84vnnzxmTQ-unsplash.jpg","philip-martin-5aGUyCW_PJw-unsplash.jpg","3","0","39","29","","","","","","","","","","","","","","","","","","","","","","","","","","","",""
"","choice_confirmation","","html-keyboard-response","149","1144753","0.0-80.0-2.0-0.0","0","0","sNtxH","People","","null","","","","null","","","","24","29","39","","","","","","","","","","","","","","","","","","","","","","","","","","","","","","","","","","","","","",""
"","fixation","","html-keyboard-response","150","1145769","0.0-81.0-0.0","0","0","sNtxH","People","","null","","","","null","","","","","","","","","","","","","","","","","","","","","","","","","","","","","","","","","","","","","","","","","","","",""
"","deliberation","","html-keyboard-response","151","1146472","0.0-81.0-1.0","0","0","sNtxH","People","","699","","","","68","","","","25","16","33","0","1","65","67","giano-currie-5-9YOsmf8IQ-unsplash.jpg","olena-sergienko-0TSd6uCKTKc-unsplash.jpg","3","1","16","33","","","","","","","","","","","","","","","","","","","","","","","","","","","",""
"","choice_confirmation","","html-keyboard-response","152","1147004","0.0-81.0-2.0-0.0","0","0","sNtxH","People","","null","","","","null","","","","25","16","33","","","","","","","","","","","","","","","","","","","","","","","","","","","","","","","","","","","","","",""
"","fixation","","html-keyboard-response","153","1148011","0.0-82.0-0.0","0","0","sNtxH","People","","null","","","","null","","","","","","","","","","","","","","","","","","","","","","","","","","","","","","","","","","","","","","","","","","","",""
"","deliberation","","html-keyboard-response","154","1148760","0.0-82.0-1.0","0","0","sNtxH","People","","747","","","","68","","","","26","43","34","0","1","66","66","raamin-ka-0qJBEzudn5E-unsplash.jpg","oliver-johnson-1TUIcKob7Zs-unsplash.jpg","3","1","43","34","","","","","","","","","","","","","","","","","","","","","","","","","","","",""
"","choice_confirmation","","html-keyboard-response","155","1149269","0.0-82.0-2.0-0.0","0","0","sNtxH","People","","null","","","","null","","","","26","43","34","","","","","","","","","","","","","","","","","","","","","","","","","","","","","","","","","","","","","",""
"","fixation","","html-keyboard-response","156","1150301","0.0-83.0-0.0","0","0","sNtxH","People","","null","","","","null","","","","","","","","","","","","","","","","","","","","","","","","","","","","","","","","","","","","","","","","","","","",""
"","deliberation","","html-keyboard-response","157","1151675","0.0-83.0-1.0","0","0","sNtxH","People","","1371","","","","68","","","","27","18","45","0","1","82","73","good-faces-xmSWVeGEnJw-unsplash.jpg","sarah-noltner-pL5ZzPp1zqg-unsplash.jpg","3","1","18","45","","","","","","","","","","","","","","","","","","","","","","","","","","","",""
"","choice_confirmation","","html-keyboard-response","158","1152192","0.0-83.0-2.0-0.0","0","0","sNtxH","People","","null","","","","null","","","","27","18","45","","","","","","","","","","","","","","","","","","","","","","","","","","","","","","","","","","","","","",""
"","fixation","","html-keyboard-response","159","1153216","0.0-84.0-0.0","0","0","sNtxH","People","","null","","","","null","","","","","","","","","","","","","","","","","","","","","","","","","","","","","","","","","","","","","","","","","","","",""
"","deliberation","","html-keyboard-response","160","1153912","0.0-84.0-1.0","0","0","sNtxH","People","","693","","","","68","","","","28","5","12","0","-1","70","79","batel-studio-ttSRjiYG_WM-unsplash.jpg","daniel-rigdon-dXmXKPP2L4E-unsplash.jpg","3","1","5","12","","","","","","","","","","","","","","","","","","","","","","","","","","","",""
"","choice_confirmation","","html-keyboard-response","161","1154427","0.0-84.0-2.0-0.0","0","0","sNtxH","People","","null","","","","null","","","","28","5","12","","","","","","","","","","","","","","","","","","","","","","","","","","","","","","","","","","","","","",""
"","fixation","","html-keyboard-response","162","1155437","0.0-85.0-0.0","0","0","sNtxH","People","","null","","","","null","","","","","","","","","","","","","","","","","","","","","","","","","","","","","","","","","","","","","","","","","","","",""
"","deliberation","","html-keyboard-response","163","1156783","0.0-85.0-1.0","0","0","sNtxH","People","","1342","","","","68","","","","29","1","20","0","-1","65","78","aiony-haust-jmATI5Q_YgY-unsplash.jpg","houcine-ncib-B4TjXnI0Y2c-unsplash.jpg","3","1","1","20","","","","","","","","","","","","","","","","","","","","","","","","","","","",""
"","choice_confirmation","","html-keyboard-response","164","1157298","0.0-85.0-2.0-0.0","0","0","sNtxH","People","","null","","","","null","","","","29","1","20","","","","","","","","","","","","","","","","","","","","","","","","","","","","","","","","","","","","","",""
"","fixation","","html-keyboard-response","165","1158313","0.0-86.0-0.0","0","0","sNtxH","People","","null","","","","null","","","","","","","","","","","","","","","","","","","","","","","","","","","","","","","","","","","","","","","","","","","",""
"","deliberation","","html-keyboard-response","166","1159653","0.0-86.0-1.0","0","0","sNtxH","People","","1338","","","","68","","","","30","11","24","0","-1","64","64","christian-ferrer-8vT-DgHZDG4-unsplash.jpg","joel-mott-LaK153ghdig-unsplash.jpg","3","1","11","24","","","","","","","","","","","","","","","","","","","","","","","","","","","",""
"","choice_confirmation","","html-keyboard-response","167","1160167","0.0-86.0-2.0-0.0","0","0","sNtxH","People","","null","","","","null","","","","30","11","24","","","","","","","","","","","","","","","","","","","","","","","","","","","","","","","","","","","","","",""
"","fixation","","html-keyboard-response","168","1161183","0.0-87.0-0.0","0","0","sNtxH","People","","null","","","","null","","","","","","","","","","","","","","","","","","","","","","","","","","","","","","","","","","","","","","","","","","","",""
"","deliberation","","html-keyboard-response","169","1162360","0.0-87.0-1.0","0","0","sNtxH","People","","1173","","","","75","","","","31","22","19","0","1","67","60","jessica-radanavong-mrYkTuAesKE-unsplash.jpg","ha-nguy-n-OFSQ6bHjFjs-unsplash.jpg","3","0","19","22","","","","","","","","","","","","","","","","","","","","","","","","","","","",""
"","choice_confirmation","","html-keyboard-response","170","1162877","0.0-87.0-2.0-0.0","0","0","sNtxH","People","","null","","","","null","","","","31","22","19","","","","","","","","","","","","","","","","","","","","","","","","","","","","","","","","","","","","","",""
"","fixation","","html-keyboard-response","171","1163896","0.0-88.0-0.0","0","0","sNtxH","People","","null","","","","null","","","","","","","","","","","","","","","","","","","","","","","","","","","","","","","","","","","","","","","","","","","",""
"","deliberation","","html-keyboard-response","172","1164727","0.0-88.0-1.0","0","0","sNtxH","People","","829","","","","68","","","","32","44","26","0","1","82","68","rikonavt-HQjfrvdTfak-unsplash.jpg","juri-gianfrancesco-9EZadYaMzk4-unsplash.jpg","3","1","44","26","","","","","","","","","","","","","","","","","","","","","","","","","","","",""
"","choice_confirmation","","html-keyboard-response","173","1165238","0.0-88.0-2.0-0.0","0","0","sNtxH","People","","null","","","","null","","","","32","44","26","","","","","","","","","","","","","","","","","","","","","","","","","","","","","","","","","","","","","",""
"","fixation","","html-keyboard-response","174","1166264","0.0-89.0-0.0","0","0","sNtxH","People","","null","","","","null","","","","","","","","","","","","","","","","","","","","","","","","","","","","","","","","","","","","","","","","","","","",""
"","deliberation","","html-keyboard-response","175","1167199","0.0-89.0-1.0","0","0","sNtxH","People","","931","","","","75","","","","33","42","41","0","-1","57","62","prince-akachi-l3IHXOdMyHQ-unsplash.jpg","prince-akachi-i2hoD-C2RUA-unsplash.jpg","3","0","41","42","","","","","","","","","","","","","","","","","","","","","","","","","","","",""
"","choice_confirmation","","html-keyboard-response","176","1167716","0.0-89.0-2.0-0.0","0","0","sNtxH","People","","null","","","","null","","","","33","42","41","","","","","","","","","","","","","","","","","","","","","","","","","","","","","","","","","","","","","",""
"","fixation","","html-keyboard-response","177","1168731","0.0-90.0-0.0","0","0","sNtxH","People","","null","","","","null","","","","","","","","","","","","","","","","","","","","","","","","","","","","","","","","","","","","","","","","","","","",""
"","deliberation","","html-keyboard-response","178","1169914","0.0-90.0-1.0","0","0","sNtxH","People","","1180","","","","75","","","","34","48","17","0","-1","76","69","velizar-ivanov-7ktP9yZA1g4-unsplash.jpg","gleb-lukomets-paBzWCPN23k-unsplash.jpg","3","0","17","48","","","","","","","","","","","","","","","","","","","","","","","","","","","",""
"","choice_confirmation","","html-keyboard-response","179","1170428","0.0-90.0-2.0-0.0","0","0","sNtxH","People","","null","","","","null","","","","34","48","17","","","","","","","","","","","","","","","","","","","","","","","","","","","","","","","","","","","","","",""
"","fixation","","html-keyboard-response","180","1171446","0.0-91.0-0.0","0","0","sNtxH","People","","null","","","","null","","","","","","","","","","","","","","","","","","","","","","","","","","","","","","","","","","","","","","","","","","","",""
"","deliberation","","html-keyboard-response","181","1172296","0.0-91.0-1.0","0","0","sNtxH","People","","847","","","","68","","","","35","21","8","0","-1","76","59","jessica-felicio-_cvwXhGqG-o-unsplash.jpg","bruce-dixon-3M9WJQVHzog-unsplash.jpg","3","1","21","8","","","","","","","","","","","","","","","","","","","","","","","","","","","",""
"","choice_confirmation","","html-keyboard-response","182","1172817","0.0-91.0-2.0-0.0","0","0","sNtxH","People","","null","","","","null","","","","35","21","8","","","","","","","","","","","","","","","","","","","","","","","","","","","","","","","","","","","","","",""
"","reward_learning_instructions","","instructions","183","1331065","0.0-92.0-0.0","0","0","sNtxH","People","[{""page_index"":0,""viewing_time"":76071},{""page_index"":1,""viewing_time"":79288},{""page_index"":2,""viewing_time"":2886}]","158246","","","","","","","","","","","","","","","","","","","","","","","","","","","","","","","","","","","","","","","","","","","","","","","",""
"","","","survey-multi-choice","184","1357919","0.0-92.0-1.0","0","0","sNtxH","People","","26841","{""Q0"":""True"",""Q1"":""True"",""Q2"":""Press the space bar to see its outcome"",""Q3"":""Press the relevant key while the outcome is presented""}","reward_comprehension_check","0","","","","","","","","","","","","","","","","","","","","","","","","","","","","","","","","","","","","","","","","","","","","",""
"","start_phase","","html-keyboard-response","185","1362448","0.0-93.0","0","0","sNtxH","People","","4526","","","","78","","","","","","","","","","","","","","","","","","","","","","","","","","","","","","","","","","","","","","","","","","","",""
"","fixation","","html-keyboard-response","186","1363463","0.0-94.0","0","0","sNtxH","People","","null","","","","null","","","","","","","","","","","","","","","","","","","","","","","","","","","","","","","","","","","","","","","","","","","",""
"","see_reward","","html-keyboard-response","187","1365247","0.0-95.0","0","0","sNtxH","People","","1781","","","","32","","16","","0","","","","1","","","","","1","","","","","152","1781","","","","","","","","","","","","","","","","","","","","","","","","",""
"","reward_outcome","","html-keyboard-response","188","1367267","0.0-96.0","0","0","sNtxH","People","","1852","","","","38","","16","","0","","","","","","","","","","","","","","","","1","1852","","","","","","","","","","","","","","","","","","","","","","",""
"","fixation","","html-keyboard-response","189","1368307","0.0-99.0","0","0","sNtxH","People","","null","","","","null","","","","","","","","","","","","","","","","","","","","","","","","","","","","","","","","","","","","","","","","","","","",""
"","see_reward","","html-keyboard-response","190","1370951","0.0-100.0","0","0","sNtxH","People","","2642","","","","32","","16","","1","","","","1","","","","","1","","","","","152","2642","","","","","","","","","","","","","","","","","","","","","","","","",""
"","reward_outcome","","html-keyboard-response","191","1372958","0.0-101.0","0","0","sNtxH","People","","1895","","","","38","","16","","1","","","","","","","","","","","","","","","","1","1895","","","","","","","","","","","","","","","","","","","","","","",""
"","fixation","","html-keyboard-response","192","1373973","0.0-104.0","0","0","sNtxH","People","","null","","","","null","","","","","","","","","","","","","","","","","","","","","","","","","","","","","","","","","","","","","","","","","","","",""
"","see_reward","","html-keyboard-response","193","1375041","0.0-105.0","0","0","sNtxH","People","","1064","","","","32","","19","","2","","","","1","","","","","1","","","","","152","1064","","","","","","","","","","","","","","","","","","","","","","","","",""
"","reward_outcome","","html-keyboard-response","194","1377055","0.0-106.0","0","0","sNtxH","People","","798","","","","38","","19","","2","","","","","","","","","","","","","","","","1","798","","","","","","","","","","","","","","","","","","","","","","",""
"","fixation","","html-keyboard-response","195","1378075","0.0-109.0","0","0","sNtxH","People","","null","","","","null","","","","","","","","","","","","","","","","","","","","","","","","","","","","","","","","","","","","","","","","","","","",""
"","see_reward","","html-keyboard-response","196","1379307","0.0-110.0","0","0","sNtxH","People","","1229","","","","32","","5","","3","","","","-1","","","","","1","","","","","0","1229","","","","","","","","","","","","","","","","","","","","","","","","",""
"","reward_outcome","","html-keyboard-response","197","1381459","0.0-111.0","0","0","sNtxH","People","","700","","","","40","","5","","3","","","","","","","","","","","","","","","","-1","700","","","","","","","","","","","","","","","","","","","","","","",""
"","fixation","","html-keyboard-response","198","1382470","0.0-114.0","0","0","sNtxH","People","","null","","","","null","","","","","","","","","","","","","","","","","","","","","","","","","","","","","","","","","","","","","","","","","","","",""
"","see_reward","","html-keyboard-response","199","1384171","0.0-115.0","0","0","sNtxH","People","","1697","","","","32","","17","","4","","","","-1","","","","","1","","","","","0","1697","","","","","","","","","","","","","","","","","","","","","","","","",""
"","reward_outcome","","html-keyboard-response","200","1386187","0.0-116.0","0","0","sNtxH","People","","857","","","","40","","17","","4","","","","","","","","","","","","","","","","-1","857","","","","","","","","","","","","","","","","","","","","","","",""
"","fixation","","html-keyboard-response","201","1387198","0.0-119.0","0","0","sNtxH","People","","null","","","","null","","","","","","","","","","","","","","","","","","","","","","","","","","","","","","","","","","","","","","","","","","","",""
"","see_reward","","html-keyboard-response","202","1390178","0.0-120.0","0","0","sNtxH","People","","2977","","","","32","","17","","5","","","","-1","","","","","1","","","","","0","2977","","","","","","","","","","","","","","","","","","","","","","","","",""
"","reward_outcome","","html-keyboard-response","203","1392201","0.0-121.0","0","0","sNtxH","People","","695","","","","40","","17","","5","","","","","","","","","","","","","","","","-1","695","","","","","","","","","","","","","","","","","","","","","","",""
"","fixation","","html-keyboard-response","204","1393210","0.0-124.0","0","0","sNtxH","People","","null","","","","null","","","","","","","","","","","","","","","","","","","","","","","","","","","","","","","","","","","","","","","","","","","",""
"","see_reward","","html-keyboard-response","205","1394803","0.0-125.0","0","0","sNtxH","People","","1590","","","","32","","43","","6","","","","1","","","","","1","","","","","147","1590","","","","","","","","","","","","","","","","","","","","","","","","",""
"","reward_outcome","","html-keyboard-response","206","1396822","0.0-126.0","0","0","sNtxH","People","","679","","","","38","","43","","6","","","","","","","","","","","","","","","","1","679","","","","","","","","","","","","","","","","","","","","","","",""
"","fixation","","html-keyboard-response","207","1398304","0.0-129.0","0","0","sNtxH","People","","null","","","","null","","","","","","","","","","","","","","","","","","","","","","","","","","","","","","","","","","","","","","","","","","","",""
"","see_reward","","html-keyboard-response","208","1399640","0.0-130.0","0","0","sNtxH","People","","1331","","","","32","","41","","7","","","","-1","","","","","1","","","","","0","1331","","","","","","","","","","","","","","","","","","","","","","","","",""
"","reward_outcome","","html-keyboard-response","209","1401651","0.0-131.0","0","0","sNtxH","People","","758","","","","40","","41","","7","","","","","","","","","","","","","","","","-1","758","","","","","","","","","","","","","","","","","","","","","","",""
"","fixation","","html-keyboard-response","210","1402659","0.0-134.0","0","0","sNtxH","People","","null","","","","null","","","","","","","","","","","","","","","","","","","","","","","","","","","","","","","","","","","","","","","","","","","",""
"","see_reward","","html-keyboard-response","211","1404708","0.0-135.0","0","0","sNtxH","People","","2046","","","","32","","5","","8","","","","-1","","","","","1","","","","","0","2046","","","","","","","","","","","","","","","","","","","","","","","","",""
"","reward_outcome","","html-keyboard-response","212","1406717","0.0-136.0","0","0","sNtxH","People","","939","","","","40","","5","","8","","","","","","","","","","","","","","","","-1","939","","","","","","","","","","","","","","","","","","","","","","",""
"","fixation","","html-keyboard-response","213","1407721","0.0-139.0","0","0","sNtxH","People","","null","","","","null","","","","","","","","","","","","","","","","","","","","","","","","","","","","","","","","","","","","","","","","","","","",""
"","see_reward","","html-keyboard-response","214","1408448","0.0-140.0","0","0","sNtxH","People","","723","","","","32","","21","","9","","","","-1","","","","","1","","","","","0","723","","","","","","","","","","","","","","","","","","","","","","","","",""
"","reward_outcome","","html-keyboard-response","215","1411310","0.0-141.0","0","0","sNtxH","People","","614","","","","40","","21","","9","","","","","","","","","","","","","","","","-1","614","","","","","","","","","","","","","","","","","","","","","","",""
"","fixation","","html-keyboard-response","216","1412323","0.0-144.0","0","0","sNtxH","People","","null","","","","null","","","","","","","","","","","","","","","","","","","","","","","","","","","","","","","","","","","","","","","","","","","",""
"","see_reward","","html-keyboard-response","217","1413244","0.0-145.0","0","0","sNtxH","People","","918","","","","32","","1","","10","","","","-1","","","","","1","","","","","0","918","","","","","","","","","","","","","","","","","","","","","","","","",""
"","reward_outcome","","html-keyboard-response","218","1415256","0.0-146.0","0","0","sNtxH","People","","null","","","","null","","1","","10","","","","","","","","","","","","","","","","NaN","null","","","","","","","","","","","","","","","","","","","","","","",""
"","respond_faster","","html-keyboard-response","219","1417309","0.0-147.0-0.0","1","0","sNtxH","People","","null","","","","null","","","","","","","","","","","","","","","","","","","","","","","","","","","","","","","","","","","","","","","","","","","",""
"","fixation","","html-keyboard-response","220","1419298","0.0-149.0","0","0","sNtxH","People","","null","","","","null","","","","","","","","","","","","","","","","","","","","","","","","","","","","","","","","","","","","","","","","","","","",""
"","see_reward","","html-keyboard-response","221","1420421","0.0-150.0","0","0","sNtxH","People","","1121","","","","32","","43","","11","","","","1","","","","","1","","","","","147","1121","","","","","","","","","","","","","","","","","","","","","","","","",""
"","reward_outcome","","html-keyboard-response","222","1422429","0.0-151.0","0","0","sNtxH","People","","833","","","","38","","43","","11","","","","","","","","","","","","","","","","1","833","","","","","","","","","","","","","","","","","","","","","","",""
"","fixation","","html-keyboard-response","223","1423439","0.0-154.0","0","0","sNtxH","People","","null","","","","null","","","","","","","","","","","","","","","","","","","","","","","","","","","","","","","","","","","","","","","","","","","",""
"","see_reward","","html-keyboard-response","224","1425441","0.0-155.0","0","0","sNtxH","People","","1999","","","","32","","21","","12","","","","-1","","","","","1","","","","","0","1999","","","","","","","","","","","","","","","","","","","","","","","","",""
"","reward_outcome","","html-keyboard-response","225","1427455","0.0-156.0","0","0","sNtxH","People","","727","","","","40","","21","","12","","","","","","","","","","","","","","","","-1","727","","","","","","","","","","","","","","","","","","","","","","",""
"","fixation","","html-keyboard-response","226","1428466","0.0-159.0","0","0","sNtxH","People","","null","","","","null","","","","","","","","","","","","","","","","","","","","","","","","","","","","","","","","","","","","","","","","","","","",""
"","see_reward","","html-keyboard-response","227","1429368","0.0-160.0","0","0","sNtxH","People","","899","","","","32","","44","","13","","","","1","","","","","1","","","","","153","899","","","","","","","","","","","","","","","","","","","","","","","","",""
"","reward_outcome","","html-keyboard-response","228","1432299","0.0-161.0","0","0","sNtxH","People","","614","","","","38","","44","","13","","","","","","","","","","","","","","","","1","614","","","","","","","","","","","","","","","","","","","","","","",""
"","fixation","","html-keyboard-response","229","1434300","0.0-164.0","0","0","sNtxH","People","","null","","","","null","","","","","","","","","","","","","","","","","","","","","","","","","","","","","","","","","","","","","","","","","","","",""
"","see_reward","","html-keyboard-response","230","1435540","0.0-165.0","0","0","sNtxH","People","","1237","","","","32","","18","","14","","","","1","","","","","1","","","","","140","1237","","","","","","","","","","","","","","","","","","","","","","","","",""
"","reward_outcome","","html-keyboard-response","231","1437549","0.0-166.0","0","0","sNtxH","People","","791","","","","38","","18","","14","","","","","","","","","","","","","","","","1","791","","","","","","","","","","","","","","","","","","","","","","",""
"","fixation","","html-keyboard-response","232","1438556","0.0-169.0","0","0","sNtxH","People","","null","","","","null","","","","","","","","","","","","","","","","","","","","","","","","","","","","","","","","","","","","","","","","","","","",""
"","see_reward","","html-keyboard-response","233","1439116","0.0-170.0","0","0","sNtxH","People","","558","","","","32","","1","","15","","","","-1","","","","","1","","","","","0","558","","","","","","","","","","","","","","","","","","","","","","","","",""
"","reward_outcome","","html-keyboard-response","234","1441301","0.0-171.0","0","0","sNtxH","People","","698","","","","40","","1","","15","","","","","","","","","","","","","","","","-1","698","","","","","","","","","","","","","","","","","","","","","","",""
"","fixation","","html-keyboard-response","235","1443298","0.0-174.0","0","0","sNtxH","People","","null","","","","null","","","","","","","","","","","","","","","","","","","","","","","","","","","","","","","","","","","","","","","","","","","",""
"","see_reward","","html-keyboard-response","236","1444094","0.0-175.0","0","0","sNtxH","People","","793","","","","32","","18","","16","","","","1","","","","","1","","","","","140","793","","","","","","","","","","","","","","","","","","","","","","","","",""
"","reward_outcome","","html-keyboard-response","237","1446105","0.0-176.0","0","0","sNtxH","People","","525","","","","38","","18","","16","","","","","","","","","","","","","","","","1","525","","","","","","","","","","","","","","","","","","","","","","",""
"","fixation","","html-keyboard-response","238","1447121","0.0-179.0","0","0","sNtxH","People","","null","","","","null","","","","","","","","","","","","","","","","","","","","","","","","","","","","","","","","","","","","","","","","","","","",""
"","see_reward","","html-keyboard-response","239","1447693","0.0-180.0","0","0","sNtxH","People","","569","","","","32","","19","","17","","","","1","","","","","1","","","","","152","569","","","","","","","","","","","","","","","","","","","","","","","","",""
"","reward_outcome","","html-keyboard-response","240","1450304","0.0-181.0","0","0","sNtxH","People","","747","","","","38","","19","","17","","","","","","","","","","","","","","","","1","747","","","","","","","","","","","","","","","","","","","","","","",""
"","fixation","","html-keyboard-response","241","1452300","0.0-184.0","0","0","sNtxH","People","","null","","","","null","","","","","","","","","","","","","","","","","","","","","","","","","","","","","","","","","","","","","","","","","","","",""
"","see_reward","","html-keyboard-response","242","1452903","0.0-185.0","0","0","sNtxH","People","","600","","","","32","","39","","18","","","","1","","","","","1","","","","","150","600","","","","","","","","","","","","","","","","","","","","","","","","",""
"","reward_outcome","","html-keyboard-response","243","1454916","0.0-186.0","0","0","sNtxH","People","","694","","","","38","","39","","18","","","","","","","","","","","","","","","","1","694","","","","","","","","","","","","","","","","","","","","","","",""
"","fixation","","html-keyboard-response","244","1455923","0.0-189.0","0","0","sNtxH","People","","null","","","","null","","","","","","","","","","","","","","","","","","","","","","","","","","","","","","","","","","","","","","","","","","","",""
"","see_reward","","html-keyboard-response","245","1456730","0.0-190.0","0","0","sNtxH","People","","805","","","","32","","11","","19","","","","-1","","","","","1","","","","","0","805","","","","","","","","","","","","","","","","","","","","","","","","",""
"","reward_outcome","","html-keyboard-response","246","1458750","0.0-191.0","0","0","sNtxH","People","","1300","","","","38","","11","","19","","","","","","","","","","","","","","","","1","1300","","","","","","","","","","","","","","","","","","","","","","",""
"","fixation","","html-keyboard-response","247","1459767","0.0-194.0","0","0","sNtxH","People","","null","","","","null","","","","","","","","","","","","","","","","","","","","","","","","","","","","","","","","","","","","","","","","","","","",""
"","see_reward","","html-keyboard-response","248","1460949","0.0-195.0","0","0","sNtxH","People","","1179","","","","32","","41","","20","","","","-1","","","","","1","","","","","0","1179","","","","","","","","","","","","","","","","","","","","","","","","",""
"","reward_outcome","","html-keyboard-response","249","1462971","0.0-196.0","0","0","sNtxH","People","","863","","","","40","","41","","20","","","","","","","","","","","","","","","","-1","863","","","","","","","","","","","","","","","","","","","","","","",""
"","fixation","","html-keyboard-response","250","1464310","0.0-199.0","0","0","sNtxH","People","","null","","","","null","","","","","","","","","","","","","","","","","","","","","","","","","","","","","","","","","","","","","","","","","","","",""
"","see_reward","","html-keyboard-response","251","1465322","0.0-200.0","0","0","sNtxH","People","","1009","","","","32","","11","","21","","","","-1","","","","","1","","","","","0","1009","","","","","","","","","","","","","","","","","","","","","","","","",""
"","reward_outcome","","html-keyboard-response","252","1467337","0.0-201.0","0","0","sNtxH","People","","971","","","","40","","11","","21","","","","","","","","","","","","","","","","-1","971","","","","","","","","","","","","","","","","","","","","","","",""
"","fixation","","html-keyboard-response","253","1468347","0.0-204.0","0","0","sNtxH","People","","null","","","","null","","","","","","","","","","","","","","","","","","","","","","","","","","","","","","","","","","","","","","","","","","","",""
"","see_reward","","html-keyboard-response","254","1469019","0.0-205.0","0","0","sNtxH","People","","669","","","","32","","44","","22","","","","1","","","","","1","","","","","153","669","","","","","","","","","","","","","","","","","","","","","","","","",""
"","reward_outcome","","html-keyboard-response","255","1471304","0.0-206.0","0","0","sNtxH","People","","593","","","","38","","44","","22","","","","","","","","","","","","","","","","1","593","","","","","","","","","","","","","","","","","","","","","","",""
"","fixation","","html-keyboard-response","256","1473298","0.0-209.0","0","0","sNtxH","People","","null","","","","null","","","","","","","","","","","","","","","","","","","","","","","","","","","","","","","","","","","","","","","","","","","",""
"","see_reward","","html-keyboard-response","257","1474336","0.0-210.0","0","0","sNtxH","People","","1035","","","","32","","39","","23","","","","1","","","","","1","","","","","150","1035","","","","","","","","","","","","","","","","","","","","","","","","",""
"","reward_outcome","","html-keyboard-response","258","1476342","0.0-211.0","0","0","sNtxH","People","","995","","","","40","","39","","23","","","","","","","","","","","","","","","","-1","995","","","","","","","","","","","","","","","","","","","","","","",""
"","block_over","","html-keyboard-response","259","1482134","0.0-213.0-0.0","0","0","sNtxH","People","","5789","","","","78","","","","","","","","","","","","","","","","","","","","","","","","","","","","","","","","","","","","","","","","","","","",""
"","fixation","","html-keyboard-response","260","1483152","0.0-214.0","0","0","sNtxH","People","","null","","","","null","","","","","","","","","","","","","","","","","","","","","","","","","","","","","","","","","","","","","","","","","","","",""
"","see_reward","","html-keyboard-response","261","1484153","0.0-215.0","0","0","sNtxH","People","","998","","","","32","","5","","24","","","","-1","","","","","2","","","","","0","998","","","","","","","","","","","","","","","","","","","","","","","","",""
"","reward_outcome","","html-keyboard-response","262","1486168","0.0-216.0","0","0","sNtxH","People","","961","","","","40","","5","","24","","","","","","","","","","","","","","","","-1","961","","","","","","","","","","","","","","","","","","","","","","",""
"","fixation","","html-keyboard-response","263","1487309","0.0-219.0","0","0","sNtxH","People","","null","","","","null","","","","","","","","","","","","","","","","","","","","","","","","","","","","","","","","","","","","","","","","","","","",""
"","see_reward","","html-keyboard-response","264","1488084","0.0-220.0","0","0","sNtxH","People","","771","","","","32","","11","","25","","","","-1","","","","","2","","","","","0","771","","","","","","","","","","","","","","","","","","","","","","","","",""
"","reward_outcome","","html-keyboard-response","265","1490100","0.0-221.0","0","0","sNtxH","People","","539","","","","40","","11","","25","","","","","","","","","","","","","","","","-1","539","","","","","","","","","","","","","","","","","","","","","","",""
"","fixation","","html-keyboard-response","266","1491113","0.0-224.0","0","0","sNtxH","People","","null","","","","null","","","","","","","","","","","","","","","","","","","","","","","","","","","","","","","","","","","","","","","","","","","",""
"","see_reward","","html-keyboard-response","267","1491563","0.0-225.0","0","0","sNtxH","People","","447","","","","32","","11","","26","","","","-1","","","","","2","","","","","0","447","","","","","","","","","","","","","","","","","","","","","","","","",""
"","reward_outcome","","html-keyboard-response","268","1494307","0.0-226.0","0","0","sNtxH","People","","434","","","","40","","11","","26","","","","","","","","","","","","","","","","-1","434","","","","","","","","","","","","","","","","","","","","","","",""
"","fixation","","html-keyboard-response","269","1496296","0.0-229.0","0","0","sNtxH","People","","null","","","","null","","","","","","","","","","","","","","","","","","","","","","","","","","","","","","","","","","","","","","","","","","","",""
"","see_reward","","html-keyboard-response","270","1497003","0.0-230.0","0","0","sNtxH","People","","703","","","","32","","21","","27","","","","-1","","","","","2","","","","","0","703","","","","","","","","","","","","","","","","","","","","","","","","",""
"","reward_outcome","","html-keyboard-response","271","1499012","0.0-231.0","0","0","sNtxH","People","","450","","","","40","","21","","27","","","","","","","","","","","","","","","","-1","450","","","","","","","","","","","","","","","","","","","","","","",""
"","fixation","","html-keyboard-response","272","1500028","0.0-234.0","0","0","sNtxH","People","","null","","","","null","","","","","","","","","","","","","","","","","","","","","","","","","","","","","","","","","","","","","","","","","","","",""
"","see_reward","","html-keyboard-response","273","1500369","0.0-235.0","0","0","sNtxH","People","","338","","","","32","","16","","28","","","","1","","","","","2","","","","","152","338","","","","","","","","","","","","","","","","","","","","","","","","",""
"","reward_outcome","","html-keyboard-response","274","1503305","0.0-236.0","0","0","sNtxH","People","","520","","","","38","","16","","28","","","","","","","","","","","","","","","","1","520","","","","","","","","","","","","","","","","","","","","","","",""
"","fixation","","html-keyboard-response","275","1505300","0.0-239.0","0","0","sNtxH","People","","null","","","","null","","","","","","","","","","","","","","","","","","","","","","","","","","","","","","","","","","","","","","","","","","","",""
"","see_reward","","html-keyboard-response","276","1505649","0.0-240.0","0","0","sNtxH","People","","344","","","","32","","1","","29","","","","-1","","","","","2","","","","","0","344","","","","","","","","","","","","","","","","","","","","","","","","",""
"","reward_outcome","","html-keyboard-response","277","1507661","0.0-241.0","0","0","sNtxH","People","","629","","","","40","","1","","29","","","","","","","","","","","","","","","","-1","629","","","","","","","","","","","","","","","","","","","","","","",""
"","fixation","","html-keyboard-response","278","1508672","0.0-244.0","0","0","sNtxH","People","","null","","","","null","","","","","","","","","","","","","","","","","","","","","","","","","","","","","","","","","","","","","","","","","","","",""
"","see_reward","","html-keyboard-response","279","1509255","0.0-245.0","0","0","sNtxH","People","","581","","","","32","","41","","30","","","","-1","","","","","2","","","","","0","581","","","","","","","","","","","","","","","","","","","","","","","","",""
"","reward_outcome","","html-keyboard-response","280","1511310","0.0-246.0","0","0","sNtxH","People","","621","","","","40","","41","","30","","","","","","","","","","","","","","","","-1","621","","","","","","","","","","","","","","","","","","","","","","",""
"","fixation","","html-keyboard-response","281","1513298","0.0-249.0","0","0","sNtxH","People","","null","","","","null","","","","","","","","","","","","","","","","","","","","","","","","","","","","","","","","","","","","","","","","","","","",""
"","see_reward","","html-keyboard-response","282","1513880","0.0-250.0","0","0","sNtxH","People","","578","","","","32","","17","","31","","","","-1","","","","","2","","","","","0","578","","","","","","","","","","","","","","","","","","","","","","","","",""
"","reward_outcome","","html-keyboard-response","283","1515898","0.0-251.0","0","0","sNtxH","People","","416","","","","40","","17","","31","","","","","","","","","","","","","","","","-1","416","","","","","","","","","","","","","","","","","","","","","","",""
"","fixation","","html-keyboard-response","284","1516914","0.0-254.0","0","0","sNtxH","People","","null","","","","null","","","","","","","","","","","","","","","","","","","","","","","","","","","","","","","","","","","","","","","","","","","",""
"","see_reward","","html-keyboard-response","285","1517508","0.0-255.0","0","0","sNtxH","People","","591","","","","32","","17","","32","","","","-1","","","","","2","","","","","0","591","","","","","","","","","","","","","","","","","","","","","","","","",""
"","reward_outcome","","html-keyboard-response","286","1520309","0.0-256.0","0","0","sNtxH","People","","446","","","","40","","17","","32","","","","","","","","","","","","","","","","-1","446","","","","","","","","","","","","","","","","","","","","","","",""
"","fixation","","html-keyboard-response","287","1522307","0.0-259.0","0","0","sNtxH","People","","null","","","","null","","","","","","","","","","","","","","","","","","","","","","","","","","","","","","","","","","","","","","","","","","","",""
"","see_reward","","html-keyboard-response","288","1522910","0.0-260.0","0","0","sNtxH","People","","600","","","","32","","19","","33","","","","1","","","","","2","","","","","152","600","","","","","","","","","","","","","","","","","","","","","","","","",""
"","reward_outcome","","html-keyboard-response","289","1524933","0.0-261.0","0","0","sNtxH","People","","518","","","","38","","19","","33","","","","","","","","","","","","","","","","1","518","","","","","","","","","","","","","","","","","","","","","","",""
"","fixation","","html-keyboard-response","290","1525943","0.0-264.0","0","0","sNtxH","People","","null","","","","null","","","","","","","","","","","","","","","","","","","","","","","","","","","","","","","","","","","","","","","","","","","",""
"","see_reward","","html-keyboard-response","291","1526555","0.0-265.0","0","0","sNtxH","People","","609","","","","32","","1","","34","","","","-1","","","","","2","","","","","0","609","","","","","","","","","","","","","","","","","","","","","","","","",""
"","reward_outcome","","html-keyboard-response","292","1529298","0.0-266.0","0","0","sNtxH","People","","673","","","","40","","1","","34","","","","","","","","","","","","","","","","-1","673","","","","","","","","","","","","","","","","","","","","","","",""
"","fixation","","html-keyboard-response","293","1531303","0.0-269.0","0","0","sNtxH","People","","null","","","","null","","","","","","","","","","","","","","","","","","","","","","","","","","","","","","","","","","","","","","","","","","","",""
"","see_reward","","html-keyboard-response","294","1531886","0.0-270.0","0","0","sNtxH","People","","580","","","","32","","18","","35","","","","1","","","","","2","","","","","140","580","","","","","","","","","","","","","","","","","","","","","","","","",""
"","reward_outcome","","html-keyboard-response","295","1533904","0.0-271.0","0","0","sNtxH","People","","668","","","","38","","18","","35","","","","","","","","","","","","","","","","1","668","","","","","","","","","","","","","","","","","","","","","","",""
"","fixation","","html-keyboard-response","296","1534910","0.0-274.0","0","0","sNtxH","People","","null","","","","null","","","","","","","","","","","","","","","","","","","","","","","","","","","","","","","","","","","","","","","","","","","",""
"","see_reward","","html-keyboard-response","297","1535855","0.0-275.0","0","0","sNtxH","People","","941","","","","32","","41","","36","","","","-1","","","","","2","","","","","0","941","","","","","","","","","","","","","","","","","","","","","","","","",""
"","reward_outcome","","html-keyboard-response","298","1537866","0.0-276.0","0","0","sNtxH","People","","719","","","","40","","41","","36","","","","","","","","","","","","","","","","-1","719","","","","","","","","","","","","","","","","","","","","","","",""
"","fixation","","html-keyboard-response","299","1538883","0.0-279.0","0","0","sNtxH","People","","null","","","","null","","","","","","","","","","","","","","","","","","","","","","","","","","","","","","","","","","","","","","","","","","","",""
"","see_reward","","html-keyboard-response","300","1539387","0.0-280.0","0","0","sNtxH","People","","502","","","","32","","39","","37","","","","1","","","","","2","","","","","150","502","","","","","","","","","","","","","","","","","","","","","","","","",""
"","reward_outcome","","html-keyboard-response","301","1541406","0.0-281.0","0","0","sNtxH","People","","1373","","","","40","","39","","37","","","","","","","","","","","","","","","","-1","1373","","","","","","","","","","","","","","","","","","","","","","",""
"","fixation","","html-keyboard-response","302","1543296","0.0-284.0","0","0","sNtxH","People","","null","","","","null","","","","","","","","","","","","","","","","","","","","","","","","","","","","","","","","","","","","","","","","","","","",""
"","see_reward","","html-keyboard-response","303","1543768","0.0-285.0","0","0","sNtxH","People","","469","","","","32","","21","","38","","","","-1","","","","","2","","","","","0","469","","","","","","","","","","","","","","","","","","","","","","","","",""
"","reward_outcome","","html-keyboard-response","304","1545780","0.0-286.0","0","0","sNtxH","People","","1223","","","","40","","21","","38","","","","","","","","","","","","","","","","-1","1223","","","","","","","","","","","","","","","","","","","","","","",""
"","fixation","","html-keyboard-response","305","1546805","0.0-289.0","0","0","sNtxH","People","","null","","","","null","","","","","","","","","","","","","","","","","","","","","","","","","","","","","","","","","","","","","","","","","","","",""
"","see_reward","","html-keyboard-response","306","1547438","0.0-290.0","0","0","sNtxH","People","","631","","","","32","","43","","39","","","","1","","","","","2","","","","","147","631","","","","","","","","","","","","","","","","","","","","","","","","",""
"","reward_outcome","","html-keyboard-response","307","1550296","0.0-291.0","0","0","sNtxH","People","","679","","","","38","","43","","39","","","","","","","","","","","","","","","","1","679","","","","","","","","","","","","","","","","","","","","","","",""
"","fixation","","html-keyboard-response","308","1552296","0.0-294.0","0","0","sNtxH","People","","null","","","","null","","","","","","","","","","","","","","","","","","","","","","","","","","","","","","","","","","","","","","","","","","","",""
"","see_reward","","html-keyboard-response","309","1552840","0.0-295.0","0","0","sNtxH","People","","540","","","","32","","5","","40","","","","-1","","","","","2","","","","","0","540","","","","","","","","","","","","","","","","","","","","","","","","",""
"","reward_outcome","","html-keyboard-response","310","1554859","0.0-296.0","0","0","sNtxH","People","","870","","","","40","","5","","40","","","","","","","","","","","","","","","","-1","870","","","","","","","","","","","","","","","","","","","","","","",""
"","fixation","","html-keyboard-response","311","1555866","0.0-299.0","0","0","sNtxH","People","","null","","","","null","","","","","","","","","","","","","","","","","","","","","","","","","","","","","","","","","","","","","","","","","","","",""
"","see_reward","","html-keyboard-response","312","1556461","0.0-300.0","0","0","sNtxH","People","","592","","","","32","","19","","41","","","","1","","","","","2","","","","","152","592","","","","","","","","","","","","","","","","","","","","","","","","",""
"","reward_outcome","","html-keyboard-response","313","1558581","0.0-301.0","0","0","sNtxH","People","","2117","","","","38","","19","","41","","","","","","","","","","","","","","","","1","2117","","","","","","","","","","","","","","","","","","","","","","",""
"","fixation","","html-keyboard-response","314","1559599","0.0-304.0","0","0","sNtxH","People","","null","","","","null","","","","","","","","","","","","","","","","","","","","","","","","","","","","","","","","","","","","","","","","","","","",""
"","see_reward","","html-keyboard-response","315","1560031","0.0-305.0","0","0","sNtxH","People","","429","","","","32","","43","","42","","","","1","","","","","2","","","","","147","429","","","","","","","","","","","","","","","","","","","","","","","","",""
"","reward_outcome","","html-keyboard-response","316","1562044","0.0-306.0","0","0","sNtxH","People","","489","","","","38","","43","","42","","","","","","","","","","","","","","","","1","489","","","","","","","","","","","","","","","","","","","","","","",""
"","fixation","","html-keyboard-response","317","1563068","0.0-309.0","0","0","sNtxH","People","","null","","","","null","","","","","","","","","","","","","","","","","","","","","","","","","","","","","","","","","","","","","","","","","","","",""
"","see_reward","","html-keyboard-response","318","1564654","0.0-310.0","0","0","sNtxH","People","","1582","","","","32","","44","","43","","","","1","","","","","2","","","","","153","1582","","","","","","","","","","","","","","","","","","","","","","","","",""
"","reward_outcome","","html-keyboard-response","319","1566677","0.0-311.0","0","0","sNtxH","People","","661","","","","38","","44","","43","","","","","","","","","","","","","","","","1","661","","","","","","","","","","","","","","","","","","","","","","",""
"","fixation","","html-keyboard-response","320","1567694","0.0-314.0","0","0","sNtxH","People","","null","","","","null","","","","","","","","","","","","","","","","","","","","","","","","","","","","","","","","","","","","","","","","","","","",""
"","see_reward","","html-keyboard-response","321","1568100","0.0-315.0","0","0","sNtxH","People","","403","","","","32","","16","","44","","","","1","","","","","2","","","","","152","403","","","","","","","","","","","","","","","","","","","","","","","","",""
"","reward_outcome","","html-keyboard-response","322","1570308","0.0-316.0","0","0","sNtxH","People","","618","","","","38","","16","","44","","","","","","","","","","","","","","","","1","618","","","","","","","","","","","","","","","","","","","","","","",""
"","fixation","","html-keyboard-response","323","1572297","0.0-319.0","0","0","sNtxH","People","","null","","","","null","","","","","","","","","","","","","","","","","","","","","","","","","","","","","","","","","","","","","","","","","","","",""
"","see_reward","","html-keyboard-response","324","1573082","0.0-320.0","0","0","sNtxH","People","","783","","","","32","","39","","45","","","","1","","","","","2","","","","","150","783","","","","","","","","","","","","","","","","","","","","","","","","",""
"","reward_outcome","","html-keyboard-response","325","1575098","0.0-321.0","0","0","sNtxH","People","","437","","","","38","","39","","45","","","","","","","","","","","","","","","","1","437","","","","","","","","","","","","","","","","","","","","","","",""
"","fixation","","html-keyboard-response","326","1576106","0.0-324.0","0","0","sNtxH","People","","null","","","","null","","","","","","","","","","","","","","","","","","","","","","","","","","","","","","","","","","","","","","","","","","","",""
"","see_reward","","html-keyboard-response","327","1576820","0.0-325.0","0","0","sNtxH","People","","711","","","","32","","44","","46","","","","1","","","","","2","","","","","153","711","","","","","","","","","","","","","","","","","","","","","","","","",""
"","reward_outcome","","html-keyboard-response","328","1579306","0.0-326.0","0","0","sNtxH","People","","553","","","","38","","44","","46","","","","","","","","","","","","","","","","1","553","","","","","","","","","","","","","","","","","","","","","","",""
"","fixation","","html-keyboard-response","329","1581298","0.0-329.0","0","0","sNtxH","People","","null","","","","null","","","","","","","","","","","","","","","","","","","","","","","","","","","","","","","","","","","","","","","","","","","",""
"","see_reward","","html-keyboard-response","330","1582042","0.0-330.0","0","0","sNtxH","People","","741","","","","32","","18","","47","","","","1","","","","","2","","","","","140","741","","","","","","","","","","","","","","","","","","","","","","","","",""
"","reward_outcome","","html-keyboard-response","331","1584057","0.0-331.0","0","0","sNtxH","People","","588","","","","38","","18","","47","","","","","","","","","","","","","","","","1","588","","","","","","","","","","","","","","","","","","","","","","",""
"","block_over","","html-keyboard-response","332","1586613","0.0-333.0-0.0","0","0","sNtxH","People","","2554","","","","78","","","","","","","","","","","","","","","","","","","","","","","","","","","","","","","","","","","","","","","","","","","",""
"","fixation","","html-keyboard-response","333","1588309","0.0-334.0","0","0","sNtxH","People","","null","","","","null","","","","","","","","","","","","","","","","","","","","","","","","","","","","","","","","","","","","","","","","","","","",""
"","see_reward","","html-keyboard-response","334","1589267","0.0-335.0","0","0","sNtxH","People","","953","","","","32","","11","","48","","","","-1","","","","","3","","","","","0","953","","","","","","","","","","","","","","","","","","","","","","","","",""
"","reward_outcome","","html-keyboard-response","335","1591272","0.0-336.0","0","0","sNtxH","People","","747","","","","40","","11","","48","","","","","","","","","","","","","","","","-1","747","","","","","","","","","","","","","","","","","","","","","","",""
"","fixation","","html-keyboard-response","336","1592292","0.0-339.0","0","0","sNtxH","People","","null","","","","null","","","","","","","","","","","","","","","","","","","","","","","","","","","","","","","","","","","","","","","","","","","",""
"","see_reward","","html-keyboard-response","337","1592833","0.0-340.0","0","0","sNtxH","People","","538","","","","32","","44","","49","","","","1","","","","","3","","","","","153","538","","","","","","","","","","","","","","","","","","","","","","","","",""
"","reward_outcome","","html-keyboard-response","338","1595303","0.0-341.0","0","0","sNtxH","People","","538","","","","38","","44","","49","","","","","","","","","","","","","","","","1","538","","","","","","","","","","","","","","","","","","","","","","",""
"","fixation","","html-keyboard-response","339","1597306","0.0-344.0","0","0","sNtxH","People","","null","","","","null","","","","","","","","","","","","","","","","","","","","","","","","","","","","","","","","","","","","","","","","","","","",""
"","see_reward","","html-keyboard-response","340","1597912","0.0-345.0","0","0","sNtxH","People","","603","","","","32","","18","","50","","","","1","","","","","3","","","","","140","603","","","","","","","","","","","","","","","","","","","","","","","","",""
"","reward_outcome","","html-keyboard-response","341","1599931","0.0-346.0","0","0","sNtxH","People","","888","","","","38","","18","","50","","","","","","","","","","","","","","","","1","888","","","","","","","","","","","","","","","","","","","","","","",""
"","fixation","","html-keyboard-response","342","1600947","0.0-349.0","0","0","sNtxH","People","","null","","","","null","","","","","","","","","","","","","","","","","","","","","","","","","","","","","","","","","","","","","","","","","","","",""
"","see_reward","","html-keyboard-response","343","1601502","0.0-350.0","0","0","sNtxH","People","","552","","","","32","","21","","51","","","","-1","","","","","3","","","","","0","552","","","","","","","","","","","","","","","","","","","","","","","","",""
"","reward_outcome","","html-keyboard-response","344","1604299","0.0-351.0","0","0","sNtxH","People","","897","","","","40","","21","","51","","","","","","","","","","","","","","","","-1","897","","","","","","","","","","","","","","","","","","","","","","",""
"","fixation","","html-keyboard-response","345","1605961","0.0-354.0","0","0","sNtxH","People","","null","","","","null","","","","","","","","","","","","","","","","","","","","","","","","","","","","","","","","","","","","","","","","","","","",""
"","see_reward","","html-keyboard-response","346","1606719","0.0-355.0","0","0","sNtxH","People","","755","","","","32","","44","","52","","","","1","","","","","3","","","","","153","755","","","","","","","","","","","","","","","","","","","","","","","","",""
"","reward_outcome","","html-keyboard-response","347","1608737","0.0-356.0","0","0","sNtxH","People","","1396","","","","38","","44","","52","","","","","","","","","","","","","","","","1","1396","","","","","","","","","","","","","","","","","","","","","","",""
"","fixation","","html-keyboard-response","348","1609749","0.0-359.0","0","0","sNtxH","People","","null","","","","null","","","","","","","","","","","","","","","","","","","","","","","","","","","","","","","","","","","","","","","","","","","",""
"","see_reward","","html-keyboard-response","349","1610337","0.0-360.0","0","0","sNtxH","People","","586","","","","32","","43","","53","","","","1","","","","","3","","","","","147","586","","","","","","","","","","","","","","","","","","","","","","","","",""
"","reward_outcome","","html-keyboard-response","350","1612347","0.0-361.0","0","0","sNtxH","People","","429","","","","38","","43","","53","","","","","","","","","","","","","","","","1","429","","","","","","","","","","","","","","","","","","","","","","",""
