"success","ttype","start_time","trial_type","trial_index","time_elapsed","internal_node_id","warning","missed_checkup","PID","stim_type","view_history","rt","responses","category","repeat_instructions","key_press","response","stimulus_id","painting","index","stimulus_left","stimulus_right","explain_trial","reward_type","rating_left","rating_right","painting_left","painting_right","block","left_chosen","chosen_obj","unchosen_obj","explain_response","reward_amount","see_reward_rt","register_reward_response","register_reward_rt","deliberation_reward_tally","stimulus_left_deliberation_ind","stimulus_right_deliberation_ind","chosen_trial","gain_left","higher_outcome_chosen","old_pair","chosen_object","rt_pairs","left_object_chosen","rt_object","old_response","new_rating","deliberated_stim","initial_rating","outcome_eval_rt","outcome_eval_response","outcome_eval_gain","outcome_eval_acc","preamble","outcome_eval_confidence","outcome_eval_confidence_rt","total_reward_tally"
"true","full_screen","d01182023hr1358","fullscreen","0","3083","0.0-0.0","0","0","7ZxYS","People","","","","","","","","","","","","","","","","","","","","","","","","","","","","","","","","","","","","","","","","","","","","","","","","","",""
"","rating_instructions","","instructions","1","13046","0.0-1.0-0.0","0","0","7ZxYS","People","[{""page_index"":0,""viewing_time"":8112},{""page_index"":1,""viewing_time"":1849}]","9961","","","","","","","","","","","","","","","","","","","","","","","","","","","","","","","","","","","","","","","","","","","","","","","",""
"","","","survey-multi-choice","2","23078","0.0-1.0-1.0","0","0","7ZxYS","People","","10027","{""Q0"":""True"",""Q1"":""Mouse""}","rating_comprehension_check","0","","","","","","","","","","","","","","","","","","","","","","","","","","","","","","","","","","","","","","","","","","","","",""
"","start_phase","","html-keyboard-response","3","25007","0.0-2.0","0","0","7ZxYS","People","","1925","","","","78","","","","","","","","","","","","","","","","","","","","","","","","","","","","","","","","","","","","","","","","","","","",""
"","rating","","html-slider-response","4","28427","0.0-3.0","0","0","7ZxYS","People","","3417","","","","","66","46","stefan-stefancik-QXevDflbl8A-unsplash.jpg","0","","","","","","","","","","","","","","","","","","","","","","","","","","","","","","","","","","","","","","","",""
"","rating","","html-slider-response","5","32436","0.0-4.0","0","0","7ZxYS","People","","4007","","","","","33","42","prince-akachi-l3IHXOdMyHQ-unsplash.jpg","1","","","","","","","","","","","","","","","","","","","","","","","","","","","","","","","","","","","","","","","",""
"","rating","","html-slider-response","6","35827","0.0-5.0","0","0","7ZxYS","People","","3389","","","","","31","48","velizar-ivanov-7ktP9yZA1g4-unsplash.jpg","2","","","","","","","","","","","","","","","","","","","","","","","","","","","","","","","","","","","","","","","",""
"","rating","","html-slider-response","7","39477","0.0-6.0","0","0","7ZxYS","People","","3648","","","","","37","17","gleb-lukomets-paBzWCPN23k-unsplash.jpg","3","","","","","","","","","","","","","","","","","","","","","","","","","","","","","","","","","","","","","","","",""
"","rating","","html-slider-response","8","46530","0.0-7.0","0","0","7ZxYS","People","","7051","","","","","28","23","joanna-nix-walkup-H4fEMshfwTE-unsplash.jpg","4","","","","","","","","","","","","","","","","","","","","","","","","","","","","","","","","","","","","","","","",""
"","rating","","html-slider-response","9","50786","0.0-8.0","0","0","7ZxYS","People","","4255","","","","","39","8","bruce-dixon-3M9WJQVHzog-unsplash.jpg","5","","","","","","","","","","","","","","","","","","","","","","","","","","","","","","","","","","","","","","","",""
"","rating","","html-slider-response","10","54614","0.0-9.0","0","0","7ZxYS","People","","3826","","","","","75","38","petr-sevcovic-HzDF-rxlSeM-unsplash.jpg","6","","","","","","","","","","","","","","","","","","","","","","","","","","","","","","","","","","","","","","","",""
"","rating","","html-slider-response","11","58386","0.0-10.0","0","0","7ZxYS","People","","3770","","","","","30","32","nathan-dumlao-ger61_TX6oI-unsplash.jpg","7","","","","","","","","","","","","","","","","","","","","","","","","","","","","","","","","","","","","","","","",""
"","rating","","html-slider-response","12","61567","0.0-11.0","0","0","7ZxYS","People","","3178","","","","","72","7","brooke-cagle-HRZUzoX1e6w-unsplash.jpg","8","","","","","","","","","","","","","","","","","","","","","","","","","","","","","","","","","","","","","","","",""
"","rating","","html-slider-response","13","64837","0.0-12.0","0","0","7ZxYS","People","","3266","","","","","27","26","juri-gianfrancesco-9EZadYaMzk4-unsplash.jpg","9","","","","","","","","","","","","","","","","","","","","","","","","","","","","","","","","","","","","","","","",""
"","rating","","html-slider-response","14","68357","0.0-13.0","0","0","7ZxYS","People","","3518","","","","","84","13","erik-lucatero-d2MSDujJl2g-unsplash.jpg","10","","","","","","","","","","","","","","","","","","","","","","","","","","","","","","","","","","","","","","","",""
"","rating","","html-slider-response","15","71896","0.0-14.0","0","0","7ZxYS","People","","3537","","","","","64","49","vicky-hladynets-_gDoyVv5F4c-unsplash.jpg","11","","","","","","","","","","","","","","","","","","","","","","","","","","","","","","","","","","","","","","","",""
"","rating","","html-slider-response","16","75696","0.0-15.0","0","0","7ZxYS","People","","3799","","","","","37","6","ben-o-bro-C5XyLljkMrY-unsplash.jpg","12","","","","","","","","","","","","","","","","","","","","","","","","","","","","","","","","","","","","","","","",""
"","rating","","html-slider-response","17","78659","0.0-16.0","0","0","7ZxYS","People","","2961","","","","","70","33","olena-sergienko-0TSd6uCKTKc-unsplash.jpg","13","","","","","","","","","","","","","","","","","","","","","","","","","","","","","","","","","","","","","","","",""
"","rating","","html-slider-response","18","82286","0.0-17.0","0","0","7ZxYS","People","","3626","","","","","79","43","raamin-ka-0qJBEzudn5E-unsplash.jpg","14","","","","","","","","","","","","","","","","","","","","","","","","","","","","","","","","","","","","","","","",""
"","rating","","html-slider-response","19","87356","0.0-18.0","0","0","7ZxYS","People","","5068","","","","","72","40","prince-akachi-4Yv84VgQkRM-unsplash.jpg","15","","","","","","","","","","","","","","","","","","","","","","","","","","","","","","","","","","","","","","","",""
"","rating","","html-slider-response","20","91215","0.0-19.0","0","0","7ZxYS","People","","3856","","","","","28","4","barna-bartis-2x3vfVxwR7o-unsplash.jpg","16","","","","","","","","","","","","","","","","","","","","","","","","","","","","","","","","","","","","","","","",""
"","rating","","html-slider-response","21","94721","0.0-20.0","0","0","7ZxYS","People","","3503","","","","","65","3","art-hauntington-jzY0KRJopEI-unsplash.jpg","17","","","","","","","","","","","","","","","","","","","","","","","","","","","","","","","","","","","","","","","",""
"","rating","","html-slider-response","22","98895","0.0-21.0","0","0","7ZxYS","People","","4173","","","","","36","28","justin-chen-J7Cf1Gch49E-unsplash.jpg","18","","","","","","","","","","","","","","","","","","","","","","","","","","","","","","","","","","","","","","","",""
"","rating","","html-slider-response","23","102006","0.0-22.0","0","0","7ZxYS","People","","3109","","","","","75","24","joel-mott-LaK153ghdig-unsplash.jpg","19","","","","","","","","","","","","","","","","","","","","","","","","","","","","","","","","","","","","","","","",""
"","rating","","html-slider-response","24","105576","0.0-23.0","0","0","7ZxYS","People","","3568","","","","","95","19","ha-nguy-n-OFSQ6bHjFjs-unsplash.jpg","20","","","","","","","","","","","","","","","","","","","","","","","","","","","","","","","","","","","","","","","",""
"","rating","","html-slider-response","25","109116","0.0-24.0","0","0","7ZxYS","People","","3538","","","","","23","44","rikonavt-HQjfrvdTfak-unsplash.jpg","21","","","","","","","","","","","","","","","","","","","","","","","","","","","","","","","","","","","","","","","",""
"","rating","","html-slider-response","26","113086","0.0-25.0","0","0","7ZxYS","People","","3968","","","","","37","30","matheus-ferrero-pg_WCHWSdT8-unsplash.jpg","22","","","","","","","","","","","","","","","","","","","","","","","","","","","","","","","","","","","","","","","",""
"","rating","","html-slider-response","27","116606","0.0-26.0","0","0","7ZxYS","People","","3517","","","","","43","11","christian-ferrer-8vT-DgHZDG4-unsplash.jpg","23","","","","","","","","","","","","","","","","","","","","","","","","","","","","","","","","","","","","","","","",""
"","rating","","html-slider-response","28","120256","0.0-27.0","0","0","7ZxYS","People","","3647","","","","","79","10","charles-etoroma-95UF6LXe-Lo-unsplash.jpg","24","","","","","","","","","","","","","","","","","","","","","","","","","","","","","","","","","","","","","","","",""
"","rating","","html-slider-response","29","126155","0.0-28.0","0","0","7ZxYS","People","","5897","","","","","30","29","leilani-angel-K84vnnzxmTQ-unsplash.jpg","25","","","","","","","","","","","","","","","","","","","","","","","","","","","","","","","","","","","","","","","",""
"","rating","","html-slider-response","30","130606","0.0-29.0","0","0","7ZxYS","People","","4449","","","","","66","39","philip-martin-5aGUyCW_PJw-unsplash.jpg","26","","","","","","","","","","","","","","","","","","","","","","","","","","","","","","","","","","","","","","","",""
"","rating","","html-slider-response","31","134486","0.0-30.0","0","0","7ZxYS","People","","3877","","","","","36","27","jurica-koletic-7YVZYZeITc8-unsplash.jpg","27","","","","","","","","","","","","","","","","","","","","","","","","","","","","","","","","","","","","","","","",""
"","rating","","html-slider-response","32","139096","0.0-31.0","0","0","7ZxYS","People","","4607","","","","","68","1","aiony-haust-jmATI5Q_YgY-unsplash.jpg","28","","","","","","","","","","","","","","","","","","","","","","","","","","","","","","","","","","","","","","","",""
"","rating","","html-slider-response","33","142685","0.0-32.0","0","0","7ZxYS","People","","3586","","","","","35","47","tyler-nix-ZGa9d1a_4tA-unsplash.jpg","29","","","","","","","","","","","","","","","","","","","","","","","","","","","","","","","","","","","","","","","",""
"","rating","","html-slider-response","34","145134","0.0-33.0","0","0","7ZxYS","People","","2447","","","","","69","18","good-faces-xmSWVeGEnJw-unsplash.jpg","30","","","","","","","","","","","","","","","","","","","","","","","","","","","","","","","","","","","","","","","",""
"","rating","","html-slider-response","35","148075","0.0-34.0","0","0","7ZxYS","People","","2939","","","","","65","37","pavel-anoshin-d0peGya6R5Y-unsplash.jpg","31","","","","","","","","","","","","","","","","","","","","","","","","","","","","","","","","","","","","","","","",""
"","rating","","html-slider-response","36","150945","0.0-35.0","0","0","7ZxYS","People","","2868","","","","","39","2","arjunsyah-TBUA5KHJn6k-unsplash.jpg","32","","","","","","","","","","","","","","","","","","","","","","","","","","","","","","","","","","","","","","","",""
"","rating","","html-slider-response","37","165964","0.0-36.0","0","0","7ZxYS","People","","15017","","","","","33","0","abstral-official-cyOKLSgkgCE-unsplash.jpg","33","","","","","","","","","","","","","","","","","","","","","","","","","","","","","","","","","","","","","","","",""
"","rating","","html-slider-response","38","170366","0.0-37.0","0","0","7ZxYS","People","","4400","","","","","21","14","freddy-kearney-o-ioeoATbIM-unsplash.jpg","34","","","","","","","","","","","","","","","","","","","","","","","","","","","","","","","","","","","","","","","",""
"","rating","","html-slider-response","39","174525","0.0-38.0","0","0","7ZxYS","People","","4157","","","","","70","45","sarah-noltner-pL5ZzPp1zqg-unsplash.jpg","35","","","","","","","","","","","","","","","","","","","","","","","","","","","","","","","","","","","","","","","",""
"","rating","","html-slider-response","40","179084","0.0-39.0","0","0","7ZxYS","People","","4558","","","","","79","5","batel-studio-ttSRjiYG_WM-unsplash.jpg","36","","","","","","","","","","","","","","","","","","","","","","","","","","","","","","","","","","","","","","","",""
"","rating","","html-slider-response","41","182894","0.0-40.0","0","0","7ZxYS","People","","3808","","","","","94","25","joseph-gonzalez-iFgRcqHznqg-unsplash.jpg","37","","","","","","","","","","","","","","","","","","","","","","","","","","","","","","","","","","","","","","","",""
"","rating","","html-slider-response","42","186794","0.0-41.0","0","0","7ZxYS","People","","3899","","","","","65","41","prince-akachi-i2hoD-C2RUA-unsplash.jpg","38","","","","","","","","","","","","","","","","","","","","","","","","","","","","","","","","","","","","","","","",""
"","rating","","html-slider-response","43","190044","0.0-42.0","0","0","7ZxYS","People","","3248","","","","","61","35","oliver-ragfelt-khV4fTy6-D8-unsplash.jpg","39","","","","","","","","","","","","","","","","","","","","","","","","","","","","","","","","","","","","","","","",""
"","rating","","html-slider-response","44","193416","0.0-43.0","0","0","7ZxYS","People","","3369","","","","","28","20","houcine-ncib-B4TjXnI0Y2c-unsplash.jpg","40","","","","","","","","","","","","","","","","","","","","","","","","","","","","","","","","","","","","","","","",""
"","rating","","html-slider-response","45","196625","0.0-44.0","0","0","7ZxYS","People","","3207","","","","","59","16","giano-currie-5-9YOsmf8IQ-unsplash.jpg","41","","","","","","","","","","","","","","","","","","","","","","","","","","","","","","","","","","","","","","","",""
"","rating","","html-slider-response","46","199598","0.0-45.0","0","0","7ZxYS","People","","2970","","","","","31","36","ospan-ali-mGdA2fzjWLo-unsplash.jpg","42","","","","","","","","","","","","","","","","","","","","","","","","","","","","","","","","","","","","","","","",""
"","rating","","html-slider-response","47","202815","0.0-46.0","0","0","7ZxYS","People","","3214","","","","","71","15","gabriel-silverio-u3WmDyKGsrY-unsplash.jpg","43","","","","","","","","","","","","","","","","","","","","","","","","","","","","","","","","","","","","","","","",""
"","rating","","html-slider-response","48","217416","0.0-47.0","0","0","7ZxYS","People","","14599","","","","","66","21","jessica-felicio-_cvwXhGqG-o-unsplash.jpg","44","","","","","","","","","","","","","","","","","","","","","","","","","","","","","","","","","","","","","","","",""
"","rating","","html-slider-response","49","221995","0.0-48.0","0","0","7ZxYS","People","","4577","","","","","40","12","daniel-rigdon-dXmXKPP2L4E-unsplash.jpg","45","","","","","","","","","","","","","","","","","","","","","","","","","","","","","","","","","","","","","","","",""
"","rating","","html-slider-response","50","224784","0.0-49.0","0","0","7ZxYS","People","","2788","","","","","78","22","jessica-radanavong-mrYkTuAesKE-unsplash.jpg","46","","","","","","","","","","","","","","","","","","","","","","","","","","","","","","","","","","","","","","","",""
"","rating","","html-slider-response","51","227756","0.0-50.0","0","0","7ZxYS","People","","2970","","","","","35","9","carlos-andres-gomez-vJuk8Y86mRw-unsplash.jpg","47","","","","","","","","","","","","","","","","","","","","","","","","","","","","","","","","","","","","","","","",""
"","rating","","html-slider-response","52","231275","0.0-51.0","0","0","7ZxYS","People","","3517","","","","","75","34","oliver-johnson-1TUIcKob7Zs-unsplash.jpg","48","","","","","","","","","","","","","","","","","","","","","","","","","","","","","","","","","","","","","","","",""
"","rating","","html-slider-response","53","235004","0.0-52.0","0","0","7ZxYS","People","","3727","","","","","28","31","mathilda-khoo-vLR0YP_otCo-unsplash.jpg","49","","","","","","","","","","","","","","","","","","","","","","","","","","","","","","","","","","","","","","","",""
"","deliberation_instructions","","instructions","54","271541","0.0-53.0-0.0","0","0","7ZxYS","People","[{""page_index"":0,""viewing_time"":10439},{""page_index"":1,""viewing_time"":9039},{""page_index"":2,""viewing_time"":8959},{""page_index"":3,""viewing_time"":6443},{""page_index"":4,""viewing_time"":1654}]","36534","","","","","","","","","","","","","","","","","","","","","","","","","","","","","","","","","","","","","","","","","","","","","","","",""
"","","","survey-multi-choice","55","299246","0.0-53.0-1.0","0","0","7ZxYS","People","","27696","{""Q0"":""True"",""Q1"":""False"",""Q2"":""Consider carefully and take your time (up to 10 seconds)"",""Q3"":""True"",""Q4"":""K""}","deliberation_comprehension_check","1","","","","","","","","","","","","","","","","","","","","","","","","","","","","","","","","","","","","","","","","","","","","",""
"","missed_instruction_checkup","","html-keyboard-response","56","301375","0.0-53.0-2.0-0.0","0","1","7ZxYS","People","","2126","","","","78","","","","","","","","","","","","","","","","","","","","","","","","","","","","","","","","","","","","","","","","","","","",""
"","deliberation_instructions","","instructions","57","331330","0.0-53.1-0.1","0","0","7ZxYS","People","[{""page_index"":0,""viewing_time"":4438},{""page_index"":1,""viewing_time"":6160},{""page_index"":2,""viewing_time"":14599},{""page_index"":3,""viewing_time"":3431},{""page_index"":4,""viewing_time"":1324}]","29953","","","","","","","","","","","","","","","","","","","","","","","","","","","","","","","","","","","","","","","","","","","","","","","",""
"","","","survey-multi-choice","58","352104","0.0-53.1-1.1","0","0","7ZxYS","People","","20770","{""Q0"":""True"",""Q1"":""False"",""Q2"":""Consider carefully and take your time (up to 10 seconds)"",""Q3"":""True"",""Q4"":""D""}","deliberation_comprehension_check","1","","","","","","","","","","","","","","","","","","","","","","","","","","","","","","","","","","","","","","","","","","","","",""
"","missed_instruction_checkup","","html-keyboard-response","59","353546","0.0-53.1-2.1-0.1","0","1","7ZxYS","People","","1440","","","","78","","","","","","","","","","","","","","","","","","","","","","","","","","","","","","","","","","","","","","","","","","","",""
"","deliberation_instructions","","instructions","60","372753","0.0-53.2-0.2","0","0","7ZxYS","People","[{""page_index"":0,""viewing_time"":4427},{""page_index"":1,""viewing_time"":6239},{""page_index"":2,""viewing_time"":5111},{""page_index"":3,""viewing_time"":2270},{""page_index"":4,""viewing_time"":1159}]","19206","","","","","","","","","","","","","","","","","","","","","","","","","","","","","","","","","","","","","","","","","","","","","","","",""
"","","","survey-multi-choice","61","390674","0.0-53.2-1.2","0","0","7ZxYS","People","","17915","{""Q0"":""True"",""Q1"":""True"",""Q2"":""Consider carefully and take your time (up to 10 seconds)"",""Q3"":""True"",""Q4"":""D""}","deliberation_comprehension_check","0","","","","","","","","","","","","","","","","","","","","","","","","","","","","","","","","","","","","","","","","","","","","",""
"","start_phase","","html-keyboard-response","62","392404","0.0-54.0","0","0","7ZxYS","People","","1715","","","","78","","","","","","","","","","","","","","","","","","","","","","","","","","","","","","","","","","","","","","","","","","","",""
"","first_deliberation_block","","html-keyboard-response","63","393753","0.0-55.0","0","0","7ZxYS","People","","1348","","","","78","","","","","","","","","","","","","","","","","","","","","","","","","","","","","","","","","","","","","","","","","","","",""
"","fixation","","html-keyboard-response","64","394760","0.0-56.0-0.0","0","0","7ZxYS","People","","null","","","","null","","","","","","","","","","","","","","","","","","","","","","","","","","","","","","","","","","","","","","","","","","","",""
"","deliberation","","html-keyboard-response","65","399054","0.0-56.0-1.0","0","0","7ZxYS","People","","4291","","","","68","","","","0","2","35","0","-1","39","61","arjunsyah-TBUA5KHJn6k-unsplash.jpg","oliver-ragfelt-khV4fTy6-D8-unsplash.jpg","1","1","2","35","","","","","","","","","","","","","","","","","","","","","","","","","","","",""
"","choice_confirmation","","html-keyboard-response","66","399564","0.0-56.0-2.0-0.0","0","0","7ZxYS","People","","null","","","","null","","","","0","2","35","","","","","","","","","","","","","","","","","","","","","","","","","","","","","","","","","","","","","",""
"","fixation","","html-keyboard-response","67","400580","0.0-57.0-0.0","0","0","7ZxYS","People","","null","","","","null","","","","","","","","","","","","","","","","","","","","","","","","","","","","","","","","","","","","","","","","","","","",""
"","deliberation","","html-keyboard-response","68","403114","0.0-57.0-1.0","0","0","7ZxYS","People","","2532","","","","68","","","","1","27","1","1","-1","36","68","jurica-koletic-7YVZYZeITc8-unsplash.jpg","aiony-haust-jmATI5Q_YgY-unsplash.jpg","1","1","27","1","","","","","","","","","","","","","","","","","","","","","","","","","","","",""
"","choice_confirmation","","html-keyboard-response","69","403616","0.0-57.0-2.0-0.0","0","0","7ZxYS","People","","null","","","","null","","","","1","27","1","","","","","","","","","","","","","","","","","","","","","","","","","","","","","","","","","","","","","",""
"","explain_trial","","survey-text","70","423974","0.0-57.0-5.0-0.0","0","0","7ZxYS","People","","20353","{""Q0"":""This photograph was better than other one""}","","","","","","","1","27","1","","","","","","","","","","","{""Q0"":""This photograph was better than other one""}","","","","","","","","","","","","","","","","","","","","","","","","","","",""
"","fixation","","html-keyboard-response","71","424978","0.0-58.0-0.0","0","0","7ZxYS","People","","null","","","","null","","","","","","","","","","","","","","","","","","","","","","","","","","","","","","","","","","","","","","","","","","","",""
"","deliberation","","html-keyboard-response","72","434987","0.0-58.0-1.0","0","0","7ZxYS","People","","null","","","","null","","","","2","17","21","0","1","37","66","gleb-lukomets-paBzWCPN23k-unsplash.jpg","jessica-felicio-_cvwXhGqG-o-unsplash.jpg","1","","","","","","","","","","","","","","","","","","","","","","","","","","","","","","",""
"","deliberation_too_slow","","html-keyboard-response","73","436503","0.0-58.0-4.0-0.0","1","0","7ZxYS","People","","null","","","","null","","","","2","","","","","","","","","","","","","","","","","","","","","","","","","","","","","","","","","","","","","","","",""
"","fixation","","html-keyboard-response","74","437517","0.0-58.1-0.1","0","0","7ZxYS","People","","null","","","","null","","","","","","","","","","","","","","","","","","","","","","","","","","","","","","","","","","","","","","","","","","","",""
"","deliberation","","html-keyboard-response","75","439833","0.0-58.1-1.1","0","0","7ZxYS","People","","2310","","","","68","","","","2","17","21","0","1","37","66","gleb-lukomets-paBzWCPN23k-unsplash.jpg","jessica-felicio-_cvwXhGqG-o-unsplash.jpg","1","1","17","21","","","","","","","","","","","","","","","","","","","","","","","","","","","",""
"","choice_confirmation","","html-keyboard-response","76","440337","0.0-58.1-2.1-0.1","0","0","7ZxYS","People","","null","","","","null","","","","2","17","21","","","","","","","","","","","","","","","","","","","","","","","","","","","","","","","","","","","","","",""
"","fixation","","html-keyboard-response","77","441344","0.0-59.0-0.0","0","0","7ZxYS","People","","null","","","","null","","","","","","","","","","","","","","","","","","","","","","","","","","","","","","","","","","","","","","","","","","","",""
"","deliberation","","html-keyboard-response","78","443407","0.0-59.0-1.0","0","0","7ZxYS","People","","2061","","","","75","","","","3","16","33","1","1","59","70","giano-currie-5-9YOsmf8IQ-unsplash.jpg","olena-sergienko-0TSd6uCKTKc-unsplash.jpg","1","0","33","16","","","","","","","","","","","","","","","","","","","","","","","","","","","",""
"","choice_confirmation","","html-keyboard-response","79","443913","0.0-59.0-2.0-0.0","0","0","7ZxYS","People","","null","","","","null","","","","3","16","33","","","","","","","","","","","","","","","","","","","","","","","","","","","","","","","","","","","","","",""
"","explain_trial","","survey-text","80","461137","0.0-59.0-5.0-0.0","0","0","7ZxYS","People","","17222","{""Q0"":""the photograph was good ""}","","","","","","","3","16","33","","","","","","","","","","","{""Q0"":""the photograph was good ""}","","","","","","","","","","","","","","","","","","","","","","","","","","",""
"","fixation","","html-keyboard-response","81","462142","0.0-60.0-0.0","0","0","7ZxYS","People","","null","","","","null","","","","","","","","","","","","","","","","","","","","","","","","","","","","","","","","","","","","","","","","","","","",""
"","deliberation","","html-keyboard-response","82","464912","0.0-60.0-1.0","0","0","7ZxYS","People","","2769","","","","68","","","","4","18","12","0","1","69","40","good-faces-xmSWVeGEnJw-unsplash.jpg","daniel-rigdon-dXmXKPP2L4E-unsplash.jpg","1","1","18","12","","","","","","","","","","","","","","","","","","","","","","","","","","","",""
"","choice_confirmation","","html-keyboard-response","83","465417","0.0-60.0-2.0-0.0","0","0","7ZxYS","People","","null","","","","null","","","","4","18","12","","","","","","","","","","","","","","","","","","","","","","","","","","","","","","","","","","","","","",""
"","fixation","","html-keyboard-response","84","466423","0.0-61.0-0.0","0","0","7ZxYS","People","","null","","","","null","","","","","","","","","","","","","","","","","","","","","","","","","","","","","","","","","","","","","","","","","","","",""
"","deliberation","","html-keyboard-response","85","467993","0.0-61.0-1.0","0","0","7ZxYS","People","","1559","","","","68","","","","5","11","37","0","1","43","65","christian-ferrer-8vT-DgHZDG4-unsplash.jpg","pavel-anoshin-d0peGya6R5Y-unsplash.jpg","1","1","11","37","","","","","","","","","","","","","","","","","","","","","","","","","","","",""
"","choice_confirmation","","html-keyboard-response","86","468494","0.0-61.0-2.0-0.0","0","0","7ZxYS","People","","null","","","","null","","","","5","11","37","","","","","","","","","","","","","","","","","","","","","","","","","","","","","","","","","","","","","",""
"","fixation","","html-keyboard-response","87","469506","0.0-62.0-0.0","0","0","7ZxYS","People","","null","","","","null","","","","","","","","","","","","","","","","","","","","","","","","","","","","","","","","","","","","","","","","","","","",""
"","deliberation","","html-keyboard-response","88","471213","0.0-62.0-1.0","0","0","7ZxYS","People","","1696","","","","68","","","","6","45","28","0","-1","70","36","sarah-noltner-pL5ZzPp1zqg-unsplash.jpg","justin-chen-J7Cf1Gch49E-unsplash.jpg","1","1","45","28","","","","","","","","","","","","","","","","","","","","","","","","","","","",""
"","choice_confirmation","","html-keyboard-response","89","471724","0.0-62.0-2.0-0.0","0","0","7ZxYS","People","","null","","","","null","","","","6","45","28","","","","","","","","","","","","","","","","","","","","","","","","","","","","","","","","","","","","","",""
"","fixation","","html-keyboard-response","90","472734","0.0-63.0-0.0","0","0","7ZxYS","People","","null","","","","null","","","","","","","","","","","","","","","","","","","","","","","","","","","","","","","","","","","","","","","","","","","",""
"","deliberation","","html-keyboard-response","91","474731","0.0-63.0-1.0","0","0","7ZxYS","People","","1997","","","","75","","","","7","46","41","1","-1","66","65","stefan-stefancik-QXevDflbl8A-unsplash.jpg","prince-akachi-i2hoD-C2RUA-unsplash.jpg","1","0","41","46","","","","","","","","","","","","","","","","","","","","","","","","","","","",""
"","choice_confirmation","","html-keyboard-response","92","475238","0.0-63.0-2.0-0.0","0","0","7ZxYS","People","","null","","","","null","","","","7","46","41","","","","","","","","","","","","","","","","","","","","","","","","","","","","","","","","","","","","","",""
"","explain_trial","","survey-text","93","495172","0.0-63.0-5.0-0.0","0","0","7ZxYS","People","","19933","{""Q0"":""that person looks pretty""}","","","","","","","7","46","41","","","","","","","","","","","{""Q0"":""that person looks pretty""}","","","","","","","","","","","","","","","","","","","","","","","","","","",""
"","fixation","","html-keyboard-response","94","496176","0.0-64.0-0.0","0","0","7ZxYS","People","","null","","","","null","","","","","","","","","","","","","","","","","","","","","","","","","","","","","","","","","","","","","","","","","","","",""
"","deliberation","","html-keyboard-response","95","497963","0.0-64.0-1.0","0","0","7ZxYS","People","","1786","","","","68","","","","8","6","30","1","1","37","37","ben-o-bro-C5XyLljkMrY-unsplash.jpg","matheus-ferrero-pg_WCHWSdT8-unsplash.jpg","1","1","6","30","","","","","","","","","","","","","","","","","","","","","","","","","","","",""
"","choice_confirmation","","html-keyboard-response","96","498470","0.0-64.0-2.0-0.0","0","0","7ZxYS","People","","null","","","","null","","","","8","6","30","","","","","","","","","","","","","","","","","","","","","","","","","","","","","","","","","","","","","",""
"","explain_trial","","survey-text","97","511434","0.0-64.0-5.0-0.0","0","0","7ZxYS","People","","12962","{""Q0"":""The photograph was different""}","","","","","","","8","6","30","","","","","","","","","","","{""Q0"":""The photograph was different""}","","","","","","","","","","","","","","","","","","","","","","","","","","",""
"","fixation","","html-keyboard-response","98","512449","0.0-65.0-0.0","0","0","7ZxYS","People","","null","","","","null","","","","","","","","","","","","","","","","","","","","","","","","","","","","","","","","","","","","","","","","","","","",""
"","deliberation","","html-keyboard-response","99","514909","0.0-65.0-1.0","0","0","7ZxYS","People","","2459","","","","75","","","","9","39","3","0","-1","66","65","philip-martin-5aGUyCW_PJw-unsplash.jpg","art-hauntington-jzY0KRJopEI-unsplash.jpg","1","0","3","39","","","","","","","","","","","","","","","","","","","","","","","","","","","",""
"","choice_confirmation","","html-keyboard-response","100","515422","0.0-65.0-2.0-0.0","0","0","7ZxYS","People","","null","","","","null","","","","9","39","3","","","","","","","","","","","","","","","","","","","","","","","","","","","","","","","","","","","","","",""
"","fixation","","html-keyboard-response","101","516440","0.0-66.0-0.0","0","0","7ZxYS","People","","null","","","","null","","","","","","","","","","","","","","","","","","","","","","","","","","","","","","","","","","","","","","","","","","","",""
"","deliberation","","html-keyboard-response","102","518533","0.0-66.0-1.0","0","0","7ZxYS","People","","2089","","","","68","","","","10","9","47","1","1","35","35","carlos-andres-gomez-vJuk8Y86mRw-unsplash.jpg","tyler-nix-ZGa9d1a_4tA-unsplash.jpg","1","1","9","47","","","","","","","","","","","","","","","","","","","","","","","","","","","",""
"","choice_confirmation","","html-keyboard-response","103","519047","0.0-66.0-2.0-0.0","0","0","7ZxYS","People","","null","","","","null","","","","10","9","47","","","","","","","","","","","","","","","","","","","","","","","","","","","","","","","","","","","","","",""
"","explain_trial","","survey-text","104","532564","0.0-66.0-5.0-0.0","0","0","7ZxYS","People","","13516","{""Q0"":""A photograph was good ""}","","","","","","","10","9","47","","","","","","","","","","","{""Q0"":""A photograph was good ""}","","","","","","","","","","","","","","","","","","","","","","","","","","",""
"","fixation","","html-keyboard-response","105","533567","0.0-67.0-0.0","0","0","7ZxYS","People","","null","","","","null","","","","","","","","","","","","","","","","","","","","","","","","","","","","","","","","","","","","","","","","","","","",""
"","deliberation","","html-keyboard-response","106","535613","0.0-67.0-1.0","0","0","7ZxYS","People","","2044","","","","68","","","","11","49","8","1","-1","64","39","vicky-hladynets-_gDoyVv5F4c-unsplash.jpg","bruce-dixon-3M9WJQVHzog-unsplash.jpg","1","1","49","8","","","","","","","","","","","","","","","","","","","","","","","","","","","",""
"","choice_confirmation","","html-keyboard-response","107","536144","0.0-67.0-2.0-0.0","0","0","7ZxYS","People","","null","","","","null","","","","11","49","8","","","","","","","","","","","","","","","","","","","","","","","","","","","","","","","","","","","","","",""
"","explain_trial","","survey-text","108","549564","0.0-67.0-5.0-0.0","0","0","7ZxYS","People","","13418","{""Q0"":""The photograph makes pretty""}","","","","","","","11","49","8","","","","","","","","","","","{""Q0"":""The photograph makes pretty""}","","","","","","","","","","","","","","","","","","","","","","","","","","",""
"","practice_deliberation_again","","html-keyboard-response","109","1472046","0.0-67.0-6.0-0.0","0","0","7ZxYS","People","","922482","","","","78","","","","","","","","","","","","","","","","","","","","","","","","","","","","","","","","","","","","","","","","","","","",""
"","fixation","","html-keyboard-response","110","1473063","0.0-68.0-0.0","0","0","7ZxYS","People","","null","","","","null","","","","","","","","","","","","","","","","","","","","","","","","","","","","","","","","","","","","","","","","","","","",""
"","deliberation","","html-keyboard-response","111","1474748","0.0-68.0-1.0","0","0","7ZxYS","People","","1682","","","","68","","","","12","9","47","0","1","35","35","carlos-andres-gomez-vJuk8Y86mRw-unsplash.jpg","tyler-nix-ZGa9d1a_4tA-unsplash.jpg","2","1","9","47","","","","","","","","","","","","","","","","","","","","","","","","","","","",""
"","choice_confirmation","","html-keyboard-response","112","1475253","0.0-68.0-2.0-0.0","0","0","7ZxYS","People","","null","","","","null","","","","12","9","47","","","","","","","","","","","","","","","","","","","","","","","","","","","","","","","","","","","","","",""
"","fixation","","html-keyboard-response","113","1476261","0.0-69.0-0.0","0","0","7ZxYS","People","","null","","","","null","","","","","","","","","","","","","","","","","","","","","","","","","","","","","","","","","","","","","","","","","","","",""
"","deliberation","","html-keyboard-response","114","1477388","0.0-69.0-1.0","0","0","7ZxYS","People","","1126","","","","75","","","","13","18","12","1","1","69","40","good-faces-xmSWVeGEnJw-unsplash.jpg","daniel-rigdon-dXmXKPP2L4E-unsplash.jpg","2","0","12","18","","","","","","","","","","","","","","","","","","","","","","","","","","","",""
"","choice_confirmation","","html-keyboard-response","115","1477894","0.0-69.0-2.0-0.0","0","0","7ZxYS","People","","null","","","","null","","","","13","18","12","","","","","","","","","","","","","","","","","","","","","","","","","","","","","","","","","","","","","",""
"","explain_trial","","survey-text","116","1488645","0.0-69.0-5.0-0.0","0","0","7ZxYS","People","","10749","{""Q0"":""The photograph was good""}","","","","","","","13","18","12","","","","","","","","","","","{""Q0"":""The photograph was good""}","","","","","","","","","","","","","","","","","","","","","","","","","","",""
"","fixation","","html-keyboard-response","117","1489653","0.0-70.0-0.0","0","0","7ZxYS","People","","null","","","","null","","","","","","","","","","","","","","","","","","","","","","","","","","","","","","","","","","","","","","","","","","","",""
"","deliberation","","html-keyboard-response","118","1491777","0.0-70.0-1.0","0","0","7ZxYS","People","","2122","","","","75","","","","14","17","21","1","1","37","66","gleb-lukomets-paBzWCPN23k-unsplash.jpg","jessica-felicio-_cvwXhGqG-o-unsplash.jpg","2","0","21","17","","","","","","","","","","","","","","","","","","","","","","","","","","","",""
"","choice_confirmation","","html-keyboard-response","119","1492279","0.0-70.0-2.0-0.0","0","0","7ZxYS","People","","null","","","","null","","","","14","17","21","","","","","","","","","","","","","","","","","","","","","","","","","","","","","","","","","","","","","",""
"","explain_trial","","survey-text","120","1503726","0.0-70.0-5.0-0.0","0","0","7ZxYS","People","","11446","{""Q0"":""There was a better than others""}","","","","","","","14","17","21","","","","","","","","","","","{""Q0"":""There was a better than others""}","","","","","","","","","","","","","","","","","","","","","","","","","","",""
"","fixation","","html-keyboard-response","121","1504735","0.0-71.0-0.0","0","0","7ZxYS","People","","null","","","","null","","","","","","","","","","","","","","","","","","","","","","","","","","","","","","","","","","","","","","","","","","","",""
"","deliberation","","html-keyboard-response","122","1506416","0.0-71.0-1.0","0","0","7ZxYS","People","","1680","","","","68","","","","15","45","28","1","-1","70","36","sarah-noltner-pL5ZzPp1zqg-unsplash.jpg","justin-chen-J7Cf1Gch49E-unsplash.jpg","2","1","45","28","","","","","","","","","","","","","","","","","","","","","","","","","","","",""
"","choice_confirmation","","html-keyboard-response","123","1506917","0.0-71.0-2.0-0.0","0","0","7ZxYS","People","","null","","","","null","","","","15","45","28","","","","","","","","","","","","","","","","","","","","","","","","","","","","","","","","","","","","","",""
"","explain_trial","","survey-text","124","1516127","0.0-71.0-5.0-0.0","0","0","7ZxYS","People","","9209","{""Q0"":""The photo was too good""}","","","","","","","15","45","28","","","","","","","","","","","{""Q0"":""The photo was too good""}","","","","","","","","","","","","","","","","","","","","","","","","","","",""
"","fixation","","html-keyboard-response","125","1517139","0.0-72.0-0.0","0","0","7ZxYS","People","","null","","","","null","","","","","","","","","","","","","","","","","","","","","","","","","","","","","","","","","","","","","","","","","","","",""
"","deliberation","","html-keyboard-response","126","1519146","0.0-72.0-1.0","0","0","7ZxYS","People","","2005","","","","75","","","","16","6","30","0","1","37","37","ben-o-bro-C5XyLljkMrY-unsplash.jpg","matheus-ferrero-pg_WCHWSdT8-unsplash.jpg","2","0","30","6","","","","","","","","","","","","","","","","","","","","","","","","","","","",""
"","choice_confirmation","","html-keyboard-response","127","1519658","0.0-72.0-2.0-0.0","0","0","7ZxYS","People","","null","","","","null","","","","16","6","30","","","","","","","","","","","","","","","","","","","","","","","","","","","","","","","","","","","","","",""
"","fixation","","html-keyboard-response","128","1520677","0.0-73.0-0.0","0","0","7ZxYS","People","","null","","","","null","","","","","","","","","","","","","","","","","","","","","","","","","","","","","","","","","","","","","","","","","","","",""
"","deliberation","","html-keyboard-response","129","1522490","0.0-73.0-1.0","0","0","7ZxYS","People","","1808","","","","68","","","","17","2","35","1","-1","39","61","arjunsyah-TBUA5KHJn6k-unsplash.jpg","oliver-ragfelt-khV4fTy6-D8-unsplash.jpg","2","1","2","35","","","","","","","","","","","","","","","","","","","","","","","","","","","",""
"","choice_confirmation","","html-keyboard-response","130","1523001","0.0-73.0-2.0-0.0","0","0","7ZxYS","People","","null","","","","null","","","","17","2","35","","","","","","","","","","","","","","","","","","","","","","","","","","","","","","","","","","","","","",""
"","explain_trial","","survey-text","131","1534547","0.0-73.0-5.0-0.0","0","0","7ZxYS","People","","11544","{""Q0"":""The photograph was good ""}","","","","","","","17","2","35","","","","","","","","","","","{""Q0"":""The photograph was good ""}","","","","","","","","","","","","","","","","","","","","","","","","","","",""
"","fixation","","html-keyboard-response","132","1535562","0.0-74.0-0.0","0","0","7ZxYS","People","","null","","","","null","","","","","","","","","","","","","","","","","","","","","","","","","","","","","","","","","","","","","","","","","","","",""
"","deliberation","","html-keyboard-response","133","1537567","0.0-74.0-1.0","0","0","7ZxYS","People","","2003","","","","75","","","","18","46","41","0","-1","66","65","stefan-stefancik-QXevDflbl8A-unsplash.jpg","prince-akachi-i2hoD-C2RUA-unsplash.jpg","2","0","41","46","","","","","","","","","","","","","","","","","","","","","","","","","","","",""
"","choice_confirmation","","html-keyboard-response","134","1538077","0.0-74.0-2.0-0.0","0","0","7ZxYS","People","","null","","","","null","","","","18","46","41","","","","","","","","","","","","","","","","","","","","","","","","","","","","","","","","","","","","","",""
"","fixation","","html-keyboard-response","135","1539101","0.0-75.0-0.0","0","0","7ZxYS","People","","null","","","","null","","","","","","","","","","","","","","","","","","","","","","","","","","","","","","","","","","","","","","","","","","","",""
"","deliberation","","html-keyboard-response","136","1540286","0.0-75.0-1.0","0","0","7ZxYS","People","","1179","","","","68","","","","19","39","3","1","-1","66","65","philip-martin-5aGUyCW_PJw-unsplash.jpg","art-hauntington-jzY0KRJopEI-unsplash.jpg","2","1","39","3","","","","","","","","","","","","","","","","","","","","","","","","","","","",""
"","choice_confirmation","","html-keyboard-response","137","1540790","0.0-75.0-2.0-0.0","0","0","7ZxYS","People","","null","","","","null","","","","19","39","3","","","","","","","","","","","","","","","","","","","","","","","","","","","","","","","","","","","","","",""
"","explain_trial","","survey-text","138","1551267","0.0-75.0-5.0-0.0","0","0","7ZxYS","People","","10475","{""Q0"":""The photograph was good""}","","","","","","","19","39","3","","","","","","","","","","","{""Q0"":""The photograph was good""}","","","","","","","","","","","","","","","","","","","","","","","","","","",""
"","fixation","","html-keyboard-response","139","1552270","0.0-76.0-0.0","0","0","7ZxYS","People","","null","","","","null","","","","","","","","","","","","","","","","","","","","","","","","","","","","","","","","","","","","","","","","","","","",""
"","deliberation","","html-keyboard-response","140","1554327","0.0-76.0-1.0","0","0","7ZxYS","People","","2056","","","","75","","","","20","16","33","0","1","59","70","giano-currie-5-9YOsmf8IQ-unsplash.jpg","olena-sergienko-0TSd6uCKTKc-unsplash.jpg","2","0","33","16","","","","","","","","","","","","","","","","","","","","","","","","","","","",""
"","choice_confirmation","","html-keyboard-response","141","1554829","0.0-76.0-2.0-0.0","0","0","7ZxYS","People","","null","","","","null","","","","20","16","33","","","","","","","","","","","","","","","","","","","","","","","","","","","","","","","","","","","","","",""
"","fixation","","html-keyboard-response","142","1555904","0.0-77.0-0.0","0","0","7ZxYS","People","","null","","","","null","","","","","","","","","","","","","","","","","","","","","","","","","","","","","","","","","","","","","","","","","","","",""
"","deliberation","","html-keyboard-response","143","1556946","0.0-77.0-1.0","0","0","7ZxYS","People","","1026","","","","68","","","","21","11","37","1","1","43","65","christian-ferrer-8vT-DgHZDG4-unsplash.jpg","pavel-anoshin-d0peGya6R5Y-unsplash.jpg","2","1","11","37","","","","","","","","","","","","","","","","","","","","","","","","","","","",""
"","choice_confirmation","","html-keyboard-response","144","1557453","0.0-77.0-2.0-0.0","0","0","7ZxYS","People","","null","","","","null","","","","21","11","37","","","","","","","","","","","","","","","","","","","","","","","","","","","","","","","","","","","","","",""
"","explain_trial","","survey-text","145","1569267","0.0-77.0-5.0-0.0","0","0","7ZxYS","People","","11812","{""Q0"":""The photograph was better one""}","","","","","","","21","11","37","","","","","","","","","","","{""Q0"":""The photograph was better one""}","","","","","","","","","","","","","","","","","","","","","","","","","","",""
"","fixation","","html-keyboard-response","146","1570298","0.0-78.0-0.0","0","0","7ZxYS","People","","null","","","","null","","","","","","","","","","","","","","","","","","","","","","","","","","","","","","","","","","","","","","","","","","","",""
"","deliberation","","html-keyboard-response","147","1580312","0.0-78.0-1.0","0","0","7ZxYS","People","","null","","","","null","","","","22","49","8","0","-1","64","39","vicky-hladynets-_gDoyVv5F4c-unsplash.jpg","bruce-dixon-3M9WJQVHzog-unsplash.jpg","2","","","","","","","","","","","","","","","","","","","","","","","","","","","","","","",""
"","deliberation_too_slow","","html-keyboard-response","148","1581827","0.0-78.0-4.0-0.0","1","0","7ZxYS","People","","null","","","","null","","","","22","","","","","","","","","","","","","","","","","","","","","","","","","","","","","","","","","","","","","","","",""
"","fixation","","html-keyboard-response","149","1582864","0.0-78.1-0.1","0","0","7ZxYS","People","","null","","","","null","","","","","","","","","","","","","","","","","","","","","","","","","","","","","","","","","","","","","","","","","","","",""
"","deliberation","","html-keyboard-response","150","1592874","0.0-78.1-1.1","0","0","7ZxYS","People","","null","","","","null","","","","22","49","8","0","-1","64","39","vicky-hladynets-_gDoyVv5F4c-unsplash.jpg","bruce-dixon-3M9WJQVHzog-unsplash.jpg","2","","","","","","","","","","","","","","","","","","","","","","","","","","","","","","",""
"","deliberation_too_slow","","html-keyboard-response","151","1594392","0.0-78.1-4.1-0.1","1","0","7ZxYS","People","","null","","","","null","","","","22","","","","","","","","","","","","","","","","","","","","","","","","","","","","","","","","","","","","","","","",""
"","fixation","","html-keyboard-response","152","1595398","0.0-78.2-0.2","0","0","7ZxYS","People","","null","","","","null","","","","","","","","","","","","","","","","","","","","","","","","","","","","","","","","","","","","","","","","","","","",""
"","deliberation","","html-keyboard-response","153","1596946","0.0-78.2-1.2","0","0","7ZxYS","People","","1547","","","","68","","","","22","49","8","0","-1","64","39","vicky-hladynets-_gDoyVv5F4c-unsplash.jpg","bruce-dixon-3M9WJQVHzog-unsplash.jpg","2","1","49","8","","","","","","","","","","","","","","","","","","","","","","","","","","","",""
"","choice_confirmation","","html-keyboard-response","154","1597451","0.0-78.2-2.2-0.2","0","0","7ZxYS","People","","null","","","","null","","","","22","49","8","","","","","","","","","","","","","","","","","","","","","","","","","","","","","","","","","","","","","",""
"","fixation","","html-keyboard-response","155","1598489","0.0-79.0-0.0","0","0","7ZxYS","People","","null","","","","null","","","","","","","","","","","","","","","","","","","","","","","","","","","","","","","","","","","","","","","","","","","",""
"","deliberation","","html-keyboard-response","156","1600322","0.0-79.0-1.0","0","0","7ZxYS","People","","1831","","","","75","","","","23","27","1","0","-1","36","68","jurica-koletic-7YVZYZeITc8-unsplash.jpg","aiony-haust-jmATI5Q_YgY-unsplash.jpg","2","0","1","27","","","","","","","","","","","","","","","","","","","","","","","","","","","",""
"","choice_confirmation","","html-keyboard-response","157","1600828","0.0-79.0-2.0-0.0","0","0","7ZxYS","People","","null","","","","null","","","","23","27","1","","","","","","","","","","","","","","","","","","","","","","","","","","","","","","","","","","","","","",""
"","start_critical_deliberation_block","","html-keyboard-response","158","1603066","0.0-79.0-7.0-0.0","0","0","7ZxYS","People","","2233","","","","78","","","","","","","","","","","","","","","","","","","","","","","","","","","","","","","","","","","","","","","","","","","",""
"","fixation","","html-keyboard-response","159","1604078","0.0-80.0-0.0","0","0","7ZxYS","People","","null","","","","null","","","","","","","","","","","","","","","","","","","","","","","","","","","","","","","","","","","","","","","","","","","",""
"","deliberation","","html-keyboard-response","160","1605386","0.0-80.0-1.0","0","0","7ZxYS","People","","1306","","","","68","","","","24","18","12","0","1","69","40","good-faces-xmSWVeGEnJw-unsplash.jpg","daniel-rigdon-dXmXKPP2L4E-unsplash.jpg","3","1","18","12","","","","","","","","","","","","","","","","","","","","","","","","","","","",""
"","choice_confirmation","","html-keyboard-response","161","1605886","0.0-80.0-2.0-0.0","0","0","7ZxYS","People","","null","","","","null","","","","24","18","12","","","","","","","","","","","","","","","","","","","","","","","","","","","","","","","","","","","","","",""
"","fixation","","html-keyboard-response","162","1606894","0.0-81.0-0.0","0","0","7ZxYS","People","","null","","","","null","","","","","","","","","","","","","","","","","","","","","","","","","","","","","","","","","","","","","","","","","","","",""
"","deliberation","","html-keyboard-response","163","1607927","0.0-81.0-1.0","0","0","7ZxYS","People","","1031","","","","75","","","","25","17","21","0","1","37","66","gleb-lukomets-paBzWCPN23k-unsplash.jpg","jessica-felicio-_cvwXhGqG-o-unsplash.jpg","3","0","21","17","","","","","","","","","","","","","","","","","","","","","","","","","","","",""
"","choice_confirmation","","html-keyboard-response","164","1608438","0.0-81.0-2.0-0.0","0","0","7ZxYS","People","","null","","","","null","","","","25","17","21","","","","","","","","","","","","","","","","","","","","","","","","","","","","","","","","","","","","","",""
"","fixation","","html-keyboard-response","165","1609451","0.0-82.0-0.0","0","0","7ZxYS","People","","null","","","","null","","","","","","","","","","","","","","","","","","","","","","","","","","","","","","","","","","","","","","","","","","","",""
"","deliberation","","html-keyboard-response","166","1610529","0.0-82.0-1.0","0","0","7ZxYS","People","","1074","","","","68","","","","26","2","35","0","-1","39","61","arjunsyah-TBUA5KHJn6k-unsplash.jpg","oliver-ragfelt-khV4fTy6-D8-unsplash.jpg","3","1","2","35","","","","","","","","","","","","","","","","","","","","","","","","","","","",""
"","choice_confirmation","","html-keyboard-response","167","1611038","0.0-82.0-2.0-0.0","0","0","7ZxYS","People","","null","","","","null","","","","26","2","35","","","","","","","","","","","","","","","","","","","","","","","","","","","","","","","","","","","","","",""
"","fixation","","html-keyboard-response","168","1612046","0.0-83.0-0.0","0","0","7ZxYS","People","","null","","","","null","","","","","","","","","","","","","","","","","","","","","","","","","","","","","","","","","","","","","","","","","","","",""
"","deliberation","","html-keyboard-response","169","1613091","0.0-83.0-1.0","0","0","7ZxYS","People","","1042","","","","75","","","","27","46","41","0","-1","66","65","stefan-stefancik-QXevDflbl8A-unsplash.jpg","prince-akachi-i2hoD-C2RUA-unsplash.jpg","3","0","41","46","","","","","","","","","","","","","","","","","","","","","","","","","","","",""
"","choice_confirmation","","html-keyboard-response","170","1613593","0.0-83.0-2.0-0.0","0","0","7ZxYS","People","","null","","","","null","","","","27","46","41","","","","","","","","","","","","","","","","","","","","","","","","","","","","","","","","","","","","","",""
"","fixation","","html-keyboard-response","171","1614609","0.0-84.0-0.0","0","0","7ZxYS","People","","null","","","","null","","","","","","","","","","","","","","","","","","","","","","","","","","","","","","","","","","","","","","","","","","","",""
"","deliberation","","html-keyboard-response","172","1615549","0.0-84.0-1.0","0","0","7ZxYS","People","","935","","","","68","","","","28","49","8","0","-1","64","39","vicky-hladynets-_gDoyVv5F4c-unsplash.jpg","bruce-dixon-3M9WJQVHzog-unsplash.jpg","3","1","49","8","","","","","","","","","","","","","","","","","","","","","","","","","","","",""
"","choice_confirmation","","html-keyboard-response","173","1616055","0.0-84.0-2.0-0.0","0","0","7ZxYS","People","","null","","","","null","","","","28","49","8","","","","","","","","","","","","","","","","","","","","","","","","","","","","","","","","","","","","","",""
"","fixation","","html-keyboard-response","174","1617062","0.0-85.0-0.0","0","0","7ZxYS","People","","null","","","","null","","","","","","","","","","","","","","","","","","","","","","","","","","","","","","","","","","","","","","","","","","","",""
"","deliberation","","html-keyboard-response","175","1618969","0.0-85.0-1.0","0","0","7ZxYS","People","","1903","","","","68","","","","29","45","28","0","-1","70","36","sarah-noltner-pL5ZzPp1zqg-unsplash.jpg","justin-chen-J7Cf1Gch49E-unsplash.jpg","3","1","45","28","","","","","","","","","","","","","","","","","","","","","","","","","","","",""
"","choice_confirmation","","html-keyboard-response","176","1619484","0.0-85.0-2.0-0.0","0","0","7ZxYS","People","","null","","","","null","","","","29","45","28","","","","","","","","","","","","","","","","","","","","","","","","","","","","","","","","","","","","","",""
"","fixation","","html-keyboard-response","177","1620500","0.0-86.0-0.0","0","0","7ZxYS","People","","null","","","","null","","","","","","","","","","","","","","","","","","","","","","","","","","","","","","","","","","","","","","","","","","","",""
"","deliberation","","html-keyboard-response","178","1621844","0.0-86.0-1.0","0","0","7ZxYS","People","","1343","","","","75","","","","30","6","30","0","1","37","37","ben-o-bro-C5XyLljkMrY-unsplash.jpg","matheus-ferrero-pg_WCHWSdT8-unsplash.jpg","3","0","30","6","","","","","","","","","","","","","","","","","","","","","","","","","","","",""
"","choice_confirmation","","html-keyboard-response","179","1622359","0.0-86.0-2.0-0.0","0","0","7ZxYS","People","","null","","","","null","","","","30","6","30","","","","","","","","","","","","","","","","","","","","","","","","","","","","","","","","","","","","","",""
"","fixation","","html-keyboard-response","180","1623375","0.0-87.0-0.0","0","0","7ZxYS","People","","null","","","","null","","","","","","","","","","","","","","","","","","","","","","","","","","","","","","","","","","","","","","","","","","","",""
"","deliberation","","html-keyboard-response","181","1624527","0.0-87.0-1.0","0","0","7ZxYS","People","","1137","","","","68","","","","31","39","3","0","-1","66","65","philip-martin-5aGUyCW_PJw-unsplash.jpg","art-hauntington-jzY0KRJopEI-unsplash.jpg","3","1","39","3","","","","","","","","","","","","","","","","","","","","","","","","","","","",""
"","choice_confirmation","","html-keyboard-response","182","1625030","0.0-87.0-2.0-0.0","0","0","7ZxYS","People","","null","","","","null","","","","31","39","3","","","","","","","","","","","","","","","","","","","","","","","","","","","","","","","","","","","","","",""
"","fixation","","html-keyboard-response","183","1626053","0.0-88.0-0.0","0","0","7ZxYS","People","","null","","","","null","","","","","","","","","","","","","","","","","","","","","","","","","","","","","","","","","","","","","","","","","","","",""
"","deliberation","","html-keyboard-response","184","1627558","0.0-88.0-1.0","0","0","7ZxYS","People","","1492","","","","75","","","","32","9","47","0","1","35","35","carlos-andres-gomez-vJuk8Y86mRw-unsplash.jpg","tyler-nix-ZGa9d1a_4tA-unsplash.jpg","3","0","47","9","","","","","","","","","","","","","","","","","","","","","","","","","","","",""
"","choice_confirmation","","html-keyboard-response","185","1628065","0.0-88.0-2.0-0.0","0","0","7ZxYS","People","","null","","","","null","","","","32","9","47","","","","","","","","","","","","","","","","","","","","","","","","","","","","","","","","","","","","","",""
"","fixation","","html-keyboard-response","186","1629076","0.0-89.0-0.0","0","0","7ZxYS","People","","null","","","","null","","","","","","","","","","","","","","","","","","","","","","","","","","","","","","","","","","","","","","","","","","","",""
"","deliberation","","html-keyboard-response","187","1630256","0.0-89.0-1.0","0","0","7ZxYS","People","","1171","","","","68","","","","33","16","33","0","1","59","70","giano-currie-5-9YOsmf8IQ-unsplash.jpg","olena-sergienko-0TSd6uCKTKc-unsplash.jpg","3","1","16","33","","","","","","","","","","","","","","","","","","","","","","","","","","","",""
"","choice_confirmation","","html-keyboard-response","188","1630765","0.0-89.0-2.0-0.0","0","0","7ZxYS","People","","null","","","","null","","","","33","16","33","","","","","","","","","","","","","","","","","","","","","","","","","","","","","","","","","","","","","",""
"","fixation","","html-keyboard-response","189","1631783","0.0-90.0-0.0","0","0","7ZxYS","People","","null","","","","null","","","","","","","","","","","","","","","","","","","","","","","","","","","","","","","","","","","","","","","","","","","",""
"","deliberation","","html-keyboard-response","190","1632986","0.0-90.0-1.0","0","0","7ZxYS","People","","1200","","","","75","","","","34","11","37","0","1","43","65","christian-ferrer-8vT-DgHZDG4-unsplash.jpg","pavel-anoshin-d0peGya6R5Y-unsplash.jpg","3","0","37","11","","","","","","","","","","","","","","","","","","","","","","","","","","","",""
"","choice_confirmation","","html-keyboard-response","191","1633493","0.0-90.0-2.0-0.0","0","0","7ZxYS","People","","null","","","","null","","","","34","11","37","","","","","","","","","","","","","","","","","","","","","","","","","","","","","","","","","","","","","",""
"","fixation","","html-keyboard-response","192","1634502","0.0-91.0-0.0","0","0","7ZxYS","People","","null","","","","null","","","","","","","","","","","","","","","","","","","","","","","","","","","","","","","","","","","","","","","","","","","",""
"","deliberation","","html-keyboard-response","193","1635628","0.0-91.0-1.0","0","0","7ZxYS","People","","1120","","","","68","","","","35","27","1","0","-1","36","68","jurica-koletic-7YVZYZeITc8-unsplash.jpg","aiony-haust-jmATI5Q_YgY-unsplash.jpg","3","1","27","1","","","","","","","","","","","","","","","","","","","","","","","","","","","",""
"","choice_confirmation","","html-keyboard-response","194","1636155","0.0-91.0-2.0-0.0","0","0","7ZxYS","People","","null","","","","null","","","","35","27","1","","","","","","","","","","","","","","","","","","","","","","","","","","","","","","","","","","","","","",""
"","reward_learning_instructions","","instructions","195","1646225","0.0-92.0-0.0","0","0","7ZxYS","People","[{""page_index"":0,""viewing_time"":6090},{""page_index"":1,""viewing_time"":2086},{""page_index"":2,""viewing_time"":1894}]","10070","","","","","","","","","","","","","","","","","","","","","","","","","","","","","","","","","","","","","","","","","","","","","","","",""
"","","","survey-multi-choice","196","1656807","0.0-92.0-1.0","0","0","7ZxYS","People","","10578","{""Q0"":""True"",""Q1"":""True"",""Q2"":""Press the space bar to see its outcome"",""Q3"":""Press the relevant key while the outcome is presented""}","reward_comprehension_check","0","","","","","","","","","","","","","","","","","","","","","","","","","","","","","","","","","","","","","","","","","","","","",""
"","start_phase","","html-keyboard-response","197","1658657","0.0-93.0","0","0","7ZxYS","People","","1849","","","","78","","","","","","","","","","","","","","","","","","","","","","","","","","","","","","","","","","","","","","","","","","","",""
"","fixation","","html-keyboard-response","198","1659671","0.0-94.0","0","0","7ZxYS","People","","null","","","","null","","","","","","","","","","","","","","","","","","","","","","","","","","","","","","","","","","","","","","","","","","","",""
"","see_reward","","html-keyboard-response","199","1661444","0.0-95.0","0","0","7ZxYS","People","","1763","","","","32","","45","","0","","","","-1","","","","","1","","","","","0","1763","","","","","","","","","","","","","","","","","","","","","","","","",""
"","reward_outcome","","html-keyboard-response","200","1663451","0.0-96.0","0","0","7ZxYS","People","","null","","","","null","","45","","0","","","","","","","","","","","","","","","","NaN","null","","","","","","","","","","","","","","","","","","","","","","",""
"","respond_faster","","html-keyboard-response","201","1664972","0.0-97.0-0.0","1","0","7ZxYS","People","","null","","","","null","","","","","","","","","","","","","","","","","","","","","","","","","","","","","","","","","","","","","","","","","","","",""
"","fixation","","html-keyboard-response","202","1666005","0.0-99.0","0","0","7ZxYS","People","","null","","","","null","","","","","","","","","","","","","","","","","","","","","","","","","","","","","","","","","","","","","","","","","","","",""
"","see_reward","","html-keyboard-response","203","1667026","0.0-100.0","0","0","7ZxYS","People","","1007","","","","32","","21","","1","","","","1","","","","","1","","","","","144","1007","","","","","","","","","","","","","","","","","","","","","","","","",""
"","reward_outcome","","html-keyboard-response","204","1669034","0.0-101.0","0","0","7ZxYS","People","","null","","","","null","","21","","1","","","","","","","","","","","","","","","","NaN","null","","","","","","","","","","","","","","","","","","","","","","",""
"","respond_faster","","html-keyboard-response","205","1670548","0.0-102.0-0.0","1","0","7ZxYS","People","","null","","","","null","","","","","","","","","","","","","","","","","","","","","","","","","","","","","","","","","","","","","","","","","","","",""
"","fixation","","html-keyboard-response","206","1671563","0.0-104.0","0","0","7ZxYS","People","","null","","","","null","","","","","","","","","","","","","","","","","","","","","","","","","","","","","","","","","","","","","","","","","","","",""
"","see_reward","","html-keyboard-response","207","1672685","0.0-105.0","0","0","7ZxYS","People","","1105","","","","32","","27","","2","","","","-1","","","","","1","","","","","0","1105","","","","","","","","","","","","","","","","","","","","","","","","",""
"","reward_outcome","","html-keyboard-response","208","1674730","0.0-106.0","0","0","7ZxYS","People","","null","","","","null","","27","","2","","","","","","","","","","","","","","","","NaN","null","","","","","","","","","","","","","","","","","","","","","","",""
"","respond_faster","","html-keyboard-response","209","1676238","0.0-107.0-0.0","1","0","7ZxYS","People","","null","","","","null","","","","","","","","","","","","","","","","","","","","","","","","","","","","","","","","","","","","","","","","","","","",""
"","fixation","","html-keyboard-response","210","1677245","0.0-109.0","0","0","7ZxYS","People","","null","","","","null","","","","","","","","","","","","","","","","","","","","","","","","","","","","","","","","","","","","","","","","","","","",""
"","see_reward","","html-keyboard-response","211","1678097","0.0-110.0","0","0","7ZxYS","People","","847","","","","32","","47","","3","","","","1","","","","","1","","","","","151","847","","","","","","","","","","","","","","","","","","","","","","","","",""
"","reward_outcome","","html-keyboard-response","212","1680102","0.0-111.0","0","0","7ZxYS","People","","null","","","","null","","47","","3","","","","","","","","","","","","","","","","NaN","null","","","","","","","","","","","","","","","","","","","","","","",""
"","respond_faster","","html-keyboard-response","213","1681610","0.0-112.0-0.0","1","0","7ZxYS","People","","null","","","","null","","","","","","","","","","","","","","","","","","","","","","","","","","","","","","","","","","","","","","","","","","","",""
"","fixation","","html-keyboard-response","214","1682624","0.0-114.0","0","0","7ZxYS","People","","null","","","","null","","","","","","","","","","","","","","","","","","","","","","","","","","","","","","","","","","","","","","","","","","","",""
"","see_reward","","html-keyboard-response","215","1683655","0.0-115.0","0","0","7ZxYS","People","","1029","","","","32","","41","","4","","","","-1","","","","","1","","","","","0","1029","","","","","","","","","","","","","","","","","","","","","","","","",""
"","reward_outcome","","html-keyboard-response","216","1685666","0.0-116.0","0","0","7ZxYS","People","","null","","","","null","","41","","4","","","","","","","","","","","","","","","","NaN","null","","","","","","","","","","","","","","","","","","","","","","",""
"","respond_faster","","html-keyboard-response","217","1687174","0.0-117.0-0.0","1","0","7ZxYS","People","","null","","","","null","","","","","","","","","","","","","","","","","","","","","","","","","","","","","","","","","","","","","","","","","","","",""
"","fixation","","html-keyboard-response","218","1688182","0.0-119.0","0","0","7ZxYS","People","","null","","","","null","","","","","","","","","","","","","","","","","","","","","","","","","","","","","","","","","","","","","","","","","","","",""
"","see_reward","","html-keyboard-response","219","1689012","0.0-120.0","0","0","7ZxYS","People","","828","","","","32","","45","","5","","","","-1","","","","","1","","","","","0","828","","","","","","","","","","","","","","","","","","","","","","","","",""
"","reward_outcome","","html-keyboard-response","220","1691013","0.0-121.0","0","0","7ZxYS","People","","null","","","","null","","45","","5","","","","","","","","","","","","","","","","NaN","null","","","","","","","","","","","","","","","","","","","","","","",""
"","respond_faster","","html-keyboard-response","221","1692517","0.0-122.0-0.0","1","0","7ZxYS","People","","null","","","","null","","","","","","","","","","","","","","","","","","","","","","","","","","","","","","","","","","","","","","","","","","","",""
"","fixation","","html-keyboard-response","222","1693533","0.0-124.0","0","0","7ZxYS","People","","null","","","","null","","","","","","","","","","","","","","","","","","","","","","","","","","","","","","","","","","","","","","","","","","","",""
"","see_reward","","html-keyboard-response","223","1694361","0.0-125.0","0","0","7ZxYS","People","","823","","","","32","","2","","6","","","","-1","","","","","1","","","","","0","823","","","","","","","","","","","","","","","","","","","","","","","","",""
"","reward_outcome","","html-keyboard-response","224","1696375","0.0-126.0","0","0","7ZxYS","People","","null","","","","null","","2","","6","","","","","","","","","","","","","","","","NaN","null","","","","","","","","","","","","","","","","","","","","","","",""
"","respond_faster","","html-keyboard-response","225","1697884","0.0-127.0-0.0","1","0","7ZxYS","People","","null","","","","null","","","","","","","","","","","","","","","","","","","","","","","","","","","","","","","","","","","","","","","","","","","",""
"","fixation","","html-keyboard-response","226","1698894","0.0-129.0","0","0","7ZxYS","People","","null","","","","null","","","","","","","","","","","","","","","","","","","","","","","","","","","","","","","","","","","","","","","","","","","",""
"","see_reward","","html-keyboard-response","227","1699702","0.0-130.0","0","0","7ZxYS","People","","806","","","","32","","37","","7","","","","1","","","","","1","","","","","156","806","","","","","","","","","","","","","","","","","","","","","","","","",""
"","reward_outcome","","html-keyboard-response","228","1701710","0.0-131.0","0","0","7ZxYS","People","","null","","","","null","","37","","7","","","","","","","","","","","","","","","","NaN","null","","","","","","","","","","","","","","","","","","","","","","",""
"","respond_faster","","html-keyboard-response","229","1703214","0.0-132.0-0.0","1","0","7ZxYS","People","","null","","","","null","","","","","","","","","","","","","","","","","","","","","","","","","","","","","","","","","","","","","","","","","","","",""
"","fixation","","html-keyboard-response","230","1704229","0.0-134.0","0","0","7ZxYS","People","","null","","","","null","","","","","","","","","","","","","","","","","","","","","","","","","","","","","","","","","","","","","","","","","","","",""
"","see_reward","","html-keyboard-response","231","1705222","0.0-135.0","0","0","7ZxYS","People","","932","","","","32","","39","","8","","","","-1","","","","","1","","","","","0","932","","","","","","","","","","","","","","","","","","","","","","","","",""
"","reward_outcome","","html-keyboard-response","232","1707233","0.0-136.0","0","0","7ZxYS","People","","null","","","","null","","39","","8","","","","","","","","","","","","","","","","NaN","null","","","","","","","","","","","","","","","","","","","","","","",""
"","respond_faster","","html-keyboard-response","233","1708748","0.0-137.0-0.0","1","0","7ZxYS","People","","null","","","","null","","","","","","","","","","","","","","","","","","","","","","","","","","","","","","","","","","","","","","","","","","","",""
"","fixation","","html-keyboard-response","234","1709786","0.0-139.0","0","0","7ZxYS","People","","null","","","","null","","","","","","","","","","","","","","","","","","","","","","","","","","","","","","","","","","","","","","","","","","","",""
"","see_reward","","html-keyboard-response","235","1710582","0.0-140.0","0","0","7ZxYS","People","","795","","","","32","","41","","9","","","","-1","","","","","1","","","","","0","795","","","","","","","","","","","","","","","","","","","","","","","","",""
"","reward_outcome","","html-keyboard-response","236","1712591","0.0-141.0","0","0","7ZxYS","People","","null","","","","null","","41","","9","","","","","","","","","","","","","","","","NaN","null","","","","","","","","","","","","","","","","","","","","","","",""
"","respond_faster","","html-keyboard-response","237","1714096","0.0-142.0-0.0","1","0","7ZxYS","People","","null","","","","null","","","","","","","","","","","","","","","","","","","","","","","","","","","","","","","","","","","","","","","","","","","",""
"","fixation","","html-keyboard-response","238","1715102","0.0-144.0","0","0","7ZxYS","People","","null","","","","null","","","","","","","","","","","","","","","","","","","","","","","","","","","","","","","","","","","","","","","","","","","",""
"","see_reward","","html-keyboard-response","239","1716030","0.0-145.0","0","0","7ZxYS","People","","926","","","","32","","30","","10","","","","1","","","","","1","","","","","158","926","","","","","","","","","","","","","","","","","","","","","","","","",""
"","reward_outcome","","html-keyboard-response","240","1718037","0.0-146.0","0","0","7ZxYS","People","","null","","","","null","","30","","10","","","","","","","","","","","","","","","","NaN","null","","","","","","","","","","","","","","","","","","","","","","",""
"","respond_faster","","html-keyboard-response","241","1719542","0.0-147.0-0.0","1","0","7ZxYS","People","","null","","","","null","","","","","","","","","","","","","","","","","","","","","","","","","","","","","","","","","","","","","","","","","","","",""
"","fixation","","html-keyboard-response","242","1720551","0.0-149.0","0","0","7ZxYS","People","","null","","","","null","","","","","","","","","","","","","","","","","","","","","","","","","","","","","","","","","","","","","","","","","","","",""
"","see_reward","","html-keyboard-response","243","1721459","0.0-150.0","0","0","7ZxYS","People","","903","","","","32","","30","","11","","","","1","","","","","1","","","","","158","903","","","","","","","","","","","","","","","","","","","","","","","","",""
"","reward_outcome","","html-keyboard-response","244","1723468","0.0-151.0","0","0","7ZxYS","People","","null","","","","null","","30","","11","","","","","","","","","","","","","","","","NaN","null","","","","","","","","","","","","","","","","","","","","","","",""
"","respond_faster","","html-keyboard-response","245","1724988","0.0-152.0-0.0","1","0","7ZxYS","People","","null","","","","null","","","","","","","","","","","","","","","","","","","","","","","","","","","","","","","","","","","","","","","","","","","",""
"","fixation","","html-keyboard-response","246","1725998","0.0-154.0","0","0","7ZxYS","People","","null","","","","null","","","","","","","","","","","","","","","","","","","","","","","","","","","","","","","","","","","","","","","","","","","",""
"","see_reward","","html-keyboard-response","247","1726841","0.0-155.0","0","0","7ZxYS","People","","841","","","","32","","18","","12","","","","1","","","","","1","","","","","150","841","","","","","","","","","","","","","","","","","","","","","","","","",""
"","reward_outcome","","html-keyboard-response","248","1728845","0.0-156.0","0","0","7ZxYS","People","","null","","","","null","","18","","12","","","","","","","","","","","","","","","","NaN","null","","","","","","","","","","","","","","","","","","","","","","",""
"","respond_faster","","html-keyboard-response","249","1730359","0.0-157.0-0.0","1","0","7ZxYS","People","","null","","","","null","","","","","","","","","","","","","","","","","","","","","","","","","","","","","","","","","","","","","","","","","","","",""
"","fixation","","html-keyboard-response","250","1731367","0.0-159.0","0","0","7ZxYS","People","","null","","","","null","","","","","","","","","","","","","","","","","","","","","","","","","","","","","","","","","","","","","","","","","","","",""
"","see_reward","","html-keyboard-response","251","1732302","0.0-160.0","0","0","7ZxYS","People","","934","","","","32","","49","","13","","","","-1","","","","","1","","","","","0","934","","","","","","","","","","","","","","","","","","","","","","","","",""
"","reward_outcome","","html-keyboard-response","252","1734310","0.0-161.0","0","0","7ZxYS","People","","null","","","","null","","49","","13","","","","","","","","","","","","","","","","NaN","null","","","","","","","","","","","","","","","","","","","","","","",""
"","respond_faster","","html-keyboard-response","253","1735828","0.0-162.0-0.0","1","0","7ZxYS","People","","null","","","","null","","","","","","","","","","","","","","","","","","","","","","","","","","","","","","","","","","","","","","","","","","","",""
"","fixation","","html-keyboard-response","254","1736843","0.0-164.0","0","0","7ZxYS","People","","null","","","","null","","","","","","","","","","","","","","","","","","","","","","","","","","","","","","","","","","","","","","","","","","","",""
"","see_reward","","html-keyboard-response","255","1737691","0.0-165.0","0","0","7ZxYS","People","","838","","","","32","","27","","14","","","","-1","","","","","1","","","","","0","838","","","","","","","","","","","","","","","","","","","","","","","","",""
"","reward_outcome","","html-keyboard-response","256","1739702","0.0-166.0","0","0","7ZxYS","People","","null","","","","null","","27","","14","","","","","","","","","","","","","","","","NaN","null","","","","","","","","","","","","","","","","","","","","","","",""
"","respond_faster","","html-keyboard-response","257","1741218","0.0-167.0-0.0","1","0","7ZxYS","People","","null","","","","null","","","","","","","","","","","","","","","","","","","","","","","","","","","","","","","","","","","","","","","","","","","",""
"","fixation","","html-keyboard-response","258","1742229","0.0-169.0","0","0","7ZxYS","People","","null","","","","null","","","","","","","","","","","","","","","","","","","","","","","","","","","","","","","","","","","","","","","","","","","",""
"","see_reward","","html-keyboard-response","259","1743001","0.0-170.0","0","0","7ZxYS","People","","760","","","","32","","18","","15","","","","1","","","","","1","","","","","150","760","","","","","","","","","","","","","","","","","","","","","","","","",""
"","reward_outcome","","html-keyboard-response","260","1745015","0.0-171.0","0","0","7ZxYS","People","","null","","","","null","","18","","15","","","","","","","","","","","","","","","","NaN","null","","","","","","","","","","","","","","","","","","","","","","",""
"","respond_faster","","html-keyboard-response","261","1746533","0.0-172.0-0.0","1","0","7ZxYS","People","","null","","","","null","","","","","","","","","","","","","","","","","","","","","","","","","","","","","","","","","","","","","","","","","","","",""
"","fixation","","html-keyboard-response","262","1747546","0.0-174.0","0","0","7ZxYS","People","","null","","","","null","","","","","","","","","","","","","","","","","","","","","","","","","","","","","","","","","","","","","","","","","","","",""
"","see_reward","","html-keyboard-response","263","1748401","0.0-175.0","0","0","7ZxYS","People","","842","","","","32","","39","","16","","","","-1","","","","","1","","","","","0","842","","","","","","","","","","","","","","","","","","","","","","","","",""
"","reward_outcome","","html-keyboard-response","264","1750406","0.0-176.0","0","0","7ZxYS","People","","null","","","","null","","39","","16","","","","","","","","","","","","","","","","NaN","null","","","","","","","","","","","","","","","","","","","","","","",""
"","respond_faster","","html-keyboard-response","265","1751909","0.0-177.0-0.0","1","0","7ZxYS","People","","null","","","","null","","","","","","","","","","","","","","","","","","","","","","","","","","","","","","","","","","","","","","","","","","","",""
"","fixation","","html-keyboard-response","266","1752921","0.0-179.0","0","0","7ZxYS","People","","null","","","","null","","","","","","","","","","","","","","","","","","","","","","","","","","","","","","","","","","","","","","","","","","","",""
"","see_reward","","html-keyboard-response","267","1753821","0.0-180.0","0","0","7ZxYS","People","","899","","","","32","","16","","17","","","","1","","","","","1","","","","","141","899","","","","","","","","","","","","","","","","","","","","","","","","",""
"","reward_outcome","","html-keyboard-response","268","1755821","0.0-181.0","0","0","7ZxYS","People","","null","","","","null","","16","","17","","","","","","","","","","","","","","","","NaN","null","","","","","","","","","","","","","","","","","","","","","","",""
"","respond_faster","","html-keyboard-response","269","1757326","0.0-182.0-0.0","1","0","7ZxYS","People","","null","","","","null","","","","","","","","","","","","","","","","","","","","","","","","","","","","","","","","","","","","","","","","","","","",""
"","fixation","","html-keyboard-response","270","1758334","0.0-184.0","0","0","7ZxYS","People","","null","","","","null","","","","","","","","","","","","","","","","","","","","","","","","","","","","","","","","","","","","","","","","","","","",""
"","see_reward","","html-keyboard-response","271","1759061","0.0-185.0","0","0","7ZxYS","People","","724","","","","32","","16","","18","","","","1","","","","","1","","","","","141","724","","","","","","","","","","","","","","","","","","","","","","","","",""
"","reward_outcome","","html-keyboard-response","272","1761070","0.0-186.0","0","0","7ZxYS","People","","null","","","","null","","16","","18","","","","","","","","","","","","","","","","NaN","null","","","","","","","","","","","","","","","","","","","","","","",""
"","respond_faster","","html-keyboard-response","273","1762576","0.0-187.0-0.0","1","0","7ZxYS","People","","null","","","","null","","","","","","","","","","","","","","","","","","","","","","","","","","","","","","","","","","","","","","","","","","","",""
"","fixation","","html-keyboard-response","274","1763594","0.0-189.0","0","0","7ZxYS","People","","null","","","","null","","","","","","","","","","","","","","","","","","","","","","","","","","","","","","","","","","","","","","","","","","","",""
"","see_reward","","html-keyboard-response","275","1764441","0.0-190.0","0","0","7ZxYS","People","","841","","","","32","","37","","19","","","","1","","","","","1","","","","","156","841","","","","","","","","","","","","","","","","","","","","","","","","",""
"","reward_outcome","","html-keyboard-response","276","1766447","0.0-191.0","0","0","7ZxYS","People","","null","","","","null","","37","","19","","","","","","","","","","","","","","","","NaN","null","","","","","","","","","","","","","","","","","","","","","","",""
"","respond_faster","","html-keyboard-response","277","1767956","0.0-192.0-0.0","1","0","7ZxYS","People","","null","","","","null","","","","","","","","","","","","","","","","","","","","","","","","","","","","","","","","","","","","","","","","","","","",""
"","fixation","","html-keyboard-response","278","1768969","0.0-194.0","0","0","7ZxYS","People","","null","","","","null","","","","","","","","","","","","","","","","","","","","","","","","","","","","","","","","","","","","","","","","","","","",""
"","see_reward","","html-keyboard-response","279","1770641","0.0-195.0","0","0","7ZxYS","People","","1669","","","","32","","21","","20","","","","1","","","","","1","","","","","144","1669","","","","","","","","","","","","","","","","","","","","","","","","",""
"","reward_outcome","","html-keyboard-response","280","1772721","0.0-196.0","0","0","7ZxYS","People","","null","","","","null","","21","","20","","","","","","","","","","","","","","","","NaN","null","","","","","","","","","","","","","","","","","","","","","","",""
"","respond_faster","","html-keyboard-response","281","1774233","0.0-197.0-0.0","1","0","7ZxYS","People","","null","","","","null","","","","","","","","","","","","","","","","","","","","","","","","","","","","","","","","","","","","","","","","","","","",""
"","fixation","","html-keyboard-response","282","1775250","0.0-199.0","0","0","7ZxYS","People","","null","","","","null","","","","","","","","","","","","","","","","","","","","","","","","","","","","","","","","","","","","","","","","","","","",""
"","see_reward","","html-keyboard-response","283","1776261","0.0-200.0","0","0","7ZxYS","People","","997","","","","32","","47","","21","","","","1","","","","","1","","","","","151","997","","","","","","","","","","","","","","","","","","","","","","","","",""
"","reward_outcome","","html-keyboard-response","284","1778270","0.0-201.0","0","0","7ZxYS","People","","null","","","","null","","47","","21","","","","","","","","","","","","","","","","NaN","null","","","","","","","","","","","","","","","","","","","","","","",""
"","respond_faster","","html-keyboard-response","285","1779774","0.0-202.0-0.0","1","0","7ZxYS","People","","null","","","","null","","","","","","","","","","","","","","","","","","","","","","","","","","","","","","","","","","","","","","","","","","","",""
"","fixation","","html-keyboard-response","286","1780782","0.0-204.0","0","0","7ZxYS","People","","null","","","","null","","","","","","","","","","","","","","","","","","","","","","","","","","","","","","","","","","","","","","","","","","","",""
"","see_reward","","html-keyboard-response","287","1781671","0.0-205.0","0","0","7ZxYS","People","","887","","","","32","","49","","22","","","","-1","","","","","1","","","","","0","887","","","","","","","","","","","","","","","","","","","","","","","","",""
"","reward_outcome","","html-keyboard-response","288","1783688","0.0-206.0","0","0","7ZxYS","People","","null","","","","null","","49","","22","","","","","","","","","","","","","","","","NaN","null","","","","","","","","","","","","","","","","","","","","","","",""
"","respond_faster","","html-keyboard-response","289","1785202","0.0-207.0-0.0","1","0","7ZxYS","People","","null","","","","null","","","","","","","","","","","","","","","","","","","","","","","","","","","","","","","","","","","","","","","","","","","",""
"","fixation","","html-keyboard-response","290","1786219","0.0-209.0","0","0","7ZxYS","People","","null","","","","null","","","","","","","","","","","","","","","","","","","","","","","","","","","","","","","","","","","","","","","","","","","",""
"","see_reward","","html-keyboard-response","291","1787081","0.0-210.0","0","0","7ZxYS","People","","858","","","","32","","2","","23","","","","-1","","","","","1","","","","","0","858","","","","","","","","","","","","","","","","","","","","","","","","",""
"","reward_outcome","","html-keyboard-response","292","1789087","0.0-211.0","0","0","7ZxYS","People","","null","","","","null","","2","","23","","","","","","","","","","","","","","","","NaN","null","","","","","","","","","","","","","","","","","","","","","","",""
"","respond_faster","","html-keyboard-response","293","1790590","0.0-212.0-0.0","1","0","7ZxYS","People","","null","","","","null","","","","","","","","","","","","","","","","","","","","","","","","","","","","","","","","","","","","","","","","","","","",""
"","block_over","","html-keyboard-response","294","1792401","0.0-213.0-0.0","0","0","7ZxYS","People","","1797","","","","78","","","","","","","","","","","","","","","","","","","","","","","","","","","","","","","","","","","","","","","","","","","",""
"","fixation","","html-keyboard-response","295","1793421","0.0-214.0","0","0","7ZxYS","People","","null","","","","null","","","","","","","","","","","","","","","","","","","","","","","","","","","","","","","","","","","","","","","","","","","",""
"","see_reward","","html-keyboard-response","296","1794782","0.0-215.0","0","0","7ZxYS","People","","1358","","","","32","","2","","24","","","","-1","","","","","2","","","","","0","1358","","","","","","","","","","","","","","","","","","","","","","","","",""
"","reward_outcome","","html-keyboard-response","297","1796800","0.0-216.0","0","0","7ZxYS","People","","null","","","","null","","2","","24","","","","","","","","","","","","","","","","NaN","null","","","","","","","","","","","","","","","","","","","","","","",""
"","respond_faster","","html-keyboard-response","298","1798312","0.0-217.0-0.0","1","0","7ZxYS","People","","null","","","","null","","","","","","","","","","","","","","","","","","","","","","","","","","","","","","","","","","","","","","","","","","","",""
"","fixation","","html-keyboard-response","299","1799330","0.0-219.0","0","0","7ZxYS","People","","null","","","","null","","","","","","","","","","","","","","","","","","","","","","","","","","","","","","","","","","","","","","","","","","","",""
"","see_reward","","html-keyboard-response","300","1800251","0.0-220.0","0","0","7ZxYS","People","","918","","","","32","","41","","25","","","","-1","","","","","2","","","","","0","918","","","","","","","","","","","","","","","","","","","","","","","","",""
"","reward_outcome","","html-keyboard-response","301","1802254","0.0-221.0","0","0","7ZxYS","People","","null","","","","null","","41","","25","","","","","","","","","","","","","","","","NaN","null","","","","","","","","","","","","","","","","","","","","","","",""
"","respond_faster","","html-keyboard-response","302","1803766","0.0-222.0-0.0","1","0","7ZxYS","People","","null","","","","null","","","","","","","","","","","","","","","","","","","","","","","","","","","","","","","","","","","","","","","","","","","",""
"","fixation","","html-keyboard-response","303","1804775","0.0-224.0","0","0","7ZxYS","People","","null","","","","null","","","","","","","","","","","","","","","","","","","","","","","","","","","","","","","","","","","","","","","","","","","",""
"","see_reward","","html-keyboard-response","304","1805540","0.0-225.0","0","0","7ZxYS","People","","764","","","","32","","49","","26","","","","-1","","","","","2","","","","","0","764","","","","","","","","","","","","","","","","","","","","","","","","",""
"","reward_outcome","","html-keyboard-response","305","1807551","0.0-226.0","0","0","7ZxYS","People","","null","","","","null","","49","","26","","","","","","","","","","","","","","","","NaN","null","","","","","","","","","","","","","","","","","","","","","","",""
"","respond_faster","","html-keyboard-response","306","1809062","0.0-227.0-0.0","1","0","7ZxYS","People","","null","","","","null","","","","","","","","","","","","","","","","","","","","","","","","","","","","","","","","","","","","","","","","","","","",""
"","fixation","","html-keyboard-response","307","1810079","0.0-229.0","0","0","7ZxYS","People","","null","","","","null","","","","","","","","","","","","","","","","","","","","","","","","","","","","","","","","","","","","","","","","","","","",""
"","see_reward","","html-keyboard-response","308","1810902","0.0-230.0","0","0","7ZxYS","People","","819","","","","32","","16","","27","","","","1","","","","","2","","","","","141","819","","","","","","","","","","","","","","","","","","","","","","","","",""
"","reward_outcome","","html-keyboard-response","309","1812922","0.0-231.0","0","0","7ZxYS","People","","null","","","","null","","16","","27","","","","","","","","","","","","","","","","NaN","null","","","","","","","","","","","","","","","","","","","","","","",""
"","respond_faster","","html-keyboard-response","310","1814432","0.0-232.0-0.0","1","0","7ZxYS","People","","null","","","","null","","","","","","","","","","","","","","","","","","","","","","","","","","","","","","","","","","","","","","","","","","","",""
"","fixation","","html-keyboard-response","311","1815438","0.0-234.0","0","0","7ZxYS","People","","null","","","","null","","","","","","","","","","","","","","","","","","","","","","","","","","","","","","","","","","","","","","","","","","","",""
"","see_reward","","html-keyboard-response","312","1816221","0.0-235.0","0","0","7ZxYS","People","","778","","","","32","","18","","28","","","","1","","","","","2","","","","","150","778","","","","","","","","","","","","","","","","","","","","","","","","",""
"","reward_outcome","","html-keyboard-response","313","1818231","0.0-236.0","0","0","7ZxYS","People","","null","","","","null","","18","","28","","","","","","","","","","","","","","","","NaN","null","","","","","","","","","","","","","","","","","","","","","","",""
"","respond_faster","","html-keyboard-response","314","1819738","0.0-237.0-0.0","1","0","7ZxYS","People","","null","","","","null","","","","","","","","","","","","","","","","","","","","","","","","","","","","","","","","","","","","","","","","","","","",""
"","fixation","","html-keyboard-response","315","1820743","0.0-239.0","0","0","7ZxYS","People","","null","","","","null","","","","","","","","","","","","","","","","","","","","","","","","","","","","","","","","","","","","","","","","","","","",""
"","see_reward","","html-keyboard-response","316","1821561","0.0-240.0","0","0","7ZxYS","People","","818","","","","32","","47","","29","","","","1","","","","","2","","","","","151","818","","","","","","","","","","","","","","","","","","","","","","","","",""
"","reward_outcome","","html-keyboard-response","317","1823577","0.0-241.0","0","0","7ZxYS","People","","null","","","","null","","47","","29","","","","","","","","","","","","","","","","NaN","null","","","","","","","","","","","","","","","","","","","","","","",""
"","respond_faster","","html-keyboard-response","318","1825077","0.0-242.0-0.0","1","0","7ZxYS","People","","null","","","","null","","","","","","","","","","","","","","","","","","","","","","","","","","","","","","","","","","","","","","","","","","","",""
"","fixation","","html-keyboard-response","319","1826093","0.0-244.0","0","0","7ZxYS","People","","null","","","","null","","","","","","","","","","","","","","","","","","","","","","","","","","","","","","","","","","","","","","","","","","","",""
"","see_reward","","html-keyboard-response","320","1828723","0.0-245.0","0","0","7ZxYS","People","","2628","","","","32","","47","","30","","","","1","","","","","2","","","","","151","2628","","","","","","","","","","","","","","","","","","","","","","","","",""
"","reward_outcome","","html-keyboard-response","321","1830734","0.0-246.0","0","0","7ZxYS","People","","null","","","","null","","47","","30","","","","","","","","","","","","","","","","NaN","null","","","","","","","","","","","","","","","","","","","","","","",""
"","respond_faster","","html-keyboard-response","322","1832250","0.0-247.0-0.0","1","0","7ZxYS","People","","null","","","","null","","","","","","","","","","","","","","","","","","","","","","","","","","","","","","","","","","","","","","","","","","","",""
"","fixation","","html-keyboard-response","323","1833338","0.0-249.0","0","0","7ZxYS","People","","null","","","","null","","","","","","","","","","","","","","","","","","","","","","","","","","","","","","","","","","","","","","","","","","","",""
"","see_reward","","html-keyboard-response","324","1836821","0.0-250.0","0","0","7ZxYS","People","","3468","","","","32","","41","","31","","","","-1","","","","","2","","","","","0","3468","","","","","","","","","","","","","","","","","","","","","","","","",""
"","reward_outcome","","html-keyboard-response","325","1838843","0.0-251.0","0","0","7ZxYS","People","","null","","","","null","","41","","31","","","","","","","","","","","","","","","","NaN","null","","","","","","","","","","","","","","","","","","","","","","",""
"","respond_faster","","html-keyboard-response","326","1840350","0.0-252.0-0.0","1","0","7ZxYS","People","","null","","","","null","","","","","","","","","","","","","","","","","","","","","","","","","","","","","","","","","","","","","","","","","","","",""
"","fixation","","html-keyboard-response","327","1841360","0.0-254.0","0","0","7ZxYS","People","","null","","","","null","","","","","","","","","","","","","","","","","","","","","","","","","","","","","","","","","","","","","","","","","","","",""
"","see_reward","","html-keyboard-response","328","1842262","0.0-255.0","0","0","7ZxYS","People","","888","","","","32","","30","","32","","","","1","","","","","2","","","","","158","888","","","","","","","","","","","","","","","","","","","","","","","","",""
"","reward_outcome","","html-keyboard-response","329","1844301","0.0-256.0","0","0","7ZxYS","People","","null","","","","null","","30","","32","","","","","","","","","","","","","","","","NaN","null","","","","","","","","","","","","","","","","","","","","","","",""
"","respond_faster","","html-keyboard-response","330","1845811","0.0-257.0-0.0","1","0","7ZxYS","People","","null","","","","null","","","","","","","","","","","","","","","","","","","","","","","","","","","","","","","","","","","","","","","","","","","",""
"","fixation","","html-keyboard-response","331","1846828","0.0-259.0","0","0","7ZxYS","People","","null","","","","null","","","","","","","","","","","","","","","","","","","","","","","","","","","","","","","","","","","","","","","","","","","",""
"","see_reward","","html-keyboard-response","332","1847762","0.0-260.0","0","0","7ZxYS","People","","933","","","","32","","45","","33","","","","-1","","","","","2","","","","","0","933","","","","","","","","","","","","","","","","","","","","","","","","",""
"","reward_outcome","","html-keyboard-response","333","1849780","0.0-261.0","0","0","7ZxYS","People","","null","","","","null","","45","","33","","","","","","","","","","","","","","","","NaN","null","","","","","","","","","","","","","","","","","","","","","","",""
"","respond_faster","","html-keyboard-response","334","1851286","0.0-262.0-0.0","1","0","7ZxYS","People","","null","","","","null","","","","","","","","","","","","","","","","","","","","","","","","","","","","","","","","","","","","","","","","","","","",""
"","fixation","","html-keyboard-response","335","1852319","0.0-264.0","0","0","7ZxYS","People","","null","","","","null","","","","","","","","","","","","","","","","","","","","","","","","","","","","","","","","","","","","","","","","","","","",""
"","see_reward","","html-keyboard-response","336","1854661","0.0-265.0","0","0","7ZxYS","People","","2334","","","","32","","39","","34","","","","-1","","","","","2","","","","","0","2334","","","","","","","","","","","","","","","","","","","","","","","","",""
"","reward_outcome","","html-keyboard-response","337","1856681","0.0-266.0","0","0","7ZxYS","People","","null","","","","null","","39","","34","","","","","","","","","","","","","","","","NaN","null","","","","","","","","","","","","","","","","","","","","","","",""
"","respond_faster","","html-keyboard-response","338","1858187","0.0-267.0-0.0","1","0","7ZxYS","People","","null","","","","null","","","","","","","","","","","","","","","","","","","","","","","","","","","","","","","","","","","","","","","","","","","",""
"","fixation","","html-keyboard-response","339","1859189","0.0-269.0","0","0","7ZxYS","People","","null","","","","null","","","","","","","","","","","","","","","","","","","","","","","","","","","","","","","","","","","","","","","","","","","",""
"","see_reward","","html-keyboard-response","340","1860111","0.0-270.0","0","0","7ZxYS","People","","917","","","","32","","27","","35","","","","-1","","","","","2","","","","","0","917","","","","","","","","","","","","","","","","","","","","","","","","",""
"","reward_outcome","","html-keyboard-response","341","1862118","0.0-271.0","0","0","7ZxYS","People","","null","","","","null","","27","","35","","","","","","","","","","","","","","","","NaN","null","","","","","","","","","","","","","","","","","","","","","","",""
"","respond_faster","","html-keyboard-response","342","1863625","0.0-272.0-0.0","1","0","7ZxYS","People","","null","","","","null","","","","","","","","","","","","","","","","","","","","","","","","","","","","","","","","","","","","","","","","","","","",""
"","fixation","","html-keyboard-response","343","1864640","0.0-274.0","0","0","7ZxYS","People","","null","","","","null","","","","","","","","","","","","","","","","","","","","","","","","","","","","","","","","","","","","","","","","","","","",""
"","see_reward","","html-keyboard-response","344","1867132","0.0-275.0","0","0","7ZxYS","People","","2490","","","","32","","30","","36","","","","1","","","","","2","","","","","158","2490","","","","","","","","","","","","","","","","","","","","","","","","",""
"","reward_outcome","","html-keyboard-response","345","1869134","0.0-276.0","0","0","7ZxYS","People","","null","","","","null","","30","","36","","","","","","","","","","","","","","","","NaN","null","","","","","","","","","","","","","","","","","","","","","","",""
"","respond_faster","","html-keyboard-response","346","1870639","0.0-277.0-0.0","1","0","7ZxYS","People","","null","","","","null","","","","","","","","","","","","","","","","","","","","","","","","","","","","","","","","","","","","","","","","","","","",""
"","fixation","","html-keyboard-response","347","1871645","0.0-279.0","0","0","7ZxYS","People","","null","","","","null","","","","","","","","","","","","","","","","","","","","","","","","","","","","","","","","","","","","","","","","","","","",""
"","see_reward","","html-keyboard-response","348","1872441","0.0-280.0","0","0","7ZxYS","People","","794","","","","32","","39","","37","","","","-1","","","","","2","","","","","0","794","","","","","","","","","","","","","","","","","","","","","","","","",""
