"success","ttype","start_time","trial_type","trial_index","time_elapsed","internal_node_id","warning","missed_checkup","PID","stim_type","view_history","rt","responses","category","repeat_instructions","key_press","response","stimulus_id","painting","index","stimulus_left","stimulus_right","explain_trial","reward_type","rating_left","rating_right","painting_left","painting_right","block","left_chosen","chosen_obj","unchosen_obj","explain_response","reward_amount","see_reward_rt","register_reward_response","register_reward_rt","deliberation_reward_tally","stimulus_left_deliberation_ind","stimulus_right_deliberation_ind","chosen_trial","gain_left","higher_outcome_chosen","old_pair","chosen_object","rt_pairs","left_object_chosen","rt_object","old_response","new_rating","deliberated_stim","initial_rating","outcome_eval_rt","outcome_eval_response","outcome_eval_gain","outcome_eval_acc","preamble","outcome_eval_confidence","outcome_eval_confidence_rt","total_reward_tally"
"true","full_screen","d01182023hr1355","fullscreen","0","9492","0.0-0.0","0","0","NWBJA","People","","","","","","","","","","","","","","","","","","","","","","","","","","","","","","","","","","","","","","","","","","","","","","","","","",""
"","rating_instructions","","instructions","1","22707","0.0-1.0-0.0","0","0","NWBJA","People","[{""page_index"":0,""viewing_time"":10916},{""page_index"":1,""viewing_time"":2298}]","13214","","","","","","","","","","","","","","","","","","","","","","","","","","","","","","","","","","","","","","","","","","","","","","","",""
"","","","survey-multi-choice","2","28455","0.0-1.0-1.0","0","0","NWBJA","People","","5747","{""Q0"":""True"",""Q1"":""Mouse""}","rating_comprehension_check","0","","","","","","","","","","","","","","","","","","","","","","","","","","","","","","","","","","","","","","","","","","","","",""
"","start_phase","","html-keyboard-response","3","54132","0.0-2.0","0","0","NWBJA","People","","25675","","","","78","","","","","","","","","","","","","","","","","","","","","","","","","","","","","","","","","","","","","","","","","","","",""
"","rating","","html-slider-response","4","58754","0.0-3.0","0","0","NWBJA","People","","4620","","","","","50","34","oliver-johnson-1TUIcKob7Zs-unsplash.jpg","0","","","","","","","","","","","","","","","","","","","","","","","","","","","","","","","","","","","","","","","",""
"","rating","","html-slider-response","5","62092","0.0-4.0","0","0","NWBJA","People","","3336","","","","","71","36","ospan-ali-mGdA2fzjWLo-unsplash.jpg","1","","","","","","","","","","","","","","","","","","","","","","","","","","","","","","","","","","","","","","","",""
"","rating","","html-slider-response","6","65394","0.0-5.0","0","0","NWBJA","People","","3301","","","","","25","49","vicky-hladynets-_gDoyVv5F4c-unsplash.jpg","2","","","","","","","","","","","","","","","","","","","","","","","","","","","","","","","","","","","","","","","",""
"","rating","","html-slider-response","7","67935","0.0-6.0","0","0","NWBJA","People","","2540","","","","","23","14","freddy-kearney-o-ioeoATbIM-unsplash.jpg","3","","","","","","","","","","","","","","","","","","","","","","","","","","","","","","","","","","","","","","","",""
"","rating","","html-slider-response","8","70246","0.0-7.0","0","0","NWBJA","People","","2310","","","","","14","47","tyler-nix-ZGa9d1a_4tA-unsplash.jpg","4","","","","","","","","","","","","","","","","","","","","","","","","","","","","","","","","","","","","","","","",""
"","rating","","html-slider-response","9","72812","0.0-8.0","0","0","NWBJA","People","","2565","","","","","15","25","joseph-gonzalez-iFgRcqHznqg-unsplash.jpg","5","","","","","","","","","","","","","","","","","","","","","","","","","","","","","","","","","","","","","","","",""
"","rating","","html-slider-response","10","75825","0.0-9.0","0","0","NWBJA","People","","3013","","","","","29","13","erik-lucatero-d2MSDujJl2g-unsplash.jpg","6","","","","","","","","","","","","","","","","","","","","","","","","","","","","","","","","","","","","","","","",""
"","rating","","html-slider-response","11","78697","0.0-10.0","0","0","NWBJA","People","","2870","","","","","62","17","gleb-lukomets-paBzWCPN23k-unsplash.jpg","7","","","","","","","","","","","","","","","","","","","","","","","","","","","","","","","","","","","","","","","",""
"","rating","","html-slider-response","12","81006","0.0-11.0","0","0","NWBJA","People","","2308","","","","","64","33","olena-sergienko-0TSd6uCKTKc-unsplash.jpg","8","","","","","","","","","","","","","","","","","","","","","","","","","","","","","","","","","","","","","","","",""
"","rating","","html-slider-response","13","82927","0.0-12.0","0","0","NWBJA","People","","1920","","","","","59","41","prince-akachi-i2hoD-C2RUA-unsplash.jpg","9","","","","","","","","","","","","","","","","","","","","","","","","","","","","","","","","","","","","","","","",""
"","rating","","html-slider-response","14","85856","0.0-13.0","0","0","NWBJA","People","","2928","","","","","50","46","stefan-stefancik-QXevDflbl8A-unsplash.jpg","10","","","","","","","","","","","","","","","","","","","","","","","","","","","","","","","","","","","","","","","",""
"","rating","","html-slider-response","15","88401","0.0-14.0","0","0","NWBJA","People","","2544","","","","","35","39","philip-martin-5aGUyCW_PJw-unsplash.jpg","11","","","","","","","","","","","","","","","","","","","","","","","","","","","","","","","","","","","","","","","",""
"","rating","","html-slider-response","16","90612","0.0-15.0","0","0","NWBJA","People","","2210","","","","","46","6","ben-o-bro-C5XyLljkMrY-unsplash.jpg","12","","","","","","","","","","","","","","","","","","","","","","","","","","","","","","","","","","","","","","","",""
"","rating","","html-slider-response","17","94737","0.0-16.0","0","0","NWBJA","People","","4124","","","","","36","22","jessica-radanavong-mrYkTuAesKE-unsplash.jpg","13","","","","","","","","","","","","","","","","","","","","","","","","","","","","","","","","","","","","","","","",""
"","rating","","html-slider-response","18","97298","0.0-17.0","0","0","NWBJA","People","","2560","","","","","50","10","charles-etoroma-95UF6LXe-Lo-unsplash.jpg","14","","","","","","","","","","","","","","","","","","","","","","","","","","","","","","","","","","","","","","","",""
"","rating","","html-slider-response","19","100140","0.0-18.0","0","0","NWBJA","People","","2841","","","","","50","7","brooke-cagle-HRZUzoX1e6w-unsplash.jpg","15","","","","","","","","","","","","","","","","","","","","","","","","","","","","","","","","","","","","","","","",""
"","rating","","html-slider-response","20","102831","0.0-19.0","0","0","NWBJA","People","","2690","","","","","61","31","mathilda-khoo-vLR0YP_otCo-unsplash.jpg","16","","","","","","","","","","","","","","","","","","","","","","","","","","","","","","","","","","","","","","","",""
"","rating","","html-slider-response","21","107876","0.0-20.0","0","0","NWBJA","People","","5043","","","","","59","9","carlos-andres-gomez-vJuk8Y86mRw-unsplash.jpg","17","","","","","","","","","","","","","","","","","","","","","","","","","","","","","","","","","","","","","","","",""
"","rating","","html-slider-response","22","109897","0.0-21.0","0","0","NWBJA","People","","2020","","","","","55","35","oliver-ragfelt-khV4fTy6-D8-unsplash.jpg","18","","","","","","","","","","","","","","","","","","","","","","","","","","","","","","","","","","","","","","","",""
"","rating","","html-slider-response","23","112247","0.0-22.0","0","0","NWBJA","People","","2349","","","","","9","45","sarah-noltner-pL5ZzPp1zqg-unsplash.jpg","19","","","","","","","","","","","","","","","","","","","","","","","","","","","","","","","","","","","","","","","",""
"","rating","","html-slider-response","24","114909","0.0-23.0","0","0","NWBJA","People","","2660","","","","","50","43","raamin-ka-0qJBEzudn5E-unsplash.jpg","20","","","","","","","","","","","","","","","","","","","","","","","","","","","","","","","","","","","","","","","",""
"","rating","","html-slider-response","25","116914","0.0-24.0","0","0","NWBJA","People","","2004","","","","","12","2","arjunsyah-TBUA5KHJn6k-unsplash.jpg","21","","","","","","","","","","","","","","","","","","","","","","","","","","","","","","","","","","","","","","","",""
"","rating","","html-slider-response","26","119490","0.0-25.0","0","0","NWBJA","People","","2575","","","","","41","37","pavel-anoshin-d0peGya6R5Y-unsplash.jpg","22","","","","","","","","","","","","","","","","","","","","","","","","","","","","","","","","","","","","","","","",""
"","rating","","html-slider-response","27","122104","0.0-26.0","0","0","NWBJA","People","","2613","","","","","61","15","gabriel-silverio-u3WmDyKGsrY-unsplash.jpg","23","","","","","","","","","","","","","","","","","","","","","","","","","","","","","","","","","","","","","","","",""
"","rating","","html-slider-response","28","124275","0.0-27.0","0","0","NWBJA","People","","2170","","","","","16","32","nathan-dumlao-ger61_TX6oI-unsplash.jpg","24","","","","","","","","","","","","","","","","","","","","","","","","","","","","","","","","","","","","","","","",""
"","rating","","html-slider-response","29","127447","0.0-28.0","0","0","NWBJA","People","","3171","","","","","50","23","joanna-nix-walkup-H4fEMshfwTE-unsplash.jpg","25","","","","","","","","","","","","","","","","","","","","","","","","","","","","","","","","","","","","","","","",""
"","rating","","html-slider-response","30","130125","0.0-29.0","0","0","NWBJA","People","","2676","","","","","19","19","ha-nguy-n-OFSQ6bHjFjs-unsplash.jpg","26","","","","","","","","","","","","","","","","","","","","","","","","","","","","","","","","","","","","","","","",""
"","rating","","html-slider-response","31","133007","0.0-30.0","0","0","NWBJA","People","","2881","","","","","69","1","aiony-haust-jmATI5Q_YgY-unsplash.jpg","27","","","","","","","","","","","","","","","","","","","","","","","","","","","","","","","","","","","","","","","",""
"","rating","","html-slider-response","32","135607","0.0-31.0","0","0","NWBJA","People","","2599","","","","","74","21","jessica-felicio-_cvwXhGqG-o-unsplash.jpg","28","","","","","","","","","","","","","","","","","","","","","","","","","","","","","","","","","","","","","","","",""
"","rating","","html-slider-response","33","137408","0.0-32.0","0","0","NWBJA","People","","1800","","","","","60","11","christian-ferrer-8vT-DgHZDG4-unsplash.jpg","29","","","","","","","","","","","","","","","","","","","","","","","","","","","","","","","","","","","","","","","",""
"","rating","","html-slider-response","34","140033","0.0-33.0","0","0","NWBJA","People","","2624","","","","","35","0","abstral-official-cyOKLSgkgCE-unsplash.jpg","30","","","","","","","","","","","","","","","","","","","","","","","","","","","","","","","","","","","","","","","",""
"","rating","","html-slider-response","35","143217","0.0-34.0","0","0","NWBJA","People","","3183","","","","","50","27","jurica-koletic-7YVZYZeITc8-unsplash.jpg","31","","","","","","","","","","","","","","","","","","","","","","","","","","","","","","","","","","","","","","","",""
"","rating","","html-slider-response","36","145926","0.0-35.0","0","0","NWBJA","People","","2707","","","","","39","28","justin-chen-J7Cf1Gch49E-unsplash.jpg","32","","","","","","","","","","","","","","","","","","","","","","","","","","","","","","","","","","","","","","","",""
"","rating","","html-slider-response","37","148492","0.0-36.0","0","0","NWBJA","People","","2565","","","","","60","5","batel-studio-ttSRjiYG_WM-unsplash.jpg","33","","","","","","","","","","","","","","","","","","","","","","","","","","","","","","","","","","","","","","","",""
"","rating","","html-slider-response","38","150969","0.0-37.0","0","0","NWBJA","People","","2475","","","","","60","24","joel-mott-LaK153ghdig-unsplash.jpg","34","","","","","","","","","","","","","","","","","","","","","","","","","","","","","","","","","","","","","","","",""
"","rating","","html-slider-response","39","153858","0.0-38.0","0","0","NWBJA","People","","2887","","","","","53","42","prince-akachi-l3IHXOdMyHQ-unsplash.jpg","35","","","","","","","","","","","","","","","","","","","","","","","","","","","","","","","","","","","","","","","",""
"","rating","","html-slider-response","40","156347","0.0-39.0","0","0","NWBJA","People","","2488","","","","","45","30","matheus-ferrero-pg_WCHWSdT8-unsplash.jpg","36","","","","","","","","","","","","","","","","","","","","","","","","","","","","","","","","","","","","","","","",""
"","rating","","html-slider-response","41","158954","0.0-40.0","0","0","NWBJA","People","","2606","","","","","34","12","daniel-rigdon-dXmXKPP2L4E-unsplash.jpg","37","","","","","","","","","","","","","","","","","","","","","","","","","","","","","","","","","","","","","","","",""
"","rating","","html-slider-response","42","162091","0.0-41.0","0","0","NWBJA","People","","3136","","","","","47","40","prince-akachi-4Yv84VgQkRM-unsplash.jpg","38","","","","","","","","","","","","","","","","","","","","","","","","","","","","","","","","","","","","","","","",""
"","rating","","html-slider-response","43","165113","0.0-42.0","0","0","NWBJA","People","","3021","","","","","43","48","velizar-ivanov-7ktP9yZA1g4-unsplash.jpg","39","","","","","","","","","","","","","","","","","","","","","","","","","","","","","","","","","","","","","","","",""
"","rating","","html-slider-response","44","167678","0.0-43.0","0","0","NWBJA","People","","2563","","","","","41","29","leilani-angel-K84vnnzxmTQ-unsplash.jpg","40","","","","","","","","","","","","","","","","","","","","","","","","","","","","","","","","","","","","","","","",""
"","rating","","html-slider-response","45","170558","0.0-44.0","0","0","NWBJA","People","","2878","","","","","50","44","rikonavt-HQjfrvdTfak-unsplash.jpg","41","","","","","","","","","","","","","","","","","","","","","","","","","","","","","","","","","","","","","","","",""
"","rating","","html-slider-response","46","173899","0.0-45.0","0","0","NWBJA","People","","3340","","","","","34","4","barna-bartis-2x3vfVxwR7o-unsplash.jpg","42","","","","","","","","","","","","","","","","","","","","","","","","","","","","","","","","","","","","","","","",""
"","rating","","html-slider-response","47","176950","0.0-46.0","0","0","NWBJA","People","","3049","","","","","50","18","good-faces-xmSWVeGEnJw-unsplash.jpg","43","","","","","","","","","","","","","","","","","","","","","","","","","","","","","","","","","","","","","","","",""
"","rating","","html-slider-response","48","179668","0.0-47.0","0","0","NWBJA","People","","2718","","","","","57","3","art-hauntington-jzY0KRJopEI-unsplash.jpg","44","","","","","","","","","","","","","","","","","","","","","","","","","","","","","","","","","","","","","","","",""
"","rating","","html-slider-response","49","181968","0.0-48.0","0","0","NWBJA","People","","2298","","","","","34","8","bruce-dixon-3M9WJQVHzog-unsplash.jpg","45","","","","","","","","","","","","","","","","","","","","","","","","","","","","","","","","","","","","","","","",""
"","rating","","html-slider-response","50","185930","0.0-49.0","0","0","NWBJA","People","","3960","","","","","62","26","juri-gianfrancesco-9EZadYaMzk4-unsplash.jpg","46","","","","","","","","","","","","","","","","","","","","","","","","","","","","","","","","","","","","","","","",""
"","rating","","html-slider-response","51","188557","0.0-50.0","0","0","NWBJA","People","","2625","","","","","55","38","petr-sevcovic-HzDF-rxlSeM-unsplash.jpg","47","","","","","","","","","","","","","","","","","","","","","","","","","","","","","","","","","","","","","","","",""
"","rating","","html-slider-response","52","193068","0.0-51.0","0","0","NWBJA","People","","4509","","","","","42","16","giano-currie-5-9YOsmf8IQ-unsplash.jpg","48","","","","","","","","","","","","","","","","","","","","","","","","","","","","","","","","","","","","","","","",""
"","rating","","html-slider-response","53","198949","0.0-52.0","0","0","NWBJA","People","","5879","","","","","50","20","houcine-ncib-B4TjXnI0Y2c-unsplash.jpg","49","","","","","","","","","","","","","","","","","","","","","","","","","","","","","","","","","","","","","","","",""
"","deliberation_instructions","","instructions","54","349973","0.0-53.0-0.0","0","0","NWBJA","People","[{""page_index"":0,""viewing_time"":51203},{""page_index"":1,""viewing_time"":10787},{""page_index"":2,""viewing_time"":13427},{""page_index"":3,""viewing_time"":75190},{""page_index"":4,""viewing_time"":414}]","151022","","","","","","","","","","","","","","","","","","","","","","","","","","","","","","","","","","","","","","","","","","","","","","","",""
"","","","survey-multi-choice","55","376817","0.0-53.0-1.0","0","0","NWBJA","People","","26840","{""Q0"":""True"",""Q1"":""True"",""Q2"":""Consider carefully and take your time (up to 10 seconds)"",""Q3"":""True"",""Q4"":""D""}","deliberation_comprehension_check","0","","","","","","","","","","","","","","","","","","","","","","","","","","","","","","","","","","","","","","","","","","","","",""
"","start_phase","","html-keyboard-response","56","379153","0.0-54.0","0","0","NWBJA","People","","2334","","","","78","","","","","","","","","","","","","","","","","","","","","","","","","","","","","","","","","","","","","","","","","","","",""
"","first_deliberation_block","","html-keyboard-response","57","382071","0.0-55.0","0","0","NWBJA","People","","2917","","","","78","","","","","","","","","","","","","","","","","","","","","","","","","","","","","","","","","","","","","","","","","","","",""
"","fixation","","html-keyboard-response","58","383085","0.0-56.0-0.0","0","0","NWBJA","People","","null","","","","null","","","","","","","","","","","","","","","","","","","","","","","","","","","","","","","","","","","","","","","","","","","",""
"","deliberation","","html-keyboard-response","59","384408","0.0-56.0-1.0","0","0","NWBJA","People","","1322","","","","68","","","","0","43","42","1","1","50","53","raamin-ka-0qJBEzudn5E-unsplash.jpg","prince-akachi-l3IHXOdMyHQ-unsplash.jpg","1","1","43","42","","","","","","","","","","","","","","","","","","","","","","","","","","","",""
"","choice_confirmation","","html-keyboard-response","60","384916","0.0-56.0-2.0-0.0","0","0","NWBJA","People","","null","","","","null","","","","0","43","42","","","","","","","","","","","","","","","","","","","","","","","","","","","","","","","","","","","","","",""
"","explain_trial","","survey-text","61","398891","0.0-56.0-5.0-0.0","0","0","NWBJA","People","","13974","{""Q0"":""I like the color palette more""}","","","","","","","0","43","42","","","","","","","","","","","{""Q0"":""I like the color palette more""}","","","","","","","","","","","","","","","","","","","","","","","","","","",""
"","fixation","","html-keyboard-response","62","399893","0.0-57.0-0.0","0","0","NWBJA","People","","null","","","","null","","","","","","","","","","","","","","","","","","","","","","","","","","","","","","","","","","","","","","","","","","","",""
"","deliberation","","html-keyboard-response","63","402208","0.0-57.0-1.0","0","0","NWBJA","People","","2315","","","","75","","","","1","22","7","0","-1","36","50","jessica-radanavong-mrYkTuAesKE-unsplash.jpg","brooke-cagle-HRZUzoX1e6w-unsplash.jpg","1","0","7","22","","","","","","","","","","","","","","","","","","","","","","","","","","","",""
"","choice_confirmation","","html-keyboard-response","64","402729","0.0-57.0-2.0-0.0","0","0","NWBJA","People","","null","","","","null","","","","1","22","7","","","","","","","","","","","","","","","","","","","","","","","","","","","","","","","","","","","","","",""
"","fixation","","html-keyboard-response","65","403746","0.0-58.0-0.0","0","0","NWBJA","People","","null","","","","null","","","","","","","","","","","","","","","","","","","","","","","","","","","","","","","","","","","","","","","","","","","",""
"","deliberation","","html-keyboard-response","66","406010","0.0-58.0-1.0","0","0","NWBJA","People","","2264","","","","68","","","","2","20","28","0","1","50","39","houcine-ncib-B4TjXnI0Y2c-unsplash.jpg","justin-chen-J7Cf1Gch49E-unsplash.jpg","1","1","20","28","","","","","","","","","","","","","","","","","","","","","","","","","","","",""
"","choice_confirmation","","html-keyboard-response","67","406518","0.0-58.0-2.0-0.0","0","0","NWBJA","People","","null","","","","null","","","","2","20","28","","","","","","","","","","","","","","","","","","","","","","","","","","","","","","","","","","","","","",""
"","fixation","","html-keyboard-response","68","407526","0.0-59.0-0.0","0","0","NWBJA","People","","null","","","","null","","","","","","","","","","","","","","","","","","","","","","","","","","","","","","","","","","","","","","","","","","","",""
"","deliberation","","html-keyboard-response","69","408758","0.0-59.0-1.0","0","0","NWBJA","People","","1232","","","","75","","","","3","6","35","1","1","46","55","ben-o-bro-C5XyLljkMrY-unsplash.jpg","oliver-ragfelt-khV4fTy6-D8-unsplash.jpg","1","0","35","6","","","","","","","","","","","","","","","","","","","","","","","","","","","",""
"","choice_confirmation","","html-keyboard-response","70","409263","0.0-59.0-2.0-0.0","0","0","NWBJA","People","","null","","","","null","","","","3","6","35","","","","","","","","","","","","","","","","","","","","","","","","","","","","","","","","","","","","","",""
"","explain_trial","","survey-text","71","429603","0.0-59.0-5.0-0.0","0","0","NWBJA","People","","20338","{""Q0"":""he has nice eyes, it made an impression on me""}","","","","","","","3","6","35","","","","","","","","","","","{""Q0"":""he has nice eyes, it made an impression on me""}","","","","","","","","","","","","","","","","","","","","","","","","","","",""
"","fixation","","html-keyboard-response","72","430617","0.0-60.0-0.0","0","0","NWBJA","People","","null","","","","null","","","","","","","","","","","","","","","","","","","","","","","","","","","","","","","","","","","","","","","","","","","",""
"","deliberation","","html-keyboard-response","73","433110","0.0-60.0-1.0","0","0","NWBJA","People","","2492","","","","75","","","","4","16","18","1","-1","42","50","giano-currie-5-9YOsmf8IQ-unsplash.jpg","good-faces-xmSWVeGEnJw-unsplash.jpg","1","0","18","16","","","","","","","","","","","","","","","","","","","","","","","","","","","",""
"","choice_confirmation","","html-keyboard-response","74","433619","0.0-60.0-2.0-0.0","0","0","NWBJA","People","","null","","","","null","","","","4","16","18","","","","","","","","","","","","","","","","","","","","","","","","","","","","","","","","","","","","","",""
"","explain_trial","","survey-text","75","453917","0.0-60.0-5.0-0.0","0","0","NWBJA","People","","20296","{""Q0"":""the minimal color palette is more aesthetic""}","","","","","","","4","16","18","","","","","","","","","","","{""Q0"":""the minimal color palette is more aesthetic""}","","","","","","","","","","","","","","","","","","","","","","","","","","",""
"","fixation","","html-keyboard-response","76","454932","0.0-61.0-0.0","0","0","NWBJA","People","","null","","","","null","","","","","","","","","","","","","","","","","","","","","","","","","","","","","","","","","","","","","","","","","","","",""
"","deliberation","","html-keyboard-response","77","456216","0.0-61.0-1.0","0","0","NWBJA","People","","1283","","","","75","","","","5","46","38","0","-1","50","55","stefan-stefancik-QXevDflbl8A-unsplash.jpg","petr-sevcovic-HzDF-rxlSeM-unsplash.jpg","1","0","38","46","","","","","","","","","","","","","","","","","","","","","","","","","","","",""
"","choice_confirmation","","html-keyboard-response","78","456727","0.0-61.0-2.0-0.0","0","0","NWBJA","People","","null","","","","null","","","","5","46","38","","","","","","","","","","","","","","","","","","","","","","","","","","","","","","","","","","","","","",""
"","fixation","","html-keyboard-response","79","457735","0.0-62.0-0.0","0","0","NWBJA","People","","null","","","","null","","","","","","","","","","","","","","","","","","","","","","","","","","","","","","","","","","","","","","","","","","","",""
"","deliberation","","html-keyboard-response","80","459350","0.0-62.0-1.0","0","0","NWBJA","People","","1614","","","","68","","","","6","30","37","1","-1","45","41","matheus-ferrero-pg_WCHWSdT8-unsplash.jpg","pavel-anoshin-d0peGya6R5Y-unsplash.jpg","1","1","30","37","","","","","","","","","","","","","","","","","","","","","","","","","","","",""
"","choice_confirmation","","html-keyboard-response","81","459864","0.0-62.0-2.0-0.0","0","0","NWBJA","People","","null","","","","null","","","","6","30","37","","","","","","","","","","","","","","","","","","","","","","","","","","","","","","","","","","","","","",""
"","explain_trial","","survey-text","82","475530","0.0-62.0-5.0-0.0","0","0","NWBJA","People","","15664","{""Q0"":""I like the leaf background more""}","","","","","","","6","30","37","","","","","","","","","","","{""Q0"":""I like the leaf background more""}","","","","","","","","","","","","","","","","","","","","","","","","","","",""
"","fixation","","html-keyboard-response","83","476543","0.0-63.0-0.0","0","0","NWBJA","People","","null","","","","null","","","","","","","","","","","","","","","","","","","","","","","","","","","","","","","","","","","","","","","","","","","",""
"","deliberation","","html-keyboard-response","84","477875","0.0-63.0-1.0","0","0","NWBJA","People","","1331","","","","75","","","","7","27","29","1","1","50","41","jurica-koletic-7YVZYZeITc8-unsplash.jpg","leilani-angel-K84vnnzxmTQ-unsplash.jpg","1","0","29","27","","","","","","","","","","","","","","","","","","","","","","","","","","","",""
"","choice_confirmation","","html-keyboard-response","85","478388","0.0-63.0-2.0-0.0","0","0","NWBJA","People","","null","","","","null","","","","7","27","29","","","","","","","","","","","","","","","","","","","","","","","","","","","","","","","","","","","","","",""
"","explain_trial","","survey-text","86","491030","0.0-63.0-5.0-0.0","0","0","NWBJA","People","","12640","{""Q0"":""He gives off a better vibe""}","","","","","","","7","27","29","","","","","","","","","","","{""Q0"":""He gives off a better vibe""}","","","","","","","","","","","","","","","","","","","","","","","","","","",""
"","fixation","","html-keyboard-response","87","492042","0.0-64.0-0.0","0","0","NWBJA","People","","null","","","","null","","","","","","","","","","","","","","","","","","","","","","","","","","","","","","","","","","","","","","","","","","","",""
"","deliberation","","html-keyboard-response","88","493237","0.0-64.0-1.0","0","0","NWBJA","People","","1193","","","","75","","","","8","0","10","0","-1","35","50","abstral-official-cyOKLSgkgCE-unsplash.jpg","charles-etoroma-95UF6LXe-Lo-unsplash.jpg","1","0","10","0","","","","","","","","","","","","","","","","","","","","","","","","","","","",""
"","choice_confirmation","","html-keyboard-response","89","493744","0.0-64.0-2.0-0.0","0","0","NWBJA","People","","null","","","","null","","","","8","0","10","","","","","","","","","","","","","","","","","","","","","","","","","","","","","","","","","","","","","",""
"","fixation","","html-keyboard-response","90","494766","0.0-65.0-0.0","0","0","NWBJA","People","","null","","","","null","","","","","","","","","","","","","","","","","","","","","","","","","","","","","","","","","","","","","","","","","","","",""
"","deliberation","","html-keyboard-response","91","496121","0.0-65.0-1.0","0","0","NWBJA","People","","1354","","","","68","","","","9","3","23","0","-1","57","50","art-hauntington-jzY0KRJopEI-unsplash.jpg","joanna-nix-walkup-H4fEMshfwTE-unsplash.jpg","1","1","3","23","","","","","","","","","","","","","","","","","","","","","","","","","","","",""
"","choice_confirmation","","html-keyboard-response","92","496640","0.0-65.0-2.0-0.0","0","0","NWBJA","People","","null","","","","null","","","","9","3","23","","","","","","","","","","","","","","","","","","","","","","","","","","","","","","","","","","","","","",""
"","fixation","","html-keyboard-response","93","497650","0.0-66.0-0.0","0","0","NWBJA","People","","null","","","","null","","","","","","","","","","","","","","","","","","","","","","","","","","","","","","","","","","","","","","","","","","","",""
"","deliberation","","html-keyboard-response","94","499261","0.0-66.0-1.0","0","0","NWBJA","People","","1610","","","","68","","","","10","34","48","0","1","50","43","oliver-johnson-1TUIcKob7Zs-unsplash.jpg","velizar-ivanov-7ktP9yZA1g4-unsplash.jpg","1","1","34","48","","","","","","","","","","","","","","","","","","","","","","","","","","","",""
"","choice_confirmation","","html-keyboard-response","95","499766","0.0-66.0-2.0-0.0","0","0","NWBJA","People","","null","","","","null","","","","10","34","48","","","","","","","","","","","","","","","","","","","","","","","","","","","","","","","","","","","","","",""
"","fixation","","html-keyboard-response","96","500774","0.0-67.0-0.0","0","0","NWBJA","People","","null","","","","null","","","","","","","","","","","","","","","","","","","","","","","","","","","","","","","","","","","","","","","","","","","",""
"","deliberation","","html-keyboard-response","97","502405","0.0-67.0-1.0","0","0","NWBJA","People","","1629","","","","68","","","","11","44","40","1","1","50","47","rikonavt-HQjfrvdTfak-unsplash.jpg","prince-akachi-4Yv84VgQkRM-unsplash.jpg","1","1","44","40","","","","","","","","","","","","","","","","","","","","","","","","","","","",""
"","choice_confirmation","","html-keyboard-response","98","502916","0.0-67.0-2.0-0.0","0","0","NWBJA","People","","null","","","","null","","","","11","44","40","","","","","","","","","","","","","","","","","","","","","","","","","","","","","","","","","","","","","",""
"","explain_trial","","survey-text","99","524411","0.0-67.0-5.0-0.0","0","0","NWBJA","People","","21494","{""Q0"":""her expression is better, looks more artistic""}","","","","","","","11","44","40","","","","","","","","","","","{""Q0"":""her expression is better, looks more artistic""}","","","","","","","","","","","","","","","","","","","","","","","","","","",""
"","practice_deliberation_again","","html-keyboard-response","100","527237","0.0-67.0-6.0-0.0","0","0","NWBJA","People","","2825","","","","78","","","","","","","","","","","","","","","","","","","","","","","","","","","","","","","","","","","","","","","","","","","",""
"","fixation","","html-keyboard-response","101","528256","0.0-68.0-0.0","0","0","NWBJA","People","","null","","","","null","","","","","","","","","","","","","","","","","","","","","","","","","","","","","","","","","","","","","","","","","","","",""
"","deliberation","","html-keyboard-response","102","529509","0.0-68.0-1.0","0","0","NWBJA","People","","1252","","","","75","","","","12","16","18","0","-1","42","50","giano-currie-5-9YOsmf8IQ-unsplash.jpg","good-faces-xmSWVeGEnJw-unsplash.jpg","2","0","18","16","","","","","","","","","","","","","","","","","","","","","","","","","","","",""
"","choice_confirmation","","html-keyboard-response","103","530014","0.0-68.0-2.0-0.0","0","0","NWBJA","People","","null","","","","null","","","","12","16","18","","","","","","","","","","","","","","","","","","","","","","","","","","","","","","","","","","","","","",""
"","fixation","","html-keyboard-response","104","531035","0.0-69.0-0.0","0","0","NWBJA","People","","null","","","","null","","","","","","","","","","","","","","","","","","","","","","","","","","","","","","","","","","","","","","","","","","","",""
"","deliberation","","html-keyboard-response","105","532965","0.0-69.0-1.0","0","0","NWBJA","People","","1928","","","","68","","","","13","34","48","1","1","50","43","oliver-johnson-1TUIcKob7Zs-unsplash.jpg","velizar-ivanov-7ktP9yZA1g4-unsplash.jpg","2","1","34","48","","","","","","","","","","","","","","","","","","","","","","","","","","","",""
"","choice_confirmation","","html-keyboard-response","106","533472","0.0-69.0-2.0-0.0","0","0","NWBJA","People","","null","","","","null","","","","13","34","48","","","","","","","","","","","","","","","","","","","","","","","","","","","","","","","","","","","","","",""
"","explain_trial","","survey-text","107","554754","0.0-69.0-5.0-0.0","0","0","NWBJA","People","","21280","{""Q0"":""better background, the yellow compliments her features well""}","","","","","","","13","34","48","","","","","","","","","","","{""Q0"":""better background, the yellow compliments her features well""}","","","","","","","","","","","","","","","","","","","","","","","","","","",""
"","fixation","","html-keyboard-response","108","555763","0.0-70.0-0.0","0","0","NWBJA","People","","null","","","","null","","","","","","","","","","","","","","","","","","","","","","","","","","","","","","","","","","","","","","","","","","","",""
"","deliberation","","html-keyboard-response","109","556753","0.0-70.0-1.0","0","0","NWBJA","People","","989","","","","75","","","","14","0","10","1","-1","35","50","abstral-official-cyOKLSgkgCE-unsplash.jpg","charles-etoroma-95UF6LXe-Lo-unsplash.jpg","2","0","10","0","","","","","","","","","","","","","","","","","","","","","","","","","","","",""
"","choice_confirmation","","html-keyboard-response","110","557261","0.0-70.0-2.0-0.0","0","0","NWBJA","People","","null","","","","null","","","","14","0","10","","","","","","","","","","","","","","","","","","","","","","","","","","","","","","","","","","","","","",""
"","explain_trial","","survey-text","111","573383","0.0-70.0-5.0-0.0","0","0","NWBJA","People","","16120","{""Q0"":""he has a better expression, the smile makes me happy""}","","","","","","","14","0","10","","","","","","","","","","","{""Q0"":""he has a better expression, the smile makes me happy""}","","","","","","","","","","","","","","","","","","","","","","","","","","",""
"","fixation","","html-keyboard-response","112","574398","0.0-71.0-0.0","0","0","NWBJA","People","","null","","","","null","","","","","","","","","","","","","","","","","","","","","","","","","","","","","","","","","","","","","","","","","","","",""
"","deliberation","","html-keyboard-response","113","575286","0.0-71.0-1.0","0","0","NWBJA","People","","886","","","","75","","","","15","27","29","0","1","50","41","jurica-koletic-7YVZYZeITc8-unsplash.jpg","leilani-angel-K84vnnzxmTQ-unsplash.jpg","2","0","29","27","","","","","","","","","","","","","","","","","","","","","","","","","","","",""
"","choice_confirmation","","html-keyboard-response","114","575790","0.0-71.0-2.0-0.0","0","0","NWBJA","People","","null","","","","null","","","","15","27","29","","","","","","","","","","","","","","","","","","","","","","","","","","","","","","","","","","","","","",""
"","fixation","","html-keyboard-response","115","576801","0.0-72.0-0.0","0","0","NWBJA","People","","null","","","","null","","","","","","","","","","","","","","","","","","","","","","","","","","","","","","","","","","","","","","","","","","","",""
"","deliberation","","html-keyboard-response","116","577747","0.0-72.0-1.0","0","0","NWBJA","People","","945","","","","68","","","","16","43","42","0","1","50","53","raamin-ka-0qJBEzudn5E-unsplash.jpg","prince-akachi-l3IHXOdMyHQ-unsplash.jpg","2","1","43","42","","","","","","","","","","","","","","","","","","","","","","","","","","","",""
"","choice_confirmation","","html-keyboard-response","117","578261","0.0-72.0-2.0-0.0","0","0","NWBJA","People","","null","","","","null","","","","16","43","42","","","","","","","","","","","","","","","","","","","","","","","","","","","","","","","","","","","","","",""
"","fixation","","html-keyboard-response","118","579278","0.0-73.0-0.0","0","0","NWBJA","People","","null","","","","null","","","","","","","","","","","","","","","","","","","","","","","","","","","","","","","","","","","","","","","","","","","",""
"","deliberation","","html-keyboard-response","119","580350","0.0-73.0-1.0","0","0","NWBJA","People","","1071","","","","75","","","","17","6","35","0","1","46","55","ben-o-bro-C5XyLljkMrY-unsplash.jpg","oliver-ragfelt-khV4fTy6-D8-unsplash.jpg","2","0","35","6","","","","","","","","","","","","","","","","","","","","","","","","","","","",""
"","choice_confirmation","","html-keyboard-response","120","580858","0.0-73.0-2.0-0.0","0","0","NWBJA","People","","null","","","","null","","","","17","6","35","","","","","","","","","","","","","","","","","","","","","","","","","","","","","","","","","","","","","",""
"","fixation","","html-keyboard-response","121","581868","0.0-74.0-0.0","0","0","NWBJA","People","","null","","","","null","","","","","","","","","","","","","","","","","","","","","","","","","","","","","","","","","","","","","","","","","","","",""
"","deliberation","","html-keyboard-response","122","582698","0.0-74.0-1.0","0","0","NWBJA","People","","829","","","","68","","","","18","30","37","0","-1","45","41","matheus-ferrero-pg_WCHWSdT8-unsplash.jpg","pavel-anoshin-d0peGya6R5Y-unsplash.jpg","2","1","30","37","","","","","","","","","","","","","","","","","","","","","","","","","","","",""
"","choice_confirmation","","html-keyboard-response","123","583215","0.0-74.0-2.0-0.0","0","0","NWBJA","People","","null","","","","null","","","","18","30","37","","","","","","","","","","","","","","","","","","","","","","","","","","","","","","","","","","","","","",""
"","fixation","","html-keyboard-response","124","584228","0.0-75.0-0.0","0","0","NWBJA","People","","null","","","","null","","","","","","","","","","","","","","","","","","","","","","","","","","","","","","","","","","","","","","","","","","","",""
"","deliberation","","html-keyboard-response","125","584949","0.0-75.0-1.0","0","0","NWBJA","People","","720","","","","68","","","","19","3","23","1","-1","57","50","art-hauntington-jzY0KRJopEI-unsplash.jpg","joanna-nix-walkup-H4fEMshfwTE-unsplash.jpg","2","1","3","23","","","","","","","","","","","","","","","","","","","","","","","","","","","",""
"","choice_confirmation","","html-keyboard-response","126","585455","0.0-75.0-2.0-0.0","0","0","NWBJA","People","","null","","","","null","","","","19","3","23","","","","","","","","","","","","","","","","","","","","","","","","","","","","","","","","","","","","","",""
"","explain_trial","","survey-text","127","596868","0.0-75.0-5.0-0.0","0","0","NWBJA","People","","11413","{""Q0"":""she is really pretty""}","","","","","","","19","3","23","","","","","","","","","","","{""Q0"":""she is really pretty""}","","","","","","","","","","","","","","","","","","","","","","","","","","",""
"","fixation","","html-keyboard-response","128","597878","0.0-76.0-0.0","0","0","NWBJA","People","","null","","","","null","","","","","","","","","","","","","","","","","","","","","","","","","","","","","","","","","","","","","","","","","","","",""
"","deliberation","","html-keyboard-response","129","599516","0.0-76.0-1.0","0","0","NWBJA","People","","1636","","","","75","","","","20","46","38","1","-1","50","55","stefan-stefancik-QXevDflbl8A-unsplash.jpg","petr-sevcovic-HzDF-rxlSeM-unsplash.jpg","2","0","38","46","","","","","","","","","","","","","","","","","","","","","","","","","","","",""
"","choice_confirmation","","html-keyboard-response","130","600026","0.0-76.0-2.0-0.0","0","0","NWBJA","People","","null","","","","null","","","","20","46","38","","","","","","","","","","","","","","","","","","","","","","","","","","","","","","","","","","","","","",""
"","explain_trial","","survey-text","131","612123","0.0-76.0-5.0-0.0","0","0","NWBJA","People","","12095","{""Q0"":""I really like his smile and dimples. ""}","","","","","","","20","46","38","","","","","","","","","","","{""Q0"":""I really like his smile and dimples. ""}","","","","","","","","","","","","","","","","","","","","","","","","","","",""
"","fixation","","html-keyboard-response","132","613130","0.0-77.0-0.0","0","0","NWBJA","People","","null","","","","null","","","","","","","","","","","","","","","","","","","","","","","","","","","","","","","","","","","","","","","","","","","",""
"","deliberation","","html-keyboard-response","133","614244","0.0-77.0-1.0","0","0","NWBJA","People","","1113","","","","68","","","","21","44","40","0","1","50","47","rikonavt-HQjfrvdTfak-unsplash.jpg","prince-akachi-4Yv84VgQkRM-unsplash.jpg","2","1","44","40","","","","","","","","","","","","","","","","","","","","","","","","","","","",""
"","choice_confirmation","","html-keyboard-response","134","614751","0.0-77.0-2.0-0.0","0","0","NWBJA","People","","null","","","","null","","","","21","44","40","","","","","","","","","","","","","","","","","","","","","","","","","","","","","","","","","","","","","",""
"","fixation","","html-keyboard-response","135","615757","0.0-78.0-0.0","0","0","NWBJA","People","","null","","","","null","","","","","","","","","","","","","","","","","","","","","","","","","","","","","","","","","","","","","","","","","","","",""
"","deliberation","","html-keyboard-response","136","616490","0.0-78.0-1.0","0","0","NWBJA","People","","732","","","","75","","","","22","22","7","1","-1","36","50","jessica-radanavong-mrYkTuAesKE-unsplash.jpg","brooke-cagle-HRZUzoX1e6w-unsplash.jpg","2","0","7","22","","","","","","","","","","","","","","","","","","","","","","","","","","","",""
"","choice_confirmation","","html-keyboard-response","137","617009","0.0-78.0-2.0-0.0","0","0","NWBJA","People","","null","","","","null","","","","22","22","7","","","","","","","","","","","","","","","","","","","","","","","","","","","","","","","","","","","","","",""
"","explain_trial","","survey-text","138","637796","0.0-78.0-5.0-0.0","0","0","NWBJA","People","","20786","{""Q0"":""she has a better vibe and the color palette is better""}","","","","","","","22","22","7","","","","","","","","","","","{""Q0"":""she has a better vibe and the color palette is better""}","","","","","","","","","","","","","","","","","","","","","","","","","","",""
"","fixation","","html-keyboard-response","139","638806","0.0-79.0-0.0","0","0","NWBJA","People","","null","","","","null","","","","","","","","","","","","","","","","","","","","","","","","","","","","","","","","","","","","","","","","","","","",""
"","deliberation","","html-keyboard-response","140","639962","0.0-79.0-1.0","0","0","NWBJA","People","","1156","","","","68","","","","23","20","28","1","1","50","39","houcine-ncib-B4TjXnI0Y2c-unsplash.jpg","justin-chen-J7Cf1Gch49E-unsplash.jpg","2","1","20","28","","","","","","","","","","","","","","","","","","","","","","","","","","","",""
"","choice_confirmation","","html-keyboard-response","141","640474","0.0-79.0-2.0-0.0","0","0","NWBJA","People","","null","","","","null","","","","23","20","28","","","","","","","","","","","","","","","","","","","","","","","","","","","","","","","","","","","","","",""
"","explain_trial","","survey-text","142","663093","0.0-79.0-5.0-0.0","0","0","NWBJA","People","","22617","{""Q0"":""better lighting, I also like her eyes and freckles""}","","","","","","","23","20","28","","","","","","","","","","","{""Q0"":""better lighting, I also like her eyes and freckles""}","","","","","","","","","","","","","","","","","","","","","","","","","","",""
"","start_critical_deliberation_block","","html-keyboard-response","143","665981","0.0-79.0-7.0-0.0","0","0","NWBJA","People","","2887","","","","78","","","","","","","","","","","","","","","","","","","","","","","","","","","","","","","","","","","","","","","","","","","",""
"","fixation","","html-keyboard-response","144","666990","0.0-80.0-0.0","0","0","NWBJA","People","","null","","","","null","","","","","","","","","","","","","","","","","","","","","","","","","","","","","","","","","","","","","","","","","","","",""
"","deliberation","","html-keyboard-response","145","668063","0.0-80.0-1.0","0","0","NWBJA","People","","1072","","","","68","","","","24","20","28","0","1","50","39","houcine-ncib-B4TjXnI0Y2c-unsplash.jpg","justin-chen-J7Cf1Gch49E-unsplash.jpg","3","1","20","28","","","","","","","","","","","","","","","","","","","","","","","","","","","",""
"","choice_confirmation","","html-keyboard-response","146","668571","0.0-80.0-2.0-0.0","0","0","NWBJA","People","","null","","","","null","","","","24","20","28","","","","","","","","","","","","","","","","","","","","","","","","","","","","","","","","","","","","","",""
"","fixation","","html-keyboard-response","147","669583","0.0-81.0-0.0","0","0","NWBJA","People","","null","","","","null","","","","","","","","","","","","","","","","","","","","","","","","","","","","","","","","","","","","","","","","","","","",""
"","deliberation","","html-keyboard-response","148","670569","0.0-81.0-1.0","0","0","NWBJA","People","","985","","","","68","","","","25","3","23","0","-1","57","50","art-hauntington-jzY0KRJopEI-unsplash.jpg","joanna-nix-walkup-H4fEMshfwTE-unsplash.jpg","3","1","3","23","","","","","","","","","","","","","","","","","","","","","","","","","","","",""
"","choice_confirmation","","html-keyboard-response","149","671080","0.0-81.0-2.0-0.0","0","0","NWBJA","People","","null","","","","null","","","","25","3","23","","","","","","","","","","","","","","","","","","","","","","","","","","","","","","","","","","","","","",""
"","fixation","","html-keyboard-response","150","672099","0.0-82.0-0.0","0","0","NWBJA","People","","null","","","","null","","","","","","","","","","","","","","","","","","","","","","","","","","","","","","","","","","","","","","","","","","","",""
"","deliberation","","html-keyboard-response","151","672801","0.0-82.0-1.0","0","0","NWBJA","People","","702","","","","68","","","","26","44","40","0","1","50","47","rikonavt-HQjfrvdTfak-unsplash.jpg","prince-akachi-4Yv84VgQkRM-unsplash.jpg","3","1","44","40","","","","","","","","","","","","","","","","","","","","","","","","","","","",""
"","choice_confirmation","","html-keyboard-response","152","673306","0.0-82.0-2.0-0.0","0","0","NWBJA","People","","null","","","","null","","","","26","44","40","","","","","","","","","","","","","","","","","","","","","","","","","","","","","","","","","","","","","",""
"","fixation","","html-keyboard-response","153","674325","0.0-83.0-0.0","0","0","NWBJA","People","","null","","","","null","","","","","","","","","","","","","","","","","","","","","","","","","","","","","","","","","","","","","","","","","","","",""
"","deliberation","","html-keyboard-response","154","675021","0.0-83.0-1.0","0","0","NWBJA","People","","695","","","","68","","","","27","43","42","0","1","50","53","raamin-ka-0qJBEzudn5E-unsplash.jpg","prince-akachi-l3IHXOdMyHQ-unsplash.jpg","3","1","43","42","","","","","","","","","","","","","","","","","","","","","","","","","","","",""
"","choice_confirmation","","html-keyboard-response","155","675531","0.0-83.0-2.0-0.0","0","0","NWBJA","People","","null","","","","null","","","","27","43","42","","","","","","","","","","","","","","","","","","","","","","","","","","","","","","","","","","","","","",""
"","fixation","","html-keyboard-response","156","676550","0.0-84.0-0.0","0","0","NWBJA","People","","null","","","","null","","","","","","","","","","","","","","","","","","","","","","","","","","","","","","","","","","","","","","","","","","","",""
"","deliberation","","html-keyboard-response","157","677131","0.0-84.0-1.0","0","0","NWBJA","People","","580","","","","75","","","","28","16","18","0","-1","42","50","giano-currie-5-9YOsmf8IQ-unsplash.jpg","good-faces-xmSWVeGEnJw-unsplash.jpg","3","0","18","16","","","","","","","","","","","","","","","","","","","","","","","","","","","",""
"","choice_confirmation","","html-keyboard-response","158","677637","0.0-84.0-2.0-0.0","0","0","NWBJA","People","","null","","","","null","","","","28","16","18","","","","","","","","","","","","","","","","","","","","","","","","","","","","","","","","","","","","","",""
"","fixation","","html-keyboard-response","159","678651","0.0-85.0-0.0","0","0","NWBJA","People","","null","","","","null","","","","","","","","","","","","","","","","","","","","","","","","","","","","","","","","","","","","","","","","","","","",""
"","deliberation","","html-keyboard-response","160","679253","0.0-85.0-1.0","0","0","NWBJA","People","","602","","","","68","","","","29","34","48","0","1","50","43","oliver-johnson-1TUIcKob7Zs-unsplash.jpg","velizar-ivanov-7ktP9yZA1g4-unsplash.jpg","3","1","34","48","","","","","","","","","","","","","","","","","","","","","","","","","","","",""
"","choice_confirmation","","html-keyboard-response","161","679770","0.0-85.0-2.0-0.0","0","0","NWBJA","People","","null","","","","null","","","","29","34","48","","","","","","","","","","","","","","","","","","","","","","","","","","","","","","","","","","","","","",""
"","fixation","","html-keyboard-response","162","680787","0.0-86.0-0.0","0","0","NWBJA","People","","null","","","","null","","","","","","","","","","","","","","","","","","","","","","","","","","","","","","","","","","","","","","","","","","","",""
"","deliberation","","html-keyboard-response","163","681461","0.0-86.0-1.0","0","0","NWBJA","People","","673","","","","75","","","","30","46","38","0","-1","50","55","stefan-stefancik-QXevDflbl8A-unsplash.jpg","petr-sevcovic-HzDF-rxlSeM-unsplash.jpg","3","0","38","46","","","","","","","","","","","","","","","","","","","","","","","","","","","",""
"","choice_confirmation","","html-keyboard-response","164","681979","0.0-86.0-2.0-0.0","0","0","NWBJA","People","","null","","","","null","","","","30","46","38","","","","","","","","","","","","","","","","","","","","","","","","","","","","","","","","","","","","","",""
"","fixation","","html-keyboard-response","165","682986","0.0-87.0-0.0","0","0","NWBJA","People","","null","","","","null","","","","","","","","","","","","","","","","","","","","","","","","","","","","","","","","","","","","","","","","","","","",""
"","deliberation","","html-keyboard-response","166","683613","0.0-87.0-1.0","0","0","NWBJA","People","","625","","","","75","","","","31","27","29","0","1","50","41","jurica-koletic-7YVZYZeITc8-unsplash.jpg","leilani-angel-K84vnnzxmTQ-unsplash.jpg","3","0","29","27","","","","","","","","","","","","","","","","","","","","","","","","","","","",""
"","choice_confirmation","","html-keyboard-response","167","684129","0.0-87.0-2.0-0.0","0","0","NWBJA","People","","null","","","","null","","","","31","27","29","","","","","","","","","","","","","","","","","","","","","","","","","","","","","","","","","","","","","",""
"","fixation","","html-keyboard-response","168","685138","0.0-88.0-0.0","0","0","NWBJA","People","","null","","","","null","","","","","","","","","","","","","","","","","","","","","","","","","","","","","","","","","","","","","","","","","","","",""
"","deliberation","","html-keyboard-response","169","685827","0.0-88.0-1.0","0","0","NWBJA","People","","688","","","","75","","","","32","22","7","0","-1","36","50","jessica-radanavong-mrYkTuAesKE-unsplash.jpg","brooke-cagle-HRZUzoX1e6w-unsplash.jpg","3","0","7","22","","","","","","","","","","","","","","","","","","","","","","","","","","","",""
"","choice_confirmation","","html-keyboard-response","170","686331","0.0-88.0-2.0-0.0","0","0","NWBJA","People","","null","","","","null","","","","32","22","7","","","","","","","","","","","","","","","","","","","","","","","","","","","","","","","","","","","","","",""
"","fixation","","html-keyboard-response","171","687347","0.0-89.0-0.0","0","0","NWBJA","People","","null","","","","null","","","","","","","","","","","","","","","","","","","","","","","","","","","","","","","","","","","","","","","","","","","",""
"","deliberation","","html-keyboard-response","172","688067","0.0-89.0-1.0","0","0","NWBJA","People","","719","","","","75","","","","33","0","10","0","-1","35","50","abstral-official-cyOKLSgkgCE-unsplash.jpg","charles-etoroma-95UF6LXe-Lo-unsplash.jpg","3","0","10","0","","","","","","","","","","","","","","","","","","","","","","","","","","","",""
"","choice_confirmation","","html-keyboard-response","173","688571","0.0-89.0-2.0-0.0","0","0","NWBJA","People","","null","","","","null","","","","33","0","10","","","","","","","","","","","","","","","","","","","","","","","","","","","","","","","","","","","","","",""
"","fixation","","html-keyboard-response","174","689586","0.0-90.0-0.0","0","0","NWBJA","People","","null","","","","null","","","","","","","","","","","","","","","","","","","","","","","","","","","","","","","","","","","","","","","","","","","",""
"","deliberation","","html-keyboard-response","175","690368","0.0-90.0-1.0","0","0","NWBJA","People","","780","","","","68","","","","34","30","37","0","-1","45","41","matheus-ferrero-pg_WCHWSdT8-unsplash.jpg","pavel-anoshin-d0peGya6R5Y-unsplash.jpg","3","1","30","37","","","","","","","","","","","","","","","","","","","","","","","","","","","",""
"","choice_confirmation","","html-keyboard-response","176","690890","0.0-90.0-2.0-0.0","0","0","NWBJA","People","","null","","","","null","","","","34","30","37","","","","","","","","","","","","","","","","","","","","","","","","","","","","","","","","","","","","","",""
"","fixation","","html-keyboard-response","177","691907","0.0-91.0-0.0","0","0","NWBJA","People","","null","","","","null","","","","","","","","","","","","","","","","","","","","","","","","","","","","","","","","","","","","","","","","","","","",""
"","deliberation","","html-keyboard-response","178","692475","0.0-91.0-1.0","0","0","NWBJA","People","","568","","","","75","","","","35","6","35","0","1","46","55","ben-o-bro-C5XyLljkMrY-unsplash.jpg","oliver-ragfelt-khV4fTy6-D8-unsplash.jpg","3","0","35","6","","","","","","","","","","","","","","","","","","","","","","","","","","","",""
"","choice_confirmation","","html-keyboard-response","179","692988","0.0-91.0-2.0-0.0","0","0","NWBJA","People","","null","","","","null","","","","35","6","35","","","","","","","","","","","","","","","","","","","","","","","","","","","","","","","","","","","","","",""
"","reward_learning_instructions","","instructions","180","740107","0.0-92.0-0.0","0","0","NWBJA","People","[{""page_index"":0,""viewing_time"":15414},{""page_index"":1,""viewing_time"":25302},{""page_index"":2,""viewing_time"":6402}]","47118","","","","","","","","","","","","","","","","","","","","","","","","","","","","","","","","","","","","","","","","","","","","","","","",""
"","","","survey-multi-choice","181","790189","0.0-92.0-1.0","0","0","NWBJA","People","","50079","{""Q0"":""True"",""Q1"":""True"",""Q2"":""Press the space bar to see its outcome"",""Q3"":""Press the relevant key while the outcome is presented""}","reward_comprehension_check","0","","","","","","","","","","","","","","","","","","","","","","","","","","","","","","","","","","","","","","","","","","","","",""
"","start_phase","","html-keyboard-response","182","792058","0.0-93.0","0","0","NWBJA","People","","1867","","","","78","","","","","","","","","","","","","","","","","","","","","","","","","","","","","","","","","","","","","","","","","","","",""
"","fixation","","html-keyboard-response","183","793076","0.0-94.0","0","0","NWBJA","People","","null","","","","null","","","","","","","","","","","","","","","","","","","","","","","","","","","","","","","","","","","","","","","","","","","",""
"","see_reward","","html-keyboard-response","184","793450","0.0-95.0","0","0","NWBJA","People","","373","","","","32","","7","","0","","","","-1","","","","","1","","","","","0","373","","","","","","","","","","","","","","","","","","","","","","","","",""
"","reward_outcome","","html-keyboard-response","185","795465","0.0-96.0","0","0","NWBJA","People","","772","","","","40","","7","","0","","","","","","","","","","","","","","","","-1","772","","","","","","","","","","","","","","","","","","","","","","",""
"","fixation","","html-keyboard-response","186","796482","0.0-99.0","0","0","NWBJA","People","","null","","","","null","","","","","","","","","","","","","","","","","","","","","","","","","","","","","","","","","","","","","","","","","","","",""
"","see_reward","","html-keyboard-response","187","797072","0.0-100.0","0","0","NWBJA","People","","589","","","","32","","20","","1","","","","1","","","","","1","","","","","148","589","","","","","","","","","","","","","","","","","","","","","","","","",""
"","reward_outcome","","html-keyboard-response","188","799086","0.0-101.0","0","0","NWBJA","People","","432","","","","38","","20","","1","","","","","","","","","","","","","","","","1","432","","","","","","","","","","","","","","","","","","","","","","",""
"","fixation","","html-keyboard-response","189","800095","0.0-104.0","0","0","NWBJA","People","","null","","","","null","","","","","","","","","","","","","","","","","","","","","","","","","","","","","","","","","","","","","","","","","","","",""
"","see_reward","","html-keyboard-response","190","800494","0.0-105.0","0","0","NWBJA","People","","399","","","","32","","29","","2","","","","1","","","","","1","","","","","158","399","","","","","","","","","","","","","","","","","","","","","","","","",""
"","reward_outcome","","html-keyboard-response","191","802498","0.0-106.0","0","0","NWBJA","People","","554","","","","38","","29","","2","","","","","","","","","","","","","","","","1","554","","","","","","","","","","","","","","","","","","","","","","",""
"","fixation","","html-keyboard-response","192","803507","0.0-109.0","0","0","NWBJA","People","","null","","","","null","","","","","","","","","","","","","","","","","","","","","","","","","","","","","","","","","","","","","","","","","","","",""
"","see_reward","","html-keyboard-response","193","803964","0.0-110.0","0","0","NWBJA","People","","456","","","","32","","38","","3","","","","-1","","","","","1","","","","","0","456","","","","","","","","","","","","","","","","","","","","","","","","",""
"","reward_outcome","","html-keyboard-response","194","805978","0.0-111.0","0","0","NWBJA","People","","604","","","","40","","38","","3","","","","","","","","","","","","","","","","-1","604","","","","","","","","","","","","","","","","","","","","","","",""
"","fixation","","html-keyboard-response","195","807000","0.0-114.0","0","0","NWBJA","People","","null","","","","null","","","","","","","","","","","","","","","","","","","","","","","","","","","","","","","","","","","","","","","","","","","",""
"","see_reward","","html-keyboard-response","196","807494","0.0-115.0","0","0","NWBJA","People","","493","","","","32","","18","","4","","","","-1","","","","","1","","","","","0","493","","","","","","","","","","","","","","","","","","","","","","","","",""
"","reward_outcome","","html-keyboard-response","197","809506","0.0-116.0","0","0","NWBJA","People","","643","","","","40","","18","","4","","","","","","","","","","","","","","","","-1","643","","","","","","","","","","","","","","","","","","","","","","",""
"","fixation","","html-keyboard-response","198","810517","0.0-119.0","0","0","NWBJA","People","","null","","","","null","","","","","","","","","","","","","","","","","","","","","","","","","","","","","","","","","","","","","","","","","","","",""
"","see_reward","","html-keyboard-response","199","811000","0.0-120.0","0","0","NWBJA","People","","482","","","","32","","18","","5","","","","-1","","","","","1","","","","","0","482","","","","","","","","","","","","","","","","","","","","","","","","",""
"","reward_outcome","","html-keyboard-response","200","813025","0.0-121.0","0","0","NWBJA","People","","602","","","","40","","18","","5","","","","","","","","","","","","","","","","-1","602","","","","","","","","","","","","","","","","","","","","","","",""
"","fixation","","html-keyboard-response","201","814047","0.0-124.0","0","0","NWBJA","People","","null","","","","null","","","","","","","","","","","","","","","","","","","","","","","","","","","","","","","","","","","","","","","","","","","",""
"","see_reward","","html-keyboard-response","202","814522","0.0-125.0","0","0","NWBJA","People","","475","","","","32","","35","","6","","","","1","","","","","1","","","","","150","475","","","","","","","","","","","","","","","","","","","","","","","","",""
"","reward_outcome","","html-keyboard-response","203","816537","0.0-126.0","0","0","NWBJA","People","","706","","","","38","","35","","6","","","","","","","","","","","","","","","","1","706","","","","","","","","","","","","","","","","","","","","","","",""
"","fixation","","html-keyboard-response","204","817560","0.0-129.0","0","0","NWBJA","People","","null","","","","null","","","","","","","","","","","","","","","","","","","","","","","","","","","","","","","","","","","","","","","","","","","",""
"","see_reward","","html-keyboard-response","205","817986","0.0-130.0","0","0","NWBJA","People","","424","","","","32","","44","","7","","","","1","","","","","1","","","","","140","424","","","","","","","","","","","","","","","","","","","","","","","","",""
"","reward_outcome","","html-keyboard-response","206","820004","0.0-131.0","0","0","NWBJA","People","","558","","","","38","","44","","7","","","","","","","","","","","","","","","","1","558","","","","","","","","","","","","","","","","","","","","","","",""
"","fixation","","html-keyboard-response","207","821016","0.0-134.0","0","0","NWBJA","People","","null","","","","null","","","","","","","","","","","","","","","","","","","","","","","","","","","","","","","","","","","","","","","","","","","",""
"","see_reward","","html-keyboard-response","208","821478","0.0-135.0","0","0","NWBJA","People","","461","","","","32","","10","","8","","","","-1","","","","","1","","","","","0","461","","","","","","","","","","","","","","","","","","","","","","","","",""
"","reward_outcome","","html-keyboard-response","209","823494","0.0-136.0","0","0","NWBJA","People","","522","","","","40","","10","","8","","","","","","","","","","","","","","","","-1","522","","","","","","","","","","","","","","","","","","","","","","",""
"","fixation","","html-keyboard-response","210","824505","0.0-139.0","0","0","NWBJA","People","","null","","","","null","","","","","","","","","","","","","","","","","","","","","","","","","","","","","","","","","","","","","","","","","","","",""
"","see_reward","","html-keyboard-response","211","825002","0.0-140.0","0","0","NWBJA","People","","495","","","","32","","3","","9","","","","-1","","","","","1","","","","","0","495","","","","","","","","","","","","","","","","","","","","","","","","",""
"","reward_outcome","","html-keyboard-response","212","827021","0.0-141.0","0","0","NWBJA","People","","522","","","","40","","3","","9","","","","","","","","","","","","","","","","-1","522","","","","","","","","","","","","","","","","","","","","","","",""
"","fixation","","html-keyboard-response","213","828028","0.0-144.0","0","0","NWBJA","People","","null","","","","null","","","","","","","","","","","","","","","","","","","","","","","","","","","","","","","","","","","","","","","","","","","",""
"","see_reward","","html-keyboard-response","214","828422","0.0-145.0","0","0","NWBJA","People","","392","","","","32","","43","","10","","","","1","","","","","1","","","","","148","392","","","","","","","","","","","","","","","","","","","","","","","","",""
"","reward_outcome","","html-keyboard-response","215","830426","0.0-146.0","0","0","NWBJA","People","","554","","","","38","","43","","10","","","","","","","","","","","","","","","","1","554","","","","","","","","","","","","","","","","","","","","","","",""
"","fixation","","html-keyboard-response","216","831434","0.0-149.0","0","0","NWBJA","People","","null","","","","null","","","","","","","","","","","","","","","","","","","","","","","","","","","","","","","","","","","","","","","","","","","",""
"","see_reward","","html-keyboard-response","217","831764","0.0-150.0","0","0","NWBJA","People","","329","","","","32","","35","","11","","","","1","","","","","1","","","","","150","329","","","","","","","","","","","","","","","","","","","","","","","","",""
"","reward_outcome","","html-keyboard-response","218","833777","0.0-151.0","0","0","NWBJA","People","","608","","","","38","","35","","11","","","","","","","","","","","","","","","","1","608","","","","","","","","","","","","","","","","","","","","","","",""
"","fixation","","html-keyboard-response","219","834796","0.0-154.0","0","0","NWBJA","People","","null","","","","null","","","","","","","","","","","","","","","","","","","","","","","","","","","","","","","","","","","","","","","","","","","",""
"","see_reward","","html-keyboard-response","220","835230","0.0-155.0","0","0","NWBJA","People","","433","","","","32","","7","","12","","","","-1","","","","","1","","","","","0","433","","","","","","","","","","","","","","","","","","","","","","","","",""
"","reward_outcome","","html-keyboard-response","221","837248","0.0-156.0","0","0","NWBJA","People","","598","","","","40","","7","","12","","","","","","","","","","","","","","","","-1","598","","","","","","","","","","","","","","","","","","","","","","",""
"","fixation","","html-keyboard-response","222","838253","0.0-159.0","0","0","NWBJA","People","","null","","","","null","","","","","","","","","","","","","","","","","","","","","","","","","","","","","","","","","","","","","","","","","","","",""
"","see_reward","","html-keyboard-response","223","838754","0.0-160.0","0","0","NWBJA","People","","500","","","","32","","34","","13","","","","1","","","","","1","","","","","152","500","","","","","","","","","","","","","","","","","","","","","","","","",""
"","reward_outcome","","html-keyboard-response","224","840777","0.0-161.0","0","0","NWBJA","People","","705","","","","38","","34","","13","","","","","","","","","","","","","","","","1","705","","","","","","","","","","","","","","","","","","","","","","",""
"","fixation","","html-keyboard-response","225","841790","0.0-164.0","0","0","NWBJA","People","","null","","","","null","","","","","","","","","","","","","","","","","","","","","","","","","","","","","","","","","","","","","","","","","","","",""
"","see_reward","","html-keyboard-response","226","842274","0.0-165.0","0","0","NWBJA","People","","483","","","","32","","30","","14","","","","-1","","","","","1","","","","","0","483","","","","","","","","","","","","","","","","","","","","","","","","",""
"","reward_outcome","","html-keyboard-response","227","844293","0.0-166.0","0","0","NWBJA","People","","841","","","","40","","30","","14","","","","","","","","","","","","","","","","-1","841","","","","","","","","","","","","","","","","","","","","","","",""
"","fixation","","html-keyboard-response","228","845298","0.0-169.0","0","0","NWBJA","People","","null","","","","null","","","","","","","","","","","","","","","","","","","","","","","","","","","","","","","","","","","","","","","","","","","",""
"","see_reward","","html-keyboard-response","229","845830","0.0-170.0","0","0","NWBJA","People","","530","","","","32","","44","","15","","","","1","","","","","1","","","","","140","530","","","","","","","","","","","","","","","","","","","","","","","","",""
"","reward_outcome","","html-keyboard-response","230","847843","0.0-171.0","0","0","NWBJA","People","","457","","","","38","","44","","15","","","","","","","","","","","","","","","","1","457","","","","","","","","","","","","","","","","","","","","","","",""
"","fixation","","html-keyboard-response","231","848855","0.0-174.0","0","0","NWBJA","People","","null","","","","null","","","","","","","","","","","","","","","","","","","","","","","","","","","","","","","","","","","","","","","","","","","",""
"","see_reward","","html-keyboard-response","232","849210","0.0-175.0","0","0","NWBJA","People","","354","","","","32","","10","","16","","","","-1","","","","","1","","","","","0","354","","","","","","","","","","","","","","","","","","","","","","","","",""
"","reward_outcome","","html-keyboard-response","233","851219","0.0-176.0","0","0","NWBJA","People","","485","","","","40","","10","","16","","","","","","","","","","","","","","","","-1","485","","","","","","","","","","","","","","","","","","","","","","",""
"","fixation","","html-keyboard-response","234","852240","0.0-179.0","0","0","NWBJA","People","","null","","","","null","","","","","","","","","","","","","","","","","","","","","","","","","","","","","","","","","","","","","","","","","","","",""
"","see_reward","","html-keyboard-response","235","852704","0.0-180.0","0","0","NWBJA","People","","464","","","","32","","3","","17","","","","-1","","","","","1","","","","","0","464","","","","","","","","","","","","","","","","","","","","","","","","",""
"","reward_outcome","","html-keyboard-response","236","854728","0.0-181.0","0","0","NWBJA","People","","728","","","","40","","3","","17","","","","","","","","","","","","","","","","-1","728","","","","","","","","","","","","","","","","","","","","","","",""
"","fixation","","html-keyboard-response","237","855739","0.0-184.0","0","0","NWBJA","People","","null","","","","null","","","","","","","","","","","","","","","","","","","","","","","","","","","","","","","","","","","","","","","","","","","",""
"","see_reward","","html-keyboard-response","238","856342","0.0-185.0","0","0","NWBJA","People","","601","","","","32","","38","","18","","","","-1","","","","","1","","","","","0","601","","","","","","","","","","","","","","","","","","","","","","","","",""
"","reward_outcome","","html-keyboard-response","239","858350","0.0-186.0","0","0","NWBJA","People","","538","","","","40","","38","","18","","","","","","","","","","","","","","","","-1","538","","","","","","","","","","","","","","","","","","","","","","",""
"","fixation","","html-keyboard-response","240","859354","0.0-189.0","0","0","NWBJA","People","","null","","","","null","","","","","","","","","","","","","","","","","","","","","","","","","","","","","","","","","","","","","","","","","","","",""
"","see_reward","","html-keyboard-response","241","860116","0.0-190.0","0","0","NWBJA","People","","761","","","","32","","34","","19","","","","1","","","","","1","","","","","152","761","","","","","","","","","","","","","","","","","","","","","","","","",""
"","reward_outcome","","html-keyboard-response","242","862123","0.0-191.0","0","0","NWBJA","People","","676","","","","38","","34","","19","","","","","","","","","","","","","","","","1","676","","","","","","","","","","","","","","","","","","","","","","",""
"","fixation","","html-keyboard-response","243","863141","0.0-194.0","0","0","NWBJA","People","","null","","","","null","","","","","","","","","","","","","","","","","","","","","","","","","","","","","","","","","","","","","","","","","","","",""
"","see_reward","","html-keyboard-response","244","863480","0.0-195.0","0","0","NWBJA","People","","337","","","","32","","30","","20","","","","-1","","","","","1","","","","","0","337","","","","","","","","","","","","","","","","","","","","","","","","",""
"","reward_outcome","","html-keyboard-response","245","865496","0.0-196.0","0","0","NWBJA","People","","380","","","","40","","30","","20","","","","","","","","","","","","","","","","-1","380","","","","","","","","","","","","","","","","","","","","","","",""
"","fixation","","html-keyboard-response","246","866508","0.0-199.0","0","0","NWBJA","People","","null","","","","null","","","","","","","","","","","","","","","","","","","","","","","","","","","","","","","","","","","","","","","","","","","",""
"","see_reward","","html-keyboard-response","247","867478","0.0-200.0","0","0","NWBJA","People","","969","","","","32","","29","","21","","","","1","","","","","1","","","","","158","969","","","","","","","","","","","","","","","","","","","","","","","","",""
"","reward_outcome","","html-keyboard-response","248","869496","0.0-201.0","0","0","NWBJA","People","","649","","","","38","","29","","21","","","","","","","","","","","","","","","","1","649","","","","","","","","","","","","","","","","","","","","","","",""
"","fixation","","html-keyboard-response","249","870506","0.0-204.0","0","0","NWBJA","People","","null","","","","null","","","","","","","","","","","","","","","","","","","","","","","","","","","","","","","","","","","","","","","","","","","",""
"","see_reward","","html-keyboard-response","250","870912","0.0-205.0","0","0","NWBJA","People","","404","","","","32","","20","","22","","","","1","","","","","1","","","","","148","404","","","","","","","","","","","","","","","","","","","","","","","","",""
"","reward_outcome","","html-keyboard-response","251","872927","0.0-206.0","0","0","NWBJA","People","","473","","","","38","","20","","22","","","","","","","","","","","","","","","","1","473","","","","","","","","","","","","","","","","","","","","","","",""
"","fixation","","html-keyboard-response","252","873935","0.0-209.0","0","0","NWBJA","People","","null","","","","null","","","","","","","","","","","","","","","","","","","","","","","","","","","","","","","","","","","","","","","","","","","",""
"","see_reward","","html-keyboard-response","253","874351","0.0-210.0","0","0","NWBJA","People","","414","","","","32","","43","","23","","","","1","","","","","1","","","","","148","414","","","","","","","","","","","","","","","","","","","","","","","","",""
"","reward_outcome","","html-keyboard-response","254","876368","0.0-211.0","0","0","NWBJA","People","","408","","","","38","","43","","23","","","","","","","","","","","","","","","","1","408","","","","","","","","","","","","","","","","","","","","","","",""
"","block_over","","html-keyboard-response","255","878582","0.0-213.0-0.0","0","0","NWBJA","People","","2214","","","","78","","","","","","","","","","","","","","","","","","","","","","","","","","","","","","","","","","","","","","","","","","","",""
"","fixation","","html-keyboard-response","256","879591","0.0-214.0","0","0","NWBJA","People","","null","","","","null","","","","","","","","","","","","","","","","","","","","","","","","","","","","","","","","","","","","","","","","","","","",""
"","see_reward","","html-keyboard-response","257","879999","0.0-215.0","0","0","NWBJA","People","","406","","","","32","","38","","24","","","","-1","","","","","2","","","","","0","406","","","","","","","","","","","","","","","","","","","","","","","","",""
"","reward_outcome","","html-keyboard-response","258","882011","0.0-216.0","0","0","NWBJA","People","","545","","","","40","","38","","24","","","","","","","","","","","","","","","","-1","545","","","","","","","","","","","","","","","","","","","","","","",""
"","fixation","","html-keyboard-response","259","883030","0.0-219.0","0","0","NWBJA","People","","null","","","","null","","","","","","","","","","","","","","","","","","","","","","","","","","","","","","","","","","","","","","","","","","","",""
"","see_reward","","html-keyboard-response","260","883404","0.0-220.0","0","0","NWBJA","People","","373","","","","32","","44","","25","","","","1","","","","","2","","","","","140","373","","","","","","","","","","","","","","","","","","","","","","","","",""
"","reward_outcome","","html-keyboard-response","261","885413","0.0-221.0","0","0","NWBJA","People","","440","","","","38","","44","","25","","","","","","","","","","","","","","","","1","440","","","","","","","","","","","","","","","","","","","","","","",""
"","fixation","","html-keyboard-response","262","886423","0.0-224.0","0","0","NWBJA","People","","null","","","","null","","","","","","","","","","","","","","","","","","","","","","","","","","","","","","","","","","","","","","","","","","","",""
"","see_reward","","html-keyboard-response","263","886751","0.0-225.0","0","0","NWBJA","People","","326","","","","32","","10","","26","","","","-1","","","","","2","","","","","0","326","","","","","","","","","","","","","","","","","","","","","","","","",""
"","reward_outcome","","html-keyboard-response","264","888758","0.0-226.0","0","0","NWBJA","People","","620","","","","40","","10","","26","","","","","","","","","","","","","","","","-1","620","","","","","","","","","","","","","","","","","","","","","","",""
"","fixation","","html-keyboard-response","265","889763","0.0-229.0","0","0","NWBJA","People","","null","","","","null","","","","","","","","","","","","","","","","","","","","","","","","","","","","","","","","","","","","","","","","","","","",""
"","see_reward","","html-keyboard-response","266","890098","0.0-230.0","0","0","NWBJA","People","","334","","","","32","","30","","27","","","","-1","","","","","2","","","","","0","334","","","","","","","","","","","","","","","","","","","","","","","","",""
"","reward_outcome","","html-keyboard-response","267","892116","0.0-231.0","0","0","NWBJA","People","","392","","","","40","","30","","27","","","","","","","","","","","","","","","","-1","392","","","","","","","","","","","","","","","","","","","","","","",""
"","fixation","","html-keyboard-response","268","893127","0.0-234.0","0","0","NWBJA","People","","null","","","","null","","","","","","","","","","","","","","","","","","","","","","","","","","","","","","","","","","","","","","","","","","","",""
"","see_reward","","html-keyboard-response","269","893527","0.0-235.0","0","0","NWBJA","People","","399","","","","32","","20","","28","","","","1","","","","","2","","","","","148","399","","","","","","","","","","","","","","","","","","","","","","","","",""
"","reward_outcome","","html-keyboard-response","270","895536","0.0-236.0","0","0","NWBJA","People","","496","","","","38","","20","","28","","","","","","","","","","","","","","","","1","496","","","","","","","","","","","","","","","","","","","","","","",""
"","fixation","","html-keyboard-response","271","896557","0.0-239.0","0","0","NWBJA","People","","null","","","","null","","","","","","","","","","","","","","","","","","","","","","","","","","","","","","","","","","","","","","","","","","","",""
"","see_reward","","html-keyboard-response","272","897081","0.0-240.0","0","0","NWBJA","People","","522","","","","32","","34","","29","","","","1","","","","","2","","","","","152","522","","","","","","","","","","","","","","","","","","","","","","","","",""
"","reward_outcome","","html-keyboard-response","273","899091","0.0-241.0","0","0","NWBJA","People","","604","","","","38","","34","","29","","","","","","","","","","","","","","","","1","604","","","","","","","","","","","","","","","","","","","","","","",""
"","fixation","","html-keyboard-response","274","900102","0.0-244.0","0","0","NWBJA","People","","null","","","","null","","","","","","","","","","","","","","","","","","","","","","","","","","","","","","","","","","","","","","","","","","","",""
"","see_reward","","html-keyboard-response","275","900543","0.0-245.0","0","0","NWBJA","People","","439","","","","32","","10","","30","","","","-1","","","","","2","","","","","0","439","","","","","","","","","","","","","","","","","","","","","","","","",""
"","reward_outcome","","html-keyboard-response","276","902559","0.0-246.0","0","0","NWBJA","People","","599","","","","40","","10","","30","","","","","","","","","","","","","","","","-1","599","","","","","","","","","","","","","","","","","","","","","","",""
"","fixation","","html-keyboard-response","277","903572","0.0-249.0","0","0","NWBJA","People","","null","","","","null","","","","","","","","","","","","","","","","","","","","","","","","","","","","","","","","","","","","","","","","","","","",""
"","see_reward","","html-keyboard-response","278","903967","0.0-250.0","0","0","NWBJA","People","","394","","","","32","","35","","31","","","","1","","","","","2","","","","","150","394","","","","","","","","","","","","","","","","","","","","","","","","",""
"","reward_outcome","","html-keyboard-response","279","905977","0.0-251.0","0","0","NWBJA","People","","843","","","","38","","35","","31","","","","","","","","","","","","","","","","1","843","","","","","","","","","","","","","","","","","","","","","","",""
"","fixation","","html-keyboard-response","280","907000","0.0-254.0","0","0","NWBJA","People","","null","","","","null","","","","","","","","","","","","","","","","","","","","","","","","","","","","","","","","","","","","","","","","","","","",""
"","see_reward","","html-keyboard-response","281","907455","0.0-255.0","0","0","NWBJA","People","","453","","","","32","","7","","32","","","","-1","","","","","2","","","","","0","453","","","","","","","","","","","","","","","","","","","","","","","","",""
"","reward_outcome","","html-keyboard-response","282","909470","0.0-256.0","0","0","NWBJA","People","","504","","","","40","","7","","32","","","","","","","","","","","","","","","","-1","504","","","","","","","","","","","","","","","","","","","","","","",""
"","fixation","","html-keyboard-response","283","910488","0.0-259.0","0","0","NWBJA","People","","null","","","","null","","","","","","","","","","","","","","","","","","","","","","","","","","","","","","","","","","","","","","","","","","","",""
"","see_reward","","html-keyboard-response","284","910820","0.0-260.0","0","0","NWBJA","People","","332","","","","32","","44","","33","","","","1","","","","","2","","","","","140","332","","","","","","","","","","","","","","","","","","","","","","","","",""
"","reward_outcome","","html-keyboard-response","285","912833","0.0-261.0","0","0","NWBJA","People","","453","","","","38","","44","","33","","","","","","","","","","","","","","","","1","453","","","","","","","","","","","","","","","","","","","","","","",""
"","fixation","","html-keyboard-response","286","913852","0.0-264.0","0","0","NWBJA","People","","null","","","","null","","","","","","","","","","","","","","","","","","","","","","","","","","","","","","","","","","","","","","","","","","","",""
"","see_reward","","html-keyboard-response","287","914484","0.0-265.0","0","0","NWBJA","People","","631","","","","32","","34","","34","","","","1","","","","","2","","","","","152","631","","","","","","","","","","","","","","","","","","","","","","","","",""
"","reward_outcome","","html-keyboard-response","288","916488","0.0-266.0","0","0","NWBJA","People","","656","","","","38","","34","","34","","","","","","","","","","","","","","","","1","656","","","","","","","","","","","","","","","","","","","","","","",""
"","fixation","","html-keyboard-response","289","917497","0.0-269.0","0","0","NWBJA","People","","null","","","","null","","","","","","","","","","","","","","","","","","","","","","","","","","","","","","","","","","","","","","","","","","","",""
"","see_reward","","html-keyboard-response","290","917888","0.0-270.0","0","0","NWBJA","People","","390","","","","32","","43","","35","","","","1","","","","","2","","","","","148","390","","","","","","","","","","","","","","","","","","","","","","","","",""
"","reward_outcome","","html-keyboard-response","291","919896","0.0-271.0","0","0","NWBJA","People","","475","","","","38","","43","","35","","","","","","","","","","","","","","","","1","475","","","","","","","","","","","","","","","","","","","","","","",""
"","fixation","","html-keyboard-response","292","920904","0.0-274.0","0","0","NWBJA","People","","null","","","","null","","","","","","","","","","","","","","","","","","","","","","","","","","","","","","","","","","","","","","","","","","","",""
"","see_reward","","html-keyboard-response","293","921388","0.0-275.0","0","0","NWBJA","People","","483","","","","32","","29","","36","","","","1","","","","","2","","","","","158","483","","","","","","","","","","","","","","","","","","","","","","","","",""
"","reward_outcome","","html-keyboard-response","294","923402","0.0-276.0","0","0","NWBJA","People","","642","","","","38","","29","","36","","","","","","","","","","","","","","","","1","642","","","","","","","","","","","","","","","","","","","","","","",""
"","fixation","","html-keyboard-response","295","924425","0.0-279.0","0","0","NWBJA","People","","null","","","","null","","","","","","","","","","","","","","","","","","","","","","","","","","","","","","","","","","","","","","","","","","","",""
"","see_reward","","html-keyboard-response","296","924956","0.0-280.0","0","0","NWBJA","People","","530","","","","32","","3","","37","","","","-1","","","","","2","","","","","0","530","","","","","","","","","","","","","","","","","","","","","","","","",""
"","reward_outcome","","html-keyboard-response","297","926965","0.0-281.0","0","0","NWBJA","People","","633","","","","40","","3","","37","","","","","","","","","","","","","","","","-1","633","","","","","","","","","","","","","","","","","","","","","","",""
"","fixation","","html-keyboard-response","298","927985","0.0-284.0","0","0","NWBJA","People","","null","","","","null","","","","","","","","","","","","","","","","","","","","","","","","","","","","","","","","","","","","","","","","","","","",""
"","see_reward","","html-keyboard-response","299","928436","0.0-285.0","0","0","NWBJA","People","","450","","","","32","","7","","38","","","","-1","","","","","2","","","","","0","450","","","","","","","","","","","","","","","","","","","","","","","","",""
"","reward_outcome","","html-keyboard-response","300","930445","0.0-286.0","0","0","NWBJA","People","","440","","","","40","","7","","38","","","","","","","","","","","","","","","","-1","440","","","","","","","","","","","","","","","","","","","","","","",""
"","fixation","","html-keyboard-response","301","931463","0.0-289.0","0","0","NWBJA","People","","null","","","","null","","","","","","","","","","","","","","","","","","","","","","","","","","","","","","","","","","","","","","","","","","","",""
"","see_reward","","html-keyboard-response","302","931908","0.0-290.0","0","0","NWBJA","People","","444","","","","32","","29","","39","","","","1","","","","","2","","","","","158","444","","","","","","","","","","","","","","","","","","","","","","","","",""
"","reward_outcome","","html-keyboard-response","303","933926","0.0-291.0","0","0","NWBJA","People","","350","","","","38","","29","","39","","","","","","","","","","","","","","","","1","350","","","","","","","","","","","","","","","","","","","","","","",""
"","fixation","","html-keyboard-response","304","934937","0.0-294.0","0","0","NWBJA","People","","null","","","","null","","","","","","","","","","","","","","","","","","","","","","","","","","","","","","","","","","","","","","","","","","","",""
"","see_reward","","html-keyboard-response","305","935255","0.0-295.0","0","0","NWBJA","People","","318","","","","32","","18","","40","","","","-1","","","","","2","","","","","0","318","","","","","","","","","","","","","","","","","","","","","","","","",""
"","reward_outcome","","html-keyboard-response","306","937261","0.0-296.0","0","0","NWBJA","People","","463","","","","40","","18","","40","","","","","","","","","","","","","","","","-1","463","","","","","","","","","","","","","","","","","","","","","","",""
"","fixation","","html-keyboard-response","307","938276","0.0-299.0","0","0","NWBJA","People","","null","","","","null","","","","","","","","","","","","","","","","","","","","","","","","","","","","","","","","","","","","","","","","","","","",""
"","see_reward","","html-keyboard-response","308","938748","0.0-300.0","0","0","NWBJA","People","","472","","","","32","","43","","41","","","","1","","","","","2","","","","","148","472","","","","","","","","","","","","","","","","","","","","","","","","",""
"","reward_outcome","","html-keyboard-response","309","940760","0.0-301.0","0","0","NWBJA","People","","402","","","","38","","43","","41","","","","","","","","","","","","","","","","1","402","","","","","","","","","","","","","","","","","","","","","","",""
"","fixation","","html-keyboard-response","310","941772","0.0-304.0","0","0","NWBJA","People","","null","","","","null","","","","","","","","","","","","","","","","","","","","","","","","","","","","","","","","","","","","","","","","","","","",""
"","see_reward","","html-keyboard-response","311","942198","0.0-305.0","0","0","NWBJA","People","","425","","","","32","","35","","42","","","","1","","","","","2","","","","","150","425","","","","","","","","","","","","","","","","","","","","","","","","",""
"","reward_outcome","","html-keyboard-response","312","944216","0.0-306.0","0","0","NWBJA","People","","459","","","","40","","35","","42","","","","","","","","","","","","","","","","-1","459","","","","","","","","","","","","","","","","","","","","","","",""
"","fixation","","html-keyboard-response","313","945233","0.0-309.0","0","0","NWBJA","People","","null","","","","null","","","","","","","","","","","","","","","","","","","","","","","","","","","","","","","","","","","","","","","","","","","",""
"","see_reward","","html-keyboard-response","314","945742","0.0-310.0","0","0","NWBJA","People","","507","","","","32","","20","","43","","","","1","","","","","2","","","","","148","507","","","","","","","","","","","","","","","","","","","","","","","","",""
"","reward_outcome","","html-keyboard-response","315","947757","0.0-311.0","0","0","NWBJA","People","","520","","","","38","","20","","43","","","","","","","","","","","","","","","","1","520","","","","","","","","","","","","","","","","","","","","","","",""
"","fixation","","html-keyboard-response","316","948774","0.0-314.0","0","0","NWBJA","People","","null","","","","null","","","","","","","","","","","","","","","","","","","","","","","","","","","","","","","","","","","","","","","","","","","",""
"","see_reward","","html-keyboard-response","317","949210","0.0-315.0","0","0","NWBJA","People","","436","","","","32","","30","","44","","","","-1","","","","","2","","","","","0","436","","","","","","","","","","","","","","","","","","","","","","","","",""
"","reward_outcome","","html-keyboard-response","318","951224","0.0-316.0","0","0","NWBJA","People","","536","","","","40","","30","","44","","","","","","","","","","","","","","","","-1","536","","","","","","","","","","","","","","","","","","","","","","",""
"","fixation","","html-keyboard-response","319","952230","0.0-319.0","0","0","NWBJA","People","","null","","","","null","","","","","","","","","","","","","","","","","","","","","","","","","","","","","","","","","","","","","","","","","","","",""
"","see_reward","","html-keyboard-response","320","952632","0.0-320.0","0","0","NWBJA","People","","401","","","","32","","18","","45","","","","-1","","","","","2","","","","","0","401","","","","","","","","","","","","","","","","","","","","","","","","",""
"","reward_outcome","","html-keyboard-response","321","954637","0.0-321.0","0","0","NWBJA","People","","556","","","","40","","18","","45","","","","","","","","","","","","","","","","-1","556","","","","","","","","","","","","","","","","","","","","","","",""
"","fixation","","html-keyboard-response","322","955643","0.0-324.0","0","0","NWBJA","People","","null","","","","null","","","","","","","","","","","","","","","","","","","","","","","","","","","","","","","","","","","","","","","","","","","",""
"","see_reward","","html-keyboard-response","323","956134","0.0-325.0","0","0","NWBJA","People","","490","","","","32","","38","","46","","","","-1","","","","","2","","","","","0","490","","","","","","","","","","","","","","","","","","","","","","","","",""
"","reward_outcome","","html-keyboard-response","324","958140","0.0-326.0","0","0","NWBJA","People","","636","","","","40","","38","","46","","","","","","","","","","","","","","","","-1","636","","","","","","","","","","","","","","","","","","","","","","",""
"","fixation","","html-keyboard-response","325","959158","0.0-329.0","0","0","NWBJA","People","","null","","","","null","","","","","","","","","","","","","","","","","","","","","","","","","","","","","","","","","","","","","","","","","","","",""
"","see_reward","","html-keyboard-response","326","959448","0.0-330.0","0","0","NWBJA","People","","289","","","","32","","3","","47","","","","-1","","","","","2","","","","","0","289","","","","","","","","","","","","","","","","","","","","","","","","",""
"","reward_outcome","","html-keyboard-response","327","961460","0.0-331.0","0","0","NWBJA","People","","486","","","","40","","3","","47","","","","","","","","","","","","","","","","-1","486","","","","","","","","","","","","","","","","","","","","","","",""
"","block_over","","html-keyboard-response","328","993322","0.0-333.0-0.0","0","0","NWBJA","People","","31861","","","","78","","","","","","","","","","","","","","","","","","","","","","","","","","","","","","","","","","","","","","","","","","","",""
"","fixation","","html-keyboard-response","329","994335","0.0-334.0","0","0","NWBJA","People","","null","","","","null","","","","","","","","","","","","","","","","","","","","","","","","","","","","","","","","","","","","","","","","","","","",""
"","see_reward","","html-keyboard-response","330","995039","0.0-335.0","0","0","NWBJA","People","","703","","","","32","","43","","48","","","","1","","","","","3","","","","","148","703","","","","","","","","","","","","","","","","","","","","","","","","",""
"","reward_outcome","","html-keyboard-response","331","997055","0.0-336.0","0","0","NWBJA","People","","659","","","","38","","43","","48","","","","","","","","","","","","","","","","1","659","","","","","","","","","","","","","","","","","","","","","","",""
"","fixation","","html-keyboard-response","332","998064","0.0-339.0","0","0","NWBJA","People","","null","","","","null","","","","","","","","","","","","","","","","","","","","","","","","","","","","","","","","","","","","","","","","","","","",""
"","see_reward","","html-keyboard-response","333","998516","0.0-340.0","0","0","NWBJA","People","","450","","","","32","","7","","49","","","","-1","","","","","3","","","","","0","450","","","","","","","","","","","","","","","","","","","","","","","","",""
"","reward_outcome","","html-keyboard-response","334","1000528","0.0-341.0","0","0","NWBJA","People","","447","","","","40","","7","","49","","","","","","","","","","","","","","","","-1","447","","","","","","","","","","","","","","","","","","","","","","",""
"","fixation","","html-keyboard-response","335","1001545","0.0-344.0","0","0","NWBJA","People","","null","","","","null","","","","","","","","","","","","","","","","","","","","","","","","","","","","","","","","","","","","","","","","","","","",""
"","see_reward","","html-keyboard-response","336","1002030","0.0-345.0","0","0","NWBJA","People","","484","","","","32","","29","","50","","","","1","","","","","3","","","","","158","484","","","","","","","","","","","","","","","","","","","","","","","","",""
"","reward_outcome","","html-keyboard-response","337","1004045","0.0-346.0","0","0","NWBJA","People","","445","","","","38","","29","","50","","","","","","","","","","","","","","","","1","445","","","","","","","","","","","","","","","","","","","","","","",""
"","fixation","","html-keyboard-response","338","1005052","0.0-349.0","0","0","NWBJA","People","","null","","","","null","","","","","","","","","","","","","","","","","","","","","","","","","","","","","","","","","","","","","","","","","","","",""
"","see_reward","","html-keyboard-response","339","1005462","0.0-350.0","0","0","NWBJA","People","","409","","","","32","","44","","51","","","","1","","","","","3","","","","","140","409","","","","","","","","","","","","","","","","","","","","","","","","",""
"","reward_outcome","","html-keyboard-response","340","1007477","0.0-351.0","0","0","NWBJA","People","","445","","","","38","","44","","51","","","","","","","","","","","","","","","","1","445","","","","","","","","","","","","","","","","","","","","","","",""
"","fixation","","html-keyboard-response","341","1008493","0.0-354.0","0","0","NWBJA","People","","null","","","","null","","","","","","","","","","","","","","","","","","","","","","","","","","","","","","","","","","","","","","","","","","","",""
"","see_reward","","html-keyboard-response","342","1008842","0.0-355.0","0","0","NWBJA","People","","348","","","","32","","35","","52","","","","1","","","","","3","","","","","150","348","","","","","","","","","","","","","","","","","","","","","","","","",""
"","reward_outcome","","html-keyboard-response","343","1010859","0.0-356.0","0","0","NWBJA","People","","663","","","","38","","35","","52","","","","","","","","","","","","","","","","1","663","","","","","","","","","","","","","","","","","","","","","","",""
"","fixation","","html-keyboard-response","344","1011882","0.0-359.0","0","0","NWBJA","People","","null","","","","null","","","","","","","","","","","","","","","","","","","","","","","","","","","","","","","","","","","","","","","","","","","",""
"","see_reward","","html-keyboard-response","345","1012450","0.0-360.0","0","0","NWBJA","People","","567","","","","32","","43","","53","","","","1","","","","","3","","","","","148","567","","","","","","","","","","","","","","","","","","","","","","","","",""
"","reward_outcome","","html-keyboard-response","346","1014462","0.0-361.0","0","0","NWBJA","People","","413","","","","38","","43","","53","","","","","","","","","","","","","","","","1","413","","","","","","","","","","","","","","","","","","","","","","",""
"","fixation","","html-keyboard-response","347","1015473","0.0-364.0","0","0","NWBJA","People","","null","","","","null","","","","","","","","","","","","","","","","","","","","","","","","","","","","","","","","","","","","","","","","","","","",""
"","see_reward","","html-keyboard-response","348","1015862","0.0-365.0","0","0","NWBJA","People","","387","","","","32","","34","","54","","","","1","","","","","3","","","","","152","387","","","","","","","","","","","","","","","","","","","","","","","","",""
"","reward_outcome","","html-keyboard-response","349","1017870","0.0-366.0","0","0","NWBJA","People","","581","","","","38","","34","","54","","","","","","","","","","","","","","","","1","581","","","","","","","","","","","","","","","","","","","","","","",""
"","fixation","","html-keyboard-response","350","1018884","0.0-369.0","0","0","NWBJA","People","","null","","","","null","","","","","","","","","","","","","","","","","","","","","","","","","","","","","","","","","","","","","","","","","","","",""
"","see_reward","","html-keyboard-response","351","1019253","0.0-370.0","0","0","NWBJA","People","","368","","","","32","","18","","55","","","","-1","","","","","3","","","","","0","368","","","","","","","","","","","","","","","","","","","","","","","","",""
"","reward_outcome","","html-keyboard-response","352","1021261","0.0-371.0","0","0","NWBJA","People","","637","","","","40","","18","","55","","","","","","","","","","","","","","","","-1","637","","","","","","","","","","","","","","","","","","","","","","",""
