"success","ttype","start_time","trial_type","trial_index","time_elapsed","internal_node_id","warning","missed_checkup","PID","stim_type","view_history","rt","responses","repeat_instructions","key_press","response","stimulus_id","painting","index","stimulus_left","stimulus_right","explain_trial","reward_type","rating_left","rating_right","painting_left","painting_right","block","left_chosen","chosen_obj","unchosen_obj","explain_response","reward_amount","see_reward_rt","register_reward_response","register_reward_rt","deliberation_reward_tally","stimulus_left_deliberation_ind","stimulus_right_deliberation_ind","chosen_trial","gain_left","higher_outcome_chosen","old_pair","chosen_object","rt_pairs","left_object_chosen","rt_object","old_response","new_rating","deliberated_stim","initial_rating","outcome_eval_rt","outcome_eval_response","outcome_eval_gain","outcome_eval_acc","preamble","outcome_eval_confidence","outcome_eval_confidence_rt","total_reward_tally"
"true","full_screen","d01192023hr2042","fullscreen","0","4508654","0.0-0.0","0","0","6NYOK","Scenes","","","","","","","","","","","","","","","","","","","","","","","","","","","","","","","","","","","","","","","","","","","","","","","","",""
"","rating_instructions","","instructions","1","5005712","0.0-1.0-0.0","0","0","6NYOK","Scenes","[{""page_index"":0,""viewing_time"":491020},{""page_index"":1,""viewing_time"":1911},{""page_index"":0,""viewing_time"":3320},{""page_index"":1,""viewing_time"":801}]","497053","","","","","","","","","","","","","","","","","","","","","","","","","","","","","","","","","","","","","","","","","","","","","","",""
"","rating_comprehension_check","","survey-multi-choice","2","5010525","0.0-1.0-1.0","0","0","6NYOK","Scenes","","4808","{""Q0"":""True"",""Q1"":""Mouse""}","0","","","","","","","","","","","","","","","","","","","","","","","","","","","","","","","","","","","","","","","","","","","","",""
"","start_phase","","html-keyboard-response","3","5013162","0.0-2.0","0","0","6NYOK","Scenes","","2633","","","78","","","","","","","","","","","","","","","","","","","","","","","","","","","","","","","","","","","","","","","","","","","",""
"","rating","","html-slider-response","4","5015520","0.0-3.0","0","0","6NYOK","Scenes","","2354","","","","100","123","joel-jasmin-forestbird-efuwb5eBDrI-unsplash.jpg","0","","","","","","","","","","","","","","","","","","","","","","","","","","","","","","","","","","","","","","","",""
"","rating","","html-slider-response","5","5018007","0.0-4.0","0","0","6NYOK","Scenes","","2483","","","","100","117","frank-mckenna-OD9EOzfSOh0-unsplash.jpg","1","","","","","","","","","","","","","","","","","","","","","","","","","","","","","","","","","","","","","","","",""
"","rating","","html-slider-response","6","5019870","0.0-5.0","0","0","6NYOK","Scenes","","1860","","","","100","131","luca-bravo-hFzIoD0F_i8-unsplash.jpg","2","","","","","","","","","","","","","","","","","","","","","","","","","","","","","","","","","","","","","","","",""
"","rating","","html-slider-response","7","5021941","0.0-6.0","0","0","6NYOK","Scenes","","2071","","","","100","144","solotravelgoals-7kLufxYoqWk-unsplash.jpg","3","","","","","","","","","","","","","","","","","","","","","","","","","","","","","","","","","","","","","","","",""
"","rating","","html-slider-response","8","5024225","0.0-7.0","0","0","6NYOK","Scenes","","2281","","","","100","115","darrell-cassell-hoCXpPUMCoE-unsplash.jpg","4","","","","","","","","","","","","","","","","","","","","","","","","","","","","","","","","","","","","","","","",""
"","rating","","html-slider-response","9","5026152","0.0-8.0","0","0","6NYOK","Scenes","","1924","","","","100","124","johannes-plenio-sPt5RIjKfpk-unsplash.jpg","5","","","","","","","","","","","","","","","","","","","","","","","","","","","","","","","","","","","","","","","",""
"","rating","","html-slider-response","10","5027992","0.0-9.0","0","0","6NYOK","Scenes","","1836","","","","100","134","milada-vigerova-pQMM63GE7fo-unsplash.jpg","6","","","","","","","","","","","","","","","","","","","","","","","","","","","","","","","","","","","","","","","",""
"","rating","","html-slider-response","11","5031391","0.0-10.0","0","0","6NYOK","Scenes","","3396","","","","79","100","aleksandra-boguslawska-MS7KD9Ti7FQ-unsplash.jpg","7","","","","","","","","","","","","","","","","","","","","","","","","","","","","","","","","","","","","","","","",""
"","rating","","html-slider-response","12","5033743","0.0-11.0","0","0","6NYOK","Scenes","","2349","","","","51","149","yuriy-bogdanov-W51VK3Obcj0-unsplash.jpg","8","","","","","","","","","","","","","","","","","","","","","","","","","","","","","","","","","","","","","","","",""
"","rating","","html-slider-response","13","5035566","0.0-12.0","0","0","6NYOK","Scenes","","1820","","","","100","108","benjamin-voros-phIFdC6lA4E-unsplash.jpg","9","","","","","","","","","","","","","","","","","","","","","","","","","","","","","","","","","","","","","","","",""
"","rating","","html-slider-response","14","5038319","0.0-13.0","0","0","6NYOK","Scenes","","2751","","","","30","105","ashim-d-silva-S2Q5mdOrrVc-unsplash.jpg","10","","","","","","","","","","","","","","","","","","","","","","","","","","","","","","","","","","","","","","","",""
"","rating","","html-slider-response","15","5040063","0.0-14.0","0","0","6NYOK","Scenes","","1740","","","","100","143","sigurdur-fjalar-jonsson-1KxBabIntpE-unsplash.jpg","11","","","","","","","","","","","","","","","","","","","","","","","","","","","","","","","","","","","","","","","",""
"","rating","","html-slider-response","16","5041902","0.0-15.0","0","0","6NYOK","Scenes","","1837","","","","100","102","anisur-rahman-K2b7UDed6uQ-unsplash.jpg","12","","","","","","","","","","","","","","","","","","","","","","","","","","","","","","","","","","","","","","","",""
"","rating","","html-slider-response","17","5043812","0.0-16.0","0","0","6NYOK","Scenes","","1909","","","","84","118","henry-be-NLF6hTe4PAg-unsplash.jpg","13","","","","","","","","","","","","","","","","","","","","","","","","","","","","","","","","","","","","","","","",""
"","rating","","html-slider-response","18","5045687","0.0-17.0","0","0","6NYOK","Scenes","","1871","","","","100","130","lina-loos-04-C1NZk1hE-unsplash.jpg","14","","","","","","","","","","","","","","","","","","","","","","","","","","","","","","","","","","","","","","","",""
"","rating","","html-slider-response","19","5047503","0.0-18.0","0","0","6NYOK","Scenes","","1814","","","","100","148","tom-gainor-ZqLeQDjY6fY-unsplash.jpg","15","","","","","","","","","","","","","","","","","","","","","","","","","","","","","","","","","","","","","","","",""
"","rating","","html-slider-response","20","5049167","0.0-19.0","0","0","6NYOK","Scenes","","1660","","","","100","127","kace-rodriguez-p3OzJuT_Dks-unsplash.jpg","16","","","","","","","","","","","","","","","","","","","","","","","","","","","","","","","","","","","","","","","",""
"","rating","","html-slider-response","21","5050800","0.0-20.0","0","0","6NYOK","Scenes","","1630","","","","100","137","olga-stalska-QaWRyEdlffY-unsplash.jpg","17","","","","","","","","","","","","","","","","","","","","","","","","","","","","","","","","","","","","","","","",""
"","rating","","html-slider-response","22","5053087","0.0-21.0","0","0","6NYOK","Scenes","","2285","","","","100","111","claudio-testa-U3F2o6vz3bs-unsplash.jpg","18","","","","","","","","","","","","","","","","","","","","","","","","","","","","","","","","","","","","","","","",""
"","rating","","html-slider-response","23","5054973","0.0-22.0","0","0","6NYOK","Scenes","","1883","","","","100","110","bruno-van-der-kraan-qez8mNJ3ilU-unsplash.jpg","19","","","","","","","","","","","","","","","","","","","","","","","","","","","","","","","","","","","","","","","",""
"","rating","","html-slider-response","24","5057055","0.0-23.0","0","0","6NYOK","Scenes","","2080","","","","100","112","cosmic-timetraveler-pYyOZ8q7AII-unsplash.jpg","20","","","","","","","","","","","","","","","","","","","","","","","","","","","","","","","","","","","","","","","",""
"","rating","","html-slider-response","25","5060255","0.0-24.0","0","0","6NYOK","Scenes","","3196","","","","84","128","karsten-wurth-jS0zC2PJ17A-unsplash.jpg","21","","","","","","","","","","","","","","","","","","","","","","","","","","","","","","","","","","","","","","","",""
"","rating","","html-slider-response","26","5062375","0.0-25.0","0","0","6NYOK","Scenes","","2117","","","","100","106","ashim-d-silva-WeYamle9fDM-unsplash.jpg","22","","","","","","","","","","","","","","","","","","","","","","","","","","","","","","","","","","","","","","","",""
"","rating","","html-slider-response","27","5064279","0.0-26.0","0","0","6NYOK","Scenes","","1902","","","","100","135","mohammad-alizade-4wzRuAb-KWs-unsplash.jpg","23","","","","","","","","","","","","","","","","","","","","","","","","","","","","","","","","","","","","","","","",""
"","rating","","html-slider-response","28","5065902","0.0-27.0","0","0","6NYOK","Scenes","","1619","","","","100","145","stephen-leonardi-gyIRjKPXupE-unsplash.jpg","24","","","","","","","","","","","","","","","","","","","","","","","","","","","","","","","","","","","","","","","",""
"","rating","","html-slider-response","29","5067327","0.0-28.0","0","0","6NYOK","Scenes","","1423","","","","100","104","artem-sapegin-XGDBdSQ70O0-unsplash.jpg","25","","","","","","","","","","","","","","","","","","","","","","","","","","","","","","","","","","","","","","","",""
"","rating","","html-slider-response","30","5068880","0.0-29.0","0","0","6NYOK","Scenes","","1549","","","","100","101","aniket-deole-T-tOgjWZ0fQ-unsplash.jpg","26","","","","","","","","","","","","","","","","","","","","","","","","","","","","","","","","","","","","","","","",""
"","rating","","html-slider-response","31","5070471","0.0-30.0","0","0","6NYOK","Scenes","","1588","","","","100","129","kurt-cotoaga-cqbLg3lZEpk-unsplash.jpg","27","","","","","","","","","","","","","","","","","","","","","","","","","","","","","","","","","","","","","","","",""
"","rating","","html-slider-response","32","5071983","0.0-31.0","0","0","6NYOK","Scenes","","1509","","","","100","109","brigitta-schneiter-hXXRLtTxXCU-unsplash.jpg","28","","","","","","","","","","","","","","","","","","","","","","","","","","","","","","","","","","","","","","","",""
"","rating","","html-slider-response","33","5073503","0.0-32.0","0","0","6NYOK","Scenes","","1517","","","","100","133","mickey-o-neil-xL66l--msXU-unsplash.jpg","29","","","","","","","","","","","","","","","","","","","","","","","","","","","","","","","","","","","","","","","",""
"","rating","","html-slider-response","34","5075663","0.0-33.0","0","0","6NYOK","Scenes","","2156","","","","71","139","samsommer-vddccTqwal8-unsplash.jpg","30","","","","","","","","","","","","","","","","","","","","","","","","","","","","","","","","","","","","","","","",""
"","rating","","html-slider-response","35","5077304","0.0-34.0","0","0","6NYOK","Scenes","","1637","","","","100","140","samuele-errico-piccarini-JEBqFu2AOOA-unsplash.jpg","31","","","","","","","","","","","","","","","","","","","","","","","","","","","","","","","","","","","","","","","",""
"","rating","","html-slider-response","36","5079390","0.0-35.0","0","0","6NYOK","Scenes","","2084","","","","77","107","benjamin-davies-Zm2n2O7Fph4-unsplash.jpg","32","","","","","","","","","","","","","","","","","","","","","","","","","","","","","","","","","","","","","","","",""
"","rating","","html-slider-response","37","5081687","0.0-36.0","0","0","6NYOK","Scenes","","2294","","","","98","120","jarrett-kow-1ZOyYPOBn7I-unsplash.jpg","33","","","","","","","","","","","","","","","","","","","","","","","","","","","","","","","","","","","","","","","",""
"","rating","","html-slider-response","38","5084063","0.0-37.0","0","0","6NYOK","Scenes","","2373","","","","85","116","david-marcu-W5MhJ6cy1So-unsplash.jpg","34","","","","","","","","","","","","","","","","","","","","","","","","","","","","","","","","","","","","","","","",""
"","rating","","html-slider-response","39","5086800","0.0-38.0","0","0","6NYOK","Scenes","","2732","","","","82","122","jeff-king-bJHWJeiHfHc-unsplash.jpg","35","","","","","","","","","","","","","","","","","","","","","","","","","","","","","","","","","","","","","","","",""
"","rating","","html-slider-response","40","5089437","0.0-39.0","0","0","6NYOK","Scenes","","2635","","","","86","125","john-lee-oMneOBYhJxY-unsplash.jpg","36","","","","","","","","","","","","","","","","","","","","","","","","","","","","","","","","","","","","","","","",""
"","rating","","html-slider-response","41","5092319","0.0-40.0","0","0","6NYOK","Scenes","","2880","","","","84","121","jean-pierre-brungs-qxCqkbF7tUc-unsplash.jpg","37","","","","","","","","","","","","","","","","","","","","","","","","","","","","","","","","","","","","","","","",""
"","rating","","html-slider-response","42","5097239","0.0-41.0","0","0","6NYOK","Scenes","","4916","","","","80","126","jordan-mcqueen-PJCZOWuOxbU-unsplash.jpg","38","","","","","","","","","","","","","","","","","","","","","","","","","","","","","","","","","","","","","","","",""
"","rating","","html-slider-response","43","5099374","0.0-42.0","0","0","6NYOK","Scenes","","2133","","","","82","113","damian-denis-D8R_txR_0PE-unsplash.jpg","39","","","","","","","","","","","","","","","","","","","","","","","","","","","","","","","","","","","","","","","",""
"","rating","","html-slider-response","44","5102263","0.0-43.0","0","0","6NYOK","Scenes","","2886","","","","81","103","anton-darius-FBJugtbHsWU-unsplash.jpg","40","","","","","","","","","","","","","","","","","","","","","","","","","","","","","","","","","","","","","","","",""
"","rating","","html-slider-response","45","5105175","0.0-44.0","0","0","6NYOK","Scenes","","2909","","","","84","147","tobias-keller-73F4pKoUkM0-unsplash.jpg","41","","","","","","","","","","","","","","","","","","","","","","","","","","","","","","","","","","","","","","","",""
"","rating","","html-slider-response","46","5107311","0.0-45.0","0","0","6NYOK","Scenes","","2133","","","","89","146","thomas-morse-cuKKa0vWZSY-unsplash.jpg","42","","","","","","","","","","","","","","","","","","","","","","","","","","","","","","","","","","","","","","","",""
"","rating","","html-slider-response","47","5109751","0.0-46.0","0","0","6NYOK","Scenes","","2437","","","","77","138","petr-vysohlid-9fqwGqGLUxc-unsplash.jpg","43","","","","","","","","","","","","","","","","","","","","","","","","","","","","","","","","","","","","","","","",""
"","rating","","html-slider-response","48","5111647","0.0-47.0","0","0","6NYOK","Scenes","","1893","","","","90","119","james-wheeler-AFC0XvICMgs-unsplash.jpg","44","","","","","","","","","","","","","","","","","","","","","","","","","","","","","","","","","","","","","","","",""
"","rating","","html-slider-response","49","5115927","0.0-48.0","0","0","6NYOK","Scenes","","4277","","","","40","136","nicolas-jehly-LzVB84KkZOE-unsplash.jpg","45","","","","","","","","","","","","","","","","","","","","","","","","","","","","","","","","","","","","","","","",""
"","rating","","html-slider-response","50","5118415","0.0-49.0","0","0","6NYOK","Scenes","","2485","","","","92","114","daniel-sessler-z_9VmsxR8hs-unsplash.jpg","46","","","","","","","","","","","","","","","","","","","","","","","","","","","","","","","","","","","","","","","",""
"","rating","","html-slider-response","51","5120367","0.0-50.0","0","0","6NYOK","Scenes","","1949","","","","100","141","sebastian-unrau-v4e3JI7DDHI-unsplash.jpg","47","","","","","","","","","","","","","","","","","","","","","","","","","","","","","","","","","","","","","","","",""
"","rating","","html-slider-response","52","5122295","0.0-51.0","0","0","6NYOK","Scenes","","1926","","","","82","132","meng-ji-8BH_M-53CyA-unsplash.jpg","48","","","","","","","","","","","","","","","","","","","","","","","","","","","","","","","","","","","","","","","",""
"","rating","","html-slider-response","53","5124752","0.0-52.0","0","0","6NYOK","Scenes","","2454","","","","85","142","sergey-pesterev-y-b_FOmJXdg-unsplash.jpg","49","","","","","","","","","","","","","","","","","","","","","","","","","","","","","","","","","","","","","","","",""
"","deliberation_instructions","","instructions","54","5201213","0.0-53.0-0.0","0","0","6NYOK","Scenes","[{""page_index"":0,""viewing_time"":12178},{""page_index"":1,""viewing_time"":12545},{""page_index"":2,""viewing_time"":6759},{""page_index"":3,""viewing_time"":43543},{""page_index"":4,""viewing_time"":1431}]","76457","","","","","","","","","","","","","","","","","","","","","","","","","","","","","","","","","","","","","","","","","","","","","","",""
"","deliberation_comprehension_check","","survey-multi-choice","55","5224640","0.0-53.0-1.0","0","0","6NYOK","Scenes","","23424","{""Q0"":""True"",""Q1"":""False"",""Q2"":""Consider carefully and take your time (up to 10 seconds)"",""Q3"":""True"",""Q4"":""D""}","1","","","","","","","","","","","","","","","","","","","","","","","","","","","","","","","","","","","","","","","","","","","","",""
"","missed_instruction_checkup","","html-keyboard-response","56","5227593","0.0-53.0-2.0-0.0","0","1","6NYOK","Scenes","","2950","","","78","","","","","","","","","","","","","","","","","","","","","","","","","","","","","","","","","","","","","","","","","","","",""
"","deliberation_instructions","","instructions","57","5264015","0.0-53.1-0.1","0","0","6NYOK","Scenes","[{""page_index"":0,""viewing_time"":17916},{""page_index"":1,""viewing_time"":4584},{""page_index"":2,""viewing_time"":8663},{""page_index"":3,""viewing_time"":4057},{""page_index"":4,""viewing_time"":1199}]","36419","","","","","","","","","","","","","","","","","","","","","","","","","","","","","","","","","","","","","","","","","","","","","","",""
"","deliberation_comprehension_check","","survey-multi-choice","58","5277680","0.0-53.1-1.1","0","0","6NYOK","Scenes","","13660","{""Q0"":""True"",""Q1"":""True"",""Q2"":""Consider carefully and take your time (up to 10 seconds)"",""Q3"":""True"",""Q4"":""D""}","0","","","","","","","","","","","","","","","","","","","","","","","","","","","","","","","","","","","","","","","","","","","","",""
"","start_phase","","html-keyboard-response","59","5280238","0.0-54.0","0","0","6NYOK","Scenes","","2555","","","78","","","","","","","","","","","","","","","","","","","","","","","","","","","","","","","","","","","","","","","","","","","",""
"","first_deliberation_block","","html-keyboard-response","60","5297363","0.0-55.0","0","0","6NYOK","Scenes","","17123","","","78","","","","","","","","","","","","","","","","","","","","","","","","","","","","","","","","","","","","","","","","","","","",""
"","fixation","","html-keyboard-response","61","5298366","0.0-56.0-0.0","0","0","6NYOK","Scenes","","null","","","null","","","","","","","","","","","","","","","","","","","","","","","","","","","","","","","","","","","","","","","","","","","",""
"","deliberation","","html-keyboard-response","62","5300991","0.0-56.0-1.0","0","0","6NYOK","Scenes","","2621","","","75","","","","0","102","128","1","1","100","84","anisur-rahman-K2b7UDed6uQ-unsplash.jpg","karsten-wurth-jS0zC2PJ17A-unsplash.jpg","1","0","128","102","","","","","","","","","","","","","","","","","","","","","","","","","","","",""
"","choice_confirmation","","html-keyboard-response","63","5301504","0.0-56.0-2.0-0.0","0","0","6NYOK","Scenes","","null","","","null","","","","0","102","128","","","","","","","","","","","","","","","","","","","","","","","","","","","","","","","","","","","","","",""
"","explain_trial","","survey-text","64","5317119","0.0-56.0-5.0-0.0","0","0","6NYOK","Scenes","","15614","{""Q0"":""I LIKE THE COLOR CONTRASTS AND THE BACKDROP MORE""}","","","","","","0","102","128","","","","","","","","","","","{""Q0"":""I LIKE THE COLOR CONTRASTS AND THE BACKDROP MORE""}","","","","","","","","","","","","","","","","","","","","","","","","","","",""
"","fixation","","html-keyboard-response","65","5318129","0.0-57.0-0.0","0","0","6NYOK","Scenes","","null","","","null","","","","","","","","","","","","","","","","","","","","","","","","","","","","","","","","","","","","","","","","","","","",""
"","deliberation","","html-keyboard-response","66","5321209","0.0-57.0-1.0","0","0","6NYOK","Scenes","","3078","","","68","","","","1","119","134","0","1","90","100","james-wheeler-AFC0XvICMgs-unsplash.jpg","milada-vigerova-pQMM63GE7fo-unsplash.jpg","1","1","119","134","","","","","","","","","","","","","","","","","","","","","","","","","","","",""
"","choice_confirmation","","html-keyboard-response","67","5321719","0.0-57.0-2.0-0.0","0","0","6NYOK","Scenes","","null","","","null","","","","1","119","134","","","","","","","","","","","","","","","","","","","","","","","","","","","","","","","","","","","","","",""
"","fixation","","html-keyboard-response","68","5322730","0.0-58.0-0.0","0","0","6NYOK","Scenes","","null","","","null","","","","","","","","","","","","","","","","","","","","","","","","","","","","","","","","","","","","","","","","","","","",""
"","deliberation","","html-keyboard-response","69","5324965","0.0-58.0-1.0","0","0","6NYOK","Scenes","","2235","","","68","","","","2","123","147","1","-1","100","84","joel-jasmin-forestbird-efuwb5eBDrI-unsplash.jpg","tobias-keller-73F4pKoUkM0-unsplash.jpg","1","1","123","147","","","","","","","","","","","","","","","","","","","","","","","","","","","",""
"","choice_confirmation","","html-keyboard-response","70","5325472","0.0-58.0-2.0-0.0","0","0","6NYOK","Scenes","","null","","","null","","","","2","123","147","","","","","","","","","","","","","","","","","","","","","","","","","","","","","","","","","","","","","",""
"","explain_trial","","survey-text","71","5344326","0.0-58.0-5.0-0.0","0","0","6NYOK","Scenes","","18853","{""Q0"":""THE COLORS AND LANDSCAPE IS MORE EYECATCHING AND DYNAMIC.""}","","","","","","2","123","147","","","","","","","","","","","{""Q0"":""THE COLORS AND LANDSCAPE IS MORE EYECATCHING AND DYNAMIC.""}","","","","","","","","","","","","","","","","","","","","","","","","","","",""
"","fixation","","html-keyboard-response","72","5345331","0.0-59.0-0.0","0","0","6NYOK","Scenes","","null","","","null","","","","","","","","","","","","","","","","","","","","","","","","","","","","","","","","","","","","","","","","","","","",""
"","deliberation","","html-keyboard-response","73","5348392","0.0-59.0-1.0","0","0","6NYOK","Scenes","","3056","","","75","","","","3","131","144","0","-1","100","100","luca-bravo-hFzIoD0F_i8-unsplash.jpg","solotravelgoals-7kLufxYoqWk-unsplash.jpg","1","0","144","131","","","","","","","","","","","","","","","","","","","","","","","","","","","",""
"","choice_confirmation","","html-keyboard-response","74","5348909","0.0-59.0-2.0-0.0","0","0","6NYOK","Scenes","","null","","","null","","","","3","131","144","","","","","","","","","","","","","","","","","","","","","","","","","","","","","","","","","","","","","",""
"","fixation","","html-keyboard-response","75","5349925","0.0-60.0-0.0","0","0","6NYOK","Scenes","","null","","","null","","","","","","","","","","","","","","","","","","","","","","","","","","","","","","","","","","","","","","","","","","","",""
"","deliberation","","html-keyboard-response","76","5352013","0.0-60.0-1.0","0","0","6NYOK","Scenes","","2084","","","68","","","","4","115","114","1","-1","100","92","darrell-cassell-hoCXpPUMCoE-unsplash.jpg","daniel-sessler-z_9VmsxR8hs-unsplash.jpg","1","1","115","114","","","","","","","","","","","","","","","","","","","","","","","","","","","",""
"","choice_confirmation","","html-keyboard-response","77","5352520","0.0-60.0-2.0-0.0","0","0","6NYOK","Scenes","","null","","","null","","","","4","115","114","","","","","","","","","","","","","","","","","","","","","","","","","","","","","","","","","","","","","",""
"","explain_trial","","survey-text","78","5383303","0.0-60.0-5.0-0.0","0","0","6NYOK","Scenes","","30780","{""Q0"":""I LIKE THE MELDING OF THE BLUES AND GRAYS AND WHITES. I THINK THE OCEAN IS MORE SOOTHING TO LOOK AT.""}","","","","","","4","115","114","","","","","","","","","","","{""Q0"":""I LIKE THE MELDING OF THE BLUES AND GRAYS AND WHITES. I THINK THE OCEAN IS MORE SOOTHING TO LOOK AT.""}","","","","","","","","","","","","","","","","","","","","","","","","","","",""
"","fixation","","html-keyboard-response","79","5384318","0.0-61.0-0.0","0","0","6NYOK","Scenes","","null","","","null","","","","","","","","","","","","","","","","","","","","","","","","","","","","","","","","","","","","","","","","","","","",""
"","deliberation","","html-keyboard-response","80","5387079","0.0-61.0-1.0","0","0","6NYOK","Scenes","","2758","","","68","","","","5","146","142","0","1","89","85","thomas-morse-cuKKa0vWZSY-unsplash.jpg","sergey-pesterev-y-b_FOmJXdg-unsplash.jpg","1","1","146","142","","","","","","","","","","","","","","","","","","","","","","","","","","","",""
"","choice_confirmation","","html-keyboard-response","81","5387588","0.0-61.0-2.0-0.0","0","0","6NYOK","Scenes","","null","","","null","","","","5","146","142","","","","","","","","","","","","","","","","","","","","","","","","","","","","","","","","","","","","","",""
"","fixation","","html-keyboard-response","82","5388598","0.0-62.0-0.0","0","0","6NYOK","Scenes","","null","","","null","","","","","","","","","","","","","","","","","","","","","","","","","","","","","","","","","","","","","","","","","","","",""
"","deliberation","","html-keyboard-response","83","5391489","0.0-62.0-1.0","0","0","6NYOK","Scenes","","2888","","","68","","","","6","124","117","1","-1","100","100","johannes-plenio-sPt5RIjKfpk-unsplash.jpg","frank-mckenna-OD9EOzfSOh0-unsplash.jpg","1","1","124","117","","","","","","","","","","","","","","","","","","","","","","","","","","","",""
"","choice_confirmation","","html-keyboard-response","84","5391995","0.0-62.0-2.0-0.0","0","0","6NYOK","Scenes","","null","","","null","","","","6","124","117","","","","","","","","","","","","","","","","","","","","","","","","","","","","","","","","","","","","","",""
"","explain_trial","","survey-text","85","5427607","0.0-62.0-5.0-0.0","0","0","6NYOK","Scenes","","35608","{""Q0"":""IT MORE MYSTERIOUS AND DYNAMIC. ITS SORT OF MYSTIFYING TO LOOK AT.""}","","","","","","6","124","117","","","","","","","","","","","{""Q0"":""IT MORE MYSTERIOUS AND DYNAMIC. ITS SORT OF MYSTIFYING TO LOOK AT.""}","","","","","","","","","","","","","","","","","","","","","","","","","","",""
"","fixation","","html-keyboard-response","86","5428625","0.0-63.0-0.0","0","0","6NYOK","Scenes","","null","","","null","","","","","","","","","","","","","","","","","","","","","","","","","","","","","","","","","","","","","","","","","","","",""
"","deliberation","","html-keyboard-response","87","5430220","0.0-63.0-1.0","0","0","6NYOK","Scenes","","1592","","","68","","","","7","137","143","0","-1","100","100","olga-stalska-QaWRyEdlffY-unsplash.jpg","sigurdur-fjalar-jonsson-1KxBabIntpE-unsplash.jpg","1","1","137","143","","","","","","","","","","","","","","","","","","","","","","","","","","","",""
"","choice_confirmation","","html-keyboard-response","88","5430725","0.0-63.0-2.0-0.0","0","0","6NYOK","Scenes","","null","","","null","","","","7","137","143","","","","","","","","","","","","","","","","","","","","","","","","","","","","","","","","","","","","","",""
"","fixation","","html-keyboard-response","89","5431730","0.0-64.0-0.0","0","0","6NYOK","Scenes","","null","","","null","","","","","","","","","","","","","","","","","","","","","","","","","","","","","","","","","","","","","","","","","","","",""
"","deliberation","","html-keyboard-response","90","5433719","0.0-64.0-1.0","0","0","6NYOK","Scenes","","1987","","","68","","","","8","125","120","0","-1","86","98","john-lee-oMneOBYhJxY-unsplash.jpg","jarrett-kow-1ZOyYPOBn7I-unsplash.jpg","1","1","125","120","","","","","","","","","","","","","","","","","","","","","","","","","","","",""
"","choice_confirmation","","html-keyboard-response","91","5434232","0.0-64.0-2.0-0.0","0","0","6NYOK","Scenes","","null","","","null","","","","8","125","120","","","","","","","","","","","","","","","","","","","","","","","","","","","","","","","","","","","","","",""
"","fixation","","html-keyboard-response","92","5435244","0.0-65.0-0.0","0","0","6NYOK","Scenes","","null","","","null","","","","","","","","","","","","","","","","","","","","","","","","","","","","","","","","","","","","","","","","","","","",""
"","deliberation","","html-keyboard-response","93","5437426","0.0-65.0-1.0","0","0","6NYOK","Scenes","","2177","","","75","","","","9","130","148","1","1","100","100","lina-loos-04-C1NZk1hE-unsplash.jpg","tom-gainor-ZqLeQDjY6fY-unsplash.jpg","1","0","148","130","","","","","","","","","","","","","","","","","","","","","","","","","","","",""
"","choice_confirmation","","html-keyboard-response","94","5437932","0.0-65.0-2.0-0.0","0","0","6NYOK","Scenes","","null","","","null","","","","9","130","148","","","","","","","","","","","","","","","","","","","","","","","","","","","","","","","","","","","","","",""
"","explain_trial","","survey-text","95","5460934","0.0-65.0-5.0-0.0","0","0","6NYOK","Scenes","","23001","{""Q0"":""IT SORT OF A SURREAL LOOK. IT LOOKS MORE WHIMSICAL.""}","","","","","","9","130","148","","","","","","","","","","","{""Q0"":""IT SORT OF A SURREAL LOOK. IT LOOKS MORE WHIMSICAL.""}","","","","","","","","","","","","","","","","","","","","","","","","","","",""
"","fixation","","html-keyboard-response","96","5461945","0.0-66.0-0.0","0","0","6NYOK","Scenes","","null","","","null","","","","","","","","","","","","","","","","","","","","","","","","","","","","","","","","","","","","","","","","","","","",""
"","deliberation","","html-keyboard-response","97","5463252","0.0-66.0-1.0","0","0","6NYOK","Scenes","","1305","","","68","","","","10","108","127","0","1","100","100","benjamin-voros-phIFdC6lA4E-unsplash.jpg","kace-rodriguez-p3OzJuT_Dks-unsplash.jpg","1","1","108","127","","","","","","","","","","","","","","","","","","","","","","","","","","","",""
"","choice_confirmation","","html-keyboard-response","98","5463762","0.0-66.0-2.0-0.0","0","0","6NYOK","Scenes","","null","","","null","","","","10","108","127","","","","","","","","","","","","","","","","","","","","","","","","","","","","","","","","","","","","","",""
"","fixation","","html-keyboard-response","99","5464776","0.0-67.0-0.0","0","0","6NYOK","Scenes","","null","","","null","","","","","","","","","","","","","","","","","","","","","","","","","","","","","","","","","","","","","","","","","","","",""
"","deliberation","","html-keyboard-response","100","5466502","0.0-67.0-1.0","0","0","6NYOK","Scenes","","1722","","","75","","","","11","121","116","1","1","84","85","jean-pierre-brungs-qxCqkbF7tUc-unsplash.jpg","david-marcu-W5MhJ6cy1So-unsplash.jpg","1","0","116","121","","","","","","","","","","","","","","","","","","","","","","","","","","","",""
"","choice_confirmation","","html-keyboard-response","101","5467012","0.0-67.0-2.0-0.0","0","0","6NYOK","Scenes","","null","","","null","","","","11","121","116","","","","","","","","","","","","","","","","","","","","","","","","","","","","","","","","","","","","","",""
"","explain_trial","","survey-text","102","5490094","0.0-67.0-5.0-0.0","0","0","6NYOK","Scenes","","23079","{""Q0"":""THE COLORS ARE MORE ALLURING AND ATTENTION GRABBING.""}","","","","","","11","121","116","","","","","","","","","","","{""Q0"":""THE COLORS ARE MORE ALLURING AND ATTENTION GRABBING.""}","","","","","","","","","","","","","","","","","","","","","","","","","","",""
"","practice_deliberation_again","","html-keyboard-response","103","7357769","0.0-67.0-6.0-0.0","0","0","6NYOK","Scenes","","1867671","","","78","","","","","","","","","","","","","","","","","","","","","","","","","","","","","","","","","","","","","","","","","","","",""
"","fixation","","html-keyboard-response","104","7358781","0.0-68.0-0.0","0","0","6NYOK","Scenes","","null","","","null","","","","","","","","","","","","","","","","","","","","","","","","","","","","","","","","","","","","","","","","","","","",""
"","deliberation","","html-keyboard-response","105","7360677","0.0-68.0-1.0","0","0","6NYOK","Scenes","","1892","","","75","","","","12","131","144","1","-1","100","100","luca-bravo-hFzIoD0F_i8-unsplash.jpg","solotravelgoals-7kLufxYoqWk-unsplash.jpg","2","0","144","131","","","","","","","","","","","","","","","","","","","","","","","","","","","",""
"","choice_confirmation","","html-keyboard-response","106","7361192","0.0-68.0-2.0-0.0","0","0","6NYOK","Scenes","","null","","","null","","","","12","131","144","","","","","","","","","","","","","","","","","","","","","","","","","","","","","","","","","","","","","",""
"","explain_trial","","survey-text","107","7381697","0.0-68.0-5.0-0.0","0","0","6NYOK","Scenes","","20499","{""Q0"":""I LIKE THE LANDSCAPE LOOK OF IT MORE. THE COLORS ARE BRIGHTER""}","","","","","","12","131","144","","","","","","","","","","","{""Q0"":""I LIKE THE LANDSCAPE LOOK OF IT MORE. THE COLORS ARE BRIGHTER""}","","","","","","","","","","","","","","","","","","","","","","","","","","",""
"","fixation","","html-keyboard-response","108","7382705","0.0-69.0-0.0","0","0","6NYOK","Scenes","","null","","","null","","","","","","","","","","","","","","","","","","","","","","","","","","","","","","","","","","","","","","","","","","","",""
"","deliberation","","html-keyboard-response","109","7384399","0.0-69.0-1.0","0","0","6NYOK","Scenes","","1689","","","75","","","","13","124","117","0","-1","100","100","johannes-plenio-sPt5RIjKfpk-unsplash.jpg","frank-mckenna-OD9EOzfSOh0-unsplash.jpg","2","0","117","124","","","","","","","","","","","","","","","","","","","","","","","","","","","",""
"","choice_confirmation","","html-keyboard-response","110","7384917","0.0-69.0-2.0-0.0","0","0","6NYOK","Scenes","","null","","","null","","","","13","124","117","","","","","","","","","","","","","","","","","","","","","","","","","","","","","","","","","","","","","",""
"","fixation","","html-keyboard-response","111","7385925","0.0-70.0-0.0","0","0","6NYOK","Scenes","","null","","","null","","","","","","","","","","","","","","","","","","","","","","","","","","","","","","","","","","","","","","","","","","","",""
"","deliberation","","html-keyboard-response","112","7388213","0.0-70.0-1.0","0","0","6NYOK","Scenes","","2284","","","68","","","","14","123","147","0","-1","100","84","joel-jasmin-forestbird-efuwb5eBDrI-unsplash.jpg","tobias-keller-73F4pKoUkM0-unsplash.jpg","2","1","123","147","","","","","","","","","","","","","","","","","","","","","","","","","","","",""
"","choice_confirmation","","html-keyboard-response","113","7388722","0.0-70.0-2.0-0.0","0","0","6NYOK","Scenes","","null","","","null","","","","14","123","147","","","","","","","","","","","","","","","","","","","","","","","","","","","","","","","","","","","","","",""
"","fixation","","html-keyboard-response","114","7389730","0.0-71.0-0.0","0","0","6NYOK","Scenes","","null","","","null","","","","","","","","","","","","","","","","","","","","","","","","","","","","","","","","","","","","","","","","","","","",""
"","deliberation","","html-keyboard-response","115","7391332","0.0-71.0-1.0","0","0","6NYOK","Scenes","","1597","","","75","","","","15","146","142","1","1","89","85","thomas-morse-cuKKa0vWZSY-unsplash.jpg","sergey-pesterev-y-b_FOmJXdg-unsplash.jpg","2","0","142","146","","","","","","","","","","","","","","","","","","","","","","","","","","","",""
"","choice_confirmation","","html-keyboard-response","116","7391845","0.0-71.0-2.0-0.0","0","0","6NYOK","Scenes","","null","","","null","","","","15","146","142","","","","","","","","","","","","","","","","","","","","","","","","","","","","","","","","","","","","","",""
"","explain_trial","","survey-text","117","7410871","0.0-71.0-5.0-0.0","0","0","6NYOK","Scenes","","19024","{""Q0"":""I LOOK OF THE LANDSCAPE IS MORE DYNAMIC""}","","","","","","15","146","142","","","","","","","","","","","{""Q0"":""I LOOK OF THE LANDSCAPE IS MORE DYNAMIC""}","","","","","","","","","","","","","","","","","","","","","","","","","","",""
"","fixation","","html-keyboard-response","118","7411882","0.0-72.0-0.0","0","0","6NYOK","Scenes","","null","","","null","","","","","","","","","","","","","","","","","","","","","","","","","","","","","","","","","","","","","","","","","","","",""
"","deliberation","","html-keyboard-response","119","7413108","0.0-72.0-1.0","0","0","6NYOK","Scenes","","1222","","","75","","","","16","130","148","0","1","100","100","lina-loos-04-C1NZk1hE-unsplash.jpg","tom-gainor-ZqLeQDjY6fY-unsplash.jpg","2","0","148","130","","","","","","","","","","","","","","","","","","","","","","","","","","","",""
"","choice_confirmation","","html-keyboard-response","120","7413616","0.0-72.0-2.0-0.0","0","0","6NYOK","Scenes","","null","","","null","","","","16","130","148","","","","","","","","","","","","","","","","","","","","","","","","","","","","","","","","","","","","","",""
"","fixation","","html-keyboard-response","121","7414623","0.0-73.0-0.0","0","0","6NYOK","Scenes","","null","","","null","","","","","","","","","","","","","","","","","","","","","","","","","","","","","","","","","","","","","","","","","","","",""
"","deliberation","","html-keyboard-response","122","7415646","0.0-73.0-1.0","0","0","6NYOK","Scenes","","1018","","","75","","","","17","102","128","0","1","100","84","anisur-rahman-K2b7UDed6uQ-unsplash.jpg","karsten-wurth-jS0zC2PJ17A-unsplash.jpg","2","0","128","102","","","","","","","","","","","","","","","","","","","","","","","","","","","",""
"","choice_confirmation","","html-keyboard-response","123","7416160","0.0-73.0-2.0-0.0","0","0","6NYOK","Scenes","","null","","","null","","","","17","102","128","","","","","","","","","","","","","","","","","","","","","","","","","","","","","","","","","","","","","",""
"","fixation","","html-keyboard-response","124","7417165","0.0-74.0-0.0","0","0","6NYOK","Scenes","","null","","","null","","","","","","","","","","","","","","","","","","","","","","","","","","","","","","","","","","","","","","","","","","","",""
"","deliberation","","html-keyboard-response","125","7418692","0.0-74.0-1.0","0","0","6NYOK","Scenes","","1523","","","75","","","","18","121","116","0","1","84","85","jean-pierre-brungs-qxCqkbF7tUc-unsplash.jpg","david-marcu-W5MhJ6cy1So-unsplash.jpg","2","0","116","121","","","","","","","","","","","","","","","","","","","","","","","","","","","",""
"","choice_confirmation","","html-keyboard-response","126","7419208","0.0-74.0-2.0-0.0","0","0","6NYOK","Scenes","","null","","","null","","","","18","121","116","","","","","","","","","","","","","","","","","","","","","","","","","","","","","","","","","","","","","",""
"","fixation","","html-keyboard-response","127","7420216","0.0-75.0-0.0","0","0","6NYOK","Scenes","","null","","","null","","","","","","","","","","","","","","","","","","","","","","","","","","","","","","","","","","","","","","","","","","","",""
"","deliberation","","html-keyboard-response","128","7421307","0.0-75.0-1.0","0","0","6NYOK","Scenes","","1089","","","68","","","","19","115","114","0","-1","100","92","darrell-cassell-hoCXpPUMCoE-unsplash.jpg","daniel-sessler-z_9VmsxR8hs-unsplash.jpg","2","1","115","114","","","","","","","","","","","","","","","","","","","","","","","","","","","",""
"","choice_confirmation","","html-keyboard-response","129","7421813","0.0-75.0-2.0-0.0","0","0","6NYOK","Scenes","","null","","","null","","","","19","115","114","","","","","","","","","","","","","","","","","","","","","","","","","","","","","","","","","","","","","",""
"","fixation","","html-keyboard-response","130","7422822","0.0-76.0-0.0","0","0","6NYOK","Scenes","","null","","","null","","","","","","","","","","","","","","","","","","","","","","","","","","","","","","","","","","","","","","","","","","","",""
"","deliberation","","html-keyboard-response","131","7423692","0.0-76.0-1.0","0","0","6NYOK","Scenes","","866","","","68","","","","20","137","143","1","-1","100","100","olga-stalska-QaWRyEdlffY-unsplash.jpg","sigurdur-fjalar-jonsson-1KxBabIntpE-unsplash.jpg","2","1","137","143","","","","","","","","","","","","","","","","","","","","","","","","","","","",""
"","choice_confirmation","","html-keyboard-response","132","7424199","0.0-76.0-2.0-0.0","0","0","6NYOK","Scenes","","null","","","null","","","","20","137","143","","","","","","","","","","","","","","","","","","","","","","","","","","","","","","","","","","","","","",""
"","explain_trial","","survey-text","133","7437625","0.0-76.0-5.0-0.0","0","0","6NYOK","Scenes","","13424","{""Q0"":""I LOVE THE WAY LOOKING AT IT MAKES ME FEEL.""}","","","","","","20","137","143","","","","","","","","","","","{""Q0"":""I LOVE THE WAY LOOKING AT IT MAKES ME FEEL.""}","","","","","","","","","","","","","","","","","","","","","","","","","","",""
"","fixation","","html-keyboard-response","134","7438634","0.0-77.0-0.0","0","0","6NYOK","Scenes","","null","","","null","","","","","","","","","","","","","","","","","","","","","","","","","","","","","","","","","","","","","","","","","","","",""
"","deliberation","","html-keyboard-response","135","7440195","0.0-77.0-1.0","0","0","6NYOK","Scenes","","1558","","","75","","","","21","125","120","1","-1","86","98","john-lee-oMneOBYhJxY-unsplash.jpg","jarrett-kow-1ZOyYPOBn7I-unsplash.jpg","2","0","120","125","","","","","","","","","","","","","","","","","","","","","","","","","","","",""
"","choice_confirmation","","html-keyboard-response","136","7440709","0.0-77.0-2.0-0.0","0","0","6NYOK","Scenes","","null","","","null","","","","21","125","120","","","","","","","","","","","","","","","","","","","","","","","","","","","","","","","","","","","","","",""
"","explain_trial","","survey-text","137","7464822","0.0-77.0-5.0-0.0","0","0","6NYOK","Scenes","","24110","{""Q0"":""I LIKE THE WAY THE TREES AND WATER LOOKS LIKE ONE. THEY FLOW INTO EACH OTHER.""}","","","","","","21","125","120","","","","","","","","","","","{""Q0"":""I LIKE THE WAY THE TREES AND WATER LOOKS LIKE ONE. THEY FLOW INTO EACH OTHER.""}","","","","","","","","","","","","","","","","","","","","","","","","","","",""
"","fixation","","html-keyboard-response","138","7465828","0.0-78.0-0.0","0","0","6NYOK","Scenes","","null","","","null","","","","","","","","","","","","","","","","","","","","","","","","","","","","","","","","","","","","","","","","","","","",""
"","deliberation","","html-keyboard-response","139","7467550","0.0-78.0-1.0","0","0","6NYOK","Scenes","","1718","","","68","","","","22","119","134","1","1","90","100","james-wheeler-AFC0XvICMgs-unsplash.jpg","milada-vigerova-pQMM63GE7fo-unsplash.jpg","2","1","119","134","","","","","","","","","","","","","","","","","","","","","","","","","","","",""
"","choice_confirmation","","html-keyboard-response","140","7468055","0.0-78.0-2.0-0.0","0","0","6NYOK","Scenes","","null","","","null","","","","22","119","134","","","","","","","","","","","","","","","","","","","","","","","","","","","","","","","","","","","","","",""
"","explain_trial","","survey-text","141","7483512","0.0-78.0-5.0-0.0","0","0","6NYOK","Scenes","","15454","{""Q0"":""THE WAY THE COLORS DANCE ON THE WATER IS MORE INTRIGUING.""}","","","","","","22","119","134","","","","","","","","","","","{""Q0"":""THE WAY THE COLORS DANCE ON THE WATER IS MORE INTRIGUING.""}","","","","","","","","","","","","","","","","","","","","","","","","","","",""
"","fixation","","html-keyboard-response","142","7484525","0.0-79.0-0.0","0","0","6NYOK","Scenes","","null","","","null","","","","","","","","","","","","","","","","","","","","","","","","","","","","","","","","","","","","","","","","","","","",""
"","deliberation","","html-keyboard-response","143","7485863","0.0-79.0-1.0","0","0","6NYOK","Scenes","","1334","","","68","","","","23","108","127","1","1","100","100","benjamin-voros-phIFdC6lA4E-unsplash.jpg","kace-rodriguez-p3OzJuT_Dks-unsplash.jpg","2","1","108","127","","","","","","","","","","","","","","","","","","","","","","","","","","","",""
"","choice_confirmation","","html-keyboard-response","144","7486370","0.0-79.0-2.0-0.0","0","0","6NYOK","Scenes","","null","","","null","","","","23","108","127","","","","","","","","","","","","","","","","","","","","","","","","","","","","","","","","","","","","","",""
"","explain_trial","","survey-text","145","7501674","0.0-79.0-5.0-0.0","0","0","6NYOK","Scenes","","15300","{""Q0"":""IT IS MESMORIZING IT LOOKS""}","","","","","","23","108","127","","","","","","","","","","","{""Q0"":""IT IS MESMORIZING IT LOOKS""}","","","","","","","","","","","","","","","","","","","","","","","","","","",""
"","start_critical_deliberation_block","","html-keyboard-response","146","7506940","0.0-79.0-7.0-0.0","0","0","6NYOK","Scenes","","5262","","","78","","","","","","","","","","","","","","","","","","","","","","","","","","","","","","","","","","","","","","","","","","","",""
"","fixation","","html-keyboard-response","147","7507947","0.0-80.0-0.0","0","0","6NYOK","Scenes","","null","","","null","","","","","","","","","","","","","","","","","","","","","","","","","","","","","","","","","","","","","","","","","","","",""
"","deliberation","","html-keyboard-response","148","7509338","0.0-80.0-1.0","0","0","6NYOK","Scenes","","1389","","","75","","","","24","146","142","0","1","89","85","thomas-morse-cuKKa0vWZSY-unsplash.jpg","sergey-pesterev-y-b_FOmJXdg-unsplash.jpg","3","0","142","146","","","","","","","","","","","","","","","","","","","","","","","","","","","",""
"","choice_confirmation","","html-keyboard-response","149","7509844","0.0-80.0-2.0-0.0","0","0","6NYOK","Scenes","","null","","","null","","","","24","146","142","","","","","","","","","","","","","","","","","","","","","","","","","","","","","","","","","","","","","",""
"","fixation","","html-keyboard-response","150","7510855","0.0-81.0-0.0","0","0","6NYOK","Scenes","","null","","","null","","","","","","","","","","","","","","","","","","","","","","","","","","","","","","","","","","","","","","","","","","","",""
"","deliberation","","html-keyboard-response","151","7511986","0.0-81.0-1.0","0","0","6NYOK","Scenes","","1128","","","75","","","","25","102","128","0","1","100","84","anisur-rahman-K2b7UDed6uQ-unsplash.jpg","karsten-wurth-jS0zC2PJ17A-unsplash.jpg","3","0","128","102","","","","","","","","","","","","","","","","","","","","","","","","","","","",""
"","choice_confirmation","","html-keyboard-response","152","7512500","0.0-81.0-2.0-0.0","0","0","6NYOK","Scenes","","null","","","null","","","","25","102","128","","","","","","","","","","","","","","","","","","","","","","","","","","","","","","","","","","","","","",""
"","fixation","","html-keyboard-response","153","7513511","0.0-82.0-0.0","0","0","6NYOK","Scenes","","null","","","null","","","","","","","","","","","","","","","","","","","","","","","","","","","","","","","","","","","","","","","","","","","",""
"","deliberation","","html-keyboard-response","154","7514672","0.0-82.0-1.0","0","0","6NYOK","Scenes","","1159","","","75","","","","26","131","144","0","-1","100","100","luca-bravo-hFzIoD0F_i8-unsplash.jpg","solotravelgoals-7kLufxYoqWk-unsplash.jpg","3","0","144","131","","","","","","","","","","","","","","","","","","","","","","","","","","","",""
"","choice_confirmation","","html-keyboard-response","155","7515179","0.0-82.0-2.0-0.0","0","0","6NYOK","Scenes","","null","","","null","","","","26","131","144","","","","","","","","","","","","","","","","","","","","","","","","","","","","","","","","","","","","","",""
"","fixation","","html-keyboard-response","156","7516185","0.0-83.0-0.0","0","0","6NYOK","Scenes","","null","","","null","","","","","","","","","","","","","","","","","","","","","","","","","","","","","","","","","","","","","","","","","","","",""
"","deliberation","","html-keyboard-response","157","7516778","0.0-83.0-1.0","0","0","6NYOK","Scenes","","590","","","68","","","","27","119","134","0","1","90","100","james-wheeler-AFC0XvICMgs-unsplash.jpg","milada-vigerova-pQMM63GE7fo-unsplash.jpg","3","1","119","134","","","","","","","","","","","","","","","","","","","","","","","","","","","",""
"","choice_confirmation","","html-keyboard-response","158","7517289","0.0-83.0-2.0-0.0","0","0","6NYOK","Scenes","","null","","","null","","","","27","119","134","","","","","","","","","","","","","","","","","","","","","","","","","","","","","","","","","","","","","",""
"","fixation","","html-keyboard-response","159","7518303","0.0-84.0-0.0","0","0","6NYOK","Scenes","","null","","","null","","","","","","","","","","","","","","","","","","","","","","","","","","","","","","","","","","","","","","","","","","","",""
"","deliberation","","html-keyboard-response","160","7519392","0.0-84.0-1.0","0","0","6NYOK","Scenes","","1087","","","75","","","","28","121","116","0","1","84","85","jean-pierre-brungs-qxCqkbF7tUc-unsplash.jpg","david-marcu-W5MhJ6cy1So-unsplash.jpg","3","0","116","121","","","","","","","","","","","","","","","","","","","","","","","","","","","",""
"","choice_confirmation","","html-keyboard-response","161","7519905","0.0-84.0-2.0-0.0","0","0","6NYOK","Scenes","","null","","","null","","","","28","121","116","","","","","","","","","","","","","","","","","","","","","","","","","","","","","","","","","","","","","",""
"","fixation","","html-keyboard-response","162","7520916","0.0-85.0-0.0","0","0","6NYOK","Scenes","","null","","","null","","","","","","","","","","","","","","","","","","","","","","","","","","","","","","","","","","","","","","","","","","","",""
"","deliberation","","html-keyboard-response","163","7522054","0.0-85.0-1.0","0","0","6NYOK","Scenes","","1136","","","75","","","","29","124","117","0","-1","100","100","johannes-plenio-sPt5RIjKfpk-unsplash.jpg","frank-mckenna-OD9EOzfSOh0-unsplash.jpg","3","0","117","124","","","","","","","","","","","","","","","","","","","","","","","","","","","",""
"","choice_confirmation","","html-keyboard-response","164","7522560","0.0-85.0-2.0-0.0","0","0","6NYOK","Scenes","","null","","","null","","","","29","124","117","","","","","","","","","","","","","","","","","","","","","","","","","","","","","","","","","","","","","",""
"","fixation","","html-keyboard-response","165","7523569","0.0-86.0-0.0","0","0","6NYOK","Scenes","","null","","","null","","","","","","","","","","","","","","","","","","","","","","","","","","","","","","","","","","","","","","","","","","","",""
"","deliberation","","html-keyboard-response","166","7524127","0.0-86.0-1.0","0","0","6NYOK","Scenes","","552","","","68","","","","30","115","114","0","-1","100","92","darrell-cassell-hoCXpPUMCoE-unsplash.jpg","daniel-sessler-z_9VmsxR8hs-unsplash.jpg","3","1","115","114","","","","","","","","","","","","","","","","","","","","","","","","","","","",""
"","choice_confirmation","","html-keyboard-response","167","7524641","0.0-86.0-2.0-0.0","0","0","6NYOK","Scenes","","null","","","null","","","","30","115","114","","","","","","","","","","","","","","","","","","","","","","","","","","","","","","","","","","","","","",""
"","fixation","","html-keyboard-response","168","7525650","0.0-87.0-0.0","0","0","6NYOK","Scenes","","null","","","null","","","","","","","","","","","","","","","","","","","","","","","","","","","","","","","","","","","","","","","","","","","",""
"","deliberation","","html-keyboard-response","169","7526685","0.0-87.0-1.0","0","0","6NYOK","Scenes","","1032","","","75","","","","31","130","148","0","1","100","100","lina-loos-04-C1NZk1hE-unsplash.jpg","tom-gainor-ZqLeQDjY6fY-unsplash.jpg","3","0","148","130","","","","","","","","","","","","","","","","","","","","","","","","","","","",""
"","choice_confirmation","","html-keyboard-response","170","7527197","0.0-87.0-2.0-0.0","0","0","6NYOK","Scenes","","null","","","null","","","","31","130","148","","","","","","","","","","","","","","","","","","","","","","","","","","","","","","","","","","","","","",""
"","fixation","","html-keyboard-response","171","7528203","0.0-88.0-0.0","0","0","6NYOK","Scenes","","null","","","null","","","","","","","","","","","","","","","","","","","","","","","","","","","","","","","","","","","","","","","","","","","",""
"","deliberation","","html-keyboard-response","172","7529553","0.0-88.0-1.0","0","0","6NYOK","Scenes","","1347","","","68","","","","32","125","120","0","-1","86","98","john-lee-oMneOBYhJxY-unsplash.jpg","jarrett-kow-1ZOyYPOBn7I-unsplash.jpg","3","1","125","120","","","","","","","","","","","","","","","","","","","","","","","","","","","",""
"","choice_confirmation","","html-keyboard-response","173","7530066","0.0-88.0-2.0-0.0","0","0","6NYOK","Scenes","","null","","","null","","","","32","125","120","","","","","","","","","","","","","","","","","","","","","","","","","","","","","","","","","","","","","",""
"","fixation","","html-keyboard-response","174","7531072","0.0-89.0-0.0","0","0","6NYOK","Scenes","","null","","","null","","","","","","","","","","","","","","","","","","","","","","","","","","","","","","","","","","","","","","","","","","","",""
"","deliberation","","html-keyboard-response","175","7531834","0.0-89.0-1.0","0","0","6NYOK","Scenes","","757","","","68","","","","33","123","147","0","-1","100","84","joel-jasmin-forestbird-efuwb5eBDrI-unsplash.jpg","tobias-keller-73F4pKoUkM0-unsplash.jpg","3","1","123","147","","","","","","","","","","","","","","","","","","","","","","","","","","","",""
"","choice_confirmation","","html-keyboard-response","176","7532341","0.0-89.0-2.0-0.0","0","0","6NYOK","Scenes","","null","","","null","","","","33","123","147","","","","","","","","","","","","","","","","","","","","","","","","","","","","","","","","","","","","","",""
"","fixation","","html-keyboard-response","177","7533360","0.0-90.0-0.0","0","0","6NYOK","Scenes","","null","","","null","","","","","","","","","","","","","","","","","","","","","","","","","","","","","","","","","","","","","","","","","","","",""
"","deliberation","","html-keyboard-response","178","7533962","0.0-90.0-1.0","0","0","6NYOK","Scenes","","598","","","68","","","","34","108","127","0","1","100","100","benjamin-voros-phIFdC6lA4E-unsplash.jpg","kace-rodriguez-p3OzJuT_Dks-unsplash.jpg","3","1","108","127","","","","","","","","","","","","","","","","","","","","","","","","","","","",""
"","choice_confirmation","","html-keyboard-response","179","7534472","0.0-90.0-2.0-0.0","0","0","6NYOK","Scenes","","null","","","null","","","","34","108","127","","","","","","","","","","","","","","","","","","","","","","","","","","","","","","","","","","","","","",""
"","fixation","","html-keyboard-response","180","7535481","0.0-91.0-0.0","0","0","6NYOK","Scenes","","null","","","null","","","","","","","","","","","","","","","","","","","","","","","","","","","","","","","","","","","","","","","","","","","",""
"","deliberation","","html-keyboard-response","181","7536690","0.0-91.0-1.0","0","0","6NYOK","Scenes","","1204","","","75","","","","35","137","143","0","-1","100","100","olga-stalska-QaWRyEdlffY-unsplash.jpg","sigurdur-fjalar-jonsson-1KxBabIntpE-unsplash.jpg","3","0","143","137","","","","","","","","","","","","","","","","","","","","","","","","","","","",""
"","choice_confirmation","","html-keyboard-response","182","7537202","0.0-91.0-2.0-0.0","0","0","6NYOK","Scenes","","null","","","null","","","","35","137","143","","","","","","","","","","","","","","","","","","","","","","","","","","","","","","","","","","","","","",""
"","reward_learning_instructions","","instructions","183","7591304","0.0-92.0-0.0","0","0","6NYOK","Scenes","[{""page_index"":0,""viewing_time"":26109},{""page_index"":1,""viewing_time"":26423},{""page_index"":2,""viewing_time"":1568}]","54100","","","","","","","","","","","","","","","","","","","","","","","","","","","","","","","","","","","","","","","","","","","","","","",""
"","reward_comprehension_check","","survey-multi-choice","184","7602591","0.0-92.0-1.0","0","0","6NYOK","Scenes","","11281","{""Q0"":""True"",""Q1"":""True"",""Q2"":""Press the space bar to see its outcome"",""Q3"":""Press the relevant key while the outcome is presented""}","0","","","","","","","","","","","","","","","","","","","","","","","","","","","","","","","","","","","","","","","","","","","","",""
"","start_phase","","html-keyboard-response","185","7612696","0.0-93.0","0","0","6NYOK","Scenes","","10103","","","78","","","","","","","","","","","","","","","","","","","","","","","","","","","","","","","","","","","","","","","","","","","",""
"","fixation","","html-keyboard-response","186","7613714","0.0-94.0","0","0","6NYOK","Scenes","","null","","","null","","","","","","","","","","","","","","","","","","","","","","","","","","","","","","","","","","","","","","","","","","","",""
"","see_reward","","html-keyboard-response","187","7614525","0.0-95.0","0","0","6NYOK","Scenes","","807","","","32","","117","","0","","","","-1","","","","","1","","","","","0","807","","","","","","","","","","","","","","","","","","","","","","","","",""
"","reward_outcome","","html-keyboard-response","188","7616530","0.0-96.0","0","0","6NYOK","Scenes","","1436","","","40","","117","","0","","","","","","","","","","","","","","","","-1","1436","","","","","","","","","","","","","","","","","","","","","","",""
"","fixation","","html-keyboard-response","189","7617537","0.0-99.0","0","0","6NYOK","Scenes","","null","","","null","","","","","","","","","","","","","","","","","","","","","","","","","","","","","","","","","","","","","","","","","","","",""
"","see_reward","","html-keyboard-response","190","7618395","0.0-100.0","0","0","6NYOK","Scenes","","855","","","32","","148","","1","","","","1","","","","","1","","","","","150","855","","","","","","","","","","","","","","","","","","","","","","","","",""
"","reward_outcome","","html-keyboard-response","191","7620408","0.0-101.0","0","0","6NYOK","Scenes","","940","","","38","","148","","1","","","","","","","","","","","","","","","","1","940","","","","","","","","","","","","","","","","","","","","","","",""
"","fixation","","html-keyboard-response","192","7621413","0.0-104.0","0","0","6NYOK","Scenes","","null","","","null","","","","","","","","","","","","","","","","","","","","","","","","","","","","","","","","","","","","","","","","","","","",""
"","see_reward","","html-keyboard-response","193","7621971","0.0-105.0","0","0","6NYOK","Scenes","","555","","","32","","144","","2","","","","-1","","","","","1","","","","","0","555","","","","","","","","","","","","","","","","","","","","","","","","",""
"","reward_outcome","","html-keyboard-response","194","7623979","0.0-106.0","0","0","6NYOK","Scenes","","1012","","","40","","144","","2","","","","","","","","","","","","","","","","-1","1012","","","","","","","","","","","","","","","","","","","","","","",""
"","fixation","","html-keyboard-response","195","7624992","0.0-109.0","0","0","6NYOK","Scenes","","null","","","null","","","","","","","","","","","","","","","","","","","","","","","","","","","","","","","","","","","","","","","","","","","",""
"","see_reward","","html-keyboard-response","196","7625451","0.0-110.0","0","0","6NYOK","Scenes","","455","","","32","","108","","3","","","","1","","","","","1","","","","","146","455","","","","","","","","","","","","","","","","","","","","","","","","",""
"","reward_outcome","","html-keyboard-response","197","7627453","0.0-111.0","0","0","6NYOK","Scenes","","1257","","","38","","108","","3","","","","","","","","","","","","","","","","1","1257","","","","","","","","","","","","","","","","","","","","","","",""
"","fixation","","html-keyboard-response","198","7628467","0.0-114.0","0","0","6NYOK","Scenes","","null","","","null","","","","","","","","","","","","","","","","","","","","","","","","","","","","","","","","","","","","","","","","","","","",""
"","see_reward","","html-keyboard-response","199","7629105","0.0-115.0","0","0","6NYOK","Scenes","","634","","","32","","116","","4","","","","1","","","","","1","","","","","150","634","","","","","","","","","","","","","","","","","","","","","","","","",""
"","reward_outcome","","html-keyboard-response","200","7631119","0.0-116.0","0","0","6NYOK","Scenes","","1950","","","38","","116","","4","","","","","","","","","","","","","","","","1","1950","","","","","","","","","","","","","","","","","","","","","","",""
"","fixation","","html-keyboard-response","201","7632128","0.0-119.0","0","0","6NYOK","Scenes","","null","","","null","","","","","","","","","","","","","","","","","","","","","","","","","","","","","","","","","","","","","","","","","","","",""
"","see_reward","","html-keyboard-response","202","7632649","0.0-120.0","0","0","6NYOK","Scenes","","517","","","32","","119","","5","","","","1","","","","","1","","","","","153","517","","","","","","","","","","","","","","","","","","","","","","","","",""
"","reward_outcome","","html-keyboard-response","203","7634657","0.0-121.0","0","0","6NYOK","Scenes","","767","","","38","","119","","5","","","","","","","","","","","","","","","","1","767","","","","","","","","","","","","","","","","","","","","","","",""
"","fixation","","html-keyboard-response","204","7635666","0.0-124.0","0","0","6NYOK","Scenes","","null","","","null","","","","","","","","","","","","","","","","","","","","","","","","","","","","","","","","","","","","","","","","","","","",""
"","see_reward","","html-keyboard-response","205","7636335","0.0-125.0","0","0","6NYOK","Scenes","","665","","","32","","123","","6","","","","-1","","","","","1","","","","","0","665","","","","","","","","","","","","","","","","","","","","","","","","",""
"","reward_outcome","","html-keyboard-response","206","7638343","0.0-126.0","0","0","6NYOK","Scenes","","783","","","40","","123","","6","","","","","","","","","","","","","","","","-1","783","","","","","","","","","","","","","","","","","","","","","","",""
"","fixation","","html-keyboard-response","207","7639355","0.0-129.0","0","0","6NYOK","Scenes","","null","","","null","","","","","","","","","","","","","","","","","","","","","","","","","","","","","","","","","","","","","","","","","","","",""
"","see_reward","","html-keyboard-response","208","7639886","0.0-130.0","0","0","6NYOK","Scenes","","529","","","32","","142","","7","","","","1","","","","","1","","","","","144","529","","","","","","","","","","","","","","","","","","","","","","","","",""
"","reward_outcome","","html-keyboard-response","209","7641902","0.0-131.0","0","0","6NYOK","Scenes","","614","","","38","","142","","7","","","","","","","","","","","","","","","","1","614","","","","","","","","","","","","","","","","","","","","","","",""
"","fixation","","html-keyboard-response","210","7642911","0.0-134.0","0","0","6NYOK","Scenes","","null","","","null","","","","","","","","","","","","","","","","","","","","","","","","","","","","","","","","","","","","","","","","","","","",""
"","see_reward","","html-keyboard-response","211","7643589","0.0-135.0","0","0","6NYOK","Scenes","","676","","","32","","128","","8","","","","1","","","","","1","","","","","159","676","","","","","","","","","","","","","","","","","","","","","","","","",""
"","reward_outcome","","html-keyboard-response","212","7645602","0.0-136.0","0","0","6NYOK","Scenes","","1315","","","38","","128","","8","","","","","","","","","","","","","","","","1","1315","","","","","","","","","","","","","","","","","","","","","","",""
"","fixation","","html-keyboard-response","213","7646606","0.0-139.0","0","0","6NYOK","Scenes","","null","","","null","","","","","","","","","","","","","","","","","","","","","","","","","","","","","","","","","","","","","","","","","","","",""
"","see_reward","","html-keyboard-response","214","7647064","0.0-140.0","0","0","6NYOK","Scenes","","456","","","32","","142","","9","","","","1","","","","","1","","","","","144","456","","","","","","","","","","","","","","","","","","","","","","","","",""
"","reward_outcome","","html-keyboard-response","215","7649075","0.0-141.0","0","0","6NYOK","Scenes","","1200","","","38","","142","","9","","","","","","","","","","","","","","","","1","1200","","","","","","","","","","","","","","","","","","","","","","",""
"","fixation","","html-keyboard-response","216","7650077","0.0-144.0","0","0","6NYOK","Scenes","","null","","","null","","","","","","","","","","","","","","","","","","","","","","","","","","","","","","","","","","","","","","","","","","","",""
"","see_reward","","html-keyboard-response","217","7650432","0.0-145.0","0","0","6NYOK","Scenes","","352","","","32","","143","","10","","","","-1","","","","","1","","","","","0","352","","","","","","","","","","","","","","","","","","","","","","","","",""
"","reward_outcome","","html-keyboard-response","218","7652442","0.0-146.0","0","0","6NYOK","Scenes","","1351","","","40","","143","","10","","","","","","","","","","","","","","","","-1","1351","","","","","","","","","","","","","","","","","","","","","","",""
"","fixation","","html-keyboard-response","219","7653449","0.0-149.0","0","0","6NYOK","Scenes","","null","","","null","","","","","","","","","","","","","","","","","","","","","","","","","","","","","","","","","","","","","","","","","","","",""
"","see_reward","","html-keyboard-response","220","7653907","0.0-150.0","0","0","6NYOK","Scenes","","455","","","32","","148","","11","","","","1","","","","","1","","","","","150","455","","","","","","","","","","","","","","","","","","","","","","","","",""
"","reward_outcome","","html-keyboard-response","221","7655917","0.0-151.0","0","0","6NYOK","Scenes","","1498","","","38","","148","","11","","","","","","","","","","","","","","","","1","1498","","","","","","","","","","","","","","","","","","","","","","",""
"","fixation","","html-keyboard-response","222","7656930","0.0-154.0","0","0","6NYOK","Scenes","","null","","","null","","","","","","","","","","","","","","","","","","","","","","","","","","","","","","","","","","","","","","","","","","","",""
"","see_reward","","html-keyboard-response","223","7657363","0.0-155.0","0","0","6NYOK","Scenes","","431","","","32","","119","","12","","","","1","","","","","1","","","","","153","431","","","","","","","","","","","","","","","","","","","","","","","","",""
"","reward_outcome","","html-keyboard-response","224","7659376","0.0-156.0","0","0","6NYOK","Scenes","","1286","","","38","","119","","12","","","","","","","","","","","","","","","","1","1286","","","","","","","","","","","","","","","","","","","","","","",""
"","fixation","","html-keyboard-response","225","7660382","0.0-159.0","0","0","6NYOK","Scenes","","null","","","null","","","","","","","","","","","","","","","","","","","","","","","","","","","","","","","","","","","","","","","","","","","",""
"","see_reward","","html-keyboard-response","226","7660718","0.0-160.0","0","0","6NYOK","Scenes","","332","","","32","","117","","13","","","","-1","","","","","1","","","","","0","332","","","","","","","","","","","","","","","","","","","","","","","","",""
"","reward_outcome","","html-keyboard-response","227","7662734","0.0-161.0","0","0","6NYOK","Scenes","","1014","","","40","","117","","13","","","","","","","","","","","","","","","","-1","1014","","","","","","","","","","","","","","","","","","","","","","",""
"","fixation","","html-keyboard-response","228","7663737","0.0-164.0","0","0","6NYOK","Scenes","","null","","","null","","","","","","","","","","","","","","","","","","","","","","","","","","","","","","","","","","","","","","","","","","","",""
"","see_reward","","html-keyboard-response","229","7664078","0.0-165.0","0","0","6NYOK","Scenes","","339","","","32","","116","","14","","","","1","","","","","1","","","","","150","339","","","","","","","","","","","","","","","","","","","","","","","","",""
"","reward_outcome","","html-keyboard-response","230","7666081","0.0-166.0","0","0","6NYOK","Scenes","","1113","","","38","","116","","14","","","","","","","","","","","","","","","","1","1113","","","","","","","","","","","","","","","","","","","","","","",""
"","fixation","","html-keyboard-response","231","7667083","0.0-169.0","0","0","6NYOK","Scenes","","null","","","null","","","","","","","","","","","","","","","","","","","","","","","","","","","","","","","","","","","","","","","","","","","",""
"","see_reward","","html-keyboard-response","232","7667554","0.0-170.0","0","0","6NYOK","Scenes","","469","","","32","","115","","15","","","","-1","","","","","1","","","","","0","469","","","","","","","","","","","","","","","","","","","","","","","","",""
"","reward_outcome","","html-keyboard-response","233","7669563","0.0-171.0","0","0","6NYOK","Scenes","","1203","","","40","","115","","15","","","","","","","","","","","","","","","","-1","1203","","","","","","","","","","","","","","","","","","","","","","",""
"","fixation","","html-keyboard-response","234","7670575","0.0-174.0","0","0","6NYOK","Scenes","","null","","","null","","","","","","","","","","","","","","","","","","","","","","","","","","","","","","","","","","","","","","","","","","","",""
"","see_reward","","html-keyboard-response","235","7670885","0.0-175.0","0","0","6NYOK","Scenes","","307","","","32","","108","","16","","","","1","","","","","1","","","","","146","307","","","","","","","","","","","","","","","","","","","","","","","","",""
"","reward_outcome","","html-keyboard-response","236","7672896","0.0-176.0","0","0","6NYOK","Scenes","","1197","","","38","","108","","16","","","","","","","","","","","","","","","","1","1197","","","","","","","","","","","","","","","","","","","","","","",""
"","fixation","","html-keyboard-response","237","7673899","0.0-179.0","0","0","6NYOK","Scenes","","null","","","null","","","","","","","","","","","","","","","","","","","","","","","","","","","","","","","","","","","","","","","","","","","",""
"","see_reward","","html-keyboard-response","238","7674069","0.0-180.0","0","0","6NYOK","Scenes","","170","","","32","","125","","17","","","","-1","","","","","1","","","","","0","170","","","","","","","","","","","","","","","","","","","","","","","","",""
"","reward_outcome","","html-keyboard-response","239","7676080","0.0-181.0","0","0","6NYOK","Scenes","","1251","","","40","","125","","17","","","","","","","","","","","","","","","","-1","1251","","","","","","","","","","","","","","","","","","","","","","",""
"","fixation","","html-keyboard-response","240","7677087","0.0-184.0","0","0","6NYOK","Scenes","","null","","","null","","","","","","","","","","","","","","","","","","","","","","","","","","","","","","","","","","","","","","","","","","","",""
"","see_reward","","html-keyboard-response","241","7677573","0.0-185.0","0","0","6NYOK","Scenes","","484","","","32","","115","","18","","","","-1","","","","","1","","","","","0","484","","","","","","","","","","","","","","","","","","","","","","","","",""
"","reward_outcome","","html-keyboard-response","242","7679586","0.0-186.0","0","0","6NYOK","Scenes","","1404","","","40","","115","","18","","","","","","","","","","","","","","","","-1","1404","","","","","","","","","","","","","","","","","","","","","","",""
"","fixation","","html-keyboard-response","243","7680600","0.0-189.0","0","0","6NYOK","Scenes","","null","","","null","","","","","","","","","","","","","","","","","","","","","","","","","","","","","","","","","","","","","","","","","","","",""
"","see_reward","","html-keyboard-response","244","7681249","0.0-190.0","0","0","6NYOK","Scenes","","647","","","32","","128","","19","","","","1","","","","","1","","","","","159","647","","","","","","","","","","","","","","","","","","","","","","","","",""
"","reward_outcome","","html-keyboard-response","245","7683267","0.0-191.0","0","0","6NYOK","Scenes","","1018","","","38","","128","","19","","","","","","","","","","","","","","","","1","1018","","","","","","","","","","","","","","","","","","","","","","",""
"","fixation","","html-keyboard-response","246","7684279","0.0-194.0","0","0","6NYOK","Scenes","","null","","","null","","","","","","","","","","","","","","","","","","","","","","","","","","","","","","","","","","","","","","","","","","","",""
"","see_reward","","html-keyboard-response","247","7684708","0.0-195.0","0","0","6NYOK","Scenes","","427","","","32","","144","","20","","","","-1","","","","","1","","","","","0","427","","","","","","","","","","","","","","","","","","","","","","","","",""
"","reward_outcome","","html-keyboard-response","248","7686725","0.0-196.0","0","0","6NYOK","Scenes","","1258","","","40","","144","","20","","","","","","","","","","","","","","","","-1","1258","","","","","","","","","","","","","","","","","","","","","","",""
"","fixation","","html-keyboard-response","249","7687736","0.0-199.0","0","0","6NYOK","Scenes","","null","","","null","","","","","","","","","","","","","","","","","","","","","","","","","","","","","","","","","","","","","","","","","","","",""
"","see_reward","","html-keyboard-response","250","7688280","0.0-200.0","0","0","6NYOK","Scenes","","541","","","32","","143","","21","","","","-1","","","","","1","","","","","0","541","","","","","","","","","","","","","","","","","","","","","","","","",""
"","reward_outcome","","html-keyboard-response","251","7690285","0.0-201.0","0","0","6NYOK","Scenes","","1420","","","40","","143","","21","","","","","","","","","","","","","","","","-1","1420","","","","","","","","","","","","","","","","","","","","","","",""
"","fixation","","html-keyboard-response","252","7691294","0.0-204.0","0","0","6NYOK","Scenes","","null","","","null","","","","","","","","","","","","","","","","","","","","","","","","","","","","","","","","","","","","","","","","","","","",""
"","see_reward","","html-keyboard-response","253","7691826","0.0-205.0","0","0","6NYOK","Scenes","","528","","","32","","123","","22","","","","-1","","","","","1","","","","","0","528","","","","","","","","","","","","","","","","","","","","","","","","",""
"","reward_outcome","","html-keyboard-response","254","7693840","0.0-206.0","0","0","6NYOK","Scenes","","1192","","","40","","123","","22","","","","","","","","","","","","","","","","-1","1192","","","","","","","","","","","","","","","","","","","","","","",""
"","fixation","","html-keyboard-response","255","7694849","0.0-209.0","0","0","6NYOK","Scenes","","null","","","null","","","","","","","","","","","","","","","","","","","","","","","","","","","","","","","","","","","","","","","","","","","",""
"","see_reward","","html-keyboard-response","256","7695345","0.0-210.0","0","0","6NYOK","Scenes","","493","","","32","","125","","23","","","","-1","","","","","1","","","","","0","493","","","","","","","","","","","","","","","","","","","","","","","","",""
"","reward_outcome","","html-keyboard-response","257","7697351","0.0-211.0","0","0","6NYOK","Scenes","","1235","","","40","","125","","23","","","","","","","","","","","","","","","","-1","1235","","","","","","","","","","","","","","","","","","","","","","",""
"","block_over","","html-keyboard-response","258","7710989","0.0-213.0-0.0","0","0","6NYOK","Scenes","","13637","","","78","","","","","","","","","","","","","","","","","","","","","","","","","","","","","","","","","","","","","","","","","","","",""
"","fixation","","html-keyboard-response","259","7711998","0.0-214.0","0","0","6NYOK","Scenes","","null","","","null","","","","","","","","","","","","","","","","","","","","","","","","","","","","","","","","","","","","","","","","","","","",""
"","see_reward","","html-keyboard-response","260","7712454","0.0-215.0","0","0","6NYOK","Scenes","","453","","","32","","117","","24","","","","-1","","","","","2","","","","","0","453","","","","","","","","","","","","","","","","","","","","","","","","",""
"","reward_outcome","","html-keyboard-response","261","7714472","0.0-216.0","0","0","6NYOK","Scenes","","905","","","40","","117","","24","","","","","","","","","","","","","","","","-1","905","","","","","","","","","","","","","","","","","","","","","","",""
"","fixation","","html-keyboard-response","262","7715481","0.0-219.0","0","0","6NYOK","Scenes","","null","","","null","","","","","","","","","","","","","","","","","","","","","","","","","","","","","","","","","","","","","","","","","","","",""
"","see_reward","","html-keyboard-response","263","7715782","0.0-220.0","0","0","6NYOK","Scenes","","298","","","32","","123","","25","","","","-1","","","","","2","","","","","0","298","","","","","","","","","","","","","","","","","","","","","","","","",""
"","reward_outcome","","html-keyboard-response","264","7717796","0.0-221.0","0","0","6NYOK","Scenes","","1257","","","40","","123","","25","","","","","","","","","","","","","","","","-1","1257","","","","","","","","","","","","","","","","","","","","","","",""
"","fixation","","html-keyboard-response","265","7718803","0.0-224.0","0","0","6NYOK","Scenes","","null","","","null","","","","","","","","","","","","","","","","","","","","","","","","","","","","","","","","","","","","","","","","","","","",""
"","see_reward","","html-keyboard-response","266","7719113","0.0-225.0","0","0","6NYOK","Scenes","","304","","","32","","148","","26","","","","1","","","","","2","","","","","150","304","","","","","","","","","","","","","","","","","","","","","","","","",""
"","reward_outcome","","html-keyboard-response","267","7721126","0.0-226.0","0","0","6NYOK","Scenes","","903","","","38","","148","","26","","","","","","","","","","","","","","","","1","903","","","","","","","","","","","","","","","","","","","","","","",""
"","fixation","","html-keyboard-response","268","7722135","0.0-229.0","0","0","6NYOK","Scenes","","null","","","null","","","","","","","","","","","","","","","","","","","","","","","","","","","","","","","","","","","","","","","","","","","",""
"","see_reward","","html-keyboard-response","269","7722292","0.0-230.0","0","0","6NYOK","Scenes","","153","","","32","","108","","27","","","","1","","","","","2","","","","","146","153","","","","","","","","","","","","","","","","","","","","","","","","",""
"","reward_outcome","","html-keyboard-response","270","7724304","0.0-231.0","0","0","6NYOK","Scenes","","1196","","","38","","108","","27","","","","","","","","","","","","","","","","1","1196","","","","","","","","","","","","","","","","","","","","","","",""
"","fixation","","html-keyboard-response","271","7725316","0.0-234.0","0","0","6NYOK","Scenes","","null","","","null","","","","","","","","","","","","","","","","","","","","","","","","","","","","","","","","","","","","","","","","","","","",""
"","see_reward","","html-keyboard-response","272","7725830","0.0-235.0","0","0","6NYOK","Scenes","","511","","","32","","123","","28","","","","-1","","","","","2","","","","","0","511","","","","","","","","","","","","","","","","","","","","","","","","",""
"","reward_outcome","","html-keyboard-response","273","7727836","0.0-236.0","0","0","6NYOK","Scenes","","1144","","","40","","123","","28","","","","","","","","","","","","","","","","-1","1144","","","","","","","","","","","","","","","","","","","","","","",""
"","fixation","","html-keyboard-response","274","7728843","0.0-239.0","0","0","6NYOK","Scenes","","null","","","null","","","","","","","","","","","","","","","","","","","","","","","","","","","","","","","","","","","","","","","","","","","",""
"","see_reward","","html-keyboard-response","275","7729281","0.0-240.0","0","0","6NYOK","Scenes","","435","","","32","","142","","29","","","","1","","","","","2","","","","","144","435","","","","","","","","","","","","","","","","","","","","","","","","",""
"","reward_outcome","","html-keyboard-response","276","7731284","0.0-241.0","0","0","6NYOK","Scenes","","775","","","38","","142","","29","","","","","","","","","","","","","","","","1","775","","","","","","","","","","","","","","","","","","","","","","",""
"","fixation","","html-keyboard-response","277","7732292","0.0-244.0","0","0","6NYOK","Scenes","","null","","","null","","","","","","","","","","","","","","","","","","","","","","","","","","","","","","","","","","","","","","","","","","","",""
"","see_reward","","html-keyboard-response","278","7732880","0.0-245.0","0","0","6NYOK","Scenes","","583","","","32","","143","","30","","","","-1","","","","","2","","","","","0","583","","","","","","","","","","","","","","","","","","","","","","","","",""
"","reward_outcome","","html-keyboard-response","279","7734896","0.0-246.0","0","0","6NYOK","Scenes","","1287","","","40","","143","","30","","","","","","","","","","","","","","","","-1","1287","","","","","","","","","","","","","","","","","","","","","","",""
"","fixation","","html-keyboard-response","280","7735911","0.0-249.0","0","0","6NYOK","Scenes","","null","","","null","","","","","","","","","","","","","","","","","","","","","","","","","","","","","","","","","","","","","","","","","","","",""
"","see_reward","","html-keyboard-response","281","7736538","0.0-250.0","0","0","6NYOK","Scenes","","625","","","32","","144","","31","","","","-1","","","","","2","","","","","0","625","","","","","","","","","","","","","","","","","","","","","","","","",""
"","reward_outcome","","html-keyboard-response","282","7738554","0.0-251.0","0","0","6NYOK","Scenes","","1328","","","40","","144","","31","","","","","","","","","","","","","","","","-1","1328","","","","","","","","","","","","","","","","","","","","","","",""
"","fixation","","html-keyboard-response","283","7739560","0.0-254.0","0","0","6NYOK","Scenes","","null","","","null","","","","","","","","","","","","","","","","","","","","","","","","","","","","","","","","","","","","","","","","","","","",""
"","see_reward","","html-keyboard-response","284","7739975","0.0-255.0","0","0","6NYOK","Scenes","","412","","","32","","128","","32","","","","1","","","","","2","","","","","159","412","","","","","","","","","","","","","","","","","","","","","","","","",""
"","reward_outcome","","html-keyboard-response","285","7741994","0.0-256.0","0","0","6NYOK","Scenes","","506","","","38","","128","","32","","","","","","","","","","","","","","","","1","506","","","","","","","","","","","","","","","","","","","","","","",""
"","fixation","","html-keyboard-response","286","7743006","0.0-259.0","0","0","6NYOK","Scenes","","null","","","null","","","","","","","","","","","","","","","","","","","","","","","","","","","","","","","","","","","","","","","","","","","",""
"","see_reward","","html-keyboard-response","287","7743330","0.0-260.0","0","0","6NYOK","Scenes","","319","","","32","","115","","33","","","","-1","","","","","2","","","","","0","319","","","","","","","","","","","","","","","","","","","","","","","","",""
"","reward_outcome","","html-keyboard-response","288","7745345","0.0-261.0","0","0","6NYOK","Scenes","","888","","","40","","115","","33","","","","","","","","","","","","","","","","-1","888","","","","","","","","","","","","","","","","","","","","","","",""
"","fixation","","html-keyboard-response","289","7746356","0.0-264.0","0","0","6NYOK","Scenes","","null","","","null","","","","","","","","","","","","","","","","","","","","","","","","","","","","","","","","","","","","","","","","","","","",""
"","see_reward","","html-keyboard-response","290","7746616","0.0-265.0","0","0","6NYOK","Scenes","","258","","","32","","119","","34","","","","1","","","","","2","","","","","153","258","","","","","","","","","","","","","","","","","","","","","","","","",""
"","reward_outcome","","html-keyboard-response","291","7748622","0.0-266.0","0","0","6NYOK","Scenes","","1018","","","38","","119","","34","","","","","","","","","","","","","","","","1","1018","","","","","","","","","","","","","","","","","","","","","","",""
"","fixation","","html-keyboard-response","292","7749632","0.0-269.0","0","0","6NYOK","Scenes","","null","","","null","","","","","","","","","","","","","","","","","","","","","","","","","","","","","","","","","","","","","","","","","","","",""
"","see_reward","","html-keyboard-response","293","7749977","0.0-270.0","0","0","6NYOK","Scenes","","342","","","32","","128","","35","","","","1","","","","","2","","","","","159","342","","","","","","","","","","","","","","","","","","","","","","","","",""
"","reward_outcome","","html-keyboard-response","294","7751987","0.0-271.0","0","0","6NYOK","Scenes","","985","","","38","","128","","35","","","","","","","","","","","","","","","","1","985","","","","","","","","","","","","","","","","","","","","","","",""
"","fixation","","html-keyboard-response","295","7752996","0.0-274.0","0","0","6NYOK","Scenes","","null","","","null","","","","","","","","","","","","","","","","","","","","","","","","","","","","","","","","","","","","","","","","","","","",""
"","see_reward","","html-keyboard-response","296","7753129","0.0-275.0","0","0","6NYOK","Scenes","","129","","","32","","117","","36","","","","-1","","","","","2","","","","","0","129","","","","","","","","","","","","","","","","","","","","","","","","",""
"","reward_outcome","","html-keyboard-response","297","7755142","0.0-276.0","0","0","6NYOK","Scenes","","1199","","","40","","117","","36","","","","","","","","","","","","","","","","-1","1199","","","","","","","","","","","","","","","","","","","","","","",""
"","fixation","","html-keyboard-response","298","7756148","0.0-279.0","0","0","6NYOK","Scenes","","null","","","null","","","","","","","","","","","","","","","","","","","","","","","","","","","","","","","","","","","","","","","","","","","",""
"","see_reward","","html-keyboard-response","299","7756739","0.0-280.0","0","0","6NYOK","Scenes","","588","","","32","","144","","37","","","","-1","","","","","2","","","","","0","588","","","","","","","","","","","","","","","","","","","","","","","","",""
"","reward_outcome","","html-keyboard-response","300","7758756","0.0-281.0","0","0","6NYOK","Scenes","","1090","","","40","","144","","37","","","","","","","","","","","","","","","","-1","1090","","","","","","","","","","","","","","","","","","","","","","",""
"","fixation","","html-keyboard-response","301","7759770","0.0-284.0","0","0","6NYOK","Scenes","","null","","","null","","","","","","","","","","","","","","","","","","","","","","","","","","","","","","","","","","","","","","","","","","","",""
"","see_reward","","html-keyboard-response","302","7760186","0.0-285.0","0","0","6NYOK","Scenes","","412","","","32","","119","","38","","","","1","","","","","2","","","","","153","412","","","","","","","","","","","","","","","","","","","","","","","","",""
"","reward_outcome","","html-keyboard-response","303","7762204","0.0-286.0","0","0","6NYOK","Scenes","","861","","","38","","119","","38","","","","","","","","","","","","","","","","1","861","","","","","","","","","","","","","","","","","","","","","","",""
"","fixation","","html-keyboard-response","304","7763214","0.0-289.0","0","0","6NYOK","Scenes","","null","","","null","","","","","","","","","","","","","","","","","","","","","","","","","","","","","","","","","","","","","","","","","","","",""
"","see_reward","","html-keyboard-response","305","7763498","0.0-290.0","0","0","6NYOK","Scenes","","281","","","32","","116","","39","","","","1","","","","","2","","","","","150","281","","","","","","","","","","","","","","","","","","","","","","","","",""
"","reward_outcome","","html-keyboard-response","306","7765513","0.0-291.0","0","0","6NYOK","Scenes","","1180","","","38","","116","","39","","","","","","","","","","","","","","","","1","1180","","","","","","","","","","","","","","","","","","","","","","",""
"","fixation","","html-keyboard-response","307","7766518","0.0-294.0","0","0","6NYOK","Scenes","","null","","","null","","","","","","","","","","","","","","","","","","","","","","","","","","","","","","","","","","","","","","","","","","","",""
"","see_reward","","html-keyboard-response","308","7766952","0.0-295.0","0","0","6NYOK","Scenes","","430","","","32","","125","","40","","","","-1","","","","","2","","","","","0","430","","","","","","","","","","","","","","","","","","","","","","","","",""
"","reward_outcome","","html-keyboard-response","309","7768956","0.0-296.0","0","0","6NYOK","Scenes","","1093","","","40","","125","","40","","","","","","","","","","","","","","","","-1","1093","","","","","","","","","","","","","","","","","","","","","","",""
"","fixation","","html-keyboard-response","310","7769968","0.0-299.0","0","0","6NYOK","Scenes","","null","","","null","","","","","","","","","","","","","","","","","","","","","","","","","","","","","","","","","","","","","","","","","","","",""
"","see_reward","","html-keyboard-response","311","7770263","0.0-300.0","0","0","6NYOK","Scenes","","291","","","32","","148","","41","","","","1","","","","","2","","","","","150","291","","","","","","","","","","","","","","","","","","","","","","","","",""
"","reward_outcome","","html-keyboard-response","312","7772270","0.0-301.0","0","0","6NYOK","Scenes","","1380","","","38","","148","","41","","","","","","","","","","","","","","","","1","1380","","","","","","","","","","","","","","","","","","","","","","",""
"","fixation","","html-keyboard-response","313","7773274","0.0-304.0","0","0","6NYOK","Scenes","","null","","","null","","","","","","","","","","","","","","","","","","","","","","","","","","","","","","","","","","","","","","","","","","","",""
"","see_reward","","html-keyboard-response","314","7773492","0.0-305.0","0","0","6NYOK","Scenes","","216","","","32","","108","","42","","","","1","","","","","2","","","","","146","216","","","","","","","","","","","","","","","","","","","","","","","","",""
"","reward_outcome","","html-keyboard-response","315","7775494","0.0-306.0","0","0","6NYOK","Scenes","","1554","","","38","","108","","42","","","","","","","","","","","","","","","","1","1554","","","","","","","","","","","","","","","","","","","","","","",""
"","fixation","","html-keyboard-response","316","7776501","0.0-309.0","0","0","6NYOK","Scenes","","null","","","null","","","","","","","","","","","","","","","","","","","","","","","","","","","","","","","","","","","","","","","","","","","",""
"","see_reward","","html-keyboard-response","317","7776996","0.0-310.0","0","0","6NYOK","Scenes","","494","","","32","","125","","43","","","","-1","","","","","2","","","","","0","494","","","","","","","","","","","","","","","","","","","","","","","","",""
"","reward_outcome","","html-keyboard-response","318","7779013","0.0-311.0","0","0","6NYOK","Scenes","","1100","","","40","","125","","43","","","","","","","","","","","","","","","","-1","1100","","","","","","","","","","","","","","","","","","","","","","",""
"","fixation","","html-keyboard-response","319","7780020","0.0-314.0","0","0","6NYOK","Scenes","","null","","","null","","","","","","","","","","","","","","","","","","","","","","","","","","","","","","","","","","","","","","","","","","","",""
"","see_reward","","html-keyboard-response","320","7780857","0.0-315.0","0","0","6NYOK","Scenes","","834","","","32","","142","","44","","","","1","","","","","2","","","","","144","834","","","","","","","","","","","","","","","","","","","","","","","","",""
"","reward_outcome","","html-keyboard-response","321","7782866","0.0-316.0","0","0","6NYOK","Scenes","","1277","","","38","","142","","44","","","","","","","","","","","","","","","","1","1277","","","","","","","","","","","","","","","","","","","","","","",""
"","fixation","","html-keyboard-response","322","7783877","0.0-319.0","0","0","6NYOK","Scenes","","null","","","null","","","","","","","","","","","","","","","","","","","","","","","","","","","","","","","","","","","","","","","","","","","",""
"","see_reward","","html-keyboard-response","323","7784155","0.0-320.0","0","0","6NYOK","Scenes","","274","","","32","","143","","45","","","","-1","","","","","2","","","","","0","274","","","","","","","","","","","","","","","","","","","","","","","","",""
"","reward_outcome","","html-keyboard-response","324","7786163","0.0-321.0","0","0","6NYOK","Scenes","","648","","","40","","143","","45","","","","","","","","","","","","","","","","-1","648","","","","","","","","","","","","","","","","","","","","","","",""
"","fixation","","html-keyboard-response","325","7787171","0.0-324.0","0","0","6NYOK","Scenes","","null","","","null","","","","","","","","","","","","","","","","","","","","","","","","","","","","","","","","","","","","","","","","","","","",""
"","see_reward","","html-keyboard-response","326","7787561","0.0-325.0","0","0","6NYOK","Scenes","","388","","","32","","115","","46","","","","-1","","","","","2","","","","","0","388","","","","","","","","","","","","","","","","","","","","","","","","",""
"","reward_outcome","","html-keyboard-response","327","7789572","0.0-326.0","0","0","6NYOK","Scenes","","1354","","","40","","115","","46","","","","","","","","","","","","","","","","-1","1354","","","","","","","","","","","","","","","","","","","","","","",""
"","fixation","","html-keyboard-response","328","7790582","0.0-329.0","0","0","6NYOK","Scenes","","null","","","null","","","","","","","","","","","","","","","","","","","","","","","","","","","","","","","","","","","","","","","","","","","",""
"","see_reward","","html-keyboard-response","329","7791249","0.0-330.0","0","0","6NYOK","Scenes","","665","","","32","","116","","47","","","","1","","","","","2","","","","","150","665","","","","","","","","","","","","","","","","","","","","","","","","",""
"","reward_outcome","","html-keyboard-response","330","7793267","0.0-331.0","0","0","6NYOK","Scenes","","1475","","","38","","116","","47","","","","","","","","","","","","","","","","1","1475","","","","","","","","","","","","","","","","","","","","","","",""
"","block_over","","html-keyboard-response","331","7800399","0.0-333.0-0.0","0","0","6NYOK","Scenes","","7130","","","78","","","","","","","","","","","","","","","","","","","","","","","","","","","","","","","","","","","","","","","","","","","",""
"","fixation","","html-keyboard-response","332","7801414","0.0-334.0","0","0","6NYOK","Scenes","","null","","","null","","","","","","","","","","","","","","","","","","","","","","","","","","","","","","","","","","","","","","","","","","","",""
"","see_reward","","html-keyboard-response","333","7801854","0.0-335.0","0","0","6NYOK","Scenes","","437","","","32","","143","","48","","","","-1","","","","","3","","","","","0","437","","","","","","","","","","","","","","","","","","","","","","","","",""
"","reward_outcome","","html-keyboard-response","334","7803865","0.0-336.0","0","0","6NYOK","Scenes","","909","","","40","","143","","48","","","","","","","","","","","","","","","","-1","909","","","","","","","","","","","","","","","","","","","","","","",""
"","fixation","","html-keyboard-response","335","7804871","0.0-339.0","0","0","6NYOK","Scenes","","null","","","null","","","","","","","","","","","","","","","","","","","","","","","","","","","","","","","","","","","","","","","","","","","",""
"","see_reward","","html-keyboard-response","336","7805237","0.0-340.0","0","0","6NYOK","Scenes","","363","","","32","","144","","49","","","","-1","","","","","3","","","","","0","363","","","","","","","","","","","","","","","","","","","","","","","","",""
"","reward_outcome","","html-keyboard-response","337","7807247","0.0-341.0","0","0","6NYOK","Scenes","","471","","","40","","144","","49","","","","","","","","","","","","","","","","-1","471","","","","","","","","","","","","","","","","","","","","","","",""
"","fixation","","html-keyboard-response","338","7808253","0.0-344.0","0","0","6NYOK","Scenes","","null","","","null","","","","","","","","","","","","","","","","","","","","","","","","","","","","","","","","","","","","","","","","","","","",""
"","see_reward","","html-keyboard-response","339","7808557","0.0-345.0","0","0","6NYOK","Scenes","","299","","","32","","142","","50","","","","1","","","","","3","","","","","144","299","","","","","","","","","","","","","","","","","","","","","","","","",""
"","reward_outcome","","html-keyboard-response","340","7810568","0.0-346.0","0","0","6NYOK","Scenes","","852","","","38","","142","","50","","","","","","","","","","","","","","","","1","852","","","","","","","","","","","","","","","","","","","","","","",""
"","fixation","","html-keyboard-response","341","7811572","0.0-349.0","0","0","6NYOK","Scenes","","null","","","null","","","","","","","","","","","","","","","","","","","","","","","","","","","","","","","","","","","","","","","","","","","",""
"","see_reward","","html-keyboard-response","342","7811827","0.0-350.0","0","0","6NYOK","Scenes","","253","","","32","","142","","51","","","","1","","","","","3","","","","","144","253","","","","","","","","","","","","","","","","","","","","","","","","",""
"","reward_outcome","","html-keyboard-response","343","7813845","0.0-351.0","0","0","6NYOK","Scenes","","1030","","","38","","142","","51","","","","","","","","","","","","","","","","1","1030","","","","","","","","","","","","","","","","","","","","","","",""
"","fixation","","html-keyboard-response","344","7814861","0.0-354.0","0","0","6NYOK","Scenes","","null","","","null","","","","","","","","","","","","","","","","","","","","","","","","","","","","","","","","","","","","","","","","","","","",""
"","see_reward","","html-keyboard-response","345","7815136","0.0-355.0","0","0","6NYOK","Scenes","","271","","","32","","123","","52","","","","-1","","","","","3","","","","","0","271","","","","","","","","","","","","","","","","","","","","","","","","",""
"","reward_outcome","","html-keyboard-response","346","7817143","0.0-356.0","0","0","6NYOK","Scenes","","1188","","","40","","123","","52","","","","","","","","","","","","","","","","-1","1188","","","","","","","","","","","","","","","","","","","","","","",""
"","fixation","","html-keyboard-response","347","7818150","0.0-359.0","0","0","6NYOK","Scenes","","null","","","null","","","","","","","","","","","","","","","","","","","","","","","","","","","","","","","","","","","","","","","","","","","",""
"","see_reward","","html-keyboard-response","348","7818315","0.0-360.0","0","0","6NYOK","Scenes","","161","","","32","","108","","53","","","","1","","","","","3","","","","","146","161","","","","","","","","","","","","","","","","","","","","","","","","",""
"","reward_outcome","","html-keyboard-response","349","7820324","0.0-361.0","0","0","6NYOK","Scenes","","868","","","38","","108","","53","","","","","","","","","","","","","","","","1","868","","","","","","","","","","","","","","","","","","","","","","",""
