"success","ttype","start_time","trial_type","trial_index","time_elapsed","internal_node_id","warning","missed_checkup","PID","stim_type","view_history","rt","responses","repeat_instructions","key_press","response","stimulus_id","painting","index","stimulus_left","stimulus_right","explain_trial","reward_type","rating_left","rating_right","painting_left","painting_right","block","left_chosen","chosen_obj","unchosen_obj","explain_response","reward_amount","see_reward_rt","register_reward_response","register_reward_rt","deliberation_reward_tally","stimulus_left_deliberation_ind","stimulus_right_deliberation_ind","chosen_trial","gain_left","higher_outcome_chosen","old_pair","chosen_object","rt_pairs","left_object_chosen","rt_object","old_response","new_rating","deliberated_stim","initial_rating","outcome_eval_rt","outcome_eval_response","outcome_eval_gain","outcome_eval_acc","preamble","outcome_eval_confidence","outcome_eval_confidence_rt","total_reward_tally"
"true","full_screen","d01192023hr2338","fullscreen","0","10655","0.0-0.0","0","0","taNWE","Scenes","","","","","","","","","","","","","","","","","","","","","","","","","","","","","","","","","","","","","","","","","","","","","","","","",""
"","rating_instructions","","instructions","1","26581","0.0-1.0-0.0","0","0","taNWE","Scenes","[{""page_index"":0,""viewing_time"":14100},{""page_index"":1,""viewing_time"":1824}]","15924","","","","","","","","","","","","","","","","","","","","","","","","","","","","","","","","","","","","","","","","","","","","","","",""
"","rating_comprehension_check","","survey-multi-choice","2","31733","0.0-1.0-1.0","0","0","taNWE","Scenes","","5151","{""Q0"":"""",""Q1"":""Mouse""}","1","","","","","","","","","","","","","","","","","","","","","","","","","","","","","","","","","","","","","","","","","","","","",""
"","missed_instruction_checkup","","html-keyboard-response","3","35024","0.0-1.0-2.0-0.0","0","1","taNWE","Scenes","","3287","","","78","","","","","","","","","","","","","","","","","","","","","","","","","","","","","","","","","","","","","","","","","","","",""
"","rating_instructions","","instructions","4","40077","0.0-1.1-0.1","0","0","taNWE","Scenes","[{""page_index"":0,""viewing_time"":3836},{""page_index"":1,""viewing_time"":1216}]","5052","","","","","","","","","","","","","","","","","","","","","","","","","","","","","","","","","","","","","","","","","","","","","","",""
"","rating_comprehension_check","","survey-multi-choice","5","44845","0.0-1.1-1.1","0","0","taNWE","Scenes","","4766","{""Q0"":""True"",""Q1"":""Mouse""}","0","","","","","","","","","","","","","","","","","","","","","","","","","","","","","","","","","","","","","","","","","","","","",""
"","start_phase","","html-keyboard-response","6","47118","0.0-2.0","0","0","taNWE","Scenes","","2270","","","78","","","","","","","","","","","","","","","","","","","","","","","","","","","","","","","","","","","","","","","","","","","",""
"","rating","","html-slider-response","7","52429","0.0-3.0","0","0","taNWE","Scenes","","5309","","","","61","102","anisur-rahman-K2b7UDed6uQ-unsplash.jpg","0","","","","","","","","","","","","","","","","","","","","","","","","","","","","","","","","","","","","","","","",""
"","rating","","html-slider-response","8","55382","0.0-4.0","0","0","taNWE","Scenes","","2951","","","","50","115","darrell-cassell-hoCXpPUMCoE-unsplash.jpg","1","","","","","","","","","","","","","","","","","","","","","","","","","","","","","","","","","","","","","","","",""
"","rating","","html-slider-response","9","59165","0.0-5.0","0","0","taNWE","Scenes","","3782","","","","94","135","mohammad-alizade-4wzRuAb-KWs-unsplash.jpg","2","","","","","","","","","","","","","","","","","","","","","","","","","","","","","","","","","","","","","","","",""
"","rating","","html-slider-response","10","64717","0.0-6.0","0","0","taNWE","Scenes","","5550","","","","22","110","bruno-van-der-kraan-qez8mNJ3ilU-unsplash.jpg","3","","","","","","","","","","","","","","","","","","","","","","","","","","","","","","","","","","","","","","","",""
"","rating","","html-slider-response","11","67517","0.0-7.0","0","0","taNWE","Scenes","","2798","","","","4","149","yuriy-bogdanov-W51VK3Obcj0-unsplash.jpg","4","","","","","","","","","","","","","","","","","","","","","","","","","","","","","","","","","","","","","","","",""
"","rating","","html-slider-response","12","72101","0.0-8.0","0","0","taNWE","Scenes","","4583","","","","95","108","benjamin-voros-phIFdC6lA4E-unsplash.jpg","5","","","","","","","","","","","","","","","","","","","","","","","","","","","","","","","","","","","","","","","",""
"","rating","","html-slider-response","13","75077","0.0-9.0","0","0","taNWE","Scenes","","2974","","","","100","131","luca-bravo-hFzIoD0F_i8-unsplash.jpg","6","","","","","","","","","","","","","","","","","","","","","","","","","","","","","","","","","","","","","","","",""
"","rating","","html-slider-response","14","78141","0.0-10.0","0","0","taNWE","Scenes","","3062","","","","92","129","kurt-cotoaga-cqbLg3lZEpk-unsplash.jpg","7","","","","","","","","","","","","","","","","","","","","","","","","","","","","","","","","","","","","","","","",""
"","rating","","html-slider-response","15","81661","0.0-11.0","0","0","taNWE","Scenes","","3518","","","","74","130","lina-loos-04-C1NZk1hE-unsplash.jpg","8","","","","","","","","","","","","","","","","","","","","","","","","","","","","","","","","","","","","","","","",""
"","rating","","html-slider-response","16","86701","0.0-12.0","0","0","taNWE","Scenes","","5038","","","","100","112","cosmic-timetraveler-pYyOZ8q7AII-unsplash.jpg","9","","","","","","","","","","","","","","","","","","","","","","","","","","","","","","","","","","","","","","","",""
"","rating","","html-slider-response","17","90141","0.0-13.0","0","0","taNWE","Scenes","","3438","","","","96","126","jordan-mcqueen-PJCZOWuOxbU-unsplash.jpg","10","","","","","","","","","","","","","","","","","","","","","","","","","","","","","","","","","","","","","","","",""
"","rating","","html-slider-response","18","92637","0.0-14.0","0","0","taNWE","Scenes","","2494","","","","94","144","solotravelgoals-7kLufxYoqWk-unsplash.jpg","11","","","","","","","","","","","","","","","","","","","","","","","","","","","","","","","","","","","","","","","",""
"","rating","","html-slider-response","19","95325","0.0-15.0","0","0","taNWE","Scenes","","2686","","","","56","136","nicolas-jehly-LzVB84KkZOE-unsplash.jpg","12","","","","","","","","","","","","","","","","","","","","","","","","","","","","","","","","","","","","","","","",""
"","rating","","html-slider-response","20","98085","0.0-16.0","0","0","taNWE","Scenes","","2758","","","","55","132","meng-ji-8BH_M-53CyA-unsplash.jpg","13","","","","","","","","","","","","","","","","","","","","","","","","","","","","","","","","","","","","","","","",""
"","rating","","html-slider-response","21","101349","0.0-17.0","0","0","taNWE","Scenes","","3262","","","","50","145","stephen-leonardi-gyIRjKPXupE-unsplash.jpg","14","","","","","","","","","","","","","","","","","","","","","","","","","","","","","","","","","","","","","","","",""
"","rating","","html-slider-response","22","103429","0.0-18.0","0","0","taNWE","Scenes","","2078","","","","50","109","brigitta-schneiter-hXXRLtTxXCU-unsplash.jpg","15","","","","","","","","","","","","","","","","","","","","","","","","","","","","","","","","","","","","","","","",""
"","rating","","html-slider-response","23","106789","0.0-19.0","0","0","taNWE","Scenes","","3358","","","","43","138","petr-vysohlid-9fqwGqGLUxc-unsplash.jpg","16","","","","","","","","","","","","","","","","","","","","","","","","","","","","","","","","","","","","","","","",""
"","rating","","html-slider-response","24","109845","0.0-20.0","0","0","taNWE","Scenes","","3055","","","","73","147","tobias-keller-73F4pKoUkM0-unsplash.jpg","17","","","","","","","","","","","","","","","","","","","","","","","","","","","","","","","","","","","","","","","",""
"","rating","","html-slider-response","25","113356","0.0-21.0","0","0","taNWE","Scenes","","3510","","","","64","113","damian-denis-D8R_txR_0PE-unsplash.jpg","18","","","","","","","","","","","","","","","","","","","","","","","","","","","","","","","","","","","","","","","",""
"","rating","","html-slider-response","26","116556","0.0-22.0","0","0","taNWE","Scenes","","3199","","","","54","121","jean-pierre-brungs-qxCqkbF7tUc-unsplash.jpg","19","","","","","","","","","","","","","","","","","","","","","","","","","","","","","","","","","","","","","","","",""
"","rating","","html-slider-response","27","119940","0.0-23.0","0","0","taNWE","Scenes","","3383","","","","83","116","david-marcu-W5MhJ6cy1So-unsplash.jpg","20","","","","","","","","","","","","","","","","","","","","","","","","","","","","","","","","","","","","","","","",""
"","rating","","html-slider-response","28","122740","0.0-24.0","0","0","taNWE","Scenes","","2799","","","","59","118","henry-be-NLF6hTe4PAg-unsplash.jpg","21","","","","","","","","","","","","","","","","","","","","","","","","","","","","","","","","","","","","","","","",""
"","rating","","html-slider-response","29","126588","0.0-25.0","0","0","taNWE","Scenes","","3847","","","","68","104","artem-sapegin-XGDBdSQ70O0-unsplash.jpg","22","","","","","","","","","","","","","","","","","","","","","","","","","","","","","","","","","","","","","","","",""
"","rating","","html-slider-response","30","129668","0.0-26.0","0","0","taNWE","Scenes","","3079","","","","75","119","james-wheeler-AFC0XvICMgs-unsplash.jpg","23","","","","","","","","","","","","","","","","","","","","","","","","","","","","","","","","","","","","","","","",""
"","rating","","html-slider-response","31","133388","0.0-27.0","0","0","taNWE","Scenes","","3719","","","","88","141","sebastian-unrau-v4e3JI7DDHI-unsplash.jpg","24","","","","","","","","","","","","","","","","","","","","","","","","","","","","","","","","","","","","","","","",""
"","rating","","html-slider-response","32","136429","0.0-28.0","0","0","taNWE","Scenes","","3039","","","","100","106","ashim-d-silva-WeYamle9fDM-unsplash.jpg","25","","","","","","","","","","","","","","","","","","","","","","","","","","","","","","","","","","","","","","","",""
"","rating","","html-slider-response","33","139412","0.0-29.0","0","0","taNWE","Scenes","","2983","","","","60","124","johannes-plenio-sPt5RIjKfpk-unsplash.jpg","26","","","","","","","","","","","","","","","","","","","","","","","","","","","","","","","","","","","","","","","",""
"","rating","","html-slider-response","34","142869","0.0-30.0","0","0","taNWE","Scenes","","3455","","","","39","133","mickey-o-neil-xL66l--msXU-unsplash.jpg","27","","","","","","","","","","","","","","","","","","","","","","","","","","","","","","","","","","","","","","","",""
"","rating","","html-slider-response","35","145732","0.0-31.0","0","0","taNWE","Scenes","","2862","","","","71","143","sigurdur-fjalar-jonsson-1KxBabIntpE-unsplash.jpg","28","","","","","","","","","","","","","","","","","","","","","","","","","","","","","","","","","","","","","","","",""
"","rating","","html-slider-response","36","149492","0.0-32.0","0","0","taNWE","Scenes","","3759","","","","79","105","ashim-d-silva-S2Q5mdOrrVc-unsplash.jpg","29","","","","","","","","","","","","","","","","","","","","","","","","","","","","","","","","","","","","","","","",""
"","rating","","html-slider-response","37","152157","0.0-33.0","0","0","taNWE","Scenes","","2663","","","","79","137","olga-stalska-QaWRyEdlffY-unsplash.jpg","30","","","","","","","","","","","","","","","","","","","","","","","","","","","","","","","","","","","","","","","",""
"","rating","","html-slider-response","38","156028","0.0-34.0","0","0","taNWE","Scenes","","3871","","","","52","114","daniel-sessler-z_9VmsxR8hs-unsplash.jpg","31","","","","","","","","","","","","","","","","","","","","","","","","","","","","","","","","","","","","","","","",""
"","rating","","html-slider-response","39","159468","0.0-35.0","0","0","taNWE","Scenes","","3439","","","","21","100","aleksandra-boguslawska-MS7KD9Ti7FQ-unsplash.jpg","32","","","","","","","","","","","","","","","","","","","","","","","","","","","","","","","","","","","","","","","",""
"","rating","","html-slider-response","40","162188","0.0-36.0","0","0","taNWE","Scenes","","2719","","","","36","117","frank-mckenna-OD9EOzfSOh0-unsplash.jpg","33","","","","","","","","","","","","","","","","","","","","","","","","","","","","","","","","","","","","","","","",""
"","rating","","html-slider-response","41","165197","0.0-37.0","0","0","taNWE","Scenes","","3007","","","","56","127","kace-rodriguez-p3OzJuT_Dks-unsplash.jpg","34","","","","","","","","","","","","","","","","","","","","","","","","","","","","","","","","","","","","","","","",""
"","rating","","html-slider-response","42","168757","0.0-38.0","0","0","taNWE","Scenes","","3559","","","","60","128","karsten-wurth-jS0zC2PJ17A-unsplash.jpg","35","","","","","","","","","","","","","","","","","","","","","","","","","","","","","","","","","","","","","","","",""
"","rating","","html-slider-response","43","172452","0.0-39.0","0","0","taNWE","Scenes","","3695","","","","81","140","samuele-errico-piccarini-JEBqFu2AOOA-unsplash.jpg","36","","","","","","","","","","","","","","","","","","","","","","","","","","","","","","","","","","","","","","","",""
"","rating","","html-slider-response","44","175492","0.0-40.0","0","0","taNWE","Scenes","","3038","","","","75","101","aniket-deole-T-tOgjWZ0fQ-unsplash.jpg","37","","","","","","","","","","","","","","","","","","","","","","","","","","","","","","","","","","","","","","","",""
"","rating","","html-slider-response","45","178252","0.0-41.0","0","0","taNWE","Scenes","","2759","","","","81","134","milada-vigerova-pQMM63GE7fo-unsplash.jpg","38","","","","","","","","","","","","","","","","","","","","","","","","","","","","","","","","","","","","","","","",""
"","rating","","html-slider-response","46","181476","0.0-42.0","0","0","taNWE","Scenes","","3222","","","","99","142","sergey-pesterev-y-b_FOmJXdg-unsplash.jpg","39","","","","","","","","","","","","","","","","","","","","","","","","","","","","","","","","","","","","","","","",""
"","rating","","html-slider-response","47","184308","0.0-43.0","0","0","taNWE","Scenes","","2830","","","","83","120","jarrett-kow-1ZOyYPOBn7I-unsplash.jpg","40","","","","","","","","","","","","","","","","","","","","","","","","","","","","","","","","","","","","","","","",""
"","rating","","html-slider-response","48","188004","0.0-44.0","0","0","taNWE","Scenes","","3695","","","","100","125","john-lee-oMneOBYhJxY-unsplash.jpg","41","","","","","","","","","","","","","","","","","","","","","","","","","","","","","","","","","","","","","","","",""
"","rating","","html-slider-response","49","190508","0.0-45.0","0","0","taNWE","Scenes","","2502","","","","94","148","tom-gainor-ZqLeQDjY6fY-unsplash.jpg","42","","","","","","","","","","","","","","","","","","","","","","","","","","","","","","","","","","","","","","","",""
"","rating","","html-slider-response","50","193508","0.0-46.0","0","0","taNWE","Scenes","","2998","","","","62","122","jeff-king-bJHWJeiHfHc-unsplash.jpg","43","","","","","","","","","","","","","","","","","","","","","","","","","","","","","","","","","","","","","","","",""
"","rating","","html-slider-response","51","196044","0.0-47.0","0","0","taNWE","Scenes","","2535","","","","81","146","thomas-morse-cuKKa0vWZSY-unsplash.jpg","44","","","","","","","","","","","","","","","","","","","","","","","","","","","","","","","","","","","","","","","",""
"","rating","","html-slider-response","52","200092","0.0-48.0","0","0","taNWE","Scenes","","4046","","","","55","139","samsommer-vddccTqwal8-unsplash.jpg","45","","","","","","","","","","","","","","","","","","","","","","","","","","","","","","","","","","","","","","","",""
"","rating","","html-slider-response","53","203900","0.0-49.0","0","0","taNWE","Scenes","","3807","","","","57","111","claudio-testa-U3F2o6vz3bs-unsplash.jpg","46","","","","","","","","","","","","","","","","","","","","","","","","","","","","","","","","","","","","","","","",""
"","rating","","html-slider-response","54","207020","0.0-50.0","0","0","taNWE","Scenes","","3119","","","","92","123","joel-jasmin-forestbird-efuwb5eBDrI-unsplash.jpg","47","","","","","","","","","","","","","","","","","","","","","","","","","","","","","","","","","","","","","","","",""
"","rating","","html-slider-response","55","210620","0.0-51.0","0","0","taNWE","Scenes","","3598","","","","46","103","anton-darius-FBJugtbHsWU-unsplash.jpg","48","","","","","","","","","","","","","","","","","","","","","","","","","","","","","","","","","","","","","","","",""
"","rating","","html-slider-response","56","214100","0.0-52.0","0","0","taNWE","Scenes","","3478","","","","56","107","benjamin-davies-Zm2n2O7Fph4-unsplash.jpg","49","","","","","","","","","","","","","","","","","","","","","","","","","","","","","","","","","","","","","","","",""
"","deliberation_instructions","","instructions","57","276868","0.0-53.0-0.0","0","0","taNWE","Scenes","[{""page_index"":0,""viewing_time"":12486},{""page_index"":1,""viewing_time"":15375},{""page_index"":2,""viewing_time"":15489},{""page_index"":3,""viewing_time"":17759},{""page_index"":4,""viewing_time"":1656}]","62766","","","","","","","","","","","","","","","","","","","","","","","","","","","","","","","","","","","","","","","","","","","","","","",""
"","deliberation_comprehension_check","","survey-multi-choice","58","294765","0.0-53.0-1.0","0","0","taNWE","Scenes","","17892","{""Q0"":""True"",""Q1"":""True"",""Q2"":""Consider carefully and take your time (up to 10 seconds)"",""Q3"":""True"",""Q4"":""D""}","0","","","","","","","","","","","","","","","","","","","","","","","","","","","","","","","","","","","","","","","","","","","","",""
"","start_phase","","html-keyboard-response","59","297726","0.0-54.0","0","0","taNWE","Scenes","","2959","","","78","","","","","","","","","","","","","","","","","","","","","","","","","","","","","","","","","","","","","","","","","","","",""
"","first_deliberation_block","","html-keyboard-response","60","300350","0.0-55.0","0","0","taNWE","Scenes","","2622","","","78","","","","","","","","","","","","","","","","","","","","","","","","","","","","","","","","","","","","","","","","","","","",""
"","fixation","","html-keyboard-response","61","301370","0.0-56.0-0.0","0","0","taNWE","Scenes","","null","","","null","","","","","","","","","","","","","","","","","","","","","","","","","","","","","","","","","","","","","","","","","","","",""
"","deliberation","","html-keyboard-response","62","303374","0.0-56.0-1.0","0","0","taNWE","Scenes","","2002","","","68","","","","0","146","107","0","-1","81","56","thomas-morse-cuKKa0vWZSY-unsplash.jpg","benjamin-davies-Zm2n2O7Fph4-unsplash.jpg","1","1","146","107","","","","","","","","","","","","","","","","","","","","","","","","","","","",""
"","choice_confirmation","","html-keyboard-response","63","303890","0.0-56.0-2.0-0.0","0","0","taNWE","Scenes","","null","","","null","","","","0","146","107","","","","","","","","","","","","","","","","","","","","","","","","","","","","","","","","","","","","","",""
"","fixation","","html-keyboard-response","64","304904","0.0-57.0-0.0","0","0","taNWE","Scenes","","null","","","null","","","","","","","","","","","","","","","","","","","","","","","","","","","","","","","","","","","","","","","","","","","",""
"","deliberation","","html-keyboard-response","65","307374","0.0-57.0-1.0","0","0","taNWE","Scenes","","2469","","","68","","","","1","127","124","1","-1","56","60","kace-rodriguez-p3OzJuT_Dks-unsplash.jpg","johannes-plenio-sPt5RIjKfpk-unsplash.jpg","1","1","127","124","","","","","","","","","","","","","","","","","","","","","","","","","","","",""
"","choice_confirmation","","html-keyboard-response","66","307880","0.0-57.0-2.0-0.0","0","0","taNWE","Scenes","","null","","","null","","","","1","127","124","","","","","","","","","","","","","","","","","","","","","","","","","","","","","","","","","","","","","",""
"","explain_trial","","survey-text","67","347069","0.0-57.0-5.0-0.0","0","0","taNWE","Scenes","","39187","{""Q0"":""It is more emotional and compelling than the other. I think more people would relate. Most people love water and rock structures.""}","","","","","","1","127","124","","","","","","","","","","","{""Q0"":""It is more emotional and compelling than the other. I think more people would relate. Most people love water and rock structures.""}","","","","","","","","","","","","","","","","","","","","","","","","","","",""
"","fixation","","html-keyboard-response","68","348076","0.0-58.0-0.0","0","0","taNWE","Scenes","","null","","","null","","","","","","","","","","","","","","","","","","","","","","","","","","","","","","","","","","","","","","","","","","","",""
"","deliberation","","html-keyboard-response","69","350222","0.0-58.0-1.0","0","0","taNWE","Scenes","","2145","","","68","","","","2","119","143","1","1","75","71","james-wheeler-AFC0XvICMgs-unsplash.jpg","sigurdur-fjalar-jonsson-1KxBabIntpE-unsplash.jpg","1","1","119","143","","","","","","","","","","","","","","","","","","","","","","","","","","","",""
"","choice_confirmation","","html-keyboard-response","70","350728","0.0-58.0-2.0-0.0","0","0","taNWE","Scenes","","null","","","null","","","","2","119","143","","","","","","","","","","","","","","","","","","","","","","","","","","","","","","","","","","","","","",""
"","explain_trial","","survey-text","71","377597","0.0-58.0-5.0-0.0","0","0","taNWE","Scenes","","26868","{""Q0"":""The colors are more vivid and engaging. It is a peaceful photograph that instills peace.""}","","","","","","2","119","143","","","","","","","","","","","{""Q0"":""The colors are more vivid and engaging. It is a peaceful photograph that instills peace.""}","","","","","","","","","","","","","","","","","","","","","","","","","","",""
"","fixation","","html-keyboard-response","72","378604","0.0-59.0-0.0","0","0","taNWE","Scenes","","null","","","null","","","","","","","","","","","","","","","","","","","","","","","","","","","","","","","","","","","","","","","","","","","",""
"","deliberation","","html-keyboard-response","73","380046","0.0-59.0-1.0","0","0","taNWE","Scenes","","1440","","","68","","","","3","120","102","0","-1","83","61","jarrett-kow-1ZOyYPOBn7I-unsplash.jpg","anisur-rahman-K2b7UDed6uQ-unsplash.jpg","1","1","120","102","","","","","","","","","","","","","","","","","","","","","","","","","","","",""
"","choice_confirmation","","html-keyboard-response","74","380548","0.0-59.0-2.0-0.0","0","0","taNWE","Scenes","","null","","","null","","","","3","120","102","","","","","","","","","","","","","","","","","","","","","","","","","","","","","","","","","","","","","",""
"","fixation","","html-keyboard-response","75","381561","0.0-60.0-0.0","0","0","taNWE","Scenes","","null","","","null","","","","","","","","","","","","","","","","","","","","","","","","","","","","","","","","","","","","","","","","","","","",""
"","deliberation","","html-keyboard-response","76","384510","0.0-60.0-1.0","0","0","taNWE","Scenes","","2947","","","68","","","","4","136","113","1","-1","56","64","nicolas-jehly-LzVB84KkZOE-unsplash.jpg","damian-denis-D8R_txR_0PE-unsplash.jpg","1","1","136","113","","","","","","","","","","","","","","","","","","","","","","","","","","","",""
"","choice_confirmation","","html-keyboard-response","77","385013","0.0-60.0-2.0-0.0","0","0","taNWE","Scenes","","null","","","null","","","","4","136","113","","","","","","","","","","","","","","","","","","","","","","","","","","","","","","","","","","","","","",""
"","explain_trial","","survey-text","78","405532","0.0-60.0-5.0-0.0","0","0","taNWE","Scenes","","20518","{""Q0"":""The color saturation is better in this photograph than the other. ""}","","","","","","4","136","113","","","","","","","","","","","{""Q0"":""The color saturation is better in this photograph than the other. ""}","","","","","","","","","","","","","","","","","","","","","","","","","","",""
"","fixation","","html-keyboard-response","79","406539","0.0-61.0-0.0","0","0","taNWE","Scenes","","null","","","null","","","","","","","","","","","","","","","","","","","","","","","","","","","","","","","","","","","","","","","","","","","",""
"","deliberation","","html-keyboard-response","80","408702","0.0-61.0-1.0","0","0","taNWE","Scenes","","2161","","","68","","","","5","104","122","1","-1","68","62","artem-sapegin-XGDBdSQ70O0-unsplash.jpg","jeff-king-bJHWJeiHfHc-unsplash.jpg","1","1","104","122","","","","","","","","","","","","","","","","","","","","","","","","","","","",""
"","choice_confirmation","","html-keyboard-response","81","409203","0.0-61.0-2.0-0.0","0","0","taNWE","Scenes","","null","","","null","","","","5","104","122","","","","","","","","","","","","","","","","","","","","","","","","","","","","","","","","","","","","","",""
"","explain_trial","","survey-text","82","442940","0.0-61.0-5.0-0.0","0","0","taNWE","Scenes","","33735","{""Q0"":""It has more elements of interest than the other photo. It has a mysterious element, which is very intriguing.""}","","","","","","5","104","122","","","","","","","","","","","{""Q0"":""It has more elements of interest than the other photo. It has a mysterious element, which is very intriguing.""}","","","","","","","","","","","","","","","","","","","","","","","","","","",""
"","fixation","","html-keyboard-response","83","443952","0.0-62.0-0.0","0","0","taNWE","Scenes","","null","","","null","","","","","","","","","","","","","","","","","","","","","","","","","","","","","","","","","","","","","","","","","","","",""
"","deliberation","","html-keyboard-response","84","446109","0.0-62.0-1.0","0","0","taNWE","Scenes","","2156","","","68","","","","6","101","111","1","1","75","57","aniket-deole-T-tOgjWZ0fQ-unsplash.jpg","claudio-testa-U3F2o6vz3bs-unsplash.jpg","1","1","101","111","","","","","","","","","","","","","","","","","","","","","","","","","","","",""
"","choice_confirmation","","html-keyboard-response","85","446617","0.0-62.0-2.0-0.0","0","0","taNWE","Scenes","","null","","","null","","","","6","101","111","","","","","","","","","","","","","","","","","","","","","","","","","","","","","","","","","","","","","",""
"","explain_trial","","survey-text","86","489332","0.0-62.0-5.0-0.0","0","0","taNWE","Scenes","","42714","{""Q0"":""It is a more dynamic shot. It is an amazing view compared to the other, which is pretty but not iconic.""}","","","","","","6","101","111","","","","","","","","","","","{""Q0"":""It is a more dynamic shot. It is an amazing view compared to the other, which is pretty but not iconic.""}","","","","","","","","","","","","","","","","","","","","","","","","","","",""
"","fixation","","html-keyboard-response","87","490340","0.0-63.0-0.0","0","0","taNWE","Scenes","","null","","","null","","","","","","","","","","","","","","","","","","","","","","","","","","","","","","","","","","","","","","","","","","","",""
"","deliberation","","html-keyboard-response","88","493886","0.0-63.0-1.0","0","0","taNWE","Scenes","","3544","","","75","","","","7","137","130","0","1","79","74","olga-stalska-QaWRyEdlffY-unsplash.jpg","lina-loos-04-C1NZk1hE-unsplash.jpg","1","0","130","137","","","","","","","","","","","","","","","","","","","","","","","","","","","",""
"","choice_confirmation","","html-keyboard-response","89","494390","0.0-63.0-2.0-0.0","0","0","taNWE","Scenes","","null","","","null","","","","7","137","130","","","","","","","","","","","","","","","","","","","","","","","","","","","","","","","","","","","","","",""
"","fixation","","html-keyboard-response","90","495401","0.0-64.0-0.0","0","0","taNWE","Scenes","","null","","","null","","","","","","","","","","","","","","","","","","","","","","","","","","","","","","","","","","","","","","","","","","","",""
"","deliberation","","html-keyboard-response","91","497758","0.0-64.0-1.0","0","0","taNWE","Scenes","","2356","","","75","","","","8","118","116","1","-1","59","83","henry-be-NLF6hTe4PAg-unsplash.jpg","david-marcu-W5MhJ6cy1So-unsplash.jpg","1","0","116","118","","","","","","","","","","","","","","","","","","","","","","","","","","","",""
"","choice_confirmation","","html-keyboard-response","92","498261","0.0-64.0-2.0-0.0","0","0","taNWE","Scenes","","null","","","null","","","","8","118","116","","","","","","","","","","","","","","","","","","","","","","","","","","","","","","","","","","","","","",""
"","explain_trial","","survey-text","93","522812","0.0-64.0-5.0-0.0","0","0","taNWE","Scenes","","24549","{""Q0"":""The colors are more vivid and saturated. It is bright and interesting.""}","","","","","","8","118","116","","","","","","","","","","","{""Q0"":""The colors are more vivid and saturated. It is bright and interesting.""}","","","","","","","","","","","","","","","","","","","","","","","","","","",""
"","fixation","","html-keyboard-response","94","523824","0.0-65.0-0.0","0","0","taNWE","Scenes","","null","","","null","","","","","","","","","","","","","","","","","","","","","","","","","","","","","","","","","","","","","","","","","","","",""
"","deliberation","","html-keyboard-response","95","528909","0.0-65.0-1.0","0","0","taNWE","Scenes","","5085","","","75","","","","9","134","140","0","1","81","81","milada-vigerova-pQMM63GE7fo-unsplash.jpg","samuele-errico-piccarini-JEBqFu2AOOA-unsplash.jpg","1","0","140","134","","","","","","","","","","","","","","","","","","","","","","","","","","","",""
"","choice_confirmation","","html-keyboard-response","96","529424","0.0-65.0-2.0-0.0","0","0","taNWE","Scenes","","null","","","null","","","","9","134","140","","","","","","","","","","","","","","","","","","","","","","","","","","","","","","","","","","","","","",""
"","fixation","","html-keyboard-response","97","530431","0.0-66.0-0.0","0","0","taNWE","Scenes","","null","","","null","","","","","","","","","","","","","","","","","","","","","","","","","","","","","","","","","","","","","","","","","","","",""
"","deliberation","","html-keyboard-response","98","533278","0.0-66.0-1.0","0","0","taNWE","Scenes","","2845","","","75","","","","10","139","147","0","1","55","73","samsommer-vddccTqwal8-unsplash.jpg","tobias-keller-73F4pKoUkM0-unsplash.jpg","1","0","147","139","","","","","","","","","","","","","","","","","","","","","","","","","","","",""
"","choice_confirmation","","html-keyboard-response","99","533783","0.0-66.0-2.0-0.0","0","0","taNWE","Scenes","","null","","","null","","","","10","139","147","","","","","","","","","","","","","","","","","","","","","","","","","","","","","","","","","","","","","",""
"","fixation","","html-keyboard-response","100","534793","0.0-67.0-0.0","0","0","taNWE","Scenes","","null","","","null","","","","","","","","","","","","","","","","","","","","","","","","","","","","","","","","","","","","","","","","","","","",""
"","deliberation","","html-keyboard-response","101","536797","0.0-67.0-1.0","0","0","taNWE","Scenes","","2004","","","75","","","","11","128","105","0","1","60","79","karsten-wurth-jS0zC2PJ17A-unsplash.jpg","ashim-d-silva-S2Q5mdOrrVc-unsplash.jpg","1","0","105","128","","","","","","","","","","","","","","","","","","","","","","","","","","","",""
"","choice_confirmation","","html-keyboard-response","102","537306","0.0-67.0-2.0-0.0","0","0","taNWE","Scenes","","null","","","null","","","","11","128","105","","","","","","","","","","","","","","","","","","","","","","","","","","","","","","","","","","","","","",""
"","practice_deliberation_again","","html-keyboard-response","103","541406","0.0-67.0-6.0-0.0","0","0","taNWE","Scenes","","4099","","","78","","","","","","","","","","","","","","","","","","","","","","","","","","","","","","","","","","","","","","","","","","","",""
"","fixation","","html-keyboard-response","104","542417","0.0-68.0-0.0","0","0","taNWE","Scenes","","null","","","null","","","","","","","","","","","","","","","","","","","","","","","","","","","","","","","","","","","","","","","","","","","",""
"","deliberation","","html-keyboard-response","105","544301","0.0-68.0-1.0","0","0","taNWE","Scenes","","1883","","","68","","","","12","120","102","1","-1","83","61","jarrett-kow-1ZOyYPOBn7I-unsplash.jpg","anisur-rahman-K2b7UDed6uQ-unsplash.jpg","2","1","120","102","","","","","","","","","","","","","","","","","","","","","","","","","","","",""
"","choice_confirmation","","html-keyboard-response","106","544808","0.0-68.0-2.0-0.0","0","0","taNWE","Scenes","","null","","","null","","","","12","120","102","","","","","","","","","","","","","","","","","","","","","","","","","","","","","","","","","","","","","",""
"","explain_trial","","survey-text","107","577093","0.0-68.0-5.0-0.0","0","0","taNWE","Scenes","","32284","{""Q0"":""The colors are more interesting than the other. It is vibrant and emotional.""}","","","","","","12","120","102","","","","","","","","","","","{""Q0"":""The colors are more interesting than the other. It is vibrant and emotional.""}","","","","","","","","","","","","","","","","","","","","","","","","","","",""
"","fixation","","html-keyboard-response","108","578100","0.0-69.0-0.0","0","0","taNWE","Scenes","","null","","","null","","","","","","","","","","","","","","","","","","","","","","","","","","","","","","","","","","","","","","","","","","","",""
"","deliberation","","html-keyboard-response","109","579901","0.0-69.0-1.0","0","0","taNWE","Scenes","","1800","","","75","","","","13","137","130","1","1","79","74","olga-stalska-QaWRyEdlffY-unsplash.jpg","lina-loos-04-C1NZk1hE-unsplash.jpg","2","0","130","137","","","","","","","","","","","","","","","","","","","","","","","","","","","",""
"","choice_confirmation","","html-keyboard-response","110","580419","0.0-69.0-2.0-0.0","0","0","taNWE","Scenes","","null","","","null","","","","13","137","130","","","","","","","","","","","","","","","","","","","","","","","","","","","","","","","","","","","","","",""
"","explain_trial","","survey-text","111","610572","0.0-69.0-5.0-0.0","0","0","taNWE","Scenes","","30151","{""Q0"":""It has a unique view of being above, which is a less common view, which makes it more interesting.""}","","","","","","13","137","130","","","","","","","","","","","{""Q0"":""It has a unique view of being above, which is a less common view, which makes it more interesting.""}","","","","","","","","","","","","","","","","","","","","","","","","","","",""
"","fixation","","html-keyboard-response","112","611588","0.0-70.0-0.0","0","0","taNWE","Scenes","","null","","","null","","","","","","","","","","","","","","","","","","","","","","","","","","","","","","","","","","","","","","","","","","","",""
"","deliberation","","html-keyboard-response","113","615133","0.0-70.0-1.0","0","0","taNWE","Scenes","","3544","","","75","","","","14","134","140","1","1","81","81","milada-vigerova-pQMM63GE7fo-unsplash.jpg","samuele-errico-piccarini-JEBqFu2AOOA-unsplash.jpg","2","0","140","134","","","","","","","","","","","","","","","","","","","","","","","","","","","",""
"","choice_confirmation","","html-keyboard-response","114","615637","0.0-70.0-2.0-0.0","0","0","taNWE","Scenes","","null","","","null","","","","14","134","140","","","","","","","","","","","","","","","","","","","","","","","","","","","","","","","","","","","","","",""
"","explain_trial","","survey-text","115","633780","0.0-70.0-5.0-0.0","0","0","taNWE","Scenes","","18143","{""Q0"":""It looks peaceful and the colors are beautiful.""}","","","","","","14","134","140","","","","","","","","","","","{""Q0"":""It looks peaceful and the colors are beautiful.""}","","","","","","","","","","","","","","","","","","","","","","","","","","",""
"","fixation","","html-keyboard-response","116","634795","0.0-71.0-0.0","0","0","taNWE","Scenes","","null","","","null","","","","","","","","","","","","","","","","","","","","","","","","","","","","","","","","","","","","","","","","","","","",""
"","deliberation","","html-keyboard-response","117","637229","0.0-71.0-1.0","0","0","taNWE","Scenes","","2433","","","68","","","","15","101","111","0","1","75","57","aniket-deole-T-tOgjWZ0fQ-unsplash.jpg","claudio-testa-U3F2o6vz3bs-unsplash.jpg","2","1","101","111","","","","","","","","","","","","","","","","","","","","","","","","","","","",""
"","choice_confirmation","","html-keyboard-response","118","637747","0.0-71.0-2.0-0.0","0","0","taNWE","Scenes","","null","","","null","","","","15","101","111","","","","","","","","","","","","","","","","","","","","","","","","","","","","","","","","","","","","","",""
"","fixation","","html-keyboard-response","119","638758","0.0-72.0-0.0","0","0","taNWE","Scenes","","null","","","null","","","","","","","","","","","","","","","","","","","","","","","","","","","","","","","","","","","","","","","","","","","",""
"","deliberation","","html-keyboard-response","120","640622","0.0-72.0-1.0","0","0","taNWE","Scenes","","1862","","","68","","","","16","127","124","0","-1","56","60","kace-rodriguez-p3OzJuT_Dks-unsplash.jpg","johannes-plenio-sPt5RIjKfpk-unsplash.jpg","2","1","127","124","","","","","","","","","","","","","","","","","","","","","","","","","","","",""
"","choice_confirmation","","html-keyboard-response","121","641133","0.0-72.0-2.0-0.0","0","0","taNWE","Scenes","","null","","","null","","","","16","127","124","","","","","","","","","","","","","","","","","","","","","","","","","","","","","","","","","","","","","",""
"","fixation","","html-keyboard-response","122","642149","0.0-73.0-0.0","0","0","taNWE","Scenes","","null","","","null","","","","","","","","","","","","","","","","","","","","","","","","","","","","","","","","","","","","","","","","","","","",""
"","deliberation","","html-keyboard-response","123","644734","0.0-73.0-1.0","0","0","taNWE","Scenes","","2583","","","75","","","","17","139","147","1","1","55","73","samsommer-vddccTqwal8-unsplash.jpg","tobias-keller-73F4pKoUkM0-unsplash.jpg","2","0","147","139","","","","","","","","","","","","","","","","","","","","","","","","","","","",""
"","choice_confirmation","","html-keyboard-response","124","645250","0.0-73.0-2.0-0.0","0","0","taNWE","Scenes","","null","","","null","","","","17","139","147","","","","","","","","","","","","","","","","","","","","","","","","","","","","","","","","","","","","","",""
"","explain_trial","","survey-text","125","684828","0.0-73.0-5.0-0.0","0","0","taNWE","Scenes","","39576","{""Q0"":""The other has too much white, it makes it difficult to understand what is happening in the photograph. This one is simple and beautiful. You can also see a lot more detail.""}","","","","","","17","139","147","","","","","","","","","","","{""Q0"":""The other has too much white, it makes it difficult to understand what is happening in the photograph. This one is simple and beautiful. You can also see a lot more detail.""}","","","","","","","","","","","","","","","","","","","","","","","","","","",""
"","fixation","","html-keyboard-response","126","685849","0.0-74.0-0.0","0","0","taNWE","Scenes","","null","","","null","","","","","","","","","","","","","","","","","","","","","","","","","","","","","","","","","","","","","","","","","","","",""
"","deliberation","","html-keyboard-response","127","687037","0.0-74.0-1.0","0","0","taNWE","Scenes","","1186","","","68","","","","18","104","122","0","-1","68","62","artem-sapegin-XGDBdSQ70O0-unsplash.jpg","jeff-king-bJHWJeiHfHc-unsplash.jpg","2","1","104","122","","","","","","","","","","","","","","","","","","","","","","","","","","","",""
"","choice_confirmation","","html-keyboard-response","128","687546","0.0-74.0-2.0-0.0","0","0","taNWE","Scenes","","null","","","null","","","","18","104","122","","","","","","","","","","","","","","","","","","","","","","","","","","","","","","","","","","","","","",""
"","fixation","","html-keyboard-response","129","688557","0.0-75.0-0.0","0","0","taNWE","Scenes","","null","","","null","","","","","","","","","","","","","","","","","","","","","","","","","","","","","","","","","","","","","","","","","","","",""
"","deliberation","","html-keyboard-response","130","689869","0.0-75.0-1.0","0","0","taNWE","Scenes","","1311","","","68","","","","19","136","113","0","-1","56","64","nicolas-jehly-LzVB84KkZOE-unsplash.jpg","damian-denis-D8R_txR_0PE-unsplash.jpg","2","1","136","113","","","","","","","","","","","","","","","","","","","","","","","","","","","",""
"","choice_confirmation","","html-keyboard-response","131","690371","0.0-75.0-2.0-0.0","0","0","taNWE","Scenes","","null","","","null","","","","19","136","113","","","","","","","","","","","","","","","","","","","","","","","","","","","","","","","","","","","","","",""
"","fixation","","html-keyboard-response","132","691386","0.0-76.0-0.0","0","0","taNWE","Scenes","","null","","","null","","","","","","","","","","","","","","","","","","","","","","","","","","","","","","","","","","","","","","","","","","","",""
"","deliberation","","html-keyboard-response","133","693118","0.0-76.0-1.0","0","0","taNWE","Scenes","","1730","","","68","","","","20","119","143","0","1","75","71","james-wheeler-AFC0XvICMgs-unsplash.jpg","sigurdur-fjalar-jonsson-1KxBabIntpE-unsplash.jpg","2","1","119","143","","","","","","","","","","","","","","","","","","","","","","","","","","","",""
"","choice_confirmation","","html-keyboard-response","134","693632","0.0-76.0-2.0-0.0","0","0","taNWE","Scenes","","null","","","null","","","","20","119","143","","","","","","","","","","","","","","","","","","","","","","","","","","","","","","","","","","","","","",""
"","fixation","","html-keyboard-response","135","694641","0.0-77.0-0.0","0","0","taNWE","Scenes","","null","","","null","","","","","","","","","","","","","","","","","","","","","","","","","","","","","","","","","","","","","","","","","","","",""
"","deliberation","","html-keyboard-response","136","696493","0.0-77.0-1.0","0","0","taNWE","Scenes","","1851","","","68","","","","21","146","107","1","-1","81","56","thomas-morse-cuKKa0vWZSY-unsplash.jpg","benjamin-davies-Zm2n2O7Fph4-unsplash.jpg","2","1","146","107","","","","","","","","","","","","","","","","","","","","","","","","","","","",""
"","choice_confirmation","","html-keyboard-response","137","696996","0.0-77.0-2.0-0.0","0","0","taNWE","Scenes","","null","","","null","","","","21","146","107","","","","","","","","","","","","","","","","","","","","","","","","","","","","","","","","","","","","","",""
"","explain_trial","","survey-text","138","714980","0.0-77.0-5.0-0.0","0","0","taNWE","Scenes","","17982","{""Q0"":""It has more colors and textures, which makes you want to spend more time looking at it. ""}","","","","","","21","146","107","","","","","","","","","","","{""Q0"":""It has more colors and textures, which makes you want to spend more time looking at it. ""}","","","","","","","","","","","","","","","","","","","","","","","","","","",""
"","fixation","","html-keyboard-response","139","715996","0.0-78.0-0.0","0","0","taNWE","Scenes","","null","","","null","","","","","","","","","","","","","","","","","","","","","","","","","","","","","","","","","","","","","","","","","","","",""
"","deliberation","","html-keyboard-response","140","718078","0.0-78.0-1.0","0","0","taNWE","Scenes","","2080","","","75","","","","22","128","105","1","1","60","79","karsten-wurth-jS0zC2PJ17A-unsplash.jpg","ashim-d-silva-S2Q5mdOrrVc-unsplash.jpg","2","0","105","128","","","","","","","","","","","","","","","","","","","","","","","","","","","",""
"","choice_confirmation","","html-keyboard-response","141","718585","0.0-78.0-2.0-0.0","0","0","taNWE","Scenes","","null","","","null","","","","22","128","105","","","","","","","","","","","","","","","","","","","","","","","","","","","","","","","","","","","","","",""
"","explain_trial","","survey-text","142","739269","0.0-78.0-5.0-0.0","0","0","taNWE","Scenes","","20682","{""Q0"":""It is simple, but very interesting in colors. It looks other worldly.""}","","","","","","22","128","105","","","","","","","","","","","{""Q0"":""It is simple, but very interesting in colors. It looks other worldly.""}","","","","","","","","","","","","","","","","","","","","","","","","","","",""
"","fixation","","html-keyboard-response","143","740279","0.0-79.0-0.0","0","0","taNWE","Scenes","","null","","","null","","","","","","","","","","","","","","","","","","","","","","","","","","","","","","","","","","","","","","","","","","","",""
"","deliberation","","html-keyboard-response","144","741758","0.0-79.0-1.0","0","0","taNWE","Scenes","","1477","","","75","","","","23","118","116","0","-1","59","83","henry-be-NLF6hTe4PAg-unsplash.jpg","david-marcu-W5MhJ6cy1So-unsplash.jpg","2","0","116","118","","","","","","","","","","","","","","","","","","","","","","","","","","","",""
"","choice_confirmation","","html-keyboard-response","145","742264","0.0-79.0-2.0-0.0","0","0","taNWE","Scenes","","null","","","null","","","","23","118","116","","","","","","","","","","","","","","","","","","","","","","","","","","","","","","","","","","","","","",""
"","start_critical_deliberation_block","","html-keyboard-response","146","744750","0.0-79.0-7.0-0.0","0","0","taNWE","Scenes","","2484","","","78","","","","","","","","","","","","","","","","","","","","","","","","","","","","","","","","","","","","","","","","","","","",""
"","fixation","","html-keyboard-response","147","745768","0.0-80.0-0.0","0","0","taNWE","Scenes","","null","","","null","","","","","","","","","","","","","","","","","","","","","","","","","","","","","","","","","","","","","","","","","","","",""
"","deliberation","","html-keyboard-response","148","747390","0.0-80.0-1.0","0","0","taNWE","Scenes","","1620","","","68","","","","24","120","102","0","-1","83","61","jarrett-kow-1ZOyYPOBn7I-unsplash.jpg","anisur-rahman-K2b7UDed6uQ-unsplash.jpg","3","1","120","102","","","","","","","","","","","","","","","","","","","","","","","","","","","",""
"","choice_confirmation","","html-keyboard-response","149","747898","0.0-80.0-2.0-0.0","0","0","taNWE","Scenes","","null","","","null","","","","24","120","102","","","","","","","","","","","","","","","","","","","","","","","","","","","","","","","","","","","","","",""
"","fixation","","html-keyboard-response","150","748918","0.0-81.0-0.0","0","0","taNWE","Scenes","","null","","","null","","","","","","","","","","","","","","","","","","","","","","","","","","","","","","","","","","","","","","","","","","","",""
"","deliberation","","html-keyboard-response","151","749998","0.0-81.0-1.0","0","0","taNWE","Scenes","","1078","","","75","","","","25","128","105","0","1","60","79","karsten-wurth-jS0zC2PJ17A-unsplash.jpg","ashim-d-silva-S2Q5mdOrrVc-unsplash.jpg","3","0","105","128","","","","","","","","","","","","","","","","","","","","","","","","","","","",""
"","choice_confirmation","","html-keyboard-response","152","750508","0.0-81.0-2.0-0.0","0","0","taNWE","Scenes","","null","","","null","","","","25","128","105","","","","","","","","","","","","","","","","","","","","","","","","","","","","","","","","","","","","","",""
"","fixation","","html-keyboard-response","153","751527","0.0-82.0-0.0","0","0","taNWE","Scenes","","null","","","null","","","","","","","","","","","","","","","","","","","","","","","","","","","","","","","","","","","","","","","","","","","",""
"","deliberation","","html-keyboard-response","154","753390","0.0-82.0-1.0","0","0","taNWE","Scenes","","1861","","","75","","","","26","139","147","0","1","55","73","samsommer-vddccTqwal8-unsplash.jpg","tobias-keller-73F4pKoUkM0-unsplash.jpg","3","0","147","139","","","","","","","","","","","","","","","","","","","","","","","","","","","",""
"","choice_confirmation","","html-keyboard-response","155","753900","0.0-82.0-2.0-0.0","0","0","taNWE","Scenes","","null","","","null","","","","26","139","147","","","","","","","","","","","","","","","","","","","","","","","","","","","","","","","","","","","","","",""
"","fixation","","html-keyboard-response","156","754908","0.0-83.0-0.0","0","0","taNWE","Scenes","","null","","","null","","","","","","","","","","","","","","","","","","","","","","","","","","","","","","","","","","","","","","","","","","","",""
"","deliberation","","html-keyboard-response","157","757102","0.0-83.0-1.0","0","0","taNWE","Scenes","","2192","","","75","","","","27","137","130","0","1","79","74","olga-stalska-QaWRyEdlffY-unsplash.jpg","lina-loos-04-C1NZk1hE-unsplash.jpg","3","0","130","137","","","","","","","","","","","","","","","","","","","","","","","","","","","",""
"","choice_confirmation","","html-keyboard-response","158","757609","0.0-83.0-2.0-0.0","0","0","taNWE","Scenes","","null","","","null","","","","27","137","130","","","","","","","","","","","","","","","","","","","","","","","","","","","","","","","","","","","","","",""
"","fixation","","html-keyboard-response","159","758620","0.0-84.0-0.0","0","0","taNWE","Scenes","","null","","","null","","","","","","","","","","","","","","","","","","","","","","","","","","","","","","","","","","","","","","","","","","","",""
"","deliberation","","html-keyboard-response","160","759550","0.0-84.0-1.0","0","0","taNWE","Scenes","","928","","","68","","","","28","146","107","0","-1","81","56","thomas-morse-cuKKa0vWZSY-unsplash.jpg","benjamin-davies-Zm2n2O7Fph4-unsplash.jpg","3","1","146","107","","","","","","","","","","","","","","","","","","","","","","","","","","","",""
"","choice_confirmation","","html-keyboard-response","161","760060","0.0-84.0-2.0-0.0","0","0","taNWE","Scenes","","null","","","null","","","","28","146","107","","","","","","","","","","","","","","","","","","","","","","","","","","","","","","","","","","","","","",""
"","fixation","","html-keyboard-response","162","761074","0.0-85.0-0.0","0","0","taNWE","Scenes","","null","","","null","","","","","","","","","","","","","","","","","","","","","","","","","","","","","","","","","","","","","","","","","","","",""
"","deliberation","","html-keyboard-response","163","761950","0.0-85.0-1.0","0","0","taNWE","Scenes","","875","","","68","","","","29","119","143","0","1","75","71","james-wheeler-AFC0XvICMgs-unsplash.jpg","sigurdur-fjalar-jonsson-1KxBabIntpE-unsplash.jpg","3","1","119","143","","","","","","","","","","","","","","","","","","","","","","","","","","","",""
"","choice_confirmation","","html-keyboard-response","164","762454","0.0-85.0-2.0-0.0","0","0","taNWE","Scenes","","null","","","null","","","","29","119","143","","","","","","","","","","","","","","","","","","","","","","","","","","","","","","","","","","","","","",""
"","fixation","","html-keyboard-response","165","763466","0.0-86.0-0.0","0","0","taNWE","Scenes","","null","","","null","","","","","","","","","","","","","","","","","","","","","","","","","","","","","","","","","","","","","","","","","","","",""
"","deliberation","","html-keyboard-response","166","764478","0.0-86.0-1.0","0","0","taNWE","Scenes","","1010","","","68","","","","30","101","111","0","1","75","57","aniket-deole-T-tOgjWZ0fQ-unsplash.jpg","claudio-testa-U3F2o6vz3bs-unsplash.jpg","3","1","101","111","","","","","","","","","","","","","","","","","","","","","","","","","","","",""
"","choice_confirmation","","html-keyboard-response","167","764980","0.0-86.0-2.0-0.0","0","0","taNWE","Scenes","","null","","","null","","","","30","101","111","","","","","","","","","","","","","","","","","","","","","","","","","","","","","","","","","","","","","",""
"","fixation","","html-keyboard-response","168","765996","0.0-87.0-0.0","0","0","taNWE","Scenes","","null","","","null","","","","","","","","","","","","","","","","","","","","","","","","","","","","","","","","","","","","","","","","","","","",""
"","deliberation","","html-keyboard-response","169","766782","0.0-87.0-1.0","0","0","taNWE","Scenes","","784","","","68","","","","31","136","113","0","-1","56","64","nicolas-jehly-LzVB84KkZOE-unsplash.jpg","damian-denis-D8R_txR_0PE-unsplash.jpg","3","1","136","113","","","","","","","","","","","","","","","","","","","","","","","","","","","",""
"","choice_confirmation","","html-keyboard-response","170","767286","0.0-87.0-2.0-0.0","0","0","taNWE","Scenes","","null","","","null","","","","31","136","113","","","","","","","","","","","","","","","","","","","","","","","","","","","","","","","","","","","","","",""
"","fixation","","html-keyboard-response","171","768300","0.0-88.0-0.0","0","0","taNWE","Scenes","","null","","","null","","","","","","","","","","","","","","","","","","","","","","","","","","","","","","","","","","","","","","","","","","","",""
"","deliberation","","html-keyboard-response","172","769086","0.0-88.0-1.0","0","0","taNWE","Scenes","","785","","","68","","","","32","104","122","0","-1","68","62","artem-sapegin-XGDBdSQ70O0-unsplash.jpg","jeff-king-bJHWJeiHfHc-unsplash.jpg","3","1","104","122","","","","","","","","","","","","","","","","","","","","","","","","","","","",""
"","choice_confirmation","","html-keyboard-response","173","769591","0.0-88.0-2.0-0.0","0","0","taNWE","Scenes","","null","","","null","","","","32","104","122","","","","","","","","","","","","","","","","","","","","","","","","","","","","","","","","","","","","","",""
"","fixation","","html-keyboard-response","174","770608","0.0-89.0-0.0","0","0","taNWE","Scenes","","null","","","null","","","","","","","","","","","","","","","","","","","","","","","","","","","","","","","","","","","","","","","","","","","",""
"","deliberation","","html-keyboard-response","175","771950","0.0-89.0-1.0","0","0","taNWE","Scenes","","1341","","","68","","","","33","127","124","0","-1","56","60","kace-rodriguez-p3OzJuT_Dks-unsplash.jpg","johannes-plenio-sPt5RIjKfpk-unsplash.jpg","3","1","127","124","","","","","","","","","","","","","","","","","","","","","","","","","","","",""
"","choice_confirmation","","html-keyboard-response","176","772459","0.0-89.0-2.0-0.0","0","0","taNWE","Scenes","","null","","","null","","","","33","127","124","","","","","","","","","","","","","","","","","","","","","","","","","","","","","","","","","","","","","",""
"","fixation","","html-keyboard-response","177","773469","0.0-90.0-0.0","0","0","taNWE","Scenes","","null","","","null","","","","","","","","","","","","","","","","","","","","","","","","","","","","","","","","","","","","","","","","","","","",""
"","deliberation","","html-keyboard-response","178","774542","0.0-90.0-1.0","0","0","taNWE","Scenes","","1071","","","75","","","","34","118","116","0","-1","59","83","henry-be-NLF6hTe4PAg-unsplash.jpg","david-marcu-W5MhJ6cy1So-unsplash.jpg","3","0","116","118","","","","","","","","","","","","","","","","","","","","","","","","","","","",""
"","choice_confirmation","","html-keyboard-response","179","775058","0.0-90.0-2.0-0.0","0","0","taNWE","Scenes","","null","","","null","","","","34","118","116","","","","","","","","","","","","","","","","","","","","","","","","","","","","","","","","","","","","","",""
"","fixation","","html-keyboard-response","180","776060","0.0-91.0-0.0","0","0","taNWE","Scenes","","null","","","null","","","","","","","","","","","","","","","","","","","","","","","","","","","","","","","","","","","","","","","","","","","",""
"","deliberation","","html-keyboard-response","181","777709","0.0-91.0-1.0","0","0","taNWE","Scenes","","1647","","","75","","","","35","134","140","0","1","81","81","milada-vigerova-pQMM63GE7fo-unsplash.jpg","samuele-errico-piccarini-JEBqFu2AOOA-unsplash.jpg","3","0","140","134","","","","","","","","","","","","","","","","","","","","","","","","","","","",""
"","choice_confirmation","","html-keyboard-response","182","778228","0.0-91.0-2.0-0.0","0","0","taNWE","Scenes","","null","","","null","","","","35","134","140","","","","","","","","","","","","","","","","","","","","","","","","","","","","","","","","","","","","","",""
"","reward_learning_instructions","","instructions","183","818676","0.0-92.0-0.0","0","0","taNWE","Scenes","[{""page_index"":0,""viewing_time"":10382},{""page_index"":1,""viewing_time"":28617},{""page_index"":2,""viewing_time"":1447}]","40446","","","","","","","","","","","","","","","","","","","","","","","","","","","","","","","","","","","","","","","","","","","","","","",""
"","reward_comprehension_check","","survey-multi-choice","184","831028","0.0-92.0-1.0","0","0","taNWE","Scenes","","12350","{""Q0"":""True"",""Q1"":""True"",""Q2"":""Press the space bar to see its outcome"",""Q3"":""Press the relevant key while the outcome is presented""}","0","","","","","","","","","","","","","","","","","","","","","","","","","","","","","","","","","","","","","","","","","","","","",""
"","start_phase","","html-keyboard-response","185","832861","0.0-93.0","0","0","taNWE","Scenes","","1831","","","78","","","","","","","","","","","","","","","","","","","","","","","","","","","","","","","","","","","","","","","","","","","",""
"","fixation","","html-keyboard-response","186","833880","0.0-94.0","0","0","taNWE","Scenes","","null","","","null","","","","","","","","","","","","","","","","","","","","","","","","","","","","","","","","","","","","","","","","","","","",""
"","see_reward","","html-keyboard-response","187","834829","0.0-95.0","0","0","taNWE","Scenes","","948","","","32","","136","","0","","","","-1","","","","","1","","","","","0","948","","","","","","","","","","","","","","","","","","","","","","","","",""
"","reward_outcome","","html-keyboard-response","188","836840","0.0-96.0","0","0","taNWE","Scenes","","1086","","","40","","136","","0","","","","","","","","","","","","","","","","-1","1086","","","","","","","","","","","","","","","","","","","","","","",""
"","fixation","","html-keyboard-response","189","837853","0.0-99.0","0","0","taNWE","Scenes","","null","","","null","","","","","","","","","","","","","","","","","","","","","","","","","","","","","","","","","","","","","","","","","","","",""
"","see_reward","","html-keyboard-response","190","838685","0.0-100.0","0","0","taNWE","Scenes","","832","","","32","","127","","1","","","","-1","","","","","1","","","","","0","832","","","","","","","","","","","","","","","","","","","","","","","","",""
"","reward_outcome","","html-keyboard-response","191","840696","0.0-101.0","0","0","taNWE","Scenes","","975","","","40","","127","","1","","","","","","","","","","","","","","","","-1","975","","","","","","","","","","","","","","","","","","","","","","",""
"","fixation","","html-keyboard-response","192","841703","0.0-104.0","0","0","taNWE","Scenes","","null","","","null","","","","","","","","","","","","","","","","","","","","","","","","","","","","","","","","","","","","","","","","","","","",""
"","see_reward","","html-keyboard-response","193","842525","0.0-105.0","0","0","taNWE","Scenes","","822","","","32","","147","","2","","","","1","","","","","1","","","","","157","822","","","","","","","","","","","","","","","","","","","","","","","","",""
"","reward_outcome","","html-keyboard-response","194","844544","0.0-106.0","0","0","taNWE","Scenes","","1118","","","38","","147","","2","","","","","","","","","","","","","","","","1","1118","","","","","","","","","","","","","","","","","","","","","","",""
"","fixation","","html-keyboard-response","195","845559","0.0-109.0","0","0","taNWE","Scenes","","null","","","null","","","","","","","","","","","","","","","","","","","","","","","","","","","","","","","","","","","","","","","","","","","",""
"","see_reward","","html-keyboard-response","196","846189","0.0-110.0","0","0","taNWE","Scenes","","629","","","32","","101","","3","","","","1","","","","","1","","","","","148","629","","","","","","","","","","","","","","","","","","","","","","","","",""
"","reward_outcome","","html-keyboard-response","197","848205","0.0-111.0","0","0","taNWE","Scenes","","1678","","","38","","101","","3","","","","","","","","","","","","","","","","1","1678","","","","","","","","","","","","","","","","","","","","","","",""
"","fixation","","html-keyboard-response","198","849212","0.0-114.0","0","0","taNWE","Scenes","","null","","","null","","","","","","","","","","","","","","","","","","","","","","","","","","","","","","","","","","","","","","","","","","","",""
"","see_reward","","html-keyboard-response","199","849789","0.0-115.0","0","0","taNWE","Scenes","","576","","","32","","116","","4","","","","-1","","","","","1","","","","","0","576","","","","","","","","","","","","","","","","","","","","","","","","",""
"","reward_outcome","","html-keyboard-response","200","851807","0.0-116.0","0","0","taNWE","Scenes","","783","","","40","","116","","4","","","","","","","","","","","","","","","","-1","783","","","","","","","","","","","","","","","","","","","","","","",""
"","fixation","","html-keyboard-response","201","852817","0.0-119.0","0","0","taNWE","Scenes","","null","","","null","","","","","","","","","","","","","","","","","","","","","","","","","","","","","","","","","","","","","","","","","","","",""
"","see_reward","","html-keyboard-response","202","853437","0.0-120.0","0","0","taNWE","Scenes","","619","","","32","","136","","5","","","","-1","","","","","1","","","","","0","619","","","","","","","","","","","","","","","","","","","","","","","","",""
"","reward_outcome","","html-keyboard-response","203","855449","0.0-121.0","0","0","taNWE","Scenes","","703","","","40","","136","","5","","","","","","","","","","","","","","","","-1","703","","","","","","","","","","","","","","","","","","","","","","",""
"","fixation","","html-keyboard-response","204","856461","0.0-124.0","0","0","taNWE","Scenes","","null","","","null","","","","","","","","","","","","","","","","","","","","","","","","","","","","","","","","","","","","","","","","","","","",""
"","see_reward","","html-keyboard-response","205","857037","0.0-125.0","0","0","taNWE","Scenes","","575","","","32","","147","","6","","","","1","","","","","1","","","","","157","575","","","","","","","","","","","","","","","","","","","","","","","","",""
"","reward_outcome","","html-keyboard-response","206","859048","0.0-126.0","0","0","taNWE","Scenes","","782","","","38","","147","","6","","","","","","","","","","","","","","","","1","782","","","","","","","","","","","","","","","","","","","","","","",""
"","fixation","","html-keyboard-response","207","860052","0.0-129.0","0","0","taNWE","Scenes","","null","","","null","","","","","","","","","","","","","","","","","","","","","","","","","","","","","","","","","","","","","","","","","","","",""
"","see_reward","","html-keyboard-response","208","860622","0.0-130.0","0","0","taNWE","Scenes","","568","","","32","","146","","7","","","","-1","","","","","1","","","","","0","568","","","","","","","","","","","","","","","","","","","","","","","","",""
"","reward_outcome","","html-keyboard-response","209","862638","0.0-131.0","0","0","taNWE","Scenes","","1150","","","40","","146","","7","","","","","","","","","","","","","","","","-1","1150","","","","","","","","","","","","","","","","","","","","","","",""
"","fixation","","html-keyboard-response","210","863653","0.0-134.0","0","0","taNWE","Scenes","","null","","","null","","","","","","","","","","","","","","","","","","","","","","","","","","","","","","","","","","","","","","","","","","","",""
"","see_reward","","html-keyboard-response","211","864189","0.0-135.0","0","0","taNWE","Scenes","","534","","","32","","119","","8","","","","1","","","","","1","","","","","141","534","","","","","","","","","","","","","","","","","","","","","","","","",""
"","reward_outcome","","html-keyboard-response","212","866204","0.0-136.0","0","0","taNWE","Scenes","","654","","","38","","119","","8","","","","","","","","","","","","","","","","1","654","","","","","","","","","","","","","","","","","","","","","","",""
"","fixation","","html-keyboard-response","213","867213","0.0-139.0","0","0","taNWE","Scenes","","null","","","null","","","","","","","","","","","","","","","","","","","","","","","","","","","","","","","","","","","","","","","","","","","",""
"","see_reward","","html-keyboard-response","214","867677","0.0-140.0","0","0","taNWE","Scenes","","463","","","32","","140","","9","","","","1","","","","","1","","","","","155","463","","","","","","","","","","","","","","","","","","","","","","","","",""
"","reward_outcome","","html-keyboard-response","215","869694","0.0-141.0","0","0","taNWE","Scenes","","1294","","","38","","140","","9","","","","","","","","","","","","","","","","1","1294","","","","","","","","","","","","","","","","","","","","","","",""
"","fixation","","html-keyboard-response","216","870714","0.0-144.0","0","0","taNWE","Scenes","","null","","","null","","","","","","","","","","","","","","","","","","","","","","","","","","","","","","","","","","","","","","","","","","","",""
"","see_reward","","html-keyboard-response","217","871293","0.0-145.0","0","0","taNWE","Scenes","","578","","","32","","127","","10","","","","-1","","","","","1","","","","","0","578","","","","","","","","","","","","","","","","","","","","","","","","",""
"","reward_outcome","","html-keyboard-response","218","873304","0.0-146.0","0","0","taNWE","Scenes","","831","","","40","","127","","10","","","","","","","","","","","","","","","","-1","831","","","","","","","","","","","","","","","","","","","","","","",""
"","fixation","","html-keyboard-response","219","874314","0.0-149.0","0","0","taNWE","Scenes","","null","","","null","","","","","","","","","","","","","","","","","","","","","","","","","","","","","","","","","","","","","","","","","","","",""
"","see_reward","","html-keyboard-response","220","874781","0.0-150.0","0","0","taNWE","Scenes","","466","","","32","","105","","11","","","","1","","","","","1","","","","","150","466","","","","","","","","","","","","","","","","","","","","","","","","",""
"","reward_outcome","","html-keyboard-response","221","876796","0.0-151.0","0","0","taNWE","Scenes","","878","","","38","","105","","11","","","","","","","","","","","","","","","","1","878","","","","","","","","","","","","","","","","","","","","","","",""
"","fixation","","html-keyboard-response","222","877808","0.0-154.0","0","0","taNWE","Scenes","","null","","","null","","","","","","","","","","","","","","","","","","","","","","","","","","","","","","","","","","","","","","","","","","","",""
"","see_reward","","html-keyboard-response","223","878237","0.0-155.0","0","0","taNWE","Scenes","","428","","","32","","101","","12","","","","1","","","","","1","","","","","148","428","","","","","","","","","","","","","","","","","","","","","","","","",""
"","reward_outcome","","html-keyboard-response","224","880246","0.0-156.0","0","0","taNWE","Scenes","","798","","","38","","101","","12","","","","","","","","","","","","","","","","1","798","","","","","","","","","","","","","","","","","","","","","","",""
"","fixation","","html-keyboard-response","225","881254","0.0-159.0","0","0","taNWE","Scenes","","null","","","null","","","","","","","","","","","","","","","","","","","","","","","","","","","","","","","","","","","","","","","","","","","",""
"","see_reward","","html-keyboard-response","226","881773","0.0-160.0","0","0","taNWE","Scenes","","518","","","32","","130","","13","","","","1","","","","","1","","","","","159","518","","","","","","","","","","","","","","","","","","","","","","","","",""
"","reward_outcome","","html-keyboard-response","227","883785","0.0-161.0","0","0","taNWE","Scenes","","830","","","38","","130","","13","","","","","","","","","","","","","","","","1","830","","","","","","","","","","","","","","","","","","","","","","",""
"","fixation","","html-keyboard-response","228","884801","0.0-164.0","0","0","taNWE","Scenes","","null","","","null","","","","","","","","","","","","","","","","","","","","","","","","","","","","","","","","","","","","","","","","","","","",""
"","see_reward","","html-keyboard-response","229","885181","0.0-165.0","0","0","taNWE","Scenes","","378","","","32","","140","","14","","","","1","","","","","1","","","","","155","378","","","","","","","","","","","","","","","","","","","","","","","","",""
"","reward_outcome","","html-keyboard-response","230","887199","0.0-166.0","0","0","taNWE","Scenes","","766","","","38","","140","","14","","","","","","","","","","","","","","","","1","766","","","","","","","","","","","","","","","","","","","","","","",""
"","fixation","","html-keyboard-response","231","888213","0.0-169.0","0","0","taNWE","Scenes","","null","","","null","","","","","","","","","","","","","","","","","","","","","","","","","","","","","","","","","","","","","","","","","","","",""
"","see_reward","","html-keyboard-response","232","888621","0.0-170.0","0","0","taNWE","Scenes","","406","","","32","","105","","15","","","","1","","","","","1","","","","","150","406","","","","","","","","","","","","","","","","","","","","","","","","",""
"","reward_outcome","","html-keyboard-response","233","890633","0.0-171.0","0","0","taNWE","Scenes","","638","","","38","","105","","15","","","","","","","","","","","","","","","","1","638","","","","","","","","","","","","","","","","","","","","","","",""
"","fixation","","html-keyboard-response","234","891647","0.0-174.0","0","0","taNWE","Scenes","","null","","","null","","","","","","","","","","","","","","","","","","","","","","","","","","","","","","","","","","","","","","","","","","","",""
"","see_reward","","html-keyboard-response","235","892077","0.0-175.0","0","0","taNWE","Scenes","","430","","","32","","120","","16","","","","-1","","","","","1","","","","","0","430","","","","","","","","","","","","","","","","","","","","","","","","",""
"","reward_outcome","","html-keyboard-response","236","894088","0.0-176.0","0","0","taNWE","Scenes","","943","","","40","","120","","16","","","","","","","","","","","","","","","","-1","943","","","","","","","","","","","","","","","","","","","","","","",""
"","fixation","","html-keyboard-response","237","895106","0.0-179.0","0","0","taNWE","Scenes","","null","","","null","","","","","","","","","","","","","","","","","","","","","","","","","","","","","","","","","","","","","","","","","","","",""
"","see_reward","","html-keyboard-response","238","895597","0.0-180.0","0","0","taNWE","Scenes","","490","","","32","","116","","17","","","","-1","","","","","1","","","","","0","490","","","","","","","","","","","","","","","","","","","","","","","","",""
"","reward_outcome","","html-keyboard-response","239","897607","0.0-181.0","0","0","taNWE","Scenes","","703","","","40","","116","","17","","","","","","","","","","","","","","","","-1","703","","","","","","","","","","","","","","","","","","","","","","",""
"","fixation","","html-keyboard-response","240","898620","0.0-184.0","0","0","taNWE","Scenes","","null","","","null","","","","","","","","","","","","","","","","","","","","","","","","","","","","","","","","","","","","","","","","","","","",""
"","see_reward","","html-keyboard-response","241","899230","0.0-185.0","0","0","taNWE","Scenes","","608","","","32","","104","","18","","","","-1","","","","","1","","","","","0","608","","","","","","","","","","","","","","","","","","","","","","","","",""
"","reward_outcome","","html-keyboard-response","242","901247","0.0-186.0","0","0","taNWE","Scenes","","799","","","40","","104","","18","","","","","","","","","","","","","","","","-1","799","","","","","","","","","","","","","","","","","","","","","","",""
"","fixation","","html-keyboard-response","243","902262","0.0-189.0","0","0","taNWE","Scenes","","null","","","null","","","","","","","","","","","","","","","","","","","","","","","","","","","","","","","","","","","","","","","","","","","",""
"","see_reward","","html-keyboard-response","244","902798","0.0-190.0","0","0","taNWE","Scenes","","535","","","32","","120","","19","","","","-1","","","","","1","","","","","0","535","","","","","","","","","","","","","","","","","","","","","","","","",""
"","reward_outcome","","html-keyboard-response","245","904818","0.0-191.0","0","0","taNWE","Scenes","","799","","","40","","120","","19","","","","","","","","","","","","","","","","-1","799","","","","","","","","","","","","","","","","","","","","","","",""
"","fixation","","html-keyboard-response","246","905826","0.0-194.0","0","0","taNWE","Scenes","","null","","","null","","","","","","","","","","","","","","","","","","","","","","","","","","","","","","","","","","","","","","","","","","","",""
"","see_reward","","html-keyboard-response","247","906302","0.0-195.0","0","0","taNWE","Scenes","","475","","","32","","119","","20","","","","1","","","","","1","","","","","141","475","","","","","","","","","","","","","","","","","","","","","","","","",""
"","reward_outcome","","html-keyboard-response","248","908316","0.0-196.0","0","0","taNWE","Scenes","","927","","","38","","119","","20","","","","","","","","","","","","","","","","1","927","","","","","","","","","","","","","","","","","","","","","","",""
"","fixation","","html-keyboard-response","249","909331","0.0-199.0","0","0","taNWE","Scenes","","null","","","null","","","","","","","","","","","","","","","","","","","","","","","","","","","","","","","","","","","","","","","","","","","",""
"","see_reward","","html-keyboard-response","250","909934","0.0-200.0","0","0","taNWE","Scenes","","602","","","32","","130","","21","","","","1","","","","","1","","","","","159","602","","","","","","","","","","","","","","","","","","","","","","","","",""
"","reward_outcome","","html-keyboard-response","251","911950","0.0-201.0","0","0","taNWE","Scenes","","670","","","38","","130","","21","","","","","","","","","","","","","","","","1","670","","","","","","","","","","","","","","","","","","","","","","",""
"","fixation","","html-keyboard-response","252","912965","0.0-204.0","0","0","taNWE","Scenes","","null","","","null","","","","","","","","","","","","","","","","","","","","","","","","","","","","","","","","","","","","","","","","","","","",""
"","see_reward","","html-keyboard-response","253","913438","0.0-205.0","0","0","taNWE","Scenes","","472","","","32","","104","","22","","","","-1","","","","","1","","","","","0","472","","","","","","","","","","","","","","","","","","","","","","","","",""
"","reward_outcome","","html-keyboard-response","254","915447","0.0-206.0","0","0","taNWE","Scenes","","798","","","40","","104","","22","","","","","","","","","","","","","","","","-1","798","","","","","","","","","","","","","","","","","","","","","","",""
"","fixation","","html-keyboard-response","255","916455","0.0-209.0","0","0","taNWE","Scenes","","null","","","null","","","","","","","","","","","","","","","","","","","","","","","","","","","","","","","","","","","","","","","","","","","",""
"","see_reward","","html-keyboard-response","256","916926","0.0-210.0","0","0","taNWE","Scenes","","469","","","32","","146","","23","","","","-1","","","","","1","","","","","0","469","","","","","","","","","","","","","","","","","","","","","","","","",""
"","reward_outcome","","html-keyboard-response","257","918935","0.0-211.0","0","0","taNWE","Scenes","","847","","","40","","146","","23","","","","","","","","","","","","","","","","-1","847","","","","","","","","","","","","","","","","","","","","","","",""
"","block_over","","html-keyboard-response","258","921134","0.0-213.0-0.0","0","0","taNWE","Scenes","","2198","","","78","","","","","","","","","","","","","","","","","","","","","","","","","","","","","","","","","","","","","","","","","","","",""
"","fixation","","html-keyboard-response","259","922140","0.0-214.0","0","0","taNWE","Scenes","","null","","","null","","","","","","","","","","","","","","","","","","","","","","","","","","","","","","","","","","","","","","","","","","","",""
"","see_reward","","html-keyboard-response","260","923902","0.0-215.0","0","0","taNWE","Scenes","","1760","","","32","","105","","24","","","","1","","","","","2","","","","","150","1760","","","","","","","","","","","","","","","","","","","","","","","","",""
"","reward_outcome","","html-keyboard-response","261","925921","0.0-216.0","0","0","taNWE","Scenes","","1022","","","38","","105","","24","","","","","","","","","","","","","","","","1","1022","","","","","","","","","","","","","","","","","","","","","","",""
"","fixation","","html-keyboard-response","262","926936","0.0-219.0","0","0","taNWE","Scenes","","null","","","null","","","","","","","","","","","","","","","","","","","","","","","","","","","","","","","","","","","","","","","","","","","",""
"","see_reward","","html-keyboard-response","263","927486","0.0-220.0","0","0","taNWE","Scenes","","548","","","32","","116","","25","","","","-1","","","","","2","","","","","0","548","","","","","","","","","","","","","","","","","","","","","","","","",""
"","reward_outcome","","html-keyboard-response","264","929495","0.0-221.0","0","0","taNWE","Scenes","","767","","","40","","116","","25","","","","","","","","","","","","","","","","-1","767","","","","","","","","","","","","","","","","","","","","","","",""
"","fixation","","html-keyboard-response","265","930505","0.0-224.0","0","0","taNWE","Scenes","","null","","","null","","","","","","","","","","","","","","","","","","","","","","","","","","","","","","","","","","","","","","","","","","","",""
"","see_reward","","html-keyboard-response","266","930974","0.0-225.0","0","0","taNWE","Scenes","","468","","","32","","104","","26","","","","-1","","","","","2","","","","","0","468","","","","","","","","","","","","","","","","","","","","","","","","",""
"","reward_outcome","","html-keyboard-response","267","932992","0.0-226.0","0","0","taNWE","Scenes","","830","","","40","","104","","26","","","","","","","","","","","","","","","","-1","830","","","","","","","","","","","","","","","","","","","","","","",""
"","fixation","","html-keyboard-response","268","934008","0.0-229.0","0","0","taNWE","Scenes","","null","","","null","","","","","","","","","","","","","","","","","","","","","","","","","","","","","","","","","","","","","","","","","","","",""
"","see_reward","","html-keyboard-response","269","934574","0.0-230.0","0","0","taNWE","Scenes","","564","","","32","","116","","27","","","","-1","","","","","2","","","","","0","564","","","","","","","","","","","","","","","","","","","","","","","","",""
"","reward_outcome","","html-keyboard-response","270","936586","0.0-231.0","0","0","taNWE","Scenes","","832","","","40","","116","","27","","","","","","","","","","","","","","","","-1","832","","","","","","","","","","","","","","","","","","","","","","",""
"","fixation","","html-keyboard-response","271","937602","0.0-234.0","0","0","taNWE","Scenes","","null","","","null","","","","","","","","","","","","","","","","","","","","","","","","","","","","","","","","","","","","","","","","","","","",""
"","see_reward","","html-keyboard-response","272","938110","0.0-235.0","0","0","taNWE","Scenes","","506","","","32","","120","","28","","","","-1","","","","","2","","","","","0","506","","","","","","","","","","","","","","","","","","","","","","","","",""
"","reward_outcome","","html-keyboard-response","273","940130","0.0-236.0","0","0","taNWE","Scenes","","862","","","40","","120","","28","","","","","","","","","","","","","","","","-1","862","","","","","","","","","","","","","","","","","","","","","","",""
"","fixation","","html-keyboard-response","274","941137","0.0-239.0","0","0","taNWE","Scenes","","null","","","null","","","","","","","","","","","","","","","","","","","","","","","","","","","","","","","","","","","","","","","","","","","",""
"","see_reward","","html-keyboard-response","275","941662","0.0-240.0","0","0","taNWE","Scenes","","523","","","32","","140","","29","","","","1","","","","","2","","","","","155","523","","","","","","","","","","","","","","","","","","","","","","","","",""
"","reward_outcome","","html-keyboard-response","276","943678","0.0-241.0","0","0","taNWE","Scenes","","815","","","38","","140","","29","","","","","","","","","","","","","","","","1","815","","","","","","","","","","","","","","","","","","","","","","",""
"","fixation","","html-keyboard-response","277","944693","0.0-244.0","0","0","taNWE","Scenes","","null","","","null","","","","","","","","","","","","","","","","","","","","","","","","","","","","","","","","","","","","","","","","","","","",""
"","see_reward","","html-keyboard-response","278","945150","0.0-245.0","0","0","taNWE","Scenes","","456","","","32","","136","","30","","","","-1","","","","","2","","","","","0","456","","","","","","","","","","","","","","","","","","","","","","","","",""
"","reward_outcome","","html-keyboard-response","279","947168","0.0-246.0","0","0","taNWE","Scenes","","848","","","40","","136","","30","","","","","","","","","","","","","","","","-1","848","","","","","","","","","","","","","","","","","","","","","","",""
"","fixation","","html-keyboard-response","280","948186","0.0-249.0","0","0","taNWE","Scenes","","null","","","null","","","","","","","","","","","","","","","","","","","","","","","","","","","","","","","","","","","","","","","","","","","",""
"","see_reward","","html-keyboard-response","281","948622","0.0-250.0","0","0","taNWE","Scenes","","434","","","32","","146","","31","","","","-1","","","","","2","","","","","0","434","","","","","","","","","","","","","","","","","","","","","","","","",""
"","reward_outcome","","html-keyboard-response","282","950642","0.0-251.0","0","0","taNWE","Scenes","","718","","","40","","146","","31","","","","","","","","","","","","","","","","-1","718","","","","","","","","","","","","","","","","","","","","","","",""
"","fixation","","html-keyboard-response","283","951666","0.0-254.0","0","0","taNWE","Scenes","","null","","","null","","","","","","","","","","","","","","","","","","","","","","","","","","","","","","","","","","","","","","","","","","","",""
"","see_reward","","html-keyboard-response","284","952062","0.0-255.0","0","0","taNWE","Scenes","","394","","","32","","120","","32","","","","-1","","","","","2","","","","","0","394","","","","","","","","","","","","","","","","","","","","","","","","",""
"","reward_outcome","","html-keyboard-response","285","954077","0.0-256.0","0","0","taNWE","Scenes","","751","","","40","","120","","32","","","","","","","","","","","","","","","","-1","751","","","","","","","","","","","","","","","","","","","","","","",""
"","fixation","","html-keyboard-response","286","955088","0.0-259.0","0","0","taNWE","Scenes","","null","","","null","","","","","","","","","","","","","","","","","","","","","","","","","","","","","","","","","","","","","","","","","","","",""
"","see_reward","","html-keyboard-response","287","955486","0.0-260.0","0","0","taNWE","Scenes","","397","","","32","","119","","33","","","","1","","","","","2","","","","","141","397","","","","","","","","","","","","","","","","","","","","","","","","",""
"","reward_outcome","","html-keyboard-response","288","957494","0.0-261.0","0","0","taNWE","Scenes","","767","","","38","","119","","33","","","","","","","","","","","","","","","","1","767","","","","","","","","","","","","","","","","","","","","","","",""
"","fixation","","html-keyboard-response","289","958508","0.0-264.0","0","0","taNWE","Scenes","","null","","","null","","","","","","","","","","","","","","","","","","","","","","","","","","","","","","","","","","","","","","","","","","","",""
"","see_reward","","html-keyboard-response","290","958925","0.0-265.0","0","0","taNWE","Scenes","","415","","","32","","147","","34","","","","1","","","","","2","","","","","157","415","","","","","","","","","","","","","","","","","","","","","","","","",""
"","reward_outcome","","html-keyboard-response","291","960939","0.0-266.0","0","0","taNWE","Scenes","","590","","","38","","147","","34","","","","","","","","","","","","","","","","1","590","","","","","","","","","","","","","","","","","","","","","","",""
"","fixation","","html-keyboard-response","292","961950","0.0-269.0","0","0","taNWE","Scenes","","null","","","null","","","","","","","","","","","","","","","","","","","","","","","","","","","","","","","","","","","","","","","","","","","",""
"","see_reward","","html-keyboard-response","293","962382","0.0-270.0","0","0","taNWE","Scenes","","430","","","32","","140","","35","","","","1","","","","","2","","","","","155","430","","","","","","","","","","","","","","","","","","","","","","","","",""
"","reward_outcome","","html-keyboard-response","294","964401","0.0-271.0","0","0","taNWE","Scenes","","734","","","38","","140","","35","","","","","","","","","","","","","","","","1","734","","","","","","","","","","","","","","","","","","","","","","",""
"","fixation","","html-keyboard-response","295","965410","0.0-274.0","0","0","taNWE","Scenes","","null","","","null","","","","","","","","","","","","","","","","","","","","","","","","","","","","","","","","","","","","","","","","","","","",""
"","see_reward","","html-keyboard-response","296","965853","0.0-275.0","0","0","taNWE","Scenes","","442","","","32","","130","","36","","","","1","","","","","2","","","","","159","442","","","","","","","","","","","","","","","","","","","","","","","","",""
"","reward_outcome","","html-keyboard-response","297","967862","0.0-276.0","0","0","taNWE","Scenes","","702","","","38","","130","","36","","","","","","","","","","","","","","","","1","702","","","","","","","","","","","","","","","","","","","","","","",""
"","fixation","","html-keyboard-response","298","968870","0.0-279.0","0","0","taNWE","Scenes","","null","","","null","","","","","","","","","","","","","","","","","","","","","","","","","","","","","","","","","","","","","","","","","","","",""
"","see_reward","","html-keyboard-response","299","969277","0.0-280.0","0","0","taNWE","Scenes","","405","","","32","","119","","37","","","","1","","","","","2","","","","","141","405","","","","","","","","","","","","","","","","","","","","","","","","",""
"","reward_outcome","","html-keyboard-response","300","971287","0.0-281.0","0","0","taNWE","Scenes","","656","","","38","","119","","37","","","","","","","","","","","","","","","","1","656","","","","","","","","","","","","","","","","","","","","","","",""
"","fixation","","html-keyboard-response","301","972299","0.0-284.0","0","0","taNWE","Scenes","","null","","","null","","","","","","","","","","","","","","","","","","","","","","","","","","","","","","","","","","","","","","","","","","","",""
"","see_reward","","html-keyboard-response","302","972733","0.0-285.0","0","0","taNWE","Scenes","","432","","","32","","127","","38","","","","-1","","","","","2","","","","","0","432","","","","","","","","","","","","","","","","","","","","","","","","",""
"","reward_outcome","","html-keyboard-response","303","974748","0.0-286.0","0","0","taNWE","Scenes","","686","","","40","","127","","38","","","","","","","","","","","","","","","","-1","686","","","","","","","","","","","","","","","","","","","","","","",""
"","fixation","","html-keyboard-response","304","975760","0.0-289.0","0","0","taNWE","Scenes","","null","","","null","","","","","","","","","","","","","","","","","","","","","","","","","","","","","","","","","","","","","","","","","","","",""
"","see_reward","","html-keyboard-response","305","976109","0.0-290.0","0","0","taNWE","Scenes","","348","","","32","","146","","39","","","","-1","","","","","2","","","","","0","348","","","","","","","","","","","","","","","","","","","","","","","","",""
"","reward_outcome","","html-keyboard-response","306","978125","0.0-291.0","0","0","taNWE","Scenes","","798","","","40","","146","","39","","","","","","","","","","","","","","","","-1","798","","","","","","","","","","","","","","","","","","","","","","",""
"","fixation","","html-keyboard-response","307","979141","0.0-294.0","0","0","taNWE","Scenes","","null","","","null","","","","","","","","","","","","","","","","","","","","","","","","","","","","","","","","","","","","","","","","","","","",""
"","see_reward","","html-keyboard-response","308","979597","0.0-295.0","0","0","taNWE","Scenes","","455","","","32","","101","","40","","","","1","","","","","2","","","","","148","455","","","","","","","","","","","","","","","","","","","","","","","","",""
"","reward_outcome","","html-keyboard-response","309","981613","0.0-296.0","0","0","taNWE","Scenes","","782","","","38","","101","","40","","","","","","","","","","","","","","","","1","782","","","","","","","","","","","","","","","","","","","","","","",""
"","fixation","","html-keyboard-response","310","982620","0.0-299.0","0","0","taNWE","Scenes","","null","","","null","","","","","","","","","","","","","","","","","","","","","","","","","","","","","","","","","","","","","","","","","","","",""
"","see_reward","","html-keyboard-response","311","983165","0.0-300.0","0","0","taNWE","Scenes","","543","","","32","","105","","41","","","","1","","","","","2","","","","","150","543","","","","","","","","","","","","","","","","","","","","","","","","",""
"","reward_outcome","","html-keyboard-response","312","985177","0.0-301.0","0","0","taNWE","Scenes","","767","","","38","","105","","41","","","","","","","","","","","","","","","","1","767","","","","","","","","","","","","","","","","","","","","","","",""
"","fixation","","html-keyboard-response","313","986186","0.0-304.0","0","0","taNWE","Scenes","","null","","","null","","","","","","","","","","","","","","","","","","","","","","","","","","","","","","","","","","","","","","","","","","","",""
"","see_reward","","html-keyboard-response","314","986669","0.0-305.0","0","0","taNWE","Scenes","","481","","","32","","101","","42","","","","1","","","","","2","","","","","148","481","","","","","","","","","","","","","","","","","","","","","","","","",""
"","reward_outcome","","html-keyboard-response","315","988684","0.0-306.0","0","0","taNWE","Scenes","","783","","","38","","101","","42","","","","","","","","","","","","","","","","1","783","","","","","","","","","","","","","","","","","","","","","","",""
"","fixation","","html-keyboard-response","316","989700","0.0-309.0","0","0","taNWE","Scenes","","null","","","null","","","","","","","","","","","","","","","","","","","","","","","","","","","","","","","","","","","","","","","","","","","",""
"","see_reward","","html-keyboard-response","317","990237","0.0-310.0","0","0","taNWE","Scenes","","535","","","32","","147","","43","","","","1","","","","","2","","","","","157","535","","","","","","","","","","","","","","","","","","","","","","","","",""
"","reward_outcome","","html-keyboard-response","318","992247","0.0-311.0","0","0","taNWE","Scenes","","830","","","38","","147","","43","","","","","","","","","","","","","","","","1","830","","","","","","","","","","","","","","","","","","","","","","",""
"","fixation","","html-keyboard-response","319","993260","0.0-314.0","0","0","taNWE","Scenes","","null","","","null","","","","","","","","","","","","","","","","","","","","","","","","","","","","","","","","","","","","","","","","","","","",""
"","see_reward","","html-keyboard-response","320","993629","0.0-315.0","0","0","taNWE","Scenes","","368","","","32","","130","","44","","","","1","","","","","2","","","","","159","368","","","","","","","","","","","","","","","","","","","","","","","","",""
"","reward_outcome","","html-keyboard-response","321","995641","0.0-316.0","0","0","taNWE","Scenes","","654","","","38","","130","","44","","","","","","","","","","","","","","","","1","654","","","","","","","","","","","","","","","","","","","","","","",""
"","fixation","","html-keyboard-response","322","996648","0.0-319.0","0","0","taNWE","Scenes","","null","","","null","","","","","","","","","","","","","","","","","","","","","","","","","","","","","","","","","","","","","","","","","","","",""
"","see_reward","","html-keyboard-response","323","997149","0.0-320.0","0","0","taNWE","Scenes","","499","","","32","","127","","45","","","","-1","","","","","2","","","","","0","499","","","","","","","","","","","","","","","","","","","","","","","","",""
"","reward_outcome","","html-keyboard-response","324","999167","0.0-321.0","0","0","taNWE","Scenes","","702","","","40","","127","","45","","","","","","","","","","","","","","","","-1","702","","","","","","","","","","","","","","","","","","","","","","",""
"","fixation","","html-keyboard-response","325","1000176","0.0-324.0","0","0","taNWE","Scenes","","null","","","null","","","","","","","","","","","","","","","","","","","","","","","","","","","","","","","","","","","","","","","","","","","",""
"","see_reward","","html-keyboard-response","326","1000621","0.0-325.0","0","0","taNWE","Scenes","","444","","","32","","104","","46","","","","-1","","","","","2","","","","","0","444","","","","","","","","","","","","","","","","","","","","","","","","",""
"","reward_outcome","","html-keyboard-response","327","1002638","0.0-326.0","0","0","taNWE","Scenes","","655","","","40","","104","","46","","","","","","","","","","","","","","","","-1","655","","","","","","","","","","","","","","","","","","","","","","",""
"","fixation","","html-keyboard-response","328","1003653","0.0-329.0","0","0","taNWE","Scenes","","null","","","null","","","","","","","","","","","","","","","","","","","","","","","","","","","","","","","","","","","","","","","","","","","",""
"","see_reward","","html-keyboard-response","329","1004061","0.0-330.0","0","0","taNWE","Scenes","","406","","","32","","136","","47","","","","-1","","","","","2","","","","","0","406","","","","","","","","","","","","","","","","","","","","","","","","",""
"","reward_outcome","","html-keyboard-response","330","1006073","0.0-331.0","0","0","taNWE","Scenes","","462","","","40","","136","","47","","","","","","","","","","","","","","","","-1","462","","","","","","","","","","","","","","","","","","","","","","",""
"","block_over","","html-keyboard-response","331","1008013","0.0-333.0-0.0","0","0","taNWE","Scenes","","1939","","","78","","","","","","","","","","","","","","","","","","","","","","","","","","","","","","","","","","","","","","","","","","","",""
"","fixation","","html-keyboard-response","332","1009023","0.0-334.0","0","0","taNWE","Scenes","","null","","","null","","","","","","","","","","","","","","","","","","","","","","","","","","","","","","","","","","","","","","","","","","","",""
"","see_reward","","html-keyboard-response","333","1010205","0.0-335.0","0","0","taNWE","Scenes","","1180","","","32","","136","","48","","","","-1","","","","","3","","","","","0","1180","","","","","","","","","","","","","","","","","","","","","","","","",""
"","reward_outcome","","html-keyboard-response","334","1012221","0.0-336.0","0","0","taNWE","Scenes","","607","","","40","","136","","48","","","","","","","","","","","","","","","","-1","607","","","","","","","","","","","","","","","","","","","","","","",""
"","fixation","","html-keyboard-response","335","1013230","0.0-339.0","0","0","taNWE","Scenes","","null","","","null","","","","","","","","","","","","","","","","","","","","","","","","","","","","","","","","","","","","","","","","","","","",""
"","see_reward","","html-keyboard-response","336","1013661","0.0-340.0","0","0","taNWE","Scenes","","430","","","32","","140","","49","","","","1","","","","","3","","","","","155","430","","","","","","","","","","","","","","","","","","","","","","","","",""
"","reward_outcome","","html-keyboard-response","337","1015668","0.0-341.0","0","0","taNWE","Scenes","","686","","","38","","140","","49","","","","","","","","","","","","","","","","1","686","","","","","","","","","","","","","","","","","","","","","","",""
"","fixation","","html-keyboard-response","338","1016685","0.0-344.0","0","0","taNWE","Scenes","","null","","","null","","","","","","","","","","","","","","","","","","","","","","","","","","","","","","","","","","","","","","","","","","","",""
"","see_reward","","html-keyboard-response","339","1017181","0.0-345.0","0","0","taNWE","Scenes","","494","","","32","","105","","50","","","","1","","","","","3","","","","","150","494","","","","","","","","","","","","","","","","","","","","","","","","",""
"","reward_outcome","","html-keyboard-response","340","1019194","0.0-346.0","0","0","taNWE","Scenes","","638","","","38","","105","","50","","","","","","","","","","","","","","","","1","638","","","","","","","","","","","","","","","","","","","","","","",""
"","fixation","","html-keyboard-response","341","1020197","0.0-349.0","0","0","taNWE","Scenes","","null","","","null","","","","","","","","","","","","","","","","","","","","","","","","","","","","","","","","","","","","","","","","","","","",""
"","see_reward","","html-keyboard-response","342","1020797","0.0-350.0","0","0","taNWE","Scenes","","599","","","32","","146","","51","","","","-1","","","","","3","","","","","0","599","","","","","","","","","","","","","","","","","","","","","","","","",""
"","reward_outcome","","html-keyboard-response","343","1022818","0.0-351.0","0","0","taNWE","Scenes","","702","","","40","","146","","51","","","","","","","","","","","","","","","","-1","702","","","","","","","","","","","","","","","","","","","","","","",""
"","fixation","","html-keyboard-response","344","1023841","0.0-354.0","0","0","taNWE","Scenes","","null","","","null","","","","","","","","","","","","","","","","","","","","","","","","","","","","","","","","","","","","","","","","","","","",""
"","see_reward","","html-keyboard-response","345","1024429","0.0-355.0","0","0","taNWE","Scenes","","586","","","32","","116","","52","","","","-1","","","","","3","","","","","0","586","","","","","","","","","","","","","","","","","","","","","","","","",""
"","reward_outcome","","html-keyboard-response","346","1026445","0.0-356.0","0","0","taNWE","Scenes","","510","","","40","","116","","52","","","","","","","","","","","","","","","","-1","510","","","","","","","","","","","","","","","","","","","","","","",""
"","fixation","","html-keyboard-response","347","1027466","0.0-359.0","0","0","taNWE","Scenes","","null","","","null","","","","","","","","","","","","","","","","","","","","","","","","","","","","","","","","","","","","","","","","","","","",""
"","see_reward","","html-keyboard-response","348","1027901","0.0-360.0","0","0","taNWE","Scenes","","433","","","32","","147","","53","","","","1","","","","","3","","","","","157","433","","","","","","","","","","","","","","","","","","","","","","","","",""
"","reward_outcome","","html-keyboard-response","349","1029917","0.0-361.0","0","0","taNWE","Scenes","","814","","","38","","147","","53","","","","","","","","","","","","","","","","1","814","","","","","","","","","","","","","","","","","","","","","","",""
