"success","ttype","start_time","trial_type","trial_index","time_elapsed","internal_node_id","warning","missed_checkup","PID","stim_type","view_history","rt","responses","repeat_instructions","key_press","response","stimulus_id","painting","index","stimulus_left","stimulus_right","explain_trial","reward_type","rating_left","rating_right","painting_left","painting_right","block","left_chosen","chosen_obj","unchosen_obj","explain_response","reward_amount","see_reward_rt","register_reward_response","register_reward_rt","deliberation_reward_tally","stimulus_left_deliberation_ind","stimulus_right_deliberation_ind","chosen_trial","gain_left","higher_outcome_chosen","old_pair","chosen_object","rt_pairs","left_object_chosen","rt_object","old_response","new_rating","deliberated_stim","initial_rating","outcome_eval_rt","outcome_eval_response","outcome_eval_gain","outcome_eval_acc","preamble","outcome_eval_confidence","outcome_eval_confidence_rt","total_reward_tally"
"true","full_screen","d01192023hr2041","fullscreen","0","11795","0.0-0.0","0","0","Dw8mv","Scenes","","","","","","","","","","","","","","","","","","","","","","","","","","","","","","","","","","","","","","","","","","","","","","","","",""
"","rating_instructions","","instructions","1","20732","0.0-1.0-0.0","0","0","Dw8mv","Scenes","[{""page_index"":0,""viewing_time"":6814},{""page_index"":1,""viewing_time"":2121}]","8935","","","","","","","","","","","","","","","","","","","","","","","","","","","","","","","","","","","","","","","","","","","","","","",""
"","rating_comprehension_check","","survey-multi-choice","2","29425","0.0-1.0-1.0","0","0","Dw8mv","Scenes","","8691","{""Q0"":""True"",""Q1"":""Mouse""}","0","","","","","","","","","","","","","","","","","","","","","","","","","","","","","","","","","","","","","","","","","","","","",""
"","start_phase","","html-keyboard-response","3","31943","0.0-2.0","0","0","Dw8mv","Scenes","","2516","","","78","","","","","","","","","","","","","","","","","","","","","","","","","","","","","","","","","","","","","","","","","","","",""
"","rating","","html-slider-response","4","36768","0.0-3.0","0","0","Dw8mv","Scenes","","4823","","","","78","109","brigitta-schneiter-hXXRLtTxXCU-unsplash.jpg","0","","","","","","","","","","","","","","","","","","","","","","","","","","","","","","","","","","","","","","","",""
"","rating","","html-slider-response","5","40088","0.0-4.0","0","0","Dw8mv","Scenes","","3319","","","","68","116","david-marcu-W5MhJ6cy1So-unsplash.jpg","1","","","","","","","","","","","","","","","","","","","","","","","","","","","","","","","","","","","","","","","",""
"","rating","","html-slider-response","6","42829","0.0-5.0","0","0","Dw8mv","Scenes","","2740","","","","100","128","karsten-wurth-jS0zC2PJ17A-unsplash.jpg","2","","","","","","","","","","","","","","","","","","","","","","","","","","","","","","","","","","","","","","","",""
"","rating","","html-slider-response","7","45122","0.0-6.0","0","0","Dw8mv","Scenes","","2291","","","","80","135","mohammad-alizade-4wzRuAb-KWs-unsplash.jpg","3","","","","","","","","","","","","","","","","","","","","","","","","","","","","","","","","","","","","","","","",""
"","rating","","html-slider-response","8","48072","0.0-7.0","0","0","Dw8mv","Scenes","","2949","","","","46","100","aleksandra-boguslawska-MS7KD9Ti7FQ-unsplash.jpg","4","","","","","","","","","","","","","","","","","","","","","","","","","","","","","","","","","","","","","","","",""
"","rating","","html-slider-response","9","51520","0.0-8.0","0","0","Dw8mv","Scenes","","3446","","","","100","141","sebastian-unrau-v4e3JI7DDHI-unsplash.jpg","5","","","","","","","","","","","","","","","","","","","","","","","","","","","","","","","","","","","","","","","",""
"","rating","","html-slider-response","10","54071","0.0-9.0","0","0","Dw8mv","Scenes","","2550","","","","48","139","samsommer-vddccTqwal8-unsplash.jpg","6","","","","","","","","","","","","","","","","","","","","","","","","","","","","","","","","","","","","","","","",""
"","rating","","html-slider-response","11","57242","0.0-10.0","0","0","Dw8mv","Scenes","","3170","","","","41","149","yuriy-bogdanov-W51VK3Obcj0-unsplash.jpg","7","","","","","","","","","","","","","","","","","","","","","","","","","","","","","","","","","","","","","","","",""
"","rating","","html-slider-response","12","63124","0.0-11.0","0","0","Dw8mv","Scenes","","5882","","","","79","112","cosmic-timetraveler-pYyOZ8q7AII-unsplash.jpg","8","","","","","","","","","","","","","","","","","","","","","","","","","","","","","","","","","","","","","","","",""
"","rating","","html-slider-response","13","66647","0.0-12.0","0","0","Dw8mv","Scenes","","3521","","","","31","118","henry-be-NLF6hTe4PAg-unsplash.jpg","9","","","","","","","","","","","","","","","","","","","","","","","","","","","","","","","","","","","","","","","",""
"","rating","","html-slider-response","14","69517","0.0-13.0","0","0","Dw8mv","Scenes","","2869","","","","82","131","luca-bravo-hFzIoD0F_i8-unsplash.jpg","10","","","","","","","","","","","","","","","","","","","","","","","","","","","","","","","","","","","","","","","",""
"","rating","","html-slider-response","15","72577","0.0-14.0","0","0","Dw8mv","Scenes","","3059","","","","90","103","anton-darius-FBJugtbHsWU-unsplash.jpg","11","","","","","","","","","","","","","","","","","","","","","","","","","","","","","","","","","","","","","","","",""
"","rating","","html-slider-response","16","74815","0.0-15.0","0","0","Dw8mv","Scenes","","2236","","","","100","148","tom-gainor-ZqLeQDjY6fY-unsplash.jpg","12","","","","","","","","","","","","","","","","","","","","","","","","","","","","","","","","","","","","","","","",""
"","rating","","html-slider-response","17","77875","0.0-16.0","0","0","Dw8mv","Scenes","","3058","","","","71","101","aniket-deole-T-tOgjWZ0fQ-unsplash.jpg","13","","","","","","","","","","","","","","","","","","","","","","","","","","","","","","","","","","","","","","","",""
"","rating","","html-slider-response","18","81059","0.0-17.0","0","0","Dw8mv","Scenes","","3182","","","","86","130","lina-loos-04-C1NZk1hE-unsplash.jpg","14","","","","","","","","","","","","","","","","","","","","","","","","","","","","","","","","","","","","","","","",""
"","rating","","html-slider-response","19","83496","0.0-18.0","0","0","Dw8mv","Scenes","","2437","","","","100","145","stephen-leonardi-gyIRjKPXupE-unsplash.jpg","15","","","","","","","","","","","","","","","","","","","","","","","","","","","","","","","","","","","","","","","",""
"","rating","","html-slider-response","20","86513","0.0-19.0","0","0","Dw8mv","Scenes","","3015","","","","50","102","anisur-rahman-K2b7UDed6uQ-unsplash.jpg","16","","","","","","","","","","","","","","","","","","","","","","","","","","","","","","","","","","","","","","","",""
"","rating","","html-slider-response","21","89385","0.0-20.0","0","0","Dw8mv","Scenes","","2871","","","","76","146","thomas-morse-cuKKa0vWZSY-unsplash.jpg","17","","","","","","","","","","","","","","","","","","","","","","","","","","","","","","","","","","","","","","","",""
"","rating","","html-slider-response","22","91711","0.0-21.0","0","0","Dw8mv","Scenes","","2325","","","","100","124","johannes-plenio-sPt5RIjKfpk-unsplash.jpg","18","","","","","","","","","","","","","","","","","","","","","","","","","","","","","","","","","","","","","","","",""
"","rating","","html-slider-response","23","94433","0.0-22.0","0","0","Dw8mv","Scenes","","2720","","","","75","143","sigurdur-fjalar-jonsson-1KxBabIntpE-unsplash.jpg","19","","","","","","","","","","","","","","","","","","","","","","","","","","","","","","","","","","","","","","","",""
"","rating","","html-slider-response","24","96969","0.0-23.0","0","0","Dw8mv","Scenes","","2535","","","","31","136","nicolas-jehly-LzVB84KkZOE-unsplash.jpg","20","","","","","","","","","","","","","","","","","","","","","","","","","","","","","","","","","","","","","","","",""
"","rating","","html-slider-response","25","99827","0.0-24.0","0","0","Dw8mv","Scenes","","2857","","","","82","140","samuele-errico-piccarini-JEBqFu2AOOA-unsplash.jpg","21","","","","","","","","","","","","","","","","","","","","","","","","","","","","","","","","","","","","","","","",""
"","rating","","html-slider-response","26","102983","0.0-25.0","0","0","Dw8mv","Scenes","","3154","","","","50","133","mickey-o-neil-xL66l--msXU-unsplash.jpg","22","","","","","","","","","","","","","","","","","","","","","","","","","","","","","","","","","","","","","","","",""
"","rating","","html-slider-response","27","105817","0.0-26.0","0","0","Dw8mv","Scenes","","2834","","","","51","138","petr-vysohlid-9fqwGqGLUxc-unsplash.jpg","23","","","","","","","","","","","","","","","","","","","","","","","","","","","","","","","","","","","","","","","",""
"","rating","","html-slider-response","28","108344","0.0-27.0","0","0","Dw8mv","Scenes","","2526","","","","79","127","kace-rodriguez-p3OzJuT_Dks-unsplash.jpg","24","","","","","","","","","","","","","","","","","","","","","","","","","","","","","","","","","","","","","","","",""
"","rating","","html-slider-response","29","112642","0.0-28.0","0","0","Dw8mv","Scenes","","4297","","","","56","114","daniel-sessler-z_9VmsxR8hs-unsplash.jpg","25","","","","","","","","","","","","","","","","","","","","","","","","","","","","","","","","","","","","","","","",""
"","rating","","html-slider-response","30","115378","0.0-29.0","0","0","Dw8mv","Scenes","","2734","","","","73","144","solotravelgoals-7kLufxYoqWk-unsplash.jpg","26","","","","","","","","","","","","","","","","","","","","","","","","","","","","","","","","","","","","","","","",""
"","rating","","html-slider-response","31","117828","0.0-30.0","0","0","Dw8mv","Scenes","","2450","","","","25","106","ashim-d-silva-WeYamle9fDM-unsplash.jpg","27","","","","","","","","","","","","","","","","","","","","","","","","","","","","","","","","","","","","","","","",""
"","rating","","html-slider-response","32","120477","0.0-31.0","0","0","Dw8mv","Scenes","","2647","","","","29","107","benjamin-davies-Zm2n2O7Fph4-unsplash.jpg","28","","","","","","","","","","","","","","","","","","","","","","","","","","","","","","","","","","","","","","","",""
"","rating","","html-slider-response","33","122892","0.0-32.0","0","0","Dw8mv","Scenes","","2415","","","","0","105","ashim-d-silva-S2Q5mdOrrVc-unsplash.jpg","29","","","","","","","","","","","","","","","","","","","","","","","","","","","","","","","","","","","","","","","",""
"","rating","","html-slider-response","34","125821","0.0-33.0","0","0","Dw8mv","Scenes","","2927","","","","50","126","jordan-mcqueen-PJCZOWuOxbU-unsplash.jpg","30","","","","","","","","","","","","","","","","","","","","","","","","","","","","","","","","","","","","","","","",""
"","rating","","html-slider-response","35","129461","0.0-34.0","0","0","Dw8mv","Scenes","","3639","","","","78","142","sergey-pesterev-y-b_FOmJXdg-unsplash.jpg","31","","","","","","","","","","","","","","","","","","","","","","","","","","","","","","","","","","","","","","","",""
"","rating","","html-slider-response","36","131898","0.0-35.0","0","0","Dw8mv","Scenes","","2436","","","","100","104","artem-sapegin-XGDBdSQ70O0-unsplash.jpg","32","","","","","","","","","","","","","","","","","","","","","","","","","","","","","","","","","","","","","","","",""
"","rating","","html-slider-response","37","134452","0.0-36.0","0","0","Dw8mv","Scenes","","2553","","","","38","122","jeff-king-bJHWJeiHfHc-unsplash.jpg","33","","","","","","","","","","","","","","","","","","","","","","","","","","","","","","","","","","","","","","","",""
"","rating","","html-slider-response","38","136615","0.0-37.0","0","0","Dw8mv","Scenes","","2162","","","","50","115","darrell-cassell-hoCXpPUMCoE-unsplash.jpg","34","","","","","","","","","","","","","","","","","","","","","","","","","","","","","","","","","","","","","","","",""
"","rating","","html-slider-response","39","139190","0.0-38.0","0","0","Dw8mv","Scenes","","2574","","","","100","147","tobias-keller-73F4pKoUkM0-unsplash.jpg","35","","","","","","","","","","","","","","","","","","","","","","","","","","","","","","","","","","","","","","","",""
"","rating","","html-slider-response","40","141485","0.0-39.0","0","0","Dw8mv","Scenes","","2294","","","","100","110","bruno-van-der-kraan-qez8mNJ3ilU-unsplash.jpg","36","","","","","","","","","","","","","","","","","","","","","","","","","","","","","","","","","","","","","","","",""
"","rating","","html-slider-response","41","143620","0.0-40.0","0","0","Dw8mv","Scenes","","2134","","","","100","137","olga-stalska-QaWRyEdlffY-unsplash.jpg","37","","","","","","","","","","","","","","","","","","","","","","","","","","","","","","","","","","","","","","","",""
"","rating","","html-slider-response","42","146071","0.0-41.0","0","0","Dw8mv","Scenes","","2450","","","","47","111","claudio-testa-U3F2o6vz3bs-unsplash.jpg","38","","","","","","","","","","","","","","","","","","","","","","","","","","","","","","","","","","","","","","","",""
"","rating","","html-slider-response","43","148548","0.0-42.0","0","0","Dw8mv","Scenes","","2476","","","","72","134","milada-vigerova-pQMM63GE7fo-unsplash.jpg","39","","","","","","","","","","","","","","","","","","","","","","","","","","","","","","","","","","","","","","","",""
"","rating","","html-slider-response","44","150384","0.0-43.0","0","0","Dw8mv","Scenes","","1835","","","","100","119","james-wheeler-AFC0XvICMgs-unsplash.jpg","40","","","","","","","","","","","","","","","","","","","","","","","","","","","","","","","","","","","","","","","",""
"","rating","","html-slider-response","45","152869","0.0-44.0","0","0","Dw8mv","Scenes","","2484","","","","74","123","joel-jasmin-forestbird-efuwb5eBDrI-unsplash.jpg","41","","","","","","","","","","","","","","","","","","","","","","","","","","","","","","","","","","","","","","","",""
"","rating","","html-slider-response","46","157622","0.0-45.0","0","0","Dw8mv","Scenes","","4751","","","","66","108","benjamin-voros-phIFdC6lA4E-unsplash.jpg","42","","","","","","","","","","","","","","","","","","","","","","","","","","","","","","","","","","","","","","","",""
"","rating","","html-slider-response","47","160535","0.0-46.0","0","0","Dw8mv","Scenes","","2912","","","","46","117","frank-mckenna-OD9EOzfSOh0-unsplash.jpg","43","","","","","","","","","","","","","","","","","","","","","","","","","","","","","","","","","","","","","","","",""
"","rating","","html-slider-response","48","164377","0.0-47.0","0","0","Dw8mv","Scenes","","3841","","","","100","125","john-lee-oMneOBYhJxY-unsplash.jpg","44","","","","","","","","","","","","","","","","","","","","","","","","","","","","","","","","","","","","","","","",""
"","rating","","html-slider-response","49","168096","0.0-48.0","0","0","Dw8mv","Scenes","","3717","","","","73","120","jarrett-kow-1ZOyYPOBn7I-unsplash.jpg","45","","","","","","","","","","","","","","","","","","","","","","","","","","","","","","","","","","","","","","","",""
"","rating","","html-slider-response","50","170998","0.0-49.0","0","0","Dw8mv","Scenes","","2901","","","","50","132","meng-ji-8BH_M-53CyA-unsplash.jpg","46","","","","","","","","","","","","","","","","","","","","","","","","","","","","","","","","","","","","","","","",""
"","rating","","html-slider-response","51","174635","0.0-50.0","0","0","Dw8mv","Scenes","","3636","","","","35","121","jean-pierre-brungs-qxCqkbF7tUc-unsplash.jpg","47","","","","","","","","","","","","","","","","","","","","","","","","","","","","","","","","","","","","","","","",""
"","rating","","html-slider-response","52","177202","0.0-51.0","0","0","Dw8mv","Scenes","","2566","","","","26","129","kurt-cotoaga-cqbLg3lZEpk-unsplash.jpg","48","","","","","","","","","","","","","","","","","","","","","","","","","","","","","","","","","","","","","","","",""
"","rating","","html-slider-response","53","180020","0.0-52.0","0","0","Dw8mv","Scenes","","2817","","","","0","113","damian-denis-D8R_txR_0PE-unsplash.jpg","49","","","","","","","","","","","","","","","","","","","","","","","","","","","","","","","","","","","","","","","",""
"","deliberation_instructions","","instructions","54","247253","0.0-53.0-0.0","0","0","Dw8mv","Scenes","[{""page_index"":0,""viewing_time"":19168},{""page_index"":1,""viewing_time"":14449},{""page_index"":2,""viewing_time"":9269},{""page_index"":3,""viewing_time"":22200},{""page_index"":4,""viewing_time"":2144}]","67231","","","","","","","","","","","","","","","","","","","","","","","","","","","","","","","","","","","","","","","","","","","","","","",""
"","deliberation_comprehension_check","","survey-multi-choice","55","280477","0.0-53.0-1.0","0","0","Dw8mv","Scenes","","33220","{""Q0"":""True"",""Q1"":""True"",""Q2"":""Consider carefully and take your time (up to 10 seconds)"",""Q3"":""False"",""Q4"":""D""}","1","","","","","","","","","","","","","","","","","","","","","","","","","","","","","","","","","","","","","","","","","","","","",""
"","missed_instruction_checkup","","html-keyboard-response","56","284325","0.0-53.0-2.0-0.0","0","1","Dw8mv","Scenes","","3846","","","78","","","","","","","","","","","","","","","","","","","","","","","","","","","","","","","","","","","","","","","","","","","",""
"","deliberation_instructions","","instructions","57","304535","0.0-53.1-0.1","0","0","Dw8mv","Scenes","[{""page_index"":0,""viewing_time"":4006},{""page_index"":1,""viewing_time"":4575},{""page_index"":2,""viewing_time"":8858},{""page_index"":3,""viewing_time"":1902},{""page_index"":4,""viewing_time"":869}]","20210","","","","","","","","","","","","","","","","","","","","","","","","","","","","","","","","","","","","","","","","","","","","","","",""
"","deliberation_comprehension_check","","survey-multi-choice","58","326102","0.0-53.1-1.1","0","0","Dw8mv","Scenes","","21565","{""Q0"":""True"",""Q1"":""True"",""Q2"":""Consider carefully and take your time (up to 10 seconds)"",""Q3"":""True"",""Q4"":""D""}","0","","","","","","","","","","","","","","","","","","","","","","","","","","","","","","","","","","","","","","","","","","","","",""
"","start_phase","","html-keyboard-response","59","329299","0.0-54.0","0","0","Dw8mv","Scenes","","3195","","","78","","","","","","","","","","","","","","","","","","","","","","","","","","","","","","","","","","","","","","","","","","","",""
"","first_deliberation_block","","html-keyboard-response","60","333075","0.0-55.0","0","0","Dw8mv","Scenes","","3775","","","78","","","","","","","","","","","","","","","","","","","","","","","","","","","","","","","","","","","","","","","","","","","",""
"","fixation","","html-keyboard-response","61","334084","0.0-56.0-0.0","0","0","Dw8mv","Scenes","","null","","","null","","","","","","","","","","","","","","","","","","","","","","","","","","","","","","","","","","","","","","","","","","","",""
"","deliberation","","html-keyboard-response","62","335801","0.0-56.0-1.0","0","0","Dw8mv","Scenes","","1716","","","68","","","","0","127","146","1","-1","79","76","kace-rodriguez-p3OzJuT_Dks-unsplash.jpg","thomas-morse-cuKKa0vWZSY-unsplash.jpg","1","1","127","146","","","","","","","","","","","","","","","","","","","","","","","","","","","",""
"","choice_confirmation","","html-keyboard-response","63","336320","0.0-56.0-2.0-0.0","0","0","Dw8mv","Scenes","","null","","","null","","","","0","127","146","","","","","","","","","","","","","","","","","","","","","","","","","","","","","","","","","","","","","",""
"","explain_trial","","survey-text","64","364753","0.0-56.0-5.0-0.0","0","0","Dw8mv","Scenes","","28432","{""Q0"":""It gives a sense of comfort and I would love a painting like it for my home. ""}","","","","","","0","127","146","","","","","","","","","","","{""Q0"":""It gives a sense of comfort and I would love a painting like it for my home. ""}","","","","","","","","","","","","","","","","","","","","","","","","","","",""
"","fixation","","html-keyboard-response","65","365761","0.0-57.0-0.0","0","0","Dw8mv","Scenes","","null","","","null","","","","","","","","","","","","","","","","","","","","","","","","","","","","","","","","","","","","","","","","","","","",""
"","deliberation","","html-keyboard-response","66","375264","0.0-57.0-1.0","0","0","Dw8mv","Scenes","","9501","","","68","","","","1","133","138","1","1","50","51","mickey-o-neil-xL66l--msXU-unsplash.jpg","petr-vysohlid-9fqwGqGLUxc-unsplash.jpg","1","1","133","138","","","","","","","","","","","","","","","","","","","","","","","","","","","",""
"","choice_confirmation","","html-keyboard-response","67","375773","0.0-57.0-2.0-0.0","0","0","Dw8mv","Scenes","","null","","","null","","","","1","133","138","","","","","","","","","","","","","","","","","","","","","","","","","","","","","","","","","","","","","",""
"","explain_trial","","survey-text","68","421860","0.0-57.0-5.0-0.0","0","0","Dw8mv","Scenes","","46085","{""Q0"":""It looks like it would be popular with people who like ocean themed bathrooms.""}","","","","","","1","133","138","","","","","","","","","","","{""Q0"":""It looks like it would be popular with people who like ocean themed bathrooms.""}","","","","","","","","","","","","","","","","","","","","","","","","","","",""
"","fixation","","html-keyboard-response","69","422869","0.0-58.0-0.0","0","0","Dw8mv","Scenes","","null","","","null","","","","","","","","","","","","","","","","","","","","","","","","","","","","","","","","","","","","","","","","","","","",""
"","deliberation","","html-keyboard-response","70","429884","0.0-58.0-1.0","0","0","Dw8mv","Scenes","","7013","","","75","","","","2","134","108","0","1","72","66","milada-vigerova-pQMM63GE7fo-unsplash.jpg","benjamin-voros-phIFdC6lA4E-unsplash.jpg","1","0","108","134","","","","","","","","","","","","","","","","","","","","","","","","","","","",""
"","choice_confirmation","","html-keyboard-response","71","430400","0.0-58.0-2.0-0.0","0","0","Dw8mv","Scenes","","null","","","null","","","","2","134","108","","","","","","","","","","","","","","","","","","","","","","","","","","","","","","","","","","","","","",""
"","fixation","","html-keyboard-response","72","431411","0.0-59.0-0.0","0","0","Dw8mv","Scenes","","null","","","null","","","","","","","","","","","","","","","","","","","","","","","","","","","","","","","","","","","","","","","","","","","",""
"","deliberation","","html-keyboard-response","73","433353","0.0-59.0-1.0","0","0","Dw8mv","Scenes","","1941","","","68","","","","3","131","102","0","1","82","50","luca-bravo-hFzIoD0F_i8-unsplash.jpg","anisur-rahman-K2b7UDed6uQ-unsplash.jpg","1","1","131","102","","","","","","","","","","","","","","","","","","","","","","","","","","","",""
"","choice_confirmation","","html-keyboard-response","74","433865","0.0-59.0-2.0-0.0","0","0","Dw8mv","Scenes","","null","","","null","","","","3","131","102","","","","","","","","","","","","","","","","","","","","","","","","","","","","","","","","","","","","","",""
"","fixation","","html-keyboard-response","75","434868","0.0-60.0-0.0","0","0","Dw8mv","Scenes","","null","","","null","","","","","","","","","","","","","","","","","","","","","","","","","","","","","","","","","","","","","","","","","","","",""
"","deliberation","","html-keyboard-response","76","440708","0.0-60.0-1.0","0","0","Dw8mv","Scenes","","5839","","","75","","","","4","143","109","0","-1","75","78","sigurdur-fjalar-jonsson-1KxBabIntpE-unsplash.jpg","brigitta-schneiter-hXXRLtTxXCU-unsplash.jpg","1","0","109","143","","","","","","","","","","","","","","","","","","","","","","","","","","","",""
"","choice_confirmation","","html-keyboard-response","77","441223","0.0-60.0-2.0-0.0","0","0","Dw8mv","Scenes","","null","","","null","","","","4","143","109","","","","","","","","","","","","","","","","","","","","","","","","","","","","","","","","","","","","","",""
"","fixation","","html-keyboard-response","78","442243","0.0-61.0-0.0","0","0","Dw8mv","Scenes","","null","","","null","","","","","","","","","","","","","","","","","","","","","","","","","","","","","","","","","","","","","","","","","","","",""
"","deliberation","","html-keyboard-response","79","449150","0.0-61.0-1.0","0","0","Dw8mv","Scenes","","6907","","","75","","","","5","144","101","1","-1","73","71","solotravelgoals-7kLufxYoqWk-unsplash.jpg","aniket-deole-T-tOgjWZ0fQ-unsplash.jpg","1","0","101","144","","","","","","","","","","","","","","","","","","","","","","","","","","","",""
"","choice_confirmation","","html-keyboard-response","80","449652","0.0-61.0-2.0-0.0","0","0","Dw8mv","Scenes","","null","","","null","","","","5","144","101","","","","","","","","","","","","","","","","","","","","","","","","","","","","","","","","","","","","","",""
"","explain_trial","","survey-text","81","478271","0.0-61.0-5.0-0.0","0","0","Dw8mv","Scenes","","28617","{""Q0"":""I couldn't picture the other one actually hanging in someone's house. ""}","","","","","","5","144","101","","","","","","","","","","","{""Q0"":""I couldn't picture the other one actually hanging in someone's house. ""}","","","","","","","","","","","","","","","","","","","","","","","","","","",""
"","fixation","","html-keyboard-response","82","479283","0.0-62.0-0.0","0","0","Dw8mv","Scenes","","null","","","null","","","","","","","","","","","","","","","","","","","","","","","","","","","","","","","","","","","","","","","","","","","",""
"","deliberation","","html-keyboard-response","83","482368","0.0-62.0-1.0","0","0","Dw8mv","Scenes","","3084","","","68","","","","6","112","114","1","1","79","56","cosmic-timetraveler-pYyOZ8q7AII-unsplash.jpg","daniel-sessler-z_9VmsxR8hs-unsplash.jpg","1","1","112","114","","","","","","","","","","","","","","","","","","","","","","","","","","","",""
"","choice_confirmation","","html-keyboard-response","84","482880","0.0-62.0-2.0-0.0","0","0","Dw8mv","Scenes","","null","","","null","","","","6","112","114","","","","","","","","","","","","","","","","","","","","","","","","","","","","","","","","","","","","","",""
"","explain_trial","","survey-text","85","520575","0.0-62.0-5.0-0.0","0","0","Dw8mv","Scenes","","37693","{""Q0"":""The colors are beautiful. I feel like many different people would be attracted to it. ""}","","","","","","6","112","114","","","","","","","","","","","{""Q0"":""The colors are beautiful. I feel like many different people would be attracted to it. ""}","","","","","","","","","","","","","","","","","","","","","","","","","","",""
"","fixation","","html-keyboard-response","86","521588","0.0-63.0-0.0","0","0","Dw8mv","Scenes","","null","","","null","","","","","","","","","","","","","","","","","","","","","","","","","","","","","","","","","","","","","","","","","","","",""
"","deliberation","","html-keyboard-response","87","530293","0.0-63.0-1.0","0","0","Dw8mv","Scenes","","8704","","","75","","","","7","120","140","0","-1","73","82","jarrett-kow-1ZOyYPOBn7I-unsplash.jpg","samuele-errico-piccarini-JEBqFu2AOOA-unsplash.jpg","1","0","140","120","","","","","","","","","","","","","","","","","","","","","","","","","","","",""
"","choice_confirmation","","html-keyboard-response","88","530808","0.0-63.0-2.0-0.0","0","0","Dw8mv","Scenes","","null","","","null","","","","7","120","140","","","","","","","","","","","","","","","","","","","","","","","","","","","","","","","","","","","","","",""
"","fixation","","html-keyboard-response","89","531819","0.0-64.0-0.0","0","0","Dw8mv","Scenes","","null","","","null","","","","","","","","","","","","","","","","","","","","","","","","","","","","","","","","","","","","","","","","","","","",""
"","deliberation","","html-keyboard-response","90","533565","0.0-64.0-1.0","0","0","Dw8mv","Scenes","","1745","","","68","","","","8","115","142","1","-1","50","78","darrell-cassell-hoCXpPUMCoE-unsplash.jpg","sergey-pesterev-y-b_FOmJXdg-unsplash.jpg","1","1","115","142","","","","","","","","","","","","","","","","","","","","","","","","","","","",""
"","choice_confirmation","","html-keyboard-response","91","534079","0.0-64.0-2.0-0.0","0","0","Dw8mv","Scenes","","null","","","null","","","","8","115","142","","","","","","","","","","","","","","","","","","","","","","","","","","","","","","","","","","","","","",""
"","explain_trial","","survey-text","92","561367","0.0-64.0-5.0-0.0","0","0","Dw8mv","Scenes","","27287","{""Q0"":""It has a relaxing feel to it. ""}","","","","","","8","115","142","","","","","","","","","","","{""Q0"":""It has a relaxing feel to it. ""}","","","","","","","","","","","","","","","","","","","","","","","","","","",""
"","fixation","","html-keyboard-response","93","562372","0.0-65.0-0.0","0","0","Dw8mv","Scenes","","null","","","null","","","","","","","","","","","","","","","","","","","","","","","","","","","","","","","","","","","","","","","","","","","",""
"","deliberation","","html-keyboard-response","94","565946","0.0-65.0-1.0","0","0","Dw8mv","Scenes","","3573","","","68","","","","9","139","132","0","1","48","50","samsommer-vddccTqwal8-unsplash.jpg","meng-ji-8BH_M-53CyA-unsplash.jpg","1","1","139","132","","","","","","","","","","","","","","","","","","","","","","","","","","","",""
"","choice_confirmation","","html-keyboard-response","95","566458","0.0-65.0-2.0-0.0","0","0","Dw8mv","Scenes","","null","","","null","","","","9","139","132","","","","","","","","","","","","","","","","","","","","","","","","","","","","","","","","","","","","","",""
"","fixation","","html-keyboard-response","96","567475","0.0-66.0-0.0","0","0","Dw8mv","Scenes","","null","","","null","","","","","","","","","","","","","","","","","","","","","","","","","","","","","","","","","","","","","","","","","","","",""
"","deliberation","","html-keyboard-response","97","573959","0.0-66.0-1.0","0","0","Dw8mv","Scenes","","6484","","","68","","","","10","135","116","1","-1","80","68","mohammad-alizade-4wzRuAb-KWs-unsplash.jpg","david-marcu-W5MhJ6cy1So-unsplash.jpg","1","1","135","116","","","","","","","","","","","","","","","","","","","","","","","","","","","",""
"","choice_confirmation","","html-keyboard-response","98","574464","0.0-66.0-2.0-0.0","0","0","Dw8mv","Scenes","","null","","","null","","","","10","135","116","","","","","","","","","","","","","","","","","","","","","","","","","","","","","","","","","","","","","",""
"","explain_trial","","survey-text","99","607512","0.0-66.0-5.0-0.0","0","0","Dw8mv","Scenes","","33047","{""Q0"":""The night sky is very pretty.""}","","","","","","10","135","116","","","","","","","","","","","{""Q0"":""The night sky is very pretty.""}","","","","","","","","","","","","","","","","","","","","","","","","","","",""
"","fixation","","html-keyboard-response","100","608518","0.0-67.0-0.0","0","0","Dw8mv","Scenes","","null","","","null","","","","","","","","","","","","","","","","","","","","","","","","","","","","","","","","","","","","","","","","","","","",""
"","deliberation","","html-keyboard-response","101","615987","0.0-67.0-1.0","0","0","Dw8mv","Scenes","","7468","","","68","","","","11","126","123","0","1","50","74","jordan-mcqueen-PJCZOWuOxbU-unsplash.jpg","joel-jasmin-forestbird-efuwb5eBDrI-unsplash.jpg","1","1","126","123","","","","","","","","","","","","","","","","","","","","","","","","","","","",""
"","choice_confirmation","","html-keyboard-response","102","616495","0.0-67.0-2.0-0.0","0","0","Dw8mv","Scenes","","null","","","null","","","","11","126","123","","","","","","","","","","","","","","","","","","","","","","","","","","","","","","","","","","","","","",""
"","practice_deliberation_again","","html-keyboard-response","103","620060","0.0-67.0-6.0-0.0","0","0","Dw8mv","Scenes","","3564","","","78","","","","","","","","","","","","","","","","","","","","","","","","","","","","","","","","","","","","","","","","","","","",""
"","fixation","","html-keyboard-response","104","621071","0.0-68.0-0.0","0","0","Dw8mv","Scenes","","null","","","null","","","","","","","","","","","","","","","","","","","","","","","","","","","","","","","","","","","","","","","","","","","",""
"","deliberation","","html-keyboard-response","105","622918","0.0-68.0-1.0","0","0","Dw8mv","Scenes","","1846","","","68","","","","12","133","138","0","1","50","51","mickey-o-neil-xL66l--msXU-unsplash.jpg","petr-vysohlid-9fqwGqGLUxc-unsplash.jpg","2","1","133","138","","","","","","","","","","","","","","","","","","","","","","","","","","","",""
"","choice_confirmation","","html-keyboard-response","106","623429","0.0-68.0-2.0-0.0","0","0","Dw8mv","Scenes","","null","","","null","","","","12","133","138","","","","","","","","","","","","","","","","","","","","","","","","","","","","","","","","","","","","","",""
"","fixation","","html-keyboard-response","107","624451","0.0-69.0-0.0","0","0","Dw8mv","Scenes","","null","","","null","","","","","","","","","","","","","","","","","","","","","","","","","","","","","","","","","","","","","","","","","","","",""
"","deliberation","","html-keyboard-response","108","625567","0.0-69.0-1.0","0","0","Dw8mv","Scenes","","1116","","","68","","","","13","126","123","1","1","50","74","jordan-mcqueen-PJCZOWuOxbU-unsplash.jpg","joel-jasmin-forestbird-efuwb5eBDrI-unsplash.jpg","2","1","126","123","","","","","","","","","","","","","","","","","","","","","","","","","","","",""
"","choice_confirmation","","html-keyboard-response","109","626074","0.0-69.0-2.0-0.0","0","0","Dw8mv","Scenes","","null","","","null","","","","13","126","123","","","","","","","","","","","","","","","","","","","","","","","","","","","","","","","","","","","","","",""
"","explain_trial","","survey-text","110","676707","0.0-69.0-5.0-0.0","0","0","Dw8mv","Scenes","","50632","{""Q0"":""I think more people would enjoy the sky over the snow covered mountains. Snow covered mountains are overdone ""}","","","","","","13","126","123","","","","","","","","","","","{""Q0"":""I think more people would enjoy the sky over the snow covered mountains. Snow covered mountains are overdone ""}","","","","","","","","","","","","","","","","","","","","","","","","","","",""
"","fixation","","html-keyboard-response","111","677725","0.0-70.0-0.0","0","0","Dw8mv","Scenes","","null","","","null","","","","","","","","","","","","","","","","","","","","","","","","","","","","","","","","","","","","","","","","","","","",""
"","deliberation","","html-keyboard-response","112","680863","0.0-70.0-1.0","0","0","Dw8mv","Scenes","","3137","","","68","","","","14","127","146","0","-1","79","76","kace-rodriguez-p3OzJuT_Dks-unsplash.jpg","thomas-morse-cuKKa0vWZSY-unsplash.jpg","2","1","127","146","","","","","","","","","","","","","","","","","","","","","","","","","","","",""
"","choice_confirmation","","html-keyboard-response","113","681365","0.0-70.0-2.0-0.0","0","0","Dw8mv","Scenes","","null","","","null","","","","14","127","146","","","","","","","","","","","","","","","","","","","","","","","","","","","","","","","","","","","","","",""
"","fixation","","html-keyboard-response","114","682386","0.0-71.0-0.0","0","0","Dw8mv","Scenes","","null","","","null","","","","","","","","","","","","","","","","","","","","","","","","","","","","","","","","","","","","","","","","","","","",""
"","deliberation","","html-keyboard-response","115","683366","0.0-71.0-1.0","0","0","Dw8mv","Scenes","","978","","","68","","","","15","135","116","0","-1","80","68","mohammad-alizade-4wzRuAb-KWs-unsplash.jpg","david-marcu-W5MhJ6cy1So-unsplash.jpg","2","1","135","116","","","","","","","","","","","","","","","","","","","","","","","","","","","",""
"","choice_confirmation","","html-keyboard-response","116","683869","0.0-71.0-2.0-0.0","0","0","Dw8mv","Scenes","","null","","","null","","","","15","135","116","","","","","","","","","","","","","","","","","","","","","","","","","","","","","","","","","","","","","",""
"","fixation","","html-keyboard-response","117","684889","0.0-72.0-0.0","0","0","Dw8mv","Scenes","","null","","","null","","","","","","","","","","","","","","","","","","","","","","","","","","","","","","","","","","","","","","","","","","","",""
"","deliberation","","html-keyboard-response","118","685781","0.0-72.0-1.0","0","0","Dw8mv","Scenes","","891","","","68","","","","16","115","142","0","-1","50","78","darrell-cassell-hoCXpPUMCoE-unsplash.jpg","sergey-pesterev-y-b_FOmJXdg-unsplash.jpg","2","1","115","142","","","","","","","","","","","","","","","","","","","","","","","","","","","",""
"","choice_confirmation","","html-keyboard-response","119","686285","0.0-72.0-2.0-0.0","0","0","Dw8mv","Scenes","","null","","","null","","","","16","115","142","","","","","","","","","","","","","","","","","","","","","","","","","","","","","","","","","","","","","",""
"","fixation","","html-keyboard-response","120","687306","0.0-73.0-0.0","0","0","Dw8mv","Scenes","","null","","","null","","","","","","","","","","","","","","","","","","","","","","","","","","","","","","","","","","","","","","","","","","","",""
"","deliberation","","html-keyboard-response","121","688079","0.0-73.0-1.0","0","0","Dw8mv","Scenes","","773","","","68","","","","17","112","114","0","1","79","56","cosmic-timetraveler-pYyOZ8q7AII-unsplash.jpg","daniel-sessler-z_9VmsxR8hs-unsplash.jpg","2","1","112","114","","","","","","","","","","","","","","","","","","","","","","","","","","","",""
"","choice_confirmation","","html-keyboard-response","122","688588","0.0-73.0-2.0-0.0","0","0","Dw8mv","Scenes","","null","","","null","","","","17","112","114","","","","","","","","","","","","","","","","","","","","","","","","","","","","","","","","","","","","","",""
"","fixation","","html-keyboard-response","123","689605","0.0-74.0-0.0","0","0","Dw8mv","Scenes","","null","","","null","","","","","","","","","","","","","","","","","","","","","","","","","","","","","","","","","","","","","","","","","","","",""
"","deliberation","","html-keyboard-response","124","690557","0.0-74.0-1.0","0","0","Dw8mv","Scenes","","952","","","75","","","","18","120","140","1","-1","73","82","jarrett-kow-1ZOyYPOBn7I-unsplash.jpg","samuele-errico-piccarini-JEBqFu2AOOA-unsplash.jpg","2","0","140","120","","","","","","","","","","","","","","","","","","","","","","","","","","","",""
"","choice_confirmation","","html-keyboard-response","125","691071","0.0-74.0-2.0-0.0","0","0","Dw8mv","Scenes","","null","","","null","","","","18","120","140","","","","","","","","","","","","","","","","","","","","","","","","","","","","","","","","","","","","","",""
"","explain_trial","","survey-text","126","710049","0.0-74.0-5.0-0.0","0","0","Dw8mv","Scenes","","18976","{""Q0"":""I think it would look good hanging in a cabin ""}","","","","","","18","120","140","","","","","","","","","","","{""Q0"":""I think it would look good hanging in a cabin ""}","","","","","","","","","","","","","","","","","","","","","","","","","","",""
"","fixation","","html-keyboard-response","127","711056","0.0-75.0-0.0","0","0","Dw8mv","Scenes","","null","","","null","","","","","","","","","","","","","","","","","","","","","","","","","","","","","","","","","","","","","","","","","","","",""
"","deliberation","","html-keyboard-response","128","712001","0.0-75.0-1.0","0","0","Dw8mv","Scenes","","944","","","75","","","","19","144","101","0","-1","73","71","solotravelgoals-7kLufxYoqWk-unsplash.jpg","aniket-deole-T-tOgjWZ0fQ-unsplash.jpg","2","0","101","144","","","","","","","","","","","","","","","","","","","","","","","","","","","",""
"","choice_confirmation","","html-keyboard-response","129","712513","0.0-75.0-2.0-0.0","0","0","Dw8mv","Scenes","","null","","","null","","","","19","144","101","","","","","","","","","","","","","","","","","","","","","","","","","","","","","","","","","","","","","",""
"","fixation","","html-keyboard-response","130","713521","0.0-76.0-0.0","0","0","Dw8mv","Scenes","","null","","","null","","","","","","","","","","","","","","","","","","","","","","","","","","","","","","","","","","","","","","","","","","","",""
"","deliberation","","html-keyboard-response","131","714839","0.0-76.0-1.0","0","0","Dw8mv","Scenes","","1318","","","68","","","","20","131","102","1","1","82","50","luca-bravo-hFzIoD0F_i8-unsplash.jpg","anisur-rahman-K2b7UDed6uQ-unsplash.jpg","2","1","131","102","","","","","","","","","","","","","","","","","","","","","","","","","","","",""
"","choice_confirmation","","html-keyboard-response","132","715346","0.0-76.0-2.0-0.0","0","0","Dw8mv","Scenes","","null","","","null","","","","20","131","102","","","","","","","","","","","","","","","","","","","","","","","","","","","","","","","","","","","","","",""
"","explain_trial","","survey-text","133","728908","0.0-76.0-5.0-0.0","0","0","Dw8mv","Scenes","","13560","{""Q0"":""It gives me a calm peaceful feeling. ""}","","","","","","20","131","102","","","","","","","","","","","{""Q0"":""It gives me a calm peaceful feeling. ""}","","","","","","","","","","","","","","","","","","","","","","","","","","",""
"","fixation","","html-keyboard-response","134","729917","0.0-77.0-0.0","0","0","Dw8mv","Scenes","","null","","","null","","","","","","","","","","","","","","","","","","","","","","","","","","","","","","","","","","","","","","","","","","","",""
"","deliberation","","html-keyboard-response","135","733286","0.0-77.0-1.0","0","0","Dw8mv","Scenes","","3368","","","75","","","","21","143","109","1","-1","75","78","sigurdur-fjalar-jonsson-1KxBabIntpE-unsplash.jpg","brigitta-schneiter-hXXRLtTxXCU-unsplash.jpg","2","0","109","143","","","","","","","","","","","","","","","","","","","","","","","","","","","",""
"","choice_confirmation","","html-keyboard-response","136","733803","0.0-77.0-2.0-0.0","0","0","Dw8mv","Scenes","","null","","","null","","","","21","143","109","","","","","","","","","","","","","","","","","","","","","","","","","","","","","","","","","","","","","",""
"","explain_trial","","survey-text","137","762913","0.0-77.0-5.0-0.0","0","0","Dw8mv","Scenes","","29108","{""Q0"":""I think it would attract more attention compared to the image on the left that just looks like a swamp ""}","","","","","","21","143","109","","","","","","","","","","","{""Q0"":""I think it would attract more attention compared to the image on the left that just looks like a swamp ""}","","","","","","","","","","","","","","","","","","","","","","","","","","",""
"","fixation","","html-keyboard-response","138","763926","0.0-78.0-0.0","0","0","Dw8mv","Scenes","","null","","","null","","","","","","","","","","","","","","","","","","","","","","","","","","","","","","","","","","","","","","","","","","","",""
"","deliberation","","html-keyboard-response","139","770809","0.0-78.0-1.0","0","0","Dw8mv","Scenes","","6882","","","75","","","","22","139","132","1","1","48","50","samsommer-vddccTqwal8-unsplash.jpg","meng-ji-8BH_M-53CyA-unsplash.jpg","2","0","132","139","","","","","","","","","","","","","","","","","","","","","","","","","","","",""
"","choice_confirmation","","html-keyboard-response","140","771326","0.0-78.0-2.0-0.0","0","0","Dw8mv","Scenes","","null","","","null","","","","22","139","132","","","","","","","","","","","","","","","","","","","","","","","","","","","","","","","","","","","","","",""
"","explain_trial","","survey-text","141","790640","0.0-78.0-5.0-0.0","0","0","Dw8mv","Scenes","","19312","{""Q0"":""I think more people would enjoy how vibrant the colors are ""}","","","","","","22","139","132","","","","","","","","","","","{""Q0"":""I think more people would enjoy how vibrant the colors are ""}","","","","","","","","","","","","","","","","","","","","","","","","","","",""
"","fixation","","html-keyboard-response","142","791657","0.0-79.0-0.0","0","0","Dw8mv","Scenes","","null","","","null","","","","","","","","","","","","","","","","","","","","","","","","","","","","","","","","","","","","","","","","","","","",""
"","deliberation","","html-keyboard-response","143","793925","0.0-79.0-1.0","0","0","Dw8mv","Scenes","","2267","","","75","","","","23","134","108","1","1","72","66","milada-vigerova-pQMM63GE7fo-unsplash.jpg","benjamin-voros-phIFdC6lA4E-unsplash.jpg","2","0","108","134","","","","","","","","","","","","","","","","","","","","","","","","","","","",""
"","choice_confirmation","","html-keyboard-response","144","794430","0.0-79.0-2.0-0.0","0","0","Dw8mv","Scenes","","null","","","null","","","","23","134","108","","","","","","","","","","","","","","","","","","","","","","","","","","","","","","","","","","","","","",""
"","explain_trial","","survey-text","145","822698","0.0-79.0-5.0-0.0","0","0","Dw8mv","Scenes","","28266","{""Q0"":""The sky is pretty and the colors in the color one look kind of bland. ""}","","","","","","23","134","108","","","","","","","","","","","{""Q0"":""The sky is pretty and the colors in the color one look kind of bland. ""}","","","","","","","","","","","","","","","","","","","","","","","","","","",""
"","start_critical_deliberation_block","","html-keyboard-response","146","824367","0.0-79.0-7.0-0.0","0","0","Dw8mv","Scenes","","1668","","","78","","","","","","","","","","","","","","","","","","","","","","","","","","","","","","","","","","","","","","","","","","","",""
"","fixation","","html-keyboard-response","147","825373","0.0-80.0-0.0","0","0","Dw8mv","Scenes","","null","","","null","","","","","","","","","","","","","","","","","","","","","","","","","","","","","","","","","","","","","","","","","","","",""
"","deliberation","","html-keyboard-response","148","827153","0.0-80.0-1.0","0","0","Dw8mv","Scenes","","1778","","","75","","","","24","134","108","0","1","72","66","milada-vigerova-pQMM63GE7fo-unsplash.jpg","benjamin-voros-phIFdC6lA4E-unsplash.jpg","3","0","108","134","","","","","","","","","","","","","","","","","","","","","","","","","","","",""
"","choice_confirmation","","html-keyboard-response","149","827661","0.0-80.0-2.0-0.0","0","0","Dw8mv","Scenes","","null","","","null","","","","24","134","108","","","","","","","","","","","","","","","","","","","","","","","","","","","","","","","","","","","","","",""
"","fixation","","html-keyboard-response","150","828670","0.0-81.0-0.0","0","0","Dw8mv","Scenes","","null","","","null","","","","","","","","","","","","","","","","","","","","","","","","","","","","","","","","","","","","","","","","","","","",""
"","deliberation","","html-keyboard-response","151","829654","0.0-81.0-1.0","0","0","Dw8mv","Scenes","","983","","","75","","","","25","143","109","0","-1","75","78","sigurdur-fjalar-jonsson-1KxBabIntpE-unsplash.jpg","brigitta-schneiter-hXXRLtTxXCU-unsplash.jpg","3","0","109","143","","","","","","","","","","","","","","","","","","","","","","","","","","","",""
"","choice_confirmation","","html-keyboard-response","152","830158","0.0-81.0-2.0-0.0","0","0","Dw8mv","Scenes","","null","","","null","","","","25","143","109","","","","","","","","","","","","","","","","","","","","","","","","","","","","","","","","","","","","","",""
"","fixation","","html-keyboard-response","153","831180","0.0-82.0-0.0","0","0","Dw8mv","Scenes","","null","","","null","","","","","","","","","","","","","","","","","","","","","","","","","","","","","","","","","","","","","","","","","","","",""
"","deliberation","","html-keyboard-response","154","832026","0.0-82.0-1.0","0","0","Dw8mv","Scenes","","846","","","68","","","","26","115","142","0","-1","50","78","darrell-cassell-hoCXpPUMCoE-unsplash.jpg","sergey-pesterev-y-b_FOmJXdg-unsplash.jpg","3","1","115","142","","","","","","","","","","","","","","","","","","","","","","","","","","","",""
"","choice_confirmation","","html-keyboard-response","155","832544","0.0-82.0-2.0-0.0","0","0","Dw8mv","Scenes","","null","","","null","","","","26","115","142","","","","","","","","","","","","","","","","","","","","","","","","","","","","","","","","","","","","","",""
"","fixation","","html-keyboard-response","156","833562","0.0-83.0-0.0","0","0","Dw8mv","Scenes","","null","","","null","","","","","","","","","","","","","","","","","","","","","","","","","","","","","","","","","","","","","","","","","","","",""
"","deliberation","","html-keyboard-response","157","834610","0.0-83.0-1.0","0","0","Dw8mv","Scenes","","1046","","","75","","","","27","139","132","0","1","48","50","samsommer-vddccTqwal8-unsplash.jpg","meng-ji-8BH_M-53CyA-unsplash.jpg","3","0","132","139","","","","","","","","","","","","","","","","","","","","","","","","","","","",""
"","choice_confirmation","","html-keyboard-response","158","835129","0.0-83.0-2.0-0.0","0","0","Dw8mv","Scenes","","null","","","null","","","","27","139","132","","","","","","","","","","","","","","","","","","","","","","","","","","","","","","","","","","","","","",""
"","fixation","","html-keyboard-response","159","836133","0.0-84.0-0.0","0","0","Dw8mv","Scenes","","null","","","null","","","","","","","","","","","","","","","","","","","","","","","","","","","","","","","","","","","","","","","","","","","",""
"","deliberation","","html-keyboard-response","160","837085","0.0-84.0-1.0","0","0","Dw8mv","Scenes","","950","","","68","","","","28","133","138","0","1","50","51","mickey-o-neil-xL66l--msXU-unsplash.jpg","petr-vysohlid-9fqwGqGLUxc-unsplash.jpg","3","1","133","138","","","","","","","","","","","","","","","","","","","","","","","","","","","",""
"","choice_confirmation","","html-keyboard-response","161","837591","0.0-84.0-2.0-0.0","0","0","Dw8mv","Scenes","","null","","","null","","","","28","133","138","","","","","","","","","","","","","","","","","","","","","","","","","","","","","","","","","","","","","",""
"","fixation","","html-keyboard-response","162","838599","0.0-85.0-0.0","0","0","Dw8mv","Scenes","","null","","","null","","","","","","","","","","","","","","","","","","","","","","","","","","","","","","","","","","","","","","","","","","","",""
"","deliberation","","html-keyboard-response","163","839830","0.0-85.0-1.0","0","0","Dw8mv","Scenes","","1230","","","68","","","","29","135","116","0","-1","80","68","mohammad-alizade-4wzRuAb-KWs-unsplash.jpg","david-marcu-W5MhJ6cy1So-unsplash.jpg","3","1","135","116","","","","","","","","","","","","","","","","","","","","","","","","","","","",""
"","choice_confirmation","","html-keyboard-response","164","840333","0.0-85.0-2.0-0.0","0","0","Dw8mv","Scenes","","null","","","null","","","","29","135","116","","","","","","","","","","","","","","","","","","","","","","","","","","","","","","","","","","","","","",""
"","fixation","","html-keyboard-response","165","841351","0.0-86.0-0.0","0","0","Dw8mv","Scenes","","null","","","null","","","","","","","","","","","","","","","","","","","","","","","","","","","","","","","","","","","","","","","","","","","",""
"","deliberation","","html-keyboard-response","166","843025","0.0-86.0-1.0","0","0","Dw8mv","Scenes","","1672","","","75","","","","30","144","101","0","-1","73","71","solotravelgoals-7kLufxYoqWk-unsplash.jpg","aniket-deole-T-tOgjWZ0fQ-unsplash.jpg","3","0","101","144","","","","","","","","","","","","","","","","","","","","","","","","","","","",""
"","choice_confirmation","","html-keyboard-response","167","843538","0.0-86.0-2.0-0.0","0","0","Dw8mv","Scenes","","null","","","null","","","","30","144","101","","","","","","","","","","","","","","","","","","","","","","","","","","","","","","","","","","","","","",""
"","fixation","","html-keyboard-response","168","844541","0.0-87.0-0.0","0","0","Dw8mv","Scenes","","null","","","null","","","","","","","","","","","","","","","","","","","","","","","","","","","","","","","","","","","","","","","","","","","",""
"","deliberation","","html-keyboard-response","169","845344","0.0-87.0-1.0","0","0","Dw8mv","Scenes","","802","","","68","","","","31","127","146","0","-1","79","76","kace-rodriguez-p3OzJuT_Dks-unsplash.jpg","thomas-morse-cuKKa0vWZSY-unsplash.jpg","3","1","127","146","","","","","","","","","","","","","","","","","","","","","","","","","","","",""
"","choice_confirmation","","html-keyboard-response","170","845849","0.0-87.0-2.0-0.0","0","0","Dw8mv","Scenes","","null","","","null","","","","31","127","146","","","","","","","","","","","","","","","","","","","","","","","","","","","","","","","","","","","","","",""
"","fixation","","html-keyboard-response","171","846859","0.0-88.0-0.0","0","0","Dw8mv","Scenes","","null","","","null","","","","","","","","","","","","","","","","","","","","","","","","","","","","","","","","","","","","","","","","","","","",""
"","deliberation","","html-keyboard-response","172","847811","0.0-88.0-1.0","0","0","Dw8mv","Scenes","","952","","","68","","","","32","126","123","0","1","50","74","jordan-mcqueen-PJCZOWuOxbU-unsplash.jpg","joel-jasmin-forestbird-efuwb5eBDrI-unsplash.jpg","3","1","126","123","","","","","","","","","","","","","","","","","","","","","","","","","","","",""
"","choice_confirmation","","html-keyboard-response","173","848326","0.0-88.0-2.0-0.0","0","0","Dw8mv","Scenes","","null","","","null","","","","32","126","123","","","","","","","","","","","","","","","","","","","","","","","","","","","","","","","","","","","","","",""
"","fixation","","html-keyboard-response","174","849344","0.0-89.0-0.0","0","0","Dw8mv","Scenes","","null","","","null","","","","","","","","","","","","","","","","","","","","","","","","","","","","","","","","","","","","","","","","","","","",""
"","deliberation","","html-keyboard-response","175","850346","0.0-89.0-1.0","0","0","Dw8mv","Scenes","","1001","","","68","","","","33","112","114","0","1","79","56","cosmic-timetraveler-pYyOZ8q7AII-unsplash.jpg","daniel-sessler-z_9VmsxR8hs-unsplash.jpg","3","1","112","114","","","","","","","","","","","","","","","","","","","","","","","","","","","",""
"","choice_confirmation","","html-keyboard-response","176","850860","0.0-89.0-2.0-0.0","0","0","Dw8mv","Scenes","","null","","","null","","","","33","112","114","","","","","","","","","","","","","","","","","","","","","","","","","","","","","","","","","","","","","",""
"","fixation","","html-keyboard-response","177","851866","0.0-90.0-0.0","0","0","Dw8mv","Scenes","","null","","","null","","","","","","","","","","","","","","","","","","","","","","","","","","","","","","","","","","","","","","","","","","","",""
"","deliberation","","html-keyboard-response","178","852928","0.0-90.0-1.0","0","0","Dw8mv","Scenes","","1061","","","75","","","","34","120","140","0","-1","73","82","jarrett-kow-1ZOyYPOBn7I-unsplash.jpg","samuele-errico-piccarini-JEBqFu2AOOA-unsplash.jpg","3","0","140","120","","","","","","","","","","","","","","","","","","","","","","","","","","","",""
"","choice_confirmation","","html-keyboard-response","179","853449","0.0-90.0-2.0-0.0","0","0","Dw8mv","Scenes","","null","","","null","","","","34","120","140","","","","","","","","","","","","","","","","","","","","","","","","","","","","","","","","","","","","","",""
"","fixation","","html-keyboard-response","180","854455","0.0-91.0-0.0","0","0","Dw8mv","Scenes","","null","","","null","","","","","","","","","","","","","","","","","","","","","","","","","","","","","","","","","","","","","","","","","","","",""
"","deliberation","","html-keyboard-response","181","856099","0.0-91.0-1.0","0","0","Dw8mv","Scenes","","1643","","","68","","","","35","131","102","0","1","82","50","luca-bravo-hFzIoD0F_i8-unsplash.jpg","anisur-rahman-K2b7UDed6uQ-unsplash.jpg","3","1","131","102","","","","","","","","","","","","","","","","","","","","","","","","","","","",""
"","choice_confirmation","","html-keyboard-response","182","856619","0.0-91.0-2.0-0.0","0","0","Dw8mv","Scenes","","null","","","null","","","","35","131","102","","","","","","","","","","","","","","","","","","","","","","","","","","","","","","","","","","","","","",""
"","reward_learning_instructions","","instructions","183","902885","0.0-92.0-0.0","0","0","Dw8mv","Scenes","[{""page_index"":0,""viewing_time"":23516},{""page_index"":1,""viewing_time"":20468},{""page_index"":2,""viewing_time"":2280}]","46265","","","","","","","","","","","","","","","","","","","","","","","","","","","","","","","","","","","","","","","","","","","","","","",""
"","reward_comprehension_check","","survey-multi-choice","184","924698","0.0-92.0-1.0","0","0","Dw8mv","Scenes","","21811","{""Q0"":""True"",""Q1"":""True"",""Q2"":""Press the space bar to see its outcome"",""Q3"":""Press the relevant key while the outcome is presented""}","0","","","","","","","","","","","","","","","","","","","","","","","","","","","","","","","","","","","","","","","","","","","","",""
"","start_phase","","html-keyboard-response","185","927182","0.0-93.0","0","0","Dw8mv","Scenes","","2482","","","78","","","","","","","","","","","","","","","","","","","","","","","","","","","","","","","","","","","","","","","","","","","",""
"","fixation","","html-keyboard-response","186","928188","0.0-94.0","0","0","Dw8mv","Scenes","","null","","","null","","","","","","","","","","","","","","","","","","","","","","","","","","","","","","","","","","","","","","","","","","","",""
"","see_reward","","html-keyboard-response","187","928937","0.0-95.0","0","0","Dw8mv","Scenes","","747","","","32","","108","","0","","","","1","","","","","1","","","","","150","747","","","","","","","","","","","","","","","","","","","","","","","","",""
"","reward_outcome","","html-keyboard-response","188","930948","0.0-96.0","0","0","Dw8mv","Scenes","","1784","","","40","","108","","0","","","","","","","","","","","","","","","","-1","1784","","","","","","","","","","","","","","","","","","","","","","",""
"","fixation","","html-keyboard-response","189","931971","0.0-99.0","0","0","Dw8mv","Scenes","","null","","","null","","","","","","","","","","","","","","","","","","","","","","","","","","","","","","","","","","","","","","","","","","","",""
"","see_reward","","html-keyboard-response","190","932642","0.0-100.0","0","0","Dw8mv","Scenes","","670","","","32","","112","","1","","","","1","","","","","1","","","","","141","670","","","","","","","","","","","","","","","","","","","","","","","","",""
"","reward_outcome","","html-keyboard-response","191","934651","0.0-101.0","0","0","Dw8mv","Scenes","","1635","","","40","","112","","1","","","","","","","","","","","","","","","","-1","1635","","","","","","","","","","","","","","","","","","","","","","",""
"","fixation","","html-keyboard-response","192","935655","0.0-104.0","0","0","Dw8mv","Scenes","","null","","","null","","","","","","","","","","","","","","","","","","","","","","","","","","","","","","","","","","","","","","","","","","","",""
"","see_reward","","html-keyboard-response","193","936114","0.0-105.0","0","0","Dw8mv","Scenes","","457","","","32","","132","","2","","","","1","","","","","1","","","","","151","457","","","","","","","","","","","","","","","","","","","","","","","","",""
"","reward_outcome","","html-keyboard-response","194","938120","0.0-106.0","0","0","Dw8mv","Scenes","","1598","","","40","","132","","2","","","","","","","","","","","","","","","","-1","1598","","","","","","","","","","","","","","","","","","","","","","",""
"","fixation","","html-keyboard-response","195","939125","0.0-109.0","0","0","Dw8mv","Scenes","","null","","","null","","","","","","","","","","","","","","","","","","","","","","","","","","","","","","","","","","","","","","","","","","","",""
"","see_reward","","html-keyboard-response","196","939663","0.0-110.0","0","0","Dw8mv","Scenes","","537","","","32","","135","","3","","","","-1","","","","","1","","","","","0","537","","","","","","","","","","","","","","","","","","","","","","","","",""
"","reward_outcome","","html-keyboard-response","197","941672","0.0-111.0","0","0","Dw8mv","Scenes","","1619","","","40","","135","","3","","","","","","","","","","","","","","","","-1","1619","","","","","","","","","","","","","","","","","","","","","","",""
"","fixation","","html-keyboard-response","198","942681","0.0-114.0","0","0","Dw8mv","Scenes","","null","","","null","","","","","","","","","","","","","","","","","","","","","","","","","","","","","","","","","","","","","","","","","","","",""
"","see_reward","","html-keyboard-response","199","946634","0.0-115.0","0","0","Dw8mv","Scenes","","3952","","","32","","131","","4","","","","1","","","","","1","","","","","149","3952","","","","","","","","","","","","","","","","","","","","","","","","",""
"","reward_outcome","","html-keyboard-response","200","948652","0.0-116.0","0","0","Dw8mv","Scenes","","832","","","38","","131","","4","","","","","","","","","","","","","","","","1","832","","","","","","","","","","","","","","","","","","","","","","",""
"","fixation","","html-keyboard-response","201","949661","0.0-119.0","0","0","Dw8mv","Scenes","","null","","","null","","","","","","","","","","","","","","","","","","","","","","","","","","","","","","","","","","","","","","","","","","","",""
"","see_reward","","html-keyboard-response","202","950634","0.0-120.0","0","0","Dw8mv","Scenes","","972","","","32","","133","","5","","","","1","","","","","1","","","","","148","972","","","","","","","","","","","","","","","","","","","","","","","","",""
"","reward_outcome","","html-keyboard-response","203","952648","0.0-121.0","0","0","Dw8mv","Scenes","","1035","","","38","","133","","5","","","","","","","","","","","","","","","","1","1035","","","","","","","","","","","","","","","","","","","","","","",""
"","fixation","","html-keyboard-response","204","953652","0.0-124.0","0","0","Dw8mv","Scenes","","null","","","null","","","","","","","","","","","","","","","","","","","","","","","","","","","","","","","","","","","","","","","","","","","",""
"","see_reward","","html-keyboard-response","205","954765","0.0-125.0","0","0","Dw8mv","Scenes","","1112","","","32","","131","","6","","","","1","","","","","1","","","","","149","1112","","","","","","","","","","","","","","","","","","","","","","","","",""
"","reward_outcome","","html-keyboard-response","206","956782","0.0-126.0","0","0","Dw8mv","Scenes","","935","","","38","","131","","6","","","","","","","","","","","","","","","","1","935","","","","","","","","","","","","","","","","","","","","","","",""
"","fixation","","html-keyboard-response","207","957794","0.0-129.0","0","0","Dw8mv","Scenes","","null","","","null","","","","","","","","","","","","","","","","","","","","","","","","","","","","","","","","","","","","","","","","","","","",""
"","see_reward","","html-keyboard-response","208","958385","0.0-130.0","0","0","Dw8mv","Scenes","","591","","","32","","108","","7","","","","1","","","","","1","","","","","150","591","","","","","","","","","","","","","","","","","","","","","","","","",""
"","reward_outcome","","html-keyboard-response","209","960402","0.0-131.0","0","0","Dw8mv","Scenes","","586","","","38","","108","","7","","","","","","","","","","","","","","","","1","586","","","","","","","","","","","","","","","","","","","","","","",""
"","fixation","","html-keyboard-response","210","961404","0.0-134.0","0","0","Dw8mv","Scenes","","null","","","null","","","","","","","","","","","","","","","","","","","","","","","","","","","","","","","","","","","","","","","","","","","",""
"","see_reward","","html-keyboard-response","211","962074","0.0-135.0","0","0","Dw8mv","Scenes","","669","","","32","","126","","8","","","","1","","","","","1","","","","","147","669","","","","","","","","","","","","","","","","","","","","","","","","",""
"","reward_outcome","","html-keyboard-response","212","964076","0.0-136.0","0","0","Dw8mv","Scenes","","779","","","38","","126","","8","","","","","","","","","","","","","","","","1","779","","","","","","","","","","","","","","","","","","","","","","",""
"","fixation","","html-keyboard-response","213","965086","0.0-139.0","0","0","Dw8mv","Scenes","","null","","","null","","","","","","","","","","","","","","","","","","","","","","","","","","","","","","","","","","","","","","","","","","","",""
"","see_reward","","html-keyboard-response","214","965540","0.0-140.0","0","0","Dw8mv","Scenes","","453","","","32","","112","","9","","","","1","","","","","1","","","","","141","453","","","","","","","","","","","","","","","","","","","","","","","","",""
"","reward_outcome","","html-keyboard-response","215","967549","0.0-141.0","0","0","Dw8mv","Scenes","","681","","","38","","112","","9","","","","","","","","","","","","","","","","1","681","","","","","","","","","","","","","","","","","","","","","","",""
"","fixation","","html-keyboard-response","216","968568","0.0-144.0","0","0","Dw8mv","Scenes","","null","","","null","","","","","","","","","","","","","","","","","","","","","","","","","","","","","","","","","","","","","","","","","","","",""
"","see_reward","","html-keyboard-response","217","969034","0.0-145.0","0","0","Dw8mv","Scenes","","465","","","32","","126","","10","","","","1","","","","","1","","","","","147","465","","","","","","","","","","","","","","","","","","","","","","","","",""
"","reward_outcome","","html-keyboard-response","218","971037","0.0-146.0","0","0","Dw8mv","Scenes","","600","","","38","","126","","10","","","","","","","","","","","","","","","","1","600","","","","","","","","","","","","","","","","","","","","","","",""
"","fixation","","html-keyboard-response","219","972055","0.0-149.0","0","0","Dw8mv","Scenes","","null","","","null","","","","","","","","","","","","","","","","","","","","","","","","","","","","","","","","","","","","","","","","","","","",""
"","see_reward","","html-keyboard-response","220","972698","0.0-150.0","0","0","Dw8mv","Scenes","","641","","","32","","140","","11","","","","-1","","","","","1","","","","","0","641","","","","","","","","","","","","","","","","","","","","","","","","",""
"","reward_outcome","","html-keyboard-response","221","974714","0.0-151.0","0","0","Dw8mv","Scenes","","873","","","40","","140","","11","","","","","","","","","","","","","","","","-1","873","","","","","","","","","","","","","","","","","","","","","","",""
"","fixation","","html-keyboard-response","222","975716","0.0-154.0","0","0","Dw8mv","Scenes","","null","","","null","","","","","","","","","","","","","","","","","","","","","","","","","","","","","","","","","","","","","","","","","","","",""
"","see_reward","","html-keyboard-response","223","976494","0.0-155.0","0","0","Dw8mv","Scenes","","776","","","32","","109","","12","","","","-1","","","","","1","","","","","0","776","","","","","","","","","","","","","","","","","","","","","","","","",""
"","reward_outcome","","html-keyboard-response","224","978515","0.0-156.0","0","0","Dw8mv","Scenes","","909","","","40","","109","","12","","","","","","","","","","","","","","","","-1","909","","","","","","","","","","","","","","","","","","","","","","",""
"","fixation","","html-keyboard-response","225","979535","0.0-159.0","0","0","Dw8mv","Scenes","","null","","","null","","","","","","","","","","","","","","","","","","","","","","","","","","","","","","","","","","","","","","","","","","","",""
"","see_reward","","html-keyboard-response","226","980352","0.0-160.0","0","0","Dw8mv","Scenes","","815","","","32","","101","","13","","","","-1","","","","","1","","","","","0","815","","","","","","","","","","","","","","","","","","","","","","","","",""
"","reward_outcome","","html-keyboard-response","227","982356","0.0-161.0","0","0","Dw8mv","Scenes","","770","","","40","","101","","13","","","","","","","","","","","","","","","","-1","770","","","","","","","","","","","","","","","","","","","","","","",""
"","fixation","","html-keyboard-response","228","983366","0.0-164.0","0","0","Dw8mv","Scenes","","null","","","null","","","","","","","","","","","","","","","","","","","","","","","","","","","","","","","","","","","","","","","","","","","",""
"","see_reward","","html-keyboard-response","229","984185","0.0-165.0","0","0","Dw8mv","Scenes","","818","","","32","","127","","14","","","","-1","","","","","1","","","","","0","818","","","","","","","","","","","","","","","","","","","","","","","","",""
"","reward_outcome","","html-keyboard-response","230","986191","0.0-166.0","0","0","Dw8mv","Scenes","","839","","","40","","127","","14","","","","","","","","","","","","","","","","-1","839","","","","","","","","","","","","","","","","","","","","","","",""
"","fixation","","html-keyboard-response","231","987212","0.0-169.0","0","0","Dw8mv","Scenes","","null","","","null","","","","","","","","","","","","","","","","","","","","","","","","","","","","","","","","","","","","","","","","","","","",""
"","see_reward","","html-keyboard-response","232","987851","0.0-170.0","0","0","Dw8mv","Scenes","","638","","","32","","115","","15","","","","-1","","","","","1","","","","","0","638","","","","","","","","","","","","","","","","","","","","","","","","",""
"","reward_outcome","","html-keyboard-response","233","989865","0.0-171.0","0","0","Dw8mv","Scenes","","940","","","40","","115","","15","","","","","","","","","","","","","","","","-1","940","","","","","","","","","","","","","","","","","","","","","","",""
"","fixation","","html-keyboard-response","234","990877","0.0-174.0","0","0","Dw8mv","Scenes","","null","","","null","","","","","","","","","","","","","","","","","","","","","","","","","","","","","","","","","","","","","","","","","","","",""
"","see_reward","","html-keyboard-response","235","991985","0.0-175.0","0","0","Dw8mv","Scenes","","1107","","","32","","115","","16","","","","-1","","","","","1","","","","","0","1107","","","","","","","","","","","","","","","","","","","","","","","","",""
"","reward_outcome","","html-keyboard-response","236","993999","0.0-176.0","0","0","Dw8mv","Scenes","","701","","","40","","115","","16","","","","","","","","","","","","","","","","-1","701","","","","","","","","","","","","","","","","","","","","","","",""
"","fixation","","html-keyboard-response","237","995006","0.0-179.0","0","0","Dw8mv","Scenes","","null","","","null","","","","","","","","","","","","","","","","","","","","","","","","","","","","","","","","","","","","","","","","","","","",""
"","see_reward","","html-keyboard-response","238","995778","0.0-180.0","0","0","Dw8mv","Scenes","","772","","","32","","109","","17","","","","-1","","","","","1","","","","","0","772","","","","","","","","","","","","","","","","","","","","","","","","",""
"","reward_outcome","","html-keyboard-response","239","997791","0.0-181.0","0","0","Dw8mv","Scenes","","888","","","40","","109","","17","","","","","","","","","","","","","","","","-1","888","","","","","","","","","","","","","","","","","","","","","","",""
"","fixation","","html-keyboard-response","240","998809","0.0-184.0","0","0","Dw8mv","Scenes","","null","","","null","","","","","","","","","","","","","","","","","","","","","","","","","","","","","","","","","","","","","","","","","","","",""
"","see_reward","","html-keyboard-response","241","999323","0.0-185.0","0","0","Dw8mv","Scenes","","513","","","32","","101","","18","","","","-1","","","","","1","","","","","0","513","","","","","","","","","","","","","","","","","","","","","","","","",""
"","reward_outcome","","html-keyboard-response","242","1001347","0.0-186.0","0","0","Dw8mv","Scenes","","643","","","40","","101","","18","","","","","","","","","","","","","","","","-1","643","","","","","","","","","","","","","","","","","","","","","","",""
"","fixation","","html-keyboard-response","243","1002354","0.0-189.0","0","0","Dw8mv","Scenes","","null","","","null","","","","","","","","","","","","","","","","","","","","","","","","","","","","","","","","","","","","","","","","","","","",""
"","see_reward","","html-keyboard-response","244","1002878","0.0-190.0","0","0","Dw8mv","Scenes","","522","","","32","","133","","19","","","","1","","","","","1","","","","","148","522","","","","","","","","","","","","","","","","","","","","","","","","",""
"","reward_outcome","","html-keyboard-response","245","1004886","0.0-191.0","0","0","Dw8mv","Scenes","","686","","","38","","133","","19","","","","","","","","","","","","","","","","1","686","","","","","","","","","","","","","","","","","","","","","","",""
"","fixation","","html-keyboard-response","246","1005895","0.0-194.0","0","0","Dw8mv","Scenes","","null","","","null","","","","","","","","","","","","","","","","","","","","","","","","","","","","","","","","","","","","","","","","","","","",""
"","see_reward","","html-keyboard-response","247","1006736","0.0-195.0","0","0","Dw8mv","Scenes","","840","","","32","","135","","20","","","","-1","","","","","1","","","","","0","840","","","","","","","","","","","","","","","","","","","","","","","","",""
"","reward_outcome","","html-keyboard-response","248","1008752","0.0-196.0","0","0","Dw8mv","Scenes","","1301","","","40","","135","","20","","","","","","","","","","","","","","","","-1","1301","","","","","","","","","","","","","","","","","","","","","","",""
"","fixation","","html-keyboard-response","249","1009763","0.0-199.0","0","0","Dw8mv","Scenes","","null","","","null","","","","","","","","","","","","","","","","","","","","","","","","","","","","","","","","","","","","","","","","","","","",""
"","see_reward","","html-keyboard-response","250","1010184","0.0-200.0","0","0","Dw8mv","Scenes","","420","","","32","","140","","21","","","","-1","","","","","1","","","","","0","420","","","","","","","","","","","","","","","","","","","","","","","","",""
"","reward_outcome","","html-keyboard-response","251","1012189","0.0-201.0","0","0","Dw8mv","Scenes","","675","","","40","","140","","21","","","","","","","","","","","","","","","","-1","675","","","","","","","","","","","","","","","","","","","","","","",""
"","fixation","","html-keyboard-response","252","1013205","0.0-204.0","0","0","Dw8mv","Scenes","","null","","","null","","","","","","","","","","","","","","","","","","","","","","","","","","","","","","","","","","","","","","","","","","","",""
"","see_reward","","html-keyboard-response","253","1013518","0.0-205.0","0","0","Dw8mv","Scenes","","311","","","32","","127","","22","","","","-1","","","","","1","","","","","0","311","","","","","","","","","","","","","","","","","","","","","","","","",""
"","reward_outcome","","html-keyboard-response","254","1015533","0.0-206.0","0","0","Dw8mv","Scenes","","579","","","40","","127","","22","","","","","","","","","","","","","","","","-1","579","","","","","","","","","","","","","","","","","","","","","","",""
"","fixation","","html-keyboard-response","255","1016548","0.0-209.0","0","0","Dw8mv","Scenes","","null","","","null","","","","","","","","","","","","","","","","","","","","","","","","","","","","","","","","","","","","","","","","","","","",""
"","see_reward","","html-keyboard-response","256","1016857","0.0-210.0","0","0","Dw8mv","Scenes","","307","","","32","","132","","23","","","","1","","","","","1","","","","","151","307","","","","","","","","","","","","","","","","","","","","","","","","",""
"","reward_outcome","","html-keyboard-response","257","1018862","0.0-211.0","0","0","Dw8mv","Scenes","","614","","","38","","132","","23","","","","","","","","","","","","","","","","1","614","","","","","","","","","","","","","","","","","","","","","","",""
"","block_over","","html-keyboard-response","258","1022257","0.0-213.0-0.0","0","0","Dw8mv","Scenes","","3393","","","78","","","","","","","","","","","","","","","","","","","","","","","","","","","","","","","","","","","","","","","","","","","",""
"","fixation","","html-keyboard-response","259","1023260","0.0-214.0","0","0","Dw8mv","Scenes","","null","","","null","","","","","","","","","","","","","","","","","","","","","","","","","","","","","","","","","","","","","","","","","","","",""
"","see_reward","","html-keyboard-response","260","1026686","0.0-215.0","0","0","Dw8mv","Scenes","","3424","","","32","","112","","24","","","","1","","","","","2","","","","","141","3424","","","","","","","","","","","","","","","","","","","","","","","","",""
"","reward_outcome","","html-keyboard-response","261","1028691","0.0-216.0","0","0","Dw8mv","Scenes","","1202","","","38","","112","","24","","","","","","","","","","","","","","","","1","1202","","","","","","","","","","","","","","","","","","","","","","",""
"","fixation","","html-keyboard-response","262","1029700","0.0-219.0","0","0","Dw8mv","Scenes","","null","","","null","","","","","","","","","","","","","","","","","","","","","","","","","","","","","","","","","","","","","","","","","","","",""
"","see_reward","","html-keyboard-response","263","1030271","0.0-220.0","0","0","Dw8mv","Scenes","","570","","","32","","140","","25","","","","-1","","","","","2","","","","","0","570","","","","","","","","","","","","","","","","","","","","","","","","",""
"","reward_outcome","","html-keyboard-response","264","1032284","0.0-221.0","0","0","Dw8mv","Scenes","","815","","","40","","140","","25","","","","","","","","","","","","","","","","-1","815","","","","","","","","","","","","","","","","","","","","","","",""
"","fixation","","html-keyboard-response","265","1033291","0.0-224.0","0","0","Dw8mv","Scenes","","null","","","null","","","","","","","","","","","","","","","","","","","","","","","","","","","","","","","","","","","","","","","","","","","",""
"","see_reward","","html-keyboard-response","266","1033928","0.0-225.0","0","0","Dw8mv","Scenes","","635","","","32","","126","","26","","","","1","","","","","2","","","","","147","635","","","","","","","","","","","","","","","","","","","","","","","","",""
"","reward_outcome","","html-keyboard-response","267","1035938","0.0-226.0","0","0","Dw8mv","Scenes","","979","","","38","","126","","26","","","","","","","","","","","","","","","","1","979","","","","","","","","","","","","","","","","","","","","","","",""
"","fixation","","html-keyboard-response","268","1036944","0.0-229.0","0","0","Dw8mv","Scenes","","null","","","null","","","","","","","","","","","","","","","","","","","","","","","","","","","","","","","","","","","","","","","","","","","",""
"","see_reward","","html-keyboard-response","269","1037272","0.0-230.0","0","0","Dw8mv","Scenes","","326","","","32","","131","","27","","","","1","","","","","2","","","","","149","326","","","","","","","","","","","","","","","","","","","","","","","","",""
"","reward_outcome","","html-keyboard-response","270","1039290","0.0-231.0","0","0","Dw8mv","Scenes","","1054","","","38","","131","","27","","","","","","","","","","","","","","","","1","1054","","","","","","","","","","","","","","","","","","","","","","",""
"","fixation","","html-keyboard-response","271","1040292","0.0-234.0","0","0","Dw8mv","Scenes","","null","","","null","","","","","","","","","","","","","","","","","","","","","","","","","","","","","","","","","","","","","","","","","","","",""
"","see_reward","","html-keyboard-response","272","1040917","0.0-235.0","0","0","Dw8mv","Scenes","","624","","","32","","101","","28","","","","-1","","","","","2","","","","","0","624","","","","","","","","","","","","","","","","","","","","","","","","",""
"","reward_outcome","","html-keyboard-response","273","1042925","0.0-236.0","0","0","Dw8mv","Scenes","","569","","","40","","101","","28","","","","","","","","","","","","","","","","-1","569","","","","","","","","","","","","","","","","","","","","","","",""
"","fixation","","html-keyboard-response","274","1043936","0.0-239.0","0","0","Dw8mv","Scenes","","null","","","null","","","","","","","","","","","","","","","","","","","","","","","","","","","","","","","","","","","","","","","","","","","",""
"","see_reward","","html-keyboard-response","275","1044516","0.0-240.0","0","0","Dw8mv","Scenes","","580","","","32","","115","","29","","","","-1","","","","","2","","","","","0","580","","","","","","","","","","","","","","","","","","","","","","","","",""
"","reward_outcome","","html-keyboard-response","276","1046529","0.0-241.0","0","0","Dw8mv","Scenes","","502","","","40","","115","","29","","","","","","","","","","","","","","","","-1","502","","","","","","","","","","","","","","","","","","","","","","",""
"","fixation","","html-keyboard-response","277","1047538","0.0-244.0","0","0","Dw8mv","Scenes","","null","","","null","","","","","","","","","","","","","","","","","","","","","","","","","","","","","","","","","","","","","","","","","","","",""
"","see_reward","","html-keyboard-response","278","1047937","0.0-245.0","0","0","Dw8mv","Scenes","","398","","","32","","140","","30","","","","-1","","","","","2","","","","","0","398","","","","","","","","","","","","","","","","","","","","","","","","",""
"","reward_outcome","","html-keyboard-response","279","1049941","0.0-246.0","0","0","Dw8mv","Scenes","","552","","","40","","140","","30","","","","","","","","","","","","","","","","-1","552","","","","","","","","","","","","","","","","","","","","","","",""
"","fixation","","html-keyboard-response","280","1050955","0.0-249.0","0","0","Dw8mv","Scenes","","null","","","null","","","","","","","","","","","","","","","","","","","","","","","","","","","","","","","","","","","","","","","","","","","",""
"","see_reward","","html-keyboard-response","281","1051238","0.0-250.0","0","0","Dw8mv","Scenes","","281","","","32","","115","","31","","","","-1","","","","","2","","","","","0","281","","","","","","","","","","","","","","","","","","","","","","","","",""
"","reward_outcome","","html-keyboard-response","282","1053250","0.0-251.0","0","0","Dw8mv","Scenes","","479","","","40","","115","","31","","","","","","","","","","","","","","","","-1","479","","","","","","","","","","","","","","","","","","","","","","",""
"","fixation","","html-keyboard-response","283","1054260","0.0-254.0","0","0","Dw8mv","Scenes","","null","","","null","","","","","","","","","","","","","","","","","","","","","","","","","","","","","","","","","","","","","","","","","","","",""
"","see_reward","","html-keyboard-response","284","1054729","0.0-255.0","0","0","Dw8mv","Scenes","","468","","","32","","135","","32","","","","-1","","","","","2","","","","","0","468","","","","","","","","","","","","","","","","","","","","","","","","",""
"","reward_outcome","","html-keyboard-response","285","1056732","0.0-256.0","0","0","Dw8mv","Scenes","","590","","","40","","135","","32","","","","","","","","","","","","","","","","-1","590","","","","","","","","","","","","","","","","","","","","","","",""
"","fixation","","html-keyboard-response","286","1057747","0.0-259.0","0","0","Dw8mv","Scenes","","null","","","null","","","","","","","","","","","","","","","","","","","","","","","","","","","","","","","","","","","","","","","","","","","",""
"","see_reward","","html-keyboard-response","287","1058897","0.0-260.0","0","0","Dw8mv","Scenes","","1149","","","32","","112","","33","","","","1","","","","","2","","","","","141","1149","","","","","","","","","","","","","","","","","","","","","","","","",""
"","reward_outcome","","html-keyboard-response","288","1060909","0.0-261.0","0","0","Dw8mv","Scenes","","929","","","38","","112","","33","","","","","","","","","","","","","","","","1","929","","","","","","","","","","","","","","","","","","","","","","",""
"","fixation","","html-keyboard-response","289","1061916","0.0-264.0","0","0","Dw8mv","Scenes","","null","","","null","","","","","","","","","","","","","","","","","","","","","","","","","","","","","","","","","","","","","","","","","","","",""
"","see_reward","","html-keyboard-response","290","1062180","0.0-265.0","0","0","Dw8mv","Scenes","","262","","","32","","108","","34","","","","1","","","","","2","","","","","150","262","","","","","","","","","","","","","","","","","","","","","","","","",""
"","reward_outcome","","html-keyboard-response","291","1064198","0.0-266.0","0","0","Dw8mv","Scenes","","646","","","38","","108","","34","","","","","","","","","","","","","","","","1","646","","","","","","","","","","","","","","","","","","","","","","",""
"","fixation","","html-keyboard-response","292","1065214","0.0-269.0","0","0","Dw8mv","Scenes","","null","","","null","","","","","","","","","","","","","","","","","","","","","","","","","","","","","","","","","","","","","","","","","","","",""
"","see_reward","","html-keyboard-response","293","1065909","0.0-270.0","0","0","Dw8mv","Scenes","","694","","","32","","131","","35","","","","1","","","","","2","","","","","149","694","","","","","","","","","","","","","","","","","","","","","","","","",""
"","reward_outcome","","html-keyboard-response","294","1067916","0.0-271.0","0","0","Dw8mv","Scenes","","694","","","38","","131","","35","","","","","","","","","","","","","","","","1","694","","","","","","","","","","","","","","","","","","","","","","",""
"","fixation","","html-keyboard-response","295","1068925","0.0-274.0","0","0","Dw8mv","Scenes","","null","","","null","","","","","","","","","","","","","","","","","","","","","","","","","","","","","","","","","","","","","","","","","","","",""
"","see_reward","","html-keyboard-response","296","1069478","0.0-275.0","0","0","Dw8mv","Scenes","","552","","","32","","127","","36","","","","-1","","","","","2","","","","","0","552","","","","","","","","","","","","","","","","","","","","","","","","",""
"","reward_outcome","","html-keyboard-response","297","1071496","0.0-276.0","0","0","Dw8mv","Scenes","","610","","","40","","127","","36","","","","","","","","","","","","","","","","-1","610","","","","","","","","","","","","","","","","","","","","","","",""
"","fixation","","html-keyboard-response","298","1072502","0.0-279.0","0","0","Dw8mv","Scenes","","null","","","null","","","","","","","","","","","","","","","","","","","","","","","","","","","","","","","","","","","","","","","","","","","",""
"","see_reward","","html-keyboard-response","299","1073362","0.0-280.0","0","0","Dw8mv","Scenes","","858","","","32","","135","","37","","","","-1","","","","","2","","","","","0","858","","","","","","","","","","","","","","","","","","","","","","","","",""
"","reward_outcome","","html-keyboard-response","300","1075378","0.0-281.0","0","0","Dw8mv","Scenes","","724","","","40","","135","","37","","","","","","","","","","","","","","","","-1","724","","","","","","","","","","","","","","","","","","","","","","",""
"","fixation","","html-keyboard-response","301","1076383","0.0-284.0","0","0","Dw8mv","Scenes","","null","","","null","","","","","","","","","","","","","","","","","","","","","","","","","","","","","","","","","","","","","","","","","","","",""
"","see_reward","","html-keyboard-response","302","1077040","0.0-285.0","0","0","Dw8mv","Scenes","","656","","","32","","133","","38","","","","1","","","","","2","","","","","148","656","","","","","","","","","","","","","","","","","","","","","","","","",""
"","reward_outcome","","html-keyboard-response","303","1079044","0.0-286.0","0","0","Dw8mv","Scenes","","796","","","38","","133","","38","","","","","","","","","","","","","","","","1","796","","","","","","","","","","","","","","","","","","","","","","",""
"","fixation","","html-keyboard-response","304","1080065","0.0-289.0","0","0","Dw8mv","Scenes","","null","","","null","","","","","","","","","","","","","","","","","","","","","","","","","","","","","","","","","","","","","","","","","","","",""
"","see_reward","","html-keyboard-response","305","1080585","0.0-290.0","0","0","Dw8mv","Scenes","","519","","","32","","127","","39","","","","-1","","","","","2","","","","","0","519","","","","","","","","","","","","","","","","","","","","","","","","",""
"","reward_outcome","","html-keyboard-response","306","1082592","0.0-291.0","0","0","Dw8mv","Scenes","","611","","","40","","127","","39","","","","","","","","","","","","","","","","-1","611","","","","","","","","","","","","","","","","","","","","","","",""
"","fixation","","html-keyboard-response","307","1083611","0.0-294.0","0","0","Dw8mv","Scenes","","null","","","null","","","","","","","","","","","","","","","","","","","","","","","","","","","","","","","","","","","","","","","","","","","",""
"","see_reward","","html-keyboard-response","308","1083950","0.0-295.0","0","0","Dw8mv","Scenes","","338","","","32","","126","","40","","","","1","","","","","2","","","","","147","338","","","","","","","","","","","","","","","","","","","","","","","","",""
"","reward_outcome","","html-keyboard-response","309","1085956","0.0-296.0","0","0","Dw8mv","Scenes","","618","","","38","","126","","40","","","","","","","","","","","","","","","","1","618","","","","","","","","","","","","","","","","","","","","","","",""
"","fixation","","html-keyboard-response","310","1086964","0.0-299.0","0","0","Dw8mv","Scenes","","null","","","null","","","","","","","","","","","","","","","","","","","","","","","","","","","","","","","","","","","","","","","","","","","",""
"","see_reward","","html-keyboard-response","311","1087650","0.0-300.0","0","0","Dw8mv","Scenes","","685","","","32","","101","","41","","","","-1","","","","","2","","","","","0","685","","","","","","","","","","","","","","","","","","","","","","","","",""
"","reward_outcome","","html-keyboard-response","312","1089662","0.0-301.0","0","0","Dw8mv","Scenes","","715","","","40","","101","","41","","","","","","","","","","","","","","","","-1","715","","","","","","","","","","","","","","","","","","","","","","",""
"","fixation","","html-keyboard-response","313","1090669","0.0-304.0","0","0","Dw8mv","Scenes","","null","","","null","","","","","","","","","","","","","","","","","","","","","","","","","","","","","","","","","","","","","","","","","","","",""
"","see_reward","","html-keyboard-response","314","1091114","0.0-305.0","0","0","Dw8mv","Scenes","","445","","","32","","132","","42","","","","1","","","","","2","","","","","151","445","","","","","","","","","","","","","","","","","","","","","","","","",""
"","reward_outcome","","html-keyboard-response","315","1093126","0.0-306.0","0","0","Dw8mv","Scenes","","446","","","38","","132","","42","","","","","","","","","","","","","","","","1","446","","","","","","","","","","","","","","","","","","","","","","",""
"","fixation","","html-keyboard-response","316","1094147","0.0-309.0","0","0","Dw8mv","Scenes","","null","","","null","","","","","","","","","","","","","","","","","","","","","","","","","","","","","","","","","","","","","","","","","","","",""
"","see_reward","","html-keyboard-response","317","1094547","0.0-310.0","0","0","Dw8mv","Scenes","","399","","","32","","133","","43","","","","1","","","","","2","","","","","148","399","","","","","","","","","","","","","","","","","","","","","","","","",""
"","reward_outcome","","html-keyboard-response","318","1096555","0.0-311.0","0","0","Dw8mv","Scenes","","583","","","38","","133","","43","","","","","","","","","","","","","","","","1","583","","","","","","","","","","","","","","","","","","","","","","",""
"","fixation","","html-keyboard-response","319","1097565","0.0-314.0","0","0","Dw8mv","Scenes","","null","","","null","","","","","","","","","","","","","","","","","","","","","","","","","","","","","","","","","","","","","","","","","","","",""
"","see_reward","","html-keyboard-response","320","1098288","0.0-315.0","0","0","Dw8mv","Scenes","","722","","","32","","109","","44","","","","-1","","","","","2","","","","","0","722","","","","","","","","","","","","","","","","","","","","","","","","",""
"","reward_outcome","","html-keyboard-response","321","1100290","0.0-316.0","0","0","Dw8mv","Scenes","","507","","","40","","109","","44","","","","","","","","","","","","","","","","-1","507","","","","","","","","","","","","","","","","","","","","","","",""
"","fixation","","html-keyboard-response","322","1101293","0.0-319.0","0","0","Dw8mv","Scenes","","null","","","null","","","","","","","","","","","","","","","","","","","","","","","","","","","","","","","","","","","","","","","","","","","",""
"","see_reward","","html-keyboard-response","323","1101707","0.0-320.0","0","0","Dw8mv","Scenes","","414","","","32","","132","","45","","","","1","","","","","2","","","","","151","414","","","","","","","","","","","","","","","","","","","","","","","","",""
"","reward_outcome","","html-keyboard-response","324","1103723","0.0-321.0","0","0","Dw8mv","Scenes","","585","","","38","","132","","45","","","","","","","","","","","","","","","","1","585","","","","","","","","","","","","","","","","","","","","","","",""
"","fixation","","html-keyboard-response","325","1104739","0.0-324.0","0","0","Dw8mv","Scenes","","null","","","null","","","","","","","","","","","","","","","","","","","","","","","","","","","","","","","","","","","","","","","","","","","",""
"","see_reward","","html-keyboard-response","326","1105295","0.0-325.0","0","0","Dw8mv","Scenes","","555","","","32","","109","","46","","","","-1","","","","","2","","","","","0","555","","","","","","","","","","","","","","","","","","","","","","","","",""
"","reward_outcome","","html-keyboard-response","327","1107313","0.0-326.0","0","0","Dw8mv","Scenes","","593","","","40","","109","","46","","","","","","","","","","","","","","","","-1","593","","","","","","","","","","","","","","","","","","","","","","",""
"","fixation","","html-keyboard-response","328","1108319","0.0-329.0","0","0","Dw8mv","Scenes","","null","","","null","","","","","","","","","","","","","","","","","","","","","","","","","","","","","","","","","","","","","","","","","","","",""
"","see_reward","","html-keyboard-response","329","1108693","0.0-330.0","0","0","Dw8mv","Scenes","","374","","","32","","108","","47","","","","1","","","","","2","","","","","150","374","","","","","","","","","","","","","","","","","","","","","","","","",""
"","reward_outcome","","html-keyboard-response","330","1110708","0.0-331.0","0","0","Dw8mv","Scenes","","688","","","38","","108","","47","","","","","","","","","","","","","","","","1","688","","","","","","","","","","","","","","","","","","","","","","",""
"","block_over","","html-keyboard-response","331","1112644","0.0-333.0-0.0","0","0","Dw8mv","Scenes","","1935","","","78","","","","","","","","","","","","","","","","","","","","","","","","","","","","","","","","","","","","","","","","","","","",""
"","fixation","","html-keyboard-response","332","1113656","0.0-334.0","0","0","Dw8mv","Scenes","","null","","","null","","","","","","","","","","","","","","","","","","","","","","","","","","","","","","","","","","","","","","","","","","","",""
"","see_reward","","html-keyboard-response","333","1114433","0.0-335.0","0","0","Dw8mv","Scenes","","775","","","32","","101","","48","","","","-1","","","","","3","","","","","0","775","","","","","","","","","","","","","","","","","","","","","","","","",""
"","reward_outcome","","html-keyboard-response","334","1116440","0.0-336.0","0","0","Dw8mv","Scenes","","690","","","40","","101","","48","","","","","","","","","","","","","","","","-1","690","","","","","","","","","","","","","","","","","","","","","","",""
"","fixation","","html-keyboard-response","335","1117445","0.0-339.0","0","0","Dw8mv","Scenes","","null","","","null","","","","","","","","","","","","","","","","","","","","","","","","","","","","","","","","","","","","","","","","","","","",""
"","see_reward","","html-keyboard-response","336","1117743","0.0-340.0","0","0","Dw8mv","Scenes","","296","","","32","","131","","49","","","","1","","","","","3","","","","","149","296","","","","","","","","","","","","","","","","","","","","","","","","",""
"","reward_outcome","","html-keyboard-response","337","1119753","0.0-341.0","0","0","Dw8mv","Scenes","","670","","","38","","131","","49","","","","","","","","","","","","","","","","1","670","","","","","","","","","","","","","","","","","","","","","","",""
"","fixation","","html-keyboard-response","338","1120756","0.0-344.0","0","0","Dw8mv","Scenes","","null","","","null","","","","","","","","","","","","","","","","","","","","","","","","","","","","","","","","","","","","","","","","","","","",""
"","see_reward","","html-keyboard-response","339","1121044","0.0-345.0","0","0","Dw8mv","Scenes","","287","","","32","","133","","50","","","","1","","","","","3","","","","","148","287","","","","","","","","","","","","","","","","","","","","","","","","",""
"","reward_outcome","","html-keyboard-response","340","1123054","0.0-346.0","0","0","Dw8mv","Scenes","","592","","","38","","133","","50","","","","","","","","","","","","","","","","1","592","","","","","","","","","","","","","","","","","","","","","","",""
"","fixation","","html-keyboard-response","341","1124065","0.0-349.0","0","0","Dw8mv","Scenes","","null","","","null","","","","","","","","","","","","","","","","","","","","","","","","","","","","","","","","","","","","","","","","","","","",""
"","see_reward","","html-keyboard-response","342","1124368","0.0-350.0","0","0","Dw8mv","Scenes","","301","","","32","","135","","51","","","","-1","","","","","3","","","","","0","301","","","","","","","","","","","","","","","","","","","","","","","","",""
"","reward_outcome","","html-keyboard-response","343","1126375","0.0-351.0","0","0","Dw8mv","Scenes","","502","","","40","","135","","51","","","","","","","","","","","","","","","","-1","502","","","","","","","","","","","","","","","","","","","","","","",""
"","fixation","","html-keyboard-response","344","1127385","0.0-354.0","0","0","Dw8mv","Scenes","","null","","","null","","","","","","","","","","","","","","","","","","","","","","","","","","","","","","","","","","","","","","","","","","","",""
"","see_reward","","html-keyboard-response","345","1127727","0.0-355.0","0","0","Dw8mv","Scenes","","342","","","32","","112","","52","","","","1","","","","","3","","","","","141","342","","","","","","","","","","","","","","","","","","","","","","","","",""
"","reward_outcome","","html-keyboard-response","346","1129739","0.0-356.0","0","0","Dw8mv","Scenes","","678","","","38","","112","","52","","","","","","","","","","","","","","","","1","678","","","","","","","","","","","","","","","","","","","","","","",""
"","fixation","","html-keyboard-response","347","1130755","0.0-359.0","0","0","Dw8mv","Scenes","","null","","","null","","","","","","","","","","","","","","","","","","","","","","","","","","","","","","","","","","","","","","","","","","","",""
"","see_reward","","html-keyboard-response","348","1131043","0.0-360.0","0","0","Dw8mv","Scenes","","286","","","32","","109","","53","","","","-1","","","","","3","","","","","0","286","","","","","","","","","","","","","","","","","","","","","","","","",""
"","reward_outcome","","html-keyboard-response","349","1133056","0.0-361.0","0","0","Dw8mv","Scenes","","495","","","40","","109","","53","","","","","","","","","","","","","","","","-1","495","","","","","","","","","","","","","","","","","","","","","","",""
"","fixation","","html-keyboard-response","350","1134061","0.0-364.0","0","0","Dw8mv","Scenes","","null","","","null","","","","","","","","","","","","","","","","","","","","","","","","","","","","","","","","","","","","","","","","","","","",""
