"success","ttype","start_time","trial_type","trial_index","time_elapsed","internal_node_id","warning","missed_checkup","PID","stim_type","view_history","rt","responses","category","repeat_instructions","key_press","response","stimulus_id","painting","index","stimulus_left","stimulus_right","explain_trial","reward_type","rating_left","rating_right","painting_left","painting_right","block","left_chosen","chosen_obj","unchosen_obj","explain_response","reward_amount","see_reward_rt","register_reward_response","register_reward_rt","deliberation_reward_tally","stimulus_left_deliberation_ind","stimulus_right_deliberation_ind","chosen_trial","gain_left","higher_outcome_chosen","old_pair","chosen_object","rt_pairs","left_object_chosen","rt_object","old_response","new_rating","deliberated_stim","initial_rating","outcome_eval_rt","outcome_eval_response","outcome_eval_gain","outcome_eval_acc","preamble","outcome_eval_confidence","outcome_eval_confidence_rt","total_reward_tally"
"true","full_screen","d01182023hr1355","fullscreen","0","10143","0.0-0.0","0","0","sNyXJ","People","","","","","","","","","","","","","","","","","","","","","","","","","","","","","","","","","","","","","","","","","","","","","","","","","",""
"","rating_instructions","","instructions","1","17789","0.0-1.0-0.0","0","0","sNyXJ","People","[{""page_index"":0,""viewing_time"":5876},{""page_index"":1,""viewing_time"":1768}]","7644","","","","","","","","","","","","","","","","","","","","","","","","","","","","","","","","","","","","","","","","","","","","","","","",""
"","","","survey-multi-choice","2","23667","0.0-1.0-1.0","0","0","sNyXJ","People","","5875","{""Q0"":""True"",""Q1"":""Two optional keys""}","rating_comprehension_check","1","","","","","","","","","","","","","","","","","","","","","","","","","","","","","","","","","","","","","","","","","","","","",""
"","missed_instruction_checkup","","html-keyboard-response","3","26162","0.0-1.0-2.0-0.0","0","1","sNyXJ","People","","2491","","","","78","","","","","","","","","","","","","","","","","","","","","","","","","","","","","","","","","","","","","","","","","","","",""
"","rating_instructions","","instructions","4","30571","0.0-1.1-0.1","0","0","sNyXJ","People","[{""page_index"":0,""viewing_time"":2821},{""page_index"":1,""viewing_time"":1586}]","4407","","","","","","","","","","","","","","","","","","","","","","","","","","","","","","","","","","","","","","","","","","","","","","","",""
"","","","survey-multi-choice","5","33966","0.0-1.1-1.1","0","0","sNyXJ","People","","3394","{""Q0"":""True"",""Q1"":""Mouse""}","rating_comprehension_check","0","","","","","","","","","","","","","","","","","","","","","","","","","","","","","","","","","","","","","","","","","","","","",""
"","start_phase","","html-keyboard-response","6","35761","0.0-2.0","0","0","sNyXJ","People","","1792","","","","78","","","","","","","","","","","","","","","","","","","","","","","","","","","","","","","","","","","","","","","","","","","",""
"","rating","","html-slider-response","7","38727","0.0-3.0","0","0","sNyXJ","People","","2963","","","","","47","39","philip-martin-5aGUyCW_PJw-unsplash.jpg","0","","","","","","","","","","","","","","","","","","","","","","","","","","","","","","","","","","","","","","","",""
"","rating","","html-slider-response","8","40575","0.0-4.0","0","0","sNyXJ","People","","1847","","","","","44","13","erik-lucatero-d2MSDujJl2g-unsplash.jpg","1","","","","","","","","","","","","","","","","","","","","","","","","","","","","","","","","","","","","","","","",""
"","rating","","html-slider-response","9","43079","0.0-5.0","0","0","sNyXJ","People","","2502","","","","","69","1","aiony-haust-jmATI5Q_YgY-unsplash.jpg","2","","","","","","","","","","","","","","","","","","","","","","","","","","","","","","","","","","","","","","","",""
"","rating","","html-slider-response","10","44801","0.0-6.0","0","0","sNyXJ","People","","1721","","","","","57","36","ospan-ali-mGdA2fzjWLo-unsplash.jpg","3","","","","","","","","","","","","","","","","","","","","","","","","","","","","","","","","","","","","","","","",""
"","rating","","html-slider-response","11","46607","0.0-7.0","0","0","sNyXJ","People","","1805","","","","","39","10","charles-etoroma-95UF6LXe-Lo-unsplash.jpg","4","","","","","","","","","","","","","","","","","","","","","","","","","","","","","","","","","","","","","","","",""
"","rating","","html-slider-response","12","48827","0.0-8.0","0","0","sNyXJ","People","","2219","","","","","58","24","joel-mott-LaK153ghdig-unsplash.jpg","5","","","","","","","","","","","","","","","","","","","","","","","","","","","","","","","","","","","","","","","",""
"","rating","","html-slider-response","13","50669","0.0-9.0","0","0","sNyXJ","People","","1840","","","","","47","0","abstral-official-cyOKLSgkgCE-unsplash.jpg","6","","","","","","","","","","","","","","","","","","","","","","","","","","","","","","","","","","","","","","","",""
"","rating","","html-slider-response","14","52852","0.0-10.0","0","0","sNyXJ","People","","2183","","","","","34","29","leilani-angel-K84vnnzxmTQ-unsplash.jpg","7","","","","","","","","","","","","","","","","","","","","","","","","","","","","","","","","","","","","","","","",""
"","rating","","html-slider-response","15","55138","0.0-11.0","0","0","sNyXJ","People","","2285","","","","","44","49","vicky-hladynets-_gDoyVv5F4c-unsplash.jpg","8","","","","","","","","","","","","","","","","","","","","","","","","","","","","","","","","","","","","","","","",""
"","rating","","html-slider-response","16","57307","0.0-12.0","0","0","sNyXJ","People","","2167","","","","","62","17","gleb-lukomets-paBzWCPN23k-unsplash.jpg","9","","","","","","","","","","","","","","","","","","","","","","","","","","","","","","","","","","","","","","","",""
"","rating","","html-slider-response","17","59320","0.0-13.0","0","0","sNyXJ","People","","2013","","","","","45","23","joanna-nix-walkup-H4fEMshfwTE-unsplash.jpg","10","","","","","","","","","","","","","","","","","","","","","","","","","","","","","","","","","","","","","","","",""
"","rating","","html-slider-response","18","61242","0.0-14.0","0","0","sNyXJ","People","","1920","","","","","41","47","tyler-nix-ZGa9d1a_4tA-unsplash.jpg","11","","","","","","","","","","","","","","","","","","","","","","","","","","","","","","","","","","","","","","","",""
"","rating","","html-slider-response","19","65422","0.0-15.0","0","0","sNyXJ","People","","4179","","","","","44","9","carlos-andres-gomez-vJuk8Y86mRw-unsplash.jpg","12","","","","","","","","","","","","","","","","","","","","","","","","","","","","","","","","","","","","","","","",""
"","rating","","html-slider-response","20","66948","0.0-16.0","0","0","sNyXJ","People","","1524","","","","","41","25","joseph-gonzalez-iFgRcqHznqg-unsplash.jpg","13","","","","","","","","","","","","","","","","","","","","","","","","","","","","","","","","","","","","","","","",""
"","rating","","html-slider-response","21","68432","0.0-17.0","0","0","sNyXJ","People","","1482","","","","","36","38","petr-sevcovic-HzDF-rxlSeM-unsplash.jpg","14","","","","","","","","","","","","","","","","","","","","","","","","","","","","","","","","","","","","","","","",""
"","rating","","html-slider-response","22","70577","0.0-18.0","0","0","sNyXJ","People","","2143","","","","","46","45","sarah-noltner-pL5ZzPp1zqg-unsplash.jpg","15","","","","","","","","","","","","","","","","","","","","","","","","","","","","","","","","","","","","","","","",""
"","rating","","html-slider-response","23","72186","0.0-19.0","0","0","sNyXJ","People","","1609","","","","","42","26","juri-gianfrancesco-9EZadYaMzk4-unsplash.jpg","16","","","","","","","","","","","","","","","","","","","","","","","","","","","","","","","","","","","","","","","",""
"","rating","","html-slider-response","24","74400","0.0-20.0","0","0","sNyXJ","People","","2213","","","","","65","7","brooke-cagle-HRZUzoX1e6w-unsplash.jpg","17","","","","","","","","","","","","","","","","","","","","","","","","","","","","","","","","","","","","","","","",""
"","rating","","html-slider-response","25","76468","0.0-21.0","0","0","sNyXJ","People","","2066","","","","","38","28","justin-chen-J7Cf1Gch49E-unsplash.jpg","18","","","","","","","","","","","","","","","","","","","","","","","","","","","","","","","","","","","","","","","",""
"","rating","","html-slider-response","26","78648","0.0-22.0","0","0","sNyXJ","People","","2179","","","","","66","33","olena-sergienko-0TSd6uCKTKc-unsplash.jpg","19","","","","","","","","","","","","","","","","","","","","","","","","","","","","","","","","","","","","","","","",""
"","rating","","html-slider-response","27","80468","0.0-23.0","0","0","sNyXJ","People","","1819","","","","","39","6","ben-o-bro-C5XyLljkMrY-unsplash.jpg","20","","","","","","","","","","","","","","","","","","","","","","","","","","","","","","","","","","","","","","","",""
"","rating","","html-slider-response","28","82488","0.0-24.0","0","0","sNyXJ","People","","2018","","","","","37","8","bruce-dixon-3M9WJQVHzog-unsplash.jpg","21","","","","","","","","","","","","","","","","","","","","","","","","","","","","","","","","","","","","","","","",""
"","rating","","html-slider-response","29","84426","0.0-25.0","0","0","sNyXJ","People","","1937","","","","","39","40","prince-akachi-4Yv84VgQkRM-unsplash.jpg","22","","","","","","","","","","","","","","","","","","","","","","","","","","","","","","","","","","","","","","","",""
"","rating","","html-slider-response","30","87076","0.0-26.0","0","0","sNyXJ","People","","2649","","","","","57","20","houcine-ncib-B4TjXnI0Y2c-unsplash.jpg","23","","","","","","","","","","","","","","","","","","","","","","","","","","","","","","","","","","","","","","","",""
"","rating","","html-slider-response","31","89908","0.0-27.0","0","0","sNyXJ","People","","2831","","","","","52","44","rikonavt-HQjfrvdTfak-unsplash.jpg","24","","","","","","","","","","","","","","","","","","","","","","","","","","","","","","","","","","","","","","","",""
"","rating","","html-slider-response","32","92084","0.0-28.0","0","0","sNyXJ","People","","2174","","","","","63","34","oliver-johnson-1TUIcKob7Zs-unsplash.jpg","25","","","","","","","","","","","","","","","","","","","","","","","","","","","","","","","","","","","","","","","",""
"","rating","","html-slider-response","33","94560","0.0-29.0","0","0","sNyXJ","People","","2474","","","","","61","48","velizar-ivanov-7ktP9yZA1g4-unsplash.jpg","26","","","","","","","","","","","","","","","","","","","","","","","","","","","","","","","","","","","","","","","",""
"","rating","","html-slider-response","34","96404","0.0-30.0","0","0","sNyXJ","People","","1843","","","","","60","11","christian-ferrer-8vT-DgHZDG4-unsplash.jpg","27","","","","","","","","","","","","","","","","","","","","","","","","","","","","","","","","","","","","","","","",""
"","rating","","html-slider-response","35","98482","0.0-31.0","0","0","sNyXJ","People","","2077","","","","","53","41","prince-akachi-i2hoD-C2RUA-unsplash.jpg","28","","","","","","","","","","","","","","","","","","","","","","","","","","","","","","","","","","","","","","","",""
"","rating","","html-slider-response","36","100822","0.0-32.0","0","0","sNyXJ","People","","2338","","","","","41","14","freddy-kearney-o-ioeoATbIM-unsplash.jpg","29","","","","","","","","","","","","","","","","","","","","","","","","","","","","","","","","","","","","","","","",""
"","rating","","html-slider-response","37","103135","0.0-33.0","0","0","sNyXJ","People","","2311","","","","","59","31","mathilda-khoo-vLR0YP_otCo-unsplash.jpg","30","","","","","","","","","","","","","","","","","","","","","","","","","","","","","","","","","","","","","","","",""
"","rating","","html-slider-response","38","105022","0.0-34.0","0","0","sNyXJ","People","","1885","","","","","44","22","jessica-radanavong-mrYkTuAesKE-unsplash.jpg","31","","","","","","","","","","","","","","","","","","","","","","","","","","","","","","","","","","","","","","","",""
"","rating","","html-slider-response","39","107498","0.0-35.0","0","0","sNyXJ","People","","2475","","","","","66","12","daniel-rigdon-dXmXKPP2L4E-unsplash.jpg","32","","","","","","","","","","","","","","","","","","","","","","","","","","","","","","","","","","","","","","","",""
"","rating","","html-slider-response","40","109364","0.0-36.0","0","0","sNyXJ","People","","1864","","","","","42","27","jurica-koletic-7YVZYZeITc8-unsplash.jpg","33","","","","","","","","","","","","","","","","","","","","","","","","","","","","","","","","","","","","","","","",""
"","rating","","html-slider-response","41","111109","0.0-37.0","0","0","sNyXJ","People","","1743","","","","","62","5","batel-studio-ttSRjiYG_WM-unsplash.jpg","34","","","","","","","","","","","","","","","","","","","","","","","","","","","","","","","","","","","","","","","",""
"","rating","","html-slider-response","42","113519","0.0-38.0","0","0","sNyXJ","People","","2409","","","","","39","19","ha-nguy-n-OFSQ6bHjFjs-unsplash.jpg","35","","","","","","","","","","","","","","","","","","","","","","","","","","","","","","","","","","","","","","","",""
"","rating","","html-slider-response","43","115777","0.0-39.0","0","0","sNyXJ","People","","2257","","","","","66","43","raamin-ka-0qJBEzudn5E-unsplash.jpg","36","","","","","","","","","","","","","","","","","","","","","","","","","","","","","","","","","","","","","","","",""
"","rating","","html-slider-response","44","118345","0.0-40.0","0","0","sNyXJ","People","","2566","","","","","68","21","jessica-felicio-_cvwXhGqG-o-unsplash.jpg","37","","","","","","","","","","","","","","","","","","","","","","","","","","","","","","","","","","","","","","","",""
"","rating","","html-slider-response","45","120627","0.0-41.0","0","0","sNyXJ","People","","2280","","","","","34","4","barna-bartis-2x3vfVxwR7o-unsplash.jpg","38","","","","","","","","","","","","","","","","","","","","","","","","","","","","","","","","","","","","","","","",""
"","rating","","html-slider-response","46","123391","0.0-42.0","0","0","sNyXJ","People","","2763","","","","","27","32","nathan-dumlao-ger61_TX6oI-unsplash.jpg","39","","","","","","","","","","","","","","","","","","","","","","","","","","","","","","","","","","","","","","","",""
"","rating","","html-slider-response","47","125463","0.0-43.0","0","0","sNyXJ","People","","2070","","","","","67","46","stefan-stefancik-QXevDflbl8A-unsplash.jpg","40","","","","","","","","","","","","","","","","","","","","","","","","","","","","","","","","","","","","","","","",""
"","rating","","html-slider-response","48","127521","0.0-44.0","0","0","sNyXJ","People","","2056","","","","","65","16","giano-currie-5-9YOsmf8IQ-unsplash.jpg","41","","","","","","","","","","","","","","","","","","","","","","","","","","","","","","","","","","","","","","","",""
"","rating","","html-slider-response","49","129541","0.0-45.0","0","0","sNyXJ","People","","2018","","","","","66","18","good-faces-xmSWVeGEnJw-unsplash.jpg","42","","","","","","","","","","","","","","","","","","","","","","","","","","","","","","","","","","","","","","","",""
"","rating","","html-slider-response","50","132425","0.0-46.0","0","0","sNyXJ","People","","2883","","","","","57","42","prince-akachi-l3IHXOdMyHQ-unsplash.jpg","43","","","","","","","","","","","","","","","","","","","","","","","","","","","","","","","","","","","","","","","",""
"","rating","","html-slider-response","51","134269","0.0-47.0","0","0","sNyXJ","People","","1842","","","","","64","30","matheus-ferrero-pg_WCHWSdT8-unsplash.jpg","44","","","","","","","","","","","","","","","","","","","","","","","","","","","","","","","","","","","","","","","",""
"","rating","","html-slider-response","52","136265","0.0-48.0","0","0","sNyXJ","People","","1994","","","","","39","37","pavel-anoshin-d0peGya6R5Y-unsplash.jpg","45","","","","","","","","","","","","","","","","","","","","","","","","","","","","","","","","","","","","","","","",""
"","rating","","html-slider-response","53","138303","0.0-49.0","0","0","sNyXJ","People","","2037","","","","","63","3","art-hauntington-jzY0KRJopEI-unsplash.jpg","46","","","","","","","","","","","","","","","","","","","","","","","","","","","","","","","","","","","","","","","",""
"","rating","","html-slider-response","54","140411","0.0-50.0","0","0","sNyXJ","People","","2106","","","","","36","35","oliver-ragfelt-khV4fTy6-D8-unsplash.jpg","47","","","","","","","","","","","","","","","","","","","","","","","","","","","","","","","","","","","","","","","",""
"","rating","","html-slider-response","55","142527","0.0-51.0","0","0","sNyXJ","People","","2114","","","","","69","15","gabriel-silverio-u3WmDyKGsrY-unsplash.jpg","48","","","","","","","","","","","","","","","","","","","","","","","","","","","","","","","","","","","","","","","",""
"","rating","","html-slider-response","56","144481","0.0-52.0","0","0","sNyXJ","People","","1953","","","","","34","2","arjunsyah-TBUA5KHJn6k-unsplash.jpg","49","","","","","","","","","","","","","","","","","","","","","","","","","","","","","","","","","","","","","","","",""
"","deliberation_instructions","","instructions","57","605438","0.0-53.0-0.0","0","0","sNyXJ","People","[{""page_index"":0,""viewing_time"":437214},{""page_index"":1,""viewing_time"":6822},{""page_index"":2,""viewing_time"":7474},{""page_index"":3,""viewing_time"":8219},{""page_index"":4,""viewing_time"":1226}]","460955","","","","","","","","","","","","","","","","","","","","","","","","","","","","","","","","","","","","","","","","","","","","","","","",""
"","","","survey-multi-choice","58","624289","0.0-53.0-1.0","0","0","sNyXJ","People","","18847","{""Q0"":""True"",""Q1"":""True"",""Q2"":""Consider carefully and take your time (up to 10 seconds)"",""Q3"":""True"",""Q4"":""D""}","deliberation_comprehension_check","0","","","","","","","","","","","","","","","","","","","","","","","","","","","","","","","","","","","","","","","","","","","","",""
"","start_phase","","html-keyboard-response","59","627621","0.0-54.0","0","0","sNyXJ","People","","3329","","","","78","","","","","","","","","","","","","","","","","","","","","","","","","","","","","","","","","","","","","","","","","","","",""
"","first_deliberation_block","","html-keyboard-response","60","629172","0.0-55.0","0","0","sNyXJ","People","","1549","","","","78","","","","","","","","","","","","","","","","","","","","","","","","","","","","","","","","","","","","","","","","","","","",""
"","fixation","","html-keyboard-response","61","630183","0.0-56.0-0.0","0","0","sNyXJ","People","","null","","","","null","","","","","","","","","","","","","","","","","","","","","","","","","","","","","","","","","","","","","","","","","","","",""
"","deliberation","","html-keyboard-response","62","630996","0.0-56.0-1.0","0","0","sNyXJ","People","","811","","","","68","","","","0","48","47","0","1","61","41","velizar-ivanov-7ktP9yZA1g4-unsplash.jpg","tyler-nix-ZGa9d1a_4tA-unsplash.jpg","1","1","48","47","","","","","","","","","","","","","","","","","","","","","","","","","","","",""
"","choice_confirmation","","html-keyboard-response","63","631506","0.0-56.0-2.0-0.0","0","0","sNyXJ","People","","null","","","","null","","","","0","48","47","","","","","","","","","","","","","","","","","","","","","","","","","","","","","","","","","","","","","",""
"","fixation","","html-keyboard-response","64","632529","0.0-57.0-0.0","0","0","sNyXJ","People","","null","","","","null","","","","","","","","","","","","","","","","","","","","","","","","","","","","","","","","","","","","","","","","","","","",""
"","deliberation","","html-keyboard-response","65","634013","0.0-57.0-1.0","0","0","sNyXJ","People","","1482","","","","75","","","","1","24","11","0","-1","58","60","joel-mott-LaK153ghdig-unsplash.jpg","christian-ferrer-8vT-DgHZDG4-unsplash.jpg","1","0","11","24","","","","","","","","","","","","","","","","","","","","","","","","","","","",""
"","choice_confirmation","","html-keyboard-response","66","634527","0.0-57.0-2.0-0.0","0","0","sNyXJ","People","","null","","","","null","","","","1","24","11","","","","","","","","","","","","","","","","","","","","","","","","","","","","","","","","","","","","","",""
"","fixation","","html-keyboard-response","67","635535","0.0-58.0-0.0","0","0","sNyXJ","People","","null","","","","null","","","","","","","","","","","","","","","","","","","","","","","","","","","","","","","","","","","","","","","","","","","",""
"","deliberation","","html-keyboard-response","68","636589","0.0-58.0-1.0","0","0","sNyXJ","People","","1052","","","","68","","","","2","20","5","0","1","57","62","houcine-ncib-B4TjXnI0Y2c-unsplash.jpg","batel-studio-ttSRjiYG_WM-unsplash.jpg","1","1","20","5","","","","","","","","","","","","","","","","","","","","","","","","","","","",""
"","choice_confirmation","","html-keyboard-response","69","637103","0.0-58.0-2.0-0.0","0","0","sNyXJ","People","","null","","","","null","","","","2","20","5","","","","","","","","","","","","","","","","","","","","","","","","","","","","","","","","","","","","","",""
"","fixation","","html-keyboard-response","70","638115","0.0-59.0-0.0","0","0","sNyXJ","People","","null","","","","null","","","","","","","","","","","","","","","","","","","","","","","","","","","","","","","","","","","","","","","","","","","",""
"","deliberation","","html-keyboard-response","71","639197","0.0-59.0-1.0","0","0","sNyXJ","People","","1080","","","","75","","","","3","25","27","0","1","41","42","joseph-gonzalez-iFgRcqHznqg-unsplash.jpg","jurica-koletic-7YVZYZeITc8-unsplash.jpg","1","0","27","25","","","","","","","","","","","","","","","","","","","","","","","","","","","",""
"","choice_confirmation","","html-keyboard-response","72","639704","0.0-59.0-2.0-0.0","0","0","sNyXJ","People","","null","","","","null","","","","3","25","27","","","","","","","","","","","","","","","","","","","","","","","","","","","","","","","","","","","","","",""
"","fixation","","html-keyboard-response","73","640713","0.0-60.0-0.0","0","0","sNyXJ","People","","null","","","","null","","","","","","","","","","","","","","","","","","","","","","","","","","","","","","","","","","","","","","","","","","","",""
"","deliberation","","html-keyboard-response","74","641996","0.0-60.0-1.0","0","0","sNyXJ","People","","1281","","","","68","","","","4","45","13","1","-1","46","44","sarah-noltner-pL5ZzPp1zqg-unsplash.jpg","erik-lucatero-d2MSDujJl2g-unsplash.jpg","1","1","45","13","","","","","","","","","","","","","","","","","","","","","","","","","","","",""
"","choice_confirmation","","html-keyboard-response","75","642508","0.0-60.0-2.0-0.0","0","0","sNyXJ","People","","null","","","","null","","","","4","45","13","","","","","","","","","","","","","","","","","","","","","","","","","","","","","","","","","","","","","",""
"","explain_trial","","survey-text","76","656964","0.0-60.0-5.0-0.0","0","0","sNyXJ","People","","14452","{""Q0"":""I dont like the pic on the right staring at me""}","","","","","","","4","45","13","","","","","","","","","","","{""Q0"":""I dont like the pic on the right staring at me""}","","","","","","","","","","","","","","","","","","","","","","","","","","",""
"","fixation","","html-keyboard-response","77","657987","0.0-61.0-0.0","0","0","sNyXJ","People","","null","","","","null","","","","","","","","","","","","","","","","","","","","","","","","","","","","","","","","","","","","","","","","","","","",""
"","deliberation","","html-keyboard-response","78","659444","0.0-61.0-1.0","0","0","sNyXJ","People","","1455","","","","75","","","","5","39","49","1","-1","47","44","philip-martin-5aGUyCW_PJw-unsplash.jpg","vicky-hladynets-_gDoyVv5F4c-unsplash.jpg","1","0","49","39","","","","","","","","","","","","","","","","","","","","","","","","","","","",""
"","choice_confirmation","","html-keyboard-response","79","659953","0.0-61.0-2.0-0.0","0","0","sNyXJ","People","","null","","","","null","","","","5","39","49","","","","","","","","","","","","","","","","","","","","","","","","","","","","","","","","","","","","","",""
"","explain_trial","","survey-text","80","673820","0.0-61.0-5.0-0.0","0","0","sNyXJ","People","","13865","{""Q0"":""I dont like the red hat""}","","","","","","","5","39","49","","","","","","","","","","","{""Q0"":""I dont like the red hat""}","","","","","","","","","","","","","","","","","","","","","","","","","","",""
"","fixation","","html-keyboard-response","81","674828","0.0-62.0-0.0","0","0","sNyXJ","People","","null","","","","null","","","","","","","","","","","","","","","","","","","","","","","","","","","","","","","","","","","","","","","","","","","",""
"","deliberation","","html-keyboard-response","82","676620","0.0-62.0-1.0","0","0","sNyXJ","People","","1790","","","","75","","","","6","22","44","0","1","44","52","jessica-radanavong-mrYkTuAesKE-unsplash.jpg","rikonavt-HQjfrvdTfak-unsplash.jpg","1","0","44","22","","","","","","","","","","","","","","","","","","","","","","","","","","","",""
"","choice_confirmation","","html-keyboard-response","83","677136","0.0-62.0-2.0-0.0","0","0","sNyXJ","People","","null","","","","null","","","","6","22","44","","","","","","","","","","","","","","","","","","","","","","","","","","","","","","","","","","","","","",""
"","fixation","","html-keyboard-response","84","678146","0.0-63.0-0.0","0","0","sNyXJ","People","","null","","","","null","","","","","","","","","","","","","","","","","","","","","","","","","","","","","","","","","","","","","","","","","","","",""
"","deliberation","","html-keyboard-response","85","679140","0.0-63.0-1.0","0","0","sNyXJ","People","","992","","","","75","","","","7","41","17","0","1","53","62","prince-akachi-i2hoD-C2RUA-unsplash.jpg","gleb-lukomets-paBzWCPN23k-unsplash.jpg","1","0","17","41","","","","","","","","","","","","","","","","","","","","","","","","","","","",""
"","choice_confirmation","","html-keyboard-response","86","679657","0.0-63.0-2.0-0.0","0","0","sNyXJ","People","","null","","","","null","","","","7","41","17","","","","","","","","","","","","","","","","","","","","","","","","","","","","","","","","","","","","","",""
"","fixation","","html-keyboard-response","87","680662","0.0-64.0-0.0","0","0","sNyXJ","People","","null","","","","null","","","","","","","","","","","","","","","","","","","","","","","","","","","","","","","","","","","","","","","","","","","",""
"","deliberation","","html-keyboard-response","88","681765","0.0-64.0-1.0","0","0","sNyXJ","People","","1100","","","","68","","","","8","14","9","1","1","41","44","freddy-kearney-o-ioeoATbIM-unsplash.jpg","carlos-andres-gomez-vJuk8Y86mRw-unsplash.jpg","1","1","14","9","","","","","","","","","","","","","","","","","","","","","","","","","","","",""
"","choice_confirmation","","html-keyboard-response","89","682270","0.0-64.0-2.0-0.0","0","0","sNyXJ","People","","null","","","","null","","","","8","14","9","","","","","","","","","","","","","","","","","","","","","","","","","","","","","","","","","","","","","",""
"","explain_trial","","survey-text","90","691109","0.0-64.0-5.0-0.0","0","0","sNyXJ","People","","8838","{""Q0"":""He looks fun""}","","","","","","","8","14","9","","","","","","","","","","","{""Q0"":""He looks fun""}","","","","","","","","","","","","","","","","","","","","","","","","","","",""
"","fixation","","html-keyboard-response","91","692121","0.0-65.0-0.0","0","0","sNyXJ","People","","null","","","","null","","","","","","","","","","","","","","","","","","","","","","","","","","","","","","","","","","","","","","","","","","","",""
"","deliberation","","html-keyboard-response","92","693188","0.0-65.0-1.0","0","0","sNyXJ","People","","1066","","","","68","","","","9","36","23","1","-1","57","45","ospan-ali-mGdA2fzjWLo-unsplash.jpg","joanna-nix-walkup-H4fEMshfwTE-unsplash.jpg","1","1","36","23","","","","","","","","","","","","","","","","","","","","","","","","","","","",""
"","choice_confirmation","","html-keyboard-response","93","693696","0.0-65.0-2.0-0.0","0","0","sNyXJ","People","","null","","","","null","","","","9","36","23","","","","","","","","","","","","","","","","","","","","","","","","","","","","","","","","","","","","","",""
"","explain_trial","","survey-text","94","700025","0.0-65.0-5.0-0.0","0","0","sNyXJ","People","","6328","{""Q0"":""She is pretty""}","","","","","","","9","36","23","","","","","","","","","","","{""Q0"":""She is pretty""}","","","","","","","","","","","","","","","","","","","","","","","","","","",""
"","fixation","","html-keyboard-response","95","701050","0.0-66.0-0.0","0","0","sNyXJ","People","","null","","","","null","","","","","","","","","","","","","","","","","","","","","","","","","","","","","","","","","","","","","","","","","","","",""
"","deliberation","","html-keyboard-response","96","701933","0.0-66.0-1.0","0","0","sNyXJ","People","","880","","","","68","","","","10","42","0","1","-1","57","47","prince-akachi-l3IHXOdMyHQ-unsplash.jpg","abstral-official-cyOKLSgkgCE-unsplash.jpg","1","1","42","0","","","","","","","","","","","","","","","","","","","","","","","","","","","",""
"","choice_confirmation","","html-keyboard-response","97","702451","0.0-66.0-2.0-0.0","0","0","sNyXJ","People","","null","","","","null","","","","10","42","0","","","","","","","","","","","","","","","","","","","","","","","","","","","","","","","","","","","","","",""
"","explain_trial","","survey-text","98","708264","0.0-66.0-5.0-0.0","0","0","sNyXJ","People","","5811","{""Q0"":""I like her hair""}","","","","","","","10","42","0","","","","","","","","","","","{""Q0"":""I like her hair""}","","","","","","","","","","","","","","","","","","","","","","","","","","",""
"","fixation","","html-keyboard-response","99","709278","0.0-67.0-0.0","0","0","sNyXJ","People","","null","","","","null","","","","","","","","","","","","","","","","","","","","","","","","","","","","","","","","","","","","","","","","","","","",""
"","deliberation","","html-keyboard-response","100","710517","0.0-67.0-1.0","0","0","sNyXJ","People","","1237","","","","68","","","","11","31","26","1","-1","59","42","mathilda-khoo-vLR0YP_otCo-unsplash.jpg","juri-gianfrancesco-9EZadYaMzk4-unsplash.jpg","1","1","31","26","","","","","","","","","","","","","","","","","","","","","","","","","","","",""
"","choice_confirmation","","html-keyboard-response","101","711021","0.0-67.0-2.0-0.0","0","0","sNyXJ","People","","null","","","","null","","","","11","31","26","","","","","","","","","","","","","","","","","","","","","","","","","","","","","","","","","","","","","",""
"","explain_trial","","survey-text","102","718253","0.0-67.0-5.0-0.0","0","0","sNyXJ","People","","7231","{""Q0"":""She is pretty\n""}","","","","","","","11","31","26","","","","","","","","","","","{""Q0"":""She is pretty\n""}","","","","","","","","","","","","","","","","","","","","","","","","","","",""
"","practice_deliberation_again","","html-keyboard-response","103","721821","0.0-67.0-6.0-0.0","0","0","sNyXJ","People","","3566","","","","78","","","","","","","","","","","","","","","","","","","","","","","","","","","","","","","","","","","","","","","","","","","",""
"","fixation","","html-keyboard-response","104","722831","0.0-68.0-0.0","0","0","sNyXJ","People","","null","","","","null","","","","","","","","","","","","","","","","","","","","","","","","","","","","","","","","","","","","","","","","","","","",""
"","deliberation","","html-keyboard-response","105","724477","0.0-68.0-1.0","0","0","sNyXJ","People","","1644","","","","75","","","","12","25","27","1","1","41","42","joseph-gonzalez-iFgRcqHznqg-unsplash.jpg","jurica-koletic-7YVZYZeITc8-unsplash.jpg","2","0","27","25","","","","","","","","","","","","","","","","","","","","","","","","","","","",""
"","choice_confirmation","","html-keyboard-response","106","724984","0.0-68.0-2.0-0.0","0","0","sNyXJ","People","","null","","","","null","","","","12","25","27","","","","","","","","","","","","","","","","","","","","","","","","","","","","","","","","","","","","","",""
"","explain_trial","","survey-text","107","732060","0.0-68.0-5.0-0.0","0","0","sNyXJ","People","","7074","{""Q0"":""He looks kind""}","","","","","","","12","25","27","","","","","","","","","","","{""Q0"":""He looks kind""}","","","","","","","","","","","","","","","","","","","","","","","","","","",""
"","fixation","","html-keyboard-response","108","733068","0.0-69.0-0.0","0","0","sNyXJ","People","","null","","","","null","","","","","","","","","","","","","","","","","","","","","","","","","","","","","","","","","","","","","","","","","","","",""
"","deliberation","","html-keyboard-response","109","734429","0.0-69.0-1.0","0","0","sNyXJ","People","","1358","","","","68","","","","13","14","9","0","1","41","44","freddy-kearney-o-ioeoATbIM-unsplash.jpg","carlos-andres-gomez-vJuk8Y86mRw-unsplash.jpg","2","1","14","9","","","","","","","","","","","","","","","","","","","","","","","","","","","",""
"","choice_confirmation","","html-keyboard-response","110","734932","0.0-69.0-2.0-0.0","0","0","sNyXJ","People","","null","","","","null","","","","13","14","9","","","","","","","","","","","","","","","","","","","","","","","","","","","","","","","","","","","","","",""
"","fixation","","html-keyboard-response","111","735940","0.0-70.0-0.0","0","0","sNyXJ","People","","null","","","","null","","","","","","","","","","","","","","","","","","","","","","","","","","","","","","","","","","","","","","","","","","","",""
"","deliberation","","html-keyboard-response","112","737526","0.0-70.0-1.0","0","0","sNyXJ","People","","1583","","","","68","","","","14","45","13","0","-1","46","44","sarah-noltner-pL5ZzPp1zqg-unsplash.jpg","erik-lucatero-d2MSDujJl2g-unsplash.jpg","2","1","45","13","","","","","","","","","","","","","","","","","","","","","","","","","","","",""
"","choice_confirmation","","html-keyboard-response","113","738034","0.0-70.0-2.0-0.0","0","0","sNyXJ","People","","null","","","","null","","","","14","45","13","","","","","","","","","","","","","","","","","","","","","","","","","","","","","","","","","","","","","",""
"","fixation","","html-keyboard-response","114","739044","0.0-71.0-0.0","0","0","sNyXJ","People","","null","","","","null","","","","","","","","","","","","","","","","","","","","","","","","","","","","","","","","","","","","","","","","","","","",""
"","deliberation","","html-keyboard-response","115","740669","0.0-71.0-1.0","0","0","sNyXJ","People","","1622","","","","68","","","","15","36","23","0","-1","57","45","ospan-ali-mGdA2fzjWLo-unsplash.jpg","joanna-nix-walkup-H4fEMshfwTE-unsplash.jpg","2","1","36","23","","","","","","","","","","","","","","","","","","","","","","","","","","","",""
"","choice_confirmation","","html-keyboard-response","116","741184","0.0-71.0-2.0-0.0","0","0","sNyXJ","People","","null","","","","null","","","","15","36","23","","","","","","","","","","","","","","","","","","","","","","","","","","","","","","","","","","","","","",""
"","fixation","","html-keyboard-response","117","742189","0.0-72.0-0.0","0","0","sNyXJ","People","","null","","","","null","","","","","","","","","","","","","","","","","","","","","","","","","","","","","","","","","","","","","","","","","","","",""
"","deliberation","","html-keyboard-response","118","743124","0.0-72.0-1.0","0","0","sNyXJ","People","","934","","","","68","","","","16","20","5","1","1","57","62","houcine-ncib-B4TjXnI0Y2c-unsplash.jpg","batel-studio-ttSRjiYG_WM-unsplash.jpg","2","1","20","5","","","","","","","","","","","","","","","","","","","","","","","","","","","",""
"","choice_confirmation","","html-keyboard-response","119","743630","0.0-72.0-2.0-0.0","0","0","sNyXJ","People","","null","","","","null","","","","16","20","5","","","","","","","","","","","","","","","","","","","","","","","","","","","","","","","","","","","","","",""
"","explain_trial","","survey-text","120","751205","0.0-72.0-5.0-0.0","0","0","sNyXJ","People","","7573","{""Q0"":""She is pretty""}","","","","","","","16","20","5","","","","","","","","","","","{""Q0"":""She is pretty""}","","","","","","","","","","","","","","","","","","","","","","","","","","",""
"","fixation","","html-keyboard-response","121","752223","0.0-73.0-0.0","0","0","sNyXJ","People","","null","","","","null","","","","","","","","","","","","","","","","","","","","","","","","","","","","","","","","","","","","","","","","","","","",""
"","deliberation","","html-keyboard-response","122","755205","0.0-73.0-1.0","0","0","sNyXJ","People","","2980","","","","75","","","","17","39","49","0","-1","47","44","philip-martin-5aGUyCW_PJw-unsplash.jpg","vicky-hladynets-_gDoyVv5F4c-unsplash.jpg","2","0","49","39","","","","","","","","","","","","","","","","","","","","","","","","","","","",""
"","choice_confirmation","","html-keyboard-response","123","755721","0.0-73.0-2.0-0.0","0","0","sNyXJ","People","","null","","","","null","","","","17","39","49","","","","","","","","","","","","","","","","","","","","","","","","","","","","","","","","","","","","","",""
"","fixation","","html-keyboard-response","124","756731","0.0-74.0-0.0","0","0","sNyXJ","People","","null","","","","null","","","","","","","","","","","","","","","","","","","","","","","","","","","","","","","","","","","","","","","","","","","",""
"","deliberation","","html-keyboard-response","125","758198","0.0-74.0-1.0","0","0","sNyXJ","People","","1465","","","","75","","","","18","24","11","1","-1","58","60","joel-mott-LaK153ghdig-unsplash.jpg","christian-ferrer-8vT-DgHZDG4-unsplash.jpg","2","0","11","24","","","","","","","","","","","","","","","","","","","","","","","","","","","",""
"","choice_confirmation","","html-keyboard-response","126","758714","0.0-74.0-2.0-0.0","0","0","sNyXJ","People","","null","","","","null","","","","18","24","11","","","","","","","","","","","","","","","","","","","","","","","","","","","","","","","","","","","","","",""
"","explain_trial","","survey-text","127","764828","0.0-74.0-5.0-0.0","0","0","sNyXJ","People","","6112","{""Q0"":""She looks intense""}","","","","","","","18","24","11","","","","","","","","","","","{""Q0"":""She looks intense""}","","","","","","","","","","","","","","","","","","","","","","","","","","",""
"","fixation","","html-keyboard-response","128","765840","0.0-75.0-0.0","0","0","sNyXJ","People","","null","","","","null","","","","","","","","","","","","","","","","","","","","","","","","","","","","","","","","","","","","","","","","","","","",""
"","deliberation","","html-keyboard-response","129","767573","0.0-75.0-1.0","0","0","sNyXJ","People","","1730","","","","68","","","","19","42","0","0","-1","57","47","prince-akachi-l3IHXOdMyHQ-unsplash.jpg","abstral-official-cyOKLSgkgCE-unsplash.jpg","2","1","42","0","","","","","","","","","","","","","","","","","","","","","","","","","","","",""
"","choice_confirmation","","html-keyboard-response","130","768090","0.0-75.0-2.0-0.0","0","0","sNyXJ","People","","null","","","","null","","","","19","42","0","","","","","","","","","","","","","","","","","","","","","","","","","","","","","","","","","","","","","",""
"","fixation","","html-keyboard-response","131","769113","0.0-76.0-0.0","0","0","sNyXJ","People","","null","","","","null","","","","","","","","","","","","","","","","","","","","","","","","","","","","","","","","","","","","","","","","","","","",""
"","deliberation","","html-keyboard-response","132","770589","0.0-76.0-1.0","0","0","sNyXJ","People","","1474","","","","75","","","","20","22","44","1","1","44","52","jessica-radanavong-mrYkTuAesKE-unsplash.jpg","rikonavt-HQjfrvdTfak-unsplash.jpg","2","0","44","22","","","","","","","","","","","","","","","","","","","","","","","","","","","",""
"","choice_confirmation","","html-keyboard-response","133","771097","0.0-76.0-2.0-0.0","0","0","sNyXJ","People","","null","","","","null","","","","20","22","44","","","","","","","","","","","","","","","","","","","","","","","","","","","","","","","","","","","","","",""
"","explain_trial","","survey-text","134","785124","0.0-76.0-5.0-0.0","0","0","sNyXJ","People","","14026","{""Q0"":""She looks like a model""}","","","","","","","20","22","44","","","","","","","","","","","{""Q0"":""She looks like a model""}","","","","","","","","","","","","","","","","","","","","","","","","","","",""
"","fixation","","html-keyboard-response","135","786143","0.0-77.0-0.0","0","0","sNyXJ","People","","null","","","","null","","","","","","","","","","","","","","","","","","","","","","","","","","","","","","","","","","","","","","","","","","","",""
"","deliberation","","html-keyboard-response","136","791245","0.0-77.0-1.0","0","0","sNyXJ","People","","5101","","","","68","","","","21","31","26","0","-1","59","42","mathilda-khoo-vLR0YP_otCo-unsplash.jpg","juri-gianfrancesco-9EZadYaMzk4-unsplash.jpg","2","1","31","26","","","","","","","","","","","","","","","","","","","","","","","","","","","",""
"","choice_confirmation","","html-keyboard-response","137","791757","0.0-77.0-2.0-0.0","0","0","sNyXJ","People","","null","","","","null","","","","21","31","26","","","","","","","","","","","","","","","","","","","","","","","","","","","","","","","","","","","","","",""
"","fixation","","html-keyboard-response","138","792775","0.0-78.0-0.0","0","0","sNyXJ","People","","null","","","","null","","","","","","","","","","","","","","","","","","","","","","","","","","","","","","","","","","","","","","","","","","","",""
"","deliberation","","html-keyboard-response","139","795629","0.0-78.0-1.0","0","0","sNyXJ","People","","2852","","","","75","","","","22","41","17","1","1","53","62","prince-akachi-i2hoD-C2RUA-unsplash.jpg","gleb-lukomets-paBzWCPN23k-unsplash.jpg","2","0","17","41","","","","","","","","","","","","","","","","","","","","","","","","","","","",""
"","choice_confirmation","","html-keyboard-response","140","796139","0.0-78.0-2.0-0.0","0","0","sNyXJ","People","","null","","","","null","","","","22","41","17","","","","","","","","","","","","","","","","","","","","","","","","","","","","","","","","","","","","","",""
"","explain_trial","","survey-text","141","805781","0.0-78.0-5.0-0.0","0","0","sNyXJ","People","","9640","{""Q0"":""It looks like art""}","","","","","","","22","41","17","","","","","","","","","","","{""Q0"":""It looks like art""}","","","","","","","","","","","","","","","","","","","","","","","","","","",""
"","fixation","","html-keyboard-response","142","806793","0.0-79.0-0.0","0","0","sNyXJ","People","","null","","","","null","","","","","","","","","","","","","","","","","","","","","","","","","","","","","","","","","","","","","","","","","","","",""
"","deliberation","","html-keyboard-response","143","808156","0.0-79.0-1.0","0","0","sNyXJ","People","","1361","","","","68","","","","23","48","47","1","1","61","41","velizar-ivanov-7ktP9yZA1g4-unsplash.jpg","tyler-nix-ZGa9d1a_4tA-unsplash.jpg","2","1","48","47","","","","","","","","","","","","","","","","","","","","","","","","","","","",""
"","choice_confirmation","","html-keyboard-response","144","808673","0.0-79.0-2.0-0.0","0","0","sNyXJ","People","","null","","","","null","","","","23","48","47","","","","","","","","","","","","","","","","","","","","","","","","","","","","","","","","","","","","","",""
"","explain_trial","","survey-text","145","820029","0.0-79.0-5.0-0.0","0","0","sNyXJ","People","","11354","{""Q0"":""she looks like jessie buckley""}","","","","","","","23","48","47","","","","","","","","","","","{""Q0"":""she looks like jessie buckley""}","","","","","","","","","","","","","","","","","","","","","","","","","","",""
"","start_critical_deliberation_block","","html-keyboard-response","146","823628","0.0-79.0-7.0-0.0","0","0","sNyXJ","People","","3599","","","","78","","","","","","","","","","","","","","","","","","","","","","","","","","","","","","","","","","","","","","","","","","","",""
"","fixation","","html-keyboard-response","147","824651","0.0-80.0-0.0","0","0","sNyXJ","People","","null","","","","null","","","","","","","","","","","","","","","","","","","","","","","","","","","","","","","","","","","","","","","","","","","",""
"","deliberation","","html-keyboard-response","148","826187","0.0-80.0-1.0","0","0","sNyXJ","People","","1534","","","","75","","","","24","22","44","0","1","44","52","jessica-radanavong-mrYkTuAesKE-unsplash.jpg","rikonavt-HQjfrvdTfak-unsplash.jpg","3","0","44","22","","","","","","","","","","","","","","","","","","","","","","","","","","","",""
"","choice_confirmation","","html-keyboard-response","149","826698","0.0-80.0-2.0-0.0","0","0","sNyXJ","People","","null","","","","null","","","","24","22","44","","","","","","","","","","","","","","","","","","","","","","","","","","","","","","","","","","","","","",""
"","fixation","","html-keyboard-response","150","827708","0.0-81.0-0.0","0","0","sNyXJ","People","","null","","","","null","","","","","","","","","","","","","","","","","","","","","","","","","","","","","","","","","","","","","","","","","","","",""
"","deliberation","","html-keyboard-response","151","828884","0.0-81.0-1.0","0","0","sNyXJ","People","","1174","","","","68","","","","25","20","5","0","1","57","62","houcine-ncib-B4TjXnI0Y2c-unsplash.jpg","batel-studio-ttSRjiYG_WM-unsplash.jpg","3","1","20","5","","","","","","","","","","","","","","","","","","","","","","","","","","","",""
"","choice_confirmation","","html-keyboard-response","152","829391","0.0-81.0-2.0-0.0","0","0","sNyXJ","People","","null","","","","null","","","","25","20","5","","","","","","","","","","","","","","","","","","","","","","","","","","","","","","","","","","","","","",""
"","fixation","","html-keyboard-response","153","830397","0.0-82.0-0.0","0","0","sNyXJ","People","","null","","","","null","","","","","","","","","","","","","","","","","","","","","","","","","","","","","","","","","","","","","","","","","","","",""
"","deliberation","","html-keyboard-response","154","831284","0.0-82.0-1.0","0","0","sNyXJ","People","","885","","","","68","","","","26","31","26","0","-1","59","42","mathilda-khoo-vLR0YP_otCo-unsplash.jpg","juri-gianfrancesco-9EZadYaMzk4-unsplash.jpg","3","1","31","26","","","","","","","","","","","","","","","","","","","","","","","","","","","",""
"","choice_confirmation","","html-keyboard-response","155","831802","0.0-82.0-2.0-0.0","0","0","sNyXJ","People","","null","","","","null","","","","26","31","26","","","","","","","","","","","","","","","","","","","","","","","","","","","","","","","","","","","","","",""
"","fixation","","html-keyboard-response","156","832826","0.0-83.0-0.0","0","0","sNyXJ","People","","null","","","","null","","","","","","","","","","","","","","","","","","","","","","","","","","","","","","","","","","","","","","","","","","","",""
"","deliberation","","html-keyboard-response","157","833668","0.0-83.0-1.0","0","0","sNyXJ","People","","840","","","","68","","","","27","36","23","0","-1","57","45","ospan-ali-mGdA2fzjWLo-unsplash.jpg","joanna-nix-walkup-H4fEMshfwTE-unsplash.jpg","3","1","36","23","","","","","","","","","","","","","","","","","","","","","","","","","","","",""
"","choice_confirmation","","html-keyboard-response","158","834184","0.0-83.0-2.0-0.0","0","0","sNyXJ","People","","null","","","","null","","","","27","36","23","","","","","","","","","","","","","","","","","","","","","","","","","","","","","","","","","","","","","",""
"","fixation","","html-keyboard-response","159","835191","0.0-84.0-0.0","0","0","sNyXJ","People","","null","","","","null","","","","","","","","","","","","","","","","","","","","","","","","","","","","","","","","","","","","","","","","","","","",""
"","deliberation","","html-keyboard-response","160","837789","0.0-84.0-1.0","0","0","sNyXJ","People","","2596","","","","75","","","","28","25","27","0","1","41","42","joseph-gonzalez-iFgRcqHznqg-unsplash.jpg","jurica-koletic-7YVZYZeITc8-unsplash.jpg","3","0","27","25","","","","","","","","","","","","","","","","","","","","","","","","","","","",""
"","choice_confirmation","","html-keyboard-response","161","838299","0.0-84.0-2.0-0.0","0","0","sNyXJ","People","","null","","","","null","","","","28","25","27","","","","","","","","","","","","","","","","","","","","","","","","","","","","","","","","","","","","","",""
"","fixation","","html-keyboard-response","162","839320","0.0-85.0-0.0","0","0","sNyXJ","People","","null","","","","null","","","","","","","","","","","","","","","","","","","","","","","","","","","","","","","","","","","","","","","","","","","",""
"","deliberation","","html-keyboard-response","163","840252","0.0-85.0-1.0","0","0","sNyXJ","People","","930","","","","75","","","","29","39","49","0","-1","47","44","philip-martin-5aGUyCW_PJw-unsplash.jpg","vicky-hladynets-_gDoyVv5F4c-unsplash.jpg","3","0","49","39","","","","","","","","","","","","","","","","","","","","","","","","","","","",""
"","choice_confirmation","","html-keyboard-response","164","840768","0.0-85.0-2.0-0.0","0","0","sNyXJ","People","","null","","","","null","","","","29","39","49","","","","","","","","","","","","","","","","","","","","","","","","","","","","","","","","","","","","","",""
"","fixation","","html-keyboard-response","165","841776","0.0-86.0-0.0","0","0","sNyXJ","People","","null","","","","null","","","","","","","","","","","","","","","","","","","","","","","","","","","","","","","","","","","","","","","","","","","",""
"","deliberation","","html-keyboard-response","166","842524","0.0-86.0-1.0","0","0","sNyXJ","People","","746","","","","68","","","","30","14","9","0","1","41","44","freddy-kearney-o-ioeoATbIM-unsplash.jpg","carlos-andres-gomez-vJuk8Y86mRw-unsplash.jpg","3","1","14","9","","","","","","","","","","","","","","","","","","","","","","","","","","","",""
"","choice_confirmation","","html-keyboard-response","167","843033","0.0-86.0-2.0-0.0","0","0","sNyXJ","People","","null","","","","null","","","","30","14","9","","","","","","","","","","","","","","","","","","","","","","","","","","","","","","","","","","","","","",""
"","fixation","","html-keyboard-response","168","844037","0.0-87.0-0.0","0","0","sNyXJ","People","","null","","","","null","","","","","","","","","","","","","","","","","","","","","","","","","","","","","","","","","","","","","","","","","","","",""
"","deliberation","","html-keyboard-response","169","844982","0.0-87.0-1.0","0","0","sNyXJ","People","","943","","","","75","","","","31","24","11","0","-1","58","60","joel-mott-LaK153ghdig-unsplash.jpg","christian-ferrer-8vT-DgHZDG4-unsplash.jpg","3","0","11","24","","","","","","","","","","","","","","","","","","","","","","","","","","","",""
"","choice_confirmation","","html-keyboard-response","170","845497","0.0-87.0-2.0-0.0","0","0","sNyXJ","People","","null","","","","null","","","","31","24","11","","","","","","","","","","","","","","","","","","","","","","","","","","","","","","","","","","","","","",""
"","fixation","","html-keyboard-response","171","846516","0.0-88.0-0.0","0","0","sNyXJ","People","","null","","","","null","","","","","","","","","","","","","","","","","","","","","","","","","","","","","","","","","","","","","","","","","","","",""
"","deliberation","","html-keyboard-response","172","847171","0.0-88.0-1.0","0","0","sNyXJ","People","","654","","","","75","","","","32","41","17","0","1","53","62","prince-akachi-i2hoD-C2RUA-unsplash.jpg","gleb-lukomets-paBzWCPN23k-unsplash.jpg","3","0","17","41","","","","","","","","","","","","","","","","","","","","","","","","","","","",""
"","choice_confirmation","","html-keyboard-response","173","847680","0.0-88.0-2.0-0.0","0","0","sNyXJ","People","","null","","","","null","","","","32","41","17","","","","","","","","","","","","","","","","","","","","","","","","","","","","","","","","","","","","","",""
"","fixation","","html-keyboard-response","174","848687","0.0-89.0-0.0","0","0","sNyXJ","People","","null","","","","null","","","","","","","","","","","","","","","","","","","","","","","","","","","","","","","","","","","","","","","","","","","",""
"","deliberation","","html-keyboard-response","175","849692","0.0-89.0-1.0","0","0","sNyXJ","People","","1003","","","","68","","","","33","45","13","0","-1","46","44","sarah-noltner-pL5ZzPp1zqg-unsplash.jpg","erik-lucatero-d2MSDujJl2g-unsplash.jpg","3","1","45","13","","","","","","","","","","","","","","","","","","","","","","","","","","","",""
"","choice_confirmation","","html-keyboard-response","176","850199","0.0-89.0-2.0-0.0","0","0","sNyXJ","People","","null","","","","null","","","","33","45","13","","","","","","","","","","","","","","","","","","","","","","","","","","","","","","","","","","","","","",""
"","fixation","","html-keyboard-response","177","851205","0.0-90.0-0.0","0","0","sNyXJ","People","","null","","","","null","","","","","","","","","","","","","","","","","","","","","","","","","","","","","","","","","","","","","","","","","","","",""
"","deliberation","","html-keyboard-response","178","852820","0.0-90.0-1.0","0","0","sNyXJ","People","","1614","","","","68","","","","34","42","0","0","-1","57","47","prince-akachi-l3IHXOdMyHQ-unsplash.jpg","abstral-official-cyOKLSgkgCE-unsplash.jpg","3","1","42","0","","","","","","","","","","","","","","","","","","","","","","","","","","","",""
"","choice_confirmation","","html-keyboard-response","179","853332","0.0-90.0-2.0-0.0","0","0","sNyXJ","People","","null","","","","null","","","","34","42","0","","","","","","","","","","","","","","","","","","","","","","","","","","","","","","","","","","","","","",""
"","fixation","","html-keyboard-response","180","854336","0.0-91.0-0.0","0","0","sNyXJ","People","","null","","","","null","","","","","","","","","","","","","","","","","","","","","","","","","","","","","","","","","","","","","","","","","","","",""
"","deliberation","","html-keyboard-response","181","854948","0.0-91.0-1.0","0","0","sNyXJ","People","","611","","","","68","","","","35","48","47","0","1","61","41","velizar-ivanov-7ktP9yZA1g4-unsplash.jpg","tyler-nix-ZGa9d1a_4tA-unsplash.jpg","3","1","48","47","","","","","","","","","","","","","","","","","","","","","","","","","","","",""
"","choice_confirmation","","html-keyboard-response","182","855471","0.0-91.0-2.0-0.0","0","0","sNyXJ","People","","null","","","","null","","","","35","48","47","","","","","","","","","","","","","","","","","","","","","","","","","","","","","","","","","","","","","",""
"","reward_learning_instructions","","instructions","183","923276","0.0-92.0-0.0","0","0","sNyXJ","People","[{""page_index"":0,""viewing_time"":48134},{""page_index"":1,""viewing_time"":18613},{""page_index"":2,""viewing_time"":1056}]","67804","","","","","","","","","","","","","","","","","","","","","","","","","","","","","","","","","","","","","","","","","","","","","","","",""
"","","","survey-multi-choice","184","932114","0.0-92.0-1.0","0","0","sNyXJ","People","","8836","{""Q0"":""True"",""Q1"":""True"",""Q2"":""Press the space bar to see its outcome"",""Q3"":""Press the relevant key while the outcome is presented""}","reward_comprehension_check","0","","","","","","","","","","","","","","","","","","","","","","","","","","","","","","","","","","","","","","","","","","","","",""
"","start_phase","","html-keyboard-response","185","938725","0.0-93.0","0","0","sNyXJ","People","","6607","","","","78","","","","","","","","","","","","","","","","","","","","","","","","","","","","","","","","","","","","","","","","","","","",""
"","fixation","","html-keyboard-response","186","939745","0.0-94.0","0","0","sNyXJ","People","","null","","","","null","","","","","","","","","","","","","","","","","","","","","","","","","","","","","","","","","","","","","","","","","","","",""
"","see_reward","","html-keyboard-response","187","940957","0.0-95.0","0","0","sNyXJ","People","","1209","","","","32","","31","","0","","","","-1","","","","","1","","","","","0","1209","","","","","","","","","","","","","","","","","","","","","","","","",""
"","reward_outcome","","html-keyboard-response","188","942974","0.0-96.0","0","0","sNyXJ","People","","1230","","","","40","","31","","0","","","","","","","","","","","","","","","","-1","1230","","","","","","","","","","","","","","","","","","","","","","",""
"","fixation","","html-keyboard-response","189","943986","0.0-99.0","0","0","sNyXJ","People","","null","","","","null","","","","","","","","","","","","","","","","","","","","","","","","","","","","","","","","","","","","","","","","","","","",""
"","see_reward","","html-keyboard-response","190","944589","0.0-100.0","0","0","sNyXJ","People","","601","","","","32","","17","","1","","","","1","","","","","1","","","","","157","601","","","","","","","","","","","","","","","","","","","","","","","","",""
"","reward_outcome","","html-keyboard-response","191","946603","0.0-101.0","0","0","sNyXJ","People","","null","","","","null","","17","","1","","","","","","","","","","","","","","","","NaN","null","","","","","","","","","","","","","","","","","","","","","","",""
"","respond_faster","","html-keyboard-response","192","948115","0.0-102.0-0.0","1","0","sNyXJ","People","","null","","","","null","","","","","","","","","","","","","","","","","","","","","","","","","","","","","","","","","","","","","","","","","","","",""
"","fixation","","html-keyboard-response","193","949136","0.0-104.0","0","0","sNyXJ","People","","null","","","","null","","","","","","","","","","","","","","","","","","","","","","","","","","","","","","","","","","","","","","","","","","","",""
"","see_reward","","html-keyboard-response","194","949709","0.0-105.0","0","0","sNyXJ","People","","571","","","","32","","44","","2","","","","1","","","","","1","","","","","150","571","","","","","","","","","","","","","","","","","","","","","","","","",""
"","reward_outcome","","html-keyboard-response","195","951721","0.0-106.0","0","0","sNyXJ","People","","1094","","","","38","","44","","2","","","","","","","","","","","","","","","","1","1094","","","","","","","","","","","","","","","","","","","","","","",""
"","fixation","","html-keyboard-response","196","952730","0.0-109.0","0","0","sNyXJ","People","","null","","","","null","","","","","","","","","","","","","","","","","","","","","","","","","","","","","","","","","","","","","","","","","","","",""
"","see_reward","","html-keyboard-response","197","953333","0.0-110.0","0","0","sNyXJ","People","","601","","","","32","","48","","3","","","","1","","","","","1","","","","","157","601","","","","","","","","","","","","","","","","","","","","","","","","",""
"","reward_outcome","","html-keyboard-response","198","955349","0.0-111.0","0","0","sNyXJ","People","","926","","","","38","","48","","3","","","","","","","","","","","","","","","","1","926","","","","","","","","","","","","","","","","","","","","","","",""
"","fixation","","html-keyboard-response","199","956364","0.0-114.0","0","0","sNyXJ","People","","null","","","","null","","","","","","","","","","","","","","","","","","","","","","","","","","","","","","","","","","","","","","","","","","","",""
"","see_reward","","html-keyboard-response","200","957060","0.0-115.0","0","0","sNyXJ","People","","695","","","","32","","49","","4","","","","-1","","","","","1","","","","","0","695","","","","","","","","","","","","","","","","","","","","","","","","",""
"","reward_outcome","","html-keyboard-response","201","959072","0.0-116.0","0","0","sNyXJ","People","","1054","","","","40","","49","","4","","","","","","","","","","","","","","","","-1","1054","","","","","","","","","","","","","","","","","","","","","","",""
"","fixation","","html-keyboard-response","202","960084","0.0-119.0","0","0","sNyXJ","People","","null","","","","null","","","","","","","","","","","","","","","","","","","","","","","","","","","","","","","","","","","","","","","","","","","",""
"","see_reward","","html-keyboard-response","203","960541","0.0-120.0","0","0","sNyXJ","People","","455","","","","32","","20","","5","","","","1","","","","","1","","","","","147","455","","","","","","","","","","","","","","","","","","","","","","","","",""
"","reward_outcome","","html-keyboard-response","204","962556","0.0-121.0","0","0","sNyXJ","People","","1429","","","","38","","20","","5","","","","","","","","","","","","","","","","1","1429","","","","","","","","","","","","","","","","","","","","","","",""
"","fixation","","html-keyboard-response","205","963575","0.0-124.0","0","0","sNyXJ","People","","null","","","","null","","","","","","","","","","","","","","","","","","","","","","","","","","","","","","","","","","","","","","","","","","","",""
"","see_reward","","html-keyboard-response","206","964196","0.0-125.0","0","0","sNyXJ","People","","619","","","","32","","48","","6","","","","1","","","","","1","","","","","157","619","","","","","","","","","","","","","","","","","","","","","","","","",""
"","reward_outcome","","html-keyboard-response","207","966206","0.0-126.0","0","0","sNyXJ","People","","null","","","","null","","48","","6","","","","","","","","","","","","","","","","NaN","null","","","","","","","","","","","","","","","","","","","","","","",""
"","respond_faster","","html-keyboard-response","208","967717","0.0-127.0-0.0","1","0","sNyXJ","People","","null","","","","null","","","","","","","","","","","","","","","","","","","","","","","","","","","","","","","","","","","","","","","","","","","",""
"","fixation","","html-keyboard-response","209","968732","0.0-129.0","0","0","sNyXJ","People","","null","","","","null","","","","","","","","","","","","","","","","","","","","","","","","","","","","","","","","","","","","","","","","","","","",""
"","see_reward","","html-keyboard-response","210","969244","0.0-130.0","0","0","sNyXJ","People","","510","","","","32","","20","","7","","","","1","","","","","1","","","","","147","510","","","","","","","","","","","","","","","","","","","","","","","","",""
"","reward_outcome","","html-keyboard-response","211","971254","0.0-131.0","0","0","sNyXJ","People","","543","","","","38","","20","","7","","","","","","","","","","","","","","","","1","543","","","","","","","","","","","","","","","","","","","","","","",""
"","fixation","","html-keyboard-response","212","972263","0.0-134.0","0","0","sNyXJ","People","","null","","","","null","","","","","","","","","","","","","","","","","","","","","","","","","","","","","","","","","","","","","","","","","","","",""
"","see_reward","","html-keyboard-response","213","972765","0.0-135.0","0","0","sNyXJ","People","","500","","","","32","","42","","8","","","","-1","","","","","1","","","","","0","500","","","","","","","","","","","","","","","","","","","","","","","","",""
"","reward_outcome","","html-keyboard-response","214","974781","0.0-136.0","0","0","sNyXJ","People","","758","","","","40","","42","","8","","","","","","","","","","","","","","","","-1","758","","","","","","","","","","","","","","","","","","","","","","",""
"","fixation","","html-keyboard-response","215","975802","0.0-139.0","0","0","sNyXJ","People","","null","","","","null","","","","","","","","","","","","","","","","","","","","","","","","","","","","","","","","","","","","","","","","","","","",""
"","see_reward","","html-keyboard-response","216","976236","0.0-140.0","0","0","sNyXJ","People","","432","","","","32","","14","","9","","","","1","","","","","1","","","","","140","432","","","","","","","","","","","","","","","","","","","","","","","","",""
"","reward_outcome","","html-keyboard-response","217","978251","0.0-141.0","0","0","sNyXJ","People","","663","","","","38","","14","","9","","","","","","","","","","","","","","","","1","663","","","","","","","","","","","","","","","","","","","","","","",""
"","fixation","","html-keyboard-response","218","979273","0.0-144.0","0","0","sNyXJ","People","","null","","","","null","","","","","","","","","","","","","","","","","","","","","","","","","","","","","","","","","","","","","","","","","","","",""
"","see_reward","","html-keyboard-response","219","980013","0.0-145.0","0","0","sNyXJ","People","","739","","","","32","","11","","10","","","","-1","","","","","1","","","","","0","739","","","","","","","","","","","","","","","","","","","","","","","","",""
"","reward_outcome","","html-keyboard-response","220","982023","0.0-146.0","0","0","sNyXJ","People","","453","","","","38","","11","","10","","","","","","","","","","","","","","","","1","453","","","","","","","","","","","","","","","","","","","","","","",""
"","fixation","","html-keyboard-response","221","983032","0.0-149.0","0","0","sNyXJ","People","","null","","","","null","","","","","","","","","","","","","","","","","","","","","","","","","","","","","","","","","","","","","","","","","","","",""
"","see_reward","","html-keyboard-response","222","983661","0.0-150.0","0","0","sNyXJ","People","","627","","","","32","","45","","11","","","","-1","","","","","1","","","","","0","627","","","","","","","","","","","","","","","","","","","","","","","","",""
"","reward_outcome","","html-keyboard-response","223","985678","0.0-151.0","0","0","sNyXJ","People","","709","","","","40","","45","","11","","","","","","","","","","","","","","","","-1","709","","","","","","","","","","","","","","","","","","","","","","",""
"","fixation","","html-keyboard-response","224","986688","0.0-154.0","0","0","sNyXJ","People","","null","","","","null","","","","","","","","","","","","","","","","","","","","","","","","","","","","","","","","","","","","","","","","","","","",""
"","see_reward","","html-keyboard-response","225","987317","0.0-155.0","0","0","sNyXJ","People","","627","","","","32","","27","","12","","","","1","","","","","1","","","","","142","627","","","","","","","","","","","","","","","","","","","","","","","","",""
"","reward_outcome","","html-keyboard-response","226","989339","0.0-156.0","0","0","sNyXJ","People","","925","","","","38","","27","","12","","","","","","","","","","","","","","","","1","925","","","","","","","","","","","","","","","","","","","","","","",""
"","fixation","","html-keyboard-response","227","990358","0.0-159.0","0","0","sNyXJ","People","","null","","","","null","","","","","","","","","","","","","","","","","","","","","","","","","","","","","","","","","","","","","","","","","","","",""
"","see_reward","","html-keyboard-response","228","990997","0.0-160.0","0","0","sNyXJ","People","","637","","","","32","","36","","13","","","","-1","","","","","1","","","","","0","637","","","","","","","","","","","","","","","","","","","","","","","","",""
"","reward_outcome","","html-keyboard-response","229","993011","0.0-161.0","0","0","sNyXJ","People","","590","","","","40","","36","","13","","","","","","","","","","","","","","","","-1","590","","","","","","","","","","","","","","","","","","","","","","",""
"","fixation","","html-keyboard-response","230","994032","0.0-164.0","0","0","sNyXJ","People","","null","","","","null","","","","","","","","","","","","","","","","","","","","","","","","","","","","","","","","","","","","","","","","","","","",""
"","see_reward","","html-keyboard-response","231","994581","0.0-165.0","0","0","sNyXJ","People","","547","","","","32","","31","","14","","","","-1","","","","","1","","","","","0","547","","","","","","","","","","","","","","","","","","","","","","","","",""
"","reward_outcome","","html-keyboard-response","232","996593","0.0-166.0","0","0","sNyXJ","People","","582","","","","40","","31","","14","","","","","","","","","","","","","","","","-1","582","","","","","","","","","","","","","","","","","","","","","","",""
"","fixation","","html-keyboard-response","233","997600","0.0-169.0","0","0","sNyXJ","People","","null","","","","null","","","","","","","","","","","","","","","","","","","","","","","","","","","","","","","","","","","","","","","","","","","",""
"","see_reward","","html-keyboard-response","234","998124","0.0-170.0","0","0","sNyXJ","People","","522","","","","32","","45","","15","","","","-1","","","","","1","","","","","0","522","","","","","","","","","","","","","","","","","","","","","","","","",""
"","reward_outcome","","html-keyboard-response","235","1000135","0.0-171.0","0","0","sNyXJ","People","","815","","","","40","","45","","15","","","","","","","","","","","","","","","","-1","815","","","","","","","","","","","","","","","","","","","","","","",""
"","fixation","","html-keyboard-response","236","1001140","0.0-174.0","0","0","sNyXJ","People","","null","","","","null","","","","","","","","","","","","","","","","","","","","","","","","","","","","","","","","","","","","","","","","","","","",""
"","see_reward","","html-keyboard-response","237","1001653","0.0-175.0","0","0","sNyXJ","People","","511","","","","32","","14","","16","","","","1","","","","","1","","","","","140","511","","","","","","","","","","","","","","","","","","","","","","","","",""
"","reward_outcome","","html-keyboard-response","238","1003674","0.0-176.0","0","0","sNyXJ","People","","653","","","","38","","14","","16","","","","","","","","","","","","","","","","1","653","","","","","","","","","","","","","","","","","","","","","","",""
"","fixation","","html-keyboard-response","239","1004698","0.0-179.0","0","0","sNyXJ","People","","null","","","","null","","","","","","","","","","","","","","","","","","","","","","","","","","","","","","","","","","","","","","","","","","","",""
"","see_reward","","html-keyboard-response","240","1005213","0.0-180.0","0","0","sNyXJ","People","","513","","","","32","","11","","17","","","","-1","","","","","1","","","","","0","513","","","","","","","","","","","","","","","","","","","","","","","","",""
"","reward_outcome","","html-keyboard-response","241","1007229","0.0-181.0","0","0","sNyXJ","People","","853","","","","40","","11","","17","","","","","","","","","","","","","","","","-1","853","","","","","","","","","","","","","","","","","","","","","","",""
"","fixation","","html-keyboard-response","242","1008239","0.0-184.0","0","0","sNyXJ","People","","null","","","","null","","","","","","","","","","","","","","","","","","","","","","","","","","","","","","","","","","","","","","","","","","","",""
"","see_reward","","html-keyboard-response","243","1008803","0.0-185.0","0","0","sNyXJ","People","","563","","","","32","","44","","18","","","","1","","","","","1","","","","","150","563","","","","","","","","","","","","","","","","","","","","","","","","",""
"","reward_outcome","","html-keyboard-response","244","1010823","0.0-186.0","0","0","sNyXJ","People","","512","","","","38","","44","","18","","","","","","","","","","","","","","","","1","512","","","","","","","","","","","","","","","","","","","","","","",""
"","fixation","","html-keyboard-response","245","1011842","0.0-189.0","0","0","sNyXJ","People","","null","","","","null","","","","","","","","","","","","","","","","","","","","","","","","","","","","","","","","","","","","","","","","","","","",""
"","see_reward","","html-keyboard-response","246","1012333","0.0-190.0","0","0","sNyXJ","People","","489","","","","32","","27","","19","","","","1","","","","","1","","","","","142","489","","","","","","","","","","","","","","","","","","","","","","","","",""
"","reward_outcome","","html-keyboard-response","247","1014354","0.0-191.0","0","0","sNyXJ","People","","581","","","","38","","27","","19","","","","","","","","","","","","","","","","1","581","","","","","","","","","","","","","","","","","","","","","","",""
"","fixation","","html-keyboard-response","248","1015377","0.0-194.0","0","0","sNyXJ","People","","null","","","","null","","","","","","","","","","","","","","","","","","","","","","","","","","","","","","","","","","","","","","","","","","","",""
"","see_reward","","html-keyboard-response","249","1015765","0.0-195.0","0","0","sNyXJ","People","","386","","","","32","","17","","20","","","","1","","","","","1","","","","","157","386","","","","","","","","","","","","","","","","","","","","","","","","",""
"","reward_outcome","","html-keyboard-response","250","1017784","0.0-196.0","0","0","sNyXJ","People","","454","","","","38","","17","","20","","","","","","","","","","","","","","","","1","454","","","","","","","","","","","","","","","","","","","","","","",""
"","fixation","","html-keyboard-response","251","1018794","0.0-199.0","0","0","sNyXJ","People","","null","","","","null","","","","","","","","","","","","","","","","","","","","","","","","","","","","","","","","","","","","","","","","","","","",""
"","see_reward","","html-keyboard-response","252","1019340","0.0-200.0","0","0","sNyXJ","People","","544","","","","32","","42","","21","","","","-1","","","","","1","","","","","0","544","","","","","","","","","","","","","","","","","","","","","","","","",""
"","reward_outcome","","html-keyboard-response","253","1021351","0.0-201.0","0","0","sNyXJ","People","","567","","","","40","","42","","21","","","","","","","","","","","","","","","","-1","567","","","","","","","","","","","","","","","","","","","","","","",""
"","fixation","","html-keyboard-response","254","1022367","0.0-204.0","0","0","sNyXJ","People","","null","","","","null","","","","","","","","","","","","","","","","","","","","","","","","","","","","","","","","","","","","","","","","","","","",""
"","see_reward","","html-keyboard-response","255","1022812","0.0-205.0","0","0","sNyXJ","People","","443","","","","32","","49","","22","","","","-1","","","","","1","","","","","0","443","","","","","","","","","","","","","","","","","","","","","","","","",""
"","reward_outcome","","html-keyboard-response","256","1024823","0.0-206.0","0","0","sNyXJ","People","","622","","","","40","","49","","22","","","","","","","","","","","","","","","","-1","622","","","","","","","","","","","","","","","","","","","","","","",""
"","fixation","","html-keyboard-response","257","1025841","0.0-209.0","0","0","sNyXJ","People","","null","","","","null","","","","","","","","","","","","","","","","","","","","","","","","","","","","","","","","","","","","","","","","","","","",""
"","see_reward","","html-keyboard-response","258","1026436","0.0-210.0","0","0","sNyXJ","People","","594","","","","32","","36","","23","","","","-1","","","","","1","","","","","0","594","","","","","","","","","","","","","","","","","","","","","","","","",""
"","reward_outcome","","html-keyboard-response","259","1028455","0.0-211.0","0","0","sNyXJ","People","","351","","","","40","","36","","23","","","","","","","","","","","","","","","","-1","351","","","","","","","","","","","","","","","","","","","","","","",""
"","block_over","","html-keyboard-response","260","1031420","0.0-213.0-0.0","0","0","sNyXJ","People","","2963","","","","78","","","","","","","","","","","","","","","","","","","","","","","","","","","","","","","","","","","","","","","","","","","",""
"","fixation","","html-keyboard-response","261","1032430","0.0-214.0","0","0","sNyXJ","People","","null","","","","null","","","","","","","","","","","","","","","","","","","","","","","","","","","","","","","","","","","","","","","","","","","",""
"","see_reward","","html-keyboard-response","262","1033116","0.0-215.0","0","0","sNyXJ","People","","684","","","","32","","11","","24","","","","-1","","","","","2","","","","","0","684","","","","","","","","","","","","","","","","","","","","","","","","",""
"","reward_outcome","","html-keyboard-response","263","1035126","0.0-216.0","0","0","sNyXJ","People","","782","","","","40","","11","","24","","","","","","","","","","","","","","","","-1","782","","","","","","","","","","","","","","","","","","","","","","",""
"","fixation","","html-keyboard-response","264","1036136","0.0-219.0","0","0","sNyXJ","People","","null","","","","null","","","","","","","","","","","","","","","","","","","","","","","","","","","","","","","","","","","","","","","","","","","",""
"","see_reward","","html-keyboard-response","265","1036797","0.0-220.0","0","0","sNyXJ","People","","659","","","","32","","14","","25","","","","1","","","","","2","","","","","140","659","","","","","","","","","","","","","","","","","","","","","","","","",""
"","reward_outcome","","html-keyboard-response","266","1038816","0.0-221.0","0","0","sNyXJ","People","","414","","","","38","","14","","25","","","","","","","","","","","","","","","","1","414","","","","","","","","","","","","","","","","","","","","","","",""
"","fixation","","html-keyboard-response","267","1039825","0.0-224.0","0","0","sNyXJ","People","","null","","","","null","","","","","","","","","","","","","","","","","","","","","","","","","","","","","","","","","","","","","","","","","","","",""
"","see_reward","","html-keyboard-response","268","1040444","0.0-225.0","0","0","sNyXJ","People","","617","","","","32","","20","","26","","","","1","","","","","2","","","","","147","617","","","","","","","","","","","","","","","","","","","","","","","","",""
"","reward_outcome","","html-keyboard-response","269","1042461","0.0-226.0","0","0","sNyXJ","People","","398","","","","38","","20","","26","","","","","","","","","","","","","","","","1","398","","","","","","","","","","","","","","","","","","","","","","",""
"","fixation","","html-keyboard-response","270","1043480","0.0-229.0","0","0","sNyXJ","People","","null","","","","null","","","","","","","","","","","","","","","","","","","","","","","","","","","","","","","","","","","","","","","","","","","",""
"","see_reward","","html-keyboard-response","271","1044013","0.0-230.0","0","0","sNyXJ","People","","530","","","","32","","49","","27","","","","-1","","","","","2","","","","","0","530","","","","","","","","","","","","","","","","","","","","","","","","",""
"","reward_outcome","","html-keyboard-response","272","1046026","0.0-231.0","0","0","sNyXJ","People","","703","","","","40","","49","","27","","","","","","","","","","","","","","","","-1","703","","","","","","","","","","","","","","","","","","","","","","",""
"","fixation","","html-keyboard-response","273","1047051","0.0-234.0","0","0","sNyXJ","People","","null","","","","null","","","","","","","","","","","","","","","","","","","","","","","","","","","","","","","","","","","","","","","","","","","",""
"","see_reward","","html-keyboard-response","274","1047669","0.0-235.0","0","0","sNyXJ","People","","616","","","","32","","42","","28","","","","-1","","","","","2","","","","","0","616","","","","","","","","","","","","","","","","","","","","","","","","",""
"","reward_outcome","","html-keyboard-response","275","1049685","0.0-236.0","0","0","sNyXJ","People","","533","","","","40","","42","","28","","","","","","","","","","","","","","","","-1","533","","","","","","","","","","","","","","","","","","","","","","",""
"","fixation","","html-keyboard-response","276","1050707","0.0-239.0","0","0","sNyXJ","People","","null","","","","null","","","","","","","","","","","","","","","","","","","","","","","","","","","","","","","","","","","","","","","","","","","",""
"","see_reward","","html-keyboard-response","277","1051245","0.0-240.0","0","0","sNyXJ","People","","536","","","","32","","44","","29","","","","1","","","","","2","","","","","150","536","","","","","","","","","","","","","","","","","","","","","","","","",""
"","reward_outcome","","html-keyboard-response","278","1053267","0.0-241.0","0","0","sNyXJ","People","","517","","","","38","","44","","29","","","","","","","","","","","","","","","","1","517","","","","","","","","","","","","","","","","","","","","","","",""
"","fixation","","html-keyboard-response","279","1054289","0.0-244.0","0","0","sNyXJ","People","","null","","","","null","","","","","","","","","","","","","","","","","","","","","","","","","","","","","","","","","","","","","","","","","","","",""
"","see_reward","","html-keyboard-response","280","1055173","0.0-245.0","0","0","sNyXJ","People","","883","","","","32","","27","","30","","","","1","","","","","2","","","","","142","883","","","","","","","","","","","","","","","","","","","","","","","","",""
"","reward_outcome","","html-keyboard-response","281","1057186","0.0-246.0","0","0","sNyXJ","People","","262","","","","38","","27","","30","","","","","","","","","","","","","","","","1","262","","","","","","","","","","","","","","","","","","","","","","",""
"","fixation","","html-keyboard-response","282","1058190","0.0-249.0","0","0","sNyXJ","People","","null","","","","null","","","","","","","","","","","","","","","","","","","","","","","","","","","","","","","","","","","","","","","","","","","",""
"","see_reward","","html-keyboard-response","283","1059109","0.0-250.0","0","0","sNyXJ","People","","917","","","","32","","49","","31","","","","-1","","","","","2","","","","","0","917","","","","","","","","","","","","","","","","","","","","","","","","",""
"","reward_outcome","","html-keyboard-response","284","1061125","0.0-251.0","0","0","sNyXJ","People","","213","","","","40","","49","","31","","","","","","","","","","","","","","","","-1","213","","","","","","","","","","","","","","","","","","","","","","",""
"","fixation","","html-keyboard-response","285","1062135","0.0-254.0","0","0","sNyXJ","People","","null","","","","null","","","","","","","","","","","","","","","","","","","","","","","","","","","","","","","","","","","","","","","","","","","",""
"","see_reward","","html-keyboard-response","286","1062925","0.0-255.0","0","0","sNyXJ","People","","788","","","","32","","36","","32","","","","-1","","","","","2","","","","","0","788","","","","","","","","","","","","","","","","","","","","","","","","",""
"","reward_outcome","","html-keyboard-response","287","1064946","0.0-256.0","0","0","sNyXJ","People","","214","","","","40","","36","","32","","","","","","","","","","","","","","","","-1","214","","","","","","","","","","","","","","","","","","","","","","",""
"","fixation","","html-keyboard-response","288","1065968","0.0-259.0","0","0","sNyXJ","People","","null","","","","null","","","","","","","","","","","","","","","","","","","","","","","","","","","","","","","","","","","","","","","","","","","",""
"","see_reward","","html-keyboard-response","289","1066733","0.0-260.0","0","0","sNyXJ","People","","763","","","","32","","20","","33","","","","1","","","","","2","","","","","147","763","","","","","","","","","","","","","","","","","","","","","","","","",""
"","reward_outcome","","html-keyboard-response","290","1068744","0.0-261.0","0","0","sNyXJ","People","","125","","","","38","","20","","33","","","","","","","","","","","","","","","","1","125","","","","","","","","","","","","","","","","","","","","","","",""
"","fixation","","html-keyboard-response","291","1069753","0.0-264.0","0","0","sNyXJ","People","","null","","","","null","","","","","","","","","","","","","","","","","","","","","","","","","","","","","","","","","","","","","","","","","","","",""
"","see_reward","","html-keyboard-response","292","1070260","0.0-265.0","0","0","sNyXJ","People","","505","","","","32","","11","","34","","","","-1","","","","","2","","","","","0","505","","","","","","","","","","","","","","","","","","","","","","","","",""
"","reward_outcome","","html-keyboard-response","293","1072282","0.0-266.0","0","0","sNyXJ","People","","217","","","","40","","11","","34","","","","","","","","","","","","","","","","-1","217","","","","","","","","","","","","","","","","","","","","","","",""
"","fixation","","html-keyboard-response","294","1073284","0.0-269.0","0","0","sNyXJ","People","","null","","","","null","","","","","","","","","","","","","","","","","","","","","","","","","","","","","","","","","","","","","","","","","","","",""
"","see_reward","","html-keyboard-response","295","1074116","0.0-270.0","0","0","sNyXJ","People","","831","","","","32","","31","","35","","","","-1","","","","","2","","","","","0","831","","","","","","","","","","","","","","","","","","","","","","","","",""
"","reward_outcome","","html-keyboard-response","296","1076130","0.0-271.0","0","0","sNyXJ","People","","430","","","","40","","31","","35","","","","","","","","","","","","","","","","-1","430","","","","","","","","","","","","","","","","","","","","","","",""
"","fixation","","html-keyboard-response","297","1077140","0.0-274.0","0","0","sNyXJ","People","","null","","","","null","","","","","","","","","","","","","","","","","","","","","","","","","","","","","","","","","","","","","","","","","","","",""
"","see_reward","","html-keyboard-response","298","1077644","0.0-275.0","0","0","sNyXJ","People","","502","","","","32","","31","","36","","","","-1","","","","","2","","","","","0","502","","","","","","","","","","","","","","","","","","","","","","","","",""
"","reward_outcome","","html-keyboard-response","299","1079663","0.0-276.0","0","0","sNyXJ","People","","526","","","","40","","31","","36","","","","","","","","","","","","","","","","-1","526","","","","","","","","","","","","","","","","","","","","","","",""
"","fixation","","html-keyboard-response","300","1080671","0.0-279.0","0","0","sNyXJ","People","","null","","","","null","","","","","","","","","","","","","","","","","","","","","","","","","","","","","","","","","","","","","","","","","","","",""
"","see_reward","","html-keyboard-response","301","1081580","0.0-280.0","0","0","sNyXJ","People","","908","","","","32","","27","","37","","","","1","","","","","2","","","","","142","908","","","","","","","","","","","","","","","","","","","","","","","","",""
"","reward_outcome","","html-keyboard-response","302","1083599","0.0-281.0","0","0","sNyXJ","People","","222","","","","38","","27","","37","","","","","","","","","","","","","","","","1","222","","","","","","","","","","","","","","","","","","","","","","",""
"","fixation","","html-keyboard-response","303","1084604","0.0-284.0","0","0","sNyXJ","People","","null","","","","null","","","","","","","","","","","","","","","","","","","","","","","","","","","","","","","","","","","","","","","","","","","",""
"","see_reward","","html-keyboard-response","304","1085612","0.0-285.0","0","0","sNyXJ","People","","1006","","","","32","","42","","38","","","","-1","","","","","2","","","","","0","1006","","","","","","","","","","","","","","","","","","","","","","","","",""
"","reward_outcome","","html-keyboard-response","305","1087627","0.0-286.0","0","0","sNyXJ","People","","206","","","","40","","42","","38","","","","","","","","","","","","","","","","-1","206","","","","","","","","","","","","","","","","","","","","","","",""
"","fixation","","html-keyboard-response","306","1088639","0.0-289.0","0","0","sNyXJ","People","","null","","","","null","","","","","","","","","","","","","","","","","","","","","","","","","","","","","","","","","","","","","","","","","","","",""
"","see_reward","","html-keyboard-response","307","1089428","0.0-290.0","0","0","sNyXJ","People","","787","","","","32","","17","","39","","","","1","","","","","2","","","","","157","787","","","","","","","","","","","","","","","","","","","","","","","","",""
"","reward_outcome","","html-keyboard-response","308","1091439","0.0-291.0","0","0","sNyXJ","People","","262","","","","38","","17","","39","","","","","","","","","","","","","","","","1","262","","","","","","","","","","","","","","","","","","","","","","",""
"","fixation","","html-keyboard-response","309","1092455","0.0-294.0","0","0","sNyXJ","People","","null","","","","null","","","","","","","","","","","","","","","","","","","","","","","","","","","","","","","","","","","","","","","","","","","",""
"","see_reward","","html-keyboard-response","310","1093189","0.0-295.0","0","0","sNyXJ","People","","733","","","","32","","14","","40","","","","1","","","","","2","","","","","140","733","","","","","","","","","","","","","","","","","","","","","","","","",""
"","reward_outcome","","html-keyboard-response","311","1095203","0.0-296.0","0","0","sNyXJ","People","","238","","","","38","","14","","40","","","","","","","","","","","","","","","","1","238","","","","","","","","","","","","","","","","","","","","","","",""
"","fixation","","html-keyboard-response","312","1096226","0.0-299.0","0","0","sNyXJ","People","","null","","","","null","","","","","","","","","","","","","","","","","","","","","","","","","","","","","","","","","","","","","","","","","","","",""
"","see_reward","","html-keyboard-response","313","1096965","0.0-300.0","0","0","sNyXJ","People","","737","","","","32","","48","","41","","","","1","","","","","2","","","","","157","737","","","","","","","","","","","","","","","","","","","","","","","","",""
"","reward_outcome","","html-keyboard-response","314","1098976","0.0-301.0","0","0","sNyXJ","People","","1006","","","","38","","48","","41","","","","","","","","","","","","","","","","1","1006","","","","","","","","","","","","","","","","","","","","","","",""
"","fixation","","html-keyboard-response","315","1099982","0.0-304.0","0","0","sNyXJ","People","","null","","","","null","","","","","","","","","","","","","","","","","","","","","","","","","","","","","","","","","","","","","","","","","","","",""
"","see_reward","","html-keyboard-response","316","1101044","0.0-305.0","0","0","sNyXJ","People","","1060","","","","32","","45","","42","","","","-1","","","","","2","","","","","0","1060","","","","","","","","","","","","","","","","","","","","","","","","",""
"","reward_outcome","","html-keyboard-response","317","1103055","0.0-306.0","0","0","sNyXJ","People","","598","","","","40","","45","","42","","","","","","","","","","","","","","","","-1","598","","","","","","","","","","","","","","","","","","","","","","",""
"","fixation","","html-keyboard-response","318","1104064","0.0-309.0","0","0","sNyXJ","People","","null","","","","null","","","","","","","","","","","","","","","","","","","","","","","","","","","","","","","","","","","","","","","","","","","",""
"","see_reward","","html-keyboard-response","319","1104669","0.0-310.0","0","0","sNyXJ","People","","603","","","","32","","17","","43","","","","1","","","","","2","","","","","157","603","","","","","","","","","","","","","","","","","","","","","","","","",""
"","reward_outcome","","html-keyboard-response","320","1106692","0.0-311.0","0","0","sNyXJ","People","","421","","","","38","","17","","43","","","","","","","","","","","","","","","","1","421","","","","","","","","","","","","","","","","","","","","","","",""
"","fixation","","html-keyboard-response","321","1107714","0.0-314.0","0","0","sNyXJ","People","","null","","","","null","","","","","","","","","","","","","","","","","","","","","","","","","","","","","","","","","","","","","","","","","","","",""
"","see_reward","","html-keyboard-response","322","1108252","0.0-315.0","0","0","sNyXJ","People","","536","","","","32","","48","","44","","","","1","","","","","2","","","","","157","536","","","","","","","","","","","","","","","","","","","","","","","","",""
"","reward_outcome","","html-keyboard-response","323","1110262","0.0-316.0","0","0","sNyXJ","People","","431","","","","38","","48","","44","","","","","","","","","","","","","","","","1","431","","","","","","","","","","","","","","","","","","","","","","",""
"","fixation","","html-keyboard-response","324","1111269","0.0-319.0","0","0","sNyXJ","People","","null","","","","null","","","","","","","","","","","","","","","","","","","","","","","","","","","","","","","","","","","","","","","","","","","",""
"","see_reward","","html-keyboard-response","325","1111820","0.0-320.0","0","0","sNyXJ","People","","549","","","","32","","45","","45","","","","-1","","","","","2","","","","","0","549","","","","","","","","","","","","","","","","","","","","","","","","",""
"","reward_outcome","","html-keyboard-response","326","1113831","0.0-321.0","0","0","sNyXJ","People","","422","","","","40","","45","","45","","","","","","","","","","","","","","","","-1","422","","","","","","","","","","","","","","","","","","","","","","",""
"","fixation","","html-keyboard-response","327","1114850","0.0-324.0","0","0","sNyXJ","People","","null","","","","null","","","","","","","","","","","","","","","","","","","","","","","","","","","","","","","","","","","","","","","","","","","",""
"","see_reward","","html-keyboard-response","328","1115900","0.0-325.0","0","0","sNyXJ","People","","1049","","","","32","","44","","46","","","","1","","","","","2","","","","","150","1049","","","","","","","","","","","","","","","","","","","","","","","","",""
"","reward_outcome","","html-keyboard-response","329","1117915","0.0-326.0","0","0","sNyXJ","People","","390","","","","38","","44","","46","","","","","","","","","","","","","","","","1","390","","","","","","","","","","","","","","","","","","","","","","",""
"","fixation","","html-keyboard-response","330","1118923","0.0-329.0","0","0","sNyXJ","People","","null","","","","null","","","","","","","","","","","","","","","","","","","","","","","","","","","","","","","","","","","","","","","","","","","",""
"","see_reward","","html-keyboard-response","331","1119652","0.0-330.0","0","0","sNyXJ","People","","728","","","","32","","36","","47","","","","-1","","","","","2","","","","","0","728","","","","","","","","","","","","","","","","","","","","","","","","",""
"","reward_outcome","","html-keyboard-response","332","1121674","0.0-331.0","0","0","sNyXJ","People","","294","","","","40","","36","","47","","","","","","","","","","","","","","","","-1","294","","","","","","","","","","","","","","","","","","","","","","",""
"","block_over","","html-keyboard-response","333","1139468","0.0-333.0-0.0","0","0","sNyXJ","People","","17792","","","","78","","","","","","","","","","","","","","","","","","","","","","","","","","","","","","","","","","","","","","","","","","","",""
"","fixation","","html-keyboard-response","334","1140481","0.0-334.0","0","0","sNyXJ","People","","null","","","","null","","","","","","","","","","","","","","","","","","","","","","","","","","","","","","","","","","","","","","","","","","","",""
"","see_reward","","html-keyboard-response","335","1141164","0.0-335.0","0","0","sNyXJ","People","","680","","","","32","","44","","48","","","","1","","","","","3","","","","","150","680","","","","","","","","","","","","","","","","","","","","","","","","",""
"","reward_outcome","","html-keyboard-response","336","1143186","0.0-336.0","0","0","sNyXJ","People","","286","","","","38","","44","","48","","","","","","","","","","","","","","","","1","286","","","","","","","","","","","","","","","","","","","","","","",""
"","fixation","","html-keyboard-response","337","1144209","0.0-339.0","0","0","sNyXJ","People","","null","","","","null","","","","","","","","","","","","","","","","","","","","","","","","","","","","","","","","","","","","","","","","","","","",""
"","see_reward","","html-keyboard-response","338","1144732","0.0-340.0","0","0","sNyXJ","People","","521","","","","32","","31","","49","","","","-1","","","","","3","","","","","0","521","","","","","","","","","","","","","","","","","","","","","","","","",""
"","reward_outcome","","html-keyboard-response","339","1146749","0.0-341.0","0","0","sNyXJ","People","","494","","","","40","","31","","49","","","","","","","","","","","","","","","","-1","494","","","","","","","","","","","","","","","","","","","","","","",""
"","fixation","","html-keyboard-response","340","1147758","0.0-344.0","0","0","sNyXJ","People","","null","","","","null","","","","","","","","","","","","","","","","","","","","","","","","","","","","","","","","","","","","","","","","","","","",""
"","see_reward","","html-keyboard-response","341","1148356","0.0-345.0","0","0","sNyXJ","People","","596","","","","32","","36","","50","","","","-1","","","","","3","","","","","0","596","","","","","","","","","","","","","","","","","","","","","","","","",""
"","reward_outcome","","html-keyboard-response","342","1150374","0.0-346.0","0","0","sNyXJ","People","","278","","","","40","","36","","50","","","","","","","","","","","","","","","","-1","278","","","","","","","","","","","","","","","","","","","","","","",""
"","fixation","","html-keyboard-response","343","1151384","0.0-349.0","0","0","sNyXJ","People","","null","","","","null","","","","","","","","","","","","","","","","","","","","","","","","","","","","","","","","","","","","","","","","","","","",""
"","see_reward","","html-keyboard-response","344","1152292","0.0-350.0","0","0","sNyXJ","People","","906","","","","32","","49","","51","","","","-1","","","","","3","","","","","0","906","","","","","","","","","","","","","","","","","","","","","","","","",""
"","reward_outcome","","html-keyboard-response","345","1154301","0.0-351.0","0","0","sNyXJ","People","","270","","","","40","","49","","51","","","","","","","","","","","","","","","","-1","270","","","","","","","","","","","","","","","","","","","","","","",""
"","fixation","","html-keyboard-response","346","1155320","0.0-354.0","0","0","sNyXJ","People","","null","","","","null","","","","","","","","","","","","","","","","","","","","","","","","","","","","","","","","","","","","","","","","","","","",""
"","see_reward","","html-keyboard-response","347","1155828","0.0-355.0","0","0","sNyXJ","People","","506","","","","32","","17","","52","","","","1","","","","","3","","","","","157","506","","","","","","","","","","","","","","","","","","","","","","","","",""
"","reward_outcome","","html-keyboard-response","348","1157851","0.0-356.0","0","0","sNyXJ","People","","206","","","","38","","17","","52","","","","","","","","","","","","","","","","1","206","","","","","","","","","","","","","","","","","","","","","","",""
"","fixation","","html-keyboard-response","349","1158861","0.0-359.0","0","0","sNyXJ","People","","null","","","","null","","","","","","","","","","","","","","","","","","","","","","","","","","","","","","","","","","","","","","","","","","","",""
"","see_reward","","html-keyboard-response","350","1159500","0.0-360.0","0","0","sNyXJ","People","","637","","","","32","","14","","53","","","","1","","","","","3","","","","","140","637","","","","","","","","","","","","","","","","","","","","","","","","",""
"","reward_outcome","","html-keyboard-response","351","1161510","0.0-361.0","0","0","sNyXJ","People","","214","","","","38","","14","","53","","","","","","","","","","","","","","","","1","214","","","","","","","","","","","","","","","","","","","","","","",""
"","fixation","","html-keyboard-response","352","1162519","0.0-364.0","0","0","sNyXJ","People","","null","","","","null","","","","","","","","","","","","","","","","","","","","","","","","","","","","","","","","","","","","","","","","","","","",""
"","see_reward","","html-keyboard-response","353","1163124","0.0-365.0","0","0","sNyXJ","People","","603","","","","32","","44","","54","","","","1","","","","","3","","","","","150","603","","","","","","","","","","","","","","","","","","","","","","","","",""
