"success","ttype","start_time","trial_type","trial_index","time_elapsed","internal_node_id","warning","missed_checkup","PID","stim_type","view_history","rt","responses","repeat_instructions","key_press","response","stimulus_id","painting","index","stimulus_left","stimulus_right","explain_trial","reward_type","rating_left","rating_right","painting_left","painting_right","block","left_chosen","chosen_obj","unchosen_obj","explain_response","reward_amount","see_reward_rt","register_reward_response","register_reward_rt","deliberation_reward_tally","stimulus_left_deliberation_ind","stimulus_right_deliberation_ind","chosen_trial","gain_left","higher_outcome_chosen","old_pair","chosen_object","rt_pairs","left_object_chosen","rt_object","old_response","new_rating","deliberated_stim","initial_rating","outcome_eval_rt","outcome_eval_response","outcome_eval_gain","outcome_eval_acc","preamble","outcome_eval_confidence","outcome_eval_confidence_rt","total_reward_tally"
"true","full_screen","d01192023hr2037","fullscreen","0","50794","0.0-0.0","0","0","yzPbe","Scenes","","","","","","","","","","","","","","","","","","","","","","","","","","","","","","","","","","","","","","","","","","","","","","","","",""
"","rating_instructions","","instructions","1","78565","0.0-1.0-0.0","0","0","yzPbe","Scenes","[{""page_index"":0,""viewing_time"":22891},{""page_index"":1,""viewing_time"":4876}]","27768","","","","","","","","","","","","","","","","","","","","","","","","","","","","","","","","","","","","","","","","","","","","","","",""
"","rating_comprehension_check","","survey-multi-choice","2","85926","0.0-1.0-1.0","0","0","yzPbe","Scenes","","7358","{""Q0"":""True"",""Q1"":""Mouse""}","0","","","","","","","","","","","","","","","","","","","","","","","","","","","","","","","","","","","","","","","","","","","","",""
"","start_phase","","html-keyboard-response","3","95833","0.0-2.0","0","0","yzPbe","Scenes","","9900","","","78","","","","","","","","","","","","","","","","","","","","","","","","","","","","","","","","","","","","","","","","","","","",""
"","rating","","html-slider-response","4","101319","0.0-3.0","0","0","yzPbe","Scenes","","5483","","","","74","139","samsommer-vddccTqwal8-unsplash.jpg","0","","","","","","","","","","","","","","","","","","","","","","","","","","","","","","","","","","","","","","","",""
"","rating","","html-slider-response","5","104251","0.0-4.0","0","0","yzPbe","Scenes","","2929","","","","72","135","mohammad-alizade-4wzRuAb-KWs-unsplash.jpg","1","","","","","","","","","","","","","","","","","","","","","","","","","","","","","","","","","","","","","","","",""
"","rating","","html-slider-response","6","108133","0.0-5.0","0","0","yzPbe","Scenes","","3879","","","","79","113","damian-denis-D8R_txR_0PE-unsplash.jpg","2","","","","","","","","","","","","","","","","","","","","","","","","","","","","","","","","","","","","","","","",""
"","rating","","html-slider-response","7","112569","0.0-6.0","0","0","yzPbe","Scenes","","4434","","","","59","115","darrell-cassell-hoCXpPUMCoE-unsplash.jpg","3","","","","","","","","","","","","","","","","","","","","","","","","","","","","","","","","","","","","","","","",""
"","rating","","html-slider-response","8","116603","0.0-7.0","0","0","yzPbe","Scenes","","4031","","","","70","130","lina-loos-04-C1NZk1hE-unsplash.jpg","4","","","","","","","","","","","","","","","","","","","","","","","","","","","","","","","","","","","","","","","",""
"","rating","","html-slider-response","9","118770","0.0-8.0","0","0","yzPbe","Scenes","","2165","","","","68","129","kurt-cotoaga-cqbLg3lZEpk-unsplash.jpg","5","","","","","","","","","","","","","","","","","","","","","","","","","","","","","","","","","","","","","","","",""
"","rating","","html-slider-response","10","121147","0.0-9.0","0","0","yzPbe","Scenes","","2375","","","","73","144","solotravelgoals-7kLufxYoqWk-unsplash.jpg","6","","","","","","","","","","","","","","","","","","","","","","","","","","","","","","","","","","","","","","","",""
"","rating","","html-slider-response","11","124557","0.0-10.0","0","0","yzPbe","Scenes","","3408","","","","89","148","tom-gainor-ZqLeQDjY6fY-unsplash.jpg","7","","","","","","","","","","","","","","","","","","","","","","","","","","","","","","","","","","","","","","","",""
"","rating","","html-slider-response","12","127464","0.0-11.0","0","0","yzPbe","Scenes","","2905","","","","64","138","petr-vysohlid-9fqwGqGLUxc-unsplash.jpg","8","","","","","","","","","","","","","","","","","","","","","","","","","","","","","","","","","","","","","","","",""
"","rating","","html-slider-response","13","130683","0.0-12.0","0","0","yzPbe","Scenes","","3217","","","","65","126","jordan-mcqueen-PJCZOWuOxbU-unsplash.jpg","9","","","","","","","","","","","","","","","","","","","","","","","","","","","","","","","","","","","","","","","",""
"","rating","","html-slider-response","14","133599","0.0-13.0","0","0","yzPbe","Scenes","","2913","","","","72","147","tobias-keller-73F4pKoUkM0-unsplash.jpg","10","","","","","","","","","","","","","","","","","","","","","","","","","","","","","","","","","","","","","","","",""
"","rating","","html-slider-response","15","137179","0.0-14.0","0","0","yzPbe","Scenes","","3578","","","","64","143","sigurdur-fjalar-jonsson-1KxBabIntpE-unsplash.jpg","11","","","","","","","","","","","","","","","","","","","","","","","","","","","","","","","","","","","","","","","",""
"","rating","","html-slider-response","16","141206","0.0-15.0","0","0","yzPbe","Scenes","","4025","","","","69","116","david-marcu-W5MhJ6cy1So-unsplash.jpg","12","","","","","","","","","","","","","","","","","","","","","","","","","","","","","","","","","","","","","","","",""
"","rating","","html-slider-response","17","145805","0.0-16.0","0","0","yzPbe","Scenes","","4596","","","","93","120","jarrett-kow-1ZOyYPOBn7I-unsplash.jpg","13","","","","","","","","","","","","","","","","","","","","","","","","","","","","","","","","","","","","","","","",""
"","rating","","html-slider-response","18","148599","0.0-17.0","0","0","yzPbe","Scenes","","2791","","","","74","119","james-wheeler-AFC0XvICMgs-unsplash.jpg","14","","","","","","","","","","","","","","","","","","","","","","","","","","","","","","","","","","","","","","","",""
"","rating","","html-slider-response","19","151385","0.0-18.0","0","0","yzPbe","Scenes","","2783","","","","66","111","claudio-testa-U3F2o6vz3bs-unsplash.jpg","15","","","","","","","","","","","","","","","","","","","","","","","","","","","","","","","","","","","","","","","",""
"","rating","","html-slider-response","20","154463","0.0-19.0","0","0","yzPbe","Scenes","","3076","","","","92","109","brigitta-schneiter-hXXRLtTxXCU-unsplash.jpg","16","","","","","","","","","","","","","","","","","","","","","","","","","","","","","","","","","","","","","","","",""
"","rating","","html-slider-response","21","157965","0.0-20.0","0","0","yzPbe","Scenes","","3499","","","","75","100","aleksandra-boguslawska-MS7KD9Ti7FQ-unsplash.jpg","17","","","","","","","","","","","","","","","","","","","","","","","","","","","","","","","","","","","","","","","",""
"","rating","","html-slider-response","22","160921","0.0-21.0","0","0","yzPbe","Scenes","","2954","","","","61","118","henry-be-NLF6hTe4PAg-unsplash.jpg","18","","","","","","","","","","","","","","","","","","","","","","","","","","","","","","","","","","","","","","","",""
"","rating","","html-slider-response","23","163528","0.0-22.0","0","0","yzPbe","Scenes","","2604","","","","66","122","jeff-king-bJHWJeiHfHc-unsplash.jpg","19","","","","","","","","","","","","","","","","","","","","","","","","","","","","","","","","","","","","","","","",""
"","rating","","html-slider-response","24","167897","0.0-23.0","0","0","yzPbe","Scenes","","4367","","","","65","142","sergey-pesterev-y-b_FOmJXdg-unsplash.jpg","20","","","","","","","","","","","","","","","","","","","","","","","","","","","","","","","","","","","","","","","",""
"","rating","","html-slider-response","25","172759","0.0-24.0","0","0","yzPbe","Scenes","","4860","","","","71","101","aniket-deole-T-tOgjWZ0fQ-unsplash.jpg","21","","","","","","","","","","","","","","","","","","","","","","","","","","","","","","","","","","","","","","","",""
"","rating","","html-slider-response","26","179045","0.0-25.0","0","0","yzPbe","Scenes","","6283","","","","36","149","yuriy-bogdanov-W51VK3Obcj0-unsplash.jpg","22","","","","","","","","","","","","","","","","","","","","","","","","","","","","","","","","","","","","","","","",""
"","rating","","html-slider-response","27","183312","0.0-26.0","0","0","yzPbe","Scenes","","4265","","","","50","121","jean-pierre-brungs-qxCqkbF7tUc-unsplash.jpg","23","","","","","","","","","","","","","","","","","","","","","","","","","","","","","","","","","","","","","","","",""
"","rating","","html-slider-response","28","188211","0.0-27.0","0","0","yzPbe","Scenes","","4897","","","","88","131","luca-bravo-hFzIoD0F_i8-unsplash.jpg","24","","","","","","","","","","","","","","","","","","","","","","","","","","","","","","","","","","","","","","","",""
"","rating","","html-slider-response","29","192470","0.0-28.0","0","0","yzPbe","Scenes","","4256","","","","66","146","thomas-morse-cuKKa0vWZSY-unsplash.jpg","25","","","","","","","","","","","","","","","","","","","","","","","","","","","","","","","","","","","","","","","",""
"","rating","","html-slider-response","30","208393","0.0-29.0","0","0","yzPbe","Scenes","","15921","","","","81","114","daniel-sessler-z_9VmsxR8hs-unsplash.jpg","26","","","","","","","","","","","","","","","","","","","","","","","","","","","","","","","","","","","","","","","",""
"","rating","","html-slider-response","31","214041","0.0-30.0","0","0","yzPbe","Scenes","","5646","","","","57","141","sebastian-unrau-v4e3JI7DDHI-unsplash.jpg","27","","","","","","","","","","","","","","","","","","","","","","","","","","","","","","","","","","","","","","","",""
"","rating","","html-slider-response","32","221449","0.0-31.0","0","0","yzPbe","Scenes","","7406","","","","72","124","johannes-plenio-sPt5RIjKfpk-unsplash.jpg","28","","","","","","","","","","","","","","","","","","","","","","","","","","","","","","","","","","","","","","","",""
"","rating","","html-slider-response","33","225367","0.0-32.0","0","0","yzPbe","Scenes","","3916","","","","89","123","joel-jasmin-forestbird-efuwb5eBDrI-unsplash.jpg","29","","","","","","","","","","","","","","","","","","","","","","","","","","","","","","","","","","","","","","","",""
"","rating","","html-slider-response","34","229673","0.0-33.0","0","0","yzPbe","Scenes","","4303","","","","74","145","stephen-leonardi-gyIRjKPXupE-unsplash.jpg","30","","","","","","","","","","","","","","","","","","","","","","","","","","","","","","","","","","","","","","","",""
"","rating","","html-slider-response","35","233801","0.0-34.0","0","0","yzPbe","Scenes","","4125","","","","50","133","mickey-o-neil-xL66l--msXU-unsplash.jpg","31","","","","","","","","","","","","","","","","","","","","","","","","","","","","","","","","","","","","","","","",""
"","rating","","html-slider-response","36","237705","0.0-35.0","0","0","yzPbe","Scenes","","3903","","","","50","117","frank-mckenna-OD9EOzfSOh0-unsplash.jpg","32","","","","","","","","","","","","","","","","","","","","","","","","","","","","","","","","","","","","","","","",""
"","rating","","html-slider-response","37","242379","0.0-36.0","0","0","yzPbe","Scenes","","4672","","","","69","103","anton-darius-FBJugtbHsWU-unsplash.jpg","33","","","","","","","","","","","","","","","","","","","","","","","","","","","","","","","","","","","","","","","",""
"","rating","","html-slider-response","38","245935","0.0-37.0","0","0","yzPbe","Scenes","","3553","","","","90","125","john-lee-oMneOBYhJxY-unsplash.jpg","34","","","","","","","","","","","","","","","","","","","","","","","","","","","","","","","","","","","","","","","",""
"","rating","","html-slider-response","39","250625","0.0-38.0","0","0","yzPbe","Scenes","","4687","","","","87","104","artem-sapegin-XGDBdSQ70O0-unsplash.jpg","35","","","","","","","","","","","","","","","","","","","","","","","","","","","","","","","","","","","","","","","",""
"","rating","","html-slider-response","40","254222","0.0-39.0","0","0","yzPbe","Scenes","","3593","","","","66","127","kace-rodriguez-p3OzJuT_Dks-unsplash.jpg","36","","","","","","","","","","","","","","","","","","","","","","","","","","","","","","","","","","","","","","","",""
"","rating","","html-slider-response","41","258765","0.0-40.0","0","0","yzPbe","Scenes","","4541","","","","66","128","karsten-wurth-jS0zC2PJ17A-unsplash.jpg","37","","","","","","","","","","","","","","","","","","","","","","","","","","","","","","","","","","","","","","","",""
"","rating","","html-slider-response","42","261812","0.0-41.0","0","0","yzPbe","Scenes","","3044","","","","83","105","ashim-d-silva-S2Q5mdOrrVc-unsplash.jpg","38","","","","","","","","","","","","","","","","","","","","","","","","","","","","","","","","","","","","","","","",""
"","rating","","html-slider-response","43","266187","0.0-42.0","0","0","yzPbe","Scenes","","4372","","","","87","112","cosmic-timetraveler-pYyOZ8q7AII-unsplash.jpg","39","","","","","","","","","","","","","","","","","","","","","","","","","","","","","","","","","","","","","","","",""
"","rating","","html-slider-response","44","271247","0.0-43.0","0","0","yzPbe","Scenes","","5057","","","","73","110","bruno-van-der-kraan-qez8mNJ3ilU-unsplash.jpg","40","","","","","","","","","","","","","","","","","","","","","","","","","","","","","","","","","","","","","","","",""
"","rating","","html-slider-response","45","273879","0.0-44.0","0","0","yzPbe","Scenes","","2630","","","","72","134","milada-vigerova-pQMM63GE7fo-unsplash.jpg","41","","","","","","","","","","","","","","","","","","","","","","","","","","","","","","","","","","","","","","","",""
"","rating","","html-slider-response","46","277249","0.0-45.0","0","0","yzPbe","Scenes","","3367","","","","36","102","anisur-rahman-K2b7UDed6uQ-unsplash.jpg","42","","","","","","","","","","","","","","","","","","","","","","","","","","","","","","","","","","","","","","","",""
"","rating","","html-slider-response","47","279819","0.0-46.0","0","0","yzPbe","Scenes","","2568","","","","63","106","ashim-d-silva-WeYamle9fDM-unsplash.jpg","43","","","","","","","","","","","","","","","","","","","","","","","","","","","","","","","","","","","","","","","",""
"","rating","","html-slider-response","48","283507","0.0-47.0","0","0","yzPbe","Scenes","","3686","","","","50","107","benjamin-davies-Zm2n2O7Fph4-unsplash.jpg","44","","","","","","","","","","","","","","","","","","","","","","","","","","","","","","","","","","","","","","","",""
"","rating","","html-slider-response","49","286553","0.0-48.0","0","0","yzPbe","Scenes","","3043","","","","87","137","olga-stalska-QaWRyEdlffY-unsplash.jpg","45","","","","","","","","","","","","","","","","","","","","","","","","","","","","","","","","","","","","","","","",""
"","rating","","html-slider-response","50","290071","0.0-49.0","0","0","yzPbe","Scenes","","3516","","","","85","140","samuele-errico-piccarini-JEBqFu2AOOA-unsplash.jpg","46","","","","","","","","","","","","","","","","","","","","","","","","","","","","","","","","","","","","","","","",""
"","rating","","html-slider-response","51","294669","0.0-50.0","0","0","yzPbe","Scenes","","4595","","","","90","136","nicolas-jehly-LzVB84KkZOE-unsplash.jpg","47","","","","","","","","","","","","","","","","","","","","","","","","","","","","","","","","","","","","","","","",""
"","rating","","html-slider-response","52","299491","0.0-51.0","0","0","yzPbe","Scenes","","4820","","","","61","132","meng-ji-8BH_M-53CyA-unsplash.jpg","48","","","","","","","","","","","","","","","","","","","","","","","","","","","","","","","","","","","","","","","",""
"","rating","","html-slider-response","53","303271","0.0-52.0","0","0","yzPbe","Scenes","","3778","","","","63","108","benjamin-voros-phIFdC6lA4E-unsplash.jpg","49","","","","","","","","","","","","","","","","","","","","","","","","","","","","","","","","","","","","","","","",""
"","deliberation_instructions","","instructions","54","403381","0.0-53.0-0.0","0","0","yzPbe","Scenes","[{""page_index"":0,""viewing_time"":28798},{""page_index"":1,""viewing_time"":27502},{""page_index"":2,""viewing_time"":22980},{""page_index"":3,""viewing_time"":18612},{""page_index"":4,""viewing_time"":2214}]","100106","","","","","","","","","","","","","","","","","","","","","","","","","","","","","","","","","","","","","","","","","","","","","","",""
"","deliberation_comprehension_check","","survey-multi-choice","55","445528","0.0-53.0-1.0","0","0","yzPbe","Scenes","","42141","{""Q0"":""True"",""Q1"":""False"",""Q2"":""Consider carefully and take your time (up to 10 seconds)"",""Q3"":""True"",""Q4"":""D""}","1","","","","","","","","","","","","","","","","","","","","","","","","","","","","","","","","","","","","","","","","","","","","",""
"","missed_instruction_checkup","","html-keyboard-response","56","452481","0.0-53.0-2.0-0.0","0","1","yzPbe","Scenes","","6949","","","78","","","","","","","","","","","","","","","","","","","","","","","","","","","","","","","","","","","","","","","","","","","",""
"","deliberation_instructions","","instructions","57","483628","0.0-53.1-0.1","0","0","yzPbe","Scenes","[{""page_index"":0,""viewing_time"":5244},{""page_index"":1,""viewing_time"":2162},{""page_index"":2,""viewing_time"":13578},{""page_index"":3,""viewing_time"":9088},{""page_index"":4,""viewing_time"":1073}]","31146","","","","","","","","","","","","","","","","","","","","","","","","","","","","","","","","","","","","","","","","","","","","","","",""
"","deliberation_comprehension_check","","survey-multi-choice","58","499606","0.0-53.1-1.1","0","0","yzPbe","Scenes","","15973","{""Q0"":""True"",""Q1"":""True"",""Q2"":""Consider carefully and take your time (up to 10 seconds)"",""Q3"":""True"",""Q4"":""D""}","0","","","","","","","","","","","","","","","","","","","","","","","","","","","","","","","","","","","","","","","","","","","","",""
"","start_phase","","html-keyboard-response","59","504074","0.0-54.0","0","0","yzPbe","Scenes","","4463","","","78","","","","","","","","","","","","","","","","","","","","","","","","","","","","","","","","","","","","","","","","","","","",""
"","first_deliberation_block","","html-keyboard-response","60","509535","0.0-55.0","0","0","yzPbe","Scenes","","5460","","","78","","","","","","","","","","","","","","","","","","","","","","","","","","","","","","","","","","","","","","","","","","","",""
"","fixation","","html-keyboard-response","61","510547","0.0-56.0-0.0","0","0","yzPbe","Scenes","","null","","","null","","","","","","","","","","","","","","","","","","","","","","","","","","","","","","","","","","","","","","","","","","","",""
"","deliberation","","html-keyboard-response","62","512577","0.0-56.0-1.0","0","0","yzPbe","Scenes","","2028","","","68","","","","0","101","110","1","1","71","73","aniket-deole-T-tOgjWZ0fQ-unsplash.jpg","bruno-van-der-kraan-qez8mNJ3ilU-unsplash.jpg","1","1","101","110","","","","","","","","","","","","","","","","","","","","","","","","","","","",""
"","choice_confirmation","","html-keyboard-response","63","513095","0.0-56.0-2.0-0.0","0","0","yzPbe","Scenes","","null","","","null","","","","0","101","110","","","","","","","","","","","","","","","","","","","","","","","","","","","","","","","","","","","","","",""
"","explain_trial","","survey-text","64","529229","0.0-56.0-5.0-0.0","0","0","yzPbe","Scenes","","16131","{""Q0"":""It looks very colorful.""}","","","","","","0","101","110","","","","","","","","","","","{""Q0"":""It looks very colorful.""}","","","","","","","","","","","","","","","","","","","","","","","","","","",""
"","fixation","","html-keyboard-response","65","530239","0.0-57.0-0.0","0","0","yzPbe","Scenes","","null","","","null","","","","","","","","","","","","","","","","","","","","","","","","","","","","","","","","","","","","","","","","","","","",""
"","deliberation","","html-keyboard-response","66","531767","0.0-57.0-1.0","0","0","yzPbe","Scenes","","1526","","","75","","","","1","119","128","1","1","74","66","james-wheeler-AFC0XvICMgs-unsplash.jpg","karsten-wurth-jS0zC2PJ17A-unsplash.jpg","1","0","128","119","","","","","","","","","","","","","","","","","","","","","","","","","","","",""
"","choice_confirmation","","html-keyboard-response","67","532279","0.0-57.0-2.0-0.0","0","0","yzPbe","Scenes","","null","","","null","","","","1","119","128","","","","","","","","","","","","","","","","","","","","","","","","","","","","","","","","","","","","","",""
"","explain_trial","","survey-text","68","549869","0.0-57.0-5.0-0.0","0","0","yzPbe","Scenes","","17588","{""Q0"":""I like the purple hue of the sky.""}","","","","","","1","119","128","","","","","","","","","","","{""Q0"":""I like the purple hue of the sky.""}","","","","","","","","","","","","","","","","","","","","","","","","","","",""
"","fixation","","html-keyboard-response","69","550886","0.0-58.0-0.0","0","0","yzPbe","Scenes","","null","","","null","","","","","","","","","","","","","","","","","","","","","","","","","","","","","","","","","","","","","","","","","","","",""
"","deliberation","","html-keyboard-response","70","555125","0.0-58.0-1.0","0","0","yzPbe","Scenes","","4237","","","75","","","","2","134","116","1","-1","72","69","milada-vigerova-pQMM63GE7fo-unsplash.jpg","david-marcu-W5MhJ6cy1So-unsplash.jpg","1","0","116","134","","","","","","","","","","","","","","","","","","","","","","","","","","","",""
"","choice_confirmation","","html-keyboard-response","71","555630","0.0-58.0-2.0-0.0","0","0","yzPbe","Scenes","","null","","","null","","","","2","134","116","","","","","","","","","","","","","","","","","","","","","","","","","","","","","","","","","","","","","",""
"","explain_trial","","survey-text","72","573469","0.0-58.0-5.0-0.0","0","0","yzPbe","Scenes","","17836","{""Q0"":""I like the reflections in this photo.""}","","","","","","2","134","116","","","","","","","","","","","{""Q0"":""I like the reflections in this photo.""}","","","","","","","","","","","","","","","","","","","","","","","","","","",""
"","fixation","","html-keyboard-response","73","574486","0.0-59.0-0.0","0","0","yzPbe","Scenes","","null","","","null","","","","","","","","","","","","","","","","","","","","","","","","","","","","","","","","","","","","","","","","","","","",""
"","deliberation","","html-keyboard-response","74","577831","0.0-59.0-1.0","0","0","yzPbe","Scenes","","3341","","","68","","","","3","135","122","0","-1","72","66","mohammad-alizade-4wzRuAb-KWs-unsplash.jpg","jeff-king-bJHWJeiHfHc-unsplash.jpg","1","1","135","122","","","","","","","","","","","","","","","","","","","","","","","","","","","",""
"","choice_confirmation","","html-keyboard-response","75","578335","0.0-59.0-2.0-0.0","0","0","yzPbe","Scenes","","null","","","null","","","","3","135","122","","","","","","","","","","","","","","","","","","","","","","","","","","","","","","","","","","","","","",""
"","fixation","","html-keyboard-response","76","579342","0.0-60.0-0.0","0","0","yzPbe","Scenes","","null","","","null","","","","","","","","","","","","","","","","","","","","","","","","","","","","","","","","","","","","","","","","","","","",""
"","deliberation","","html-keyboard-response","77","582150","0.0-60.0-1.0","0","0","yzPbe","Scenes","","2806","","","68","","","","4","129","111","0","1","68","66","kurt-cotoaga-cqbLg3lZEpk-unsplash.jpg","claudio-testa-U3F2o6vz3bs-unsplash.jpg","1","1","129","111","","","","","","","","","","","","","","","","","","","","","","","","","","","",""
"","choice_confirmation","","html-keyboard-response","78","582663","0.0-60.0-2.0-0.0","0","0","yzPbe","Scenes","","null","","","null","","","","4","129","111","","","","","","","","","","","","","","","","","","","","","","","","","","","","","","","","","","","","","",""
"","fixation","","html-keyboard-response","79","583672","0.0-61.0-0.0","0","0","yzPbe","Scenes","","null","","","null","","","","","","","","","","","","","","","","","","","","","","","","","","","","","","","","","","","","","","","","","","","",""
"","deliberation","","html-keyboard-response","80","585000","0.0-61.0-1.0","0","0","yzPbe","Scenes","","1326","","","75","","","","5","126","113","1","-1","65","79","jordan-mcqueen-PJCZOWuOxbU-unsplash.jpg","damian-denis-D8R_txR_0PE-unsplash.jpg","1","0","113","126","","","","","","","","","","","","","","","","","","","","","","","","","","","",""
"","choice_confirmation","","html-keyboard-response","81","585509","0.0-61.0-2.0-0.0","0","0","yzPbe","Scenes","","null","","","null","","","","5","126","113","","","","","","","","","","","","","","","","","","","","","","","","","","","","","","","","","","","","","",""
"","explain_trial","","survey-text","82","605857","0.0-61.0-5.0-0.0","0","0","yzPbe","Scenes","","20345","{""Q0"":""I like the empty space in this photo.\n""}","","","","","","5","126","113","","","","","","","","","","","{""Q0"":""I like the empty space in this photo.\n""}","","","","","","","","","","","","","","","","","","","","","","","","","","",""
"","fixation","","html-keyboard-response","83","606864","0.0-62.0-0.0","0","0","yzPbe","Scenes","","null","","","null","","","","","","","","","","","","","","","","","","","","","","","","","","","","","","","","","","","","","","","","","","","",""
"","deliberation","","html-keyboard-response","84","608597","0.0-62.0-1.0","0","0","yzPbe","Scenes","","1731","","","75","","","","6","142","100","1","-1","65","75","sergey-pesterev-y-b_FOmJXdg-unsplash.jpg","aleksandra-boguslawska-MS7KD9Ti7FQ-unsplash.jpg","1","0","100","142","","","","","","","","","","","","","","","","","","","","","","","","","","","",""
"","choice_confirmation","","html-keyboard-response","85","609110","0.0-62.0-2.0-0.0","0","0","yzPbe","Scenes","","null","","","null","","","","6","142","100","","","","","","","","","","","","","","","","","","","","","","","","","","","","","","","","","","","","","",""
"","explain_trial","","survey-text","86","622145","0.0-62.0-5.0-0.0","0","0","yzPbe","Scenes","","13032","{""Q0"":""It makes me think of childhood.""}","","","","","","6","142","100","","","","","","","","","","","{""Q0"":""It makes me think of childhood.""}","","","","","","","","","","","","","","","","","","","","","","","","","","",""
"","fixation","","html-keyboard-response","87","623150","0.0-63.0-0.0","0","0","yzPbe","Scenes","","null","","","null","","","","","","","","","","","","","","","","","","","","","","","","","","","","","","","","","","","","","","","","","","","",""
"","deliberation","","html-keyboard-response","88","625905","0.0-63.0-1.0","0","0","yzPbe","Scenes","","2753","","","68","","","","7","145","144","1","1","74","73","stephen-leonardi-gyIRjKPXupE-unsplash.jpg","solotravelgoals-7kLufxYoqWk-unsplash.jpg","1","1","145","144","","","","","","","","","","","","","","","","","","","","","","","","","","","",""
"","choice_confirmation","","html-keyboard-response","89","626427","0.0-63.0-2.0-0.0","0","0","yzPbe","Scenes","","null","","","null","","","","7","145","144","","","","","","","","","","","","","","","","","","","","","","","","","","","","","","","","","","","","","",""
"","explain_trial","","survey-text","90","638727","0.0-63.0-5.0-0.0","0","0","yzPbe","Scenes","","12298","{""Q0"":""I like the lighting in this photo.""}","","","","","","7","145","144","","","","","","","","","","","{""Q0"":""I like the lighting in this photo.""}","","","","","","","","","","","","","","","","","","","","","","","","","","",""
"","fixation","","html-keyboard-response","91","639740","0.0-64.0-0.0","0","0","yzPbe","Scenes","","null","","","null","","","","","","","","","","","","","","","","","","","","","","","","","","","","","","","","","","","","","","","","","","","",""
"","deliberation","","html-keyboard-response","92","642924","0.0-64.0-1.0","0","0","yzPbe","Scenes","","3182","","","75","","","","8","103","146","0","1","69","66","anton-darius-FBJugtbHsWU-unsplash.jpg","thomas-morse-cuKKa0vWZSY-unsplash.jpg","1","0","146","103","","","","","","","","","","","","","","","","","","","","","","","","","","","",""
"","choice_confirmation","","html-keyboard-response","93","643439","0.0-64.0-2.0-0.0","0","0","yzPbe","Scenes","","null","","","null","","","","8","103","146","","","","","","","","","","","","","","","","","","","","","","","","","","","","","","","","","","","","","",""
"","fixation","","html-keyboard-response","94","644451","0.0-65.0-0.0","0","0","yzPbe","Scenes","","null","","","null","","","","","","","","","","","","","","","","","","","","","","","","","","","","","","","","","","","","","","","","","","","",""
"","deliberation","","html-keyboard-response","95","646381","0.0-65.0-1.0","0","0","yzPbe","Scenes","","1928","","","75","","","","9","143","147","0","1","64","72","sigurdur-fjalar-jonsson-1KxBabIntpE-unsplash.jpg","tobias-keller-73F4pKoUkM0-unsplash.jpg","1","0","147","143","","","","","","","","","","","","","","","","","","","","","","","","","","","",""
"","choice_confirmation","","html-keyboard-response","96","646892","0.0-65.0-2.0-0.0","0","0","yzPbe","Scenes","","null","","","null","","","","9","143","147","","","","","","","","","","","","","","","","","","","","","","","","","","","","","","","","","","","","","",""
"","fixation","","html-keyboard-response","97","647905","0.0-66.0-0.0","0","0","yzPbe","Scenes","","null","","","null","","","","","","","","","","","","","","","","","","","","","","","","","","","","","","","","","","","","","","","","","","","",""
"","deliberation","","html-keyboard-response","98","649562","0.0-66.0-1.0","0","0","yzPbe","Scenes","","1655","","","75","","","","10","130","124","0","-1","70","72","lina-loos-04-C1NZk1hE-unsplash.jpg","johannes-plenio-sPt5RIjKfpk-unsplash.jpg","1","0","124","130","","","","","","","","","","","","","","","","","","","","","","","","","","","",""
"","choice_confirmation","","html-keyboard-response","99","650071","0.0-66.0-2.0-0.0","0","0","yzPbe","Scenes","","null","","","null","","","","10","130","124","","","","","","","","","","","","","","","","","","","","","","","","","","","","","","","","","","","","","",""
"","fixation","","html-keyboard-response","100","651091","0.0-67.0-0.0","0","0","yzPbe","Scenes","","null","","","null","","","","","","","","","","","","","","","","","","","","","","","","","","","","","","","","","","","","","","","","","","","",""
"","deliberation","","html-keyboard-response","101","653667","0.0-67.0-1.0","0","0","yzPbe","Scenes","","2574","","","68","","","","11","127","139","0","-1","66","74","kace-rodriguez-p3OzJuT_Dks-unsplash.jpg","samsommer-vddccTqwal8-unsplash.jpg","1","1","127","139","","","","","","","","","","","","","","","","","","","","","","","","","","","",""
"","choice_confirmation","","html-keyboard-response","102","654177","0.0-67.0-2.0-0.0","0","0","yzPbe","Scenes","","null","","","null","","","","11","127","139","","","","","","","","","","","","","","","","","","","","","","","","","","","","","","","","","","","","","",""
"","practice_deliberation_again","","html-keyboard-response","103","656603","0.0-67.0-6.0-0.0","0","0","yzPbe","Scenes","","2425","","","78","","","","","","","","","","","","","","","","","","","","","","","","","","","","","","","","","","","","","","","","","","","",""
"","fixation","","html-keyboard-response","104","657616","0.0-68.0-0.0","0","0","yzPbe","Scenes","","null","","","null","","","","","","","","","","","","","","","","","","","","","","","","","","","","","","","","","","","","","","","","","","","",""
"","deliberation","","html-keyboard-response","105","658576","0.0-68.0-1.0","0","0","yzPbe","Scenes","","957","","","75","","","","12","126","113","0","-1","65","79","jordan-mcqueen-PJCZOWuOxbU-unsplash.jpg","damian-denis-D8R_txR_0PE-unsplash.jpg","2","0","113","126","","","","","","","","","","","","","","","","","","","","","","","","","","","",""
"","choice_confirmation","","html-keyboard-response","106","659085","0.0-68.0-2.0-0.0","0","0","yzPbe","Scenes","","null","","","null","","","","12","126","113","","","","","","","","","","","","","","","","","","","","","","","","","","","","","","","","","","","","","",""
"","fixation","","html-keyboard-response","107","660096","0.0-69.0-0.0","0","0","yzPbe","Scenes","","null","","","null","","","","","","","","","","","","","","","","","","","","","","","","","","","","","","","","","","","","","","","","","","","",""
"","deliberation","","html-keyboard-response","108","661154","0.0-69.0-1.0","0","0","yzPbe","Scenes","","1056","","","68","","","","13","127","139","1","-1","66","74","kace-rodriguez-p3OzJuT_Dks-unsplash.jpg","samsommer-vddccTqwal8-unsplash.jpg","2","1","127","139","","","","","","","","","","","","","","","","","","","","","","","","","","","",""
"","choice_confirmation","","html-keyboard-response","109","661668","0.0-69.0-2.0-0.0","0","0","yzPbe","Scenes","","null","","","null","","","","13","127","139","","","","","","","","","","","","","","","","","","","","","","","","","","","","","","","","","","","","","",""
"","explain_trial","","survey-text","110","680079","0.0-69.0-5.0-0.0","0","0","yzPbe","Scenes","","18407","{""Q0"":""It's a nice looking photo.""}","","","","","","13","127","139","","","","","","","","","","","{""Q0"":""It's a nice looking photo.""}","","","","","","","","","","","","","","","","","","","","","","","","","","",""
"","fixation","","html-keyboard-response","111","681089","0.0-70.0-0.0","0","0","yzPbe","Scenes","","null","","","null","","","","","","","","","","","","","","","","","","","","","","","","","","","","","","","","","","","","","","","","","","","",""
"","deliberation","","html-keyboard-response","112","682489","0.0-70.0-1.0","0","0","yzPbe","Scenes","","1398","","","75","","","","14","130","124","1","-1","70","72","lina-loos-04-C1NZk1hE-unsplash.jpg","johannes-plenio-sPt5RIjKfpk-unsplash.jpg","2","0","124","130","","","","","","","","","","","","","","","","","","","","","","","","","","","",""
"","choice_confirmation","","html-keyboard-response","113","682996","0.0-70.0-2.0-0.0","0","0","yzPbe","Scenes","","null","","","null","","","","14","130","124","","","","","","","","","","","","","","","","","","","","","","","","","","","","","","","","","","","","","",""
"","explain_trial","","survey-text","114","696539","0.0-70.0-5.0-0.0","0","0","yzPbe","Scenes","","13541","{""Q0"":""I like the lighting of this photo.""}","","","","","","14","130","124","","","","","","","","","","","{""Q0"":""I like the lighting of this photo.""}","","","","","","","","","","","","","","","","","","","","","","","","","","",""
"","fixation","","html-keyboard-response","115","697549","0.0-71.0-0.0","0","0","yzPbe","Scenes","","null","","","null","","","","","","","","","","","","","","","","","","","","","","","","","","","","","","","","","","","","","","","","","","","",""
"","deliberation","","html-keyboard-response","116","699454","0.0-71.0-1.0","0","0","yzPbe","Scenes","","1903","","","68","","","","15","101","110","0","1","71","73","aniket-deole-T-tOgjWZ0fQ-unsplash.jpg","bruno-van-der-kraan-qez8mNJ3ilU-unsplash.jpg","2","1","101","110","","","","","","","","","","","","","","","","","","","","","","","","","","","",""
"","choice_confirmation","","html-keyboard-response","117","699963","0.0-71.0-2.0-0.0","0","0","yzPbe","Scenes","","null","","","null","","","","15","101","110","","","","","","","","","","","","","","","","","","","","","","","","","","","","","","","","","","","","","",""
"","fixation","","html-keyboard-response","118","700979","0.0-72.0-0.0","0","0","yzPbe","Scenes","","null","","","null","","","","","","","","","","","","","","","","","","","","","","","","","","","","","","","","","","","","","","","","","","","",""
"","deliberation","","html-keyboard-response","119","703304","0.0-72.0-1.0","0","0","yzPbe","Scenes","","2323","","","68","","","","16","129","111","1","1","68","66","kurt-cotoaga-cqbLg3lZEpk-unsplash.jpg","claudio-testa-U3F2o6vz3bs-unsplash.jpg","2","1","129","111","","","","","","","","","","","","","","","","","","","","","","","","","","","",""
"","choice_confirmation","","html-keyboard-response","120","703826","0.0-72.0-2.0-0.0","0","0","yzPbe","Scenes","","null","","","null","","","","16","129","111","","","","","","","","","","","","","","","","","","","","","","","","","","","","","","","","","","","","","",""
"","explain_trial","","survey-text","121","715442","0.0-72.0-5.0-0.0","0","0","yzPbe","Scenes","","11614","{""Q0"":""I like the mountains in this photo.""}","","","","","","16","129","111","","","","","","","","","","","{""Q0"":""I like the mountains in this photo.""}","","","","","","","","","","","","","","","","","","","","","","","","","","",""
"","fixation","","html-keyboard-response","122","716455","0.0-73.0-0.0","0","0","yzPbe","Scenes","","null","","","null","","","","","","","","","","","","","","","","","","","","","","","","","","","","","","","","","","","","","","","","","","","",""
"","deliberation","","html-keyboard-response","123","718350","0.0-73.0-1.0","0","0","yzPbe","Scenes","","1893","","","75","","","","17","134","116","0","-1","72","69","milada-vigerova-pQMM63GE7fo-unsplash.jpg","david-marcu-W5MhJ6cy1So-unsplash.jpg","2","0","116","134","","","","","","","","","","","","","","","","","","","","","","","","","","","",""
"","choice_confirmation","","html-keyboard-response","124","718860","0.0-73.0-2.0-0.0","0","0","yzPbe","Scenes","","null","","","null","","","","17","134","116","","","","","","","","","","","","","","","","","","","","","","","","","","","","","","","","","","","","","",""
"","fixation","","html-keyboard-response","125","719873","0.0-74.0-0.0","0","0","yzPbe","Scenes","","null","","","null","","","","","","","","","","","","","","","","","","","","","","","","","","","","","","","","","","","","","","","","","","","",""
"","deliberation","","html-keyboard-response","126","722311","0.0-74.0-1.0","0","0","yzPbe","Scenes","","2436","","","75","","","","18","143","147","1","1","64","72","sigurdur-fjalar-jonsson-1KxBabIntpE-unsplash.jpg","tobias-keller-73F4pKoUkM0-unsplash.jpg","2","0","147","143","","","","","","","","","","","","","","","","","","","","","","","","","","","",""
"","choice_confirmation","","html-keyboard-response","127","722830","0.0-74.0-2.0-0.0","0","0","yzPbe","Scenes","","null","","","null","","","","18","143","147","","","","","","","","","","","","","","","","","","","","","","","","","","","","","","","","","","","","","",""
"","explain_trial","","survey-text","128","732258","0.0-74.0-5.0-0.0","0","0","yzPbe","Scenes","","9425","{""Q0"":""I like the colors of this photo.""}","","","","","","18","143","147","","","","","","","","","","","{""Q0"":""I like the colors of this photo.""}","","","","","","","","","","","","","","","","","","","","","","","","","","",""
"","fixation","","html-keyboard-response","129","733266","0.0-75.0-0.0","0","0","yzPbe","Scenes","","null","","","null","","","","","","","","","","","","","","","","","","","","","","","","","","","","","","","","","","","","","","","","","","","",""
"","deliberation","","html-keyboard-response","130","735796","0.0-75.0-1.0","0","0","yzPbe","Scenes","","2528","","","75","","","","19","119","128","0","1","74","66","james-wheeler-AFC0XvICMgs-unsplash.jpg","karsten-wurth-jS0zC2PJ17A-unsplash.jpg","2","0","128","119","","","","","","","","","","","","","","","","","","","","","","","","","","","",""
"","choice_confirmation","","html-keyboard-response","131","736307","0.0-75.0-2.0-0.0","0","0","yzPbe","Scenes","","null","","","null","","","","19","119","128","","","","","","","","","","","","","","","","","","","","","","","","","","","","","","","","","","","","","",""
"","fixation","","html-keyboard-response","132","737320","0.0-76.0-0.0","0","0","yzPbe","Scenes","","null","","","null","","","","","","","","","","","","","","","","","","","","","","","","","","","","","","","","","","","","","","","","","","","",""
"","deliberation","","html-keyboard-response","133","740044","0.0-76.0-1.0","0","0","yzPbe","Scenes","","2722","","","75","","","","20","103","146","1","1","69","66","anton-darius-FBJugtbHsWU-unsplash.jpg","thomas-morse-cuKKa0vWZSY-unsplash.jpg","2","0","146","103","","","","","","","","","","","","","","","","","","","","","","","","","","","",""
"","choice_confirmation","","html-keyboard-response","134","740552","0.0-76.0-2.0-0.0","0","0","yzPbe","Scenes","","null","","","null","","","","20","103","146","","","","","","","","","","","","","","","","","","","","","","","","","","","","","","","","","","","","","",""
"","explain_trial","","survey-text","135","752101","0.0-76.0-5.0-0.0","0","0","yzPbe","Scenes","","11547","{""Q0"":""I like the colors of this photo.""}","","","","","","20","103","146","","","","","","","","","","","{""Q0"":""I like the colors of this photo.""}","","","","","","","","","","","","","","","","","","","","","","","","","","",""
"","fixation","","html-keyboard-response","136","753122","0.0-77.0-0.0","0","0","yzPbe","Scenes","","null","","","null","","","","","","","","","","","","","","","","","","","","","","","","","","","","","","","","","","","","","","","","","","","",""
"","deliberation","","html-keyboard-response","137","754426","0.0-77.0-1.0","0","0","yzPbe","Scenes","","1302","","","75","","","","21","142","100","0","-1","65","75","sergey-pesterev-y-b_FOmJXdg-unsplash.jpg","aleksandra-boguslawska-MS7KD9Ti7FQ-unsplash.jpg","2","0","100","142","","","","","","","","","","","","","","","","","","","","","","","","","","","",""
"","choice_confirmation","","html-keyboard-response","138","754936","0.0-77.0-2.0-0.0","0","0","yzPbe","Scenes","","null","","","null","","","","21","142","100","","","","","","","","","","","","","","","","","","","","","","","","","","","","","","","","","","","","","",""
"","fixation","","html-keyboard-response","139","755956","0.0-78.0-0.0","0","0","yzPbe","Scenes","","null","","","null","","","","","","","","","","","","","","","","","","","","","","","","","","","","","","","","","","","","","","","","","","","",""
"","deliberation","","html-keyboard-response","140","756874","0.0-78.0-1.0","0","0","yzPbe","Scenes","","917","","","75","","","","22","135","122","1","-1","72","66","mohammad-alizade-4wzRuAb-KWs-unsplash.jpg","jeff-king-bJHWJeiHfHc-unsplash.jpg","2","0","122","135","","","","","","","","","","","","","","","","","","","","","","","","","","","",""
"","choice_confirmation","","html-keyboard-response","141","757396","0.0-78.0-2.0-0.0","0","0","yzPbe","Scenes","","null","","","null","","","","22","135","122","","","","","","","","","","","","","","","","","","","","","","","","","","","","","","","","","","","","","",""
"","explain_trial","","survey-text","142","773185","0.0-78.0-5.0-0.0","0","0","yzPbe","Scenes","","15786","{""Q0"":""I like the empty space in this photo.""}","","","","","","22","135","122","","","","","","","","","","","{""Q0"":""I like the empty space in this photo.""}","","","","","","","","","","","","","","","","","","","","","","","","","","",""
"","fixation","","html-keyboard-response","143","774191","0.0-79.0-0.0","0","0","yzPbe","Scenes","","null","","","null","","","","","","","","","","","","","","","","","","","","","","","","","","","","","","","","","","","","","","","","","","","",""
"","deliberation","","html-keyboard-response","144","775594","0.0-79.0-1.0","0","0","yzPbe","Scenes","","1401","","","68","","","","23","145","144","0","1","74","73","stephen-leonardi-gyIRjKPXupE-unsplash.jpg","solotravelgoals-7kLufxYoqWk-unsplash.jpg","2","1","145","144","","","","","","","","","","","","","","","","","","","","","","","","","","","",""
"","choice_confirmation","","html-keyboard-response","145","776116","0.0-79.0-2.0-0.0","0","0","yzPbe","Scenes","","null","","","null","","","","23","145","144","","","","","","","","","","","","","","","","","","","","","","","","","","","","","","","","","","","","","",""
"","start_critical_deliberation_block","","html-keyboard-response","146","777870","0.0-79.0-7.0-0.0","0","0","yzPbe","Scenes","","1753","","","78","","","","","","","","","","","","","","","","","","","","","","","","","","","","","","","","","","","","","","","","","","","",""
"","fixation","","html-keyboard-response","147","778884","0.0-80.0-0.0","0","0","yzPbe","Scenes","","null","","","null","","","","","","","","","","","","","","","","","","","","","","","","","","","","","","","","","","","","","","","","","","","",""
"","deliberation","","html-keyboard-response","148","780523","0.0-80.0-1.0","0","0","yzPbe","Scenes","","1635","","","75","","","","24","119","128","0","1","74","66","james-wheeler-AFC0XvICMgs-unsplash.jpg","karsten-wurth-jS0zC2PJ17A-unsplash.jpg","3","0","128","119","","","","","","","","","","","","","","","","","","","","","","","","","","","",""
"","choice_confirmation","","html-keyboard-response","149","781040","0.0-80.0-2.0-0.0","0","0","yzPbe","Scenes","","null","","","null","","","","24","119","128","","","","","","","","","","","","","","","","","","","","","","","","","","","","","","","","","","","","","",""
"","fixation","","html-keyboard-response","150","782050","0.0-81.0-0.0","0","0","yzPbe","Scenes","","null","","","null","","","","","","","","","","","","","","","","","","","","","","","","","","","","","","","","","","","","","","","","","","","",""
"","deliberation","","html-keyboard-response","151","783148","0.0-81.0-1.0","0","0","yzPbe","Scenes","","1095","","","68","","","","25","127","139","0","-1","66","74","kace-rodriguez-p3OzJuT_Dks-unsplash.jpg","samsommer-vddccTqwal8-unsplash.jpg","3","1","127","139","","","","","","","","","","","","","","","","","","","","","","","","","","","",""
"","choice_confirmation","","html-keyboard-response","152","783659","0.0-81.0-2.0-0.0","0","0","yzPbe","Scenes","","null","","","null","","","","25","127","139","","","","","","","","","","","","","","","","","","","","","","","","","","","","","","","","","","","","","",""
"","fixation","","html-keyboard-response","153","784673","0.0-82.0-0.0","0","0","yzPbe","Scenes","","null","","","null","","","","","","","","","","","","","","","","","","","","","","","","","","","","","","","","","","","","","","","","","","","",""
"","deliberation","","html-keyboard-response","154","786412","0.0-82.0-1.0","0","0","yzPbe","Scenes","","1737","","","75","","","","26","103","146","0","1","69","66","anton-darius-FBJugtbHsWU-unsplash.jpg","thomas-morse-cuKKa0vWZSY-unsplash.jpg","3","0","146","103","","","","","","","","","","","","","","","","","","","","","","","","","","","",""
"","choice_confirmation","","html-keyboard-response","155","786926","0.0-82.0-2.0-0.0","0","0","yzPbe","Scenes","","null","","","null","","","","26","103","146","","","","","","","","","","","","","","","","","","","","","","","","","","","","","","","","","","","","","",""
"","fixation","","html-keyboard-response","156","787946","0.0-83.0-0.0","0","0","yzPbe","Scenes","","null","","","null","","","","","","","","","","","","","","","","","","","","","","","","","","","","","","","","","","","","","","","","","","","",""
"","deliberation","","html-keyboard-response","157","790149","0.0-83.0-1.0","0","0","yzPbe","Scenes","","2201","","","75","","","","27","143","147","0","1","64","72","sigurdur-fjalar-jonsson-1KxBabIntpE-unsplash.jpg","tobias-keller-73F4pKoUkM0-unsplash.jpg","3","0","147","143","","","","","","","","","","","","","","","","","","","","","","","","","","","",""
"","choice_confirmation","","html-keyboard-response","158","790660","0.0-83.0-2.0-0.0","0","0","yzPbe","Scenes","","null","","","null","","","","27","143","147","","","","","","","","","","","","","","","","","","","","","","","","","","","","","","","","","","","","","",""
"","fixation","","html-keyboard-response","159","791679","0.0-84.0-0.0","0","0","yzPbe","Scenes","","null","","","null","","","","","","","","","","","","","","","","","","","","","","","","","","","","","","","","","","","","","","","","","","","",""
"","deliberation","","html-keyboard-response","160","792479","0.0-84.0-1.0","0","0","yzPbe","Scenes","","798","","","75","","","","28","142","100","0","-1","65","75","sergey-pesterev-y-b_FOmJXdg-unsplash.jpg","aleksandra-boguslawska-MS7KD9Ti7FQ-unsplash.jpg","3","0","100","142","","","","","","","","","","","","","","","","","","","","","","","","","","","",""
"","choice_confirmation","","html-keyboard-response","161","792995","0.0-84.0-2.0-0.0","0","0","yzPbe","Scenes","","null","","","null","","","","28","142","100","","","","","","","","","","","","","","","","","","","","","","","","","","","","","","","","","","","","","",""
"","fixation","","html-keyboard-response","162","794015","0.0-85.0-0.0","0","0","yzPbe","Scenes","","null","","","null","","","","","","","","","","","","","","","","","","","","","","","","","","","","","","","","","","","","","","","","","","","",""
"","deliberation","","html-keyboard-response","163","796062","0.0-85.0-1.0","0","0","yzPbe","Scenes","","2044","","","68","","","","29","145","144","0","1","74","73","stephen-leonardi-gyIRjKPXupE-unsplash.jpg","solotravelgoals-7kLufxYoqWk-unsplash.jpg","3","1","145","144","","","","","","","","","","","","","","","","","","","","","","","","","","","",""
"","choice_confirmation","","html-keyboard-response","164","796574","0.0-85.0-2.0-0.0","0","0","yzPbe","Scenes","","null","","","null","","","","29","145","144","","","","","","","","","","","","","","","","","","","","","","","","","","","","","","","","","","","","","",""
"","fixation","","html-keyboard-response","165","797585","0.0-86.0-0.0","0","0","yzPbe","Scenes","","null","","","null","","","","","","","","","","","","","","","","","","","","","","","","","","","","","","","","","","","","","","","","","","","",""
"","deliberation","","html-keyboard-response","166","798984","0.0-86.0-1.0","0","0","yzPbe","Scenes","","1396","","","68","","","","30","101","110","0","1","71","73","aniket-deole-T-tOgjWZ0fQ-unsplash.jpg","bruno-van-der-kraan-qez8mNJ3ilU-unsplash.jpg","3","1","101","110","","","","","","","","","","","","","","","","","","","","","","","","","","","",""
"","choice_confirmation","","html-keyboard-response","167","799491","0.0-86.0-2.0-0.0","0","0","yzPbe","Scenes","","null","","","null","","","","30","101","110","","","","","","","","","","","","","","","","","","","","","","","","","","","","","","","","","","","","","",""
"","fixation","","html-keyboard-response","168","800506","0.0-87.0-0.0","0","0","yzPbe","Scenes","","null","","","null","","","","","","","","","","","","","","","","","","","","","","","","","","","","","","","","","","","","","","","","","","","",""
"","deliberation","","html-keyboard-response","169","801295","0.0-87.0-1.0","0","0","yzPbe","Scenes","","787","","","75","","","","31","135","122","0","-1","72","66","mohammad-alizade-4wzRuAb-KWs-unsplash.jpg","jeff-king-bJHWJeiHfHc-unsplash.jpg","3","0","122","135","","","","","","","","","","","","","","","","","","","","","","","","","","","",""
"","choice_confirmation","","html-keyboard-response","170","801806","0.0-87.0-2.0-0.0","0","0","yzPbe","Scenes","","null","","","null","","","","31","135","122","","","","","","","","","","","","","","","","","","","","","","","","","","","","","","","","","","","","","",""
"","fixation","","html-keyboard-response","171","802825","0.0-88.0-0.0","0","0","yzPbe","Scenes","","null","","","null","","","","","","","","","","","","","","","","","","","","","","","","","","","","","","","","","","","","","","","","","","","",""
"","deliberation","","html-keyboard-response","172","803590","0.0-88.0-1.0","0","0","yzPbe","Scenes","","763","","","75","","","","32","126","113","0","-1","65","79","jordan-mcqueen-PJCZOWuOxbU-unsplash.jpg","damian-denis-D8R_txR_0PE-unsplash.jpg","3","0","113","126","","","","","","","","","","","","","","","","","","","","","","","","","","","",""
"","choice_confirmation","","html-keyboard-response","173","804102","0.0-88.0-2.0-0.0","0","0","yzPbe","Scenes","","null","","","null","","","","32","126","113","","","","","","","","","","","","","","","","","","","","","","","","","","","","","","","","","","","","","",""
"","fixation","","html-keyboard-response","174","805118","0.0-89.0-0.0","0","0","yzPbe","Scenes","","null","","","null","","","","","","","","","","","","","","","","","","","","","","","","","","","","","","","","","","","","","","","","","","","",""
"","deliberation","","html-keyboard-response","175","806566","0.0-89.0-1.0","0","0","yzPbe","Scenes","","1446","","","75","","","","33","134","116","0","-1","72","69","milada-vigerova-pQMM63GE7fo-unsplash.jpg","david-marcu-W5MhJ6cy1So-unsplash.jpg","3","0","116","134","","","","","","","","","","","","","","","","","","","","","","","","","","","",""
"","choice_confirmation","","html-keyboard-response","176","807073","0.0-89.0-2.0-0.0","0","0","yzPbe","Scenes","","null","","","null","","","","33","134","116","","","","","","","","","","","","","","","","","","","","","","","","","","","","","","","","","","","","","",""
"","fixation","","html-keyboard-response","177","808085","0.0-90.0-0.0","0","0","yzPbe","Scenes","","null","","","null","","","","","","","","","","","","","","","","","","","","","","","","","","","","","","","","","","","","","","","","","","","",""
"","deliberation","","html-keyboard-response","178","809130","0.0-90.0-1.0","0","0","yzPbe","Scenes","","1043","","","68","","","","34","129","111","0","1","68","66","kurt-cotoaga-cqbLg3lZEpk-unsplash.jpg","claudio-testa-U3F2o6vz3bs-unsplash.jpg","3","1","129","111","","","","","","","","","","","","","","","","","","","","","","","","","","","",""
"","choice_confirmation","","html-keyboard-response","179","809644","0.0-90.0-2.0-0.0","0","0","yzPbe","Scenes","","null","","","null","","","","34","129","111","","","","","","","","","","","","","","","","","","","","","","","","","","","","","","","","","","","","","",""
"","fixation","","html-keyboard-response","180","810665","0.0-91.0-0.0","0","0","yzPbe","Scenes","","null","","","null","","","","","","","","","","","","","","","","","","","","","","","","","","","","","","","","","","","","","","","","","","","",""
"","deliberation","","html-keyboard-response","181","811615","0.0-91.0-1.0","0","0","yzPbe","Scenes","","948","","","75","","","","35","130","124","0","-1","70","72","lina-loos-04-C1NZk1hE-unsplash.jpg","johannes-plenio-sPt5RIjKfpk-unsplash.jpg","3","0","124","130","","","","","","","","","","","","","","","","","","","","","","","","","","","",""
"","choice_confirmation","","html-keyboard-response","182","812136","0.0-91.0-2.0-0.0","0","0","yzPbe","Scenes","","null","","","null","","","","35","130","124","","","","","","","","","","","","","","","","","","","","","","","","","","","","","","","","","","","","","",""
"","reward_learning_instructions","","instructions","183","888070","0.0-92.0-0.0","0","0","yzPbe","Scenes","[{""page_index"":0,""viewing_time"":27947},{""page_index"":1,""viewing_time"":46236},{""page_index"":2,""viewing_time"":1749}]","75933","","","","","","","","","","","","","","","","","","","","","","","","","","","","","","","","","","","","","","","","","","","","","","",""
"","reward_comprehension_check","","survey-multi-choice","184","908441","0.0-92.0-1.0","0","0","yzPbe","Scenes","","20366","{""Q0"":""True"",""Q1"":""True"",""Q2"":""Press the space bar to see its outcome"",""Q3"":""Press the relevant key while the outcome is presented""}","0","","","","","","","","","","","","","","","","","","","","","","","","","","","","","","","","","","","","","","","","","","","","",""
"","start_phase","","html-keyboard-response","185","910801","0.0-93.0","0","0","yzPbe","Scenes","","2355","","","78","","","","","","","","","","","","","","","","","","","","","","","","","","","","","","","","","","","","","","","","","","","",""
"","fixation","","html-keyboard-response","186","911809","0.0-94.0","0","0","yzPbe","Scenes","","null","","","null","","","","","","","","","","","","","","","","","","","","","","","","","","","","","","","","","","","","","","","","","","","",""
"","see_reward","","html-keyboard-response","187","913593","0.0-95.0","0","0","yzPbe","Scenes","","1782","","","32","","147","","0","","","","1","","","","","1","","","","","143","1782","","","","","","","","","","","","","","","","","","","","","","","","",""
"","reward_outcome","","html-keyboard-response","188","915601","0.0-96.0","0","0","yzPbe","Scenes","","1310","","","38","","147","","0","","","","","","","","","","","","","","","","1","1310","","","","","","","","","","","","","","","","","","","","","","",""
"","fixation","","html-keyboard-response","189","916615","0.0-99.0","0","0","yzPbe","Scenes","","null","","","null","","","","","","","","","","","","","","","","","","","","","","","","","","","","","","","","","","","","","","","","","","","",""
"","see_reward","","html-keyboard-response","190","917330","0.0-100.0","0","0","yzPbe","Scenes","","713","","","32","","100","","1","","","","-1","","","","","1","","","","","0","713","","","","","","","","","","","","","","","","","","","","","","","","",""
"","reward_outcome","","html-keyboard-response","191","919346","0.0-101.0","0","0","yzPbe","Scenes","","1002","","","40","","100","","1","","","","","","","","","","","","","","","","-1","1002","","","","","","","","","","","","","","","","","","","","","","",""
"","fixation","","html-keyboard-response","192","920358","0.0-104.0","0","0","yzPbe","Scenes","","null","","","null","","","","","","","","","","","","","","","","","","","","","","","","","","","","","","","","","","","","","","","","","","","",""
"","see_reward","","html-keyboard-response","193","921004","0.0-105.0","0","0","yzPbe","Scenes","","644","","","32","","122","","2","","","","-1","","","","","1","","","","","0","644","","","","","","","","","","","","","","","","","","","","","","","","",""
"","reward_outcome","","html-keyboard-response","194","923025","0.0-106.0","0","0","yzPbe","Scenes","","886","","","40","","122","","2","","","","","","","","","","","","","","","","-1","886","","","","","","","","","","","","","","","","","","","","","","",""
"","fixation","","html-keyboard-response","195","924039","0.0-109.0","0","0","yzPbe","Scenes","","null","","","null","","","","","","","","","","","","","","","","","","","","","","","","","","","","","","","","","","","","","","","","","","","",""
"","see_reward","","html-keyboard-response","196","924626","0.0-110.0","0","0","yzPbe","Scenes","","585","","","32","","116","","3","","","","-1","","","","","1","","","","","0","585","","","","","","","","","","","","","","","","","","","","","","","","",""
"","reward_outcome","","html-keyboard-response","197","926642","0.0-111.0","0","0","yzPbe","Scenes","","null","","","null","","116","","3","","","","","","","","","","","","","","","","NaN","null","","","","","","","","","","","","","","","","","","","","","","",""
"","respond_faster","","html-keyboard-response","198","928157","0.0-112.0-0.0","1","0","yzPbe","Scenes","","null","","","null","","","","","","","","","","","","","","","","","","","","","","","","","","","","","","","","","","","","","","","","","","","",""
"","fixation","","html-keyboard-response","199","929176","0.0-114.0","0","0","yzPbe","Scenes","","null","","","null","","","","","","","","","","","","","","","","","","","","","","","","","","","","","","","","","","","","","","","","","","","",""
"","see_reward","","html-keyboard-response","200","929381","0.0-115.0","0","0","yzPbe","Scenes","","203","","","32","","113","","4","","","","-1","","","","","1","","","","","0","203","","","","","","","","","","","","","","","","","","","","","","","","",""
"","reward_outcome","","html-keyboard-response","201","931390","0.0-116.0","0","0","yzPbe","Scenes","","813","","","40","","113","","4","","","","","","","","","","","","","","","","-1","813","","","","","","","","","","","","","","","","","","","","","","",""
"","fixation","","html-keyboard-response","202","932411","0.0-119.0","0","0","yzPbe","Scenes","","null","","","null","","","","","","","","","","","","","","","","","","","","","","","","","","","","","","","","","","","","","","","","","","","",""
"","see_reward","","html-keyboard-response","203","932910","0.0-120.0","0","0","yzPbe","Scenes","","497","","","32","","127","","5","","","","-1","","","","","1","","","","","0","497","","","","","","","","","","","","","","","","","","","","","","","","",""
"","reward_outcome","","html-keyboard-response","204","934919","0.0-121.0","0","0","yzPbe","Scenes","","605","","","40","","127","","5","","","","","","","","","","","","","","","","-1","605","","","","","","","","","","","","","","","","","","","","","","",""
"","fixation","","html-keyboard-response","205","935934","0.0-124.0","0","0","yzPbe","Scenes","","null","","","null","","","","","","","","","","","","","","","","","","","","","","","","","","","","","","","","","","","","","","","","","","","",""
"","see_reward","","html-keyboard-response","206","936632","0.0-125.0","0","0","yzPbe","Scenes","","696","","","32","","146","","6","","","","1","","","","","1","","","","","150","696","","","","","","","","","","","","","","","","","","","","","","","","",""
"","reward_outcome","","html-keyboard-response","207","938641","0.0-126.0","0","0","yzPbe","Scenes","","877","","","38","","146","","6","","","","","","","","","","","","","","","","1","877","","","","","","","","","","","","","","","","","","","","","","",""
"","fixation","","html-keyboard-response","208","939652","0.0-129.0","0","0","yzPbe","Scenes","","null","","","null","","","","","","","","","","","","","","","","","","","","","","","","","","","","","","","","","","","","","","","","","","","",""
"","see_reward","","html-keyboard-response","209","940211","0.0-130.0","0","0","yzPbe","Scenes","","557","","","32","","129","","7","","","","1","","","","","1","","","","","146","557","","","","","","","","","","","","","","","","","","","","","","","","",""
"","reward_outcome","","html-keyboard-response","210","942217","0.0-131.0","0","0","yzPbe","Scenes","","1220","","","38","","129","","7","","","","","","","","","","","","","","","","1","1220","","","","","","","","","","","","","","","","","","","","","","",""
"","fixation","","html-keyboard-response","211","943228","0.0-134.0","0","0","yzPbe","Scenes","","null","","","null","","","","","","","","","","","","","","","","","","","","","","","","","","","","","","","","","","","","","","","","","","","",""
"","see_reward","","html-keyboard-response","212","943816","0.0-135.0","0","0","yzPbe","Scenes","","586","","","32","","147","","8","","","","1","","","","","1","","","","","143","586","","","","","","","","","","","","","","","","","","","","","","","","",""
"","reward_outcome","","html-keyboard-response","213","945820","0.0-136.0","0","0","yzPbe","Scenes","","758","","","38","","147","","8","","","","","","","","","","","","","","","","1","758","","","","","","","","","","","","","","","","","","","","","","",""
"","fixation","","html-keyboard-response","214","946836","0.0-139.0","0","0","yzPbe","Scenes","","null","","","null","","","","","","","","","","","","","","","","","","","","","","","","","","","","","","","","","","","","","","","","","","","",""
"","see_reward","","html-keyboard-response","215","948064","0.0-140.0","0","0","yzPbe","Scenes","","1226","","","32","","145","","9","","","","1","","","","","1","","","","","145","1226","","","","","","","","","","","","","","","","","","","","","","","","",""
"","reward_outcome","","html-keyboard-response","216","950070","0.0-141.0","0","0","yzPbe","Scenes","","655","","","38","","145","","9","","","","","","","","","","","","","","","","1","655","","","","","","","","","","","","","","","","","","","","","","",""
"","fixation","","html-keyboard-response","217","951089","0.0-144.0","0","0","yzPbe","Scenes","","null","","","null","","","","","","","","","","","","","","","","","","","","","","","","","","","","","","","","","","","","","","","","","","","",""
"","see_reward","","html-keyboard-response","218","951568","0.0-145.0","0","0","yzPbe","Scenes","","477","","","32","","122","","10","","","","-1","","","","","1","","","","","0","477","","","","","","","","","","","","","","","","","","","","","","","","",""
"","reward_outcome","","html-keyboard-response","219","953573","0.0-146.0","0","0","yzPbe","Scenes","","832","","","40","","122","","10","","","","","","","","","","","","","","","","-1","832","","","","","","","","","","","","","","","","","","","","","","",""
"","fixation","","html-keyboard-response","220","954589","0.0-149.0","0","0","yzPbe","Scenes","","null","","","null","","","","","","","","","","","","","","","","","","","","","","","","","","","","","","","","","","","","","","","","","","","",""
"","see_reward","","html-keyboard-response","221","955120","0.0-150.0","0","0","yzPbe","Scenes","","529","","","32","","101","","11","","","","1","","","","","1","","","","","143","529","","","","","","","","","","","","","","","","","","","","","","","","",""
"","reward_outcome","","html-keyboard-response","222","957125","0.0-151.0","0","0","yzPbe","Scenes","","903","","","38","","101","","11","","","","","","","","","","","","","","","","1","903","","","","","","","","","","","","","","","","","","","","","","",""
"","fixation","","html-keyboard-response","223","958140","0.0-154.0","0","0","yzPbe","Scenes","","null","","","null","","","","","","","","","","","","","","","","","","","","","","","","","","","","","","","","","","","","","","","","","","","",""
"","see_reward","","html-keyboard-response","224","958718","0.0-155.0","0","0","yzPbe","Scenes","","576","","","32","","100","","12","","","","-1","","","","","1","","","","","0","576","","","","","","","","","","","","","","","","","","","","","","","","",""
"","reward_outcome","","html-keyboard-response","225","960729","0.0-156.0","0","0","yzPbe","Scenes","","1165","","","40","","100","","12","","","","","","","","","","","","","","","","-1","1165","","","","","","","","","","","","","","","","","","","","","","",""
"","fixation","","html-keyboard-response","226","961739","0.0-159.0","0","0","yzPbe","Scenes","","null","","","null","","","","","","","","","","","","","","","","","","","","","","","","","","","","","","","","","","","","","","","","","","","",""
"","see_reward","","html-keyboard-response","227","962425","0.0-160.0","0","0","yzPbe","Scenes","","684","","","32","","146","","13","","","","1","","","","","1","","","","","150","684","","","","","","","","","","","","","","","","","","","","","","","","",""
"","reward_outcome","","html-keyboard-response","228","964443","0.0-161.0","0","0","yzPbe","Scenes","","783","","","38","","146","","13","","","","","","","","","","","","","","","","1","783","","","","","","","","","","","","","","","","","","","","","","",""
"","fixation","","html-keyboard-response","229","965458","0.0-164.0","0","0","yzPbe","Scenes","","null","","","null","","","","","","","","","","","","","","","","","","","","","","","","","","","","","","","","","","","","","","","","","","","",""
"","see_reward","","html-keyboard-response","230","965868","0.0-165.0","0","0","yzPbe","Scenes","","408","","","32","","145","","14","","","","1","","","","","1","","","","","145","408","","","","","","","","","","","","","","","","","","","","","","","","",""
"","reward_outcome","","html-keyboard-response","231","967877","0.0-166.0","0","0","yzPbe","Scenes","","1047","","","38","","145","","14","","","","","","","","","","","","","","","","1","1047","","","","","","","","","","","","","","","","","","","","","","",""
"","fixation","","html-keyboard-response","232","968888","0.0-169.0","0","0","yzPbe","Scenes","","null","","","null","","","","","","","","","","","","","","","","","","","","","","","","","","","","","","","","","","","","","","","","","","","",""
"","see_reward","","html-keyboard-response","233","969490","0.0-170.0","0","0","yzPbe","Scenes","","600","","","32","","129","","15","","","","1","","","","","1","","","","","146","600","","","","","","","","","","","","","","","","","","","","","","","","",""
"","reward_outcome","","html-keyboard-response","234","971509","0.0-171.0","0","0","yzPbe","Scenes","","897","","","38","","129","","15","","","","","","","","","","","","","","","","1","897","","","","","","","","","","","","","","","","","","","","","","",""
"","fixation","","html-keyboard-response","235","972516","0.0-174.0","0","0","yzPbe","Scenes","","null","","","null","","","","","","","","","","","","","","","","","","","","","","","","","","","","","","","","","","","","","","","","","","","",""
"","see_reward","","html-keyboard-response","236","972959","0.0-175.0","0","0","yzPbe","Scenes","","441","","","32","","128","","16","","","","1","","","","","1","","","","","153","441","","","","","","","","","","","","","","","","","","","","","","","","",""
"","reward_outcome","","html-keyboard-response","237","974969","0.0-176.0","0","0","yzPbe","Scenes","","976","","","38","","128","","16","","","","","","","","","","","","","","","","1","976","","","","","","","","","","","","","","","","","","","","","","",""
"","fixation","","html-keyboard-response","238","975977","0.0-179.0","0","0","yzPbe","Scenes","","null","","","null","","","","","","","","","","","","","","","","","","","","","","","","","","","","","","","","","","","","","","","","","","","",""
"","see_reward","","html-keyboard-response","239","976701","0.0-180.0","0","0","yzPbe","Scenes","","721","","","32","","113","","17","","","","-1","","","","","1","","","","","0","721","","","","","","","","","","","","","","","","","","","","","","","","",""
"","reward_outcome","","html-keyboard-response","240","978713","0.0-181.0","0","0","yzPbe","Scenes","","1033","","","40","","113","","17","","","","","","","","","","","","","","","","-1","1033","","","","","","","","","","","","","","","","","","","","","","",""
"","fixation","","html-keyboard-response","241","979718","0.0-184.0","0","0","yzPbe","Scenes","","null","","","null","","","","","","","","","","","","","","","","","","","","","","","","","","","","","","","","","","","","","","","","","","","",""
"","see_reward","","html-keyboard-response","242","980133","0.0-185.0","0","0","yzPbe","Scenes","","413","","","32","","124","","18","","","","-1","","","","","1","","","","","0","413","","","","","","","","","","","","","","","","","","","","","","","","",""
"","reward_outcome","","html-keyboard-response","243","982142","0.0-186.0","0","0","yzPbe","Scenes","","944","","","40","","124","","18","","","","","","","","","","","","","","","","-1","944","","","","","","","","","","","","","","","","","","","","","","",""
"","fixation","","html-keyboard-response","244","983152","0.0-189.0","0","0","yzPbe","Scenes","","null","","","null","","","","","","","","","","","","","","","","","","","","","","","","","","","","","","","","","","","","","","","","","","","",""
"","see_reward","","html-keyboard-response","245","983538","0.0-190.0","0","0","yzPbe","Scenes","","384","","","32","","116","","19","","","","-1","","","","","1","","","","","0","384","","","","","","","","","","","","","","","","","","","","","","","","",""
"","reward_outcome","","html-keyboard-response","246","985553","0.0-191.0","0","0","yzPbe","Scenes","","1121","","","40","","116","","19","","","","","","","","","","","","","","","","-1","1121","","","","","","","","","","","","","","","","","","","","","","",""
"","fixation","","html-keyboard-response","247","986567","0.0-194.0","0","0","yzPbe","Scenes","","null","","","null","","","","","","","","","","","","","","","","","","","","","","","","","","","","","","","","","","","","","","","","","","","",""
"","see_reward","","html-keyboard-response","248","986988","0.0-195.0","0","0","yzPbe","Scenes","","419","","","32","","124","","20","","","","-1","","","","","1","","","","","0","419","","","","","","","","","","","","","","","","","","","","","","","","",""
"","reward_outcome","","html-keyboard-response","249","989002","0.0-196.0","0","0","yzPbe","Scenes","","831","","","40","","124","","20","","","","","","","","","","","","","","","","-1","831","","","","","","","","","","","","","","","","","","","","","","",""
"","fixation","","html-keyboard-response","250","990015","0.0-199.0","0","0","yzPbe","Scenes","","null","","","null","","","","","","","","","","","","","","","","","","","","","","","","","","","","","","","","","","","","","","","","","","","",""
"","see_reward","","html-keyboard-response","251","990529","0.0-200.0","0","0","yzPbe","Scenes","","512","","","32","","128","","21","","","","1","","","","","1","","","","","153","512","","","","","","","","","","","","","","","","","","","","","","","","",""
"","reward_outcome","","html-keyboard-response","252","992550","0.0-201.0","0","0","yzPbe","Scenes","","1017","","","38","","128","","21","","","","","","","","","","","","","","","","1","1017","","","","","","","","","","","","","","","","","","","","","","",""
"","fixation","","html-keyboard-response","253","993565","0.0-204.0","0","0","yzPbe","Scenes","","null","","","null","","","","","","","","","","","","","","","","","","","","","","","","","","","","","","","","","","","","","","","","","","","",""
"","see_reward","","html-keyboard-response","254","994192","0.0-205.0","0","0","yzPbe","Scenes","","625","","","32","","127","","22","","","","-1","","","","","1","","","","","0","625","","","","","","","","","","","","","","","","","","","","","","","","",""
"","reward_outcome","","html-keyboard-response","255","996197","0.0-206.0","0","0","yzPbe","Scenes","","917","","","40","","127","","22","","","","","","","","","","","","","","","","-1","917","","","","","","","","","","","","","","","","","","","","","","",""
"","fixation","","html-keyboard-response","256","997210","0.0-209.0","0","0","yzPbe","Scenes","","null","","","null","","","","","","","","","","","","","","","","","","","","","","","","","","","","","","","","","","","","","","","","","","","",""
"","see_reward","","html-keyboard-response","257","997606","0.0-210.0","0","0","yzPbe","Scenes","","394","","","32","","101","","23","","","","1","","","","","1","","","","","143","394","","","","","","","","","","","","","","","","","","","","","","","","",""
"","reward_outcome","","html-keyboard-response","258","999613","0.0-211.0","0","0","yzPbe","Scenes","","728","","","38","","101","","23","","","","","","","","","","","","","","","","1","728","","","","","","","","","","","","","","","","","","","","","","",""
"","block_over","","html-keyboard-response","259","1005265","0.0-213.0-0.0","0","0","yzPbe","Scenes","","5650","","","78","","","","","","","","","","","","","","","","","","","","","","","","","","","","","","","","","","","","","","","","","","","",""
"","fixation","","html-keyboard-response","260","1006268","0.0-214.0","0","0","yzPbe","Scenes","","null","","","null","","","","","","","","","","","","","","","","","","","","","","","","","","","","","","","","","","","","","","","","","","","",""
"","see_reward","","html-keyboard-response","261","1007232","0.0-215.0","0","0","yzPbe","Scenes","","962","","","32","","122","","24","","","","-1","","","","","2","","","","","0","962","","","","","","","","","","","","","","","","","","","","","","","","",""
"","reward_outcome","","html-keyboard-response","262","1009243","0.0-216.0","0","0","yzPbe","Scenes","","1042","","","40","","122","","24","","","","","","","","","","","","","","","","-1","1042","","","","","","","","","","","","","","","","","","","","","","",""
"","fixation","","html-keyboard-response","263","1010263","0.0-219.0","0","0","yzPbe","Scenes","","null","","","null","","","","","","","","","","","","","","","","","","","","","","","","","","","","","","","","","","","","","","","","","","","",""
"","see_reward","","html-keyboard-response","264","1011054","0.0-220.0","0","0","yzPbe","Scenes","","789","","","32","","101","","25","","","","1","","","","","2","","","","","143","789","","","","","","","","","","","","","","","","","","","","","","","","",""
"","reward_outcome","","html-keyboard-response","265","1013068","0.0-221.0","0","0","yzPbe","Scenes","","961","","","38","","101","","25","","","","","","","","","","","","","","","","1","961","","","","","","","","","","","","","","","","","","","","","","",""
"","fixation","","html-keyboard-response","266","1014083","0.0-224.0","0","0","yzPbe","Scenes","","null","","","null","","","","","","","","","","","","","","","","","","","","","","","","","","","","","","","","","","","","","","","","","","","",""
"","see_reward","","html-keyboard-response","267","1014611","0.0-225.0","0","0","yzPbe","Scenes","","526","","","32","","127","","26","","","","-1","","","","","2","","","","","0","526","","","","","","","","","","","","","","","","","","","","","","","","",""
"","reward_outcome","","html-keyboard-response","268","1016628","0.0-226.0","0","0","yzPbe","Scenes","","932","","","40","","127","","26","","","","","","","","","","","","","","","","-1","932","","","","","","","","","","","","","","","","","","","","","","",""
"","fixation","","html-keyboard-response","269","1017630","0.0-229.0","0","0","yzPbe","Scenes","","null","","","null","","","","","","","","","","","","","","","","","","","","","","","","","","","","","","","","","","","","","","","","","","","",""
"","see_reward","","html-keyboard-response","270","1018237","0.0-230.0","0","0","yzPbe","Scenes","","605","","","32","","145","","27","","","","1","","","","","2","","","","","145","605","","","","","","","","","","","","","","","","","","","","","","","","",""
"","reward_outcome","","html-keyboard-response","271","1020246","0.0-231.0","0","0","yzPbe","Scenes","","954","","","38","","145","","27","","","","","","","","","","","","","","","","1","954","","","","","","","","","","","","","","","","","","","","","","",""
"","fixation","","html-keyboard-response","272","1021262","0.0-234.0","0","0","yzPbe","Scenes","","null","","","null","","","","","","","","","","","","","","","","","","","","","","","","","","","","","","","","","","","","","","","","","","","",""
"","see_reward","","html-keyboard-response","273","1022169","0.0-235.0","0","0","yzPbe","Scenes","","906","","","32","","145","","28","","","","1","","","","","2","","","","","145","906","","","","","","","","","","","","","","","","","","","","","","","","",""
"","reward_outcome","","html-keyboard-response","274","1024182","0.0-236.0","0","0","yzPbe","Scenes","","942","","","38","","145","","28","","","","","","","","","","","","","","","","1","942","","","","","","","","","","","","","","","","","","","","","","",""
"","fixation","","html-keyboard-response","275","1025192","0.0-239.0","0","0","yzPbe","Scenes","","null","","","null","","","","","","","","","","","","","","","","","","","","","","","","","","","","","","","","","","","","","","","","","","","",""
"","see_reward","","html-keyboard-response","276","1025584","0.0-240.0","0","0","yzPbe","Scenes","","389","","","32","","129","","29","","","","1","","","","","2","","","","","146","389","","","","","","","","","","","","","","","","","","","","","","","","",""
"","reward_outcome","","html-keyboard-response","277","1027597","0.0-241.0","0","0","yzPbe","Scenes","","764","","","38","","129","","29","","","","","","","","","","","","","","","","1","764","","","","","","","","","","","","","","","","","","","","","","",""
"","fixation","","html-keyboard-response","278","1028612","0.0-244.0","0","0","yzPbe","Scenes","","null","","","null","","","","","","","","","","","","","","","","","","","","","","","","","","","","","","","","","","","","","","","","","","","",""
"","see_reward","","html-keyboard-response","279","1029181","0.0-245.0","0","0","yzPbe","Scenes","","567","","","32","","122","","30","","","","-1","","","","","2","","","","","0","567","","","","","","","","","","","","","","","","","","","","","","","","",""
"","reward_outcome","","html-keyboard-response","280","1031197","0.0-246.0","0","0","yzPbe","Scenes","","1042","","","40","","122","","30","","","","","","","","","","","","","","","","-1","1042","","","","","","","","","","","","","","","","","","","","","","",""
"","fixation","","html-keyboard-response","281","1032218","0.0-249.0","0","0","yzPbe","Scenes","","null","","","null","","","","","","","","","","","","","","","","","","","","","","","","","","","","","","","","","","","","","","","","","","","",""
"","see_reward","","html-keyboard-response","282","1032844","0.0-250.0","0","0","yzPbe","Scenes","","624","","","32","","146","","31","","","","1","","","","","2","","","","","150","624","","","","","","","","","","","","","","","","","","","","","","","","",""
"","reward_outcome","","html-keyboard-response","283","1034866","0.0-251.0","0","0","yzPbe","Scenes","","918","","","38","","146","","31","","","","","","","","","","","","","","","","1","918","","","","","","","","","","","","","","","","","","","","","","",""
"","fixation","","html-keyboard-response","284","1035870","0.0-254.0","0","0","yzPbe","Scenes","","null","","","null","","","","","","","","","","","","","","","","","","","","","","","","","","","","","","","","","","","","","","","","","","","",""
"","see_reward","","html-keyboard-response","285","1036596","0.0-255.0","0","0","yzPbe","Scenes","","724","","","32","","116","","32","","","","-1","","","","","2","","","","","0","724","","","","","","","","","","","","","","","","","","","","","","","","",""
"","reward_outcome","","html-keyboard-response","286","1038612","0.0-256.0","0","0","yzPbe","Scenes","","1077","","","40","","116","","32","","","","","","","","","","","","","","","","-1","1077","","","","","","","","","","","","","","","","","","","","","","",""
"","fixation","","html-keyboard-response","287","1039629","0.0-259.0","0","0","yzPbe","Scenes","","null","","","null","","","","","","","","","","","","","","","","","","","","","","","","","","","","","","","","","","","","","","","","","","","",""
"","see_reward","","html-keyboard-response","288","1040115","0.0-260.0","0","0","yzPbe","Scenes","","484","","","32","","113","","33","","","","-1","","","","","2","","","","","0","484","","","","","","","","","","","","","","","","","","","","","","","","",""
"","reward_outcome","","html-keyboard-response","289","1042117","0.0-261.0","0","0","yzPbe","Scenes","","1498","","","40","","113","","33","","","","","","","","","","","","","","","","-1","1498","","","","","","","","","","","","","","","","","","","","","","",""
"","fixation","","html-keyboard-response","290","1043132","0.0-264.0","0","0","yzPbe","Scenes","","null","","","null","","","","","","","","","","","","","","","","","","","","","","","","","","","","","","","","","","","","","","","","","","","",""
"","see_reward","","html-keyboard-response","291","1043646","0.0-265.0","0","0","yzPbe","Scenes","","512","","","32","","116","","34","","","","-1","","","","","2","","","","","0","512","","","","","","","","","","","","","","","","","","","","","","","","",""
"","reward_outcome","","html-keyboard-response","292","1045668","0.0-266.0","0","0","yzPbe","Scenes","","780","","","40","","116","","34","","","","","","","","","","","","","","","","-1","780","","","","","","","","","","","","","","","","","","","","","","",""
"","fixation","","html-keyboard-response","293","1046683","0.0-269.0","0","0","yzPbe","Scenes","","null","","","null","","","","","","","","","","","","","","","","","","","","","","","","","","","","","","","","","","","","","","","","","","","",""
"","see_reward","","html-keyboard-response","294","1047056","0.0-270.0","0","0","yzPbe","Scenes","","371","","","32","","128","","35","","","","1","","","","","2","","","","","153","371","","","","","","","","","","","","","","","","","","","","","","","","",""
"","reward_outcome","","html-keyboard-response","295","1049065","0.0-271.0","0","0","yzPbe","Scenes","","1066","","","38","","128","","35","","","","","","","","","","","","","","","","1","1066","","","","","","","","","","","","","","","","","","","","","","",""
"","fixation","","html-keyboard-response","296","1050077","0.0-274.0","0","0","yzPbe","Scenes","","null","","","null","","","","","","","","","","","","","","","","","","","","","","","","","","","","","","","","","","","","","","","","","","","",""
"","see_reward","","html-keyboard-response","297","1050861","0.0-275.0","0","0","yzPbe","Scenes","","783","","","32","","113","","36","","","","-1","","","","","2","","","","","0","783","","","","","","","","","","","","","","","","","","","","","","","","",""
"","reward_outcome","","html-keyboard-response","298","1052878","0.0-276.0","0","0","yzPbe","Scenes","","819","","","40","","113","","36","","","","","","","","","","","","","","","","-1","819","","","","","","","","","","","","","","","","","","","","","","",""
"","fixation","","html-keyboard-response","299","1053895","0.0-279.0","0","0","yzPbe","Scenes","","null","","","null","","","","","","","","","","","","","","","","","","","","","","","","","","","","","","","","","","","","","","","","","","","",""
"","see_reward","","html-keyboard-response","300","1054385","0.0-280.0","0","0","yzPbe","Scenes","","488","","","32","","129","","37","","","","1","","","","","2","","","","","146","488","","","","","","","","","","","","","","","","","","","","","","","","",""
"","reward_outcome","","html-keyboard-response","301","1056389","0.0-281.0","0","0","yzPbe","Scenes","","932","","","38","","129","","37","","","","","","","","","","","","","","","","1","932","","","","","","","","","","","","","","","","","","","","","","",""
"","fixation","","html-keyboard-response","302","1057410","0.0-284.0","0","0","yzPbe","Scenes","","null","","","null","","","","","","","","","","","","","","","","","","","","","","","","","","","","","","","","","","","","","","","","","","","",""
"","see_reward","","html-keyboard-response","303","1057903","0.0-285.0","0","0","yzPbe","Scenes","","491","","","32","","128","","38","","","","1","","","","","2","","","","","153","491","","","","","","","","","","","","","","","","","","","","","","","","",""
"","reward_outcome","","html-keyboard-response","304","1059915","0.0-286.0","0","0","yzPbe","Scenes","","992","","","38","","128","","38","","","","","","","","","","","","","","","","1","992","","","","","","","","","","","","","","","","","","","","","","",""
"","fixation","","html-keyboard-response","305","1060929","0.0-289.0","0","0","yzPbe","Scenes","","null","","","null","","","","","","","","","","","","","","","","","","","","","","","","","","","","","","","","","","","","","","","","","","","",""
"","see_reward","","html-keyboard-response","306","1061590","0.0-290.0","0","0","yzPbe","Scenes","","659","","","32","","100","","39","","","","-1","","","","","2","","","","","0","659","","","","","","","","","","","","","","","","","","","","","","","","",""
"","reward_outcome","","html-keyboard-response","307","1063607","0.0-291.0","0","0","yzPbe","Scenes","","1016","","","40","","100","","39","","","","","","","","","","","","","","","","-1","1016","","","","","","","","","","","","","","","","","","","","","","",""
"","fixation","","html-keyboard-response","308","1064621","0.0-294.0","0","0","yzPbe","Scenes","","null","","","null","","","","","","","","","","","","","","","","","","","","","","","","","","","","","","","","","","","","","","","","","","","",""
"","see_reward","","html-keyboard-response","309","1065297","0.0-295.0","0","0","yzPbe","Scenes","","674","","","32","","101","","40","","","","1","","","","","2","","","","","143","674","","","","","","","","","","","","","","","","","","","","","","","","",""
"","reward_outcome","","html-keyboard-response","310","1067315","0.0-296.0","0","0","yzPbe","Scenes","","751","","","38","","101","","40","","","","","","","","","","","","","","","","1","751","","","","","","","","","","","","","","","","","","","","","","",""
"","fixation","","html-keyboard-response","311","1068328","0.0-299.0","0","0","yzPbe","Scenes","","null","","","null","","","","","","","","","","","","","","","","","","","","","","","","","","","","","","","","","","","","","","","","","","","",""
"","see_reward","","html-keyboard-response","312","1068770","0.0-300.0","0","0","yzPbe","Scenes","","441","","","32","","124","","41","","","","-1","","","","","2","","","","","0","441","","","","","","","","","","","","","","","","","","","","","","","","",""
"","reward_outcome","","html-keyboard-response","313","1070773","0.0-301.0","0","0","yzPbe","Scenes","","996","","","40","","124","","41","","","","","","","","","","","","","","","","-1","996","","","","","","","","","","","","","","","","","","","","","","",""
"","fixation","","html-keyboard-response","314","1071794","0.0-304.0","0","0","yzPbe","Scenes","","null","","","null","","","","","","","","","","","","","","","","","","","","","","","","","","","","","","","","","","","","","","","","","","","",""
"","see_reward","","html-keyboard-response","315","1072321","0.0-305.0","0","0","yzPbe","Scenes","","525","","","32","","124","","42","","","","-1","","","","","2","","","","","0","525","","","","","","","","","","","","","","","","","","","","","","","","",""
"","reward_outcome","","html-keyboard-response","316","1074328","0.0-306.0","0","0","yzPbe","Scenes","","1102","","","40","","124","","42","","","","","","","","","","","","","","","","-1","1102","","","","","","","","","","","","","","","","","","","","","","",""
"","fixation","","html-keyboard-response","317","1075340","0.0-309.0","0","0","yzPbe","Scenes","","null","","","null","","","","","","","","","","","","","","","","","","","","","","","","","","","","","","","","","","","","","","","","","","","",""
"","see_reward","","html-keyboard-response","318","1075800","0.0-310.0","0","0","yzPbe","Scenes","","458","","","32","","127","","43","","","","-1","","","","","2","","","","","0","458","","","","","","","","","","","","","","","","","","","","","","","","",""
"","reward_outcome","","html-keyboard-response","319","1077813","0.0-311.0","0","0","yzPbe","Scenes","","992","","","40","","127","","43","","","","","","","","","","","","","","","","-1","992","","","","","","","","","","","","","","","","","","","","","","",""
"","fixation","","html-keyboard-response","320","1078827","0.0-314.0","0","0","yzPbe","Scenes","","null","","","null","","","","","","","","","","","","","","","","","","","","","","","","","","","","","","","","","","","","","","","","","","","",""
"","see_reward","","html-keyboard-response","321","1079606","0.0-315.0","0","0","yzPbe","Scenes","","777","","","32","","147","","44","","","","1","","","","","2","","","","","143","777","","","","","","","","","","","","","","","","","","","","","","","","",""
"","reward_outcome","","html-keyboard-response","322","1081620","0.0-316.0","0","0","yzPbe","Scenes","","729","","","38","","147","","44","","","","","","","","","","","","","","","","1","729","","","","","","","","","","","","","","","","","","","","","","",""
"","fixation","","html-keyboard-response","323","1082632","0.0-319.0","0","0","yzPbe","Scenes","","null","","","null","","","","","","","","","","","","","","","","","","","","","","","","","","","","","","","","","","","","","","","","","","","",""
"","see_reward","","html-keyboard-response","324","1083135","0.0-320.0","0","0","yzPbe","Scenes","","501","","","32","","147","","45","","","","1","","","","","2","","","","","143","501","","","","","","","","","","","","","","","","","","","","","","","","",""
"","reward_outcome","","html-keyboard-response","325","1085147","0.0-321.0","0","0","yzPbe","Scenes","","813","","","38","","147","","45","","","","","","","","","","","","","","","","1","813","","","","","","","","","","","","","","","","","","","","","","",""
"","fixation","","html-keyboard-response","326","1086160","0.0-324.0","0","0","yzPbe","Scenes","","null","","","null","","","","","","","","","","","","","","","","","","","","","","","","","","","","","","","","","","","","","","","","","","","",""
"","see_reward","","html-keyboard-response","327","1086762","0.0-325.0","0","0","yzPbe","Scenes","","600","","","32","","146","","46","","","","1","","","","","2","","","","","150","600","","","","","","","","","","","","","","","","","","","","","","","","",""
"","reward_outcome","","html-keyboard-response","328","1088783","0.0-326.0","0","0","yzPbe","Scenes","","709","","","38","","146","","46","","","","","","","","","","","","","","","","1","709","","","","","","","","","","","","","","","","","","","","","","",""
"","fixation","","html-keyboard-response","329","1089792","0.0-329.0","0","0","yzPbe","Scenes","","null","","","null","","","","","","","","","","","","","","","","","","","","","","","","","","","","","","","","","","","","","","","","","","","",""
"","see_reward","","html-keyboard-response","330","1090465","0.0-330.0","0","0","yzPbe","Scenes","","671","","","32","","100","","47","","","","-1","","","","","2","","","","","0","671","","","","","","","","","","","","","","","","","","","","","","","","",""
"","reward_outcome","","html-keyboard-response","331","1092478","0.0-331.0","0","0","yzPbe","Scenes","","758","","","40","","100","","47","","","","","","","","","","","","","","","","-1","758","","","","","","","","","","","","","","","","","","","","","","",""
"","block_over","","html-keyboard-response","332","1095846","0.0-333.0-0.0","0","0","yzPbe","Scenes","","3366","","","78","","","","","","","","","","","","","","","","","","","","","","","","","","","","","","","","","","","","","","","","","","","",""
"","fixation","","html-keyboard-response","333","1096860","0.0-334.0","0","0","yzPbe","Scenes","","null","","","null","","","","","","","","","","","","","","","","","","","","","","","","","","","","","","","","","","","","","","","","","","","",""
"","see_reward","","html-keyboard-response","334","1097481","0.0-335.0","0","0","yzPbe","Scenes","","619","","","32","","145","","48","","","","1","","","","","3","","","","","145","619","","","","","","","","","","","","","","","","","","","","","","","","",""
"","reward_outcome","","html-keyboard-response","335","1099486","0.0-336.0","0","0","yzPbe","Scenes","","778","","","38","","145","","48","","","","","","","","","","","","","","","","1","778","","","","","","","","","","","","","","","","","","","","","","",""
"","fixation","","html-keyboard-response","336","1100502","0.0-339.0","0","0","yzPbe","Scenes","","null","","","null","","","","","","","","","","","","","","","","","","","","","","","","","","","","","","","","","","","","","","","","","","","",""
"","see_reward","","html-keyboard-response","337","1100886","0.0-340.0","0","0","yzPbe","Scenes","","382","","","32","","127","","49","","","","-1","","","","","3","","","","","0","382","","","","","","","","","","","","","","","","","","","","","","","","",""
"","reward_outcome","","html-keyboard-response","338","1102900","0.0-341.0","0","0","yzPbe","Scenes","","871","","","40","","127","","49","","","","","","","","","","","","","","","","-1","871","","","","","","","","","","","","","","","","","","","","","","",""
"","fixation","","html-keyboard-response","339","1103912","0.0-344.0","0","0","yzPbe","Scenes","","null","","","null","","","","","","","","","","","","","","","","","","","","","","","","","","","","","","","","","","","","","","","","","","","",""
"","see_reward","","html-keyboard-response","340","1104258","0.0-345.0","0","0","yzPbe","Scenes","","345","","","32","","128","","50","","","","1","","","","","3","","","","","153","345","","","","","","","","","","","","","","","","","","","","","","","","",""
"","reward_outcome","","html-keyboard-response","341","1106274","0.0-346.0","0","0","yzPbe","Scenes","","575","","","38","","128","","50","","","","","","","","","","","","","","","","1","575","","","","","","","","","","","","","","","","","","","","","","",""
"","fixation","","html-keyboard-response","342","1107287","0.0-349.0","0","0","yzPbe","Scenes","","null","","","null","","","","","","","","","","","","","","","","","","","","","","","","","","","","","","","","","","","","","","","","","","","",""
"","see_reward","","html-keyboard-response","343","1107822","0.0-350.0","0","0","yzPbe","Scenes","","533","","","32","","146","","51","","","","1","","","","","3","","","","","150","533","","","","","","","","","","","","","","","","","","","","","","","","",""
"","reward_outcome","","html-keyboard-response","344","1109834","0.0-351.0","0","0","yzPbe","Scenes","","1052","","","38","","146","","51","","","","","","","","","","","","","","","","1","1052","","","","","","","","","","","","","","","","","","","","","","",""
"","fixation","","html-keyboard-response","345","1110847","0.0-354.0","0","0","yzPbe","Scenes","","null","","","null","","","","","","","","","","","","","","","","","","","","","","","","","","","","","","","","","","","","","","","","","","","",""
"","see_reward","","html-keyboard-response","346","1111316","0.0-355.0","0","0","yzPbe","Scenes","","467","","","32","","122","","52","","","","-1","","","","","3","","","","","0","467","","","","","","","","","","","","","","","","","","","","","","","","",""
"","reward_outcome","","html-keyboard-response","347","1113332","0.0-356.0","0","0","yzPbe","Scenes","","1190","","","40","","122","","52","","","","","","","","","","","","","","","","-1","1190","","","","","","","","","","","","","","","","","","","","","","",""
"","fixation","","html-keyboard-response","348","1114347","0.0-359.0","0","0","yzPbe","Scenes","","null","","","null","","","","","","","","","","","","","","","","","","","","","","","","","","","","","","","","","","","","","","","","","","","",""
"","see_reward","","html-keyboard-response","349","1114958","0.0-360.0","0","0","yzPbe","Scenes","","609","","","32","","100","","53","","","","-1","","","","","3","","","","","0","609","","","","","","","","","","","","","","","","","","","","","","","","",""
"","reward_outcome","","html-keyboard-response","350","1116971","0.0-361.0","0","0","yzPbe","Scenes","","754","","","40","","100","","53","","","","","","","","","","","","","","","","-1","754","","","","","","","","","","","","","","","","","","","","","","",""
"","fixation","","html-keyboard-response","351","1117982","0.0-364.0","0","0","yzPbe","Scenes","","null","","","null","","","","","","","","","","","","","","","","","","","","","","","","","","","","","","","","","","","","","","","","","","","",""
"","see_reward","","html-keyboard-response","352","1118442","0.0-365.0","0","0","yzPbe","Scenes","","459","","","32","","116","","54","","","","-1","","","","","3","","","","","0","459","","","","","","","","","","","","","","","","","","","","","","","","",""
"","reward_outcome","","html-keyboard-response","353","1120452","0.0-366.0","0","0","yzPbe","Scenes","","982","","","40","","116","","54","","","","","","","","","","","","","","","","-1","982","","","","","","","","","","","","","","","","","","","","","","",""
