"success","ttype","start_time","trial_type","trial_index","time_elapsed","internal_node_id","warning","missed_checkup","PID","stim_type","view_history","rt","responses","repeat_instructions","key_press","response","stimulus_id","painting","index","stimulus_left","stimulus_right","explain_trial","reward_type","rating_left","rating_right","painting_left","painting_right","block","left_chosen","chosen_obj","unchosen_obj","explain_response","reward_amount","see_reward_rt","register_reward_response","register_reward_rt","deliberation_reward_tally","stimulus_left_deliberation_ind","stimulus_right_deliberation_ind","chosen_trial","gain_left","higher_outcome_chosen","old_pair","chosen_object","rt_pairs","left_object_chosen","rt_object","old_response","new_rating","deliberated_stim","initial_rating","outcome_eval_rt","outcome_eval_response","outcome_eval_gain","outcome_eval_acc","preamble","outcome_eval_confidence","outcome_eval_confidence_rt","total_reward_tally"
"true","full_screen","d01192023hr2212","fullscreen","0","9145","0.0-0.0","0","0","wcLK5","Scenes","","","","","","","","","","","","","","","","","","","","","","","","","","","","","","","","","","","","","","","","","","","","","","","","",""
"","rating_instructions","","instructions","1","19337","0.0-1.0-0.0","0","0","wcLK5","Scenes","[{""page_index"":0,""viewing_time"":7664},{""page_index"":1,""viewing_time"":2525}]","10189","","","","","","","","","","","","","","","","","","","","","","","","","","","","","","","","","","","","","","","","","","","","","","",""
"","rating_comprehension_check","","survey-multi-choice","2","24275","0.0-1.0-1.0","0","0","wcLK5","Scenes","","4934","{""Q0"":""True"",""Q1"":""Mouse""}","0","","","","","","","","","","","","","","","","","","","","","","","","","","","","","","","","","","","","","","","","","","","","",""
"","start_phase","","html-keyboard-response","3","26549","0.0-2.0","0","0","wcLK5","Scenes","","2271","","","78","","","","","","","","","","","","","","","","","","","","","","","","","","","","","","","","","","","","","","","","","","","",""
"","rating","","html-slider-response","4","30065","0.0-3.0","0","0","wcLK5","Scenes","","3512","","","","89","114","daniel-sessler-z_9VmsxR8hs-unsplash.jpg","0","","","","","","","","","","","","","","","","","","","","","","","","","","","","","","","","","","","","","","","",""
"","rating","","html-slider-response","5","32905","0.0-4.0","0","0","wcLK5","Scenes","","2838","","","","73","146","thomas-morse-cuKKa0vWZSY-unsplash.jpg","1","","","","","","","","","","","","","","","","","","","","","","","","","","","","","","","","","","","","","","","",""
"","rating","","html-slider-response","6","35517","0.0-5.0","0","0","wcLK5","Scenes","","2611","","","","82","132","meng-ji-8BH_M-53CyA-unsplash.jpg","2","","","","","","","","","","","","","","","","","","","","","","","","","","","","","","","","","","","","","","","",""
"","rating","","html-slider-response","7","38036","0.0-6.0","0","0","wcLK5","Scenes","","2517","","","","88","147","tobias-keller-73F4pKoUkM0-unsplash.jpg","3","","","","","","","","","","","","","","","","","","","","","","","","","","","","","","","","","","","","","","","",""
"","rating","","html-slider-response","8","40538","0.0-7.0","0","0","wcLK5","Scenes","","2499","","","","30","105","ashim-d-silva-S2Q5mdOrrVc-unsplash.jpg","4","","","","","","","","","","","","","","","","","","","","","","","","","","","","","","","","","","","","","","","",""
"","rating","","html-slider-response","9","43873","0.0-8.0","0","0","wcLK5","Scenes","","3333","","","","40","102","anisur-rahman-K2b7UDed6uQ-unsplash.jpg","5","","","","","","","","","","","","","","","","","","","","","","","","","","","","","","","","","","","","","","","",""
"","rating","","html-slider-response","10","46665","0.0-9.0","0","0","wcLK5","Scenes","","2790","","","","96","119","james-wheeler-AFC0XvICMgs-unsplash.jpg","6","","","","","","","","","","","","","","","","","","","","","","","","","","","","","","","","","","","","","","","",""
"","rating","","html-slider-response","11","48868","0.0-10.0","0","0","wcLK5","Scenes","","2200","","","","85","134","milada-vigerova-pQMM63GE7fo-unsplash.jpg","7","","","","","","","","","","","","","","","","","","","","","","","","","","","","","","","","","","","","","","","",""
"","rating","","html-slider-response","12","51677","0.0-11.0","0","0","wcLK5","Scenes","","2807","","","","75","113","damian-denis-D8R_txR_0PE-unsplash.jpg","8","","","","","","","","","","","","","","","","","","","","","","","","","","","","","","","","","","","","","","","",""
"","rating","","html-slider-response","13","54375","0.0-12.0","0","0","wcLK5","Scenes","","2696","","","","24","149","yuriy-bogdanov-W51VK3Obcj0-unsplash.jpg","9","","","","","","","","","","","","","","","","","","","","","","","","","","","","","","","","","","","","","","","",""
"","rating","","html-slider-response","14","56526","0.0-13.0","0","0","wcLK5","Scenes","","2148","","","","38","136","nicolas-jehly-LzVB84KkZOE-unsplash.jpg","10","","","","","","","","","","","","","","","","","","","","","","","","","","","","","","","","","","","","","","","",""
"","rating","","html-slider-response","15","59184","0.0-14.0","0","0","wcLK5","Scenes","","2656","","","","78","121","jean-pierre-brungs-qxCqkbF7tUc-unsplash.jpg","11","","","","","","","","","","","","","","","","","","","","","","","","","","","","","","","","","","","","","","","",""
"","rating","","html-slider-response","16","62340","0.0-15.0","0","0","wcLK5","Scenes","","3154","","","","67","118","henry-be-NLF6hTe4PAg-unsplash.jpg","12","","","","","","","","","","","","","","","","","","","","","","","","","","","","","","","","","","","","","","","",""
"","rating","","html-slider-response","17","64885","0.0-16.0","0","0","wcLK5","Scenes","","2543","","","","79","111","claudio-testa-U3F2o6vz3bs-unsplash.jpg","13","","","","","","","","","","","","","","","","","","","","","","","","","","","","","","","","","","","","","","","",""
"","rating","","html-slider-response","18","66842","0.0-17.0","0","0","wcLK5","Scenes","","1956","","","","69","126","jordan-mcqueen-PJCZOWuOxbU-unsplash.jpg","14","","","","","","","","","","","","","","","","","","","","","","","","","","","","","","","","","","","","","","","",""
"","rating","","html-slider-response","19","69262","0.0-18.0","0","0","wcLK5","Scenes","","2418","","","","92","106","ashim-d-silva-WeYamle9fDM-unsplash.jpg","15","","","","","","","","","","","","","","","","","","","","","","","","","","","","","","","","","","","","","","","",""
"","rating","","html-slider-response","20","71358","0.0-19.0","0","0","wcLK5","Scenes","","2095","","","","70","130","lina-loos-04-C1NZk1hE-unsplash.jpg","16","","","","","","","","","","","","","","","","","","","","","","","","","","","","","","","","","","","","","","","",""
"","rating","","html-slider-response","21","74068","0.0-20.0","0","0","wcLK5","Scenes","","2708","","","","94","112","cosmic-timetraveler-pYyOZ8q7AII-unsplash.jpg","17","","","","","","","","","","","","","","","","","","","","","","","","","","","","","","","","","","","","","","","",""
"","rating","","html-slider-response","22","76206","0.0-21.0","0","0","wcLK5","Scenes","","2136","","","","76","129","kurt-cotoaga-cqbLg3lZEpk-unsplash.jpg","18","","","","","","","","","","","","","","","","","","","","","","","","","","","","","","","","","","","","","","","",""
"","rating","","html-slider-response","23","78827","0.0-22.0","0","0","wcLK5","Scenes","","2619","","","","86","116","david-marcu-W5MhJ6cy1So-unsplash.jpg","19","","","","","","","","","","","","","","","","","","","","","","","","","","","","","","","","","","","","","","","",""
"","rating","","html-slider-response","24","81091","0.0-23.0","0","0","wcLK5","Scenes","","2262","","","","92","117","frank-mckenna-OD9EOzfSOh0-unsplash.jpg","20","","","","","","","","","","","","","","","","","","","","","","","","","","","","","","","","","","","","","","","",""
"","rating","","html-slider-response","25","83224","0.0-24.0","0","0","wcLK5","Scenes","","2131","","","","73","131","luca-bravo-hFzIoD0F_i8-unsplash.jpg","21","","","","","","","","","","","","","","","","","","","","","","","","","","","","","","","","","","","","","","","",""
"","rating","","html-slider-response","26","86497","0.0-25.0","0","0","wcLK5","Scenes","","3270","","","","71","133","mickey-o-neil-xL66l--msXU-unsplash.jpg","22","","","","","","","","","","","","","","","","","","","","","","","","","","","","","","","","","","","","","","","",""
"","rating","","html-slider-response","27","88667","0.0-26.0","0","0","wcLK5","Scenes","","2168","","","","71","135","mohammad-alizade-4wzRuAb-KWs-unsplash.jpg","23","","","","","","","","","","","","","","","","","","","","","","","","","","","","","","","","","","","","","","","",""
"","rating","","html-slider-response","28","90817","0.0-27.0","0","0","wcLK5","Scenes","","2148","","","","77","123","joel-jasmin-forestbird-efuwb5eBDrI-unsplash.jpg","24","","","","","","","","","","","","","","","","","","","","","","","","","","","","","","","","","","","","","","","",""
"","rating","","html-slider-response","29","92813","0.0-28.0","0","0","wcLK5","Scenes","","1995","","","","87","108","benjamin-voros-phIFdC6lA4E-unsplash.jpg","25","","","","","","","","","","","","","","","","","","","","","","","","","","","","","","","","","","","","","","","",""
"","rating","","html-slider-response","30","97680","0.0-29.0","0","0","wcLK5","Scenes","","4865","","","","42","122","jeff-king-bJHWJeiHfHc-unsplash.jpg","26","","","","","","","","","","","","","","","","","","","","","","","","","","","","","","","","","","","","","","","",""
"","rating","","html-slider-response","31","99752","0.0-30.0","0","0","wcLK5","Scenes","","2070","","","","94","148","tom-gainor-ZqLeQDjY6fY-unsplash.jpg","27","","","","","","","","","","","","","","","","","","","","","","","","","","","","","","","","","","","","","","","",""
"","rating","","html-slider-response","32","101827","0.0-31.0","0","0","wcLK5","Scenes","","2073","","","","73","103","anton-darius-FBJugtbHsWU-unsplash.jpg","28","","","","","","","","","","","","","","","","","","","","","","","","","","","","","","","","","","","","","","","",""
"","rating","","html-slider-response","33","103843","0.0-32.0","0","0","wcLK5","Scenes","","2013","","","","91","124","johannes-plenio-sPt5RIjKfpk-unsplash.jpg","29","","","","","","","","","","","","","","","","","","","","","","","","","","","","","","","","","","","","","","","",""
"","rating","","html-slider-response","34","106226","0.0-33.0","0","0","wcLK5","Scenes","","2381","","","","92","142","sergey-pesterev-y-b_FOmJXdg-unsplash.jpg","30","","","","","","","","","","","","","","","","","","","","","","","","","","","","","","","","","","","","","","","",""
"","rating","","html-slider-response","35","109181","0.0-34.0","0","0","wcLK5","Scenes","","2953","","","","38","101","aniket-deole-T-tOgjWZ0fQ-unsplash.jpg","31","","","","","","","","","","","","","","","","","","","","","","","","","","","","","","","","","","","","","","","",""
"","rating","","html-slider-response","36","111533","0.0-35.0","0","0","wcLK5","Scenes","","2349","","","","79","144","solotravelgoals-7kLufxYoqWk-unsplash.jpg","32","","","","","","","","","","","","","","","","","","","","","","","","","","","","","","","","","","","","","","","",""
"","rating","","html-slider-response","37","113735","0.0-36.0","0","0","wcLK5","Scenes","","2200","","","","69","127","kace-rodriguez-p3OzJuT_Dks-unsplash.jpg","33","","","","","","","","","","","","","","","","","","","","","","","","","","","","","","","","","","","","","","","",""
"","rating","","html-slider-response","38","115768","0.0-37.0","0","0","wcLK5","Scenes","","2031","","","","71","143","sigurdur-fjalar-jonsson-1KxBabIntpE-unsplash.jpg","34","","","","","","","","","","","","","","","","","","","","","","","","","","","","","","","","","","","","","","","",""
"","rating","","html-slider-response","39","118847","0.0-38.0","0","0","wcLK5","Scenes","","3076","","","","73","100","aleksandra-boguslawska-MS7KD9Ti7FQ-unsplash.jpg","35","","","","","","","","","","","","","","","","","","","","","","","","","","","","","","","","","","","","","","","",""
"","rating","","html-slider-response","40","121392","0.0-39.0","0","0","wcLK5","Scenes","","2543","","","","93","120","jarrett-kow-1ZOyYPOBn7I-unsplash.jpg","36","","","","","","","","","","","","","","","","","","","","","","","","","","","","","","","","","","","","","","","",""
"","rating","","html-slider-response","41","123631","0.0-40.0","0","0","wcLK5","Scenes","","2237","","","","87","115","darrell-cassell-hoCXpPUMCoE-unsplash.jpg","37","","","","","","","","","","","","","","","","","","","","","","","","","","","","","","","","","","","","","","","",""
"","rating","","html-slider-response","42","125717","0.0-41.0","0","0","wcLK5","Scenes","","2084","","","","82","139","samsommer-vddccTqwal8-unsplash.jpg","38","","","","","","","","","","","","","","","","","","","","","","","","","","","","","","","","","","","","","","","",""
"","rating","","html-slider-response","43","127539","0.0-42.0","0","0","wcLK5","Scenes","","1819","","","","67","138","petr-vysohlid-9fqwGqGLUxc-unsplash.jpg","39","","","","","","","","","","","","","","","","","","","","","","","","","","","","","","","","","","","","","","","",""
"","rating","","html-slider-response","44","129648","0.0-43.0","0","0","wcLK5","Scenes","","2107","","","","71","104","artem-sapegin-XGDBdSQ70O0-unsplash.jpg","40","","","","","","","","","","","","","","","","","","","","","","","","","","","","","","","","","","","","","","","",""
"","rating","","html-slider-response","45","132117","0.0-44.0","0","0","wcLK5","Scenes","","2466","","","","80","141","sebastian-unrau-v4e3JI7DDHI-unsplash.jpg","41","","","","","","","","","","","","","","","","","","","","","","","","","","","","","","","","","","","","","","","",""
"","rating","","html-slider-response","46","134820","0.0-45.0","0","0","wcLK5","Scenes","","2700","","","","93","125","john-lee-oMneOBYhJxY-unsplash.jpg","42","","","","","","","","","","","","","","","","","","","","","","","","","","","","","","","","","","","","","","","",""
"","rating","","html-slider-response","47","138730","0.0-46.0","0","0","wcLK5","Scenes","","3908","","","","54","128","karsten-wurth-jS0zC2PJ17A-unsplash.jpg","43","","","","","","","","","","","","","","","","","","","","","","","","","","","","","","","","","","","","","","","",""
"","rating","","html-slider-response","48","141324","0.0-47.0","0","0","wcLK5","Scenes","","2591","","","","86","145","stephen-leonardi-gyIRjKPXupE-unsplash.jpg","44","","","","","","","","","","","","","","","","","","","","","","","","","","","","","","","","","","","","","","","",""
"","rating","","html-slider-response","49","143745","0.0-48.0","0","0","wcLK5","Scenes","","2419","","","","71","137","olga-stalska-QaWRyEdlffY-unsplash.jpg","45","","","","","","","","","","","","","","","","","","","","","","","","","","","","","","","","","","","","","","","",""
"","rating","","html-slider-response","50","145727","0.0-49.0","0","0","wcLK5","Scenes","","1980","","","","63","140","samuele-errico-piccarini-JEBqFu2AOOA-unsplash.jpg","46","","","","","","","","","","","","","","","","","","","","","","","","","","","","","","","","","","","","","","","",""
"","rating","","html-slider-response","51","147320","0.0-50.0","0","0","wcLK5","Scenes","","1590","","","","64","109","brigitta-schneiter-hXXRLtTxXCU-unsplash.jpg","47","","","","","","","","","","","","","","","","","","","","","","","","","","","","","","","","","","","","","","","",""
"","rating","","html-slider-response","52","149576","0.0-51.0","0","0","wcLK5","Scenes","","2253","","","","77","110","bruno-van-der-kraan-qez8mNJ3ilU-unsplash.jpg","48","","","","","","","","","","","","","","","","","","","","","","","","","","","","","","","","","","","","","","","",""
"","rating","","html-slider-response","53","151498","0.0-52.0","0","0","wcLK5","Scenes","","1920","","","","71","107","benjamin-davies-Zm2n2O7Fph4-unsplash.jpg","49","","","","","","","","","","","","","","","","","","","","","","","","","","","","","","","","","","","","","","","",""
"","deliberation_instructions","","instructions","54","210380","0.0-53.0-0.0","0","0","wcLK5","Scenes","[{""page_index"":0,""viewing_time"":14858},{""page_index"":1,""viewing_time"":9058},{""page_index"":2,""viewing_time"":17112},{""page_index"":3,""viewing_time"":15419},{""page_index"":4,""viewing_time"":2430}]","58877","","","","","","","","","","","","","","","","","","","","","","","","","","","","","","","","","","","","","","","","","","","","","","",""
"","deliberation_comprehension_check","","survey-multi-choice","55","229938","0.0-53.0-1.0","0","0","wcLK5","Scenes","","19555","{""Q0"":""True"",""Q1"":""True"",""Q2"":""Do it as quickly as possible"",""Q3"":""True"",""Q4"":""D""}","1","","","","","","","","","","","","","","","","","","","","","","","","","","","","","","","","","","","","","","","","","","","","",""
"","missed_instruction_checkup","","html-keyboard-response","56","232515","0.0-53.0-2.0-0.0","0","1","wcLK5","Scenes","","2573","","","78","","","","","","","","","","","","","","","","","","","","","","","","","","","","","","","","","","","","","","","","","","","",""
"","deliberation_instructions","","instructions","57","256734","0.0-53.1-0.1","0","0","wcLK5","Scenes","[{""page_index"":0,""viewing_time"":5436},{""page_index"":1,""viewing_time"":2913},{""page_index"":2,""viewing_time"":7758},{""page_index"":3,""viewing_time"":5883},{""page_index"":4,""viewing_time"":2226}]","24216","","","","","","","","","","","","","","","","","","","","","","","","","","","","","","","","","","","","","","","","","","","","","","",""
"","deliberation_comprehension_check","","survey-multi-choice","58","277869","0.0-53.1-1.1","0","0","wcLK5","Scenes","","21131","{""Q0"":""True"",""Q1"":""False"",""Q2"":""Consider carefully and take your time (up to 10 seconds)"",""Q3"":""True"",""Q4"":""D""}","1","","","","","","","","","","","","","","","","","","","","","","","","","","","","","","","","","","","","","","","","","","","","",""
"","missed_instruction_checkup","","html-keyboard-response","59","279777","0.0-53.1-2.1-0.1","0","1","wcLK5","Scenes","","1906","","","78","","","","","","","","","","","","","","","","","","","","","","","","","","","","","","","","","","","","","","","","","","","",""
"","deliberation_instructions","","instructions","60","296769","0.0-53.2-0.2","0","0","wcLK5","Scenes","[{""page_index"":0,""viewing_time"":1516},{""page_index"":1,""viewing_time"":3981},{""page_index"":2,""viewing_time"":5987},{""page_index"":3,""viewing_time"":3752},{""page_index"":4,""viewing_time"":1755}]","16991","","","","","","","","","","","","","","","","","","","","","","","","","","","","","","","","","","","","","","","","","","","","","","",""
"","deliberation_comprehension_check","","survey-multi-choice","61","326608","0.0-53.2-1.2","0","0","wcLK5","Scenes","","29835","{""Q0"":""True"",""Q1"":""True"",""Q2"":""Consider carefully and take your time (up to 10 seconds)"",""Q3"":""True"",""Q4"":""D""}","0","","","","","","","","","","","","","","","","","","","","","","","","","","","","","","","","","","","","","","","","","","","","",""
"","start_phase","","html-keyboard-response","62","331357","0.0-54.0","0","0","wcLK5","Scenes","","4748","","","78","","","","","","","","","","","","","","","","","","","","","","","","","","","","","","","","","","","","","","","","","","","",""
"","first_deliberation_block","","html-keyboard-response","63","333806","0.0-55.0","0","0","wcLK5","Scenes","","2448","","","78","","","","","","","","","","","","","","","","","","","","","","","","","","","","","","","","","","","","","","","","","","","",""
"","fixation","","html-keyboard-response","64","334830","0.0-56.0-0.0","0","0","wcLK5","Scenes","","null","","","null","","","","","","","","","","","","","","","","","","","","","","","","","","","","","","","","","","","","","","","","","","","",""
"","deliberation","","html-keyboard-response","65","335977","0.0-56.0-1.0","0","0","wcLK5","Scenes","","1145","","","75","","","","0","103","100","1","-1","73","73","anton-darius-FBJugtbHsWU-unsplash.jpg","aleksandra-boguslawska-MS7KD9Ti7FQ-unsplash.jpg","1","0","100","103","","","","","","","","","","","","","","","","","","","","","","","","","","","",""
"","choice_confirmation","","html-keyboard-response","66","336494","0.0-56.0-2.0-0.0","0","0","wcLK5","Scenes","","null","","","null","","","","0","103","100","","","","","","","","","","","","","","","","","","","","","","","","","","","","","","","","","","","","","",""
"","explain_trial","","survey-text","67","350660","0.0-56.0-5.0-0.0","0","0","wcLK5","Scenes","","14164","{""Q0"":""The color of the water is more vibrant.""}","","","","","","0","103","100","","","","","","","","","","","{""Q0"":""The color of the water is more vibrant.""}","","","","","","","","","","","","","","","","","","","","","","","","","","",""
"","fixation","","html-keyboard-response","68","351665","0.0-57.0-0.0","0","0","wcLK5","Scenes","","null","","","null","","","","","","","","","","","","","","","","","","","","","","","","","","","","","","","","","","","","","","","","","","","",""
"","deliberation","","html-keyboard-response","69","353659","0.0-57.0-1.0","0","0","wcLK5","Scenes","","1992","","","75","","","","1","146","104","1","1","73","71","thomas-morse-cuKKa0vWZSY-unsplash.jpg","artem-sapegin-XGDBdSQ70O0-unsplash.jpg","1","0","104","146","","","","","","","","","","","","","","","","","","","","","","","","","","","",""
"","choice_confirmation","","html-keyboard-response","70","354162","0.0-57.0-2.0-0.0","0","0","wcLK5","Scenes","","null","","","null","","","","1","146","104","","","","","","","","","","","","","","","","","","","","","","","","","","","","","","","","","","","","","",""
"","explain_trial","","survey-text","71","363033","0.0-57.0-5.0-0.0","0","0","wcLK5","Scenes","","8868","{""Q0"":""The misty water is unique""}","","","","","","1","146","104","","","","","","","","","","","{""Q0"":""The misty water is unique""}","","","","","","","","","","","","","","","","","","","","","","","","","","",""
"","fixation","","html-keyboard-response","72","364040","0.0-58.0-0.0","0","0","wcLK5","Scenes","","null","","","null","","","","","","","","","","","","","","","","","","","","","","","","","","","","","","","","","","","","","","","","","","","",""
"","deliberation","","html-keyboard-response","73","365383","0.0-58.0-1.0","0","0","wcLK5","Scenes","","1340","","","75","","","","2","111","139","1","-1","79","82","claudio-testa-U3F2o6vz3bs-unsplash.jpg","samsommer-vddccTqwal8-unsplash.jpg","1","0","139","111","","","","","","","","","","","","","","","","","","","","","","","","","","","",""
"","choice_confirmation","","html-keyboard-response","74","365892","0.0-58.0-2.0-0.0","0","0","wcLK5","Scenes","","null","","","null","","","","2","111","139","","","","","","","","","","","","","","","","","","","","","","","","","","","","","","","","","","","","","",""
"","explain_trial","","survey-text","75","377622","0.0-58.0-5.0-0.0","0","0","wcLK5","Scenes","","11727","{""Q0"":""The fog is something people would enjoy more""}","","","","","","2","111","139","","","","","","","","","","","{""Q0"":""The fog is something people would enjoy more""}","","","","","","","","","","","","","","","","","","","","","","","","","","",""
"","fixation","","html-keyboard-response","76","378633","0.0-59.0-0.0","0","0","wcLK5","Scenes","","null","","","null","","","","","","","","","","","","","","","","","","","","","","","","","","","","","","","","","","","","","","","","","","","",""
"","deliberation","","html-keyboard-response","77","380058","0.0-59.0-1.0","0","0","wcLK5","Scenes","","1422","","","68","","","","3","133","144","1","1","71","79","mickey-o-neil-xL66l--msXU-unsplash.jpg","solotravelgoals-7kLufxYoqWk-unsplash.jpg","1","1","133","144","","","","","","","","","","","","","","","","","","","","","","","","","","","",""
"","choice_confirmation","","html-keyboard-response","78","380570","0.0-59.0-2.0-0.0","0","0","wcLK5","Scenes","","null","","","null","","","","3","133","144","","","","","","","","","","","","","","","","","","","","","","","","","","","","","","","","","","","","","",""
"","explain_trial","","survey-text","79","391526","0.0-59.0-5.0-0.0","0","0","wcLK5","Scenes","","10954","{""Q0"":""The boat is more artistic ""}","","","","","","3","133","144","","","","","","","","","","","{""Q0"":""The boat is more artistic ""}","","","","","","","","","","","","","","","","","","","","","","","","","","",""
"","fixation","","html-keyboard-response","80","392532","0.0-60.0-0.0","0","0","wcLK5","Scenes","","null","","","null","","","","","","","","","","","","","","","","","","","","","","","","","","","","","","","","","","","","","","","","","","","",""
"","deliberation","","html-keyboard-response","81","393697","0.0-60.0-1.0","0","0","wcLK5","Scenes","","1163","","","75","","","","4","141","132","1","1","80","82","sebastian-unrau-v4e3JI7DDHI-unsplash.jpg","meng-ji-8BH_M-53CyA-unsplash.jpg","1","0","132","141","","","","","","","","","","","","","","","","","","","","","","","","","","","",""
"","choice_confirmation","","html-keyboard-response","82","394214","0.0-60.0-2.0-0.0","0","0","wcLK5","Scenes","","null","","","null","","","","4","141","132","","","","","","","","","","","","","","","","","","","","","","","","","","","","","","","","","","","","","",""
"","explain_trial","","survey-text","83","401523","0.0-60.0-5.0-0.0","0","0","wcLK5","Scenes","","7307","{""Q0"":""The vibrant blue""}","","","","","","4","141","132","","","","","","","","","","","{""Q0"":""The vibrant blue""}","","","","","","","","","","","","","","","","","","","","","","","","","","",""
"","fixation","","html-keyboard-response","84","402536","0.0-61.0-0.0","0","0","wcLK5","Scenes","","null","","","null","","","","","","","","","","","","","","","","","","","","","","","","","","","","","","","","","","","","","","","","","","","",""
"","deliberation","","html-keyboard-response","85","404302","0.0-61.0-1.0","0","0","wcLK5","Scenes","","1764","","","68","","","","5","107","130","0","1","71","70","benjamin-davies-Zm2n2O7Fph4-unsplash.jpg","lina-loos-04-C1NZk1hE-unsplash.jpg","1","1","107","130","","","","","","","","","","","","","","","","","","","","","","","","","","","",""
"","choice_confirmation","","html-keyboard-response","86","404814","0.0-61.0-2.0-0.0","0","0","wcLK5","Scenes","","null","","","null","","","","5","107","130","","","","","","","","","","","","","","","","","","","","","","","","","","","","","","","","","","","","","",""
"","fixation","","html-keyboard-response","87","405823","0.0-62.0-0.0","0","0","wcLK5","Scenes","","null","","","null","","","","","","","","","","","","","","","","","","","","","","","","","","","","","","","","","","","","","","","","","","","",""
"","deliberation","","html-keyboard-response","88","407632","0.0-62.0-1.0","0","0","wcLK5","Scenes","","1807","","","68","","","","6","145","129","1","1","86","76","stephen-leonardi-gyIRjKPXupE-unsplash.jpg","kurt-cotoaga-cqbLg3lZEpk-unsplash.jpg","1","1","145","129","","","","","","","","","","","","","","","","","","","","","","","","","","","",""
"","choice_confirmation","","html-keyboard-response","89","408150","0.0-62.0-2.0-0.0","0","0","wcLK5","Scenes","","null","","","null","","","","6","145","129","","","","","","","","","","","","","","","","","","","","","","","","","","","","","","","","","","","","","",""
"","explain_trial","","survey-text","90","413767","0.0-62.0-5.0-0.0","0","0","wcLK5","Scenes","","5615","{""Q0"":""The unique trees""}","","","","","","6","145","129","","","","","","","","","","","{""Q0"":""The unique trees""}","","","","","","","","","","","","","","","","","","","","","","","","","","",""
"","fixation","","html-keyboard-response","91","414780","0.0-63.0-0.0","0","0","wcLK5","Scenes","","null","","","null","","","","","","","","","","","","","","","","","","","","","","","","","","","","","","","","","","","","","","","","","","","",""
"","deliberation","","html-keyboard-response","92","416682","0.0-63.0-1.0","0","0","wcLK5","Scenes","","1900","","","75","","","","7","137","123","0","-1","71","77","olga-stalska-QaWRyEdlffY-unsplash.jpg","joel-jasmin-forestbird-efuwb5eBDrI-unsplash.jpg","1","0","123","137","","","","","","","","","","","","","","","","","","","","","","","","","","","",""
"","choice_confirmation","","html-keyboard-response","93","417196","0.0-63.0-2.0-0.0","0","0","wcLK5","Scenes","","null","","","null","","","","7","137","123","","","","","","","","","","","","","","","","","","","","","","","","","","","","","","","","","","","","","",""
"","fixation","","html-keyboard-response","94","418202","0.0-64.0-0.0","0","0","wcLK5","Scenes","","null","","","null","","","","","","","","","","","","","","","","","","","","","","","","","","","","","","","","","","","","","","","","","","","",""
"","deliberation","","html-keyboard-response","95","418966","0.0-64.0-1.0","0","0","wcLK5","Scenes","","761","","","68","","","","8","135","116","0","-1","71","86","mohammad-alizade-4wzRuAb-KWs-unsplash.jpg","david-marcu-W5MhJ6cy1So-unsplash.jpg","1","1","135","116","","","","","","","","","","","","","","","","","","","","","","","","","","","",""
"","choice_confirmation","","html-keyboard-response","96","419475","0.0-64.0-2.0-0.0","0","0","wcLK5","Scenes","","null","","","null","","","","8","135","116","","","","","","","","","","","","","","","","","","","","","","","","","","","","","","","","","","","","","",""
"","fixation","","html-keyboard-response","97","420491","0.0-65.0-0.0","0","0","wcLK5","Scenes","","null","","","null","","","","","","","","","","","","","","","","","","","","","","","","","","","","","","","","","","","","","","","","","","","",""
"","deliberation","","html-keyboard-response","98","421536","0.0-65.0-1.0","0","0","wcLK5","Scenes","","1043","","","75","","","","9","121","131","0","-1","78","73","jean-pierre-brungs-qxCqkbF7tUc-unsplash.jpg","luca-bravo-hFzIoD0F_i8-unsplash.jpg","1","0","131","121","","","","","","","","","","","","","","","","","","","","","","","","","","","",""
"","choice_confirmation","","html-keyboard-response","99","422039","0.0-65.0-2.0-0.0","0","0","wcLK5","Scenes","","null","","","null","","","","9","121","131","","","","","","","","","","","","","","","","","","","","","","","","","","","","","","","","","","","","","",""
"","fixation","","html-keyboard-response","100","423056","0.0-66.0-0.0","0","0","wcLK5","Scenes","","null","","","null","","","","","","","","","","","","","","","","","","","","","","","","","","","","","","","","","","","","","","","","","","","",""
"","deliberation","","html-keyboard-response","101","424216","0.0-66.0-1.0","0","0","wcLK5","Scenes","","1158","","","68","","","","10","143","113","0","1","71","75","sigurdur-fjalar-jonsson-1KxBabIntpE-unsplash.jpg","damian-denis-D8R_txR_0PE-unsplash.jpg","1","1","143","113","","","","","","","","","","","","","","","","","","","","","","","","","","","",""
"","choice_confirmation","","html-keyboard-response","102","424726","0.0-66.0-2.0-0.0","0","0","wcLK5","Scenes","","null","","","null","","","","10","143","113","","","","","","","","","","","","","","","","","","","","","","","","","","","","","","","","","","","","","",""
"","fixation","","html-keyboard-response","103","425738","0.0-67.0-0.0","0","0","wcLK5","Scenes","","null","","","null","","","","","","","","","","","","","","","","","","","","","","","","","","","","","","","","","","","","","","","","","","","",""
"","deliberation","","html-keyboard-response","104","426782","0.0-67.0-1.0","0","0","wcLK5","Scenes","","1042","","","68","","","","11","134","110","0","-1","85","77","milada-vigerova-pQMM63GE7fo-unsplash.jpg","bruno-van-der-kraan-qez8mNJ3ilU-unsplash.jpg","1","1","134","110","","","","","","","","","","","","","","","","","","","","","","","","","","","",""
"","choice_confirmation","","html-keyboard-response","105","427290","0.0-67.0-2.0-0.0","0","0","wcLK5","Scenes","","null","","","null","","","","11","134","110","","","","","","","","","","","","","","","","","","","","","","","","","","","","","","","","","","","","","",""
"","practice_deliberation_again","","html-keyboard-response","106","429423","0.0-67.0-6.0-0.0","0","0","wcLK5","Scenes","","2131","","","78","","","","","","","","","","","","","","","","","","","","","","","","","","","","","","","","","","","","","","","","","","","",""
"","fixation","","html-keyboard-response","107","430435","0.0-68.0-0.0","0","0","wcLK5","Scenes","","null","","","null","","","","","","","","","","","","","","","","","","","","","","","","","","","","","","","","","","","","","","","","","","","",""
"","deliberation","","html-keyboard-response","108","431838","0.0-68.0-1.0","0","0","wcLK5","Scenes","","1402","","","68","","","","12","107","130","1","1","71","70","benjamin-davies-Zm2n2O7Fph4-unsplash.jpg","lina-loos-04-C1NZk1hE-unsplash.jpg","2","1","107","130","","","","","","","","","","","","","","","","","","","","","","","","","","","",""
"","choice_confirmation","","html-keyboard-response","109","432351","0.0-68.0-2.0-0.0","0","0","wcLK5","Scenes","","null","","","null","","","","12","107","130","","","","","","","","","","","","","","","","","","","","","","","","","","","","","","","","","","","","","",""
"","explain_trial","","survey-text","110","439379","0.0-68.0-5.0-0.0","0","0","wcLK5","Scenes","","7026","{""Q0"":""The bright sunlight""}","","","","","","12","107","130","","","","","","","","","","","{""Q0"":""The bright sunlight""}","","","","","","","","","","","","","","","","","","","","","","","","","","",""
"","fixation","","html-keyboard-response","111","440398","0.0-69.0-0.0","0","0","wcLK5","Scenes","","null","","","null","","","","","","","","","","","","","","","","","","","","","","","","","","","","","","","","","","","","","","","","","","","",""
"","deliberation","","html-keyboard-response","112","441261","0.0-69.0-1.0","0","0","wcLK5","Scenes","","862","","","68","","","","13","137","123","1","-1","71","77","olga-stalska-QaWRyEdlffY-unsplash.jpg","joel-jasmin-forestbird-efuwb5eBDrI-unsplash.jpg","2","1","137","123","","","","","","","","","","","","","","","","","","","","","","","","","","","",""
"","choice_confirmation","","html-keyboard-response","113","441783","0.0-69.0-2.0-0.0","0","0","wcLK5","Scenes","","null","","","null","","","","13","137","123","","","","","","","","","","","","","","","","","","","","","","","","","","","","","","","","","","","","","",""
"","explain_trial","","survey-text","114","450984","0.0-69.0-5.0-0.0","0","0","wcLK5","Scenes","","9199","{""Q0"":""The vibrant blue water""}","","","","","","13","137","123","","","","","","","","","","","{""Q0"":""The vibrant blue water""}","","","","","","","","","","","","","","","","","","","","","","","","","","",""
"","fixation","","html-keyboard-response","115","452008","0.0-70.0-0.0","0","0","wcLK5","Scenes","","null","","","null","","","","","","","","","","","","","","","","","","","","","","","","","","","","","","","","","","","","","","","","","","","",""
"","deliberation","","html-keyboard-response","116","453102","0.0-70.0-1.0","0","0","wcLK5","Scenes","","1091","","","68","","","","14","145","129","0","1","86","76","stephen-leonardi-gyIRjKPXupE-unsplash.jpg","kurt-cotoaga-cqbLg3lZEpk-unsplash.jpg","2","1","145","129","","","","","","","","","","","","","","","","","","","","","","","","","","","",""
"","choice_confirmation","","html-keyboard-response","117","453604","0.0-70.0-2.0-0.0","0","0","wcLK5","Scenes","","null","","","null","","","","14","145","129","","","","","","","","","","","","","","","","","","","","","","","","","","","","","","","","","","","","","",""
"","fixation","","html-keyboard-response","118","454623","0.0-71.0-0.0","0","0","wcLK5","Scenes","","null","","","null","","","","","","","","","","","","","","","","","","","","","","","","","","","","","","","","","","","","","","","","","","","",""
"","deliberation","","html-keyboard-response","119","455458","0.0-71.0-1.0","0","0","wcLK5","Scenes","","833","","","75","","","","15","103","100","0","-1","73","73","anton-darius-FBJugtbHsWU-unsplash.jpg","aleksandra-boguslawska-MS7KD9Ti7FQ-unsplash.jpg","2","0","100","103","","","","","","","","","","","","","","","","","","","","","","","","","","","",""
"","choice_confirmation","","html-keyboard-response","120","455970","0.0-71.0-2.0-0.0","0","0","wcLK5","Scenes","","null","","","null","","","","15","103","100","","","","","","","","","","","","","","","","","","","","","","","","","","","","","","","","","","","","","",""
"","fixation","","html-keyboard-response","121","456978","0.0-72.0-0.0","0","0","wcLK5","Scenes","","null","","","null","","","","","","","","","","","","","","","","","","","","","","","","","","","","","","","","","","","","","","","","","","","",""
"","deliberation","","html-keyboard-response","122","457803","0.0-72.0-1.0","0","0","wcLK5","Scenes","","823","","","75","","","","16","141","132","0","1","80","82","sebastian-unrau-v4e3JI7DDHI-unsplash.jpg","meng-ji-8BH_M-53CyA-unsplash.jpg","2","0","132","141","","","","","","","","","","","","","","","","","","","","","","","","","","","",""
"","choice_confirmation","","html-keyboard-response","123","458309","0.0-72.0-2.0-0.0","0","0","wcLK5","Scenes","","null","","","null","","","","16","141","132","","","","","","","","","","","","","","","","","","","","","","","","","","","","","","","","","","","","","",""
"","fixation","","html-keyboard-response","124","459313","0.0-73.0-0.0","0","0","wcLK5","Scenes","","null","","","null","","","","","","","","","","","","","","","","","","","","","","","","","","","","","","","","","","","","","","","","","","","",""
"","deliberation","","html-keyboard-response","125","460109","0.0-73.0-1.0","0","0","wcLK5","Scenes","","794","","","75","","","","17","121","131","1","-1","78","73","jean-pierre-brungs-qxCqkbF7tUc-unsplash.jpg","luca-bravo-hFzIoD0F_i8-unsplash.jpg","2","0","131","121","","","","","","","","","","","","","","","","","","","","","","","","","","","",""
"","choice_confirmation","","html-keyboard-response","126","460620","0.0-73.0-2.0-0.0","0","0","wcLK5","Scenes","","null","","","null","","","","17","121","131","","","","","","","","","","","","","","","","","","","","","","","","","","","","","","","","","","","","","",""
"","explain_trial","","survey-text","127","471290","0.0-73.0-5.0-0.0","0","0","wcLK5","Scenes","","10668","{""Q0"":""The unique green color""}","","","","","","17","121","131","","","","","","","","","","","{""Q0"":""The unique green color""}","","","","","","","","","","","","","","","","","","","","","","","","","","",""
"","fixation","","html-keyboard-response","128","472301","0.0-74.0-0.0","0","0","wcLK5","Scenes","","null","","","null","","","","","","","","","","","","","","","","","","","","","","","","","","","","","","","","","","","","","","","","","","","",""
"","deliberation","","html-keyboard-response","129","474682","0.0-74.0-1.0","0","0","wcLK5","Scenes","","2378","","","75","","","","18","146","104","0","1","73","71","thomas-morse-cuKKa0vWZSY-unsplash.jpg","artem-sapegin-XGDBdSQ70O0-unsplash.jpg","2","0","104","146","","","","","","","","","","","","","","","","","","","","","","","","","","","",""
"","choice_confirmation","","html-keyboard-response","130","475199","0.0-74.0-2.0-0.0","0","0","wcLK5","Scenes","","null","","","null","","","","18","146","104","","","","","","","","","","","","","","","","","","","","","","","","","","","","","","","","","","","","","",""
"","fixation","","html-keyboard-response","131","476218","0.0-75.0-0.0","0","0","wcLK5","Scenes","","null","","","null","","","","","","","","","","","","","","","","","","","","","","","","","","","","","","","","","","","","","","","","","","","",""
"","deliberation","","html-keyboard-response","132","477132","0.0-75.0-1.0","0","0","wcLK5","Scenes","","912","","","68","","","","19","134","110","1","-1","85","77","milada-vigerova-pQMM63GE7fo-unsplash.jpg","bruno-van-der-kraan-qez8mNJ3ilU-unsplash.jpg","2","1","134","110","","","","","","","","","","","","","","","","","","","","","","","","","","","",""
"","choice_confirmation","","html-keyboard-response","133","477648","0.0-75.0-2.0-0.0","0","0","wcLK5","Scenes","","null","","","null","","","","19","134","110","","","","","","","","","","","","","","","","","","","","","","","","","","","","","","","","","","","","","",""
"","explain_trial","","survey-text","134","489212","0.0-75.0-5.0-0.0","0","0","wcLK5","Scenes","","11562","{""Q0"":""The beautiful waterfall""}","","","","","","19","134","110","","","","","","","","","","","{""Q0"":""The beautiful waterfall""}","","","","","","","","","","","","","","","","","","","","","","","","","","",""
"","fixation","","html-keyboard-response","135","490218","0.0-76.0-0.0","0","0","wcLK5","Scenes","","null","","","null","","","","","","","","","","","","","","","","","","","","","","","","","","","","","","","","","","","","","","","","","","","",""
"","deliberation","","html-keyboard-response","136","490988","0.0-76.0-1.0","0","0","wcLK5","Scenes","","767","","","68","","","","20","135","116","1","-1","71","86","mohammad-alizade-4wzRuAb-KWs-unsplash.jpg","david-marcu-W5MhJ6cy1So-unsplash.jpg","2","1","135","116","","","","","","","","","","","","","","","","","","","","","","","","","","","",""
"","choice_confirmation","","html-keyboard-response","137","491498","0.0-76.0-2.0-0.0","0","0","wcLK5","Scenes","","null","","","null","","","","20","135","116","","","","","","","","","","","","","","","","","","","","","","","","","","","","","","","","","","","","","",""
"","explain_trial","","survey-text","138","497335","0.0-76.0-5.0-0.0","0","0","wcLK5","Scenes","","5835","{""Q0"":""The night sky""}","","","","","","20","135","116","","","","","","","","","","","{""Q0"":""The night sky""}","","","","","","","","","","","","","","","","","","","","","","","","","","",""
"","fixation","","html-keyboard-response","139","498340","0.0-77.0-0.0","0","0","wcLK5","Scenes","","null","","","null","","","","","","","","","","","","","","","","","","","","","","","","","","","","","","","","","","","","","","","","","","","",""
"","deliberation","","html-keyboard-response","140","499128","0.0-77.0-1.0","0","0","wcLK5","Scenes","","785","","","68","","","","21","133","144","0","1","71","79","mickey-o-neil-xL66l--msXU-unsplash.jpg","solotravelgoals-7kLufxYoqWk-unsplash.jpg","2","1","133","144","","","","","","","","","","","","","","","","","","","","","","","","","","","",""
"","choice_confirmation","","html-keyboard-response","141","499643","0.0-77.0-2.0-0.0","0","0","wcLK5","Scenes","","null","","","null","","","","21","133","144","","","","","","","","","","","","","","","","","","","","","","","","","","","","","","","","","","","","","",""
"","fixation","","html-keyboard-response","142","500650","0.0-78.0-0.0","0","0","wcLK5","Scenes","","null","","","null","","","","","","","","","","","","","","","","","","","","","","","","","","","","","","","","","","","","","","","","","","","",""
"","deliberation","","html-keyboard-response","143","501554","0.0-78.0-1.0","0","0","wcLK5","Scenes","","903","","","75","","","","22","111","139","0","-1","79","82","claudio-testa-U3F2o6vz3bs-unsplash.jpg","samsommer-vddccTqwal8-unsplash.jpg","2","0","139","111","","","","","","","","","","","","","","","","","","","","","","","","","","","",""
"","choice_confirmation","","html-keyboard-response","144","502063","0.0-78.0-2.0-0.0","0","0","wcLK5","Scenes","","null","","","null","","","","22","111","139","","","","","","","","","","","","","","","","","","","","","","","","","","","","","","","","","","","","","",""
"","fixation","","html-keyboard-response","145","503089","0.0-79.0-0.0","0","0","wcLK5","Scenes","","null","","","null","","","","","","","","","","","","","","","","","","","","","","","","","","","","","","","","","","","","","","","","","","","",""
"","deliberation","","html-keyboard-response","146","504109","0.0-79.0-1.0","0","0","wcLK5","Scenes","","1018","","","75","","","","23","143","113","1","1","71","75","sigurdur-fjalar-jonsson-1KxBabIntpE-unsplash.jpg","damian-denis-D8R_txR_0PE-unsplash.jpg","2","0","113","143","","","","","","","","","","","","","","","","","","","","","","","","","","","",""
"","choice_confirmation","","html-keyboard-response","147","504631","0.0-79.0-2.0-0.0","0","0","wcLK5","Scenes","","null","","","null","","","","23","143","113","","","","","","","","","","","","","","","","","","","","","","","","","","","","","","","","","","","","","",""
"","explain_trial","","survey-text","148","515738","0.0-79.0-5.0-0.0","0","0","wcLK5","Scenes","","11105","{""Q0"":""The tree looks very artistic""}","","","","","","23","143","113","","","","","","","","","","","{""Q0"":""The tree looks very artistic""}","","","","","","","","","","","","","","","","","","","","","","","","","","",""
"","start_critical_deliberation_block","","html-keyboard-response","149","520699","0.0-79.0-7.0-0.0","0","0","wcLK5","Scenes","","4958","","","78","","","","","","","","","","","","","","","","","","","","","","","","","","","","","","","","","","","","","","","","","","","",""
"","fixation","","html-keyboard-response","150","521717","0.0-80.0-0.0","0","0","wcLK5","Scenes","","null","","","null","","","","","","","","","","","","","","","","","","","","","","","","","","","","","","","","","","","","","","","","","","","",""
"","deliberation","","html-keyboard-response","151","523638","0.0-80.0-1.0","0","0","wcLK5","Scenes","","1919","","","75","","","","24","143","113","0","1","71","75","sigurdur-fjalar-jonsson-1KxBabIntpE-unsplash.jpg","damian-denis-D8R_txR_0PE-unsplash.jpg","3","0","113","143","","","","","","","","","","","","","","","","","","","","","","","","","","","",""
"","choice_confirmation","","html-keyboard-response","152","524144","0.0-80.0-2.0-0.0","0","0","wcLK5","Scenes","","null","","","null","","","","24","143","113","","","","","","","","","","","","","","","","","","","","","","","","","","","","","","","","","","","","","",""
"","fixation","","html-keyboard-response","153","525148","0.0-81.0-0.0","0","0","wcLK5","Scenes","","null","","","null","","","","","","","","","","","","","","","","","","","","","","","","","","","","","","","","","","","","","","","","","","","",""
"","deliberation","","html-keyboard-response","154","525874","0.0-81.0-1.0","0","0","wcLK5","Scenes","","724","","","68","","","","25","145","129","0","1","86","76","stephen-leonardi-gyIRjKPXupE-unsplash.jpg","kurt-cotoaga-cqbLg3lZEpk-unsplash.jpg","3","1","145","129","","","","","","","","","","","","","","","","","","","","","","","","","","","",""
"","choice_confirmation","","html-keyboard-response","155","526379","0.0-81.0-2.0-0.0","0","0","wcLK5","Scenes","","null","","","null","","","","25","145","129","","","","","","","","","","","","","","","","","","","","","","","","","","","","","","","","","","","","","",""
"","fixation","","html-keyboard-response","156","527398","0.0-82.0-0.0","0","0","wcLK5","Scenes","","null","","","null","","","","","","","","","","","","","","","","","","","","","","","","","","","","","","","","","","","","","","","","","","","",""
"","deliberation","","html-keyboard-response","157","528083","0.0-82.0-1.0","0","0","wcLK5","Scenes","","683","","","75","","","","26","111","139","0","-1","79","82","claudio-testa-U3F2o6vz3bs-unsplash.jpg","samsommer-vddccTqwal8-unsplash.jpg","3","0","139","111","","","","","","","","","","","","","","","","","","","","","","","","","","","",""
"","choice_confirmation","","html-keyboard-response","158","528597","0.0-82.0-2.0-0.0","0","0","wcLK5","Scenes","","null","","","null","","","","26","111","139","","","","","","","","","","","","","","","","","","","","","","","","","","","","","","","","","","","","","",""
"","fixation","","html-keyboard-response","159","529604","0.0-83.0-0.0","0","0","wcLK5","Scenes","","null","","","null","","","","","","","","","","","","","","","","","","","","","","","","","","","","","","","","","","","","","","","","","","","",""
"","deliberation","","html-keyboard-response","160","530468","0.0-83.0-1.0","0","0","wcLK5","Scenes","","862","","","75","","","","27","141","132","0","1","80","82","sebastian-unrau-v4e3JI7DDHI-unsplash.jpg","meng-ji-8BH_M-53CyA-unsplash.jpg","3","0","132","141","","","","","","","","","","","","","","","","","","","","","","","","","","","",""
"","choice_confirmation","","html-keyboard-response","161","530982","0.0-83.0-2.0-0.0","0","0","wcLK5","Scenes","","null","","","null","","","","27","141","132","","","","","","","","","","","","","","","","","","","","","","","","","","","","","","","","","","","","","",""
"","fixation","","html-keyboard-response","162","531986","0.0-84.0-0.0","0","0","wcLK5","Scenes","","null","","","null","","","","","","","","","","","","","","","","","","","","","","","","","","","","","","","","","","","","","","","","","","","",""
"","deliberation","","html-keyboard-response","163","532903","0.0-84.0-1.0","0","0","wcLK5","Scenes","","917","","","75","","","","28","137","123","0","-1","71","77","olga-stalska-QaWRyEdlffY-unsplash.jpg","joel-jasmin-forestbird-efuwb5eBDrI-unsplash.jpg","3","0","123","137","","","","","","","","","","","","","","","","","","","","","","","","","","","",""
"","choice_confirmation","","html-keyboard-response","164","533418","0.0-84.0-2.0-0.0","0","0","wcLK5","Scenes","","null","","","null","","","","28","137","123","","","","","","","","","","","","","","","","","","","","","","","","","","","","","","","","","","","","","",""
"","fixation","","html-keyboard-response","165","534434","0.0-85.0-0.0","0","0","wcLK5","Scenes","","null","","","null","","","","","","","","","","","","","","","","","","","","","","","","","","","","","","","","","","","","","","","","","","","",""
"","deliberation","","html-keyboard-response","166","535058","0.0-85.0-1.0","0","0","wcLK5","Scenes","","622","","","68","","","","29","135","116","0","-1","71","86","mohammad-alizade-4wzRuAb-KWs-unsplash.jpg","david-marcu-W5MhJ6cy1So-unsplash.jpg","3","1","135","116","","","","","","","","","","","","","","","","","","","","","","","","","","","",""
"","choice_confirmation","","html-keyboard-response","167","535572","0.0-85.0-2.0-0.0","0","0","wcLK5","Scenes","","null","","","null","","","","29","135","116","","","","","","","","","","","","","","","","","","","","","","","","","","","","","","","","","","","","","",""
"","fixation","","html-keyboard-response","168","536590","0.0-86.0-0.0","0","0","wcLK5","Scenes","","null","","","null","","","","","","","","","","","","","","","","","","","","","","","","","","","","","","","","","","","","","","","","","","","",""
"","deliberation","","html-keyboard-response","169","537205","0.0-86.0-1.0","0","0","wcLK5","Scenes","","613","","","68","","","","30","134","110","0","-1","85","77","milada-vigerova-pQMM63GE7fo-unsplash.jpg","bruno-van-der-kraan-qez8mNJ3ilU-unsplash.jpg","3","1","134","110","","","","","","","","","","","","","","","","","","","","","","","","","","","",""
"","choice_confirmation","","html-keyboard-response","170","537712","0.0-86.0-2.0-0.0","0","0","wcLK5","Scenes","","null","","","null","","","","30","134","110","","","","","","","","","","","","","","","","","","","","","","","","","","","","","","","","","","","","","",""
"","fixation","","html-keyboard-response","171","538734","0.0-87.0-0.0","0","0","wcLK5","Scenes","","null","","","null","","","","","","","","","","","","","","","","","","","","","","","","","","","","","","","","","","","","","","","","","","","",""
"","deliberation","","html-keyboard-response","172","539550","0.0-87.0-1.0","0","0","wcLK5","Scenes","","814","","","75","","","","31","146","104","0","1","73","71","thomas-morse-cuKKa0vWZSY-unsplash.jpg","artem-sapegin-XGDBdSQ70O0-unsplash.jpg","3","0","104","146","","","","","","","","","","","","","","","","","","","","","","","","","","","",""
"","choice_confirmation","","html-keyboard-response","173","540064","0.0-87.0-2.0-0.0","0","0","wcLK5","Scenes","","null","","","null","","","","31","146","104","","","","","","","","","","","","","","","","","","","","","","","","","","","","","","","","","","","","","",""
"","fixation","","html-keyboard-response","174","541076","0.0-88.0-0.0","0","0","wcLK5","Scenes","","null","","","null","","","","","","","","","","","","","","","","","","","","","","","","","","","","","","","","","","","","","","","","","","","",""
"","deliberation","","html-keyboard-response","175","542055","0.0-88.0-1.0","0","0","wcLK5","Scenes","","978","","","68","","","","32","107","130","0","1","71","70","benjamin-davies-Zm2n2O7Fph4-unsplash.jpg","lina-loos-04-C1NZk1hE-unsplash.jpg","3","1","107","130","","","","","","","","","","","","","","","","","","","","","","","","","","","",""
"","choice_confirmation","","html-keyboard-response","176","542572","0.0-88.0-2.0-0.0","0","0","wcLK5","Scenes","","null","","","null","","","","32","107","130","","","","","","","","","","","","","","","","","","","","","","","","","","","","","","","","","","","","","",""
"","fixation","","html-keyboard-response","177","543585","0.0-89.0-0.0","0","0","wcLK5","Scenes","","null","","","null","","","","","","","","","","","","","","","","","","","","","","","","","","","","","","","","","","","","","","","","","","","",""
"","deliberation","","html-keyboard-response","178","544339","0.0-89.0-1.0","0","0","wcLK5","Scenes","","752","","","75","","","","33","103","100","0","-1","73","73","anton-darius-FBJugtbHsWU-unsplash.jpg","aleksandra-boguslawska-MS7KD9Ti7FQ-unsplash.jpg","3","0","100","103","","","","","","","","","","","","","","","","","","","","","","","","","","","",""
"","choice_confirmation","","html-keyboard-response","179","544843","0.0-89.0-2.0-0.0","0","0","wcLK5","Scenes","","null","","","null","","","","33","103","100","","","","","","","","","","","","","","","","","","","","","","","","","","","","","","","","","","","","","",""
"","fixation","","html-keyboard-response","180","545854","0.0-90.0-0.0","0","0","wcLK5","Scenes","","null","","","null","","","","","","","","","","","","","","","","","","","","","","","","","","","","","","","","","","","","","","","","","","","",""
"","deliberation","","html-keyboard-response","181","546545","0.0-90.0-1.0","0","0","wcLK5","Scenes","","689","","","68","","","","34","133","144","0","1","71","79","mickey-o-neil-xL66l--msXU-unsplash.jpg","solotravelgoals-7kLufxYoqWk-unsplash.jpg","3","1","133","144","","","","","","","","","","","","","","","","","","","","","","","","","","","",""
"","choice_confirmation","","html-keyboard-response","182","547054","0.0-90.0-2.0-0.0","0","0","wcLK5","Scenes","","null","","","null","","","","34","133","144","","","","","","","","","","","","","","","","","","","","","","","","","","","","","","","","","","","","","",""
"","fixation","","html-keyboard-response","183","548062","0.0-91.0-0.0","0","0","wcLK5","Scenes","","null","","","null","","","","","","","","","","","","","","","","","","","","","","","","","","","","","","","","","","","","","","","","","","","",""
"","deliberation","","html-keyboard-response","184","548700","0.0-91.0-1.0","0","0","wcLK5","Scenes","","635","","","75","","","","35","121","131","0","-1","78","73","jean-pierre-brungs-qxCqkbF7tUc-unsplash.jpg","luca-bravo-hFzIoD0F_i8-unsplash.jpg","3","0","131","121","","","","","","","","","","","","","","","","","","","","","","","","","","","",""
"","choice_confirmation","","html-keyboard-response","185","549215","0.0-91.0-2.0-0.0","0","0","wcLK5","Scenes","","null","","","null","","","","35","121","131","","","","","","","","","","","","","","","","","","","","","","","","","","","","","","","","","","","","","",""
"","reward_learning_instructions","","instructions","186","600001","0.0-92.0-0.0","0","0","wcLK5","Scenes","[{""page_index"":0,""viewing_time"":27955},{""page_index"":1,""viewing_time"":20947},{""page_index"":2,""viewing_time"":1881}]","50783","","","","","","","","","","","","","","","","","","","","","","","","","","","","","","","","","","","","","","","","","","","","","","",""
"","reward_comprehension_check","","survey-multi-choice","187","614716","0.0-92.0-1.0","0","0","wcLK5","Scenes","","14711","{""Q0"":""True"",""Q1"":""True"",""Q2"":""Press the space bar to see its outcome"",""Q3"":""Press the relevant key while the outcome is presented""}","0","","","","","","","","","","","","","","","","","","","","","","","","","","","","","","","","","","","","","","","","","","","","",""
"","start_phase","","html-keyboard-response","188","618309","0.0-93.0","0","0","wcLK5","Scenes","","3590","","","78","","","","","","","","","","","","","","","","","","","","","","","","","","","","","","","","","","","","","","","","","","","",""
"","fixation","","html-keyboard-response","189","619325","0.0-94.0","0","0","wcLK5","Scenes","","null","","","null","","","","","","","","","","","","","","","","","","","","","","","","","","","","","","","","","","","","","","","","","","","",""
"","see_reward","","html-keyboard-response","190","621034","0.0-95.0","0","0","wcLK5","Scenes","","1707","","","32","","134","","0","","","","-1","","","","","1","","","","","0","1707","","","","","","","","","","","","","","","","","","","","","","","","",""
"","reward_outcome","","html-keyboard-response","191","623044","0.0-96.0","0","0","wcLK5","Scenes","","null","","","null","","134","","0","","","","","","","","","","","","","","","","NaN","null","","","","","","","","","","","","","","","","","","","","","","",""
"","respond_faster","","html-keyboard-response","192","624553","0.0-97.0-0.0","1","0","wcLK5","Scenes","","null","","","null","","","","","","","","","","","","","","","","","","","","","","","","","","","","","","","","","","","","","","","","","","","",""
"","fixation","","html-keyboard-response","193","625565","0.0-99.0","0","0","wcLK5","Scenes","","null","","","null","","","","","","","","","","","","","","","","","","","","","","","","","","","","","","","","","","","","","","","","","","","",""
"","see_reward","","html-keyboard-response","194","626739","0.0-100.0","0","0","wcLK5","Scenes","","1173","","","32","","123","","1","","","","-1","","","","","1","","","","","0","1173","","","","","","","","","","","","","","","","","","","","","","","","",""
"","reward_outcome","","html-keyboard-response","195","628749","0.0-101.0","0","0","wcLK5","Scenes","","null","","","null","","123","","1","","","","","","","","","","","","","","","","NaN","null","","","","","","","","","","","","","","","","","","","","","","",""
"","respond_faster","","html-keyboard-response","196","630256","0.0-102.0-0.0","1","0","wcLK5","Scenes","","null","","","null","","","","","","","","","","","","","","","","","","","","","","","","","","","","","","","","","","","","","","","","","","","",""
"","fixation","","html-keyboard-response","197","631277","0.0-104.0","0","0","wcLK5","Scenes","","null","","","null","","","","","","","","","","","","","","","","","","","","","","","","","","","","","","","","","","","","","","","","","","","",""
"","see_reward","","html-keyboard-response","198","632755","0.0-105.0","0","0","wcLK5","Scenes","","1477","","","32","","107","","2","","","","1","","","","","1","","","","","146","1477","","","","","","","","","","","","","","","","","","","","","","","","",""
"","reward_outcome","","html-keyboard-response","199","634768","0.0-106.0","0","0","wcLK5","Scenes","","985","","","38","","107","","2","","","","","","","","","","","","","","","","1","985","","","","","","","","","","","","","","","","","","","","","","",""
"","fixation","","html-keyboard-response","200","635792","0.0-109.0","0","0","wcLK5","Scenes","","null","","","null","","","","","","","","","","","","","","","","","","","","","","","","","","","","","","","","","","","","","","","","","","","",""
"","see_reward","","html-keyboard-response","201","636920","0.0-110.0","0","0","wcLK5","Scenes","","1126","","","32","","113","","3","","","","1","","","","","1","","","","","150","1126","","","","","","","","","","","","","","","","","","","","","","","","",""
"","reward_outcome","","html-keyboard-response","202","638940","0.0-111.0","0","0","wcLK5","Scenes","","1011","","","38","","113","","3","","","","","","","","","","","","","","","","1","1011","","","","","","","","","","","","","","","","","","","","","","",""
"","fixation","","html-keyboard-response","203","639953","0.0-114.0","0","0","wcLK5","Scenes","","null","","","null","","","","","","","","","","","","","","","","","","","","","","","","","","","","","","","","","","","","","","","","","","","",""
"","see_reward","","html-keyboard-response","204","640865","0.0-115.0","0","0","wcLK5","Scenes","","909","","","32","","104","","4","","","","1","","","","","1","","","","","151","909","","","","","","","","","","","","","","","","","","","","","","","","",""
"","reward_outcome","","html-keyboard-response","205","642873","0.0-116.0","0","0","wcLK5","Scenes","","595","","","38","","104","","4","","","","","","","","","","","","","","","","1","595","","","","","","","","","","","","","","","","","","","","","","",""
"","fixation","","html-keyboard-response","206","643883","0.0-119.0","0","0","wcLK5","Scenes","","null","","","null","","","","","","","","","","","","","","","","","","","","","","","","","","","","","","","","","","","","","","","","","","","",""
"","see_reward","","html-keyboard-response","207","644227","0.0-120.0","0","0","wcLK5","Scenes","","342","","","32","","145","","5","","","","1","","","","","1","","","","","153","342","","","","","","","","","","","","","","","","","","","","","","","","",""
"","reward_outcome","","html-keyboard-response","208","646236","0.0-121.0","0","0","wcLK5","Scenes","","448","","","38","","145","","5","","","","","","","","","","","","","","","","1","448","","","","","","","","","","","","","","","","","","","","","","",""
"","fixation","","html-keyboard-response","209","647247","0.0-124.0","0","0","wcLK5","Scenes","","null","","","null","","","","","","","","","","","","","","","","","","","","","","","","","","","","","","","","","","","","","","","","","","","",""
"","see_reward","","html-keyboard-response","210","647615","0.0-125.0","0","0","wcLK5","Scenes","","366","","","32","","134","","6","","","","-1","","","","","1","","","","","0","366","","","","","","","","","","","","","","","","","","","","","","","","",""
"","reward_outcome","","html-keyboard-response","211","649629","0.0-126.0","0","0","wcLK5","Scenes","","null","","","null","","134","","6","","","","","","","","","","","","","","","","NaN","null","","","","","","","","","","","","","","","","","","","","","","",""
"","respond_faster","","html-keyboard-response","212","651137","0.0-127.0-0.0","1","0","wcLK5","Scenes","","null","","","null","","","","","","","","","","","","","","","","","","","","","","","","","","","","","","","","","","","","","","","","","","","",""
"","fixation","","html-keyboard-response","213","652149","0.0-129.0","0","0","wcLK5","Scenes","","null","","","null","","","","","","","","","","","","","","","","","","","","","","","","","","","","","","","","","","","","","","","","","","","",""
"","see_reward","","html-keyboard-response","214","652920","0.0-130.0","0","0","wcLK5","Scenes","","769","","","32","","107","","7","","","","1","","","","","1","","","","","146","769","","","","","","","","","","","","","","","","","","","","","","","","",""
"","reward_outcome","","html-keyboard-response","215","654941","0.0-131.0","0","0","wcLK5","Scenes","","520","","","38","","107","","7","","","","","","","","","","","","","","","","1","520","","","","","","","","","","","","","","","","","","","","","","",""
"","fixation","","html-keyboard-response","216","655955","0.0-134.0","0","0","wcLK5","Scenes","","null","","","null","","","","","","","","","","","","","","","","","","","","","","","","","","","","","","","","","","","","","","","","","","","",""
"","see_reward","","html-keyboard-response","217","656690","0.0-135.0","0","0","wcLK5","Scenes","","733","","","32","","139","","8","","","","-1","","","","","1","","","","","0","733","","","","","","","","","","","","","","","","","","","","","","","","",""
"","reward_outcome","","html-keyboard-response","218","658711","0.0-136.0","0","0","wcLK5","Scenes","","559","","","40","","139","","8","","","","","","","","","","","","","","","","-1","559","","","","","","","","","","","","","","","","","","","","","","",""
"","fixation","","html-keyboard-response","219","659736","0.0-139.0","0","0","wcLK5","Scenes","","null","","","null","","","","","","","","","","","","","","","","","","","","","","","","","","","","","","","","","","","","","","","","","","","",""
"","see_reward","","html-keyboard-response","220","660943","0.0-140.0","0","0","wcLK5","Scenes","","1205","","","32","","131","","9","","","","-1","","","","","1","","","","","0","1205","","","","","","","","","","","","","","","","","","","","","","","","",""
"","reward_outcome","","html-keyboard-response","221","662951","0.0-141.0","0","0","wcLK5","Scenes","","1098","","","40","","131","","9","","","","","","","","","","","","","","","","-1","1098","","","","","","","","","","","","","","","","","","","","","","",""
"","fixation","","html-keyboard-response","222","663974","0.0-144.0","0","0","wcLK5","Scenes","","null","","","null","","","","","","","","","","","","","","","","","","","","","","","","","","","","","","","","","","","","","","","","","","","",""
"","see_reward","","html-keyboard-response","223","664398","0.0-145.0","0","0","wcLK5","Scenes","","421","","","32","","131","","10","","","","-1","","","","","1","","","","","0","421","","","","","","","","","","","","","","","","","","","","","","","","",""
"","reward_outcome","","html-keyboard-response","224","666409","0.0-146.0","0","0","wcLK5","Scenes","","1865","","","40","","131","","10","","","","","","","","","","","","","","","","-1","1865","","","","","","","","","","","","","","","","","","","","","","",""
"","fixation","","html-keyboard-response","225","667428","0.0-149.0","0","0","wcLK5","Scenes","","null","","","null","","","","","","","","","","","","","","","","","","","","","","","","","","","","","","","","","","","","","","","","","","","",""
"","see_reward","","html-keyboard-response","226","668105","0.0-150.0","0","0","wcLK5","Scenes","","675","","","32","","132","","11","","","","1","","","","","1","","","","","145","675","","","","","","","","","","","","","","","","","","","","","","","","",""
"","reward_outcome","","html-keyboard-response","227","670115","0.0-151.0","0","0","wcLK5","Scenes","","454","","","40","","132","","11","","","","","","","","","","","","","","","","-1","454","","","","","","","","","","","","","","","","","","","","","","",""
"","fixation","","html-keyboard-response","228","671122","0.0-154.0","0","0","wcLK5","Scenes","","null","","","null","","","","","","","","","","","","","","","","","","","","","","","","","","","","","","","","","","","","","","","","","","","",""
"","see_reward","","html-keyboard-response","229","671911","0.0-155.0","0","0","wcLK5","Scenes","","787","","","32","","100","","12","","","","-1","","","","","1","","","","","0","787","","","","","","","","","","","","","","","","","","","","","","","","",""
"","reward_outcome","","html-keyboard-response","230","673932","0.0-156.0","0","0","wcLK5","Scenes","","922","","","38","","100","","12","","","","","","","","","","","","","","","","1","922","","","","","","","","","","","","","","","","","","","","","","",""
"","fixation","","html-keyboard-response","231","674944","0.0-159.0","0","0","wcLK5","Scenes","","null","","","null","","","","","","","","","","","","","","","","","","","","","","","","","","","","","","","","","","","","","","","","","","","",""
"","see_reward","","html-keyboard-response","232","675599","0.0-160.0","0","0","wcLK5","Scenes","","653","","","32","","145","","13","","","","1","","","","","1","","","","","153","653","","","","","","","","","","","","","","","","","","","","","","","","",""
"","reward_outcome","","html-keyboard-response","233","677625","0.0-161.0","0","0","wcLK5","Scenes","","511","","","38","","145","","13","","","","","","","","","","","","","","","","1","511","","","","","","","","","","","","","","","","","","","","","","",""
"","fixation","","html-keyboard-response","234","678636","0.0-164.0","0","0","wcLK5","Scenes","","null","","","null","","","","","","","","","","","","","","","","","","","","","","","","","","","","","","","","","","","","","","","","","","","",""
"","see_reward","","html-keyboard-response","235","679065","0.0-165.0","0","0","wcLK5","Scenes","","427","","","32","","100","","14","","","","-1","","","","","1","","","","","0","427","","","","","","","","","","","","","","","","","","","","","","","","",""
"","reward_outcome","","html-keyboard-response","236","681082","0.0-166.0","0","0","wcLK5","Scenes","","437","","","40","","100","","14","","","","","","","","","","","","","","","","-1","437","","","","","","","","","","","","","","","","","","","","","","",""
"","fixation","","html-keyboard-response","237","682098","0.0-169.0","0","0","wcLK5","Scenes","","null","","","null","","","","","","","","","","","","","","","","","","","","","","","","","","","","","","","","","","","","","","","","","","","",""
"","see_reward","","html-keyboard-response","238","682688","0.0-170.0","0","0","wcLK5","Scenes","","588","","","32","","133","","15","","","","1","","","","","1","","","","","157","588","","","","","","","","","","","","","","","","","","","","","","","","",""
"","reward_outcome","","html-keyboard-response","239","684702","0.0-171.0","0","0","wcLK5","Scenes","","597","","","38","","133","","15","","","","","","","","","","","","","","","","1","597","","","","","","","","","","","","","","","","","","","","","","",""
"","fixation","","html-keyboard-response","240","685706","0.0-174.0","0","0","wcLK5","Scenes","","null","","","null","","","","","","","","","","","","","","","","","","","","","","","","","","","","","","","","","","","","","","","","","","","",""
"","see_reward","","html-keyboard-response","241","686099","0.0-175.0","0","0","wcLK5","Scenes","","391","","","32","","133","","16","","","","1","","","","","1","","","","","157","391","","","","","","","","","","","","","","","","","","","","","","","","",""
"","reward_outcome","","html-keyboard-response","242","688112","0.0-176.0","0","0","wcLK5","Scenes","","489","","","38","","133","","16","","","","","","","","","","","","","","","","1","489","","","","","","","","","","","","","","","","","","","","","","",""
"","fixation","","html-keyboard-response","243","689133","0.0-179.0","0","0","wcLK5","Scenes","","null","","","null","","","","","","","","","","","","","","","","","","","","","","","","","","","","","","","","","","","","","","","","","","","",""
"","see_reward","","html-keyboard-response","244","689574","0.0-180.0","0","0","wcLK5","Scenes","","440","","","32","","135","","17","","","","-1","","","","","1","","","","","0","440","","","","","","","","","","","","","","","","","","","","","","","","",""
"","reward_outcome","","html-keyboard-response","245","691591","0.0-181.0","0","0","wcLK5","Scenes","","503","","","40","","135","","17","","","","","","","","","","","","","","","","-1","503","","","","","","","","","","","","","","","","","","","","","","",""
"","fixation","","html-keyboard-response","246","692614","0.0-184.0","0","0","wcLK5","Scenes","","null","","","null","","","","","","","","","","","","","","","","","","","","","","","","","","","","","","","","","","","","","","","","","","","",""
"","see_reward","","html-keyboard-response","247","693011","0.0-185.0","0","0","wcLK5","Scenes","","395","","","32","","132","","18","","","","1","","","","","1","","","","","145","395","","","","","","","","","","","","","","","","","","","","","","","","",""
"","reward_outcome","","html-keyboard-response","248","695021","0.0-186.0","0","0","wcLK5","Scenes","","622","","","38","","132","","18","","","","","","","","","","","","","","","","1","622","","","","","","","","","","","","","","","","","","","","","","",""
"","fixation","","html-keyboard-response","249","696039","0.0-189.0","0","0","wcLK5","Scenes","","null","","","null","","","","","","","","","","","","","","","","","","","","","","","","","","","","","","","","","","","","","","","","","","","",""
"","see_reward","","html-keyboard-response","250","696441","0.0-190.0","0","0","wcLK5","Scenes","","400","","","32","","139","","19","","","","-1","","","","","1","","","","","0","400","","","","","","","","","","","","","","","","","","","","","","","","",""
"","reward_outcome","","html-keyboard-response","251","698449","0.0-191.0","0","0","wcLK5","Scenes","","538","","","40","","139","","19","","","","","","","","","","","","","","","","-1","538","","","","","","","","","","","","","","","","","","","","","","",""
"","fixation","","html-keyboard-response","252","699472","0.0-194.0","0","0","wcLK5","Scenes","","null","","","null","","","","","","","","","","","","","","","","","","","","","","","","","","","","","","","","","","","","","","","","","","","",""
"","see_reward","","html-keyboard-response","253","700004","0.0-195.0","0","0","wcLK5","Scenes","","530","","","32","","123","","20","","","","-1","","","","","1","","","","","0","530","","","","","","","","","","","","","","","","","","","","","","","","",""
"","reward_outcome","","html-keyboard-response","254","702024","0.0-196.0","0","0","wcLK5","Scenes","","623","","","40","","123","","20","","","","","","","","","","","","","","","","-1","623","","","","","","","","","","","","","","","","","","","","","","",""
"","fixation","","html-keyboard-response","255","703046","0.0-199.0","0","0","wcLK5","Scenes","","null","","","null","","","","","","","","","","","","","","","","","","","","","","","","","","","","","","","","","","","","","","","","","","","",""
"","see_reward","","html-keyboard-response","256","703408","0.0-200.0","0","0","wcLK5","Scenes","","361","","","32","","135","","21","","","","-1","","","","","1","","","","","0","361","","","","","","","","","","","","","","","","","","","","","","","","",""
"","reward_outcome","","html-keyboard-response","257","705420","0.0-201.0","0","0","wcLK5","Scenes","","605","","","40","","135","","21","","","","","","","","","","","","","","","","-1","605","","","","","","","","","","","","","","","","","","","","","","",""
"","fixation","","html-keyboard-response","258","706429","0.0-204.0","0","0","wcLK5","Scenes","","null","","","null","","","","","","","","","","","","","","","","","","","","","","","","","","","","","","","","","","","","","","","","","","","",""
"","see_reward","","html-keyboard-response","259","707041","0.0-205.0","0","0","wcLK5","Scenes","","610","","","32","","113","","22","","","","1","","","","","1","","","","","150","610","","","","","","","","","","","","","","","","","","","","","","","","",""
"","reward_outcome","","html-keyboard-response","260","709045","0.0-206.0","0","0","wcLK5","Scenes","","431","","","38","","113","","22","","","","","","","","","","","","","","","","1","431","","","","","","","","","","","","","","","","","","","","","","",""
"","fixation","","html-keyboard-response","261","710049","0.0-209.0","0","0","wcLK5","Scenes","","null","","","null","","","","","","","","","","","","","","","","","","","","","","","","","","","","","","","","","","","","","","","","","","","",""
"","see_reward","","html-keyboard-response","262","710611","0.0-210.0","0","0","wcLK5","Scenes","","560","","","32","","104","","23","","","","1","","","","","1","","","","","151","560","","","","","","","","","","","","","","","","","","","","","","","","",""
"","reward_outcome","","html-keyboard-response","263","712620","0.0-211.0","0","0","wcLK5","Scenes","","559","","","38","","104","","23","","","","","","","","","","","","","","","","1","559","","","","","","","","","","","","","","","","","","","","","","",""
"","block_over","","html-keyboard-response","264","732238","0.0-213.0-0.0","0","0","wcLK5","Scenes","","19616","","","78","","","","","","","","","","","","","","","","","","","","","","","","","","","","","","","","","","","","","","","","","","","",""
"","fixation","","html-keyboard-response","265","733242","0.0-214.0","0","0","wcLK5","Scenes","","null","","","null","","","","","","","","","","","","","","","","","","","","","","","","","","","","","","","","","","","","","","","","","","","",""
"","see_reward","","html-keyboard-response","266","733860","0.0-215.0","0","0","wcLK5","Scenes","","617","","","32","","131","","24","","","","-1","","","","","2","","","","","0","617","","","","","","","","","","","","","","","","","","","","","","","","",""
"","reward_outcome","","html-keyboard-response","267","735866","0.0-216.0","0","0","wcLK5","Scenes","","1040","","","40","","131","","24","","","","","","","","","","","","","","","","-1","1040","","","","","","","","","","","","","","","","","","","","","","",""
"","fixation","","html-keyboard-response","268","736878","0.0-219.0","0","0","wcLK5","Scenes","","null","","","null","","","","","","","","","","","","","","","","","","","","","","","","","","","","","","","","","","","","","","","","","","","",""
"","see_reward","","html-keyboard-response","269","737212","0.0-220.0","0","0","wcLK5","Scenes","","332","","","32","","135","","25","","","","-1","","","","","2","","","","","0","332","","","","","","","","","","","","","","","","","","","","","","","","",""
"","reward_outcome","","html-keyboard-response","270","739219","0.0-221.0","0","0","wcLK5","Scenes","","589","","","40","","135","","25","","","","","","","","","","","","","","","","-1","589","","","","","","","","","","","","","","","","","","","","","","",""
"","fixation","","html-keyboard-response","271","740226","0.0-224.0","0","0","wcLK5","Scenes","","null","","","null","","","","","","","","","","","","","","","","","","","","","","","","","","","","","","","","","","","","","","","","","","","",""
"","see_reward","","html-keyboard-response","272","740521","0.0-225.0","0","0","wcLK5","Scenes","","293","","","32","","135","","26","","","","-1","","","","","2","","","","","0","293","","","","","","","","","","","","","","","","","","","","","","","","",""
"","reward_outcome","","html-keyboard-response","273","742541","0.0-226.0","0","0","wcLK5","Scenes","","446","","","40","","135","","26","","","","","","","","","","","","","","","","-1","446","","","","","","","","","","","","","","","","","","","","","","",""
"","fixation","","html-keyboard-response","274","743558","0.0-229.0","0","0","wcLK5","Scenes","","null","","","null","","","","","","","","","","","","","","","","","","","","","","","","","","","","","","","","","","","","","","","","","","","",""
"","see_reward","","html-keyboard-response","275","743892","0.0-230.0","0","0","wcLK5","Scenes","","333","","","32","","134","","27","","","","-1","","","","","2","","","","","0","333","","","","","","","","","","","","","","","","","","","","","","","","",""
"","reward_outcome","","html-keyboard-response","276","745906","0.0-231.0","0","0","wcLK5","Scenes","","399","","","40","","134","","27","","","","","","","","","","","","","","","","-1","399","","","","","","","","","","","","","","","","","","","","","","",""
"","fixation","","html-keyboard-response","277","746915","0.0-234.0","0","0","wcLK5","Scenes","","null","","","null","","","","","","","","","","","","","","","","","","","","","","","","","","","","","","","","","","","","","","","","","","","",""
"","see_reward","","html-keyboard-response","278","747947","0.0-235.0","0","0","wcLK5","Scenes","","1030","","","32","","132","","28","","","","1","","","","","2","","","","","145","1030","","","","","","","","","","","","","","","","","","","","","","","","",""
"","reward_outcome","","html-keyboard-response","279","749962","0.0-236.0","0","0","wcLK5","Scenes","","663","","","38","","132","","28","","","","","","","","","","","","","","","","1","663","","","","","","","","","","","","","","","","","","","","","","",""
"","fixation","","html-keyboard-response","280","750976","0.0-239.0","0","0","wcLK5","Scenes","","null","","","null","","","","","","","","","","","","","","","","","","","","","","","","","","","","","","","","","","","","","","","","","","","",""
"","see_reward","","html-keyboard-response","281","751323","0.0-240.0","0","0","wcLK5","Scenes","","346","","","32","","145","","29","","","","1","","","","","2","","","","","153","346","","","","","","","","","","","","","","","","","","","","","","","","",""
"","reward_outcome","","html-keyboard-response","282","753341","0.0-241.0","0","0","wcLK5","Scenes","","685","","","38","","145","","29","","","","","","","","","","","","","","","","1","685","","","","","","","","","","","","","","","","","","","","","","",""
"","fixation","","html-keyboard-response","283","754357","0.0-244.0","0","0","wcLK5","Scenes","","null","","","null","","","","","","","","","","","","","","","","","","","","","","","","","","","","","","","","","","","","","","","","","","","",""
"","see_reward","","html-keyboard-response","284","754657","0.0-245.0","0","0","wcLK5","Scenes","","297","","","32","","113","","30","","","","1","","","","","2","","","","","150","297","","","","","","","","","","","","","","","","","","","","","","","","",""
"","reward_outcome","","html-keyboard-response","285","756674","0.0-246.0","0","0","wcLK5","Scenes","","449","","","38","","113","","30","","","","","","","","","","","","","","","","1","449","","","","","","","","","","","","","","","","","","","","","","",""
"","fixation","","html-keyboard-response","286","757689","0.0-249.0","0","0","wcLK5","Scenes","","null","","","null","","","","","","","","","","","","","","","","","","","","","","","","","","","","","","","","","","","","","","","","","","","",""
"","see_reward","","html-keyboard-response","287","758017","0.0-250.0","0","0","wcLK5","Scenes","","326","","","32","","104","","31","","","","1","","","","","2","","","","","151","326","","","","","","","","","","","","","","","","","","","","","","","","",""
"","reward_outcome","","html-keyboard-response","288","760030","0.0-251.0","0","0","wcLK5","Scenes","","435","","","38","","104","","31","","","","","","","","","","","","","","","","1","435","","","","","","","","","","","","","","","","","","","","","","",""
"","fixation","","html-keyboard-response","289","761044","0.0-254.0","0","0","wcLK5","Scenes","","null","","","null","","","","","","","","","","","","","","","","","","","","","","","","","","","","","","","","","","","","","","","","","","","",""
"","see_reward","","html-keyboard-response","290","761340","0.0-255.0","0","0","wcLK5","Scenes","","296","","","32","","132","","32","","","","1","","","","","2","","","","","145","296","","","","","","","","","","","","","","","","","","","","","","","","",""
"","reward_outcome","","html-keyboard-response","291","763346","0.0-256.0","0","0","wcLK5","Scenes","","411","","","38","","132","","32","","","","","","","","","","","","","","","","1","411","","","","","","","","","","","","","","","","","","","","","","",""
"","fixation","","html-keyboard-response","292","764356","0.0-259.0","0","0","wcLK5","Scenes","","null","","","null","","","","","","","","","","","","","","","","","","","","","","","","","","","","","","","","","","","","","","","","","","","",""
"","see_reward","","html-keyboard-response","293","764696","0.0-260.0","0","0","wcLK5","Scenes","","338","","","32","","104","","33","","","","1","","","","","2","","","","","151","338","","","","","","","","","","","","","","","","","","","","","","","","",""
"","reward_outcome","","html-keyboard-response","294","766719","0.0-261.0","0","0","wcLK5","Scenes","","441","","","38","","104","","33","","","","","","","","","","","","","","","","1","441","","","","","","","","","","","","","","","","","","","","","","",""
"","fixation","","html-keyboard-response","295","767734","0.0-264.0","0","0","wcLK5","Scenes","","null","","","null","","","","","","","","","","","","","","","","","","","","","","","","","","","","","","","","","","","","","","","","","","","",""
"","see_reward","","html-keyboard-response","296","768078","0.0-265.0","0","0","wcLK5","Scenes","","341","","","32","","133","","34","","","","1","","","","","2","","","","","157","341","","","","","","","","","","","","","","","","","","","","","","","","",""
"","reward_outcome","","html-keyboard-response","297","770086","0.0-266.0","0","0","wcLK5","Scenes","","381","","","38","","133","","34","","","","","","","","","","","","","","","","1","381","","","","","","","","","","","","","","","","","","","","","","",""
"","fixation","","html-keyboard-response","298","771099","0.0-269.0","0","0","wcLK5","Scenes","","null","","","null","","","","","","","","","","","","","","","","","","","","","","","","","","","","","","","","","","","","","","","","","","","",""
"","see_reward","","html-keyboard-response","299","771376","0.0-270.0","0","0","wcLK5","Scenes","","275","","","32","","123","","35","","","","-1","","","","","2","","","","","0","275","","","","","","","","","","","","","","","","","","","","","","","","",""
"","reward_outcome","","html-keyboard-response","300","773395","0.0-271.0","0","0","wcLK5","Scenes","","491","","","40","","123","","35","","","","","","","","","","","","","","","","-1","491","","","","","","","","","","","","","","","","","","","","","","",""
"","fixation","","html-keyboard-response","301","774405","0.0-274.0","0","0","wcLK5","Scenes","","null","","","null","","","","","","","","","","","","","","","","","","","","","","","","","","","","","","","","","","","","","","","","","","","",""
"","see_reward","","html-keyboard-response","302","774570","0.0-275.0","0","0","wcLK5","Scenes","","163","","","32","","133","","36","","","","1","","","","","2","","","","","157","163","","","","","","","","","","","","","","","","","","","","","","","","",""
"","reward_outcome","","html-keyboard-response","303","776593","0.0-276.0","0","0","wcLK5","Scenes","","533","","","38","","133","","36","","","","","","","","","","","","","","","","1","533","","","","","","","","","","","","","","","","","","","","","","",""
"","fixation","","html-keyboard-response","304","777610","0.0-279.0","0","0","wcLK5","Scenes","","null","","","null","","","","","","","","","","","","","","","","","","","","","","","","","","","","","","","","","","","","","","","","","","","",""
"","see_reward","","html-keyboard-response","305","778092","0.0-280.0","0","0","wcLK5","Scenes","","481","","","32","","131","","37","","","","-1","","","","","2","","","","","0","481","","","","","","","","","","","","","","","","","","","","","","","","",""
"","reward_outcome","","html-keyboard-response","306","780099","0.0-281.0","0","0","wcLK5","Scenes","","436","","","40","","131","","37","","","","","","","","","","","","","","","","-1","436","","","","","","","","","","","","","","","","","","","","","","",""
"","fixation","","html-keyboard-response","307","781110","0.0-284.0","0","0","wcLK5","Scenes","","null","","","null","","","","","","","","","","","","","","","","","","","","","","","","","","","","","","","","","","","","","","","","","","","",""
"","see_reward","","html-keyboard-response","308","781478","0.0-285.0","0","0","wcLK5","Scenes","","366","","","32","","107","","38","","","","1","","","","","2","","","","","146","366","","","","","","","","","","","","","","","","","","","","","","","","",""
"","reward_outcome","","html-keyboard-response","309","783488","0.0-286.0","0","0","wcLK5","Scenes","","541","","","38","","107","","38","","","","","","","","","","","","","","","","1","541","","","","","","","","","","","","","","","","","","","","","","",""
"","fixation","","html-keyboard-response","310","784509","0.0-289.0","0","0","wcLK5","Scenes","","null","","","null","","","","","","","","","","","","","","","","","","","","","","","","","","","","","","","","","","","","","","","","","","","",""
"","see_reward","","html-keyboard-response","311","784832","0.0-290.0","0","0","wcLK5","Scenes","","321","","","32","","100","","39","","","","-1","","","","","2","","","","","0","321","","","","","","","","","","","","","","","","","","","","","","","","",""
"","reward_outcome","","html-keyboard-response","312","786843","0.0-291.0","0","0","wcLK5","Scenes","","455","","","40","","100","","39","","","","","","","","","","","","","","","","-1","455","","","","","","","","","","","","","","","","","","","","","","",""
"","fixation","","html-keyboard-response","313","787845","0.0-294.0","0","0","wcLK5","Scenes","","null","","","null","","","","","","","","","","","","","","","","","","","","","","","","","","","","","","","","","","","","","","","","","","","",""
"","see_reward","","html-keyboard-response","314","788208","0.0-295.0","0","0","wcLK5","Scenes","","361","","","32","","139","","40","","","","-1","","","","","2","","","","","0","361","","","","","","","","","","","","","","","","","","","","","","","","",""
"","reward_outcome","","html-keyboard-response","315","790223","0.0-296.0","0","0","wcLK5","Scenes","","550","","","40","","139","","40","","","","","","","","","","","","","","","","-1","550","","","","","","","","","","","","","","","","","","","","","","",""
"","fixation","","html-keyboard-response","316","791244","0.0-299.0","0","0","wcLK5","Scenes","","null","","","null","","","","","","","","","","","","","","","","","","","","","","","","","","","","","","","","","","","","","","","","","","","",""
"","see_reward","","html-keyboard-response","317","791548","0.0-300.0","0","0","wcLK5","Scenes","","301","","","32","","139","","41","","","","-1","","","","","2","","","","","0","301","","","","","","","","","","","","","","","","","","","","","","","","",""
"","reward_outcome","","html-keyboard-response","318","793564","0.0-301.0","0","0","wcLK5","Scenes","","435","","","40","","139","","41","","","","","","","","","","","","","","","","-1","435","","","","","","","","","","","","","","","","","","","","","","",""
"","fixation","","html-keyboard-response","319","794580","0.0-304.0","0","0","wcLK5","Scenes","","null","","","null","","","","","","","","","","","","","","","","","","","","","","","","","","","","","","","","","","","","","","","","","","","",""
"","see_reward","","html-keyboard-response","320","795807","0.0-305.0","0","0","wcLK5","Scenes","","1226","","","32","","145","","42","","","","1","","","","","2","","","","","153","1226","","","","","","","","","","","","","","","","","","","","","","","","",""
"","reward_outcome","","html-keyboard-response","321","797821","0.0-306.0","0","0","wcLK5","Scenes","","382","","","38","","145","","42","","","","","","","","","","","","","","","","1","382","","","","","","","","","","","","","","","","","","","","","","",""
"","fixation","","html-keyboard-response","322","798828","0.0-309.0","0","0","wcLK5","Scenes","","null","","","null","","","","","","","","","","","","","","","","","","","","","","","","","","","","","","","","","","","","","","","","","","","",""
"","see_reward","","html-keyboard-response","323","799266","0.0-310.0","0","0","wcLK5","Scenes","","436","","","32","","113","","43","","","","1","","","","","2","","","","","150","436","","","","","","","","","","","","","","","","","","","","","","","","",""
"","reward_outcome","","html-keyboard-response","324","801282","0.0-311.0","0","0","wcLK5","Scenes","","401","","","38","","113","","43","","","","","","","","","","","","","","","","1","401","","","","","","","","","","","","","","","","","","","","","","",""
"","fixation","","html-keyboard-response","325","802303","0.0-314.0","0","0","wcLK5","Scenes","","null","","","null","","","","","","","","","","","","","","","","","","","","","","","","","","","","","","","","","","","","","","","","","","","",""
"","see_reward","","html-keyboard-response","326","802662","0.0-315.0","0","0","wcLK5","Scenes","","358","","","32","","100","","44","","","","-1","","","","","2","","","","","0","358","","","","","","","","","","","","","","","","","","","","","","","","",""
"","reward_outcome","","html-keyboard-response","327","804667","0.0-316.0","0","0","wcLK5","Scenes","","570","","","40","","100","","44","","","","","","","","","","","","","","","","-1","570","","","","","","","","","","","","","","","","","","","","","","",""
"","fixation","","html-keyboard-response","328","805687","0.0-319.0","0","0","wcLK5","Scenes","","null","","","null","","","","","","","","","","","","","","","","","","","","","","","","","","","","","","","","","","","","","","","","","","","",""
"","see_reward","","html-keyboard-response","329","806033","0.0-320.0","0","0","wcLK5","Scenes","","344","","","32","","107","","45","","","","1","","","","","2","","","","","146","344","","","","","","","","","","","","","","","","","","","","","","","","",""
"","reward_outcome","","html-keyboard-response","330","808041","0.0-321.0","0","0","wcLK5","Scenes","","514","","","38","","107","","45","","","","","","","","","","","","","","","","1","514","","","","","","","","","","","","","","","","","","","","","","",""
"","fixation","","html-keyboard-response","331","809058","0.0-324.0","0","0","wcLK5","Scenes","","null","","","null","","","","","","","","","","","","","","","","","","","","","","","","","","","","","","","","","","","","","","","","","","","",""
"","see_reward","","html-keyboard-response","332","809468","0.0-325.0","0","0","wcLK5","Scenes","","409","","","32","","134","","46","","","","-1","","","","","2","","","","","0","409","","","","","","","","","","","","","","","","","","","","","","","","",""
"","reward_outcome","","html-keyboard-response","333","811483","0.0-326.0","0","0","wcLK5","Scenes","","474","","","40","","134","","46","","","","","","","","","","","","","","","","-1","474","","","","","","","","","","","","","","","","","","","","","","",""
"","fixation","","html-keyboard-response","334","812499","0.0-329.0","0","0","wcLK5","Scenes","","null","","","null","","","","","","","","","","","","","","","","","","","","","","","","","","","","","","","","","","","","","","","","","","","",""
"","see_reward","","html-keyboard-response","335","812851","0.0-330.0","0","0","wcLK5","Scenes","","350","","","32","","123","","47","","","","-1","","","","","2","","","","","0","350","","","","","","","","","","","","","","","","","","","","","","","","",""
"","reward_outcome","","html-keyboard-response","336","814866","0.0-331.0","0","0","wcLK5","Scenes","","476","","","40","","123","","47","","","","","","","","","","","","","","","","-1","476","","","","","","","","","","","","","","","","","","","","","","",""
"","block_over","","html-keyboard-response","337","816961","0.0-333.0-0.0","0","0","wcLK5","Scenes","","2093","","","78","","","","","","","","","","","","","","","","","","","","","","","","","","","","","","","","","","","","","","","","","","","",""
"","fixation","","html-keyboard-response","338","817972","0.0-334.0","0","0","wcLK5","Scenes","","null","","","null","","","","","","","","","","","","","","","","","","","","","","","","","","","","","","","","","","","","","","","","","","","",""
"","see_reward","","html-keyboard-response","339","818992","0.0-335.0","0","0","wcLK5","Scenes","","1018","","","32","","113","","48","","","","1","","","","","3","","","","","150","1018","","","","","","","","","","","","","","","","","","","","","","","","",""
"","reward_outcome","","html-keyboard-response","340","821005","0.0-336.0","0","0","wcLK5","Scenes","","615","","","38","","113","","48","","","","","","","","","","","","","","","","1","615","","","","","","","","","","","","","","","","","","","","","","",""
"","fixation","","html-keyboard-response","341","822013","0.0-339.0","0","0","wcLK5","Scenes","","null","","","null","","","","","","","","","","","","","","","","","","","","","","","","","","","","","","","","","","","","","","","","","","","",""
"","see_reward","","html-keyboard-response","342","822383","0.0-340.0","0","0","wcLK5","Scenes","","368","","","32","","123","","49","","","","-1","","","","","3","","","","","0","368","","","","","","","","","","","","","","","","","","","","","","","","",""
"","reward_outcome","","html-keyboard-response","343","824395","0.0-341.0","0","0","wcLK5","Scenes","","454","","","40","","123","","49","","","","","","","","","","","","","","","","-1","454","","","","","","","","","","","","","","","","","","","","","","",""
"","fixation","","html-keyboard-response","344","825411","0.0-344.0","0","0","wcLK5","Scenes","","null","","","null","","","","","","","","","","","","","","","","","","","","","","","","","","","","","","","","","","","","","","","","","","","",""
"","see_reward","","html-keyboard-response","345","825848","0.0-345.0","0","0","wcLK5","Scenes","","435","","","32","","132","","50","","","","1","","","","","3","","","","","145","435","","","","","","","","","","","","","","","","","","","","","","","","",""
"","reward_outcome","","html-keyboard-response","346","827869","0.0-346.0","0","0","wcLK5","Scenes","","453","","","38","","132","","50","","","","","","","","","","","","","","","","1","453","","","","","","","","","","","","","","","","","","","","","","",""
"","fixation","","html-keyboard-response","347","828883","0.0-349.0","0","0","wcLK5","Scenes","","null","","","null","","","","","","","","","","","","","","","","","","","","","","","","","","","","","","","","","","","","","","","","","","","",""
"","see_reward","","html-keyboard-response","348","829322","0.0-350.0","0","0","wcLK5","Scenes","","437","","","32","","135","","51","","","","-1","","","","","3","","","","","0","437","","","","","","","","","","","","","","","","","","","","","","","","",""
"","reward_outcome","","html-keyboard-response","349","831332","0.0-351.0","0","0","wcLK5","Scenes","","456","","","40","","135","","51","","","","","","","","","","","","","","","","-1","456","","","","","","","","","","","","","","","","","","","","","","",""
"","fixation","","html-keyboard-response","350","832343","0.0-354.0","0","0","wcLK5","Scenes","","null","","","null","","","","","","","","","","","","","","","","","","","","","","","","","","","","","","","","","","","","","","","","","","","",""
"","see_reward","","html-keyboard-response","351","832692","0.0-355.0","0","0","wcLK5","Scenes","","346","","","32","","123","","52","","","","-1","","","","","3","","","","","0","346","","","","","","","","","","","","","","","","","","","","","","","","",""
"","reward_outcome","","html-keyboard-response","352","834701","0.0-356.0","0","0","wcLK5","Scenes","","559","","","40","","123","","52","","","","","","","","","","","","","","","","-1","559","","","","","","","","","","","","","","","","","","","","","","",""
"","fixation","","html-keyboard-response","353","835713","0.0-359.0","0","0","wcLK5","Scenes","","null","","","null","","","","","","","","","","","","","","","","","","","","","","","","","","","","","","","","","","","","","","","","","","","",""
