"success","ttype","start_time","trial_type","trial_index","time_elapsed","internal_node_id","warning","missed_checkup","PID","stim_type","view_history","rt","responses","repeat_instructions","key_press","response","stimulus_id","painting","index","stimulus_left","stimulus_right","explain_trial","reward_type","rating_left","rating_right","painting_left","painting_right","block","left_chosen","chosen_obj","unchosen_obj","explain_response","reward_amount","see_reward_rt","register_reward_response","register_reward_rt","deliberation_reward_tally","stimulus_left_deliberation_ind","stimulus_right_deliberation_ind","chosen_trial","gain_left","higher_outcome_chosen","old_pair","chosen_object","rt_pairs","left_object_chosen","rt_object","old_response","new_rating","deliberated_stim","initial_rating","outcome_eval_rt","outcome_eval_response","outcome_eval_gain","outcome_eval_acc","preamble","outcome_eval_confidence","outcome_eval_confidence_rt","total_reward_tally"
"true","full_screen","d01192023hr2037","fullscreen","0","24077","0.0-0.0","0","0","bQees","Scenes","","","","","","","","","","","","","","","","","","","","","","","","","","","","","","","","","","","","","","","","","","","","","","","","",""
"","rating_instructions","","instructions","1","35984","0.0-1.0-0.0","0","0","bQees","Scenes","[{""page_index"":0,""viewing_time"":9179},{""page_index"":1,""viewing_time"":2726}]","11906","","","","","","","","","","","","","","","","","","","","","","","","","","","","","","","","","","","","","","","","","","","","","","",""
"","rating_comprehension_check","","survey-multi-choice","2","44297","0.0-1.0-1.0","0","0","bQees","Scenes","","8310","{""Q0"":""True"",""Q1"":""Mouse""}","0","","","","","","","","","","","","","","","","","","","","","","","","","","","","","","","","","","","","","","","","","","","","",""
"","start_phase","","html-keyboard-response","3","46706","0.0-2.0","0","0","bQees","Scenes","","2408","","","78","","","","","","","","","","","","","","","","","","","","","","","","","","","","","","","","","","","","","","","","","","","",""
"","rating","","html-slider-response","4","51438","0.0-3.0","0","0","bQees","Scenes","","4731","","","","60","106","ashim-d-silva-WeYamle9fDM-unsplash.jpg","0","","","","","","","","","","","","","","","","","","","","","","","","","","","","","","","","","","","","","","","",""
"","rating","","html-slider-response","5","57165","0.0-4.0","0","0","bQees","Scenes","","5726","","","","73","114","daniel-sessler-z_9VmsxR8hs-unsplash.jpg","1","","","","","","","","","","","","","","","","","","","","","","","","","","","","","","","","","","","","","","","",""
"","rating","","html-slider-response","6","61416","0.0-5.0","0","0","bQees","Scenes","","4249","","","","88","130","lina-loos-04-C1NZk1hE-unsplash.jpg","2","","","","","","","","","","","","","","","","","","","","","","","","","","","","","","","","","","","","","","","",""
"","rating","","html-slider-response","7","64936","0.0-6.0","0","0","bQees","Scenes","","3518","","","","26","132","meng-ji-8BH_M-53CyA-unsplash.jpg","3","","","","","","","","","","","","","","","","","","","","","","","","","","","","","","","","","","","","","","","",""
"","rating","","html-slider-response","8","68641","0.0-7.0","0","0","bQees","Scenes","","3705","","","","68","109","brigitta-schneiter-hXXRLtTxXCU-unsplash.jpg","4","","","","","","","","","","","","","","","","","","","","","","","","","","","","","","","","","","","","","","","",""
"","rating","","html-slider-response","9","73733","0.0-8.0","0","0","bQees","Scenes","","5090","","","","99","145","stephen-leonardi-gyIRjKPXupE-unsplash.jpg","5","","","","","","","","","","","","","","","","","","","","","","","","","","","","","","","","","","","","","","","",""
"","rating","","html-slider-response","10","77334","0.0-9.0","0","0","bQees","Scenes","","3601","","","","67","135","mohammad-alizade-4wzRuAb-KWs-unsplash.jpg","6","","","","","","","","","","","","","","","","","","","","","","","","","","","","","","","","","","","","","","","",""
"","rating","","html-slider-response","11","80551","0.0-10.0","0","0","bQees","Scenes","","3215","","","","59","112","cosmic-timetraveler-pYyOZ8q7AII-unsplash.jpg","7","","","","","","","","","","","","","","","","","","","","","","","","","","","","","","","","","","","","","","","",""
"","rating","","html-slider-response","12","83641","0.0-11.0","0","0","bQees","Scenes","","3089","","","","61","125","john-lee-oMneOBYhJxY-unsplash.jpg","8","","","","","","","","","","","","","","","","","","","","","","","","","","","","","","","","","","","","","","","",""
"","rating","","html-slider-response","13","86980","0.0-12.0","0","0","bQees","Scenes","","3337","","","","88","124","johannes-plenio-sPt5RIjKfpk-unsplash.jpg","9","","","","","","","","","","","","","","","","","","","","","","","","","","","","","","","","","","","","","","","",""
"","rating","","html-slider-response","14","90892","0.0-13.0","0","0","bQees","Scenes","","3912","","","","58","139","samsommer-vddccTqwal8-unsplash.jpg","10","","","","","","","","","","","","","","","","","","","","","","","","","","","","","","","","","","","","","","","",""
"","rating","","html-slider-response","15","94170","0.0-14.0","0","0","bQees","Scenes","","3277","","","","62","107","benjamin-davies-Zm2n2O7Fph4-unsplash.jpg","11","","","","","","","","","","","","","","","","","","","","","","","","","","","","","","","","","","","","","","","",""
"","rating","","html-slider-response","16","98908","0.0-15.0","0","0","bQees","Scenes","","4736","","","","64","140","samuele-errico-piccarini-JEBqFu2AOOA-unsplash.jpg","12","","","","","","","","","","","","","","","","","","","","","","","","","","","","","","","","","","","","","","","",""
"","rating","","html-slider-response","17","103749","0.0-16.0","0","0","bQees","Scenes","","4841","","","","41","142","sergey-pesterev-y-b_FOmJXdg-unsplash.jpg","13","","","","","","","","","","","","","","","","","","","","","","","","","","","","","","","","","","","","","","","",""
"","rating","","html-slider-response","18","107551","0.0-17.0","0","0","bQees","Scenes","","3801","","","","38","101","aniket-deole-T-tOgjWZ0fQ-unsplash.jpg","14","","","","","","","","","","","","","","","","","","","","","","","","","","","","","","","","","","","","","","","",""
"","rating","","html-slider-response","19","110671","0.0-18.0","0","0","bQees","Scenes","","3118","","","","19","133","mickey-o-neil-xL66l--msXU-unsplash.jpg","15","","","","","","","","","","","","","","","","","","","","","","","","","","","","","","","","","","","","","","","",""
"","rating","","html-slider-response","20","113809","0.0-19.0","0","0","bQees","Scenes","","3136","","","","44","102","anisur-rahman-K2b7UDed6uQ-unsplash.jpg","16","","","","","","","","","","","","","","","","","","","","","","","","","","","","","","","","","","","","","","","",""
"","rating","","html-slider-response","21","116945","0.0-20.0","0","0","bQees","Scenes","","3135","","","","62","144","solotravelgoals-7kLufxYoqWk-unsplash.jpg","17","","","","","","","","","","","","","","","","","","","","","","","","","","","","","","","","","","","","","","","",""
"","rating","","html-slider-response","22","120550","0.0-21.0","0","0","bQees","Scenes","","3604","","","","38","146","thomas-morse-cuKKa0vWZSY-unsplash.jpg","18","","","","","","","","","","","","","","","","","","","","","","","","","","","","","","","","","","","","","","","",""
"","rating","","html-slider-response","23","123590","0.0-22.0","0","0","bQees","Scenes","","3039","","","","25","115","darrell-cassell-hoCXpPUMCoE-unsplash.jpg","19","","","","","","","","","","","","","","","","","","","","","","","","","","","","","","","","","","","","","","","",""
"","rating","","html-slider-response","24","127057","0.0-23.0","0","0","bQees","Scenes","","3466","","","","9","105","ashim-d-silva-S2Q5mdOrrVc-unsplash.jpg","20","","","","","","","","","","","","","","","","","","","","","","","","","","","","","","","","","","","","","","","",""
"","rating","","html-slider-response","25","130294","0.0-24.0","0","0","bQees","Scenes","","3235","","","","58","123","joel-jasmin-forestbird-efuwb5eBDrI-unsplash.jpg","21","","","","","","","","","","","","","","","","","","","","","","","","","","","","","","","","","","","","","","","",""
"","rating","","html-slider-response","26","133161","0.0-25.0","0","0","bQees","Scenes","","2867","","","","64","148","tom-gainor-ZqLeQDjY6fY-unsplash.jpg","22","","","","","","","","","","","","","","","","","","","","","","","","","","","","","","","","","","","","","","","",""
"","rating","","html-slider-response","27","136519","0.0-26.0","0","0","bQees","Scenes","","3356","","","","57","128","karsten-wurth-jS0zC2PJ17A-unsplash.jpg","23","","","","","","","","","","","","","","","","","","","","","","","","","","","","","","","","","","","","","","","",""
"","rating","","html-slider-response","28","139704","0.0-27.0","0","0","bQees","Scenes","","3183","","","","30","111","claudio-testa-U3F2o6vz3bs-unsplash.jpg","24","","","","","","","","","","","","","","","","","","","","","","","","","","","","","","","","","","","","","","","",""
"","rating","","html-slider-response","29","143158","0.0-28.0","0","0","bQees","Scenes","","3452","","","","58","137","olga-stalska-QaWRyEdlffY-unsplash.jpg","25","","","","","","","","","","","","","","","","","","","","","","","","","","","","","","","","","","","","","","","",""
"","rating","","html-slider-response","30","148750","0.0-29.0","0","0","bQees","Scenes","","5591","","","","20","120","jarrett-kow-1ZOyYPOBn7I-unsplash.jpg","26","","","","","","","","","","","","","","","","","","","","","","","","","","","","","","","","","","","","","","","",""
"","rating","","html-slider-response","31","151552","0.0-30.0","0","0","bQees","Scenes","","2800","","","","29","149","yuriy-bogdanov-W51VK3Obcj0-unsplash.jpg","27","","","","","","","","","","","","","","","","","","","","","","","","","","","","","","","","","","","","","","","",""
"","rating","","html-slider-response","32","154773","0.0-31.0","0","0","bQees","Scenes","","3220","","","","63","138","petr-vysohlid-9fqwGqGLUxc-unsplash.jpg","28","","","","","","","","","","","","","","","","","","","","","","","","","","","","","","","","","","","","","","","",""
"","rating","","html-slider-response","33","157974","0.0-32.0","0","0","bQees","Scenes","","3200","","","","40","118","henry-be-NLF6hTe4PAg-unsplash.jpg","29","","","","","","","","","","","","","","","","","","","","","","","","","","","","","","","","","","","","","","","",""
"","rating","","html-slider-response","34","162796","0.0-33.0","0","0","bQees","Scenes","","4821","","","","43","122","jeff-king-bJHWJeiHfHc-unsplash.jpg","30","","","","","","","","","","","","","","","","","","","","","","","","","","","","","","","","","","","","","","","",""
"","rating","","html-slider-response","35","166721","0.0-34.0","0","0","bQees","Scenes","","3924","","","","73","104","artem-sapegin-XGDBdSQ70O0-unsplash.jpg","31","","","","","","","","","","","","","","","","","","","","","","","","","","","","","","","","","","","","","","","",""
"","rating","","html-slider-response","36","169737","0.0-35.0","0","0","bQees","Scenes","","3015","","","","70","108","benjamin-voros-phIFdC6lA4E-unsplash.jpg","32","","","","","","","","","","","","","","","","","","","","","","","","","","","","","","","","","","","","","","","",""
"","rating","","html-slider-response","37","173530","0.0-36.0","0","0","bQees","Scenes","","3791","","","","56","117","frank-mckenna-OD9EOzfSOh0-unsplash.jpg","33","","","","","","","","","","","","","","","","","","","","","","","","","","","","","","","","","","","","","","","",""
"","rating","","html-slider-response","38","177079","0.0-37.0","0","0","bQees","Scenes","","3547","","","","57","127","kace-rodriguez-p3OzJuT_Dks-unsplash.jpg","34","","","","","","","","","","","","","","","","","","","","","","","","","","","","","","","","","","","","","","","",""
"","rating","","html-slider-response","39","180065","0.0-38.0","0","0","bQees","Scenes","","2986","","","","12","100","aleksandra-boguslawska-MS7KD9Ti7FQ-unsplash.jpg","35","","","","","","","","","","","","","","","","","","","","","","","","","","","","","","","","","","","","","","","",""
"","rating","","html-slider-response","40","183586","0.0-39.0","0","0","bQees","Scenes","","3519","","","","54","113","damian-denis-D8R_txR_0PE-unsplash.jpg","36","","","","","","","","","","","","","","","","","","","","","","","","","","","","","","","","","","","","","","","",""
"","rating","","html-slider-response","41","186537","0.0-40.0","0","0","bQees","Scenes","","2951","","","","21","129","kurt-cotoaga-cqbLg3lZEpk-unsplash.jpg","37","","","","","","","","","","","","","","","","","","","","","","","","","","","","","","","","","","","","","","","",""
"","rating","","html-slider-response","42","189891","0.0-41.0","0","0","bQees","Scenes","","3352","","","","36","116","david-marcu-W5MhJ6cy1So-unsplash.jpg","38","","","","","","","","","","","","","","","","","","","","","","","","","","","","","","","","","","","","","","","",""
"","rating","","html-slider-response","43","193262","0.0-42.0","0","0","bQees","Scenes","","3369","","","","11","103","anton-darius-FBJugtbHsWU-unsplash.jpg","39","","","","","","","","","","","","","","","","","","","","","","","","","","","","","","","","","","","","","","","",""
"","rating","","html-slider-response","44","196419","0.0-43.0","0","0","bQees","Scenes","","3155","","","","34","126","jordan-mcqueen-PJCZOWuOxbU-unsplash.jpg","40","","","","","","","","","","","","","","","","","","","","","","","","","","","","","","","","","","","","","","","",""
"","rating","","html-slider-response","45","201938","0.0-44.0","0","0","bQees","Scenes","","5518","","","","14","136","nicolas-jehly-LzVB84KkZOE-unsplash.jpg","41","","","","","","","","","","","","","","","","","","","","","","","","","","","","","","","","","","","","","","","",""
"","rating","","html-slider-response","46","206695","0.0-45.0","0","0","bQees","Scenes","","4757","","","","19","141","sebastian-unrau-v4e3JI7DDHI-unsplash.jpg","42","","","","","","","","","","","","","","","","","","","","","","","","","","","","","","","","","","","","","","","",""
"","rating","","html-slider-response","47","209882","0.0-46.0","0","0","bQees","Scenes","","3185","","","","39","110","bruno-van-der-kraan-qez8mNJ3ilU-unsplash.jpg","43","","","","","","","","","","","","","","","","","","","","","","","","","","","","","","","","","","","","","","","",""
"","rating","","html-slider-response","48","212784","0.0-47.0","0","0","bQees","Scenes","","2902","","","","27","143","sigurdur-fjalar-jonsson-1KxBabIntpE-unsplash.jpg","44","","","","","","","","","","","","","","","","","","","","","","","","","","","","","","","","","","","","","","","",""
"","rating","","html-slider-response","49","215637","0.0-48.0","0","0","bQees","Scenes","","2851","","","","67","119","james-wheeler-AFC0XvICMgs-unsplash.jpg","45","","","","","","","","","","","","","","","","","","","","","","","","","","","","","","","","","","","","","","","",""
"","rating","","html-slider-response","50","218876","0.0-49.0","0","0","bQees","Scenes","","3237","","","","58","147","tobias-keller-73F4pKoUkM0-unsplash.jpg","46","","","","","","","","","","","","","","","","","","","","","","","","","","","","","","","","","","","","","","","",""
"","rating","","html-slider-response","51","222145","0.0-50.0","0","0","bQees","Scenes","","3267","","","","22","121","jean-pierre-brungs-qxCqkbF7tUc-unsplash.jpg","47","","","","","","","","","","","","","","","","","","","","","","","","","","","","","","","","","","","","","","","",""
"","rating","","html-slider-response","52","226800","0.0-51.0","0","0","bQees","Scenes","","4654","","","","6","134","milada-vigerova-pQMM63GE7fo-unsplash.jpg","48","","","","","","","","","","","","","","","","","","","","","","","","","","","","","","","","","","","","","","","",""
"","rating","","html-slider-response","53","230187","0.0-52.0","0","0","bQees","Scenes","","3387","","","","7","131","luca-bravo-hFzIoD0F_i8-unsplash.jpg","49","","","","","","","","","","","","","","","","","","","","","","","","","","","","","","","","","","","","","","","",""
"","deliberation_instructions","","instructions","54","296392","0.0-53.0-0.0","0","0","bQees","Scenes","[{""page_index"":0,""viewing_time"":18968},{""page_index"":1,""viewing_time"":12046},{""page_index"":2,""viewing_time"":17637},{""page_index"":3,""viewing_time"":14004},{""page_index"":4,""viewing_time"":3547}]","66203","","","","","","","","","","","","","","","","","","","","","","","","","","","","","","","","","","","","","","","","","","","","","","",""
"","deliberation_comprehension_check","","survey-multi-choice","55","319939","0.0-53.0-1.0","0","0","bQees","Scenes","","23544","{""Q0"":""True"",""Q1"":""True"",""Q2"":""Consider carefully and take your time (up to 10 seconds)"",""Q3"":""True"",""Q4"":""D""}","0","","","","","","","","","","","","","","","","","","","","","","","","","","","","","","","","","","","","","","","","","","","","",""
"","start_phase","","html-keyboard-response","56","322265","0.0-54.0","0","0","bQees","Scenes","","2325","","","78","","","","","","","","","","","","","","","","","","","","","","","","","","","","","","","","","","","","","","","","","","","",""
"","first_deliberation_block","","html-keyboard-response","57","327694","0.0-55.0","0","0","bQees","Scenes","","5428","","","78","","","","","","","","","","","","","","","","","","","","","","","","","","","","","","","","","","","","","","","","","","","",""
"","fixation","","html-keyboard-response","58","328701","0.0-56.0-0.0","0","0","bQees","Scenes","","null","","","null","","","","","","","","","","","","","","","","","","","","","","","","","","","","","","","","","","","","","","","","","","","",""
"","deliberation","","html-keyboard-response","59","331063","0.0-56.0-1.0","0","0","bQees","Scenes","","2360","","","68","","","","0","102","146","1","1","44","38","anisur-rahman-K2b7UDed6uQ-unsplash.jpg","thomas-morse-cuKKa0vWZSY-unsplash.jpg","1","1","102","146","","","","","","","","","","","","","","","","","","","","","","","","","","","",""
"","choice_confirmation","","html-keyboard-response","60","331571","0.0-56.0-2.0-0.0","0","0","bQees","Scenes","","null","","","null","","","","0","102","146","","","","","","","","","","","","","","","","","","","","","","","","","","","","","","","","","","","","","",""
"","explain_trial","","survey-text","61","338378","0.0-56.0-5.0-0.0","0","0","bQees","Scenes","","6806","{""Q0"":""It seems more artistic""}","","","","","","0","102","146","","","","","","","","","","","{""Q0"":""It seems more artistic""}","","","","","","","","","","","","","","","","","","","","","","","","","","",""
"","fixation","","html-keyboard-response","62","339383","0.0-57.0-0.0","0","0","bQees","Scenes","","null","","","null","","","","","","","","","","","","","","","","","","","","","","","","","","","","","","","","","","","","","","","","","","","",""
"","deliberation","","html-keyboard-response","63","340964","0.0-57.0-1.0","0","0","bQees","Scenes","","1579","","","75","","","","1","149","126","0","-1","29","34","yuriy-bogdanov-W51VK3Obcj0-unsplash.jpg","jordan-mcqueen-PJCZOWuOxbU-unsplash.jpg","1","0","126","149","","","","","","","","","","","","","","","","","","","","","","","","","","","",""
"","choice_confirmation","","html-keyboard-response","64","341482","0.0-57.0-2.0-0.0","0","0","bQees","Scenes","","null","","","null","","","","1","149","126","","","","","","","","","","","","","","","","","","","","","","","","","","","","","","","","","","","","","",""
"","fixation","","html-keyboard-response","65","342490","0.0-58.0-0.0","0","0","bQees","Scenes","","null","","","null","","","","","","","","","","","","","","","","","","","","","","","","","","","","","","","","","","","","","","","","","","","",""
"","deliberation","","html-keyboard-response","66","344348","0.0-58.0-1.0","0","0","bQees","Scenes","","1856","","","68","","","","2","143","111","1","-1","27","30","sigurdur-fjalar-jonsson-1KxBabIntpE-unsplash.jpg","claudio-testa-U3F2o6vz3bs-unsplash.jpg","1","1","143","111","","","","","","","","","","","","","","","","","","","","","","","","","","","",""
"","choice_confirmation","","html-keyboard-response","67","344863","0.0-58.0-2.0-0.0","0","0","bQees","Scenes","","null","","","null","","","","2","143","111","","","","","","","","","","","","","","","","","","","","","","","","","","","","","","","","","","","","","",""
"","explain_trial","","survey-text","68","355286","0.0-58.0-5.0-0.0","0","0","bQees","Scenes","","10422","{""Q0"":""The water makes it seem more gloomy and mysterious""}","","","","","","2","143","111","","","","","","","","","","","{""Q0"":""The water makes it seem more gloomy and mysterious""}","","","","","","","","","","","","","","","","","","","","","","","","","","",""
"","fixation","","html-keyboard-response","69","356295","0.0-59.0-0.0","0","0","bQees","Scenes","","null","","","null","","","","","","","","","","","","","","","","","","","","","","","","","","","","","","","","","","","","","","","","","","","",""
"","deliberation","","html-keyboard-response","70","358500","0.0-59.0-1.0","0","0","bQees","Scenes","","2203","","","75","","","","3","142","117","1","1","41","56","sergey-pesterev-y-b_FOmJXdg-unsplash.jpg","frank-mckenna-OD9EOzfSOh0-unsplash.jpg","1","0","117","142","","","","","","","","","","","","","","","","","","","","","","","","","","","",""
"","choice_confirmation","","html-keyboard-response","71","359005","0.0-59.0-2.0-0.0","0","0","bQees","Scenes","","null","","","null","","","","3","142","117","","","","","","","","","","","","","","","","","","","","","","","","","","","","","","","","","","","","","",""
"","explain_trial","","survey-text","72","373845","0.0-59.0-5.0-0.0","0","0","bQees","Scenes","","14839","{""Q0"":""This one is appealing because it makes you feel happy""}","","","","","","3","142","117","","","","","","","","","","","{""Q0"":""This one is appealing because it makes you feel happy""}","","","","","","","","","","","","","","","","","","","","","","","","","","",""
"","fixation","","html-keyboard-response","73","374862","0.0-60.0-0.0","0","0","bQees","Scenes","","null","","","null","","","","","","","","","","","","","","","","","","","","","","","","","","","","","","","","","","","","","","","","","","","",""
"","deliberation","","html-keyboard-response","74","378555","0.0-60.0-1.0","0","0","bQees","Scenes","","3693","","","68","","","","4","112","123","0","-1","59","58","cosmic-timetraveler-pYyOZ8q7AII-unsplash.jpg","joel-jasmin-forestbird-efuwb5eBDrI-unsplash.jpg","1","1","112","123","","","","","","","","","","","","","","","","","","","","","","","","","","","",""
"","choice_confirmation","","html-keyboard-response","75","379074","0.0-60.0-2.0-0.0","0","0","bQees","Scenes","","null","","","null","","","","4","112","123","","","","","","","","","","","","","","","","","","","","","","","","","","","","","","","","","","","","","",""
"","fixation","","html-keyboard-response","76","380087","0.0-61.0-0.0","0","0","bQees","Scenes","","null","","","null","","","","","","","","","","","","","","","","","","","","","","","","","","","","","","","","","","","","","","","","","","","",""
"","deliberation","","html-keyboard-response","77","382869","0.0-61.0-1.0","0","0","bQees","Scenes","","2780","","","75","","","","5","128","113","0","1","57","54","karsten-wurth-jS0zC2PJ17A-unsplash.jpg","damian-denis-D8R_txR_0PE-unsplash.jpg","1","0","113","128","","","","","","","","","","","","","","","","","","","","","","","","","","","",""
"","choice_confirmation","","html-keyboard-response","78","383374","0.0-61.0-2.0-0.0","0","0","bQees","Scenes","","null","","","null","","","","5","128","113","","","","","","","","","","","","","","","","","","","","","","","","","","","","","","","","","","","","","",""
"","fixation","","html-keyboard-response","79","384385","0.0-62.0-0.0","0","0","bQees","Scenes","","null","","","null","","","","","","","","","","","","","","","","","","","","","","","","","","","","","","","","","","","","","","","","","","","",""
"","deliberation","","html-keyboard-response","80","386465","0.0-62.0-1.0","0","0","bQees","Scenes","","2079","","","68","","","","6","122","147","1","-1","43","58","jeff-king-bJHWJeiHfHc-unsplash.jpg","tobias-keller-73F4pKoUkM0-unsplash.jpg","1","1","122","147","","","","","","","","","","","","","","","","","","","","","","","","","","","",""
"","choice_confirmation","","html-keyboard-response","81","386970","0.0-62.0-2.0-0.0","0","0","bQees","Scenes","","null","","","null","","","","6","122","147","","","","","","","","","","","","","","","","","","","","","","","","","","","","","","","","","","","","","",""
"","explain_trial","","survey-text","82","395174","0.0-62.0-5.0-0.0","0","0","bQees","Scenes","","8204","{""Q0"":""This one provokes more feeling""}","","","","","","6","122","147","","","","","","","","","","","{""Q0"":""This one provokes more feeling""}","","","","","","","","","","","","","","","","","","","","","","","","","","",""
"","fixation","","html-keyboard-response","83","396188","0.0-63.0-0.0","0","0","bQees","Scenes","","null","","","null","","","","","","","","","","","","","","","","","","","","","","","","","","","","","","","","","","","","","","","","","","","",""
"","deliberation","","html-keyboard-response","84","397810","0.0-63.0-1.0","0","0","bQees","Scenes","","1621","","","68","","","","7","139","118","0","1","58","40","samsommer-vddccTqwal8-unsplash.jpg","henry-be-NLF6hTe4PAg-unsplash.jpg","1","1","139","118","","","","","","","","","","","","","","","","","","","","","","","","","","","",""
"","choice_confirmation","","html-keyboard-response","85","398323","0.0-63.0-2.0-0.0","0","0","bQees","Scenes","","null","","","null","","","","7","139","118","","","","","","","","","","","","","","","","","","","","","","","","","","","","","","","","","","","","","",""
"","fixation","","html-keyboard-response","86","399347","0.0-64.0-0.0","0","0","bQees","Scenes","","null","","","null","","","","","","","","","","","","","","","","","","","","","","","","","","","","","","","","","","","","","","","","","","","",""
"","deliberation","","html-keyboard-response","87","400924","0.0-64.0-1.0","0","0","bQees","Scenes","","1576","","","75","","","","8","101","125","0","1","38","61","aniket-deole-T-tOgjWZ0fQ-unsplash.jpg","john-lee-oMneOBYhJxY-unsplash.jpg","1","0","125","101","","","","","","","","","","","","","","","","","","","","","","","","","","","",""
"","choice_confirmation","","html-keyboard-response","88","401431","0.0-64.0-2.0-0.0","0","0","bQees","Scenes","","null","","","null","","","","8","101","125","","","","","","","","","","","","","","","","","","","","","","","","","","","","","","","","","","","","","",""
"","fixation","","html-keyboard-response","89","402438","0.0-65.0-0.0","0","0","bQees","Scenes","","null","","","null","","","","","","","","","","","","","","","","","","","","","","","","","","","","","","","","","","","","","","","","","","","",""
"","deliberation","","html-keyboard-response","90","403877","0.0-65.0-1.0","0","0","bQees","Scenes","","1438","","","68","","","","9","127","110","0","-1","57","39","kace-rodriguez-p3OzJuT_Dks-unsplash.jpg","bruno-van-der-kraan-qez8mNJ3ilU-unsplash.jpg","1","1","127","110","","","","","","","","","","","","","","","","","","","","","","","","","","","",""
"","choice_confirmation","","html-keyboard-response","91","404382","0.0-65.0-2.0-0.0","0","0","bQees","Scenes","","null","","","null","","","","9","127","110","","","","","","","","","","","","","","","","","","","","","","","","","","","","","","","","","","","","","",""
"","fixation","","html-keyboard-response","92","405395","0.0-66.0-0.0","0","0","bQees","Scenes","","null","","","null","","","","","","","","","","","","","","","","","","","","","","","","","","","","","","","","","","","","","","","","","","","",""
"","deliberation","","html-keyboard-response","93","407268","0.0-66.0-1.0","0","0","bQees","Scenes","","1871","","","68","","","","10","116","137","1","-1","36","58","david-marcu-W5MhJ6cy1So-unsplash.jpg","olga-stalska-QaWRyEdlffY-unsplash.jpg","1","1","116","137","","","","","","","","","","","","","","","","","","","","","","","","","","","",""
"","choice_confirmation","","html-keyboard-response","94","407785","0.0-66.0-2.0-0.0","0","0","bQees","Scenes","","null","","","null","","","","10","116","137","","","","","","","","","","","","","","","","","","","","","","","","","","","","","","","","","","","","","",""
"","explain_trial","","survey-text","95","416172","0.0-66.0-5.0-0.0","0","0","bQees","Scenes","","8385","{""Q0"":""I just like the colors in this one better""}","","","","","","10","116","137","","","","","","","","","","","{""Q0"":""I just like the colors in this one better""}","","","","","","","","","","","","","","","","","","","","","","","","","","",""
"","fixation","","html-keyboard-response","96","417191","0.0-67.0-0.0","0","0","bQees","Scenes","","null","","","null","","","","","","","","","","","","","","","","","","","","","","","","","","","","","","","","","","","","","","","","","","","",""
"","deliberation","","html-keyboard-response","97","418516","0.0-67.0-1.0","0","0","bQees","Scenes","","1324","","","68","","","","11","107","106","1","1","62","60","benjamin-davies-Zm2n2O7Fph4-unsplash.jpg","ashim-d-silva-WeYamle9fDM-unsplash.jpg","1","1","107","106","","","","","","","","","","","","","","","","","","","","","","","","","","","",""
"","choice_confirmation","","html-keyboard-response","98","419021","0.0-67.0-2.0-0.0","0","0","bQees","Scenes","","null","","","null","","","","11","107","106","","","","","","","","","","","","","","","","","","","","","","","","","","","","","","","","","","","","","",""
"","explain_trial","","survey-text","99","424928","0.0-67.0-5.0-0.0","0","0","bQees","Scenes","","5907","{""Q0"":""It is more interesting""}","","","","","","11","107","106","","","","","","","","","","","{""Q0"":""It is more interesting""}","","","","","","","","","","","","","","","","","","","","","","","","","","",""
"","practice_deliberation_again","","html-keyboard-response","100","429237","0.0-67.0-6.0-0.0","0","0","bQees","Scenes","","4307","","","78","","","","","","","","","","","","","","","","","","","","","","","","","","","","","","","","","","","","","","","","","","","",""
"","fixation","","html-keyboard-response","101","430245","0.0-68.0-0.0","0","0","bQees","Scenes","","null","","","null","","","","","","","","","","","","","","","","","","","","","","","","","","","","","","","","","","","","","","","","","","","",""
"","deliberation","","html-keyboard-response","102","432419","0.0-68.0-1.0","0","0","bQees","Scenes","","2173","","","75","","","","12","128","113","1","1","57","54","karsten-wurth-jS0zC2PJ17A-unsplash.jpg","damian-denis-D8R_txR_0PE-unsplash.jpg","2","0","113","128","","","","","","","","","","","","","","","","","","","","","","","","","","","",""
"","choice_confirmation","","html-keyboard-response","103","432930","0.0-68.0-2.0-0.0","0","0","bQees","Scenes","","null","","","null","","","","12","128","113","","","","","","","","","","","","","","","","","","","","","","","","","","","","","","","","","","","","","",""
"","explain_trial","","survey-text","104","442307","0.0-68.0-5.0-0.0","0","0","bQees","Scenes","","9376","{""Q0"":""The lonely tree makes you feel something more.""}","","","","","","12","128","113","","","","","","","","","","","{""Q0"":""The lonely tree makes you feel something more.""}","","","","","","","","","","","","","","","","","","","","","","","","","","",""
"","fixation","","html-keyboard-response","105","443326","0.0-69.0-0.0","0","0","bQees","Scenes","","null","","","null","","","","","","","","","","","","","","","","","","","","","","","","","","","","","","","","","","","","","","","","","","","",""
"","deliberation","","html-keyboard-response","106","445231","0.0-69.0-1.0","0","0","bQees","Scenes","","1905","","","75","","","","13","142","117","0","1","41","56","sergey-pesterev-y-b_FOmJXdg-unsplash.jpg","frank-mckenna-OD9EOzfSOh0-unsplash.jpg","2","0","117","142","","","","","","","","","","","","","","","","","","","","","","","","","","","",""
"","choice_confirmation","","html-keyboard-response","107","445742","0.0-69.0-2.0-0.0","0","0","bQees","Scenes","","null","","","null","","","","13","142","117","","","","","","","","","","","","","","","","","","","","","","","","","","","","","","","","","","","","","",""
"","fixation","","html-keyboard-response","108","446756","0.0-70.0-0.0","0","0","bQees","Scenes","","null","","","null","","","","","","","","","","","","","","","","","","","","","","","","","","","","","","","","","","","","","","","","","","","",""
"","deliberation","","html-keyboard-response","109","448222","0.0-70.0-1.0","0","0","bQees","Scenes","","1466","","","68","","","","14","143","111","0","-1","27","30","sigurdur-fjalar-jonsson-1KxBabIntpE-unsplash.jpg","claudio-testa-U3F2o6vz3bs-unsplash.jpg","2","1","143","111","","","","","","","","","","","","","","","","","","","","","","","","","","","",""
"","choice_confirmation","","html-keyboard-response","110","448727","0.0-70.0-2.0-0.0","0","0","bQees","Scenes","","null","","","null","","","","14","143","111","","","","","","","","","","","","","","","","","","","","","","","","","","","","","","","","","","","","","",""
"","fixation","","html-keyboard-response","111","449735","0.0-71.0-0.0","0","0","bQees","Scenes","","null","","","null","","","","","","","","","","","","","","","","","","","","","","","","","","","","","","","","","","","","","","","","","","","",""
"","deliberation","","html-keyboard-response","112","451190","0.0-71.0-1.0","0","0","bQees","Scenes","","1454","","","75","","","","15","101","125","1","1","38","61","aniket-deole-T-tOgjWZ0fQ-unsplash.jpg","john-lee-oMneOBYhJxY-unsplash.jpg","2","0","125","101","","","","","","","","","","","","","","","","","","","","","","","","","","","",""
"","choice_confirmation","","html-keyboard-response","113","451701","0.0-71.0-2.0-0.0","0","0","bQees","Scenes","","null","","","null","","","","15","101","125","","","","","","","","","","","","","","","","","","","","","","","","","","","","","","","","","","","","","",""
"","explain_trial","","survey-text","114","462257","0.0-71.0-5.0-0.0","0","0","bQees","Scenes","","10554","{""Q0"":""This one is prettier. More interesting.""}","","","","","","15","101","125","","","","","","","","","","","{""Q0"":""This one is prettier. More interesting.""}","","","","","","","","","","","","","","","","","","","","","","","","","","",""
"","fixation","","html-keyboard-response","115","463275","0.0-72.0-0.0","0","0","bQees","Scenes","","null","","","null","","","","","","","","","","","","","","","","","","","","","","","","","","","","","","","","","","","","","","","","","","","",""
"","deliberation","","html-keyboard-response","116","464818","0.0-72.0-1.0","0","0","bQees","Scenes","","1542","","","75","","","","16","149","126","1","-1","29","34","yuriy-bogdanov-W51VK3Obcj0-unsplash.jpg","jordan-mcqueen-PJCZOWuOxbU-unsplash.jpg","2","0","126","149","","","","","","","","","","","","","","","","","","","","","","","","","","","",""
"","choice_confirmation","","html-keyboard-response","117","465328","0.0-72.0-2.0-0.0","0","0","bQees","Scenes","","null","","","null","","","","16","149","126","","","","","","","","","","","","","","","","","","","","","","","","","","","","","","","","","","","","","",""
"","explain_trial","","survey-text","118","477480","0.0-72.0-5.0-0.0","0","0","bQees","Scenes","","12151","{""Q0"":""This one is more interesting and mysterious.""}","","","","","","16","149","126","","","","","","","","","","","{""Q0"":""This one is more interesting and mysterious.""}","","","","","","","","","","","","","","","","","","","","","","","","","","",""
"","fixation","","html-keyboard-response","119","478494","0.0-73.0-0.0","0","0","bQees","Scenes","","null","","","null","","","","","","","","","","","","","","","","","","","","","","","","","","","","","","","","","","","","","","","","","","","",""
"","deliberation","","html-keyboard-response","120","479661","0.0-73.0-1.0","0","0","bQees","Scenes","","1166","","","75","","","","17","112","123","1","-1","59","58","cosmic-timetraveler-pYyOZ8q7AII-unsplash.jpg","joel-jasmin-forestbird-efuwb5eBDrI-unsplash.jpg","2","0","123","112","","","","","","","","","","","","","","","","","","","","","","","","","","","",""
"","choice_confirmation","","html-keyboard-response","121","480175","0.0-73.0-2.0-0.0","0","0","bQees","Scenes","","null","","","null","","","","17","112","123","","","","","","","","","","","","","","","","","","","","","","","","","","","","","","","","","","","","","",""
"","explain_trial","","survey-text","122","486541","0.0-73.0-5.0-0.0","0","0","bQees","Scenes","","6364","{""Q0"":""I just like this one more than the purple.""}","","","","","","17","112","123","","","","","","","","","","","{""Q0"":""I just like this one more than the purple.""}","","","","","","","","","","","","","","","","","","","","","","","","","","",""
"","fixation","","html-keyboard-response","123","487549","0.0-74.0-0.0","0","0","bQees","Scenes","","null","","","null","","","","","","","","","","","","","","","","","","","","","","","","","","","","","","","","","","","","","","","","","","","",""
"","deliberation","","html-keyboard-response","124","488543","0.0-74.0-1.0","0","0","bQees","Scenes","","993","","","68","","","","18","127","110","1","-1","57","39","kace-rodriguez-p3OzJuT_Dks-unsplash.jpg","bruno-van-der-kraan-qez8mNJ3ilU-unsplash.jpg","2","1","127","110","","","","","","","","","","","","","","","","","","","","","","","","","","","",""
"","choice_confirmation","","html-keyboard-response","125","489057","0.0-74.0-2.0-0.0","0","0","bQees","Scenes","","null","","","null","","","","18","127","110","","","","","","","","","","","","","","","","","","","","","","","","","","","","","","","","","","","","","",""
"","explain_trial","","survey-text","126","500023","0.0-74.0-5.0-0.0","0","0","bQees","Scenes","","10965","{""Q0"":""This one is interesting and mysterious.""}","","","","","","18","127","110","","","","","","","","","","","{""Q0"":""This one is interesting and mysterious.""}","","","","","","","","","","","","","","","","","","","","","","","","","","",""
"","fixation","","html-keyboard-response","127","501044","0.0-75.0-0.0","0","0","bQees","Scenes","","null","","","null","","","","","","","","","","","","","","","","","","","","","","","","","","","","","","","","","","","","","","","","","","","",""
"","deliberation","","html-keyboard-response","128","502205","0.0-75.0-1.0","0","0","bQees","Scenes","","1159","","","68","","","","19","107","106","0","1","62","60","benjamin-davies-Zm2n2O7Fph4-unsplash.jpg","ashim-d-silva-WeYamle9fDM-unsplash.jpg","2","1","107","106","","","","","","","","","","","","","","","","","","","","","","","","","","","",""
"","choice_confirmation","","html-keyboard-response","129","502711","0.0-75.0-2.0-0.0","0","0","bQees","Scenes","","null","","","null","","","","19","107","106","","","","","","","","","","","","","","","","","","","","","","","","","","","","","","","","","","","","","",""
"","fixation","","html-keyboard-response","130","503728","0.0-76.0-0.0","0","0","bQees","Scenes","","null","","","null","","","","","","","","","","","","","","","","","","","","","","","","","","","","","","","","","","","","","","","","","","","",""
"","deliberation","","html-keyboard-response","131","506993","0.0-76.0-1.0","0","0","bQees","Scenes","","3264","","","75","","","","20","122","147","0","-1","43","58","jeff-king-bJHWJeiHfHc-unsplash.jpg","tobias-keller-73F4pKoUkM0-unsplash.jpg","2","0","147","122","","","","","","","","","","","","","","","","","","","","","","","","","","","",""
"","choice_confirmation","","html-keyboard-response","132","507514","0.0-76.0-2.0-0.0","0","0","bQees","Scenes","","null","","","null","","","","20","122","147","","","","","","","","","","","","","","","","","","","","","","","","","","","","","","","","","","","","","",""
"","fixation","","html-keyboard-response","133","508531","0.0-77.0-0.0","0","0","bQees","Scenes","","null","","","null","","","","","","","","","","","","","","","","","","","","","","","","","","","","","","","","","","","","","","","","","","","",""
"","deliberation","","html-keyboard-response","134","509633","0.0-77.0-1.0","0","0","bQees","Scenes","","1101","","","68","","","","21","139","118","1","1","58","40","samsommer-vddccTqwal8-unsplash.jpg","henry-be-NLF6hTe4PAg-unsplash.jpg","2","1","139","118","","","","","","","","","","","","","","","","","","","","","","","","","","","",""
"","choice_confirmation","","html-keyboard-response","135","510151","0.0-77.0-2.0-0.0","0","0","bQees","Scenes","","null","","","null","","","","21","139","118","","","","","","","","","","","","","","","","","","","","","","","","","","","","","","","","","","","","","",""
"","explain_trial","","survey-text","136","516749","0.0-77.0-5.0-0.0","0","0","bQees","Scenes","","6596","{""Q0"":""I just like this one better.""}","","","","","","21","139","118","","","","","","","","","","","{""Q0"":""I just like this one better.""}","","","","","","","","","","","","","","","","","","","","","","","","","","",""
"","fixation","","html-keyboard-response","137","517771","0.0-78.0-0.0","0","0","bQees","Scenes","","null","","","null","","","","","","","","","","","","","","","","","","","","","","","","","","","","","","","","","","","","","","","","","","","",""
"","deliberation","","html-keyboard-response","138","519358","0.0-78.0-1.0","0","0","bQees","Scenes","","1585","","","75","","","","22","102","146","0","1","44","38","anisur-rahman-K2b7UDed6uQ-unsplash.jpg","thomas-morse-cuKKa0vWZSY-unsplash.jpg","2","0","146","102","","","","","","","","","","","","","","","","","","","","","","","","","","","",""
"","choice_confirmation","","html-keyboard-response","139","519863","0.0-78.0-2.0-0.0","0","0","bQees","Scenes","","null","","","null","","","","22","102","146","","","","","","","","","","","","","","","","","","","","","","","","","","","","","","","","","","","","","",""
"","fixation","","html-keyboard-response","140","520874","0.0-79.0-0.0","0","0","bQees","Scenes","","null","","","null","","","","","","","","","","","","","","","","","","","","","","","","","","","","","","","","","","","","","","","","","","","",""
"","deliberation","","html-keyboard-response","141","521876","0.0-79.0-1.0","0","0","bQees","Scenes","","1002","","","68","","","","23","116","137","0","-1","36","58","david-marcu-W5MhJ6cy1So-unsplash.jpg","olga-stalska-QaWRyEdlffY-unsplash.jpg","2","1","116","137","","","","","","","","","","","","","","","","","","","","","","","","","","","",""
"","choice_confirmation","","html-keyboard-response","142","522380","0.0-79.0-2.0-0.0","0","0","bQees","Scenes","","null","","","null","","","","23","116","137","","","","","","","","","","","","","","","","","","","","","","","","","","","","","","","","","","","","","",""
"","start_critical_deliberation_block","","html-keyboard-response","143","525028","0.0-79.0-7.0-0.0","0","0","bQees","Scenes","","2646","","","78","","","","","","","","","","","","","","","","","","","","","","","","","","","","","","","","","","","","","","","","","","","",""
"","fixation","","html-keyboard-response","144","526044","0.0-80.0-0.0","0","0","bQees","Scenes","","null","","","null","","","","","","","","","","","","","","","","","","","","","","","","","","","","","","","","","","","","","","","","","","","",""
"","deliberation","","html-keyboard-response","145","527369","0.0-80.0-1.0","0","0","bQees","Scenes","","1325","","","75","","","","24","101","125","0","1","38","61","aniket-deole-T-tOgjWZ0fQ-unsplash.jpg","john-lee-oMneOBYhJxY-unsplash.jpg","3","0","125","101","","","","","","","","","","","","","","","","","","","","","","","","","","","",""
"","choice_confirmation","","html-keyboard-response","146","527887","0.0-80.0-2.0-0.0","0","0","bQees","Scenes","","null","","","null","","","","24","101","125","","","","","","","","","","","","","","","","","","","","","","","","","","","","","","","","","","","","","",""
"","fixation","","html-keyboard-response","147","528898","0.0-81.0-0.0","0","0","bQees","Scenes","","null","","","null","","","","","","","","","","","","","","","","","","","","","","","","","","","","","","","","","","","","","","","","","","","",""
"","deliberation","","html-keyboard-response","148","529799","0.0-81.0-1.0","0","0","bQees","Scenes","","899","","","68","","","","25","107","106","0","1","62","60","benjamin-davies-Zm2n2O7Fph4-unsplash.jpg","ashim-d-silva-WeYamle9fDM-unsplash.jpg","3","1","107","106","","","","","","","","","","","","","","","","","","","","","","","","","","","",""
"","choice_confirmation","","html-keyboard-response","149","530309","0.0-81.0-2.0-0.0","0","0","bQees","Scenes","","null","","","null","","","","25","107","106","","","","","","","","","","","","","","","","","","","","","","","","","","","","","","","","","","","","","",""
"","fixation","","html-keyboard-response","150","531332","0.0-82.0-0.0","0","0","bQees","Scenes","","null","","","null","","","","","","","","","","","","","","","","","","","","","","","","","","","","","","","","","","","","","","","","","","","",""
"","deliberation","","html-keyboard-response","151","532357","0.0-82.0-1.0","0","0","bQees","Scenes","","1024","","","75","","","","26","112","123","0","-1","59","58","cosmic-timetraveler-pYyOZ8q7AII-unsplash.jpg","joel-jasmin-forestbird-efuwb5eBDrI-unsplash.jpg","3","0","123","112","","","","","","","","","","","","","","","","","","","","","","","","","","","",""
"","choice_confirmation","","html-keyboard-response","152","532871","0.0-82.0-2.0-0.0","0","0","bQees","Scenes","","null","","","null","","","","26","112","123","","","","","","","","","","","","","","","","","","","","","","","","","","","","","","","","","","","","","",""
"","fixation","","html-keyboard-response","153","533892","0.0-83.0-0.0","0","0","bQees","Scenes","","null","","","null","","","","","","","","","","","","","","","","","","","","","","","","","","","","","","","","","","","","","","","","","","","",""
"","deliberation","","html-keyboard-response","154","535166","0.0-83.0-1.0","0","0","bQees","Scenes","","1272","","","75","","","","27","142","117","0","1","41","56","sergey-pesterev-y-b_FOmJXdg-unsplash.jpg","frank-mckenna-OD9EOzfSOh0-unsplash.jpg","3","0","117","142","","","","","","","","","","","","","","","","","","","","","","","","","","","",""
"","choice_confirmation","","html-keyboard-response","155","535677","0.0-83.0-2.0-0.0","0","0","bQees","Scenes","","null","","","null","","","","27","142","117","","","","","","","","","","","","","","","","","","","","","","","","","","","","","","","","","","","","","",""
"","fixation","","html-keyboard-response","156","536699","0.0-84.0-0.0","0","0","bQees","Scenes","","null","","","null","","","","","","","","","","","","","","","","","","","","","","","","","","","","","","","","","","","","","","","","","","","",""
"","deliberation","","html-keyboard-response","157","537988","0.0-84.0-1.0","0","0","bQees","Scenes","","1288","","","68","","","","28","143","111","0","-1","27","30","sigurdur-fjalar-jonsson-1KxBabIntpE-unsplash.jpg","claudio-testa-U3F2o6vz3bs-unsplash.jpg","3","1","143","111","","","","","","","","","","","","","","","","","","","","","","","","","","","",""
"","choice_confirmation","","html-keyboard-response","158","538501","0.0-84.0-2.0-0.0","0","0","bQees","Scenes","","null","","","null","","","","28","143","111","","","","","","","","","","","","","","","","","","","","","","","","","","","","","","","","","","","","","",""
"","fixation","","html-keyboard-response","159","539518","0.0-85.0-0.0","0","0","bQees","Scenes","","null","","","null","","","","","","","","","","","","","","","","","","","","","","","","","","","","","","","","","","","","","","","","","","","",""
"","deliberation","","html-keyboard-response","160","540554","0.0-85.0-1.0","0","0","bQees","Scenes","","1035","","","68","","","","29","139","118","0","1","58","40","samsommer-vddccTqwal8-unsplash.jpg","henry-be-NLF6hTe4PAg-unsplash.jpg","3","1","139","118","","","","","","","","","","","","","","","","","","","","","","","","","","","",""
"","choice_confirmation","","html-keyboard-response","161","541071","0.0-85.0-2.0-0.0","0","0","bQees","Scenes","","null","","","null","","","","29","139","118","","","","","","","","","","","","","","","","","","","","","","","","","","","","","","","","","","","","","",""
"","fixation","","html-keyboard-response","162","542081","0.0-86.0-0.0","0","0","bQees","Scenes","","null","","","null","","","","","","","","","","","","","","","","","","","","","","","","","","","","","","","","","","","","","","","","","","","",""
"","deliberation","","html-keyboard-response","163","542933","0.0-86.0-1.0","0","0","bQees","Scenes","","850","","","68","","","","30","127","110","0","-1","57","39","kace-rodriguez-p3OzJuT_Dks-unsplash.jpg","bruno-van-der-kraan-qez8mNJ3ilU-unsplash.jpg","3","1","127","110","","","","","","","","","","","","","","","","","","","","","","","","","","","",""
"","choice_confirmation","","html-keyboard-response","164","543440","0.0-86.0-2.0-0.0","0","0","bQees","Scenes","","null","","","null","","","","30","127","110","","","","","","","","","","","","","","","","","","","","","","","","","","","","","","","","","","","","","",""
"","fixation","","html-keyboard-response","165","544449","0.0-87.0-0.0","0","0","bQees","Scenes","","null","","","null","","","","","","","","","","","","","","","","","","","","","","","","","","","","","","","","","","","","","","","","","","","",""
"","deliberation","","html-keyboard-response","166","545368","0.0-87.0-1.0","0","0","bQees","Scenes","","919","","","75","","","","31","122","147","0","-1","43","58","jeff-king-bJHWJeiHfHc-unsplash.jpg","tobias-keller-73F4pKoUkM0-unsplash.jpg","3","0","147","122","","","","","","","","","","","","","","","","","","","","","","","","","","","",""
"","choice_confirmation","","html-keyboard-response","167","545873","0.0-87.0-2.0-0.0","0","0","bQees","Scenes","","null","","","null","","","","31","122","147","","","","","","","","","","","","","","","","","","","","","","","","","","","","","","","","","","","","","",""
"","fixation","","html-keyboard-response","168","546886","0.0-88.0-0.0","0","0","bQees","Scenes","","null","","","null","","","","","","","","","","","","","","","","","","","","","","","","","","","","","","","","","","","","","","","","","","","",""
"","deliberation","","html-keyboard-response","169","550450","0.0-88.0-1.0","0","0","bQees","Scenes","","3563","","","75","","","","32","128","113","0","1","57","54","karsten-wurth-jS0zC2PJ17A-unsplash.jpg","damian-denis-D8R_txR_0PE-unsplash.jpg","3","0","113","128","","","","","","","","","","","","","","","","","","","","","","","","","","","",""
"","choice_confirmation","","html-keyboard-response","170","550969","0.0-88.0-2.0-0.0","0","0","bQees","Scenes","","null","","","null","","","","32","128","113","","","","","","","","","","","","","","","","","","","","","","","","","","","","","","","","","","","","","",""
"","fixation","","html-keyboard-response","171","551988","0.0-89.0-0.0","0","0","bQees","Scenes","","null","","","null","","","","","","","","","","","","","","","","","","","","","","","","","","","","","","","","","","","","","","","","","","","",""
"","deliberation","","html-keyboard-response","172","552923","0.0-89.0-1.0","0","0","bQees","Scenes","","933","","","75","","","","33","149","126","0","-1","29","34","yuriy-bogdanov-W51VK3Obcj0-unsplash.jpg","jordan-mcqueen-PJCZOWuOxbU-unsplash.jpg","3","0","126","149","","","","","","","","","","","","","","","","","","","","","","","","","","","",""
"","choice_confirmation","","html-keyboard-response","173","553432","0.0-89.0-2.0-0.0","0","0","bQees","Scenes","","null","","","null","","","","33","149","126","","","","","","","","","","","","","","","","","","","","","","","","","","","","","","","","","","","","","",""
"","fixation","","html-keyboard-response","174","554450","0.0-90.0-0.0","0","0","bQees","Scenes","","null","","","null","","","","","","","","","","","","","","","","","","","","","","","","","","","","","","","","","","","","","","","","","","","",""
"","deliberation","","html-keyboard-response","175","555250","0.0-90.0-1.0","0","0","bQees","Scenes","","799","","","68","","","","34","116","137","0","-1","36","58","david-marcu-W5MhJ6cy1So-unsplash.jpg","olga-stalska-QaWRyEdlffY-unsplash.jpg","3","1","116","137","","","","","","","","","","","","","","","","","","","","","","","","","","","",""
"","choice_confirmation","","html-keyboard-response","176","555764","0.0-90.0-2.0-0.0","0","0","bQees","Scenes","","null","","","null","","","","34","116","137","","","","","","","","","","","","","","","","","","","","","","","","","","","","","","","","","","","","","",""
"","fixation","","html-keyboard-response","177","556784","0.0-91.0-0.0","0","0","bQees","Scenes","","null","","","null","","","","","","","","","","","","","","","","","","","","","","","","","","","","","","","","","","","","","","","","","","","",""
"","deliberation","","html-keyboard-response","178","559540","0.0-91.0-1.0","0","0","bQees","Scenes","","2756","","","68","","","","35","102","146","0","1","44","38","anisur-rahman-K2b7UDed6uQ-unsplash.jpg","thomas-morse-cuKKa0vWZSY-unsplash.jpg","3","1","102","146","","","","","","","","","","","","","","","","","","","","","","","","","","","",""
"","choice_confirmation","","html-keyboard-response","179","560056","0.0-91.0-2.0-0.0","0","0","bQees","Scenes","","null","","","null","","","","35","102","146","","","","","","","","","","","","","","","","","","","","","","","","","","","","","","","","","","","","","",""
"","reward_learning_instructions","","instructions","180","597125","0.0-92.0-0.0","0","0","bQees","Scenes","[{""page_index"":0,""viewing_time"":16332},{""page_index"":1,""viewing_time"":18147},{""page_index"":2,""viewing_time"":2588}]","37067","","","","","","","","","","","","","","","","","","","","","","","","","","","","","","","","","","","","","","","","","","","","","","",""
"","reward_comprehension_check","","survey-multi-choice","181","612028","0.0-92.0-1.0","0","0","bQees","Scenes","","14900","{""Q0"":""True"",""Q1"":""True"",""Q2"":""Press the space bar to see its outcome"",""Q3"":""Press the relevant key while the outcome is presented""}","0","","","","","","","","","","","","","","","","","","","","","","","","","","","","","","","","","","","","","","","","","","","","",""
"","start_phase","","html-keyboard-response","182","613497","0.0-93.0","0","0","bQees","Scenes","","1467","","","78","","","","","","","","","","","","","","","","","","","","","","","","","","","","","","","","","","","","","","","","","","","",""
"","fixation","","html-keyboard-response","183","614511","0.0-94.0","0","0","bQees","Scenes","","null","","","null","","","","","","","","","","","","","","","","","","","","","","","","","","","","","","","","","","","","","","","","","","","",""
"","see_reward","","html-keyboard-response","184","616266","0.0-95.0","0","0","bQees","Scenes","","1753","","","32","","116","","0","","","","-1","","","","","1","","","","","0","1753","","","","","","","","","","","","","","","","","","","","","","","","",""
"","reward_outcome","","html-keyboard-response","185","618279","0.0-96.0","0","0","bQees","Scenes","","1678","","","40","","116","","0","","","","","","","","","","","","","","","","-1","1678","","","","","","","","","","","","","","","","","","","","","","",""
"","fixation","","html-keyboard-response","186","619300","0.0-99.0","0","0","bQees","Scenes","","null","","","null","","","","","","","","","","","","","","","","","","","","","","","","","","","","","","","","","","","","","","","","","","","",""
"","see_reward","","html-keyboard-response","187","621362","0.0-100.0","0","0","bQees","Scenes","","2061","","","32","","125","","1","","","","1","","","","","1","","","","","140","2061","","","","","","","","","","","","","","","","","","","","","","","","",""
"","reward_outcome","","html-keyboard-response","188","623376","0.0-101.0","0","0","bQees","Scenes","","1325","","","38","","125","","1","","","","","","","","","","","","","","","","1","1325","","","","","","","","","","","","","","","","","","","","","","",""
"","fixation","","html-keyboard-response","189","624397","0.0-104.0","0","0","bQees","Scenes","","null","","","null","","","","","","","","","","","","","","","","","","","","","","","","","","","","","","","","","","","","","","","","","","","",""
"","see_reward","","html-keyboard-response","190","625693","0.0-105.0","0","0","bQees","Scenes","","1294","","","32","","125","","2","","","","1","","","","","1","","","","","140","1294","","","","","","","","","","","","","","","","","","","","","","","","",""
"","reward_outcome","","html-keyboard-response","191","627715","0.0-106.0","0","0","bQees","Scenes","","1163","","","38","","125","","2","","","","","","","","","","","","","","","","1","1163","","","","","","","","","","","","","","","","","","","","","","",""
"","fixation","","html-keyboard-response","192","628726","0.0-109.0","0","0","bQees","Scenes","","null","","","null","","","","","","","","","","","","","","","","","","","","","","","","","","","","","","","","","","","","","","","","","","","",""
"","see_reward","","html-keyboard-response","193","629441","0.0-110.0","0","0","bQees","Scenes","","715","","","32","","147","","3","","","","-1","","","","","1","","","","","0","715","","","","","","","","","","","","","","","","","","","","","","","","",""
"","reward_outcome","","html-keyboard-response","194","631448","0.0-111.0","0","0","bQees","Scenes","","901","","","40","","147","","3","","","","","","","","","","","","","","","","-1","901","","","","","","","","","","","","","","","","","","","","","","",""
"","fixation","","html-keyboard-response","195","632467","0.0-114.0","0","0","bQees","Scenes","","null","","","null","","","","","","","","","","","","","","","","","","","","","","","","","","","","","","","","","","","","","","","","","","","",""
"","see_reward","","html-keyboard-response","196","633057","0.0-115.0","0","0","bQees","Scenes","","589","","","32","","127","","4","","","","-1","","","","","1","","","","","0","589","","","","","","","","","","","","","","","","","","","","","","","","",""
"","reward_outcome","","html-keyboard-response","197","635065","0.0-116.0","0","0","bQees","Scenes","","846","","","40","","127","","4","","","","","","","","","","","","","","","","-1","846","","","","","","","","","","","","","","","","","","","","","","",""
"","fixation","","html-keyboard-response","198","636077","0.0-119.0","0","0","bQees","Scenes","","null","","","null","","","","","","","","","","","","","","","","","","","","","","","","","","","","","","","","","","","","","","","","","","","",""
"","see_reward","","html-keyboard-response","199","636733","0.0-120.0","0","0","bQees","Scenes","","655","","","32","","139","","5","","","","1","","","","","1","","","","","150","655","","","","","","","","","","","","","","","","","","","","","","","","",""
"","reward_outcome","","html-keyboard-response","200","638754","0.0-121.0","0","0","bQees","Scenes","","845","","","38","","139","","5","","","","","","","","","","","","","","","","1","845","","","","","","","","","","","","","","","","","","","","","","",""
"","fixation","","html-keyboard-response","201","639759","0.0-124.0","0","0","bQees","Scenes","","null","","","null","","","","","","","","","","","","","","","","","","","","","","","","","","","","","","","","","","","","","","","","","","","",""
"","see_reward","","html-keyboard-response","202","640549","0.0-125.0","0","0","bQees","Scenes","","788","","","32","","102","","6","","","","1","","","","","1","","","","","149","788","","","","","","","","","","","","","","","","","","","","","","","","",""
"","reward_outcome","","html-keyboard-response","203","642562","0.0-126.0","0","0","bQees","Scenes","","887","","","38","","102","","6","","","","","","","","","","","","","","","","1","887","","","","","","","","","","","","","","","","","","","","","","",""
"","fixation","","html-keyboard-response","204","643581","0.0-129.0","0","0","bQees","Scenes","","null","","","null","","","","","","","","","","","","","","","","","","","","","","","","","","","","","","","","","","","","","","","","","","","",""
"","see_reward","","html-keyboard-response","205","644895","0.0-130.0","0","0","bQees","Scenes","","1312","","","32","","113","","7","","","","1","","","","","1","","","","","157","1312","","","","","","","","","","","","","","","","","","","","","","","","",""
"","reward_outcome","","html-keyboard-response","206","646906","0.0-131.0","0","0","bQees","Scenes","","1149","","","38","","113","","7","","","","","","","","","","","","","","","","1","1149","","","","","","","","","","","","","","","","","","","","","","",""
"","fixation","","html-keyboard-response","207","647914","0.0-134.0","0","0","bQees","Scenes","","null","","","null","","","","","","","","","","","","","","","","","","","","","","","","","","","","","","","","","","","","","","","","","","","",""
"","see_reward","","html-keyboard-response","208","648592","0.0-135.0","0","0","bQees","Scenes","","677","","","32","","126","","8","","","","-1","","","","","1","","","","","0","677","","","","","","","","","","","","","","","","","","","","","","","","",""
"","reward_outcome","","html-keyboard-response","209","650604","0.0-136.0","0","0","bQees","Scenes","","887","","","40","","126","","8","","","","","","","","","","","","","","","","-1","887","","","","","","","","","","","","","","","","","","","","","","",""
"","fixation","","html-keyboard-response","210","651620","0.0-139.0","0","0","bQees","Scenes","","null","","","null","","","","","","","","","","","","","","","","","","","","","","","","","","","","","","","","","","","","","","","","","","","",""
"","see_reward","","html-keyboard-response","211","652124","0.0-140.0","0","0","bQees","Scenes","","502","","","32","","123","","9","","","","-1","","","","","1","","","","","0","502","","","","","","","","","","","","","","","","","","","","","","","","",""
"","reward_outcome","","html-keyboard-response","212","654127","0.0-141.0","0","0","bQees","Scenes","","787","","","40","","123","","9","","","","","","","","","","","","","","","","-1","787","","","","","","","","","","","","","","","","","","","","","","",""
"","fixation","","html-keyboard-response","213","655141","0.0-144.0","0","0","bQees","Scenes","","null","","","null","","","","","","","","","","","","","","","","","","","","","","","","","","","","","","","","","","","","","","","","","","","",""
"","see_reward","","html-keyboard-response","214","655947","0.0-145.0","0","0","bQees","Scenes","","806","","","32","","143","","10","","","","-1","","","","","1","","","","","0","806","","","","","","","","","","","","","","","","","","","","","","","","",""
"","reward_outcome","","html-keyboard-response","215","657956","0.0-146.0","0","0","bQees","Scenes","","699","","","40","","143","","10","","","","","","","","","","","","","","","","-1","699","","","","","","","","","","","","","","","","","","","","","","",""
"","fixation","","html-keyboard-response","216","658976","0.0-149.0","0","0","bQees","Scenes","","null","","","null","","","","","","","","","","","","","","","","","","","","","","","","","","","","","","","","","","","","","","","","","","","",""
"","see_reward","","html-keyboard-response","217","659853","0.0-150.0","0","0","bQees","Scenes","","874","","","32","","147","","11","","","","-1","","","","","1","","","","","0","874","","","","","","","","","","","","","","","","","","","","","","","","",""
"","reward_outcome","","html-keyboard-response","218","661863","0.0-151.0","0","0","bQees","Scenes","","718","","","40","","147","","11","","","","","","","","","","","","","","","","-1","718","","","","","","","","","","","","","","","","","","","","","","",""
"","fixation","","html-keyboard-response","219","662880","0.0-154.0","0","0","bQees","Scenes","","null","","","null","","","","","","","","","","","","","","","","","","","","","","","","","","","","","","","","","","","","","","","","","","","",""
"","see_reward","","html-keyboard-response","220","664146","0.0-155.0","0","0","bQees","Scenes","","1264","","","32","","117","","12","","","","1","","","","","1","","","","","143","1264","","","","","","","","","","","","","","","","","","","","","","","","",""
"","reward_outcome","","html-keyboard-response","221","666154","0.0-156.0","0","0","bQees","Scenes","","1965","","","38","","117","","12","","","","","","","","","","","","","","","","1","1965","","","","","","","","","","","","","","","","","","","","","","",""
"","fixation","","html-keyboard-response","222","667173","0.0-159.0","0","0","bQees","Scenes","","null","","","null","","","","","","","","","","","","","","","","","","","","","","","","","","","","","","","","","","","","","","","","","","","",""
"","see_reward","","html-keyboard-response","223","668466","0.0-160.0","0","0","bQees","Scenes","","1291","","","32","","107","","13","","","","1","","","","","1","","","","","154","1291","","","","","","","","","","","","","","","","","","","","","","","","",""
"","reward_outcome","","html-keyboard-response","224","670479","0.0-161.0","0","0","bQees","Scenes","","749","","","38","","107","","13","","","","","","","","","","","","","","","","1","749","","","","","","","","","","","","","","","","","","","","","","",""
"","fixation","","html-keyboard-response","225","671495","0.0-164.0","0","0","bQees","Scenes","","null","","","null","","","","","","","","","","","","","","","","","","","","","","","","","","","","","","","","","","","","","","","","","","","",""
"","see_reward","","html-keyboard-response","226","672261","0.0-165.0","0","0","bQees","Scenes","","764","","","32","","117","","14","","","","1","","","","","1","","","","","143","764","","","","","","","","","","","","","","","","","","","","","","","","",""
"","reward_outcome","","html-keyboard-response","227","674271","0.0-166.0","0","0","bQees","Scenes","","657","","","38","","117","","14","","","","","","","","","","","","","","","","1","657","","","","","","","","","","","","","","","","","","","","","","",""
"","fixation","","html-keyboard-response","228","675278","0.0-169.0","0","0","bQees","Scenes","","null","","","null","","","","","","","","","","","","","","","","","","","","","","","","","","","","","","","","","","","","","","","","","","","",""
"","see_reward","","html-keyboard-response","229","676144","0.0-170.0","0","0","bQees","Scenes","","866","","","32","","139","","15","","","","1","","","","","1","","","","","150","866","","","","","","","","","","","","","","","","","","","","","","","","",""
"","reward_outcome","","html-keyboard-response","230","678162","0.0-171.0","0","0","bQees","Scenes","","686","","","38","","139","","15","","","","","","","","","","","","","","","","1","686","","","","","","","","","","","","","","","","","","","","","","",""
"","fixation","","html-keyboard-response","231","679170","0.0-174.0","0","0","bQees","Scenes","","null","","","null","","","","","","","","","","","","","","","","","","","","","","","","","","","","","","","","","","","","","","","","","","","",""
"","see_reward","","html-keyboard-response","232","679734","0.0-175.0","0","0","bQees","Scenes","","562","","","32","","127","","16","","","","-1","","","","","1","","","","","0","562","","","","","","","","","","","","","","","","","","","","","","","","",""
"","reward_outcome","","html-keyboard-response","233","681747","0.0-176.0","0","0","bQees","Scenes","","616","","","40","","127","","16","","","","","","","","","","","","","","","","-1","616","","","","","","","","","","","","","","","","","","","","","","",""
"","fixation","","html-keyboard-response","234","682758","0.0-179.0","0","0","bQees","Scenes","","null","","","null","","","","","","","","","","","","","","","","","","","","","","","","","","","","","","","","","","","","","","","","","","","",""
"","see_reward","","html-keyboard-response","235","683344","0.0-180.0","0","0","bQees","Scenes","","585","","","32","","107","","17","","","","1","","","","","1","","","","","154","585","","","","","","","","","","","","","","","","","","","","","","","","",""
"","reward_outcome","","html-keyboard-response","236","685366","0.0-181.0","0","0","bQees","Scenes","","512","","","38","","107","","17","","","","","","","","","","","","","","","","1","512","","","","","","","","","","","","","","","","","","","","","","",""
"","fixation","","html-keyboard-response","237","686376","0.0-184.0","0","0","bQees","Scenes","","null","","","null","","","","","","","","","","","","","","","","","","","","","","","","","","","","","","","","","","","","","","","","","","","",""
"","see_reward","","html-keyboard-response","238","687002","0.0-185.0","0","0","bQees","Scenes","","625","","","32","","113","","18","","","","1","","","","","1","","","","","157","625","","","","","","","","","","","","","","","","","","","","","","","","",""
"","reward_outcome","","html-keyboard-response","239","689019","0.0-186.0","0","0","bQees","Scenes","","890","","","38","","113","","18","","","","","","","","","","","","","","","","1","890","","","","","","","","","","","","","","","","","","","","","","",""
"","fixation","","html-keyboard-response","240","690028","0.0-189.0","0","0","bQees","Scenes","","null","","","null","","","","","","","","","","","","","","","","","","","","","","","","","","","","","","","","","","","","","","","","","","","",""
"","see_reward","","html-keyboard-response","241","690460","0.0-190.0","0","0","bQees","Scenes","","432","","","32","","143","","19","","","","-1","","","","","1","","","","","0","432","","","","","","","","","","","","","","","","","","","","","","","","",""
"","reward_outcome","","html-keyboard-response","242","692474","0.0-191.0","0","0","bQees","Scenes","","536","","","40","","143","","19","","","","","","","","","","","","","","","","-1","536","","","","","","","","","","","","","","","","","","","","","","",""
"","fixation","","html-keyboard-response","243","693479","0.0-194.0","0","0","bQees","Scenes","","null","","","null","","","","","","","","","","","","","","","","","","","","","","","","","","","","","","","","","","","","","","","","","","","",""
"","see_reward","","html-keyboard-response","244","693951","0.0-195.0","0","0","bQees","Scenes","","472","","","32","","116","","20","","","","-1","","","","","1","","","","","0","472","","","","","","","","","","","","","","","","","","","","","","","","",""
"","reward_outcome","","html-keyboard-response","245","695978","0.0-196.0","0","0","bQees","Scenes","","447","","","40","","116","","20","","","","","","","","","","","","","","","","-1","447","","","","","","","","","","","","","","","","","","","","","","",""
"","fixation","","html-keyboard-response","246","696995","0.0-199.0","0","0","bQees","Scenes","","null","","","null","","","","","","","","","","","","","","","","","","","","","","","","","","","","","","","","","","","","","","","","","","","",""
"","see_reward","","html-keyboard-response","247","697936","0.0-200.0","0","0","bQees","Scenes","","941","","","32","","102","","21","","","","1","","","","","1","","","","","149","941","","","","","","","","","","","","","","","","","","","","","","","","",""
"","reward_outcome","","html-keyboard-response","248","699955","0.0-201.0","0","0","bQees","Scenes","","702","","","38","","102","","21","","","","","","","","","","","","","","","","1","702","","","","","","","","","","","","","","","","","","","","","","",""
"","fixation","","html-keyboard-response","249","700968","0.0-204.0","0","0","bQees","Scenes","","null","","","null","","","","","","","","","","","","","","","","","","","","","","","","","","","","","","","","","","","","","","","","","","","",""
"","see_reward","","html-keyboard-response","250","701428","0.0-205.0","0","0","bQees","Scenes","","459","","","32","","123","","22","","","","-1","","","","","1","","","","","0","459","","","","","","","","","","","","","","","","","","","","","","","","",""
"","reward_outcome","","html-keyboard-response","251","703433","0.0-206.0","0","0","bQees","Scenes","","465","","","40","","123","","22","","","","","","","","","","","","","","","","-1","465","","","","","","","","","","","","","","","","","","","","","","",""
"","fixation","","html-keyboard-response","252","704446","0.0-209.0","0","0","bQees","Scenes","","null","","","null","","","","","","","","","","","","","","","","","","","","","","","","","","","","","","","","","","","","","","","","","","","",""
"","see_reward","","html-keyboard-response","253","704947","0.0-210.0","0","0","bQees","Scenes","","500","","","32","","126","","23","","","","-1","","","","","1","","","","","0","500","","","","","","","","","","","","","","","","","","","","","","","","",""
"","reward_outcome","","html-keyboard-response","254","706959","0.0-211.0","0","0","bQees","Scenes","","471","","","40","","126","","23","","","","","","","","","","","","","","","","-1","471","","","","","","","","","","","","","","","","","","","","","","",""
"","block_over","","html-keyboard-response","255","709016","0.0-213.0-0.0","0","0","bQees","Scenes","","2057","","","78","","","","","","","","","","","","","","","","","","","","","","","","","","","","","","","","","","","","","","","","","","","",""
"","fixation","","html-keyboard-response","256","710028","0.0-214.0","0","0","bQees","Scenes","","null","","","null","","","","","","","","","","","","","","","","","","","","","","","","","","","","","","","","","","","","","","","","","","","",""
"","see_reward","","html-keyboard-response","257","710553","0.0-215.0","0","0","bQees","Scenes","","522","","","32","","123","","24","","","","-1","","","","","2","","","","","0","522","","","","","","","","","","","","","","","","","","","","","","","","",""
"","reward_outcome","","html-keyboard-response","258","712569","0.0-216.0","0","0","bQees","Scenes","","518","","","40","","123","","24","","","","","","","","","","","","","","","","-1","518","","","","","","","","","","","","","","","","","","","","","","",""
"","fixation","","html-keyboard-response","259","713588","0.0-219.0","0","0","bQees","Scenes","","null","","","null","","","","","","","","","","","","","","","","","","","","","","","","","","","","","","","","","","","","","","","","","","","",""
"","see_reward","","html-keyboard-response","260","714062","0.0-220.0","0","0","bQees","Scenes","","474","","","32","","127","","25","","","","-1","","","","","2","","","","","0","474","","","","","","","","","","","","","","","","","","","","","","","","",""
"","reward_outcome","","html-keyboard-response","261","716082","0.0-221.0","0","0","bQees","Scenes","","471","","","40","","127","","25","","","","","","","","","","","","","","","","-1","471","","","","","","","","","","","","","","","","","","","","","","",""
"","fixation","","html-keyboard-response","262","717099","0.0-224.0","0","0","bQees","Scenes","","null","","","null","","","","","","","","","","","","","","","","","","","","","","","","","","","","","","","","","","","","","","","","","","","",""
"","see_reward","","html-keyboard-response","263","717606","0.0-225.0","0","0","bQees","Scenes","","506","","","32","","116","","26","","","","-1","","","","","2","","","","","0","506","","","","","","","","","","","","","","","","","","","","","","","","",""
"","reward_outcome","","html-keyboard-response","264","719622","0.0-226.0","0","0","bQees","Scenes","","352","","","40","","116","","26","","","","","","","","","","","","","","","","-1","352","","","","","","","","","","","","","","","","","","","","","","",""
"","fixation","","html-keyboard-response","265","720642","0.0-229.0","0","0","bQees","Scenes","","null","","","null","","","","","","","","","","","","","","","","","","","","","","","","","","","","","","","","","","","","","","","","","","","",""
"","see_reward","","html-keyboard-response","266","721231","0.0-230.0","0","0","bQees","Scenes","","589","","","32","","107","","27","","","","1","","","","","2","","","","","154","589","","","","","","","","","","","","","","","","","","","","","","","","",""
"","reward_outcome","","html-keyboard-response","267","723247","0.0-231.0","0","0","bQees","Scenes","","597","","","38","","107","","27","","","","","","","","","","","","","","","","1","597","","","","","","","","","","","","","","","","","","","","","","",""
"","fixation","","html-keyboard-response","268","724254","0.0-234.0","0","0","bQees","Scenes","","null","","","null","","","","","","","","","","","","","","","","","","","","","","","","","","","","","","","","","","","","","","","","","","","",""
"","see_reward","","html-keyboard-response","269","724733","0.0-235.0","0","0","bQees","Scenes","","477","","","32","","102","","28","","","","1","","","","","2","","","","","149","477","","","","","","","","","","","","","","","","","","","","","","","","",""
"","reward_outcome","","html-keyboard-response","270","726757","0.0-236.0","0","0","bQees","Scenes","","434","","","38","","102","","28","","","","","","","","","","","","","","","","1","434","","","","","","","","","","","","","","","","","","","","","","",""
"","fixation","","html-keyboard-response","271","727775","0.0-239.0","0","0","bQees","Scenes","","null","","","null","","","","","","","","","","","","","","","","","","","","","","","","","","","","","","","","","","","","","","","","","","","",""
"","see_reward","","html-keyboard-response","272","728133","0.0-240.0","0","0","bQees","Scenes","","357","","","32","","126","","29","","","","-1","","","","","2","","","","","0","357","","","","","","","","","","","","","","","","","","","","","","","","",""
"","reward_outcome","","html-keyboard-response","273","730145","0.0-241.0","0","0","bQees","Scenes","","390","","","40","","126","","29","","","","","","","","","","","","","","","","-1","390","","","","","","","","","","","","","","","","","","","","","","",""
"","fixation","","html-keyboard-response","274","731159","0.0-244.0","0","0","bQees","Scenes","","null","","","null","","","","","","","","","","","","","","","","","","","","","","","","","","","","","","","","","","","","","","","","","","","",""
"","see_reward","","html-keyboard-response","275","731699","0.0-245.0","0","0","bQees","Scenes","","540","","","32","","125","","30","","","","1","","","","","2","","","","","140","540","","","","","","","","","","","","","","","","","","","","","","","","",""
"","reward_outcome","","html-keyboard-response","276","733724","0.0-246.0","0","0","bQees","Scenes","","639","","","38","","125","","30","","","","","","","","","","","","","","","","1","639","","","","","","","","","","","","","","","","","","","","","","",""
"","fixation","","html-keyboard-response","277","734747","0.0-249.0","0","0","bQees","Scenes","","null","","","null","","","","","","","","","","","","","","","","","","","","","","","","","","","","","","","","","","","","","","","","","","","",""
"","see_reward","","html-keyboard-response","278","735312","0.0-250.0","0","0","bQees","Scenes","","565","","","32","","143","","31","","","","-1","","","","","2","","","","","0","565","","","","","","","","","","","","","","","","","","","","","","","","",""
"","reward_outcome","","html-keyboard-response","279","737322","0.0-251.0","0","0","bQees","Scenes","","396","","","40","","143","","31","","","","","","","","","","","","","","","","-1","396","","","","","","","","","","","","","","","","","","","","","","",""
"","fixation","","html-keyboard-response","280","738336","0.0-254.0","0","0","bQees","Scenes","","null","","","null","","","","","","","","","","","","","","","","","","","","","","","","","","","","","","","","","","","","","","","","","","","",""
"","see_reward","","html-keyboard-response","281","738663","0.0-255.0","0","0","bQees","Scenes","","325","","","32","","116","","32","","","","-1","","","","","2","","","","","0","325","","","","","","","","","","","","","","","","","","","","","","","","",""
"","reward_outcome","","html-keyboard-response","282","740672","0.0-256.0","0","0","bQees","Scenes","","366","","","40","","116","","32","","","","","","","","","","","","","","","","-1","366","","","","","","","","","","","","","","","","","","","","","","",""
"","fixation","","html-keyboard-response","283","741684","0.0-259.0","0","0","bQees","Scenes","","null","","","null","","","","","","","","","","","","","","","","","","","","","","","","","","","","","","","","","","","","","","","","","","","",""
"","see_reward","","html-keyboard-response","284","742123","0.0-260.0","0","0","bQees","Scenes","","438","","","32","","126","","33","","","","-1","","","","","2","","","","","0","438","","","","","","","","","","","","","","","","","","","","","","","","",""
"","reward_outcome","","html-keyboard-response","285","744134","0.0-261.0","0","0","bQees","Scenes","","307","","","40","","126","","33","","","","","","","","","","","","","","","","-1","307","","","","","","","","","","","","","","","","","","","","","","",""
"","fixation","","html-keyboard-response","286","745144","0.0-264.0","0","0","bQees","Scenes","","null","","","null","","","","","","","","","","","","","","","","","","","","","","","","","","","","","","","","","","","","","","","","","","","",""
"","see_reward","","html-keyboard-response","287","746023","0.0-265.0","0","0","bQees","Scenes","","878","","","32","","139","","34","","","","1","","","","","2","","","","","150","878","","","","","","","","","","","","","","","","","","","","","","","","",""
"","reward_outcome","","html-keyboard-response","288","748043","0.0-266.0","0","0","bQees","Scenes","","513","","","38","","139","","34","","","","","","","","","","","","","","","","1","513","","","","","","","","","","","","","","","","","","","","","","",""
"","fixation","","html-keyboard-response","289","749068","0.0-269.0","0","0","bQees","Scenes","","null","","","null","","","","","","","","","","","","","","","","","","","","","","","","","","","","","","","","","","","","","","","","","","","",""
"","see_reward","","html-keyboard-response","290","749500","0.0-270.0","0","0","bQees","Scenes","","431","","","32","","123","","35","","","","-1","","","","","2","","","","","0","431","","","","","","","","","","","","","","","","","","","","","","","","",""
"","reward_outcome","","html-keyboard-response","291","751512","0.0-271.0","0","0","bQees","Scenes","","737","","","40","","123","","35","","","","","","","","","","","","","","","","-1","737","","","","","","","","","","","","","","","","","","","","","","",""
"","fixation","","html-keyboard-response","292","752519","0.0-274.0","0","0","bQees","Scenes","","null","","","null","","","","","","","","","","","","","","","","","","","","","","","","","","","","","","","","","","","","","","","","","","","",""
"","see_reward","","html-keyboard-response","293","753007","0.0-275.0","0","0","bQees","Scenes","","486","","","32","","147","","36","","","","-1","","","","","2","","","","","0","486","","","","","","","","","","","","","","","","","","","","","","","","",""
"","reward_outcome","","html-keyboard-response","294","755015","0.0-276.0","0","0","bQees","Scenes","","439","","","40","","147","","36","","","","","","","","","","","","","","","","-1","439","","","","","","","","","","","","","","","","","","","","","","",""
"","fixation","","html-keyboard-response","295","756035","0.0-279.0","0","0","bQees","Scenes","","null","","","null","","","","","","","","","","","","","","","","","","","","","","","","","","","","","","","","","","","","","","","","","","","",""
"","see_reward","","html-keyboard-response","296","756502","0.0-280.0","0","0","bQees","Scenes","","466","","","32","","139","","37","","","","1","","","","","2","","","","","150","466","","","","","","","","","","","","","","","","","","","","","","","","",""
"","reward_outcome","","html-keyboard-response","297","758516","0.0-281.0","0","0","bQees","Scenes","","458","","","38","","139","","37","","","","","","","","","","","","","","","","1","458","","","","","","","","","","","","","","","","","","","","","","",""
"","fixation","","html-keyboard-response","298","759532","0.0-284.0","0","0","bQees","Scenes","","null","","","null","","","","","","","","","","","","","","","","","","","","","","","","","","","","","","","","","","","","","","","","","","","",""
"","see_reward","","html-keyboard-response","299","760013","0.0-285.0","0","0","bQees","Scenes","","479","","","32","","125","","38","","","","1","","","","","2","","","","","140","479","","","","","","","","","","","","","","","","","","","","","","","","",""
"","reward_outcome","","html-keyboard-response","300","762027","0.0-286.0","0","0","bQees","Scenes","","573","","","38","","125","","38","","","","","","","","","","","","","","","","1","573","","","","","","","","","","","","","","","","","","","","","","",""
"","fixation","","html-keyboard-response","301","763042","0.0-289.0","0","0","bQees","Scenes","","null","","","null","","","","","","","","","","","","","","","","","","","","","","","","","","","","","","","","","","","","","","","","","","","",""
"","see_reward","","html-keyboard-response","302","763678","0.0-290.0","0","0","bQees","Scenes","","634","","","32","","117","","39","","","","1","","","","","2","","","","","143","634","","","","","","","","","","","","","","","","","","","","","","","","",""
"","reward_outcome","","html-keyboard-response","303","765693","0.0-291.0","0","0","bQees","Scenes","","442","","","38","","117","","39","","","","","","","","","","","","","","","","1","442","","","","","","","","","","","","","","","","","","","","","","",""
"","fixation","","html-keyboard-response","304","766705","0.0-294.0","0","0","bQees","Scenes","","null","","","null","","","","","","","","","","","","","","","","","","","","","","","","","","","","","","","","","","","","","","","","","","","",""
"","see_reward","","html-keyboard-response","305","767294","0.0-295.0","0","0","bQees","Scenes","","587","","","32","","102","","40","","","","1","","","","","2","","","","","149","587","","","","","","","","","","","","","","","","","","","","","","","","",""
"","reward_outcome","","html-keyboard-response","306","769316","0.0-296.0","0","0","bQees","Scenes","","540","","","38","","102","","40","","","","","","","","","","","","","","","","1","540","","","","","","","","","","","","","","","","","","","","","","",""
"","fixation","","html-keyboard-response","307","770336","0.0-299.0","0","0","bQees","Scenes","","null","","","null","","","","","","","","","","","","","","","","","","","","","","","","","","","","","","","","","","","","","","","","","","","",""
"","see_reward","","html-keyboard-response","308","770912","0.0-300.0","0","0","bQees","Scenes","","576","","","32","","113","","41","","","","1","","","","","2","","","","","157","576","","","","","","","","","","","","","","","","","","","","","","","","",""
"","reward_outcome","","html-keyboard-response","309","772917","0.0-301.0","0","0","bQees","Scenes","","752","","","38","","113","","41","","","","","","","","","","","","","","","","1","752","","","","","","","","","","","","","","","","","","","","","","",""
"","fixation","","html-keyboard-response","310","773934","0.0-304.0","0","0","bQees","Scenes","","null","","","null","","","","","","","","","","","","","","","","","","","","","","","","","","","","","","","","","","","","","","","","","","","",""
"","see_reward","","html-keyboard-response","311","774489","0.0-305.0","0","0","bQees","Scenes","","554","","","32","","143","","42","","","","-1","","","","","2","","","","","0","554","","","","","","","","","","","","","","","","","","","","","","","","",""
"","reward_outcome","","html-keyboard-response","312","776504","0.0-306.0","0","0","bQees","Scenes","","743","","","40","","143","","42","","","","","","","","","","","","","","","","-1","743","","","","","","","","","","","","","","","","","","","","","","",""
"","fixation","","html-keyboard-response","313","777513","0.0-309.0","0","0","bQees","Scenes","","null","","","null","","","","","","","","","","","","","","","","","","","","","","","","","","","","","","","","","","","","","","","","","","","",""
"","see_reward","","html-keyboard-response","314","778060","0.0-310.0","0","0","bQees","Scenes","","546","","","32","","147","","43","","","","-1","","","","","2","","","","","0","546","","","","","","","","","","","","","","","","","","","","","","","","",""
"","reward_outcome","","html-keyboard-response","315","780076","0.0-311.0","0","0","bQees","Scenes","","518","","","40","","147","","43","","","","","","","","","","","","","","","","-1","518","","","","","","","","","","","","","","","","","","","","","","",""
"","fixation","","html-keyboard-response","316","781097","0.0-314.0","0","0","bQees","Scenes","","null","","","null","","","","","","","","","","","","","","","","","","","","","","","","","","","","","","","","","","","","","","","","","","","",""
"","see_reward","","html-keyboard-response","317","781646","0.0-315.0","0","0","bQees","Scenes","","548","","","32","","113","","44","","","","1","","","","","2","","","","","157","548","","","","","","","","","","","","","","","","","","","","","","","","",""
"","reward_outcome","","html-keyboard-response","318","783664","0.0-316.0","0","0","bQees","Scenes","","527","","","38","","113","","44","","","","","","","","","","","","","","","","1","527","","","","","","","","","","","","","","","","","","","","","","",""
"","fixation","","html-keyboard-response","319","784670","0.0-319.0","0","0","bQees","Scenes","","null","","","null","","","","","","","","","","","","","","","","","","","","","","","","","","","","","","","","","","","","","","","","","","","",""
"","see_reward","","html-keyboard-response","320","785213","0.0-320.0","0","0","bQees","Scenes","","541","","","32","","117","","45","","","","1","","","","","2","","","","","143","541","","","","","","","","","","","","","","","","","","","","","","","","",""
"","reward_outcome","","html-keyboard-response","321","787238","0.0-321.0","0","0","bQees","Scenes","","506","","","38","","117","","45","","","","","","","","","","","","","","","","1","506","","","","","","","","","","","","","","","","","","","","","","",""
"","fixation","","html-keyboard-response","322","788239","0.0-324.0","0","0","bQees","Scenes","","null","","","null","","","","","","","","","","","","","","","","","","","","","","","","","","","","","","","","","","","","","","","","","","","",""
"","see_reward","","html-keyboard-response","323","788883","0.0-325.0","0","0","bQees","Scenes","","642","","","32","","107","","46","","","","1","","","","","2","","","","","154","642","","","","","","","","","","","","","","","","","","","","","","","","",""
"","reward_outcome","","html-keyboard-response","324","790894","0.0-326.0","0","0","bQees","Scenes","","581","","","38","","107","","46","","","","","","","","","","","","","","","","1","581","","","","","","","","","","","","","","","","","","","","","","",""
"","fixation","","html-keyboard-response","325","791921","0.0-329.0","0","0","bQees","Scenes","","null","","","null","","","","","","","","","","","","","","","","","","","","","","","","","","","","","","","","","","","","","","","","","","","",""
"","see_reward","","html-keyboard-response","326","792490","0.0-330.0","0","0","bQees","Scenes","","568","","","32","","127","","47","","","","-1","","","","","2","","","","","0","568","","","","","","","","","","","","","","","","","","","","","","","","",""
"","reward_outcome","","html-keyboard-response","327","794501","0.0-331.0","0","0","bQees","Scenes","","471","","","40","","127","","47","","","","","","","","","","","","","","","","-1","471","","","","","","","","","","","","","","","","","","","","","","",""
"","block_over","","html-keyboard-response","328","796212","0.0-333.0-0.0","0","0","bQees","Scenes","","1709","","","78","","","","","","","","","","","","","","","","","","","","","","","","","","","","","","","","","","","","","","","","","","","",""
"","fixation","","html-keyboard-response","329","797230","0.0-334.0","0","0","bQees","Scenes","","null","","","null","","","","","","","","","","","","","","","","","","","","","","","","","","","","","","","","","","","","","","","","","","","",""
"","see_reward","","html-keyboard-response","330","798069","0.0-335.0","0","0","bQees","Scenes","","838","","","32","","107","","48","","","","1","","","","","3","","","","","154","838","","","","","","","","","","","","","","","","","","","","","","","","",""
"","reward_outcome","","html-keyboard-response","331","800090","0.0-336.0","0","0","bQees","Scenes","","492","","","38","","107","","48","","","","","","","","","","","","","","","","1","492","","","","","","","","","","","","","","","","","","","","","","",""
"","fixation","","html-keyboard-response","332","801107","0.0-339.0","0","0","bQees","Scenes","","null","","","null","","","","","","","","","","","","","","","","","","","","","","","","","","","","","","","","","","","","","","","","","","","",""
"","see_reward","","html-keyboard-response","333","801646","0.0-340.0","0","0","bQees","Scenes","","538","","","32","","139","","49","","","","1","","","","","3","","","","","150","538","","","","","","","","","","","","","","","","","","","","","","","","",""
"","reward_outcome","","html-keyboard-response","334","803669","0.0-341.0","0","0","bQees","Scenes","","468","","","38","","139","","49","","","","","","","","","","","","","","","","1","468","","","","","","","","","","","","","","","","","","","","","","",""
"","fixation","","html-keyboard-response","335","804680","0.0-344.0","0","0","bQees","Scenes","","null","","","null","","","","","","","","","","","","","","","","","","","","","","","","","","","","","","","","","","","","","","","","","","","",""
"","see_reward","","html-keyboard-response","336","805296","0.0-345.0","0","0","bQees","Scenes","","616","","","32","","127","","50","","","","-1","","","","","3","","","","","0","616","","","","","","","","","","","","","","","","","","","","","","","","",""
"","reward_outcome","","html-keyboard-response","337","807318","0.0-346.0","0","0","bQees","Scenes","","619","","","40","","127","","50","","","","","","","","","","","","","","","","-1","619","","","","","","","","","","","","","","","","","","","","","","",""
"","fixation","","html-keyboard-response","338","808338","0.0-349.0","0","0","bQees","Scenes","","null","","","null","","","","","","","","","","","","","","","","","","","","","","","","","","","","","","","","","","","","","","","","","","","",""
"","see_reward","","html-keyboard-response","339","809031","0.0-350.0","0","0","bQees","Scenes","","693","","","32","","123","","51","","","","-1","","","","","3","","","","","0","693","","","","","","","","","","","","","","","","","","","","","","","","",""
"","reward_outcome","","html-keyboard-response","340","811052","0.0-351.0","0","0","bQees","Scenes","","496","","","40","","123","","51","","","","","","","","","","","","","","","","-1","496","","","","","","","","","","","","","","","","","","","","","","",""
"","fixation","","html-keyboard-response","341","812059","0.0-354.0","0","0","bQees","Scenes","","null","","","null","","","","","","","","","","","","","","","","","","","","","","","","","","","","","","","","","","","","","","","","","","","",""
"","see_reward","","html-keyboard-response","342","812538","0.0-355.0","0","0","bQees","Scenes","","478","","","32","","127","","52","","","","-1","","","","","3","","","","","0","478","","","","","","","","","","","","","","","","","","","","","","","","",""
"","reward_outcome","","html-keyboard-response","343","814557","0.0-356.0","0","0","bQees","Scenes","","450","","","40","","127","","52","","","","","","","","","","","","","","","","-1","450","","","","","","","","","","","","","","","","","","","","","","",""
"","fixation","","html-keyboard-response","344","815568","0.0-359.0","0","0","bQees","Scenes","","null","","","null","","","","","","","","","","","","","","","","","","","","","","","","","","","","","","","","","","","","","","","","","","","",""
"","see_reward","","html-keyboard-response","345","815869","0.0-360.0","0","0","bQees","Scenes","","300","","","32","","116","","53","","","","-1","","","","","3","","","","","0","300","","","","","","","","","","","","","","","","","","","","","","","","",""
"","reward_outcome","","html-keyboard-response","346","817894","0.0-361.0","0","0","bQees","Scenes","","422","","","40","","116","","53","","","","","","","","","","","","","","","","-1","422","","","","","","","","","","","","","","","","","","","","","","",""
"","fixation","","html-keyboard-response","347","818917","0.0-364.0","0","0","bQees","Scenes","","null","","","null","","","","","","","","","","","","","","","","","","","","","","","","","","","","","","","","","","","","","","","","","","","",""
"","see_reward","","html-keyboard-response","348","819425","0.0-365.0","0","0","bQees","Scenes","","506","","","32","","125","","54","","","","1","","","","","3","","","","","140","506","","","","","","","","","","","","","","","","","","","","","","","","",""
"","reward_outcome","","html-keyboard-response","349","821446","0.0-366.0","0","0","bQees","Scenes","","531","","","38","","125","","54","","","","","","","","","","","","","","","","1","531","","","","","","","","","","","","","","","","","","","","","","",""
"","fixation","","html-keyboard-response","350","822455","0.0-369.0","0","0","bQees","Scenes","","null","","","null","","","","","","","","","","","","","","","","","","","","","","","","","","","","","","","","","","","","","","","","","","","",""
"","see_reward","","html-keyboard-response","351","823205","0.0-370.0","0","0","bQees","Scenes","","749","","","32","","147","","55","","","","-1","","","","","3","","","","","0","749","","","","","","","","","","","","","","","","","","","","","","","","",""
"","reward_outcome","","html-keyboard-response","352","825225","0.0-371.0","0","0","bQees","Scenes","","427","","","40","","147","","55","","","","","","","","","","","","","","","","-1","427","","","","","","","","","","","","","","","","","","","","","","",""
"","fixation","","html-keyboard-response","353","826241","0.0-374.0","0","0","bQees","Scenes","","null","","","null","","","","","","","","","","","","","","","","","","","","","","","","","","","","","","","","","","","","","","","","","","","",""
"","see_reward","","html-keyboard-response","354","826808","0.0-375.0","0","0","bQees","Scenes","","565","","","32","","117","","56","","","","1","","","","","3","","","","","143","565","","","","","","","","","","","","","","","","","","","","","","","","",""
"","reward_outcome","","html-keyboard-response","355","828815","0.0-376.0","0","0","bQees","Scenes","","426","","","38","","117","","56","","","","","","","","","","","","","","","","1","426","","","","","","","","","","","","","","","","","","","","","","",""
