"success","ttype","start_time","trial_type","trial_index","time_elapsed","internal_node_id","warning","missed_checkup","PID","stim_type","view_history","rt","responses","category","repeat_instructions","key_press","response","stimulus_id","painting","index","stimulus_left","stimulus_right","explain_trial","reward_type","rating_left","rating_right","painting_left","painting_right","block","left_chosen","chosen_obj","unchosen_obj","explain_response","reward_amount","see_reward_rt","register_reward_response","register_reward_rt","deliberation_reward_tally","stimulus_left_deliberation_ind","stimulus_right_deliberation_ind","chosen_trial","gain_left","higher_outcome_chosen","old_pair","chosen_object","rt_pairs","left_object_chosen","rt_object","old_response","new_rating","deliberated_stim","initial_rating","outcome_eval_rt","outcome_eval_response","outcome_eval_gain","outcome_eval_acc","preamble","outcome_eval_confidence","outcome_eval_confidence_rt","total_reward_tally"
"true","full_screen","d01182023hr1357","fullscreen","0","22277","0.0-0.0","0","0","Ooi3v","People","","","","","","","","","","","","","","","","","","","","","","","","","","","","","","","","","","","","","","","","","","","","","","","","","",""
"","rating_instructions","","instructions","1","47623","0.0-1.0-0.0","0","0","Ooi3v","People","[{""page_index"":0,""viewing_time"":13102},{""page_index"":1,""viewing_time"":3904},{""page_index"":0,""viewing_time"":7400},{""page_index"":1,""viewing_time"":938}]","25344","","","","","","","","","","","","","","","","","","","","","","","","","","","","","","","","","","","","","","","","","","","","","","","",""
"","","","survey-multi-choice","2","52674","0.0-1.0-1.0","0","0","Ooi3v","People","","5048","{""Q0"":""True"",""Q1"":""Mouse""}","rating_comprehension_check","0","","","","","","","","","","","","","","","","","","","","","","","","","","","","","","","","","","","","","","","","","","","","",""
"","start_phase","","html-keyboard-response","3","54226","0.0-2.0","0","0","Ooi3v","People","","1551","","","","78","","","","","","","","","","","","","","","","","","","","","","","","","","","","","","","","","","","","","","","","","","","",""
"","rating","","html-slider-response","4","57538","0.0-3.0","0","0","Ooi3v","People","","3311","","","","","64","40","prince-akachi-4Yv84VgQkRM-unsplash.jpg","0","","","","","","","","","","","","","","","","","","","","","","","","","","","","","","","","","","","","","","","",""
"","rating","","html-slider-response","5","60642","0.0-4.0","0","0","Ooi3v","People","","3102","","","","","77","10","charles-etoroma-95UF6LXe-Lo-unsplash.jpg","1","","","","","","","","","","","","","","","","","","","","","","","","","","","","","","","","","","","","","","","",""
"","rating","","html-slider-response","6","65097","0.0-5.0","0","0","Ooi3v","People","","4453","","","","","63","15","gabriel-silverio-u3WmDyKGsrY-unsplash.jpg","2","","","","","","","","","","","","","","","","","","","","","","","","","","","","","","","","","","","","","","","",""
"","rating","","html-slider-response","7","68291","0.0-6.0","0","0","Ooi3v","People","","3193","","","","","58","21","jessica-felicio-_cvwXhGqG-o-unsplash.jpg","3","","","","","","","","","","","","","","","","","","","","","","","","","","","","","","","","","","","","","","","",""
"","rating","","html-slider-response","8","71130","0.0-7.0","0","0","Ooi3v","People","","2837","","","","","61","2","arjunsyah-TBUA5KHJn6k-unsplash.jpg","4","","","","","","","","","","","","","","","","","","","","","","","","","","","","","","","","","","","","","","","",""
"","rating","","html-slider-response","9","74900","0.0-8.0","0","0","Ooi3v","People","","3768","","","","","44","25","joseph-gonzalez-iFgRcqHznqg-unsplash.jpg","5","","","","","","","","","","","","","","","","","","","","","","","","","","","","","","","","","","","","","","","",""
"","rating","","html-slider-response","10","77984","0.0-9.0","0","0","Ooi3v","People","","3082","","","","","45","9","carlos-andres-gomez-vJuk8Y86mRw-unsplash.jpg","6","","","","","","","","","","","","","","","","","","","","","","","","","","","","","","","","","","","","","","","",""
"","rating","","html-slider-response","11","81128","0.0-10.0","0","0","Ooi3v","People","","3142","","","","","64","3","art-hauntington-jzY0KRJopEI-unsplash.jpg","7","","","","","","","","","","","","","","","","","","","","","","","","","","","","","","","","","","","","","","","",""
"","rating","","html-slider-response","12","84395","0.0-11.0","0","0","Ooi3v","People","","3266","","","","","62","39","philip-martin-5aGUyCW_PJw-unsplash.jpg","8","","","","","","","","","","","","","","","","","","","","","","","","","","","","","","","","","","","","","","","",""
"","rating","","html-slider-response","13","87833","0.0-12.0","0","0","Ooi3v","People","","3436","","","","","43","13","erik-lucatero-d2MSDujJl2g-unsplash.jpg","9","","","","","","","","","","","","","","","","","","","","","","","","","","","","","","","","","","","","","","","",""
"","rating","","html-slider-response","14","90675","0.0-13.0","0","0","Ooi3v","People","","2840","","","","","45","5","batel-studio-ttSRjiYG_WM-unsplash.jpg","10","","","","","","","","","","","","","","","","","","","","","","","","","","","","","","","","","","","","","","","",""
"","rating","","html-slider-response","15","93803","0.0-14.0","0","0","Ooi3v","People","","3127","","","","","53","16","giano-currie-5-9YOsmf8IQ-unsplash.jpg","11","","","","","","","","","","","","","","","","","","","","","","","","","","","","","","","","","","","","","","","",""
"","rating","","html-slider-response","16","100596","0.0-15.0","0","0","Ooi3v","People","","6792","","","","","58","31","mathilda-khoo-vLR0YP_otCo-unsplash.jpg","12","","","","","","","","","","","","","","","","","","","","","","","","","","","","","","","","","","","","","","","",""
"","rating","","html-slider-response","17","103672","0.0-16.0","0","0","Ooi3v","People","","3074","","","","","59","1","aiony-haust-jmATI5Q_YgY-unsplash.jpg","13","","","","","","","","","","","","","","","","","","","","","","","","","","","","","","","","","","","","","","","",""
"","rating","","html-slider-response","18","106306","0.0-17.0","0","0","Ooi3v","People","","2632","","","","","33","28","justin-chen-J7Cf1Gch49E-unsplash.jpg","14","","","","","","","","","","","","","","","","","","","","","","","","","","","","","","","","","","","","","","","",""
"","rating","","html-slider-response","19","110209","0.0-18.0","0","0","Ooi3v","People","","3901","","","","","59","36","ospan-ali-mGdA2fzjWLo-unsplash.jpg","15","","","","","","","","","","","","","","","","","","","","","","","","","","","","","","","","","","","","","","","",""
"","rating","","html-slider-response","20","113895","0.0-19.0","0","0","Ooi3v","People","","3684","","","","","56","12","daniel-rigdon-dXmXKPP2L4E-unsplash.jpg","16","","","","","","","","","","","","","","","","","","","","","","","","","","","","","","","","","","","","","","","",""
"","rating","","html-slider-response","21","116689","0.0-20.0","0","0","Ooi3v","People","","2793","","","","","58","18","good-faces-xmSWVeGEnJw-unsplash.jpg","17","","","","","","","","","","","","","","","","","","","","","","","","","","","","","","","","","","","","","","","",""
"","rating","","html-slider-response","22","120095","0.0-21.0","0","0","Ooi3v","People","","3405","","","","","63","46","stefan-stefancik-QXevDflbl8A-unsplash.jpg","18","","","","","","","","","","","","","","","","","","","","","","","","","","","","","","","","","","","","","","","",""
"","rating","","html-slider-response","23","123200","0.0-22.0","0","0","Ooi3v","People","","3104","","","","","56","33","olena-sergienko-0TSd6uCKTKc-unsplash.jpg","19","","","","","","","","","","","","","","","","","","","","","","","","","","","","","","","","","","","","","","","",""
"","rating","","html-slider-response","24","123287","0.0-23.0","0","0","Ooi3v","People","","86","","","","","50","27","jurica-koletic-7YVZYZeITc8-unsplash.jpg","20","","","","","","","","","","","","","","","","","","","","","","","","","","","","","","","","","","","","","","","",""
"","rating","","html-slider-response","25","129465","0.0-24.0","0","0","Ooi3v","People","","6176","","","","","53","47","tyler-nix-ZGa9d1a_4tA-unsplash.jpg","21","","","","","","","","","","","","","","","","","","","","","","","","","","","","","","","","","","","","","","","",""
"","rating","","html-slider-response","26","133232","0.0-25.0","0","0","Ooi3v","People","","3765","","","","","36","37","pavel-anoshin-d0peGya6R5Y-unsplash.jpg","22","","","","","","","","","","","","","","","","","","","","","","","","","","","","","","","","","","","","","","","",""
"","rating","","html-slider-response","27","136064","0.0-26.0","0","0","Ooi3v","People","","2832","","","","","40","26","juri-gianfrancesco-9EZadYaMzk4-unsplash.jpg","23","","","","","","","","","","","","","","","","","","","","","","","","","","","","","","","","","","","","","","","",""
"","rating","","html-slider-response","28","138967","0.0-27.0","0","0","Ooi3v","People","","2902","","","","","45","43","raamin-ka-0qJBEzudn5E-unsplash.jpg","24","","","","","","","","","","","","","","","","","","","","","","","","","","","","","","","","","","","","","","","",""
"","rating","","html-slider-response","29","142167","0.0-28.0","0","0","Ooi3v","People","","3199","","","","","37","45","sarah-noltner-pL5ZzPp1zqg-unsplash.jpg","25","","","","","","","","","","","","","","","","","","","","","","","","","","","","","","","","","","","","","","","",""
"","rating","","html-slider-response","30","146226","0.0-29.0","0","0","Ooi3v","People","","4057","","","","","51","38","petr-sevcovic-HzDF-rxlSeM-unsplash.jpg","26","","","","","","","","","","","","","","","","","","","","","","","","","","","","","","","","","","","","","","","",""
"","rating","","html-slider-response","31","149370","0.0-30.0","0","0","Ooi3v","People","","3142","","","","","40","49","vicky-hladynets-_gDoyVv5F4c-unsplash.jpg","27","","","","","","","","","","","","","","","","","","","","","","","","","","","","","","","","","","","","","","","",""
"","rating","","html-slider-response","32","151889","0.0-31.0","0","0","Ooi3v","People","","2518","","","","","54","48","velizar-ivanov-7ktP9yZA1g4-unsplash.jpg","28","","","","","","","","","","","","","","","","","","","","","","","","","","","","","","","","","","","","","","","",""
"","rating","","html-slider-response","33","151978","0.0-32.0","0","0","Ooi3v","People","","88","","","","","50","23","joanna-nix-walkup-H4fEMshfwTE-unsplash.jpg","29","","","","","","","","","","","","","","","","","","","","","","","","","","","","","","","","","","","","","","","",""
"","rating","","html-slider-response","34","155941","0.0-33.0","0","0","Ooi3v","People","","3962","","","","","29","35","oliver-ragfelt-khV4fTy6-D8-unsplash.jpg","30","","","","","","","","","","","","","","","","","","","","","","","","","","","","","","","","","","","","","","","",""
"","rating","","html-slider-response","35","159249","0.0-34.0","0","0","Ooi3v","People","","3307","","","","","31","8","bruce-dixon-3M9WJQVHzog-unsplash.jpg","31","","","","","","","","","","","","","","","","","","","","","","","","","","","","","","","","","","","","","","","",""
"","rating","","html-slider-response","36","162354","0.0-35.0","0","0","Ooi3v","People","","3103","","","","","63","0","abstral-official-cyOKLSgkgCE-unsplash.jpg","32","","","","","","","","","","","","","","","","","","","","","","","","","","","","","","","","","","","","","","","",""
"","rating","","html-slider-response","37","162449","0.0-36.0","0","0","Ooi3v","People","","93","","","","","50","7","brooke-cagle-HRZUzoX1e6w-unsplash.jpg","33","","","","","","","","","","","","","","","","","","","","","","","","","","","","","","","","","","","","","","","",""
"","rating","","html-slider-response","38","166080","0.0-37.0","0","0","Ooi3v","People","","3630","","","","","61","44","rikonavt-HQjfrvdTfak-unsplash.jpg","34","","","","","","","","","","","","","","","","","","","","","","","","","","","","","","","","","","","","","","","",""
"","rating","","html-slider-response","39","168913","0.0-38.0","0","0","Ooi3v","People","","2831","","","","","53","34","oliver-johnson-1TUIcKob7Zs-unsplash.jpg","35","","","","","","","","","","","","","","","","","","","","","","","","","","","","","","","","","","","","","","","",""
"","rating","","html-slider-response","40","173104","0.0-39.0","0","0","Ooi3v","People","","4190","","","","","52","29","leilani-angel-K84vnnzxmTQ-unsplash.jpg","36","","","","","","","","","","","","","","","","","","","","","","","","","","","","","","","","","","","","","","","",""
"","rating","","html-slider-response","41","176164","0.0-40.0","0","0","Ooi3v","People","","3058","","","","","58","20","houcine-ncib-B4TjXnI0Y2c-unsplash.jpg","37","","","","","","","","","","","","","","","","","","","","","","","","","","","","","","","","","","","","","","","",""
"","rating","","html-slider-response","42","180641","0.0-41.0","0","0","Ooi3v","People","","4477","","","","","72","6","ben-o-bro-C5XyLljkMrY-unsplash.jpg","38","","","","","","","","","","","","","","","","","","","","","","","","","","","","","","","","","","","","","","","",""
"","rating","","html-slider-response","43","185824","0.0-42.0","0","0","Ooi3v","People","","5181","","","","","77","14","freddy-kearney-o-ioeoATbIM-unsplash.jpg","39","","","","","","","","","","","","","","","","","","","","","","","","","","","","","","","","","","","","","","","",""
"","rating","","html-slider-response","44","188382","0.0-43.0","0","0","Ooi3v","People","","2557","","","","","61","19","ha-nguy-n-OFSQ6bHjFjs-unsplash.jpg","40","","","","","","","","","","","","","","","","","","","","","","","","","","","","","","","","","","","","","","","",""
"","rating","","html-slider-response","45","192688","0.0-44.0","0","0","Ooi3v","People","","4304","","","","","54","4","barna-bartis-2x3vfVxwR7o-unsplash.jpg","41","","","","","","","","","","","","","","","","","","","","","","","","","","","","","","","","","","","","","","","",""
"","rating","","html-slider-response","46","195224","0.0-45.0","0","0","Ooi3v","People","","2535","","","","","61","17","gleb-lukomets-paBzWCPN23k-unsplash.jpg","42","","","","","","","","","","","","","","","","","","","","","","","","","","","","","","","","","","","","","","","",""
"","rating","","html-slider-response","47","198333","0.0-46.0","0","0","Ooi3v","People","","3109","","","","","55","41","prince-akachi-i2hoD-C2RUA-unsplash.jpg","43","","","","","","","","","","","","","","","","","","","","","","","","","","","","","","","","","","","","","","","",""
"","rating","","html-slider-response","48","201848","0.0-47.0","0","0","Ooi3v","People","","3513","","","","","61","42","prince-akachi-l3IHXOdMyHQ-unsplash.jpg","44","","","","","","","","","","","","","","","","","","","","","","","","","","","","","","","","","","","","","","","",""
"","rating","","html-slider-response","49","204710","0.0-48.0","0","0","Ooi3v","People","","2860","","","","","49","30","matheus-ferrero-pg_WCHWSdT8-unsplash.jpg","45","","","","","","","","","","","","","","","","","","","","","","","","","","","","","","","","","","","","","","","",""
"","rating","","html-slider-response","50","208080","0.0-49.0","0","0","Ooi3v","People","","3369","","","","","46","22","jessica-radanavong-mrYkTuAesKE-unsplash.jpg","46","","","","","","","","","","","","","","","","","","","","","","","","","","","","","","","","","","","","","","","",""
"","rating","","html-slider-response","51","212136","0.0-50.0","0","0","Ooi3v","People","","4053","","","","","70","32","nathan-dumlao-ger61_TX6oI-unsplash.jpg","47","","","","","","","","","","","","","","","","","","","","","","","","","","","","","","","","","","","","","","","",""
"","rating","","html-slider-response","52","215071","0.0-51.0","0","0","Ooi3v","People","","2934","","","","","65","24","joel-mott-LaK153ghdig-unsplash.jpg","48","","","","","","","","","","","","","","","","","","","","","","","","","","","","","","","","","","","","","","","",""
"","rating","","html-slider-response","53","217735","0.0-52.0","0","0","Ooi3v","People","","2663","","","","","61","11","christian-ferrer-8vT-DgHZDG4-unsplash.jpg","49","","","","","","","","","","","","","","","","","","","","","","","","","","","","","","","","","","","","","","","",""
"","deliberation_instructions","","instructions","54","282299","0.0-53.0-0.0","0","0","Ooi3v","People","[{""page_index"":0,""viewing_time"":18196},{""page_index"":1,""viewing_time"":13009},{""page_index"":2,""viewing_time"":16087},{""page_index"":3,""viewing_time"":15273},{""page_index"":4,""viewing_time"":1996}]","64562","","","","","","","","","","","","","","","","","","","","","","","","","","","","","","","","","","","","","","","","","","","","","","","",""
"","","","survey-multi-choice","55","300196","0.0-53.0-1.0","0","0","Ooi3v","People","","17894","{""Q0"":""True"",""Q1"":""True"",""Q2"":""Consider carefully and take your time (up to 10 seconds)"",""Q3"":""True"",""Q4"":""D""}","deliberation_comprehension_check","0","","","","","","","","","","","","","","","","","","","","","","","","","","","","","","","","","","","","","","","","","","","","",""
"","start_phase","","html-keyboard-response","56","303170","0.0-54.0","0","0","Ooi3v","People","","2972","","","","78","","","","","","","","","","","","","","","","","","","","","","","","","","","","","","","","","","","","","","","","","","","",""
"","first_deliberation_block","","html-keyboard-response","57","308360","0.0-55.0","0","0","Ooi3v","People","","5189","","","","78","","","","","","","","","","","","","","","","","","","","","","","","","","","","","","","","","","","","","","","","","","","",""
"","fixation","","html-keyboard-response","58","309375","0.0-56.0-0.0","0","0","Ooi3v","People","","null","","","","null","","","","","","","","","","","","","","","","","","","","","","","","","","","","","","","","","","","","","","","","","","","",""
"","deliberation","","html-keyboard-response","59","311389","0.0-56.0-1.0","0","0","Ooi3v","People","","2011","","","","68","","","","0","17","16","1","-1","61","53","gleb-lukomets-paBzWCPN23k-unsplash.jpg","giano-currie-5-9YOsmf8IQ-unsplash.jpg","1","1","17","16","","","","","","","","","","","","","","","","","","","","","","","","","","","",""
"","choice_confirmation","","html-keyboard-response","60","311902","0.0-56.0-2.0-0.0","0","0","Ooi3v","People","","null","","","","null","","","","0","17","16","","","","","","","","","","","","","","","","","","","","","","","","","","","","","","","","","","","","","",""
"","explain_trial","","survey-text","61","340515","0.0-56.0-5.0-0.0","0","0","Ooi3v","People","","28610","{""Q0"":""The composition is more interesting and has a more classic color scheme""}","","","","","","","0","17","16","","","","","","","","","","","{""Q0"":""The composition is more interesting and has a more classic color scheme""}","","","","","","","","","","","","","","","","","","","","","","","","","","",""
"","fixation","","html-keyboard-response","62","341523","0.0-57.0-0.0","0","0","Ooi3v","People","","null","","","","null","","","","","","","","","","","","","","","","","","","","","","","","","","","","","","","","","","","","","","","","","","","",""
"","deliberation","","html-keyboard-response","63","344059","0.0-57.0-1.0","0","0","Ooi3v","People","","2534","","","","75","","","","1","38","19","0","1","51","61","petr-sevcovic-HzDF-rxlSeM-unsplash.jpg","ha-nguy-n-OFSQ6bHjFjs-unsplash.jpg","1","0","19","38","","","","","","","","","","","","","","","","","","","","","","","","","","","",""
"","choice_confirmation","","html-keyboard-response","64","344566","0.0-57.0-2.0-0.0","0","0","Ooi3v","People","","null","","","","null","","","","1","38","19","","","","","","","","","","","","","","","","","","","","","","","","","","","","","","","","","","","","","",""
"","fixation","","html-keyboard-response","65","345583","0.0-58.0-0.0","0","0","Ooi3v","People","","null","","","","null","","","","","","","","","","","","","","","","","","","","","","","","","","","","","","","","","","","","","","","","","","","",""
"","deliberation","","html-keyboard-response","66","347301","0.0-58.0-1.0","0","0","Ooi3v","People","","1717","","","","68","","","","2","2","29","0","-1","61","52","arjunsyah-TBUA5KHJn6k-unsplash.jpg","leilani-angel-K84vnnzxmTQ-unsplash.jpg","1","1","2","29","","","","","","","","","","","","","","","","","","","","","","","","","","","",""
"","choice_confirmation","","html-keyboard-response","67","347816","0.0-58.0-2.0-0.0","0","0","Ooi3v","People","","null","","","","null","","","","2","2","29","","","","","","","","","","","","","","","","","","","","","","","","","","","","","","","","","","","","","",""
"","fixation","","html-keyboard-response","68","348836","0.0-59.0-0.0","0","0","Ooi3v","People","","null","","","","null","","","","","","","","","","","","","","","","","","","","","","","","","","","","","","","","","","","","","","","","","","","",""
"","deliberation","","html-keyboard-response","69","351968","0.0-59.0-1.0","0","0","Ooi3v","People","","3131","","","","68","","","","3","12","33","1","1","56","56","daniel-rigdon-dXmXKPP2L4E-unsplash.jpg","olena-sergienko-0TSd6uCKTKc-unsplash.jpg","1","1","12","33","","","","","","","","","","","","","","","","","","","","","","","","","","","",""
"","choice_confirmation","","html-keyboard-response","70","352484","0.0-59.0-2.0-0.0","0","0","Ooi3v","People","","null","","","","null","","","","3","12","33","","","","","","","","","","","","","","","","","","","","","","","","","","","","","","","","","","","","","",""
"","explain_trial","","survey-text","71","365478","0.0-59.0-5.0-0.0","0","0","Ooi3v","People","","12992","{""Q0"":""I enjoy the lighting and colors more""}","","","","","","","3","12","33","","","","","","","","","","","{""Q0"":""I enjoy the lighting and colors more""}","","","","","","","","","","","","","","","","","","","","","","","","","","",""
"","fixation","","html-keyboard-response","72","366486","0.0-60.0-0.0","0","0","Ooi3v","People","","null","","","","null","","","","","","","","","","","","","","","","","","","","","","","","","","","","","","","","","","","","","","","","","","","",""
"","deliberation","","html-keyboard-response","73","368413","0.0-60.0-1.0","0","0","Ooi3v","People","","1926","","","","68","","","","4","36","7","0","1","59","50","ospan-ali-mGdA2fzjWLo-unsplash.jpg","brooke-cagle-HRZUzoX1e6w-unsplash.jpg","1","1","36","7","","","","","","","","","","","","","","","","","","","","","","","","","","","",""
"","choice_confirmation","","html-keyboard-response","74","368935","0.0-60.0-2.0-0.0","0","0","Ooi3v","People","","null","","","","null","","","","4","36","7","","","","","","","","","","","","","","","","","","","","","","","","","","","","","","","","","","","","","",""
"","fixation","","html-keyboard-response","75","369939","0.0-61.0-0.0","0","0","Ooi3v","People","","null","","","","null","","","","","","","","","","","","","","","","","","","","","","","","","","","","","","","","","","","","","","","","","","","",""
"","deliberation","","html-keyboard-response","76","371581","0.0-61.0-1.0","0","0","Ooi3v","People","","1641","","","","75","","","","5","47","48","1","1","53","54","tyler-nix-ZGa9d1a_4tA-unsplash.jpg","velizar-ivanov-7ktP9yZA1g4-unsplash.jpg","1","0","48","47","","","","","","","","","","","","","","","","","","","","","","","","","","","",""
"","choice_confirmation","","html-keyboard-response","77","372089","0.0-61.0-2.0-0.0","0","0","Ooi3v","People","","null","","","","null","","","","5","47","48","","","","","","","","","","","","","","","","","","","","","","","","","","","","","","","","","","","","","",""
"","explain_trial","","survey-text","78","391304","0.0-61.0-5.0-0.0","0","0","Ooi3v","People","","19213","{""Q0"":""The other photo looks like a stock or business photo.""}","","","","","","","5","47","48","","","","","","","","","","","{""Q0"":""The other photo looks like a stock or business photo.""}","","","","","","","","","","","","","","","","","","","","","","","","","","",""
"","fixation","","html-keyboard-response","79","392327","0.0-62.0-0.0","0","0","Ooi3v","People","","null","","","","null","","","","","","","","","","","","","","","","","","","","","","","","","","","","","","","","","","","","","","","","","","","",""
"","deliberation","","html-keyboard-response","80","394236","0.0-62.0-1.0","0","0","Ooi3v","People","","1907","","","","75","","","","6","23","20","1","-1","50","58","joanna-nix-walkup-H4fEMshfwTE-unsplash.jpg","houcine-ncib-B4TjXnI0Y2c-unsplash.jpg","1","0","20","23","","","","","","","","","","","","","","","","","","","","","","","","","","","",""
"","choice_confirmation","","html-keyboard-response","81","394744","0.0-62.0-2.0-0.0","0","0","Ooi3v","People","","null","","","","null","","","","6","23","20","","","","","","","","","","","","","","","","","","","","","","","","","","","","","","","","","","","","","",""
"","explain_trial","","survey-text","82","413243","0.0-62.0-5.0-0.0","0","0","Ooi3v","People","","18497","{""Q0"":""The freckles and detail give it an extra flair.""}","","","","","","","6","23","20","","","","","","","","","","","{""Q0"":""The freckles and detail give it an extra flair.""}","","","","","","","","","","","","","","","","","","","","","","","","","","",""
"","fixation","","html-keyboard-response","83","414258","0.0-63.0-0.0","0","0","Ooi3v","People","","null","","","","null","","","","","","","","","","","","","","","","","","","","","","","","","","","","","","","","","","","","","","","","","","","",""
"","deliberation","","html-keyboard-response","84","416067","0.0-63.0-1.0","0","0","Ooi3v","People","","1808","","","","75","","","","7","4","30","0","1","54","49","barna-bartis-2x3vfVxwR7o-unsplash.jpg","matheus-ferrero-pg_WCHWSdT8-unsplash.jpg","1","0","30","4","","","","","","","","","","","","","","","","","","","","","","","","","","","",""
"","choice_confirmation","","html-keyboard-response","85","416584","0.0-63.0-2.0-0.0","0","0","Ooi3v","People","","null","","","","null","","","","7","4","30","","","","","","","","","","","","","","","","","","","","","","","","","","","","","","","","","","","","","",""
"","fixation","","html-keyboard-response","86","417607","0.0-64.0-0.0","0","0","Ooi3v","People","","null","","","","null","","","","","","","","","","","","","","","","","","","","","","","","","","","","","","","","","","","","","","","","","","","",""
"","deliberation","","html-keyboard-response","87","420044","0.0-64.0-1.0","0","0","Ooi3v","People","","2436","","","","75","","","","8","18","44","0","1","58","61","good-faces-xmSWVeGEnJw-unsplash.jpg","rikonavt-HQjfrvdTfak-unsplash.jpg","1","0","44","18","","","","","","","","","","","","","","","","","","","","","","","","","","","",""
"","choice_confirmation","","html-keyboard-response","88","420559","0.0-64.0-2.0-0.0","0","0","Ooi3v","People","","null","","","","null","","","","8","18","44","","","","","","","","","","","","","","","","","","","","","","","","","","","","","","","","","","","","","",""
"","fixation","","html-keyboard-response","89","421580","0.0-65.0-0.0","0","0","Ooi3v","People","","null","","","","null","","","","","","","","","","","","","","","","","","","","","","","","","","","","","","","","","","","","","","","","","","","",""
"","deliberation","","html-keyboard-response","90","423590","0.0-65.0-1.0","0","0","Ooi3v","People","","2009","","","","68","","","","9","41","27","1","-1","55","50","prince-akachi-i2hoD-C2RUA-unsplash.jpg","jurica-koletic-7YVZYZeITc8-unsplash.jpg","1","1","41","27","","","","","","","","","","","","","","","","","","","","","","","","","","","",""
"","choice_confirmation","","html-keyboard-response","91","424109","0.0-65.0-2.0-0.0","0","0","Ooi3v","People","","null","","","","null","","","","9","41","27","","","","","","","","","","","","","","","","","","","","","","","","","","","","","","","","","","","","","",""
"","explain_trial","","survey-text","92","448523","0.0-65.0-5.0-0.0","0","0","Ooi3v","People","","24413","{""Q0"":""The color of the woman's scarf mixed with the background.""}","","","","","","","9","41","27","","","","","","","","","","","{""Q0"":""The color of the woman's scarf mixed with the background.""}","","","","","","","","","","","","","","","","","","","","","","","","","","",""
"","fixation","","html-keyboard-response","93","449544","0.0-66.0-0.0","0","0","Ooi3v","People","","null","","","","null","","","","","","","","","","","","","","","","","","","","","","","","","","","","","","","","","","","","","","","","","","","",""
"","deliberation","","html-keyboard-response","94","451238","0.0-66.0-1.0","0","0","Ooi3v","People","","1693","","","","75","","","","10","34","31","0","-1","53","58","oliver-johnson-1TUIcKob7Zs-unsplash.jpg","mathilda-khoo-vLR0YP_otCo-unsplash.jpg","1","0","31","34","","","","","","","","","","","","","","","","","","","","","","","","","","","",""
"","choice_confirmation","","html-keyboard-response","95","451749","0.0-66.0-2.0-0.0","0","0","Ooi3v","People","","null","","","","null","","","","10","34","31","","","","","","","","","","","","","","","","","","","","","","","","","","","","","","","","","","","","","",""
"","fixation","","html-keyboard-response","96","452754","0.0-67.0-0.0","0","0","Ooi3v","People","","null","","","","null","","","","","","","","","","","","","","","","","","","","","","","","","","","","","","","","","","","","","","","","","","","",""
"","deliberation","","html-keyboard-response","97","455383","0.0-67.0-1.0","0","0","Ooi3v","People","","2627","","","","75","","","","11","1","21","1","-1","59","58","aiony-haust-jmATI5Q_YgY-unsplash.jpg","jessica-felicio-_cvwXhGqG-o-unsplash.jpg","1","0","21","1","","","","","","","","","","","","","","","","","","","","","","","","","","","",""
"","choice_confirmation","","html-keyboard-response","98","455902","0.0-67.0-2.0-0.0","0","0","Ooi3v","People","","null","","","","null","","","","11","1","21","","","","","","","","","","","","","","","","","","","","","","","","","","","","","","","","","","","","","",""
"","explain_trial","","survey-text","99","483950","0.0-67.0-5.0-0.0","0","0","Ooi3v","People","","28046","{""Q0"":""The smoke effect in the foreground and background are more interesting.""}","","","","","","","11","1","21","","","","","","","","","","","{""Q0"":""The smoke effect in the foreground and background are more interesting.""}","","","","","","","","","","","","","","","","","","","","","","","","","","",""
"","practice_deliberation_again","","html-keyboard-response","100","489626","0.0-67.0-6.0-0.0","0","0","Ooi3v","People","","5675","","","","78","","","","","","","","","","","","","","","","","","","","","","","","","","","","","","","","","","","","","","","","","","","",""
"","fixation","","html-keyboard-response","101","490647","0.0-68.0-0.0","0","0","Ooi3v","People","","null","","","","null","","","","","","","","","","","","","","","","","","","","","","","","","","","","","","","","","","","","","","","","","","","",""
"","deliberation","","html-keyboard-response","102","492239","0.0-68.0-1.0","0","0","Ooi3v","People","","1591","","","","68","","","","12","17","16","0","-1","61","53","gleb-lukomets-paBzWCPN23k-unsplash.jpg","giano-currie-5-9YOsmf8IQ-unsplash.jpg","2","1","17","16","","","","","","","","","","","","","","","","","","","","","","","","","","","",""
"","choice_confirmation","","html-keyboard-response","103","492759","0.0-68.0-2.0-0.0","0","0","Ooi3v","People","","null","","","","null","","","","12","17","16","","","","","","","","","","","","","","","","","","","","","","","","","","","","","","","","","","","","","",""
"","fixation","","html-keyboard-response","104","493783","0.0-69.0-0.0","0","0","Ooi3v","People","","null","","","","null","","","","","","","","","","","","","","","","","","","","","","","","","","","","","","","","","","","","","","","","","","","",""
"","deliberation","","html-keyboard-response","105","494862","0.0-69.0-1.0","0","0","Ooi3v","People","","1078","","","","68","","","","13","41","27","0","-1","55","50","prince-akachi-i2hoD-C2RUA-unsplash.jpg","jurica-koletic-7YVZYZeITc8-unsplash.jpg","2","1","41","27","","","","","","","","","","","","","","","","","","","","","","","","","","","",""
"","choice_confirmation","","html-keyboard-response","106","495370","0.0-69.0-2.0-0.0","0","0","Ooi3v","People","","null","","","","null","","","","13","41","27","","","","","","","","","","","","","","","","","","","","","","","","","","","","","","","","","","","","","",""
"","fixation","","html-keyboard-response","107","496389","0.0-70.0-0.0","0","0","Ooi3v","People","","null","","","","null","","","","","","","","","","","","","","","","","","","","","","","","","","","","","","","","","","","","","","","","","","","",""
"","deliberation","","html-keyboard-response","108","498333","0.0-70.0-1.0","0","0","Ooi3v","People","","1942","","","","68","","","","14","36","7","1","1","59","50","ospan-ali-mGdA2fzjWLo-unsplash.jpg","brooke-cagle-HRZUzoX1e6w-unsplash.jpg","2","1","36","7","","","","","","","","","","","","","","","","","","","","","","","","","","","",""
"","choice_confirmation","","html-keyboard-response","109","498854","0.0-70.0-2.0-0.0","0","0","Ooi3v","People","","null","","","","null","","","","14","36","7","","","","","","","","","","","","","","","","","","","","","","","","","","","","","","","","","","","","","",""
"","explain_trial","","survey-text","110","519254","0.0-70.0-5.0-0.0","0","0","Ooi3v","People","","20398","{""Q0"":""The woman's outfit and accessories against the black background.""}","","","","","","","14","36","7","","","","","","","","","","","{""Q0"":""The woman's outfit and accessories against the black background.""}","","","","","","","","","","","","","","","","","","","","","","","","","","",""
"","fixation","","html-keyboard-response","111","520273","0.0-71.0-0.0","0","0","Ooi3v","People","","null","","","","null","","","","","","","","","","","","","","","","","","","","","","","","","","","","","","","","","","","","","","","","","","","",""
"","deliberation","","html-keyboard-response","112","521270","0.0-71.0-1.0","0","0","Ooi3v","People","","995","","","","75","","","","15","47","48","0","1","53","54","tyler-nix-ZGa9d1a_4tA-unsplash.jpg","velizar-ivanov-7ktP9yZA1g4-unsplash.jpg","2","0","48","47","","","","","","","","","","","","","","","","","","","","","","","","","","","",""
"","choice_confirmation","","html-keyboard-response","113","521782","0.0-71.0-2.0-0.0","0","0","Ooi3v","People","","null","","","","null","","","","15","47","48","","","","","","","","","","","","","","","","","","","","","","","","","","","","","","","","","","","","","",""
"","fixation","","html-keyboard-response","114","522799","0.0-72.0-0.0","0","0","Ooi3v","People","","null","","","","null","","","","","","","","","","","","","","","","","","","","","","","","","","","","","","","","","","","","","","","","","","","",""
"","deliberation","","html-keyboard-response","115","524765","0.0-72.0-1.0","0","0","Ooi3v","People","","1964","","","","75","","","","16","4","30","1","1","54","49","barna-bartis-2x3vfVxwR7o-unsplash.jpg","matheus-ferrero-pg_WCHWSdT8-unsplash.jpg","2","0","30","4","","","","","","","","","","","","","","","","","","","","","","","","","","","",""
"","choice_confirmation","","html-keyboard-response","116","525274","0.0-72.0-2.0-0.0","0","0","Ooi3v","People","","null","","","","null","","","","16","4","30","","","","","","","","","","","","","","","","","","","","","","","","","","","","","","","","","","","","","",""
"","explain_trial","","survey-text","117","552147","0.0-72.0-5.0-0.0","0","0","Ooi3v","People","","26871","{""Q0"":""The other photo looks too formal and boring.""}","","","","","","","16","4","30","","","","","","","","","","","{""Q0"":""The other photo looks too formal and boring.""}","","","","","","","","","","","","","","","","","","","","","","","","","","",""
"","fixation","","html-keyboard-response","118","553158","0.0-73.0-0.0","0","0","Ooi3v","People","","null","","","","null","","","","","","","","","","","","","","","","","","","","","","","","","","","","","","","","","","","","","","","","","","","",""
"","deliberation","","html-keyboard-response","119","554327","0.0-73.0-1.0","0","0","Ooi3v","People","","1167","","","","75","","","","17","34","31","1","-1","53","58","oliver-johnson-1TUIcKob7Zs-unsplash.jpg","mathilda-khoo-vLR0YP_otCo-unsplash.jpg","2","0","31","34","","","","","","","","","","","","","","","","","","","","","","","","","","","",""
"","choice_confirmation","","html-keyboard-response","120","554837","0.0-73.0-2.0-0.0","0","0","Ooi3v","People","","null","","","","null","","","","17","34","31","","","","","","","","","","","","","","","","","","","","","","","","","","","","","","","","","","","","","",""
"","explain_trial","","survey-text","121","594765","0.0-73.0-5.0-0.0","0","0","Ooi3v","People","","39926","{""Q0"":""The contrast, emotion and headscarf.""}","","","","","","","17","34","31","","","","","","","","","","","{""Q0"":""The contrast, emotion and headscarf.""}","","","","","","","","","","","","","","","","","","","","","","","","","","",""
"","fixation","","html-keyboard-response","122","595778","0.0-74.0-0.0","0","0","Ooi3v","People","","null","","","","null","","","","","","","","","","","","","","","","","","","","","","","","","","","","","","","","","","","","","","","","","","","",""
"","deliberation","","html-keyboard-response","123","598019","0.0-74.0-1.0","0","0","Ooi3v","People","","2240","","","","68","","","","18","2","29","1","-1","61","52","arjunsyah-TBUA5KHJn6k-unsplash.jpg","leilani-angel-K84vnnzxmTQ-unsplash.jpg","2","1","2","29","","","","","","","","","","","","","","","","","","","","","","","","","","","",""
"","choice_confirmation","","html-keyboard-response","124","598537","0.0-74.0-2.0-0.0","0","0","Ooi3v","People","","null","","","","null","","","","18","2","29","","","","","","","","","","","","","","","","","","","","","","","","","","","","","","","","","","","","","",""
"","explain_trial","","survey-text","125","619516","0.0-74.0-5.0-0.0","0","0","Ooi3v","People","","20977","{""Q0"":""The sunlight peering through and the other photo looks like a website photo.""}","","","","","","","18","2","29","","","","","","","","","","","{""Q0"":""The sunlight peering through and the other photo looks like a website photo.""}","","","","","","","","","","","","","","","","","","","","","","","","","","",""
"","fixation","","html-keyboard-response","126","620524","0.0-75.0-0.0","0","0","Ooi3v","People","","null","","","","null","","","","","","","","","","","","","","","","","","","","","","","","","","","","","","","","","","","","","","","","","","","",""
"","deliberation","","html-keyboard-response","127","622478","0.0-75.0-1.0","0","0","Ooi3v","People","","1953","","","","75","","","","19","23","20","0","-1","50","58","joanna-nix-walkup-H4fEMshfwTE-unsplash.jpg","houcine-ncib-B4TjXnI0Y2c-unsplash.jpg","2","0","20","23","","","","","","","","","","","","","","","","","","","","","","","","","","","",""
"","choice_confirmation","","html-keyboard-response","128","622987","0.0-75.0-2.0-0.0","0","0","Ooi3v","People","","null","","","","null","","","","19","23","20","","","","","","","","","","","","","","","","","","","","","","","","","","","","","","","","","","","","","",""
"","fixation","","html-keyboard-response","129","624004","0.0-76.0-0.0","0","0","Ooi3v","People","","null","","","","null","","","","","","","","","","","","","","","","","","","","","","","","","","","","","","","","","","","","","","","","","","","",""
"","deliberation","","html-keyboard-response","130","625388","0.0-76.0-1.0","0","0","Ooi3v","People","","1383","","","","75","","","","20","38","19","1","1","51","61","petr-sevcovic-HzDF-rxlSeM-unsplash.jpg","ha-nguy-n-OFSQ6bHjFjs-unsplash.jpg","2","0","19","38","","","","","","","","","","","","","","","","","","","","","","","","","","","",""
"","choice_confirmation","","html-keyboard-response","131","625910","0.0-76.0-2.0-0.0","0","0","Ooi3v","People","","null","","","","null","","","","20","38","19","","","","","","","","","","","","","","","","","","","","","","","","","","","","","","","","","","","","","",""
"","explain_trial","","survey-text","132","651207","0.0-76.0-5.0-0.0","0","0","Ooi3v","People","","25295","{""Q0"":""The background and it looks less like a website photo or headshot.""}","","","","","","","20","38","19","","","","","","","","","","","{""Q0"":""The background and it looks less like a website photo or headshot.""}","","","","","","","","","","","","","","","","","","","","","","","","","","",""
"","fixation","","html-keyboard-response","133","652216","0.0-77.0-0.0","0","0","Ooi3v","People","","null","","","","null","","","","","","","","","","","","","","","","","","","","","","","","","","","","","","","","","","","","","","","","","","","",""
"","deliberation","","html-keyboard-response","134","653681","0.0-77.0-1.0","0","0","Ooi3v","People","","1465","","","","75","","","","21","1","21","0","-1","59","58","aiony-haust-jmATI5Q_YgY-unsplash.jpg","jessica-felicio-_cvwXhGqG-o-unsplash.jpg","2","0","21","1","","","","","","","","","","","","","","","","","","","","","","","","","","","",""
"","choice_confirmation","","html-keyboard-response","135","654197","0.0-77.0-2.0-0.0","0","0","Ooi3v","People","","null","","","","null","","","","21","1","21","","","","","","","","","","","","","","","","","","","","","","","","","","","","","","","","","","","","","",""
"","fixation","","html-keyboard-response","136","655214","0.0-78.0-0.0","0","0","Ooi3v","People","","null","","","","null","","","","","","","","","","","","","","","","","","","","","","","","","","","","","","","","","","","","","","","","","","","",""
"","deliberation","","html-keyboard-response","137","658438","0.0-78.0-1.0","0","0","Ooi3v","People","","3223","","","","75","","","","22","18","44","1","1","58","61","good-faces-xmSWVeGEnJw-unsplash.jpg","rikonavt-HQjfrvdTfak-unsplash.jpg","2","0","44","18","","","","","","","","","","","","","","","","","","","","","","","","","","","",""
"","choice_confirmation","","html-keyboard-response","138","658950","0.0-78.0-2.0-0.0","0","0","Ooi3v","People","","null","","","","null","","","","22","18","44","","","","","","","","","","","","","","","","","","","","","","","","","","","","","","","","","","","","","",""
"","explain_trial","","survey-text","139","693443","0.0-78.0-5.0-0.0","0","0","Ooi3v","People","","34491","{""Q0"":""The contrast, blurred background and her looking away from the camera.""}","","","","","","","22","18","44","","","","","","","","","","","{""Q0"":""The contrast, blurred background and her looking away from the camera.""}","","","","","","","","","","","","","","","","","","","","","","","","","","",""
"","fixation","","html-keyboard-response","140","694458","0.0-79.0-0.0","0","0","Ooi3v","People","","null","","","","null","","","","","","","","","","","","","","","","","","","","","","","","","","","","","","","","","","","","","","","","","","","",""
"","deliberation","","html-keyboard-response","141","696984","0.0-79.0-1.0","0","0","Ooi3v","People","","2524","","","","68","","","","23","12","33","0","1","56","56","daniel-rigdon-dXmXKPP2L4E-unsplash.jpg","olena-sergienko-0TSd6uCKTKc-unsplash.jpg","2","1","12","33","","","","","","","","","","","","","","","","","","","","","","","","","","","",""
"","choice_confirmation","","html-keyboard-response","142","697494","0.0-79.0-2.0-0.0","0","0","Ooi3v","People","","null","","","","null","","","","23","12","33","","","","","","","","","","","","","","","","","","","","","","","","","","","","","","","","","","","","","",""
"","start_critical_deliberation_block","","html-keyboard-response","143","700051","0.0-79.0-7.0-0.0","0","0","Ooi3v","People","","2556","","","","78","","","","","","","","","","","","","","","","","","","","","","","","","","","","","","","","","","","","","","","","","","","",""
"","fixation","","html-keyboard-response","144","701071","0.0-80.0-0.0","0","0","Ooi3v","People","","null","","","","null","","","","","","","","","","","","","","","","","","","","","","","","","","","","","","","","","","","","","","","","","","","",""
"","deliberation","","html-keyboard-response","145","702494","0.0-80.0-1.0","0","0","Ooi3v","People","","1421","","","","68","","","","24","17","16","0","-1","61","53","gleb-lukomets-paBzWCPN23k-unsplash.jpg","giano-currie-5-9YOsmf8IQ-unsplash.jpg","3","1","17","16","","","","","","","","","","","","","","","","","","","","","","","","","","","",""
"","choice_confirmation","","html-keyboard-response","146","703003","0.0-80.0-2.0-0.0","0","0","Ooi3v","People","","null","","","","null","","","","24","17","16","","","","","","","","","","","","","","","","","","","","","","","","","","","","","","","","","","","","","",""
"","fixation","","html-keyboard-response","147","704019","0.0-81.0-0.0","0","0","Ooi3v","People","","null","","","","null","","","","","","","","","","","","","","","","","","","","","","","","","","","","","","","","","","","","","","","","","","","",""
"","deliberation","","html-keyboard-response","148","705119","0.0-81.0-1.0","0","0","Ooi3v","People","","1099","","","","75","","","","25","38","19","0","1","51","61","petr-sevcovic-HzDF-rxlSeM-unsplash.jpg","ha-nguy-n-OFSQ6bHjFjs-unsplash.jpg","3","0","19","38","","","","","","","","","","","","","","","","","","","","","","","","","","","",""
"","choice_confirmation","","html-keyboard-response","149","705632","0.0-81.0-2.0-0.0","0","0","Ooi3v","People","","null","","","","null","","","","25","38","19","","","","","","","","","","","","","","","","","","","","","","","","","","","","","","","","","","","","","",""
"","fixation","","html-keyboard-response","150","706651","0.0-82.0-0.0","0","0","Ooi3v","People","","null","","","","null","","","","","","","","","","","","","","","","","","","","","","","","","","","","","","","","","","","","","","","","","","","",""
"","deliberation","","html-keyboard-response","151","707690","0.0-82.0-1.0","0","0","Ooi3v","People","","1037","","","","75","","","","26","23","20","0","-1","50","58","joanna-nix-walkup-H4fEMshfwTE-unsplash.jpg","houcine-ncib-B4TjXnI0Y2c-unsplash.jpg","3","0","20","23","","","","","","","","","","","","","","","","","","","","","","","","","","","",""
"","choice_confirmation","","html-keyboard-response","152","708207","0.0-82.0-2.0-0.0","0","0","Ooi3v","People","","null","","","","null","","","","26","23","20","","","","","","","","","","","","","","","","","","","","","","","","","","","","","","","","","","","","","",""
"","fixation","","html-keyboard-response","153","709227","0.0-83.0-0.0","0","0","Ooi3v","People","","null","","","","null","","","","","","","","","","","","","","","","","","","","","","","","","","","","","","","","","","","","","","","","","","","",""
"","deliberation","","html-keyboard-response","154","710348","0.0-83.0-1.0","0","0","Ooi3v","People","","1119","","","","75","","","","27","34","31","0","-1","53","58","oliver-johnson-1TUIcKob7Zs-unsplash.jpg","mathilda-khoo-vLR0YP_otCo-unsplash.jpg","3","0","31","34","","","","","","","","","","","","","","","","","","","","","","","","","","","",""
"","choice_confirmation","","html-keyboard-response","155","710859","0.0-83.0-2.0-0.0","0","0","Ooi3v","People","","null","","","","null","","","","27","34","31","","","","","","","","","","","","","","","","","","","","","","","","","","","","","","","","","","","","","",""
"","fixation","","html-keyboard-response","156","711877","0.0-84.0-0.0","0","0","Ooi3v","People","","null","","","","null","","","","","","","","","","","","","","","","","","","","","","","","","","","","","","","","","","","","","","","","","","","",""
"","deliberation","","html-keyboard-response","157","713366","0.0-84.0-1.0","0","0","Ooi3v","People","","1487","","","","75","","","","28","18","44","0","1","58","61","good-faces-xmSWVeGEnJw-unsplash.jpg","rikonavt-HQjfrvdTfak-unsplash.jpg","3","0","44","18","","","","","","","","","","","","","","","","","","","","","","","","","","","",""
"","choice_confirmation","","html-keyboard-response","158","713885","0.0-84.0-2.0-0.0","0","0","Ooi3v","People","","null","","","","null","","","","28","18","44","","","","","","","","","","","","","","","","","","","","","","","","","","","","","","","","","","","","","",""
"","fixation","","html-keyboard-response","159","714905","0.0-85.0-0.0","0","0","Ooi3v","People","","null","","","","null","","","","","","","","","","","","","","","","","","","","","","","","","","","","","","","","","","","","","","","","","","","",""
"","deliberation","","html-keyboard-response","160","717185","0.0-85.0-1.0","0","0","Ooi3v","People","","2278","","","","68","","","","29","12","33","0","1","56","56","daniel-rigdon-dXmXKPP2L4E-unsplash.jpg","olena-sergienko-0TSd6uCKTKc-unsplash.jpg","3","1","12","33","","","","","","","","","","","","","","","","","","","","","","","","","","","",""
"","choice_confirmation","","html-keyboard-response","161","717698","0.0-85.0-2.0-0.0","0","0","Ooi3v","People","","null","","","","null","","","","29","12","33","","","","","","","","","","","","","","","","","","","","","","","","","","","","","","","","","","","","","",""
"","fixation","","html-keyboard-response","162","718719","0.0-86.0-0.0","0","0","Ooi3v","People","","null","","","","null","","","","","","","","","","","","","","","","","","","","","","","","","","","","","","","","","","","","","","","","","","","",""
"","deliberation","","html-keyboard-response","163","719826","0.0-86.0-1.0","0","0","Ooi3v","People","","1105","","","","75","","","","30","1","21","0","-1","59","58","aiony-haust-jmATI5Q_YgY-unsplash.jpg","jessica-felicio-_cvwXhGqG-o-unsplash.jpg","3","0","21","1","","","","","","","","","","","","","","","","","","","","","","","","","","","",""
"","choice_confirmation","","html-keyboard-response","164","720331","0.0-86.0-2.0-0.0","0","0","Ooi3v","People","","null","","","","null","","","","30","1","21","","","","","","","","","","","","","","","","","","","","","","","","","","","","","","","","","","","","","",""
"","fixation","","html-keyboard-response","165","721341","0.0-87.0-0.0","0","0","Ooi3v","People","","null","","","","null","","","","","","","","","","","","","","","","","","","","","","","","","","","","","","","","","","","","","","","","","","","",""
"","deliberation","","html-keyboard-response","166","722541","0.0-87.0-1.0","0","0","Ooi3v","People","","1199","","","","68","","","","31","41","27","0","-1","55","50","prince-akachi-i2hoD-C2RUA-unsplash.jpg","jurica-koletic-7YVZYZeITc8-unsplash.jpg","3","1","41","27","","","","","","","","","","","","","","","","","","","","","","","","","","","",""
"","choice_confirmation","","html-keyboard-response","167","723051","0.0-87.0-2.0-0.0","0","0","Ooi3v","People","","null","","","","null","","","","31","41","27","","","","","","","","","","","","","","","","","","","","","","","","","","","","","","","","","","","","","",""
"","fixation","","html-keyboard-response","168","724072","0.0-88.0-0.0","0","0","Ooi3v","People","","null","","","","null","","","","","","","","","","","","","","","","","","","","","","","","","","","","","","","","","","","","","","","","","","","",""
"","deliberation","","html-keyboard-response","169","725074","0.0-88.0-1.0","0","0","Ooi3v","People","","1001","","","","68","","","","32","36","7","0","1","59","50","ospan-ali-mGdA2fzjWLo-unsplash.jpg","brooke-cagle-HRZUzoX1e6w-unsplash.jpg","3","1","36","7","","","","","","","","","","","","","","","","","","","","","","","","","","","",""
"","choice_confirmation","","html-keyboard-response","170","725592","0.0-88.0-2.0-0.0","0","0","Ooi3v","People","","null","","","","null","","","","32","36","7","","","","","","","","","","","","","","","","","","","","","","","","","","","","","","","","","","","","","",""
"","fixation","","html-keyboard-response","171","726608","0.0-89.0-0.0","0","0","Ooi3v","People","","null","","","","null","","","","","","","","","","","","","","","","","","","","","","","","","","","","","","","","","","","","","","","","","","","",""
"","deliberation","","html-keyboard-response","172","727637","0.0-89.0-1.0","0","0","Ooi3v","People","","1027","","","","75","","","","33","47","48","0","1","53","54","tyler-nix-ZGa9d1a_4tA-unsplash.jpg","velizar-ivanov-7ktP9yZA1g4-unsplash.jpg","3","0","48","47","","","","","","","","","","","","","","","","","","","","","","","","","","","",""
"","choice_confirmation","","html-keyboard-response","173","728146","0.0-89.0-2.0-0.0","0","0","Ooi3v","People","","null","","","","null","","","","33","47","48","","","","","","","","","","","","","","","","","","","","","","","","","","","","","","","","","","","","","",""
"","fixation","","html-keyboard-response","174","729168","0.0-90.0-0.0","0","0","Ooi3v","People","","null","","","","null","","","","","","","","","","","","","","","","","","","","","","","","","","","","","","","","","","","","","","","","","","","",""
"","deliberation","","html-keyboard-response","175","730002","0.0-90.0-1.0","0","0","Ooi3v","People","","832","","","","68","","","","34","2","29","0","-1","61","52","arjunsyah-TBUA5KHJn6k-unsplash.jpg","leilani-angel-K84vnnzxmTQ-unsplash.jpg","3","1","2","29","","","","","","","","","","","","","","","","","","","","","","","","","","","",""
"","choice_confirmation","","html-keyboard-response","176","730516","0.0-90.0-2.0-0.0","0","0","Ooi3v","People","","null","","","","null","","","","34","2","29","","","","","","","","","","","","","","","","","","","","","","","","","","","","","","","","","","","","","",""
"","fixation","","html-keyboard-response","177","731523","0.0-91.0-0.0","0","0","Ooi3v","People","","null","","","","null","","","","","","","","","","","","","","","","","","","","","","","","","","","","","","","","","","","","","","","","","","","",""
"","deliberation","","html-keyboard-response","178","732475","0.0-91.0-1.0","0","0","Ooi3v","People","","952","","","","75","","","","35","4","30","0","1","54","49","barna-bartis-2x3vfVxwR7o-unsplash.jpg","matheus-ferrero-pg_WCHWSdT8-unsplash.jpg","3","0","30","4","","","","","","","","","","","","","","","","","","","","","","","","","","","",""
"","choice_confirmation","","html-keyboard-response","179","732984","0.0-91.0-2.0-0.0","0","0","Ooi3v","People","","null","","","","null","","","","35","4","30","","","","","","","","","","","","","","","","","","","","","","","","","","","","","","","","","","","","","",""
"","reward_learning_instructions","","instructions","180","784094","0.0-92.0-0.0","0","0","Ooi3v","People","[{""page_index"":0,""viewing_time"":24122},{""page_index"":1,""viewing_time"":25909},{""page_index"":2,""viewing_time"":1078}]","51109","","","","","","","","","","","","","","","","","","","","","","","","","","","","","","","","","","","","","","","","","","","","","","","",""
"","","","survey-multi-choice","181","795423","0.0-92.0-1.0","0","0","Ooi3v","People","","11326","{""Q0"":""True"",""Q1"":""True"",""Q2"":""Press the space bar to see its outcome"",""Q3"":""Press the relevant key while the outcome is presented""}","reward_comprehension_check","0","","","","","","","","","","","","","","","","","","","","","","","","","","","","","","","","","","","","","","","","","","","","",""
"","start_phase","","html-keyboard-response","182","797283","0.0-93.0","0","0","Ooi3v","People","","1858","","","","78","","","","","","","","","","","","","","","","","","","","","","","","","","","","","","","","","","","","","","","","","","","",""
"","fixation","","html-keyboard-response","183","798294","0.0-94.0","0","0","Ooi3v","People","","null","","","","null","","","","","","","","","","","","","","","","","","","","","","","","","","","","","","","","","","","","","","","","","","","",""
"","see_reward","","html-keyboard-response","184","799407","0.0-95.0","0","0","Ooi3v","People","","1111","","","","32","","20","","0","","","","-1","","","","","1","","","","","0","1111","","","","","","","","","","","","","","","","","","","","","","","","",""
"","reward_outcome","","html-keyboard-response","185","801431","0.0-96.0","0","0","Ooi3v","People","","1384","","","","40","","20","","0","","","","","","","","","","","","","","","","-1","1384","","","","","","","","","","","","","","","","","","","","","","",""
"","fixation","","html-keyboard-response","186","802449","0.0-99.0","0","0","Ooi3v","People","","null","","","","null","","","","","","","","","","","","","","","","","","","","","","","","","","","","","","","","","","","","","","","","","","","",""
"","see_reward","","html-keyboard-response","187","803542","0.0-100.0","0","0","Ooi3v","People","","1092","","","","32","","36","","1","","","","1","","","","","1","","","","","155","1092","","","","","","","","","","","","","","","","","","","","","","","","",""
"","reward_outcome","","html-keyboard-response","188","805557","0.0-101.0","0","0","Ooi3v","People","","850","","","","38","","36","","1","","","","","","","","","","","","","","","","1","850","","","","","","","","","","","","","","","","","","","","","","",""
"","fixation","","html-keyboard-response","189","806568","0.0-104.0","0","0","Ooi3v","People","","null","","","","null","","","","","","","","","","","","","","","","","","","","","","","","","","","","","","","","","","","","","","","","","","","",""
"","see_reward","","html-keyboard-response","190","807323","0.0-105.0","0","0","Ooi3v","People","","754","","","","32","","31","","2","","","","-1","","","","","1","","","","","0","754","","","","","","","","","","","","","","","","","","","","","","","","",""
"","reward_outcome","","html-keyboard-response","191","809329","0.0-106.0","0","0","Ooi3v","People","","719","","","","40","","31","","2","","","","","","","","","","","","","","","","-1","719","","","","","","","","","","","","","","","","","","","","","","",""
"","fixation","","html-keyboard-response","192","810348","0.0-109.0","0","0","Ooi3v","People","","null","","","","null","","","","","","","","","","","","","","","","","","","","","","","","","","","","","","","","","","","","","","","","","","","",""
"","see_reward","","html-keyboard-response","193","811057","0.0-110.0","0","0","Ooi3v","People","","707","","","","32","","48","","3","","","","1","","","","","1","","","","","157","707","","","","","","","","","","","","","","","","","","","","","","","","",""
"","reward_outcome","","html-keyboard-response","194","813067","0.0-111.0","0","0","Ooi3v","People","","573","","","","38","","48","","3","","","","","","","","","","","","","","","","1","573","","","","","","","","","","","","","","","","","","","","","","",""
"","fixation","","html-keyboard-response","195","814087","0.0-114.0","0","0","Ooi3v","People","","null","","","","null","","","","","","","","","","","","","","","","","","","","","","","","","","","","","","","","","","","","","","","","","","","",""
"","see_reward","","html-keyboard-response","196","814907","0.0-115.0","0","0","Ooi3v","People","","818","","","","32","","2","","4","","","","-1","","","","","1","","","","","0","818","","","","","","","","","","","","","","","","","","","","","","","","",""
"","reward_outcome","","html-keyboard-response","197","816914","0.0-116.0","0","0","Ooi3v","People","","566","","","","40","","2","","4","","","","","","","","","","","","","","","","-1","566","","","","","","","","","","","","","","","","","","","","","","",""
"","fixation","","html-keyboard-response","198","817923","0.0-119.0","0","0","Ooi3v","People","","null","","","","null","","","","","","","","","","","","","","","","","","","","","","","","","","","","","","","","","","","","","","","","","","","",""
"","see_reward","","html-keyboard-response","199","819241","0.0-120.0","0","0","Ooi3v","People","","1318","","","","32","","31","","5","","","","-1","","","","","1","","","","","0","1318","","","","","","","","","","","","","","","","","","","","","","","","",""
"","reward_outcome","","html-keyboard-response","200","821251","0.0-121.0","0","0","Ooi3v","People","","742","","","","40","","31","","5","","","","","","","","","","","","","","","","-1","742","","","","","","","","","","","","","","","","","","","","","","",""
"","fixation","","html-keyboard-response","201","822258","0.0-124.0","0","0","Ooi3v","People","","null","","","","null","","","","","","","","","","","","","","","","","","","","","","","","","","","","","","","","","","","","","","","","","","","",""
"","see_reward","","html-keyboard-response","202","823130","0.0-125.0","0","0","Ooi3v","People","","870","","","","32","","20","","6","","","","-1","","","","","1","","","","","0","870","","","","","","","","","","","","","","","","","","","","","","","","",""
"","reward_outcome","","html-keyboard-response","203","825137","0.0-126.0","0","0","Ooi3v","People","","610","","","","40","","20","","6","","","","","","","","","","","","","","","","-1","610","","","","","","","","","","","","","","","","","","","","","","",""
"","fixation","","html-keyboard-response","204","826154","0.0-129.0","0","0","Ooi3v","People","","null","","","","null","","","","","","","","","","","","","","","","","","","","","","","","","","","","","","","","","","","","","","","","","","","",""
"","see_reward","","html-keyboard-response","205","827249","0.0-130.0","0","0","Ooi3v","People","","1093","","","","32","","48","","7","","","","1","","","","","1","","","","","157","1093","","","","","","","","","","","","","","","","","","","","","","","","",""
"","reward_outcome","","html-keyboard-response","206","829267","0.0-131.0","0","0","Ooi3v","People","","585","","","","38","","48","","7","","","","","","","","","","","","","","","","1","585","","","","","","","","","","","","","","","","","","","","","","",""
"","fixation","","html-keyboard-response","207","830287","0.0-134.0","0","0","Ooi3v","People","","null","","","","null","","","","","","","","","","","","","","","","","","","","","","","","","","","","","","","","","","","","","","","","","","","",""
"","see_reward","","html-keyboard-response","208","831305","0.0-135.0","0","0","Ooi3v","People","","1016","","","","32","","19","","8","","","","1","","","","","1","","","","","150","1016","","","","","","","","","","","","","","","","","","","","","","","","",""
"","reward_outcome","","html-keyboard-response","209","833312","0.0-136.0","0","0","Ooi3v","People","","605","","","","38","","19","","8","","","","","","","","","","","","","","","","1","605","","","","","","","","","","","","","","","","","","","","","","",""
"","fixation","","html-keyboard-response","210","834330","0.0-139.0","0","0","Ooi3v","People","","null","","","","null","","","","","","","","","","","","","","","","","","","","","","","","","","","","","","","","","","","","","","","","","","","",""
"","see_reward","","html-keyboard-response","211","835110","0.0-140.0","0","0","Ooi3v","People","","779","","","","32","","19","","9","","","","1","","","","","1","","","","","150","779","","","","","","","","","","","","","","","","","","","","","","","","",""
"","reward_outcome","","html-keyboard-response","212","837126","0.0-141.0","0","0","Ooi3v","People","","474","","","","38","","19","","9","","","","","","","","","","","","","","","","1","474","","","","","","","","","","","","","","","","","","","","","","",""
"","fixation","","html-keyboard-response","213","838132","0.0-144.0","0","0","Ooi3v","People","","null","","","","null","","","","","","","","","","","","","","","","","","","","","","","","","","","","","","","","","","","","","","","","","","","",""
"","see_reward","","html-keyboard-response","214","839201","0.0-145.0","0","0","Ooi3v","People","","1068","","","","32","","41","","10","","","","-1","","","","","1","","","","","0","1068","","","","","","","","","","","","","","","","","","","","","","","","",""
"","reward_outcome","","html-keyboard-response","215","841223","0.0-146.0","0","0","Ooi3v","People","","810","","","","40","","41","","10","","","","","","","","","","","","","","","","-1","810","","","","","","","","","","","","","","","","","","","","","","",""
"","fixation","","html-keyboard-response","216","842239","0.0-149.0","0","0","Ooi3v","People","","null","","","","null","","","","","","","","","","","","","","","","","","","","","","","","","","","","","","","","","","","","","","","","","","","",""
"","see_reward","","html-keyboard-response","217","843413","0.0-150.0","0","0","Ooi3v","People","","1173","","","","32","","2","","11","","","","-1","","","","","1","","","","","0","1173","","","","","","","","","","","","","","","","","","","","","","","","",""
"","reward_outcome","","html-keyboard-response","218","845418","0.0-151.0","0","0","Ooi3v","People","","578","","","","40","","2","","11","","","","","","","","","","","","","","","","-1","578","","","","","","","","","","","","","","","","","","","","","","",""
"","fixation","","html-keyboard-response","219","846439","0.0-154.0","0","0","Ooi3v","People","","null","","","","null","","","","","","","","","","","","","","","","","","","","","","","","","","","","","","","","","","","","","","","","","","","",""
"","see_reward","","html-keyboard-response","220","848140","0.0-155.0","0","0","Ooi3v","People","","1699","","","","32","","36","","12","","","","1","","","","","1","","","","","155","1699","","","","","","","","","","","","","","","","","","","","","","","","",""
"","reward_outcome","","html-keyboard-response","221","850157","0.0-156.0","0","0","Ooi3v","People","","695","","","","38","","36","","12","","","","","","","","","","","","","","","","1","695","","","","","","","","","","","","","","","","","","","","","","",""
"","fixation","","html-keyboard-response","222","851175","0.0-159.0","0","0","Ooi3v","People","","null","","","","null","","","","","","","","","","","","","","","","","","","","","","","","","","","","","","","","","","","","","","","","","","","",""
"","see_reward","","html-keyboard-response","223","852821","0.0-160.0","0","0","Ooi3v","People","","1644","","","","32","","17","","13","","","","-1","","","","","1","","","","","0","1644","","","","","","","","","","","","","","","","","","","","","","","","",""
"","reward_outcome","","html-keyboard-response","224","854829","0.0-161.0","0","0","Ooi3v","People","","752","","","","40","","17","","13","","","","","","","","","","","","","","","","-1","752","","","","","","","","","","","","","","","","","","","","","","",""
"","fixation","","html-keyboard-response","225","855848","0.0-164.0","0","0","Ooi3v","People","","null","","","","null","","","","","","","","","","","","","","","","","","","","","","","","","","","","","","","","","","","","","","","","","","","",""
"","see_reward","","html-keyboard-response","226","857312","0.0-165.0","0","0","Ooi3v","People","","1464","","","","32","","44","","14","","","","1","","","","","1","","","","","157","1464","","","","","","","","","","","","","","","","","","","","","","","","",""
"","reward_outcome","","html-keyboard-response","227","859334","0.0-166.0","0","0","Ooi3v","People","","862","","","","38","","44","","14","","","","","","","","","","","","","","","","1","862","","","","","","","","","","","","","","","","","","","","","","",""
"","fixation","","html-keyboard-response","228","860340","0.0-169.0","0","0","Ooi3v","People","","null","","","","null","","","","","","","","","","","","","","","","","","","","","","","","","","","","","","","","","","","","","","","","","","","",""
"","see_reward","","html-keyboard-response","229","861700","0.0-170.0","0","0","Ooi3v","People","","1358","","","","32","","41","","15","","","","-1","","","","","1","","","","","0","1358","","","","","","","","","","","","","","","","","","","","","","","","",""
"","reward_outcome","","html-keyboard-response","230","863711","0.0-171.0","0","0","Ooi3v","People","","700","","","","40","","41","","15","","","","","","","","","","","","","","","","-1","700","","","","","","","","","","","","","","","","","","","","","","",""
"","fixation","","html-keyboard-response","231","864730","0.0-174.0","0","0","Ooi3v","People","","null","","","","null","","","","","","","","","","","","","","","","","","","","","","","","","","","","","","","","","","","","","","","","","","","",""
"","see_reward","","html-keyboard-response","232","866124","0.0-175.0","0","0","Ooi3v","People","","1393","","","","32","","21","","16","","","","-1","","","","","1","","","","","0","1393","","","","","","","","","","","","","","","","","","","","","","","","",""
"","reward_outcome","","html-keyboard-response","233","868132","0.0-176.0","0","0","Ooi3v","People","","764","","","","40","","21","","16","","","","","","","","","","","","","","","","-1","764","","","","","","","","","","","","","","","","","","","","","","",""
"","fixation","","html-keyboard-response","234","869148","0.0-179.0","0","0","Ooi3v","People","","null","","","","null","","","","","","","","","","","","","","","","","","","","","","","","","","","","","","","","","","","","","","","","","","","",""
"","see_reward","","html-keyboard-response","235","870108","0.0-180.0","0","0","Ooi3v","People","","958","","","","32","","21","","17","","","","-1","","","","","1","","","","","0","958","","","","","","","","","","","","","","","","","","","","","","","","",""
"","reward_outcome","","html-keyboard-response","236","872118","0.0-181.0","0","0","Ooi3v","People","","844","","","","40","","21","","17","","","","","","","","","","","","","","","","-1","844","","","","","","","","","","","","","","","","","","","","","","",""
"","fixation","","html-keyboard-response","237","873123","0.0-184.0","0","0","Ooi3v","People","","null","","","","null","","","","","","","","","","","","","","","","","","","","","","","","","","","","","","","","","","","","","","","","","","","",""
"","see_reward","","html-keyboard-response","238","874653","0.0-185.0","0","0","Ooi3v","People","","1529","","","","32","","17","","18","","","","-1","","","","","1","","","","","0","1529","","","","","","","","","","","","","","","","","","","","","","","","",""
"","reward_outcome","","html-keyboard-response","239","876673","0.0-186.0","0","0","Ooi3v","People","","797","","","","40","","17","","18","","","","","","","","","","","","","","","","-1","797","","","","","","","","","","","","","","","","","","","","","","",""
"","fixation","","html-keyboard-response","240","877692","0.0-189.0","0","0","Ooi3v","People","","null","","","","null","","","","","","","","","","","","","","","","","","","","","","","","","","","","","","","","","","","","","","","","","","","",""
"","see_reward","","html-keyboard-response","241","878953","0.0-190.0","0","0","Ooi3v","People","","1259","","","","32","","30","","19","","","","1","","","","","1","","","","","148","1259","","","","","","","","","","","","","","","","","","","","","","","","",""
"","reward_outcome","","html-keyboard-response","242","880963","0.0-191.0","0","0","Ooi3v","People","","929","","","","38","","30","","19","","","","","","","","","","","","","","","","1","929","","","","","","","","","","","","","","","","","","","","","","",""
"","fixation","","html-keyboard-response","243","881983","0.0-194.0","0","0","Ooi3v","People","","null","","","","null","","","","","","","","","","","","","","","","","","","","","","","","","","","","","","","","","","","","","","","","","","","",""
"","see_reward","","html-keyboard-response","244","883138","0.0-195.0","0","0","Ooi3v","People","","1153","","","","32","","44","","20","","","","1","","","","","1","","","","","157","1153","","","","","","","","","","","","","","","","","","","","","","","","",""
"","reward_outcome","","html-keyboard-response","245","885155","0.0-196.0","0","0","Ooi3v","People","","847","","","","38","","44","","20","","","","","","","","","","","","","","","","1","847","","","","","","","","","","","","","","","","","","","","","","",""
"","fixation","","html-keyboard-response","246","886164","0.0-199.0","0","0","Ooi3v","People","","null","","","","null","","","","","","","","","","","","","","","","","","","","","","","","","","","","","","","","","","","","","","","","","","","",""
"","see_reward","","html-keyboard-response","247","887522","0.0-200.0","0","0","Ooi3v","People","","1357","","","","32","","12","","21","","","","1","","","","","1","","","","","145","1357","","","","","","","","","","","","","","","","","","","","","","","","",""
"","reward_outcome","","html-keyboard-response","248","889543","0.0-201.0","0","0","Ooi3v","People","","960","","","","38","","12","","21","","","","","","","","","","","","","","","","1","960","","","","","","","","","","","","","","","","","","","","","","",""
"","fixation","","html-keyboard-response","249","890553","0.0-204.0","0","0","Ooi3v","People","","null","","","","null","","","","","","","","","","","","","","","","","","","","","","","","","","","","","","","","","","","","","","","","","","","",""
"","see_reward","","html-keyboard-response","250","891973","0.0-205.0","0","0","Ooi3v","People","","1418","","","","32","","30","","22","","","","1","","","","","1","","","","","148","1418","","","","","","","","","","","","","","","","","","","","","","","","",""
"","reward_outcome","","html-keyboard-response","251","893979","0.0-206.0","0","0","Ooi3v","People","","1080","","","","38","","30","","22","","","","","","","","","","","","","","","","1","1080","","","","","","","","","","","","","","","","","","","","","","",""
"","fixation","","html-keyboard-response","252","894985","0.0-209.0","0","0","Ooi3v","People","","null","","","","null","","","","","","","","","","","","","","","","","","","","","","","","","","","","","","","","","","","","","","","","","","","",""
"","see_reward","","html-keyboard-response","253","897200","0.0-210.0","0","0","Ooi3v","People","","2213","","","","32","","12","","23","","","","1","","","","","1","","","","","145","2213","","","","","","","","","","","","","","","","","","","","","","","","",""
"","reward_outcome","","html-keyboard-response","254","899208","0.0-211.0","0","0","Ooi3v","People","","867","","","","38","","12","","23","","","","","","","","","","","","","","","","1","867","","","","","","","","","","","","","","","","","","","","","","",""
"","block_over","","html-keyboard-response","255","901729","0.0-213.0-0.0","0","0","Ooi3v","People","","2519","","","","78","","","","","","","","","","","","","","","","","","","","","","","","","","","","","","","","","","","","","","","","","","","",""
"","fixation","","html-keyboard-response","256","902753","0.0-214.0","0","0","Ooi3v","People","","null","","","","null","","","","","","","","","","","","","","","","","","","","","","","","","","","","","","","","","","","","","","","","","","","",""
"","see_reward","","html-keyboard-response","257","904786","0.0-215.0","0","0","Ooi3v","People","","2032","","","","32","","44","","24","","","","1","","","","","2","","","","","157","2032","","","","","","","","","","","","","","","","","","","","","","","","",""
"","reward_outcome","","html-keyboard-response","258","906802","0.0-216.0","0","0","Ooi3v","People","","935","","","","38","","44","","24","","","","","","","","","","","","","","","","1","935","","","","","","","","","","","","","","","","","","","","","","",""
"","fixation","","html-keyboard-response","259","907809","0.0-219.0","0","0","Ooi3v","People","","null","","","","null","","","","","","","","","","","","","","","","","","","","","","","","","","","","","","","","","","","","","","","","","","","",""
"","see_reward","","html-keyboard-response","260","908694","0.0-220.0","0","0","Ooi3v","People","","883","","","","32","","19","","25","","","","1","","","","","2","","","","","150","883","","","","","","","","","","","","","","","","","","","","","","","","",""
"","reward_outcome","","html-keyboard-response","261","910704","0.0-221.0","0","0","Ooi3v","People","","816","","","","38","","19","","25","","","","","","","","","","","","","","","","1","816","","","","","","","","","","","","","","","","","","","","","","",""
"","fixation","","html-keyboard-response","262","911722","0.0-224.0","0","0","Ooi3v","People","","null","","","","null","","","","","","","","","","","","","","","","","","","","","","","","","","","","","","","","","","","","","","","","","","","",""
"","see_reward","","html-keyboard-response","263","912698","0.0-225.0","0","0","Ooi3v","People","","974","","","","32","","44","","26","","","","1","","","","","2","","","","","157","974","","","","","","","","","","","","","","","","","","","","","","","","",""
"","reward_outcome","","html-keyboard-response","264","914717","0.0-226.0","0","0","Ooi3v","People","","1341","","","","38","","44","","26","","","","","","","","","","","","","","","","1","1341","","","","","","","","","","","","","","","","","","","","","","",""
"","fixation","","html-keyboard-response","265","915723","0.0-229.0","0","0","Ooi3v","People","","null","","","","null","","","","","","","","","","","","","","","","","","","","","","","","","","","","","","","","","","","","","","","","","","","",""
"","see_reward","","html-keyboard-response","266","916823","0.0-230.0","0","0","Ooi3v","People","","1098","","","","32","","36","","27","","","","1","","","","","2","","","","","155","1098","","","","","","","","","","","","","","","","","","","","","","","","",""
"","reward_outcome","","html-keyboard-response","267","918829","0.0-231.0","0","0","Ooi3v","People","","950","","","","38","","36","","27","","","","","","","","","","","","","","","","1","950","","","","","","","","","","","","","","","","","","","","","","",""
"","fixation","","html-keyboard-response","268","919837","0.0-234.0","0","0","Ooi3v","People","","null","","","","null","","","","","","","","","","","","","","","","","","","","","","","","","","","","","","","","","","","","","","","","","","","",""
"","see_reward","","html-keyboard-response","269","920752","0.0-235.0","0","0","Ooi3v","People","","914","","","","32","","48","","28","","","","1","","","","","2","","","","","157","914","","","","","","","","","","","","","","","","","","","","","","","","",""
"","reward_outcome","","html-keyboard-response","270","922771","0.0-236.0","0","0","Ooi3v","People","","1175","","","","38","","48","","28","","","","","","","","","","","","","","","","1","1175","","","","","","","","","","","","","","","","","","","","","","",""
"","fixation","","html-keyboard-response","271","923788","0.0-239.0","0","0","Ooi3v","People","","null","","","","null","","","","","","","","","","","","","","","","","","","","","","","","","","","","","","","","","","","","","","","","","","","",""
"","see_reward","","html-keyboard-response","272","924633","0.0-240.0","0","0","Ooi3v","People","","843","","","","32","","41","","29","","","","-1","","","","","2","","","","","0","843","","","","","","","","","","","","","","","","","","","","","","","","",""
"","reward_outcome","","html-keyboard-response","273","926653","0.0-241.0","0","0","Ooi3v","People","","844","","","","40","","41","","29","","","","","","","","","","","","","","","","-1","844","","","","","","","","","","","","","","","","","","","","","","",""
"","fixation","","html-keyboard-response","274","927658","0.0-244.0","0","0","Ooi3v","People","","null","","","","null","","","","","","","","","","","","","","","","","","","","","","","","","","","","","","","","","","","","","","","","","","","",""
"","see_reward","","html-keyboard-response","275","928693","0.0-245.0","0","0","Ooi3v","People","","1033","","","","32","","19","","30","","","","1","","","","","2","","","","","150","1033","","","","","","","","","","","","","","","","","","","","","","","","",""
"","reward_outcome","","html-keyboard-response","276","930699","0.0-246.0","0","0","Ooi3v","People","","846","","","","38","","19","","30","","","","","","","","","","","","","","","","1","846","","","","","","","","","","","","","","","","","","","","","","",""
"","fixation","","html-keyboard-response","277","931707","0.0-249.0","0","0","Ooi3v","People","","null","","","","null","","","","","","","","","","","","","","","","","","","","","","","","","","","","","","","","","","","","","","","","","","","",""
"","see_reward","","html-keyboard-response","278","932655","0.0-250.0","0","0","Ooi3v","People","","945","","","","32","","2","","31","","","","-1","","","","","2","","","","","0","945","","","","","","","","","","","","","","","","","","","","","","","","",""
"","reward_outcome","","html-keyboard-response","279","934671","0.0-251.0","0","0","Ooi3v","People","","783","","","","40","","2","","31","","","","","","","","","","","","","","","","-1","783","","","","","","","","","","","","","","","","","","","","","","",""
"","fixation","","html-keyboard-response","280","935692","0.0-254.0","0","0","Ooi3v","People","","null","","","","null","","","","","","","","","","","","","","","","","","","","","","","","","","","","","","","","","","","","","","","","","","","",""
"","see_reward","","html-keyboard-response","281","936795","0.0-255.0","0","0","Ooi3v","People","","1102","","","","32","","21","","32","","","","-1","","","","","2","","","","","0","1102","","","","","","","","","","","","","","","","","","","","","","","","",""
"","reward_outcome","","html-keyboard-response","282","938813","0.0-256.0","0","0","Ooi3v","People","","946","","","","40","","21","","32","","","","","","","","","","","","","","","","-1","946","","","","","","","","","","","","","","","","","","","","","","",""
"","fixation","","html-keyboard-response","283","939821","0.0-259.0","0","0","Ooi3v","People","","null","","","","null","","","","","","","","","","","","","","","","","","","","","","","","","","","","","","","","","","","","","","","","","","","",""
"","see_reward","","html-keyboard-response","284","940467","0.0-260.0","0","0","Ooi3v","People","","644","","","","32","","41","","33","","","","-1","","","","","2","","","","","0","644","","","","","","","","","","","","","","","","","","","","","","","","",""
"","reward_outcome","","html-keyboard-response","285","942489","0.0-261.0","0","0","Ooi3v","People","","747","","","","40","","41","","33","","","","","","","","","","","","","","","","-1","747","","","","","","","","","","","","","","","","","","","","","","",""
"","fixation","","html-keyboard-response","286","943508","0.0-264.0","0","0","Ooi3v","People","","null","","","","null","","","","","","","","","","","","","","","","","","","","","","","","","","","","","","","","","","","","","","","","","","","",""
"","see_reward","","html-keyboard-response","287","944330","0.0-265.0","0","0","Ooi3v","People","","821","","","","32","","20","","34","","","","-1","","","","","2","","","","","0","821","","","","","","","","","","","","","","","","","","","","","","","","",""
"","reward_outcome","","html-keyboard-response","288","946344","0.0-266.0","0","0","Ooi3v","People","","815","","","","40","","20","","34","","","","","","","","","","","","","","","","-1","815","","","","","","","","","","","","","","","","","","","","","","",""
"","fixation","","html-keyboard-response","289","947366","0.0-269.0","0","0","Ooi3v","People","","null","","","","null","","","","","","","","","","","","","","","","","","","","","","","","","","","","","","","","","","","","","","","","","","","",""
"","see_reward","","html-keyboard-response","290","948132","0.0-270.0","0","0","Ooi3v","People","","765","","","","32","","12","","35","","","","1","","","","","2","","","","","145","765","","","","","","","","","","","","","","","","","","","","","","","","",""
"","reward_outcome","","html-keyboard-response","291","950146","0.0-271.0","0","0","Ooi3v","People","","668","","","","38","","12","","35","","","","","","","","","","","","","","","","1","668","","","","","","","","","","","","","","","","","","","","","","",""
"","fixation","","html-keyboard-response","292","951150","0.0-274.0","0","0","Ooi3v","People","","null","","","","null","","","","","","","","","","","","","","","","","","","","","","","","","","","","","","","","","","","","","","","","","","","",""
"","see_reward","","html-keyboard-response","293","951830","0.0-275.0","0","0","Ooi3v","People","","678","","","","32","","12","","36","","","","1","","","","","2","","","","","145","678","","","","","","","","","","","","","","","","","","","","","","","","",""
"","reward_outcome","","html-keyboard-response","294","953833","0.0-276.0","0","0","Ooi3v","People","","1020","","","","38","","12","","36","","","","","","","","","","","","","","","","1","1020","","","","","","","","","","","","","","","","","","","","","","",""
"","fixation","","html-keyboard-response","295","954852","0.0-279.0","0","0","Ooi3v","People","","null","","","","null","","","","","","","","","","","","","","","","","","","","","","","","","","","","","","","","","","","","","","","","","","","",""
"","see_reward","","html-keyboard-response","296","955651","0.0-280.0","0","0","Ooi3v","People","","798","","","","32","","30","","37","","","","1","","","","","2","","","","","148","798","","","","","","","","","","","","","","","","","","","","","","","","",""
"","reward_outcome","","html-keyboard-response","297","957665","0.0-281.0","0","0","Ooi3v","People","","756","","","","38","","30","","37","","","","","","","","","","","","","","","","1","756","","","","","","","","","","","","","","","","","","","","","","",""
"","fixation","","html-keyboard-response","298","958686","0.0-284.0","0","0","Ooi3v","People","","null","","","","null","","","","","","","","","","","","","","","","","","","","","","","","","","","","","","","","","","","","","","","","","","","",""
"","see_reward","","html-keyboard-response","299","959612","0.0-285.0","0","0","Ooi3v","People","","924","","","","32","","31","","38","","","","-1","","","","","2","","","","","0","924","","","","","","","","","","","","","","","","","","","","","","","","",""
"","reward_outcome","","html-keyboard-response","300","961629","0.0-286.0","0","0","Ooi3v","People","","921","","","","40","","31","","38","","","","","","","","","","","","","","","","-1","921","","","","","","","","","","","","","","","","","","","","","","",""
"","fixation","","html-keyboard-response","301","962646","0.0-289.0","0","0","Ooi3v","People","","null","","","","null","","","","","","","","","","","","","","","","","","","","","","","","","","","","","","","","","","","","","","","","","","","",""
"","see_reward","","html-keyboard-response","302","963256","0.0-290.0","0","0","Ooi3v","People","","608","","","","32","","20","","39","","","","-1","","","","","2","","","","","0","608","","","","","","","","","","","","","","","","","","","","","","","","",""
"","reward_outcome","","html-keyboard-response","303","965275","0.0-291.0","0","0","Ooi3v","People","","1187","","","","40","","20","","39","","","","","","","","","","","","","","","","-1","1187","","","","","","","","","","","","","","","","","","","","","","",""
"","fixation","","html-keyboard-response","304","966295","0.0-294.0","0","0","Ooi3v","People","","null","","","","null","","","","","","","","","","","","","","","","","","","","","","","","","","","","","","","","","","","","","","","","","","","",""
"","see_reward","","html-keyboard-response","305","967144","0.0-295.0","0","0","Ooi3v","People","","849","","","","32","","36","","40","","","","1","","","","","2","","","","","155","849","","","","","","","","","","","","","","","","","","","","","","","","",""
"","reward_outcome","","html-keyboard-response","306","969163","0.0-296.0","0","0","Ooi3v","People","","890","","","","38","","36","","40","","","","","","","","","","","","","","","","1","890","","","","","","","","","","","","","","","","","","","","","","",""
"","fixation","","html-keyboard-response","307","970178","0.0-299.0","0","0","Ooi3v","People","","null","","","","null","","","","","","","","","","","","","","","","","","","","","","","","","","","","","","","","","","","","","","","","","","","",""
"","see_reward","","html-keyboard-response","308","971025","0.0-300.0","0","0","Ooi3v","People","","845","","","","32","","21","","41","","","","-1","","","","","2","","","","","0","845","","","","","","","","","","","","","","","","","","","","","","","","",""
"","reward_outcome","","html-keyboard-response","309","973037","0.0-301.0","0","0","Ooi3v","People","","1253","","","","40","","21","","41","","","","","","","","","","","","","","","","-1","1253","","","","","","","","","","","","","","","","","","","","","","",""
"","fixation","","html-keyboard-response","310","974051","0.0-304.0","0","0","Ooi3v","People","","null","","","","null","","","","","","","","","","","","","","","","","","","","","","","","","","","","","","","","","","","","","","","","","","","",""
"","see_reward","","html-keyboard-response","311","974852","0.0-305.0","0","0","Ooi3v","People","","799","","","","32","","30","","42","","","","1","","","","","2","","","","","148","799","","","","","","","","","","","","","","","","","","","","","","","","",""
"","reward_outcome","","html-keyboard-response","312","976872","0.0-306.0","0","0","Ooi3v","People","","417","","","","38","","30","","42","","","","","","","","","","","","","","","","1","417","","","","","","","","","","","","","","","","","","","","","","",""
"","fixation","","html-keyboard-response","313","977891","0.0-309.0","0","0","Ooi3v","People","","null","","","","null","","","","","","","","","","","","","","","","","","","","","","","","","","","","","","","","","","","","","","","","","","","",""
"","see_reward","","html-keyboard-response","314","978669","0.0-310.0","0","0","Ooi3v","People","","776","","","","32","","48","","43","","","","1","","","","","2","","","","","157","776","","","","","","","","","","","","","","","","","","","","","","","","",""
"","reward_outcome","","html-keyboard-response","315","980684","0.0-311.0","0","0","Ooi3v","People","","470","","","","38","","48","","43","","","","","","","","","","","","","","","","1","470","","","","","","","","","","","","","","","","","","","","","","",""
"","fixation","","html-keyboard-response","316","981703","0.0-314.0","0","0","Ooi3v","People","","null","","","","null","","","","","","","","","","","","","","","","","","","","","","","","","","","","","","","","","","","","","","","","","","","",""
"","see_reward","","html-keyboard-response","317","982783","0.0-315.0","0","0","Ooi3v","People","","1078","","","","32","","17","","44","","","","-1","","","","","2","","","","","0","1078","","","","","","","","","","","","","","","","","","","","","","","","",""
"","reward_outcome","","html-keyboard-response","318","984791","0.0-316.0","0","0","Ooi3v","People","","342","","","","40","","17","","44","","","","","","","","","","","","","","","","-1","342","","","","","","","","","","","","","","","","","","","","","","",""
"","fixation","","html-keyboard-response","319","985813","0.0-319.0","0","0","Ooi3v","People","","null","","","","null","","","","","","","","","","","","","","","","","","","","","","","","","","","","","","","","","","","","","","","","","","","",""
"","see_reward","","html-keyboard-response","320","986562","0.0-320.0","0","0","Ooi3v","People","","747","","","","32","","2","","45","","","","-1","","","","","2","","","","","0","747","","","","","","","","","","","","","","","","","","","","","","","","",""
"","reward_outcome","","html-keyboard-response","321","988582","0.0-321.0","0","0","Ooi3v","People","","340","","","","40","","2","","45","","","","","","","","","","","","","","","","-1","340","","","","","","","","","","","","","","","","","","","","","","",""
"","fixation","","html-keyboard-response","322","989599","0.0-324.0","0","0","Ooi3v","People","","null","","","","null","","","","","","","","","","","","","","","","","","","","","","","","","","","","","","","","","","","","","","","","","","","",""
"","see_reward","","html-keyboard-response","323","990558","0.0-325.0","0","0","Ooi3v","People","","958","","","","32","","31","","46","","","","-1","","","","","2","","","","","0","958","","","","","","","","","","","","","","","","","","","","","","","","",""
"","reward_outcome","","html-keyboard-response","324","992563","0.0-326.0","0","0","Ooi3v","People","","313","","","","40","","31","","46","","","","","","","","","","","","","","","","-1","313","","","","","","","","","","","","","","","","","","","","","","",""
"","fixation","","html-keyboard-response","325","993580","0.0-329.0","0","0","Ooi3v","People","","null","","","","null","","","","","","","","","","","","","","","","","","","","","","","","","","","","","","","","","","","","","","","","","","","",""
"","see_reward","","html-keyboard-response","326","994449","0.0-330.0","0","0","Ooi3v","People","","868","","","","32","","17","","47","","","","-1","","","","","2","","","","","0","868","","","","","","","","","","","","","","","","","","","","","","","","",""
"","reward_outcome","","html-keyboard-response","327","996465","0.0-331.0","0","0","Ooi3v","People","","572","","","","40","","17","","47","","","","","","","","","","","","","","","","-1","572","","","","","","","","","","","","","","","","","","","","","","",""
"","block_over","","html-keyboard-response","328","998170","0.0-333.0-0.0","0","0","Ooi3v","People","","1704","","","","78","","","","","","","","","","","","","","","","","","","","","","","","","","","","","","","","","","","","","","","","","","","",""
"","fixation","","html-keyboard-response","329","999180","0.0-334.0","0","0","Ooi3v","People","","null","","","","null","","","","","","","","","","","","","","","","","","","","","","","","","","","","","","","","","","","","","","","","","","","",""
"","see_reward","","html-keyboard-response","330","1000372","0.0-335.0","0","0","Ooi3v","People","","1191","","","","32","","36","","48","","","","1","","","","","3","","","","","155","1191","","","","","","","","","","","","","","","","","","","","","","","","",""
"","reward_outcome","","html-keyboard-response","331","1002379","0.0-336.0","0","0","Ooi3v","People","","534","","","","38","","36","","48","","","","","","","","","","","","","","","","1","534","","","","","","","","","","","","","","","","","","","","","","",""
"","fixation","","html-keyboard-response","332","1003391","0.0-339.0","0","0","Ooi3v","People","","null","","","","null","","","","","","","","","","","","","","","","","","","","","","","","","","","","","","","","","","","","","","","","","","","",""
"","see_reward","","html-keyboard-response","333","1004039","0.0-340.0","0","0","Ooi3v","People","","646","","","","32","","21","","49","","","","-1","","","","","3","","","","","0","646","","","","","","","","","","","","","","","","","","","","","","","","",""
"","reward_outcome","","html-keyboard-response","334","1006060","0.0-341.0","0","0","Ooi3v","People","","574","","","","40","","21","","49","","","","","","","","","","","","","","","","-1","574","","","","","","","","","","","","","","","","","","","","","","",""
"","fixation","","html-keyboard-response","335","1007076","0.0-344.0","0","0","Ooi3v","People","","null","","","","null","","","","","","","","","","","","","","","","","","","","","","","","","","","","","","","","","","","","","","","","","","","",""
"","see_reward","","html-keyboard-response","336","1008091","0.0-345.0","0","0","Ooi3v","People","","1014","","","","32","","48","","50","","","","1","","","","","3","","","","","157","1014","","","","","","","","","","","","","","","","","","","","","","","","",""
"","reward_outcome","","html-keyboard-response","337","1010111","0.0-346.0","0","0","Ooi3v","People","","611","","","","38","","48","","50","","","","","","","","","","","","","","","","1","611","","","","","","","","","","","","","","","","","","","","","","",""
"","fixation","","html-keyboard-response","338","1011130","0.0-349.0","0","0","Ooi3v","People","","null","","","","null","","","","","","","","","","","","","","","","","","","","","","","","","","","","","","","","","","","","","","","","","","","",""
"","see_reward","","html-keyboard-response","339","1011764","0.0-350.0","0","0","Ooi3v","People","","633","","","","32","","12","","51","","","","1","","","","","3","","","","","145","633","","","","","","","","","","","","","","","","","","","","","","","","",""
"","reward_outcome","","html-keyboard-response","340","1013770","0.0-351.0","0","0","Ooi3v","People","","682","","","","38","","12","","51","","","","","","","","","","","","","","","","1","682","","","","","","","","","","","","","","","","","","","","","","",""
"","fixation","","html-keyboard-response","341","1014778","0.0-354.0","0","0","Ooi3v","People","","null","","","","null","","","","","","","","","","","","","","","","","","","","","","","","","","","","","","","","","","","","","","","","","","","",""
"","see_reward","","html-keyboard-response","342","1015241","0.0-355.0","0","0","Ooi3v","People","","461","","","","32","","2","","52","","","","-1","","","","","3","","","","","0","461","","","","","","","","","","","","","","","","","","","","","","","","",""
"","reward_outcome","","html-keyboard-response","343","1017257","0.0-356.0","0","0","Ooi3v","People","","983","","","","40","","2","","52","","","","","","","","","","","","","","","","-1","983","","","","","","","","","","","","","","","","","","","","","","",""
"","fixation","","html-keyboard-response","344","1018277","0.0-359.0","0","0","Ooi3v","People","","null","","","","null","","","","","","","","","","","","","","","","","","","","","","","","","","","","","","","","","","","","","","","","","","","",""
"","see_reward","","html-keyboard-response","345","1018955","0.0-360.0","0","0","Ooi3v","People","","677","","","","32","","20","","53","","","","-1","","","","","3","","","","","0","677","","","","","","","","","","","","","","","","","","","","","","","","",""
"","reward_outcome","","html-keyboard-response","346","1020965","0.0-361.0","0","0","Ooi3v","People","","943","","","","40","","20","","53","","","","","","","","","","","","","","","","-1","943","","","","","","","","","","","","","","","","","","","","","","",""
"","fixation","","html-keyboard-response","347","1021971","0.0-364.0","0","0","Ooi3v","People","","null","","","","null","","","","","","","","","","","","","","","","","","","","","","","","","","","","","","","","","","","","","","","","","","","",""
"","see_reward","","html-keyboard-response","348","1022579","0.0-365.0","0","0","Ooi3v","People","","607","","","","32","","36","","54","","","","1","","","","","3","","","","","155","607","","","","","","","","","","","","","","","","","","","","","","","","",""
"","reward_outcome","","html-keyboard-response","349","1024588","0.0-366.0","0","0","Ooi3v","People","","558","","","","38","","36","","54","","","","","","","","","","","","","","","","1","558","","","","","","","","","","","","","","","","","","","","","","",""
"","fixation","","html-keyboard-response","350","1025594","0.0-369.0","0","0","Ooi3v","People","","null","","","","null","","","","","","","","","","","","","","","","","","","","","","","","","","","","","","","","","","","","","","","","","","","",""
