"success","ttype","start_time","trial_type","trial_index","time_elapsed","internal_node_id","warning","missed_checkup","PID","stim_type","view_history","rt","responses","category","repeat_instructions","key_press","response","stimulus_id","painting","index","stimulus_left","stimulus_right","explain_trial","reward_type","rating_left","rating_right","painting_left","painting_right","block","left_chosen","chosen_obj","unchosen_obj","explain_response","reward_amount","see_reward_rt","register_reward_response","register_reward_rt","deliberation_reward_tally","stimulus_left_deliberation_ind","stimulus_right_deliberation_ind","chosen_trial","gain_left","higher_outcome_chosen","old_pair","chosen_object","rt_pairs","left_object_chosen","rt_object","old_response","new_rating","deliberated_stim","initial_rating","outcome_eval_rt","outcome_eval_response","outcome_eval_gain","outcome_eval_acc","preamble","outcome_eval_confidence","outcome_eval_confidence_rt","total_reward_tally"
"true","full_screen","d01182023hr1458","fullscreen","0","2816128","0.0-0.0","0","0","tMhNR","People","","","","","","","","","","","","","","","","","","","","","","","","","","","","","","","","","","","","","","","","","","","","","","","","","",""
"","rating_instructions","","instructions","1","2829779","0.0-1.0-0.0","0","0","tMhNR","People","[{""page_index"":0,""viewing_time"":10968},{""page_index"":1,""viewing_time"":2677}]","13646","","","","","","","","","","","","","","","","","","","","","","","","","","","","","","","","","","","","","","","","","","","","","","","",""
"","","","survey-multi-choice","2","2837134","0.0-1.0-1.0","0","0","tMhNR","People","","7352","{""Q0"":""True"",""Q1"":""Mouse""}","rating_comprehension_check","0","","","","","","","","","","","","","","","","","","","","","","","","","","","","","","","","","","","","","","","","","","","","",""
"","start_phase","","html-keyboard-response","3","2842174","0.0-2.0","0","0","tMhNR","People","","5038","","","","78","","","","","","","","","","","","","","","","","","","","","","","","","","","","","","","","","","","","","","","","","","","",""
"","rating","","html-slider-response","4","2846975","0.0-3.0","0","0","tMhNR","People","","4799","","","","","88","0","abstral-official-cyOKLSgkgCE-unsplash.jpg","0","","","","","","","","","","","","","","","","","","","","","","","","","","","","","","","","","","","","","","","",""
"","rating","","html-slider-response","5","2851517","0.0-4.0","0","0","tMhNR","People","","4540","","","","","80","6","ben-o-bro-C5XyLljkMrY-unsplash.jpg","1","","","","","","","","","","","","","","","","","","","","","","","","","","","","","","","","","","","","","","","",""
"","rating","","html-slider-response","6","2856460","0.0-5.0","0","0","tMhNR","People","","4942","","","","","90","49","vicky-hladynets-_gDoyVv5F4c-unsplash.jpg","2","","","","","","","","","","","","","","","","","","","","","","","","","","","","","","","","","","","","","","","",""
"","rating","","html-slider-response","7","2859061","0.0-6.0","0","0","tMhNR","People","","2598","","","","","75","45","sarah-noltner-pL5ZzPp1zqg-unsplash.jpg","3","","","","","","","","","","","","","","","","","","","","","","","","","","","","","","","","","","","","","","","",""
"","rating","","html-slider-response","8","2862986","0.0-7.0","0","0","tMhNR","People","","3923","","","","","76","18","good-faces-xmSWVeGEnJw-unsplash.jpg","4","","","","","","","","","","","","","","","","","","","","","","","","","","","","","","","","","","","","","","","",""
"","rating","","html-slider-response","9","2865634","0.0-8.0","0","0","tMhNR","People","","2646","","","","","76","44","rikonavt-HQjfrvdTfak-unsplash.jpg","5","","","","","","","","","","","","","","","","","","","","","","","","","","","","","","","","","","","","","","","",""
"","rating","","html-slider-response","10","2868245","0.0-9.0","0","0","tMhNR","People","","2609","","","","","33","42","prince-akachi-l3IHXOdMyHQ-unsplash.jpg","6","","","","","","","","","","","","","","","","","","","","","","","","","","","","","","","","","","","","","","","",""
"","rating","","html-slider-response","11","2871603","0.0-10.0","0","0","tMhNR","People","","3357","","","","","63","28","justin-chen-J7Cf1Gch49E-unsplash.jpg","7","","","","","","","","","","","","","","","","","","","","","","","","","","","","","","","","","","","","","","","",""
"","rating","","html-slider-response","12","2877593","0.0-11.0","0","0","tMhNR","People","","5988","","","","","18","32","nathan-dumlao-ger61_TX6oI-unsplash.jpg","8","","","","","","","","","","","","","","","","","","","","","","","","","","","","","","","","","","","","","","","",""
"","rating","","html-slider-response","13","2881681","0.0-12.0","0","0","tMhNR","People","","4086","","","","","10","8","bruce-dixon-3M9WJQVHzog-unsplash.jpg","9","","","","","","","","","","","","","","","","","","","","","","","","","","","","","","","","","","","","","","","",""
"","rating","","html-slider-response","14","2885128","0.0-13.0","0","0","tMhNR","People","","3446","","","","","28","36","ospan-ali-mGdA2fzjWLo-unsplash.jpg","10","","","","","","","","","","","","","","","","","","","","","","","","","","","","","","","","","","","","","","","",""
"","rating","","html-slider-response","15","2888905","0.0-14.0","0","0","tMhNR","People","","3775","","","","","24","37","pavel-anoshin-d0peGya6R5Y-unsplash.jpg","11","","","","","","","","","","","","","","","","","","","","","","","","","","","","","","","","","","","","","","","",""
"","rating","","html-slider-response","16","2891698","0.0-15.0","0","0","tMhNR","People","","2791","","","","","11","40","prince-akachi-4Yv84VgQkRM-unsplash.jpg","12","","","","","","","","","","","","","","","","","","","","","","","","","","","","","","","","","","","","","","","",""
"","rating","","html-slider-response","17","2894355","0.0-16.0","0","0","tMhNR","People","","2655","","","","","5","3","art-hauntington-jzY0KRJopEI-unsplash.jpg","13","","","","","","","","","","","","","","","","","","","","","","","","","","","","","","","","","","","","","","","",""
"","rating","","html-slider-response","18","2896723","0.0-17.0","0","0","tMhNR","People","","2366","","","","","14","30","matheus-ferrero-pg_WCHWSdT8-unsplash.jpg","14","","","","","","","","","","","","","","","","","","","","","","","","","","","","","","","","","","","","","","","",""
"","rating","","html-slider-response","19","2899311","0.0-18.0","0","0","tMhNR","People","","2586","","","","","4","26","juri-gianfrancesco-9EZadYaMzk4-unsplash.jpg","15","","","","","","","","","","","","","","","","","","","","","","","","","","","","","","","","","","","","","","","",""
"","rating","","html-slider-response","20","2901537","0.0-19.0","0","0","tMhNR","People","","2224","","","","","31","39","philip-martin-5aGUyCW_PJw-unsplash.jpg","16","","","","","","","","","","","","","","","","","","","","","","","","","","","","","","","","","","","","","","","",""
"","rating","","html-slider-response","21","2903537","0.0-20.0","0","0","tMhNR","People","","1987","","","","","79","38","petr-sevcovic-HzDF-rxlSeM-unsplash.jpg","17","","","","","","","","","","","","","","","","","","","","","","","","","","","","","","","","","","","","","","","",""
"","rating","","html-slider-response","22","2905699","0.0-21.0","0","0","tMhNR","People","","2160","","","","","78","21","jessica-felicio-_cvwXhGqG-o-unsplash.jpg","18","","","","","","","","","","","","","","","","","","","","","","","","","","","","","","","","","","","","","","","",""
"","rating","","html-slider-response","23","2908048","0.0-22.0","0","0","tMhNR","People","","2347","","","","","74","47","tyler-nix-ZGa9d1a_4tA-unsplash.jpg","19","","","","","","","","","","","","","","","","","","","","","","","","","","","","","","","","","","","","","","","",""
"","rating","","html-slider-response","24","2910748","0.0-23.0","0","0","tMhNR","People","","2698","","","","","85","34","oliver-johnson-1TUIcKob7Zs-unsplash.jpg","20","","","","","","","","","","","","","","","","","","","","","","","","","","","","","","","","","","","","","","","",""
"","rating","","html-slider-response","25","2913905","0.0-24.0","0","0","tMhNR","People","","3155","","","","","72","4","barna-bartis-2x3vfVxwR7o-unsplash.jpg","21","","","","","","","","","","","","","","","","","","","","","","","","","","","","","","","","","","","","","","","",""
"","rating","","html-slider-response","26","2917875","0.0-25.0","0","0","tMhNR","People","","3968","","","","","80","27","jurica-koletic-7YVZYZeITc8-unsplash.jpg","22","","","","","","","","","","","","","","","","","","","","","","","","","","","","","","","","","","","","","","","",""
"","rating","","html-slider-response","27","2923249","0.0-26.0","0","0","tMhNR","People","","5372","","","","","22","20","houcine-ncib-B4TjXnI0Y2c-unsplash.jpg","23","","","","","","","","","","","","","","","","","","","","","","","","","","","","","","","","","","","","","","","",""
"","rating","","html-slider-response","28","2928820","0.0-27.0","0","0","tMhNR","People","","5569","","","","","20","22","jessica-radanavong-mrYkTuAesKE-unsplash.jpg","24","","","","","","","","","","","","","","","","","","","","","","","","","","","","","","","","","","","","","","","",""
"","rating","","html-slider-response","29","2932546","0.0-28.0","0","0","tMhNR","People","","3724","","","","","81","1","aiony-haust-jmATI5Q_YgY-unsplash.jpg","25","","","","","","","","","","","","","","","","","","","","","","","","","","","","","","","","","","","","","","","",""
"","rating","","html-slider-response","30","2937553","0.0-29.0","0","0","tMhNR","People","","5005","","","","","12","2","arjunsyah-TBUA5KHJn6k-unsplash.jpg","26","","","","","","","","","","","","","","","","","","","","","","","","","","","","","","","","","","","","","","","",""
"","rating","","html-slider-response","31","2946066","0.0-30.0","0","0","tMhNR","People","","8510","","","","","81","43","raamin-ka-0qJBEzudn5E-unsplash.jpg","27","","","","","","","","","","","","","","","","","","","","","","","","","","","","","","","","","","","","","","","",""
"","rating","","html-slider-response","32","2961220","0.0-31.0","0","0","tMhNR","People","","15151","","","","","78","48","velizar-ivanov-7ktP9yZA1g4-unsplash.jpg","28","","","","","","","","","","","","","","","","","","","","","","","","","","","","","","","","","","","","","","","",""
"","rating","","html-slider-response","33","2964452","0.0-32.0","0","0","tMhNR","People","","3228","","","","","35","35","oliver-ragfelt-khV4fTy6-D8-unsplash.jpg","29","","","","","","","","","","","","","","","","","","","","","","","","","","","","","","","","","","","","","","","",""
"","rating","","html-slider-response","34","2967388","0.0-33.0","0","0","tMhNR","People","","2932","","","","","73","31","mathilda-khoo-vLR0YP_otCo-unsplash.jpg","30","","","","","","","","","","","","","","","","","","","","","","","","","","","","","","","","","","","","","","","",""
"","rating","","html-slider-response","35","2970108","0.0-34.0","0","0","tMhNR","People","","2718","","","","","73","13","erik-lucatero-d2MSDujJl2g-unsplash.jpg","31","","","","","","","","","","","","","","","","","","","","","","","","","","","","","","","","","","","","","","","",""
"","rating","","html-slider-response","36","2975288","0.0-35.0","0","0","tMhNR","People","","5178","","","","","78","5","batel-studio-ttSRjiYG_WM-unsplash.jpg","32","","","","","","","","","","","","","","","","","","","","","","","","","","","","","","","","","","","","","","","",""
"","rating","","html-slider-response","37","2986171","0.0-36.0","0","0","tMhNR","People","","10881","","","","","78","25","joseph-gonzalez-iFgRcqHznqg-unsplash.jpg","33","","","","","","","","","","","","","","","","","","","","","","","","","","","","","","","","","","","","","","","",""
"","rating","","html-slider-response","38","2994067","0.0-37.0","0","0","tMhNR","People","","7894","","","","","73","12","daniel-rigdon-dXmXKPP2L4E-unsplash.jpg","34","","","","","","","","","","","","","","","","","","","","","","","","","","","","","","","","","","","","","","","",""
"","rating","","html-slider-response","39","2999532","0.0-38.0","0","0","tMhNR","People","","5463","","","","","8","24","joel-mott-LaK153ghdig-unsplash.jpg","35","","","","","","","","","","","","","","","","","","","","","","","","","","","","","","","","","","","","","","","",""
"","rating","","html-slider-response","40","3002724","0.0-39.0","0","0","tMhNR","People","","3189","","","","","75","9","carlos-andres-gomez-vJuk8Y86mRw-unsplash.jpg","36","","","","","","","","","","","","","","","","","","","","","","","","","","","","","","","","","","","","","","","",""
"","rating","","html-slider-response","41","3006036","0.0-40.0","0","0","tMhNR","People","","3309","","","","","15","33","olena-sergienko-0TSd6uCKTKc-unsplash.jpg","37","","","","","","","","","","","","","","","","","","","","","","","","","","","","","","","","","","","","","","","",""
"","rating","","html-slider-response","42","3008453","0.0-41.0","0","0","tMhNR","People","","2415","","","","","74","19","ha-nguy-n-OFSQ6bHjFjs-unsplash.jpg","38","","","","","","","","","","","","","","","","","","","","","","","","","","","","","","","","","","","","","","","",""
"","rating","","html-slider-response","43","3012515","0.0-42.0","0","0","tMhNR","People","","4050","","","","","83","7","brooke-cagle-HRZUzoX1e6w-unsplash.jpg","39","","","","","","","","","","","","","","","","","","","","","","","","","","","","","","","","","","","","","","","",""
"","rating","","html-slider-response","44","3017607","0.0-43.0","0","0","tMhNR","People","","5090","","","","","28","14","freddy-kearney-o-ioeoATbIM-unsplash.jpg","40","","","","","","","","","","","","","","","","","","","","","","","","","","","","","","","","","","","","","","","",""
"","rating","","html-slider-response","45","3021005","0.0-44.0","0","0","tMhNR","People","","3396","","","","","23","16","giano-currie-5-9YOsmf8IQ-unsplash.jpg","41","","","","","","","","","","","","","","","","","","","","","","","","","","","","","","","","","","","","","","","",""
"","rating","","html-slider-response","46","3023914","0.0-45.0","0","0","tMhNR","People","","2907","","","","","21","29","leilani-angel-K84vnnzxmTQ-unsplash.jpg","42","","","","","","","","","","","","","","","","","","","","","","","","","","","","","","","","","","","","","","","",""
"","rating","","html-slider-response","47","3026743","0.0-46.0","0","0","tMhNR","People","","2828","","","","","81","17","gleb-lukomets-paBzWCPN23k-unsplash.jpg","43","","","","","","","","","","","","","","","","","","","","","","","","","","","","","","","","","","","","","","","",""
"","rating","","html-slider-response","48","3029898","0.0-47.0","0","0","tMhNR","People","","3152","","","","","83","46","stefan-stefancik-QXevDflbl8A-unsplash.jpg","44","","","","","","","","","","","","","","","","","","","","","","","","","","","","","","","","","","","","","","","",""
"","rating","","html-slider-response","49","3035163","0.0-48.0","0","0","tMhNR","People","","5264","","","","","25","15","gabriel-silverio-u3WmDyKGsrY-unsplash.jpg","45","","","","","","","","","","","","","","","","","","","","","","","","","","","","","","","","","","","","","","","",""
"","rating","","html-slider-response","50","3040342","0.0-49.0","0","0","tMhNR","People","","5174","","","","","13","41","prince-akachi-i2hoD-C2RUA-unsplash.jpg","46","","","","","","","","","","","","","","","","","","","","","","","","","","","","","","","","","","","","","","","",""
"","rating","","html-slider-response","51","3045582","0.0-50.0","0","0","tMhNR","People","","5236","","","","","19","10","charles-etoroma-95UF6LXe-Lo-unsplash.jpg","47","","","","","","","","","","","","","","","","","","","","","","","","","","","","","","","","","","","","","","","",""
"","rating","","html-slider-response","52","3049172","0.0-51.0","0","0","tMhNR","People","","3587","","","","","75","11","christian-ferrer-8vT-DgHZDG4-unsplash.jpg","48","","","","","","","","","","","","","","","","","","","","","","","","","","","","","","","","","","","","","","","",""
"","rating","","html-slider-response","53","3055275","0.0-52.0","0","0","tMhNR","People","","6101","","","","","77","23","joanna-nix-walkup-H4fEMshfwTE-unsplash.jpg","49","","","","","","","","","","","","","","","","","","","","","","","","","","","","","","","","","","","","","","","",""
"","deliberation_instructions","","instructions","54","4071550","0.0-53.0-0.0","0","0","tMhNR","People","[{""page_index"":0,""viewing_time"":1004753},{""page_index"":1,""viewing_time"":2861},{""page_index"":2,""viewing_time"":2232},{""page_index"":3,""viewing_time"":3864},{""page_index"":4,""viewing_time"":2561}]","1016272","","","","","","","","","","","","","","","","","","","","","","","","","","","","","","","","","","","","","","","","","","","","","","","",""
"","","","survey-multi-choice","55","4079141","0.0-53.0-1.0","0","0","tMhNR","People","","7586","{""Q0"":""True"",""Q1"":""True"",""Q2"":""Consider carefully and take your time (up to 10 seconds)"",""Q3"":""True"",""Q4"":""D""}","deliberation_comprehension_check","0","","","","","","","","","","","","","","","","","","","","","","","","","","","","","","","","","","","","","","","","","","","","",""
"","start_phase","","html-keyboard-response","56","4081613","0.0-54.0","0","0","tMhNR","People","","2470","","","","78","","","","","","","","","","","","","","","","","","","","","","","","","","","","","","","","","","","","","","","","","","","",""
"","first_deliberation_block","","html-keyboard-response","57","4087123","0.0-55.0","0","0","tMhNR","People","","5507","","","","78","","","","","","","","","","","","","","","","","","","","","","","","","","","","","","","","","","","","","","","","","","","",""
"","fixation","","html-keyboard-response","58","4088136","0.0-56.0-0.0","0","0","tMhNR","People","","null","","","","null","","","","","","","","","","","","","","","","","","","","","","","","","","","","","","","","","","","","","","","","","","","",""
"","deliberation","","html-keyboard-response","59","4095349","0.0-56.0-1.0","0","0","tMhNR","People","","7211","","","","75","","","","0","14","28","0","1","28","63","freddy-kearney-o-ioeoATbIM-unsplash.jpg","justin-chen-J7Cf1Gch49E-unsplash.jpg","1","0","28","14","","","","","","","","","","","","","","","","","","","","","","","","","","","",""
"","choice_confirmation","","html-keyboard-response","60","4095857","0.0-56.0-2.0-0.0","0","0","tMhNR","People","","null","","","","null","","","","0","14","28","","","","","","","","","","","","","","","","","","","","","","","","","","","","","","","","","","","","","",""
"","fixation","","html-keyboard-response","61","4096863","0.0-57.0-0.0","0","0","tMhNR","People","","null","","","","null","","","","","","","","","","","","","","","","","","","","","","","","","","","","","","","","","","","","","","","","","","","",""
"","deliberation","","html-keyboard-response","62","4099028","0.0-57.0-1.0","0","0","tMhNR","People","","2161","","","","68","","","","1","36","37","1","1","28","24","ospan-ali-mGdA2fzjWLo-unsplash.jpg","pavel-anoshin-d0peGya6R5Y-unsplash.jpg","1","1","36","37","","","","","","","","","","","","","","","","","","","","","","","","","","","",""
"","choice_confirmation","","html-keyboard-response","63","4099528","0.0-57.0-2.0-0.0","0","0","tMhNR","People","","null","","","","null","","","","1","36","37","","","","","","","","","","","","","","","","","","","","","","","","","","","","","","","","","","","","","",""
"","explain_trial","","survey-text","64","4122765","0.0-57.0-5.0-0.0","0","0","tMhNR","People","","23234","{""Q0"":""look is so nice""}","","","","","","","1","36","37","","","","","","","","","","","{""Q0"":""look is so nice""}","","","","","","","","","","","","","","","","","","","","","","","","","","",""
"","fixation","","html-keyboard-response","65","4123775","0.0-58.0-0.0","0","0","tMhNR","People","","null","","","","null","","","","","","","","","","","","","","","","","","","","","","","","","","","","","","","","","","","","","","","","","","","",""
"","deliberation","","html-keyboard-response","66","4127173","0.0-58.0-1.0","0","0","tMhNR","People","","3397","","","","68","","","","2","48","20","0","-1","78","22","velizar-ivanov-7ktP9yZA1g4-unsplash.jpg","houcine-ncib-B4TjXnI0Y2c-unsplash.jpg","1","1","48","20","","","","","","","","","","","","","","","","","","","","","","","","","","","",""
"","choice_confirmation","","html-keyboard-response","67","4127684","0.0-58.0-2.0-0.0","0","0","tMhNR","People","","null","","","","null","","","","2","48","20","","","","","","","","","","","","","","","","","","","","","","","","","","","","","","","","","","","","","",""
"","fixation","","html-keyboard-response","68","4128703","0.0-59.0-0.0","0","0","tMhNR","People","","null","","","","null","","","","","","","","","","","","","","","","","","","","","","","","","","","","","","","","","","","","","","","","","","","",""
"","deliberation","","html-keyboard-response","69","4130445","0.0-59.0-1.0","0","0","tMhNR","People","","1726","","","","75","","","","3","16","9","0","-1","23","75","giano-currie-5-9YOsmf8IQ-unsplash.jpg","carlos-andres-gomez-vJuk8Y86mRw-unsplash.jpg","1","0","9","16","","","","","","","","","","","","","","","","","","","","","","","","","","","",""
"","choice_confirmation","","html-keyboard-response","70","4130962","0.0-59.0-2.0-0.0","0","0","tMhNR","People","","null","","","","null","","","","3","16","9","","","","","","","","","","","","","","","","","","","","","","","","","","","","","","","","","","","","","",""
"","fixation","","html-keyboard-response","71","4131970","0.0-60.0-0.0","0","0","tMhNR","People","","null","","","","null","","","","","","","","","","","","","","","","","","","","","","","","","","","","","","","","","","","","","","","","","","","",""
"","deliberation","","html-keyboard-response","72","4134383","0.0-60.0-1.0","0","0","tMhNR","People","","2399","","","","68","","","","4","44","39","1","1","76","31","rikonavt-HQjfrvdTfak-unsplash.jpg","philip-martin-5aGUyCW_PJw-unsplash.jpg","1","1","44","39","","","","","","","","","","","","","","","","","","","","","","","","","","","",""
"","choice_confirmation","","html-keyboard-response","73","4134885","0.0-60.0-2.0-0.0","0","0","tMhNR","People","","null","","","","null","","","","4","44","39","","","","","","","","","","","","","","","","","","","","","","","","","","","","","","","","","","","","","",""
"","explain_trial","","survey-text","74","4147638","0.0-60.0-5.0-0.0","0","0","tMhNR","People","","12750","{""Q0"":""very attractive ""}","","","","","","","4","44","39","","","","","","","","","","","{""Q0"":""very attractive ""}","","","","","","","","","","","","","","","","","","","","","","","","","","",""
"","fixation","","html-keyboard-response","75","4148671","0.0-61.0-0.0","0","0","tMhNR","People","","null","","","","null","","","","","","","","","","","","","","","","","","","","","","","","","","","","","","","","","","","","","","","","","","","",""
"","deliberation","","html-keyboard-response","76","4150795","0.0-61.0-1.0","0","0","tMhNR","People","","2123","","","","75","","","","5","4","45","0","1","72","75","barna-bartis-2x3vfVxwR7o-unsplash.jpg","sarah-noltner-pL5ZzPp1zqg-unsplash.jpg","1","0","45","4","","","","","","","","","","","","","","","","","","","","","","","","","","","",""
"","choice_confirmation","","html-keyboard-response","77","4151318","0.0-61.0-2.0-0.0","0","0","tMhNR","People","","null","","","","null","","","","5","4","45","","","","","","","","","","","","","","","","","","","","","","","","","","","","","","","","","","","","","",""
"","fixation","","html-keyboard-response","78","4152331","0.0-62.0-0.0","0","0","tMhNR","People","","null","","","","null","","","","","","","","","","","","","","","","","","","","","","","","","","","","","","","","","","","","","","","","","","","",""
"","deliberation","","html-keyboard-response","79","4153901","0.0-62.0-1.0","0","0","tMhNR","People","","1567","","","","75","","","","6","35","11","0","1","35","75","oliver-ragfelt-khV4fTy6-D8-unsplash.jpg","christian-ferrer-8vT-DgHZDG4-unsplash.jpg","1","0","11","35","","","","","","","","","","","","","","","","","","","","","","","","","","","",""
"","choice_confirmation","","html-keyboard-response","80","4154416","0.0-62.0-2.0-0.0","0","0","tMhNR","People","","null","","","","null","","","","6","35","11","","","","","","","","","","","","","","","","","","","","","","","","","","","","","","","","","","","","","",""
"","fixation","","html-keyboard-response","81","4155433","0.0-63.0-0.0","0","0","tMhNR","People","","null","","","","null","","","","","","","","","","","","","","","","","","","","","","","","","","","","","","","","","","","","","","","","","","","",""
"","deliberation","","html-keyboard-response","82","4157193","0.0-63.0-1.0","0","0","tMhNR","People","","1749","","","","68","","","","7","19","12","1","1","74","73","ha-nguy-n-OFSQ6bHjFjs-unsplash.jpg","daniel-rigdon-dXmXKPP2L4E-unsplash.jpg","1","1","19","12","","","","","","","","","","","","","","","","","","","","","","","","","","","",""
"","choice_confirmation","","html-keyboard-response","83","4157697","0.0-63.0-2.0-0.0","0","0","tMhNR","People","","null","","","","null","","","","7","19","12","","","","","","","","","","","","","","","","","","","","","","","","","","","","","","","","","","","","","",""
"","explain_trial","","survey-text","84","4174230","0.0-63.0-5.0-0.0","0","0","tMhNR","People","","16532","{""Q0"":""look is good""}","","","","","","","7","19","12","","","","","","","","","","","{""Q0"":""look is good""}","","","","","","","","","","","","","","","","","","","","","","","","","","",""
"","fixation","","html-keyboard-response","85","4175246","0.0-64.0-0.0","0","0","tMhNR","People","","null","","","","null","","","","","","","","","","","","","","","","","","","","","","","","","","","","","","","","","","","","","","","","","","","",""
"","deliberation","","html-keyboard-response","86","4182541","0.0-64.0-1.0","0","0","tMhNR","People","","7293","","","","75","","","","8","23","15","1","-1","77","25","joanna-nix-walkup-H4fEMshfwTE-unsplash.jpg","gabriel-silverio-u3WmDyKGsrY-unsplash.jpg","1","0","15","23","","","","","","","","","","","","","","","","","","","","","","","","","","","",""
"","choice_confirmation","","html-keyboard-response","87","4183044","0.0-64.0-2.0-0.0","0","0","tMhNR","People","","null","","","","null","","","","8","23","15","","","","","","","","","","","","","","","","","","","","","","","","","","","","","","","","","","","","","",""
"","explain_trial","","survey-text","88","4197455","0.0-64.0-5.0-0.0","0","0","tMhNR","People","","14408","{""Q0"":""look is very attractive ""}","","","","","","","8","23","15","","","","","","","","","","","{""Q0"":""look is very attractive ""}","","","","","","","","","","","","","","","","","","","","","","","","","","",""
"","fixation","","html-keyboard-response","89","4198478","0.0-65.0-0.0","0","0","tMhNR","People","","null","","","","null","","","","","","","","","","","","","","","","","","","","","","","","","","","","","","","","","","","","","","","","","","","",""
"","deliberation","","html-keyboard-response","90","4200261","0.0-65.0-1.0","0","0","tMhNR","People","","1782","","","","68","","","","9","13","18","1","-1","73","76","erik-lucatero-d2MSDujJl2g-unsplash.jpg","good-faces-xmSWVeGEnJw-unsplash.jpg","1","1","13","18","","","","","","","","","","","","","","","","","","","","","","","","","","","",""
"","choice_confirmation","","html-keyboard-response","91","4200768","0.0-65.0-2.0-0.0","0","0","tMhNR","People","","null","","","","null","","","","9","13","18","","","","","","","","","","","","","","","","","","","","","","","","","","","","","","","","","","","","","",""
"","explain_trial","","survey-text","92","4208935","0.0-65.0-5.0-0.0","0","0","tMhNR","People","","8164","{""Q0"":""very nice""}","","","","","","","9","13","18","","","","","","","","","","","{""Q0"":""very nice""}","","","","","","","","","","","","","","","","","","","","","","","","","","",""
"","fixation","","html-keyboard-response","93","4209949","0.0-66.0-0.0","0","0","tMhNR","People","","null","","","","null","","","","","","","","","","","","","","","","","","","","","","","","","","","","","","","","","","","","","","","","","","","",""
"","deliberation","","html-keyboard-response","94","4212014","0.0-66.0-1.0","0","0","tMhNR","People","","2064","","","","68","","","","10","42","21","1","-1","33","78","prince-akachi-l3IHXOdMyHQ-unsplash.jpg","jessica-felicio-_cvwXhGqG-o-unsplash.jpg","1","1","42","21","","","","","","","","","","","","","","","","","","","","","","","","","","","",""
"","choice_confirmation","","html-keyboard-response","95","4212526","0.0-66.0-2.0-0.0","0","0","tMhNR","People","","null","","","","null","","","","10","42","21","","","","","","","","","","","","","","","","","","","","","","","","","","","","","","","","","","","","","",""
"","explain_trial","","survey-text","96","4231379","0.0-66.0-5.0-0.0","0","0","tMhNR","People","","18851","{""Q0"":""i like very much hair ""}","","","","","","","10","42","21","","","","","","","","","","","{""Q0"":""i like very much hair ""}","","","","","","","","","","","","","","","","","","","","","","","","","","",""
"","fixation","","html-keyboard-response","97","4232383","0.0-67.0-0.0","0","0","tMhNR","People","","null","","","","null","","","","","","","","","","","","","","","","","","","","","","","","","","","","","","","","","","","","","","","","","","","",""
"","deliberation","","html-keyboard-response","98","4234430","0.0-67.0-1.0","0","0","tMhNR","People","","2045","","","","75","","","","11","47","31","0","-1","74","73","tyler-nix-ZGa9d1a_4tA-unsplash.jpg","mathilda-khoo-vLR0YP_otCo-unsplash.jpg","1","0","31","47","","","","","","","","","","","","","","","","","","","","","","","","","","","",""
"","choice_confirmation","","html-keyboard-response","99","4234948","0.0-67.0-2.0-0.0","0","0","tMhNR","People","","null","","","","null","","","","11","47","31","","","","","","","","","","","","","","","","","","","","","","","","","","","","","","","","","","","","","",""
"","practice_deliberation_again","","html-keyboard-response","100","4236854","0.0-67.0-6.0-0.0","0","0","tMhNR","People","","1903","","","","78","","","","","","","","","","","","","","","","","","","","","","","","","","","","","","","","","","","","","","","","","","","",""
"","fixation","","html-keyboard-response","101","4237856","0.0-68.0-0.0","0","0","tMhNR","People","","null","","","","null","","","","","","","","","","","","","","","","","","","","","","","","","","","","","","","","","","","","","","","","","","","",""
"","deliberation","","html-keyboard-response","102","4239974","0.0-68.0-1.0","0","0","tMhNR","People","","2105","","","","68","","","","12","48","20","1","-1","78","22","velizar-ivanov-7ktP9yZA1g4-unsplash.jpg","houcine-ncib-B4TjXnI0Y2c-unsplash.jpg","2","1","48","20","","","","","","","","","","","","","","","","","","","","","","","","","","","",""
"","choice_confirmation","","html-keyboard-response","103","4240477","0.0-68.0-2.0-0.0","0","0","tMhNR","People","","null","","","","null","","","","12","48","20","","","","","","","","","","","","","","","","","","","","","","","","","","","","","","","","","","","","","",""
"","explain_trial","","survey-text","104","4255591","0.0-68.0-5.0-0.0","0","0","tMhNR","People","","15111","{""Q0"":""look is very nice""}","","","","","","","12","48","20","","","","","","","","","","","{""Q0"":""look is very nice""}","","","","","","","","","","","","","","","","","","","","","","","","","","",""
"","fixation","","html-keyboard-response","105","4256603","0.0-69.0-0.0","0","0","tMhNR","People","","null","","","","null","","","","","","","","","","","","","","","","","","","","","","","","","","","","","","","","","","","","","","","","","","","",""
"","deliberation","","html-keyboard-response","106","4258829","0.0-69.0-1.0","0","0","tMhNR","People","","2224","","","","75","","","","13","35","11","1","1","35","75","oliver-ragfelt-khV4fTy6-D8-unsplash.jpg","christian-ferrer-8vT-DgHZDG4-unsplash.jpg","2","0","11","35","","","","","","","","","","","","","","","","","","","","","","","","","","","",""
"","choice_confirmation","","html-keyboard-response","107","4259336","0.0-69.0-2.0-0.0","0","0","tMhNR","People","","null","","","","null","","","","13","35","11","","","","","","","","","","","","","","","","","","","","","","","","","","","","","","","","","","","","","",""
"","explain_trial","","survey-text","108","4274208","0.0-69.0-5.0-0.0","0","0","tMhNR","People","","14871","{""Q0"":""dress is very hot""}","","","","","","","13","35","11","","","","","","","","","","","{""Q0"":""dress is very hot""}","","","","","","","","","","","","","","","","","","","","","","","","","","",""
"","fixation","","html-keyboard-response","109","4275229","0.0-70.0-0.0","0","0","tMhNR","People","","null","","","","null","","","","","","","","","","","","","","","","","","","","","","","","","","","","","","","","","","","","","","","","","","","",""
"","deliberation","","html-keyboard-response","110","4276854","0.0-70.0-1.0","0","0","tMhNR","People","","1624","","","","75","","","","14","4","45","1","1","72","75","barna-bartis-2x3vfVxwR7o-unsplash.jpg","sarah-noltner-pL5ZzPp1zqg-unsplash.jpg","2","0","45","4","","","","","","","","","","","","","","","","","","","","","","","","","","","",""
"","choice_confirmation","","html-keyboard-response","111","4277368","0.0-70.0-2.0-0.0","0","0","tMhNR","People","","null","","","","null","","","","14","4","45","","","","","","","","","","","","","","","","","","","","","","","","","","","","","","","","","","","","","",""
"","explain_trial","","survey-text","112","4296217","0.0-70.0-5.0-0.0","0","0","tMhNR","People","","18847","{""Q0"":""specs is very beautiful ""}","","","","","","","14","4","45","","","","","","","","","","","{""Q0"":""specs is very beautiful ""}","","","","","","","","","","","","","","","","","","","","","","","","","","",""
"","fixation","","html-keyboard-response","113","4297229","0.0-71.0-0.0","0","0","tMhNR","People","","null","","","","null","","","","","","","","","","","","","","","","","","","","","","","","","","","","","","","","","","","","","","","","","","","",""
"","deliberation","","html-keyboard-response","114","4299695","0.0-71.0-1.0","0","0","tMhNR","People","","2464","","","","75","","","","15","16","9","1","-1","23","75","giano-currie-5-9YOsmf8IQ-unsplash.jpg","carlos-andres-gomez-vJuk8Y86mRw-unsplash.jpg","2","0","9","16","","","","","","","","","","","","","","","","","","","","","","","","","","","",""
"","choice_confirmation","","html-keyboard-response","115","4300213","0.0-71.0-2.0-0.0","0","0","tMhNR","People","","null","","","","null","","","","15","16","9","","","","","","","","","","","","","","","","","","","","","","","","","","","","","","","","","","","","","",""
"","explain_trial","","survey-text","116","4308664","0.0-71.0-5.0-0.0","0","0","tMhNR","People","","8449","{""Q0"":""look is so hot""}","","","","","","","15","16","9","","","","","","","","","","","{""Q0"":""look is so hot""}","","","","","","","","","","","","","","","","","","","","","","","","","","",""
"","fixation","","html-keyboard-response","117","4309682","0.0-72.0-0.0","0","0","tMhNR","People","","null","","","","null","","","","","","","","","","","","","","","","","","","","","","","","","","","","","","","","","","","","","","","","","","","",""
"","deliberation","","html-keyboard-response","118","4311213","0.0-72.0-1.0","0","0","tMhNR","People","","1530","","","","75","","","","16","14","28","1","1","28","63","freddy-kearney-o-ioeoATbIM-unsplash.jpg","justin-chen-J7Cf1Gch49E-unsplash.jpg","2","0","28","14","","","","","","","","","","","","","","","","","","","","","","","","","","","",""
"","choice_confirmation","","html-keyboard-response","119","4311767","0.0-72.0-2.0-0.0","0","0","tMhNR","People","","null","","","","null","","","","16","14","28","","","","","","","","","","","","","","","","","","","","","","","","","","","","","","","","","","","","","",""
"","explain_trial","","survey-text","120","4325184","0.0-72.0-5.0-0.0","0","0","tMhNR","People","","13415","{""Q0"":""i like hair""}","","","","","","","16","14","28","","","","","","","","","","","{""Q0"":""i like hair""}","","","","","","","","","","","","","","","","","","","","","","","","","","",""
"","fixation","","html-keyboard-response","121","4326190","0.0-73.0-0.0","0","0","tMhNR","People","","null","","","","null","","","","","","","","","","","","","","","","","","","","","","","","","","","","","","","","","","","","","","","","","","","",""
"","deliberation","","html-keyboard-response","122","4328219","0.0-73.0-1.0","0","0","tMhNR","People","","2027","","","","75","","","","17","47","31","1","-1","74","73","tyler-nix-ZGa9d1a_4tA-unsplash.jpg","mathilda-khoo-vLR0YP_otCo-unsplash.jpg","2","0","31","47","","","","","","","","","","","","","","","","","","","","","","","","","","","",""
"","choice_confirmation","","html-keyboard-response","123","4328729","0.0-73.0-2.0-0.0","0","0","tMhNR","People","","null","","","","null","","","","17","47","31","","","","","","","","","","","","","","","","","","","","","","","","","","","","","","","","","","","","","",""
"","explain_trial","","survey-text","124","4348871","0.0-73.0-5.0-0.0","0","0","tMhNR","People","","20140","{""Q0"":""i like very much look""}","","","","","","","17","47","31","","","","","","","","","","","{""Q0"":""i like very much look""}","","","","","","","","","","","","","","","","","","","","","","","","","","",""
"","fixation","","html-keyboard-response","125","4349891","0.0-74.0-0.0","0","0","tMhNR","People","","null","","","","null","","","","","","","","","","","","","","","","","","","","","","","","","","","","","","","","","","","","","","","","","","","",""
"","deliberation","","html-keyboard-response","126","4351562","0.0-74.0-1.0","0","0","tMhNR","People","","1670","","","","68","","","","18","42","21","0","-1","33","78","prince-akachi-l3IHXOdMyHQ-unsplash.jpg","jessica-felicio-_cvwXhGqG-o-unsplash.jpg","2","1","42","21","","","","","","","","","","","","","","","","","","","","","","","","","","","",""
"","choice_confirmation","","html-keyboard-response","127","4352063","0.0-74.0-2.0-0.0","0","0","tMhNR","People","","null","","","","null","","","","18","42","21","","","","","","","","","","","","","","","","","","","","","","","","","","","","","","","","","","","","","",""
"","fixation","","html-keyboard-response","128","4353071","0.0-75.0-0.0","0","0","tMhNR","People","","null","","","","null","","","","","","","","","","","","","","","","","","","","","","","","","","","","","","","","","","","","","","","","","","","",""
"","deliberation","","html-keyboard-response","129","4355015","0.0-75.0-1.0","0","0","tMhNR","People","","1936","","","","68","","","","19","36","37","0","1","28","24","ospan-ali-mGdA2fzjWLo-unsplash.jpg","pavel-anoshin-d0peGya6R5Y-unsplash.jpg","2","1","36","37","","","","","","","","","","","","","","","","","","","","","","","","","","","",""
"","choice_confirmation","","html-keyboard-response","130","4355524","0.0-75.0-2.0-0.0","0","0","tMhNR","People","","null","","","","null","","","","19","36","37","","","","","","","","","","","","","","","","","","","","","","","","","","","","","","","","","","","","","",""
"","fixation","","html-keyboard-response","131","4356545","0.0-76.0-0.0","0","0","tMhNR","People","","null","","","","null","","","","","","","","","","","","","","","","","","","","","","","","","","","","","","","","","","","","","","","","","","","",""
"","deliberation","","html-keyboard-response","132","4357854","0.0-76.0-1.0","0","0","tMhNR","People","","1304","","","","68","","","","20","19","12","0","1","74","73","ha-nguy-n-OFSQ6bHjFjs-unsplash.jpg","daniel-rigdon-dXmXKPP2L4E-unsplash.jpg","2","1","19","12","","","","","","","","","","","","","","","","","","","","","","","","","","","",""
"","choice_confirmation","","html-keyboard-response","133","4358370","0.0-76.0-2.0-0.0","0","0","tMhNR","People","","null","","","","null","","","","20","19","12","","","","","","","","","","","","","","","","","","","","","","","","","","","","","","","","","","","","","",""
"","fixation","","html-keyboard-response","134","4359391","0.0-77.0-0.0","0","0","tMhNR","People","","null","","","","null","","","","","","","","","","","","","","","","","","","","","","","","","","","","","","","","","","","","","","","","","","","",""
"","deliberation","","html-keyboard-response","135","4360920","0.0-77.0-1.0","0","0","tMhNR","People","","1525","","","","75","","","","21","23","15","0","-1","77","25","joanna-nix-walkup-H4fEMshfwTE-unsplash.jpg","gabriel-silverio-u3WmDyKGsrY-unsplash.jpg","2","0","15","23","","","","","","","","","","","","","","","","","","","","","","","","","","","",""
"","choice_confirmation","","html-keyboard-response","136","4361431","0.0-77.0-2.0-0.0","0","0","tMhNR","People","","null","","","","null","","","","21","23","15","","","","","","","","","","","","","","","","","","","","","","","","","","","","","","","","","","","","","",""
"","fixation","","html-keyboard-response","137","4362431","0.0-78.0-0.0","0","0","tMhNR","People","","null","","","","null","","","","","","","","","","","","","","","","","","","","","","","","","","","","","","","","","","","","","","","","","","","",""
"","deliberation","","html-keyboard-response","138","4363823","0.0-78.0-1.0","0","0","tMhNR","People","","1391","","","","75","","","","22","44","39","0","1","76","31","rikonavt-HQjfrvdTfak-unsplash.jpg","philip-martin-5aGUyCW_PJw-unsplash.jpg","2","0","39","44","","","","","","","","","","","","","","","","","","","","","","","","","","","",""
"","choice_confirmation","","html-keyboard-response","139","4364338","0.0-78.0-2.0-0.0","0","0","tMhNR","People","","null","","","","null","","","","22","44","39","","","","","","","","","","","","","","","","","","","","","","","","","","","","","","","","","","","","","",""
"","fixation","","html-keyboard-response","140","4365353","0.0-79.0-0.0","0","0","tMhNR","People","","null","","","","null","","","","","","","","","","","","","","","","","","","","","","","","","","","","","","","","","","","","","","","","","","","",""
"","deliberation","","html-keyboard-response","141","4366759","0.0-79.0-1.0","0","0","tMhNR","People","","1392","","","","68","","","","23","13","18","0","-1","73","76","erik-lucatero-d2MSDujJl2g-unsplash.jpg","good-faces-xmSWVeGEnJw-unsplash.jpg","2","1","13","18","","","","","","","","","","","","","","","","","","","","","","","","","","","",""
"","choice_confirmation","","html-keyboard-response","142","4367276","0.0-79.0-2.0-0.0","0","0","tMhNR","People","","null","","","","null","","","","23","13","18","","","","","","","","","","","","","","","","","","","","","","","","","","","","","","","","","","","","","",""
"","start_critical_deliberation_block","","html-keyboard-response","143","4368983","0.0-79.0-7.0-0.0","0","0","tMhNR","People","","1702","","","","78","","","","","","","","","","","","","","","","","","","","","","","","","","","","","","","","","","","","","","","","","","","",""
"","fixation","","html-keyboard-response","144","4369994","0.0-80.0-0.0","0","0","tMhNR","People","","null","","","","null","","","","","","","","","","","","","","","","","","","","","","","","","","","","","","","","","","","","","","","","","","","",""
"","deliberation","","html-keyboard-response","145","4371318","0.0-80.0-1.0","0","0","tMhNR","People","","1311","","","","75","","","","24","14","28","0","1","28","63","freddy-kearney-o-ioeoATbIM-unsplash.jpg","justin-chen-J7Cf1Gch49E-unsplash.jpg","3","0","28","14","","","","","","","","","","","","","","","","","","","","","","","","","","","",""
"","choice_confirmation","","html-keyboard-response","146","4371833","0.0-80.0-2.0-0.0","0","0","tMhNR","People","","null","","","","null","","","","24","14","28","","","","","","","","","","","","","","","","","","","","","","","","","","","","","","","","","","","","","",""
"","fixation","","html-keyboard-response","147","4372840","0.0-81.0-0.0","0","0","tMhNR","People","","null","","","","null","","","","","","","","","","","","","","","","","","","","","","","","","","","","","","","","","","","","","","","","","","","",""
"","deliberation","","html-keyboard-response","148","4374089","0.0-81.0-1.0","0","0","tMhNR","People","","1245","","","","68","","","","25","13","18","0","-1","73","76","erik-lucatero-d2MSDujJl2g-unsplash.jpg","good-faces-xmSWVeGEnJw-unsplash.jpg","3","1","13","18","","","","","","","","","","","","","","","","","","","","","","","","","","","",""
"","choice_confirmation","","html-keyboard-response","149","4374592","0.0-81.0-2.0-0.0","0","0","tMhNR","People","","null","","","","null","","","","25","13","18","","","","","","","","","","","","","","","","","","","","","","","","","","","","","","","","","","","","","",""
"","fixation","","html-keyboard-response","150","4375601","0.0-82.0-0.0","0","0","tMhNR","People","","null","","","","null","","","","","","","","","","","","","","","","","","","","","","","","","","","","","","","","","","","","","","","","","","","",""
"","deliberation","","html-keyboard-response","151","4376764","0.0-82.0-1.0","0","0","tMhNR","People","","1156","","","","75","","","","26","35","11","0","1","35","75","oliver-ragfelt-khV4fTy6-D8-unsplash.jpg","christian-ferrer-8vT-DgHZDG4-unsplash.jpg","3","0","11","35","","","","","","","","","","","","","","","","","","","","","","","","","","","",""
"","choice_confirmation","","html-keyboard-response","152","4377275","0.0-82.0-2.0-0.0","0","0","tMhNR","People","","null","","","","null","","","","26","35","11","","","","","","","","","","","","","","","","","","","","","","","","","","","","","","","","","","","","","",""
"","fixation","","html-keyboard-response","153","4378290","0.0-83.0-0.0","0","0","tMhNR","People","","null","","","","null","","","","","","","","","","","","","","","","","","","","","","","","","","","","","","","","","","","","","","","","","","","",""
"","deliberation","","html-keyboard-response","154","4379486","0.0-83.0-1.0","0","0","tMhNR","People","","1195","","","","75","","","","27","23","15","0","-1","77","25","joanna-nix-walkup-H4fEMshfwTE-unsplash.jpg","gabriel-silverio-u3WmDyKGsrY-unsplash.jpg","3","0","15","23","","","","","","","","","","","","","","","","","","","","","","","","","","","",""
"","choice_confirmation","","html-keyboard-response","155","4380006","0.0-83.0-2.0-0.0","0","0","tMhNR","People","","null","","","","null","","","","27","23","15","","","","","","","","","","","","","","","","","","","","","","","","","","","","","","","","","","","","","",""
"","fixation","","html-keyboard-response","156","4381012","0.0-84.0-0.0","0","0","tMhNR","People","","null","","","","null","","","","","","","","","","","","","","","","","","","","","","","","","","","","","","","","","","","","","","","","","","","",""
"","deliberation","","html-keyboard-response","157","4382407","0.0-84.0-1.0","0","0","tMhNR","People","","1392","","","","75","","","","28","16","9","0","-1","23","75","giano-currie-5-9YOsmf8IQ-unsplash.jpg","carlos-andres-gomez-vJuk8Y86mRw-unsplash.jpg","3","0","9","16","","","","","","","","","","","","","","","","","","","","","","","","","","","",""
"","choice_confirmation","","html-keyboard-response","158","4382912","0.0-84.0-2.0-0.0","0","0","tMhNR","People","","null","","","","null","","","","28","16","9","","","","","","","","","","","","","","","","","","","","","","","","","","","","","","","","","","","","","",""
"","fixation","","html-keyboard-response","159","4383919","0.0-85.0-0.0","0","0","tMhNR","People","","null","","","","null","","","","","","","","","","","","","","","","","","","","","","","","","","","","","","","","","","","","","","","","","","","",""
"","deliberation","","html-keyboard-response","160","4385127","0.0-85.0-1.0","0","0","tMhNR","People","","1198","","","","75","","","","29","47","31","0","-1","74","73","tyler-nix-ZGa9d1a_4tA-unsplash.jpg","mathilda-khoo-vLR0YP_otCo-unsplash.jpg","3","0","31","47","","","","","","","","","","","","","","","","","","","","","","","","","","","",""
"","choice_confirmation","","html-keyboard-response","161","4385632","0.0-85.0-2.0-0.0","0","0","tMhNR","People","","null","","","","null","","","","29","47","31","","","","","","","","","","","","","","","","","","","","","","","","","","","","","","","","","","","","","",""
"","fixation","","html-keyboard-response","162","4386640","0.0-86.0-0.0","0","0","tMhNR","People","","null","","","","null","","","","","","","","","","","","","","","","","","","","","","","","","","","","","","","","","","","","","","","","","","","",""
"","deliberation","","html-keyboard-response","163","4387792","0.0-86.0-1.0","0","0","tMhNR","People","","1148","","","","68","","","","30","36","37","0","1","28","24","ospan-ali-mGdA2fzjWLo-unsplash.jpg","pavel-anoshin-d0peGya6R5Y-unsplash.jpg","3","1","36","37","","","","","","","","","","","","","","","","","","","","","","","","","","","",""
"","choice_confirmation","","html-keyboard-response","164","4388297","0.0-86.0-2.0-0.0","0","0","tMhNR","People","","null","","","","null","","","","30","36","37","","","","","","","","","","","","","","","","","","","","","","","","","","","","","","","","","","","","","",""
"","fixation","","html-keyboard-response","165","4389312","0.0-87.0-0.0","0","0","tMhNR","People","","null","","","","null","","","","","","","","","","","","","","","","","","","","","","","","","","","","","","","","","","","","","","","","","","","",""
"","deliberation","","html-keyboard-response","166","4390495","0.0-87.0-1.0","0","0","tMhNR","People","","1181","","","","68","","","","31","19","12","0","1","74","73","ha-nguy-n-OFSQ6bHjFjs-unsplash.jpg","daniel-rigdon-dXmXKPP2L4E-unsplash.jpg","3","1","19","12","","","","","","","","","","","","","","","","","","","","","","","","","","","",""
"","choice_confirmation","","html-keyboard-response","167","4391040","0.0-87.0-2.0-0.0","0","0","tMhNR","People","","null","","","","null","","","","31","19","12","","","","","","","","","","","","","","","","","","","","","","","","","","","","","","","","","","","","","",""
"","fixation","","html-keyboard-response","168","4392058","0.0-88.0-0.0","0","0","tMhNR","People","","null","","","","null","","","","","","","","","","","","","","","","","","","","","","","","","","","","","","","","","","","","","","","","","","","",""
"","deliberation","","html-keyboard-response","169","4393271","0.0-88.0-1.0","0","0","tMhNR","People","","1199","","","","68","","","","32","42","21","0","-1","33","78","prince-akachi-l3IHXOdMyHQ-unsplash.jpg","jessica-felicio-_cvwXhGqG-o-unsplash.jpg","3","1","42","21","","","","","","","","","","","","","","","","","","","","","","","","","","","",""
"","choice_confirmation","","html-keyboard-response","170","4393779","0.0-88.0-2.0-0.0","0","0","tMhNR","People","","null","","","","null","","","","32","42","21","","","","","","","","","","","","","","","","","","","","","","","","","","","","","","","","","","","","","",""
"","fixation","","html-keyboard-response","171","4394797","0.0-89.0-0.0","0","0","tMhNR","People","","null","","","","null","","","","","","","","","","","","","","","","","","","","","","","","","","","","","","","","","","","","","","","","","","","",""
"","deliberation","","html-keyboard-response","172","4395703","0.0-89.0-1.0","0","0","tMhNR","People","","898","","","","75","","","","33","44","39","0","1","76","31","rikonavt-HQjfrvdTfak-unsplash.jpg","philip-martin-5aGUyCW_PJw-unsplash.jpg","3","0","39","44","","","","","","","","","","","","","","","","","","","","","","","","","","","",""
"","choice_confirmation","","html-keyboard-response","173","4396213","0.0-89.0-2.0-0.0","0","0","tMhNR","People","","null","","","","null","","","","33","44","39","","","","","","","","","","","","","","","","","","","","","","","","","","","","","","","","","","","","","",""
"","fixation","","html-keyboard-response","174","4397230","0.0-90.0-0.0","0","0","tMhNR","People","","null","","","","null","","","","","","","","","","","","","","","","","","","","","","","","","","","","","","","","","","","","","","","","","","","",""
"","deliberation","","html-keyboard-response","175","4398543","0.0-90.0-1.0","0","0","tMhNR","People","","1310","","","","75","","","","34","4","45","0","1","72","75","barna-bartis-2x3vfVxwR7o-unsplash.jpg","sarah-noltner-pL5ZzPp1zqg-unsplash.jpg","3","0","45","4","","","","","","","","","","","","","","","","","","","","","","","","","","","",""
"","choice_confirmation","","html-keyboard-response","176","4399058","0.0-90.0-2.0-0.0","0","0","tMhNR","People","","null","","","","null","","","","34","4","45","","","","","","","","","","","","","","","","","","","","","","","","","","","","","","","","","","","","","",""
"","fixation","","html-keyboard-response","177","4400071","0.0-91.0-0.0","0","0","tMhNR","People","","null","","","","null","","","","","","","","","","","","","","","","","","","","","","","","","","","","","","","","","","","","","","","","","","","",""
"","deliberation","","html-keyboard-response","178","4401713","0.0-91.0-1.0","0","0","tMhNR","People","","1640","","","","68","","","","35","48","20","0","-1","78","22","velizar-ivanov-7ktP9yZA1g4-unsplash.jpg","houcine-ncib-B4TjXnI0Y2c-unsplash.jpg","3","1","48","20","","","","","","","","","","","","","","","","","","","","","","","","","","","",""
"","choice_confirmation","","html-keyboard-response","179","4402243","0.0-91.0-2.0-0.0","0","0","tMhNR","People","","null","","","","null","","","","35","48","20","","","","","","","","","","","","","","","","","","","","","","","","","","","","","","","","","","","","","",""
"","reward_learning_instructions","","instructions","180","4548194","0.0-92.0-0.0","0","0","tMhNR","People","[{""page_index"":0,""viewing_time"":136783},{""page_index"":1,""viewing_time"":8206},{""page_index"":2,""viewing_time"":960}]","145949","","","","","","","","","","","","","","","","","","","","","","","","","","","","","","","","","","","","","","","","","","","","","","","",""
"","","","survey-multi-choice","181","4553362","0.0-92.0-1.0","0","0","tMhNR","People","","5165","{""Q0"":""True"",""Q1"":""True"",""Q2"":""Press the space bar to see its outcome"",""Q3"":""Press the relevant key while the outcome is presented""}","reward_comprehension_check","0","","","","","","","","","","","","","","","","","","","","","","","","","","","","","","","","","","","","","","","","","","","","",""
"","start_phase","","html-keyboard-response","182","4556224","0.0-93.0","0","0","tMhNR","People","","2861","","","","78","","","","","","","","","","","","","","","","","","","","","","","","","","","","","","","","","","","","","","","","","","","",""
"","fixation","","html-keyboard-response","183","4557231","0.0-94.0","0","0","tMhNR","People","","null","","","","null","","","","","","","","","","","","","","","","","","","","","","","","","","","","","","","","","","","","","","","","","","","",""
"","see_reward","","html-keyboard-response","184","4559808","0.0-95.0","0","0","tMhNR","People","","2576","","","","32","","28","","0","","","","1","","","","","1","","","","","156","2576","","","","","","","","","","","","","","","","","","","","","","","","",""
"","reward_outcome","","html-keyboard-response","185","4561816","0.0-96.0","0","0","tMhNR","People","","1871","","","","40","","28","","0","","","","","","","","","","","","","","","","-1","1871","","","","","","","","","","","","","","","","","","","","","","",""
"","fixation","","html-keyboard-response","186","4562850","0.0-99.0","0","0","tMhNR","People","","null","","","","null","","","","","","","","","","","","","","","","","","","","","","","","","","","","","","","","","","","","","","","","","","","",""
"","see_reward","","html-keyboard-response","187","4563986","0.0-100.0","0","0","tMhNR","People","","1135","","","","32","","15","","1","","","","-1","","","","","1","","","","","0","1135","","","","","","","","","","","","","","","","","","","","","","","","",""
"","reward_outcome","","html-keyboard-response","188","4565993","0.0-101.0","0","0","tMhNR","People","","1614","","","","38","","15","","1","","","","","","","","","","","","","","","","1","1614","","","","","","","","","","","","","","","","","","","","","","",""
"","fixation","","html-keyboard-response","189","4567009","0.0-104.0","0","0","tMhNR","People","","null","","","","null","","","","","","","","","","","","","","","","","","","","","","","","","","","","","","","","","","","","","","","","","","","",""
"","see_reward","","html-keyboard-response","190","4568185","0.0-105.0","0","0","tMhNR","People","","1171","","","","32","","31","","2","","","","-1","","","","","1","","","","","0","1171","","","","","","","","","","","","","","","","","","","","","","","","",""
"","reward_outcome","","html-keyboard-response","191","4570193","0.0-106.0","0","0","tMhNR","People","","1761","","","","38","","31","","2","","","","","","","","","","","","","","","","1","1761","","","","","","","","","","","","","","","","","","","","","","",""
"","fixation","","html-keyboard-response","192","4571212","0.0-109.0","0","0","tMhNR","People","","null","","","","null","","","","","","","","","","","","","","","","","","","","","","","","","","","","","","","","","","","","","","","","","","","",""
"","see_reward","","html-keyboard-response","193","4572177","0.0-110.0","0","0","tMhNR","People","","954","","","","32","","39","","3","","","","1","","","","","1","","","","","157","954","","","","","","","","","","","","","","","","","","","","","","","","",""
"","reward_outcome","","html-keyboard-response","194","4574198","0.0-111.0","0","0","tMhNR","People","","1167","","","","38","","39","","3","","","","","","","","","","","","","","","","1","1167","","","","","","","","","","","","","","","","","","","","","","",""
"","fixation","","html-keyboard-response","195","4575213","0.0-114.0","0","0","tMhNR","People","","null","","","","null","","","","","","","","","","","","","","","","","","","","","","","","","","","","","","","","","","","","","","","","","","","",""
"","see_reward","","html-keyboard-response","196","4576017","0.0-115.0","0","0","tMhNR","People","","801","","","","32","","15","","4","","","","-1","","","","","1","","","","","0","801","","","","","","","","","","","","","","","","","","","","","","","","",""
"","reward_outcome","","html-keyboard-response","197","4578040","0.0-116.0","0","0","tMhNR","People","","1288","","","","40","","15","","4","","","","","","","","","","","","","","","","-1","1288","","","","","","","","","","","","","","","","","","","","","","",""
"","fixation","","html-keyboard-response","198","4579047","0.0-119.0","0","0","tMhNR","People","","null","","","","null","","","","","","","","","","","","","","","","","","","","","","","","","","","","","","","","","","","","","","","","","","","",""
"","see_reward","","html-keyboard-response","199","4580590","0.0-120.0","0","0","tMhNR","People","","1541","","","","32","","45","","5","","","","1","","","","","1","","","","","154","1541","","","","","","","","","","","","","","","","","","","","","","","","",""
"","reward_outcome","","html-keyboard-response","200","4582603","0.0-121.0","0","0","tMhNR","People","","1315","","","","38","","45","","5","","","","","","","","","","","","","","","","1","1315","","","","","","","","","","","","","","","","","","","","","","",""
"","fixation","","html-keyboard-response","201","4583620","0.0-124.0","0","0","tMhNR","People","","null","","","","null","","","","","","","","","","","","","","","","","","","","","","","","","","","","","","","","","","","","","","","","","","","",""
"","see_reward","","html-keyboard-response","202","4584321","0.0-125.0","0","0","tMhNR","People","","693","","","","32","","19","","6","","","","1","","","","","1","","","","","151","693","","","","","","","","","","","","","","","","","","","","","","","","",""
"","reward_outcome","","html-keyboard-response","203","4586336","0.0-126.0","0","0","tMhNR","People","","1156","","","","38","","19","","6","","","","","","","","","","","","","","","","1","1156","","","","","","","","","","","","","","","","","","","","","","",""
"","fixation","","html-keyboard-response","204","4587358","0.0-129.0","0","0","tMhNR","People","","null","","","","null","","","","","","","","","","","","","","","","","","","","","","","","","","","","","","","","","","","","","","","","","","","",""
"","see_reward","","html-keyboard-response","205","4588169","0.0-130.0","0","0","tMhNR","People","","807","","","","32","","48","","7","","","","-1","","","","","1","","","","","0","807","","","","","","","","","","","","","","","","","","","","","","","","",""
"","reward_outcome","","html-keyboard-response","206","4590181","0.0-131.0","0","0","tMhNR","People","","1229","","","","40","","48","","7","","","","","","","","","","","","","","","","-1","1229","","","","","","","","","","","","","","","","","","","","","","",""
"","fixation","","html-keyboard-response","207","4591197","0.0-134.0","0","0","tMhNR","People","","null","","","","null","","","","","","","","","","","","","","","","","","","","","","","","","","","","","","","","","","","","","","","","","","","",""
"","see_reward","","html-keyboard-response","208","4591745","0.0-135.0","0","0","tMhNR","People","","546","","","","32","","11","","8","","","","1","","","","","1","","","","","150","546","","","","","","","","","","","","","","","","","","","","","","","","",""
"","reward_outcome","","html-keyboard-response","209","4593754","0.0-136.0","0","0","tMhNR","People","","1085","","","","38","","11","","8","","","","","","","","","","","","","","","","1","1085","","","","","","","","","","","","","","","","","","","","","","",""
"","fixation","","html-keyboard-response","210","4594775","0.0-139.0","0","0","tMhNR","People","","null","","","","null","","","","","","","","","","","","","","","","","","","","","","","","","","","","","","","","","","","","","","","","","","","",""
"","see_reward","","html-keyboard-response","211","4595657","0.0-140.0","0","0","tMhNR","People","","876","","","","32","","11","","9","","","","1","","","","","1","","","","","150","876","","","","","","","","","","","","","","","","","","","","","","","","",""
"","reward_outcome","","html-keyboard-response","212","4597678","0.0-141.0","0","0","tMhNR","People","","1444","","","","38","","11","","9","","","","","","","","","","","","","","","","1","1444","","","","","","","","","","","","","","","","","","","","","","",""
"","fixation","","html-keyboard-response","213","4598680","0.0-144.0","0","0","tMhNR","People","","null","","","","null","","","","","","","","","","","","","","","","","","","","","","","","","","","","","","","","","","","","","","","","","","","",""
"","see_reward","","html-keyboard-response","214","4599705","0.0-145.0","0","0","tMhNR","People","","1015","","","","32","","13","","10","","","","-1","","","","","1","","","","","0","1015","","","","","","","","","","","","","","","","","","","","","","","","",""
"","reward_outcome","","html-keyboard-response","215","4601714","0.0-146.0","0","0","tMhNR","People","","1214","","","","40","","13","","10","","","","","","","","","","","","","","","","-1","1214","","","","","","","","","","","","","","","","","","","","","","",""
"","fixation","","html-keyboard-response","216","4602728","0.0-149.0","0","0","tMhNR","People","","null","","","","null","","","","","","","","","","","","","","","","","","","","","","","","","","","","","","","","","","","","","","","","","","","",""
"","see_reward","","html-keyboard-response","217","4603458","0.0-150.0","0","0","tMhNR","People","","717","","","","32","","28","","11","","","","1","","","","","1","","","","","156","717","","","","","","","","","","","","","","","","","","","","","","","","",""
"","reward_outcome","","html-keyboard-response","218","4605463","0.0-151.0","0","0","tMhNR","People","","1237","","","","38","","28","","11","","","","","","","","","","","","","","","","1","1237","","","","","","","","","","","","","","","","","","","","","","",""
"","fixation","","html-keyboard-response","219","4606478","0.0-154.0","0","0","tMhNR","People","","null","","","","null","","","","","","","","","","","","","","","","","","","","","","","","","","","","","","","","","","","","","","","","","","","",""
"","see_reward","","html-keyboard-response","220","4607220","0.0-155.0","0","0","tMhNR","People","","733","","","","32","","9","","12","","","","-1","","","","","1","","","","","0","733","","","","","","","","","","","","","","","","","","","","","","","","",""
"","reward_outcome","","html-keyboard-response","221","4609227","0.0-156.0","0","0","tMhNR","People","","1349","","","","40","","9","","12","","","","","","","","","","","","","","","","-1","1349","","","","","","","","","","","","","","","","","","","","","","",""
"","fixation","","html-keyboard-response","222","4610243","0.0-159.0","0","0","tMhNR","People","","null","","","","null","","","","","","","","","","","","","","","","","","","","","","","","","","","","","","","","","","","","","","","","","","","",""
"","see_reward","","html-keyboard-response","223","4611978","0.0-160.0","0","0","tMhNR","People","","1733","","","","32","","19","","13","","","","1","","","","","1","","","","","151","1733","","","","","","","","","","","","","","","","","","","","","","","","",""
"","reward_outcome","","html-keyboard-response","224","4613994","0.0-161.0","0","0","tMhNR","People","","1139","","","","38","","19","","13","","","","","","","","","","","","","","","","1","1139","","","","","","","","","","","","","","","","","","","","","","",""
"","fixation","","html-keyboard-response","225","4615010","0.0-164.0","0","0","tMhNR","People","","null","","","","null","","","","","","","","","","","","","","","","","","","","","","","","","","","","","","","","","","","","","","","","","","","",""
"","see_reward","","html-keyboard-response","226","4615753","0.0-165.0","0","0","tMhNR","People","","733","","","","32","","48","","14","","","","-1","","","","","1","","","","","0","733","","","","","","","","","","","","","","","","","","","","","","","","",""
"","reward_outcome","","html-keyboard-response","227","4617761","0.0-166.0","0","0","tMhNR","People","","1053","","","","40","","48","","14","","","","","","","","","","","","","","","","-1","1053","","","","","","","","","","","","","","","","","","","","","","",""
"","fixation","","html-keyboard-response","228","4618776","0.0-169.0","0","0","tMhNR","People","","null","","","","null","","","","","","","","","","","","","","","","","","","","","","","","","","","","","","","","","","","","","","","","","","","",""
"","see_reward","","html-keyboard-response","229","4619338","0.0-170.0","0","0","tMhNR","People","","561","","","","32","","31","","15","","","","-1","","","","","1","","","","","0","561","","","","","","","","","","","","","","","","","","","","","","","","",""
"","reward_outcome","","html-keyboard-response","230","4621353","0.0-171.0","0","0","tMhNR","People","","1122","","","","40","","31","","15","","","","","","","","","","","","","","","","-1","1122","","","","","","","","","","","","","","","","","","","","","","",""
"","fixation","","html-keyboard-response","231","4622368","0.0-174.0","0","0","tMhNR","People","","null","","","","null","","","","","","","","","","","","","","","","","","","","","","","","","","","","","","","","","","","","","","","","","","","",""
"","see_reward","","html-keyboard-response","232","4624098","0.0-175.0","0","0","tMhNR","People","","1728","","","","32","","42","","16","","","","-1","","","","","1","","","","","0","1728","","","","","","","","","","","","","","","","","","","","","","","","",""
"","reward_outcome","","html-keyboard-response","233","4626104","0.0-176.0","0","0","tMhNR","People","","1251","","","","40","","42","","16","","","","","","","","","","","","","","","","-1","1251","","","","","","","","","","","","","","","","","","","","","","",""
"","fixation","","html-keyboard-response","234","4627119","0.0-179.0","0","0","tMhNR","People","","null","","","","null","","","","","","","","","","","","","","","","","","","","","","","","","","","","","","","","","","","","","","","","","","","",""
"","see_reward","","html-keyboard-response","235","4627850","0.0-180.0","0","0","tMhNR","People","","720","","","","32","","36","","17","","","","1","","","","","1","","","","","148","720","","","","","","","","","","","","","","","","","","","","","","","","",""
"","reward_outcome","","html-keyboard-response","236","4629868","0.0-181.0","0","0","tMhNR","People","","797","","","","38","","36","","17","","","","","","","","","","","","","","","","1","797","","","","","","","","","","","","","","","","","","","","","","",""
"","fixation","","html-keyboard-response","237","4630884","0.0-184.0","0","0","tMhNR","People","","null","","","","null","","","","","","","","","","","","","","","","","","","","","","","","","","","","","","","","","","","","","","","","","","","",""
"","see_reward","","html-keyboard-response","238","4631585","0.0-185.0","0","0","tMhNR","People","","686","","","","32","","42","","18","","","","-1","","","","","1","","","","","0","686","","","","","","","","","","","","","","","","","","","","","","","","",""
"","reward_outcome","","html-keyboard-response","239","4633605","0.0-186.0","0","0","tMhNR","People","","1080","","","","40","","42","","18","","","","","","","","","","","","","","","","-1","1080","","","","","","","","","","","","","","","","","","","","","","",""
"","fixation","","html-keyboard-response","240","4634619","0.0-189.0","0","0","tMhNR","People","","null","","","","null","","","","","","","","","","","","","","","","","","","","","","","","","","","","","","","","","","","","","","","","","","","",""
"","see_reward","","html-keyboard-response","241","4635609","0.0-190.0","0","0","tMhNR","People","","982","","","","32","","39","","19","","","","1","","","","","1","","","","","157","982","","","","","","","","","","","","","","","","","","","","","","","","",""
"","reward_outcome","","html-keyboard-response","242","4637620","0.0-191.0","0","0","tMhNR","People","","1132","","","","38","","39","","19","","","","","","","","","","","","","","","","1","1132","","","","","","","","","","","","","","","","","","","","","","",""
"","fixation","","html-keyboard-response","243","4638633","0.0-194.0","0","0","tMhNR","People","","null","","","","null","","","","","","","","","","","","","","","","","","","","","","","","","","","","","","","","","","","","","","","","","","","",""
"","see_reward","","html-keyboard-response","244","4639234","0.0-195.0","0","0","tMhNR","People","","593","","","","32","","13","","20","","","","-1","","","","","1","","","","","0","593","","","","","","","","","","","","","","","","","","","","","","","","",""
"","reward_outcome","","html-keyboard-response","245","4641239","0.0-196.0","0","0","tMhNR","People","","1118","","","","40","","13","","20","","","","","","","","","","","","","","","","-1","1118","","","","","","","","","","","","","","","","","","","","","","",""
"","fixation","","html-keyboard-response","246","4642247","0.0-199.0","0","0","tMhNR","People","","null","","","","null","","","","","","","","","","","","","","","","","","","","","","","","","","","","","","","","","","","","","","","","","","","",""
"","see_reward","","html-keyboard-response","247","4645108","0.0-200.0","0","0","tMhNR","People","","2854","","","","32","","45","","21","","","","1","","","","","1","","","","","154","2854","","","","","","","","","","","","","","","","","","","","","","","","",""
"","reward_outcome","","html-keyboard-response","248","4647119","0.0-201.0","0","0","tMhNR","People","","1039","","","","38","","45","","21","","","","","","","","","","","","","","","","1","1039","","","","","","","","","","","","","","","","","","","","","","",""
"","fixation","","html-keyboard-response","249","4648128","0.0-204.0","0","0","tMhNR","People","","null","","","","null","","","","","","","","","","","","","","","","","","","","","","","","","","","","","","","","","","","","","","","","","","","",""
"","see_reward","","html-keyboard-response","250","4649889","0.0-205.0","0","0","tMhNR","People","","1748","","","","32","","9","","22","","","","-1","","","","","1","","","","","0","1748","","","","","","","","","","","","","","","","","","","","","","","","",""
"","reward_outcome","","html-keyboard-response","251","4651897","0.0-206.0","0","0","tMhNR","People","","1043","","","","40","","9","","22","","","","","","","","","","","","","","","","-1","1043","","","","","","","","","","","","","","","","","","","","","","",""
"","fixation","","html-keyboard-response","252","4652934","0.0-209.0","0","0","tMhNR","People","","null","","","","null","","","","","","","","","","","","","","","","","","","","","","","","","","","","","","","","","","","","","","","","","","","",""
"","see_reward","","html-keyboard-response","253","4653938","0.0-210.0","0","0","tMhNR","People","","1002","","","","32","","36","","23","","","","1","","","","","1","","","","","148","1002","","","","","","","","","","","","","","","","","","","","","","","","",""
"","reward_outcome","","html-keyboard-response","254","4655951","0.0-211.0","0","0","tMhNR","People","","1166","","","","38","","36","","23","","","","","","","","","","","","","","","","1","1166","","","","","","","","","","","","","","","","","","","","","","",""
"","block_over","","html-keyboard-response","255","4658010","0.0-213.0-0.0","0","0","tMhNR","People","","2057","","","","78","","","","","","","","","","","","","","","","","","","","","","","","","","","","","","","","","","","","","","","","","","","",""
"","fixation","","html-keyboard-response","256","4659015","0.0-214.0","0","0","tMhNR","People","","null","","","","null","","","","","","","","","","","","","","","","","","","","","","","","","","","","","","","","","","","","","","","","","","","",""
"","see_reward","","html-keyboard-response","257","4659684","0.0-215.0","0","0","tMhNR","People","","664","","","","32","","39","","24","","","","1","","","","","2","","","","","157","664","","","","","","","","","","","","","","","","","","","","","","","","",""
"","reward_outcome","","html-keyboard-response","258","4661696","0.0-216.0","0","0","tMhNR","People","","1135","","","","38","","39","","24","","","","","","","","","","","","","","","","1","1135","","","","","","","","","","","","","","","","","","","","","","",""
"","fixation","","html-keyboard-response","259","4662703","0.0-219.0","0","0","tMhNR","People","","null","","","","null","","","","","","","","","","","","","","","","","","","","","","","","","","","","","","","","","","","","","","","","","","","",""
"","see_reward","","html-keyboard-response","260","4663369","0.0-220.0","0","0","tMhNR","People","","664","","","","32","","9","","25","","","","-1","","","","","2","","","","","0","664","","","","","","","","","","","","","","","","","","","","","","","","",""
"","reward_outcome","","html-keyboard-response","261","4665385","0.0-221.0","0","0","tMhNR","People","","999","","","","40","","9","","25","","","","","","","","","","","","","","","","-1","999","","","","","","","","","","","","","","","","","","","","","","",""
"","fixation","","html-keyboard-response","262","4666401","0.0-224.0","0","0","tMhNR","People","","null","","","","null","","","","","","","","","","","","","","","","","","","","","","","","","","","","","","","","","","","","","","","","","","","",""
"","see_reward","","html-keyboard-response","263","4667218","0.0-225.0","0","0","tMhNR","People","","809","","","","32","","48","","26","","","","-1","","","","","2","","","","","0","809","","","","","","","","","","","","","","","","","","","","","","","","",""
"","reward_outcome","","html-keyboard-response","264","4669226","0.0-226.0","0","0","tMhNR","People","","990","","","","40","","48","","26","","","","","","","","","","","","","","","","-1","990","","","","","","","","","","","","","","","","","","","","","","",""
"","fixation","","html-keyboard-response","265","4670250","0.0-229.0","0","0","tMhNR","People","","null","","","","null","","","","","","","","","","","","","","","","","","","","","","","","","","","","","","","","","","","","","","","","","","","",""
"","see_reward","","html-keyboard-response","266","4670984","0.0-230.0","0","0","tMhNR","People","","732","","","","32","","13","","27","","","","-1","","","","","2","","","","","0","732","","","","","","","","","","","","","","","","","","","","","","","","",""
"","reward_outcome","","html-keyboard-response","267","4672994","0.0-231.0","0","0","tMhNR","People","","921","","","","40","","13","","27","","","","","","","","","","","","","","","","-1","921","","","","","","","","","","","","","","","","","","","","","","",""
"","fixation","","html-keyboard-response","268","4674022","0.0-234.0","0","0","tMhNR","People","","null","","","","null","","","","","","","","","","","","","","","","","","","","","","","","","","","","","","","","","","","","","","","","","","","",""
"","see_reward","","html-keyboard-response","269","4674706","0.0-235.0","0","0","tMhNR","People","","673","","","","32","","15","","28","","","","-1","","","","","2","","","","","0","673","","","","","","","","","","","","","","","","","","","","","","","","",""
"","reward_outcome","","html-keyboard-response","270","4676713","0.0-236.0","0","0","tMhNR","People","","1036","","","","40","","15","","28","","","","","","","","","","","","","","","","-1","1036","","","","","","","","","","","","","","","","","","","","","","",""
"","fixation","","html-keyboard-response","271","4677727","0.0-239.0","0","0","tMhNR","People","","null","","","","null","","","","","","","","","","","","","","","","","","","","","","","","","","","","","","","","","","","","","","","","","","","",""
"","see_reward","","html-keyboard-response","272","4678362","0.0-240.0","0","0","tMhNR","People","","626","","","","32","","36","","29","","","","1","","","","","2","","","","","148","626","","","","","","","","","","","","","","","","","","","","","","","","",""
"","reward_outcome","","html-keyboard-response","273","4680369","0.0-241.0","0","0","tMhNR","People","","1087","","","","38","","36","","29","","","","","","","","","","","","","","","","1","1087","","","","","","","","","","","","","","","","","","","","","","",""
"","fixation","","html-keyboard-response","274","4681383","0.0-244.0","0","0","tMhNR","People","","null","","","","null","","","","","","","","","","","","","","","","","","","","","","","","","","","","","","","","","","","","","","","","","","","",""
"","see_reward","","html-keyboard-response","275","4681993","0.0-245.0","0","0","tMhNR","People","","598","","","","32","","42","","30","","","","-1","","","","","2","","","","","0","598","","","","","","","","","","","","","","","","","","","","","","","","",""
"","reward_outcome","","html-keyboard-response","276","4684008","0.0-246.0","0","0","tMhNR","People","","1021","","","","40","","42","","30","","","","","","","","","","","","","","","","-1","1021","","","","","","","","","","","","","","","","","","","","","","",""
"","fixation","","html-keyboard-response","277","4685010","0.0-249.0","0","0","tMhNR","People","","null","","","","null","","","","","","","","","","","","","","","","","","","","","","","","","","","","","","","","","","","","","","","","","","","",""
"","see_reward","","html-keyboard-response","278","4685675","0.0-250.0","0","0","tMhNR","People","","655","","","","32","","45","","31","","","","1","","","","","2","","","","","154","655","","","","","","","","","","","","","","","","","","","","","","","","",""
"","reward_outcome","","html-keyboard-response","279","4687680","0.0-251.0","0","0","tMhNR","People","","1182","","","","38","","45","","31","","","","","","","","","","","","","","","","1","1182","","","","","","","","","","","","","","","","","","","","","","",""
"","fixation","","html-keyboard-response","280","4688693","0.0-254.0","0","0","tMhNR","People","","null","","","","null","","","","","","","","","","","","","","","","","","","","","","","","","","","","","","","","","","","","","","","","","","","",""
"","see_reward","","html-keyboard-response","281","4689394","0.0-255.0","0","0","tMhNR","People","","690","","","","32","","42","","32","","","","-1","","","","","2","","","","","0","690","","","","","","","","","","","","","","","","","","","","","","","","",""
"","reward_outcome","","html-keyboard-response","282","4691401","0.0-256.0","0","0","tMhNR","People","","1191","","","","40","","42","","32","","","","","","","","","","","","","","","","-1","1191","","","","","","","","","","","","","","","","","","","","","","",""
"","fixation","","html-keyboard-response","283","4692415","0.0-259.0","0","0","tMhNR","People","","null","","","","null","","","","","","","","","","","","","","","","","","","","","","","","","","","","","","","","","","","","","","","","","","","",""
"","see_reward","","html-keyboard-response","284","4693112","0.0-260.0","0","0","tMhNR","People","","697","","","","32","","31","","33","","","","-1","","","","","2","","","","","0","697","","","","","","","","","","","","","","","","","","","","","","","","",""
"","reward_outcome","","html-keyboard-response","285","4695129","0.0-261.0","0","0","tMhNR","People","","1032","","","","40","","31","","33","","","","","","","","","","","","","","","","-1","1032","","","","","","","","","","","","","","","","","","","","","","",""
"","fixation","","html-keyboard-response","286","4696149","0.0-264.0","0","0","tMhNR","People","","null","","","","null","","","","","","","","","","","","","","","","","","","","","","","","","","","","","","","","","","","","","","","","","","","",""
"","see_reward","","html-keyboard-response","287","4696874","0.0-265.0","0","0","tMhNR","People","","724","","","","32","","9","","34","","","","-1","","","","","2","","","","","0","724","","","","","","","","","","","","","","","","","","","","","","","","",""
"","reward_outcome","","html-keyboard-response","288","4698880","0.0-266.0","0","0","tMhNR","People","","1071","","","","40","","9","","34","","","","","","","","","","","","","","","","-1","1071","","","","","","","","","","","","","","","","","","","","","","",""
"","fixation","","html-keyboard-response","289","4699900","0.0-269.0","0","0","tMhNR","People","","null","","","","null","","","","","","","","","","","","","","","","","","","","","","","","","","","","","","","","","","","","","","","","","","","",""
"","see_reward","","html-keyboard-response","290","4700490","0.0-270.0","0","0","tMhNR","People","","575","","","","32","","11","","35","","","","1","","","","","2","","","","","150","575","","","","","","","","","","","","","","","","","","","","","","","","",""
"","reward_outcome","","html-keyboard-response","291","4702496","0.0-271.0","0","0","tMhNR","People","","1189","","","","38","","11","","35","","","","","","","","","","","","","","","","1","1189","","","","","","","","","","","","","","","","","","","","","","",""
"","fixation","","html-keyboard-response","292","4703509","0.0-274.0","0","0","tMhNR","People","","null","","","","null","","","","","","","","","","","","","","","","","","","","","","","","","","","","","","","","","","","","","","","","","","","",""
"","see_reward","","html-keyboard-response","293","4704170","0.0-275.0","0","0","tMhNR","People","","656","","","","32","","28","","36","","","","1","","","","","2","","","","","156","656","","","","","","","","","","","","","","","","","","","","","","","","",""
"","reward_outcome","","html-keyboard-response","294","4706183","0.0-276.0","0","0","tMhNR","People","","1071","","","","38","","28","","36","","","","","","","","","","","","","","","","1","1071","","","","","","","","","","","","","","","","","","","","","","",""
"","fixation","","html-keyboard-response","295","4707197","0.0-279.0","0","0","tMhNR","People","","null","","","","null","","","","","","","","","","","","","","","","","","","","","","","","","","","","","","","","","","","","","","","","","","","",""
"","see_reward","","html-keyboard-response","296","4707898","0.0-280.0","0","0","tMhNR","People","","691","","","","32","","19","","37","","","","1","","","","","2","","","","","151","691","","","","","","","","","","","","","","","","","","","","","","","","",""
"","reward_outcome","","html-keyboard-response","297","4709904","0.0-281.0","0","0","tMhNR","People","","1022","","","","38","","19","","37","","","","","","","","","","","","","","","","1","1022","","","","","","","","","","","","","","","","","","","","","","",""
"","fixation","","html-keyboard-response","298","4710919","0.0-284.0","0","0","tMhNR","People","","null","","","","null","","","","","","","","","","","","","","","","","","","","","","","","","","","","","","","","","","","","","","","","","","","",""
"","see_reward","","html-keyboard-response","299","4711498","0.0-285.0","0","0","tMhNR","People","","577","","","","32","","48","","38","","","","-1","","","","","2","","","","","0","577","","","","","","","","","","","","","","","","","","","","","","","","",""
"","reward_outcome","","html-keyboard-response","300","4713510","0.0-286.0","0","0","tMhNR","People","","900","","","","40","","48","","38","","","","","","","","","","","","","","","","-1","900","","","","","","","","","","","","","","","","","","","","","","",""
"","fixation","","html-keyboard-response","301","4714513","0.0-289.0","0","0","tMhNR","People","","null","","","","null","","","","","","","","","","","","","","","","","","","","","","","","","","","","","","","","","","","","","","","","","","","",""
"","see_reward","","html-keyboard-response","302","4715386","0.0-290.0","0","0","tMhNR","People","","857","","","","32","","36","","39","","","","1","","","","","2","","","","","148","857","","","","","","","","","","","","","","","","","","","","","","","","",""
"","reward_outcome","","html-keyboard-response","303","4717403","0.0-291.0","0","0","tMhNR","People","","334","","","","38","","36","","39","","","","","","","","","","","","","","","","1","334","","","","","","","","","","","","","","","","","","","","","","",""
"","fixation","","html-keyboard-response","304","4718429","0.0-294.0","0","0","tMhNR","People","","null","","","","null","","","","","","","","","","","","","","","","","","","","","","","","","","","","","","","","","","","","","","","","","","","",""
"","see_reward","","html-keyboard-response","305","4719298","0.0-295.0","0","0","tMhNR","People","","861","","","","32","","13","","40","","","","-1","","","","","2","","","","","0","861","","","","","","","","","","","","","","","","","","","","","","","","",""
"","reward_outcome","","html-keyboard-response","306","4721324","0.0-296.0","0","0","tMhNR","People","","698","","","","40","","13","","40","","","","","","","","","","","","","","","","-1","698","","","","","","","","","","","","","","","","","","","","","","",""
"","fixation","","html-keyboard-response","307","4722337","0.0-299.0","0","0","tMhNR","People","","null","","","","null","","","","","","","","","","","","","","","","","","","","","","","","","","","","","","","","","","","","","","","","","","","",""
"","see_reward","","html-keyboard-response","308","4723177","0.0-300.0","0","0","tMhNR","People","","839","","","","32","","31","","41","","","","-1","","","","","2","","","","","0","839","","","","","","","","","","","","","","","","","","","","","","","","",""
"","reward_outcome","","html-keyboard-response","309","4725184","0.0-301.0","0","0","tMhNR","People","","1423","","","","40","","31","","41","","","","","","","","","","","","","","","","-1","1423","","","","","","","","","","","","","","","","","","","","","","",""
"","fixation","","html-keyboard-response","310","4726203","0.0-304.0","0","0","tMhNR","People","","null","","","","null","","","","","","","","","","","","","","","","","","","","","","","","","","","","","","","","","","","","","","","","","","","",""
"","see_reward","","html-keyboard-response","311","4726932","0.0-305.0","0","0","tMhNR","People","","727","","","","32","","28","","42","","","","1","","","","","2","","","","","156","727","","","","","","","","","","","","","","","","","","","","","","","","",""
"","reward_outcome","","html-keyboard-response","312","4728936","0.0-306.0","0","0","tMhNR","People","","976","","","","38","","28","","42","","","","","","","","","","","","","","","","1","976","","","","","","","","","","","","","","","","","","","","","","",""
"","fixation","","html-keyboard-response","313","4729946","0.0-309.0","0","0","tMhNR","People","","null","","","","null","","","","","","","","","","","","","","","","","","","","","","","","","","","","","","","","","","","","","","","","","","","",""
"","see_reward","","html-keyboard-response","314","4730755","0.0-310.0","0","0","tMhNR","People","","795","","","","32","","19","","43","","","","1","","","","","2","","","","","151","795","","","","","","","","","","","","","","","","","","","","","","","","",""
"","reward_outcome","","html-keyboard-response","315","4732772","0.0-311.0","0","0","tMhNR","People","","900","","","","38","","19","","43","","","","","","","","","","","","","","","","1","900","","","","","","","","","","","","","","","","","","","","","","",""
"","fixation","","html-keyboard-response","316","4733791","0.0-314.0","0","0","tMhNR","People","","null","","","","null","","","","","","","","","","","","","","","","","","","","","","","","","","","","","","","","","","","","","","","","","","","",""
"","see_reward","","html-keyboard-response","317","4734412","0.0-315.0","0","0","tMhNR","People","","618","","","","32","","39","","44","","","","1","","","","","2","","","","","157","618","","","","","","","","","","","","","","","","","","","","","","","","",""
"","reward_outcome","","html-keyboard-response","318","4736415","0.0-316.0","0","0","tMhNR","People","","962","","","","38","","39","","44","","","","","","","","","","","","","","","","1","962","","","","","","","","","","","","","","","","","","","","","","",""
"","fixation","","html-keyboard-response","319","4737431","0.0-319.0","0","0","tMhNR","People","","null","","","","null","","","","","","","","","","","","","","","","","","","","","","","","","","","","","","","","","","","","","","","","","","","",""
"","see_reward","","html-keyboard-response","320","4738131","0.0-320.0","0","0","tMhNR","People","","698","","","","32","","11","","45","","","","1","","","","","2","","","","","150","698","","","","","","","","","","","","","","","","","","","","","","","","",""
"","reward_outcome","","html-keyboard-response","321","4740151","0.0-321.0","0","0","tMhNR","People","","930","","","","38","","11","","45","","","","","","","","","","","","","","","","1","930","","","","","","","","","","","","","","","","","","","","","","",""
"","fixation","","html-keyboard-response","322","4741164","0.0-324.0","0","0","tMhNR","People","","null","","","","null","","","","","","","","","","","","","","","","","","","","","","","","","","","","","","","","","","","","","","","","","","","",""
"","see_reward","","html-keyboard-response","323","4741931","0.0-325.0","0","0","tMhNR","People","","766","","","","32","","45","","46","","","","1","","","","","2","","","","","154","766","","","","","","","","","","","","","","","","","","","","","","","","",""
"","reward_outcome","","html-keyboard-response","324","4743982","0.0-326.0","0","0","tMhNR","People","","1031","","","","38","","45","","46","","","","","","","","","","","","","","","","1","1031","","","","","","","","","","","","","","","","","","","","","","",""
"","fixation","","html-keyboard-response","325","4744993","0.0-329.0","0","0","tMhNR","People","","null","","","","null","","","","","","","","","","","","","","","","","","","","","","","","","","","","","","","","","","","","","","","","","","","",""
"","see_reward","","html-keyboard-response","326","4745587","0.0-330.0","0","0","tMhNR","People","","592","","","","32","","15","","47","","","","-1","","","","","2","","","","","0","592","","","","","","","","","","","","","","","","","","","","","","","","",""
"","reward_outcome","","html-keyboard-response","327","4747605","0.0-331.0","0","0","tMhNR","People","","1118","","","","40","","15","","47","","","","","","","","","","","","","","","","-1","1118","","","","","","","","","","","","","","","","","","","","","","",""
"","block_over","","html-keyboard-response","328","4750835","0.0-333.0-0.0","0","0","tMhNR","People","","3216","","","","78","","","","","","","","","","","","","","","","","","","","","","","","","","","","","","","","","","","","","","","","","","","",""
"","fixation","","html-keyboard-response","329","4751855","0.0-334.0","0","0","tMhNR","People","","null","","","","null","","","","","","","","","","","","","","","","","","","","","","","","","","","","","","","","","","","","","","","","","","","",""
"","see_reward","","html-keyboard-response","330","4753187","0.0-335.0","0","0","tMhNR","People","","1325","","","","32","","11","","48","","","","1","","","","","3","","","","","150","1325","","","","","","","","","","","","","","","","","","","","","","","","",""
"","reward_outcome","","html-keyboard-response","331","4755197","0.0-336.0","0","0","tMhNR","People","","1118","","","","38","","11","","48","","","","","","","","","","","","","","","","1","1118","","","","","","","","","","","","","","","","","","","","","","",""
"","fixation","","html-keyboard-response","332","4756213","0.0-339.0","0","0","tMhNR","People","","null","","","","null","","","","","","","","","","","","","","","","","","","","","","","","","","","","","","","","","","","","","","","","","","","",""
"","see_reward","","html-keyboard-response","333","4756859","0.0-340.0","0","0","tMhNR","People","","640","","","","32","","36","","49","","","","1","","","","","3","","","","","148","640","","","","","","","","","","","","","","","","","","","","","","","","",""
"","reward_outcome","","html-keyboard-response","334","4758870","0.0-341.0","0","0","tMhNR","People","","833","","","","38","","36","","49","","","","","","","","","","","","","","","","1","833","","","","","","","","","","","","","","","","","","","","","","",""
"","fixation","","html-keyboard-response","335","4759885","0.0-344.0","0","0","tMhNR","People","","null","","","","null","","","","","","","","","","","","","","","","","","","","","","","","","","","","","","","","","","","","","","","","","","","",""
"","see_reward","","html-keyboard-response","336","4760579","0.0-345.0","0","0","tMhNR","People","","685","","","","32","","48","","50","","","","-1","","","","","3","","","","","0","685","","","","","","","","","","","","","","","","","","","","","","","","",""
"","reward_outcome","","html-keyboard-response","337","4762591","0.0-346.0","0","0","tMhNR","People","","982","","","","40","","48","","50","","","","","","","","","","","","","","","","-1","982","","","","","","","","","","","","","","","","","","","","","","",""
"","fixation","","html-keyboard-response","338","4763644","0.0-349.0","0","0","tMhNR","People","","null","","","","null","","","","","","","","","","","","","","","","","","","","","","","","","","","","","","","","","","","","","","","","","","","",""
"","see_reward","","html-keyboard-response","339","4764635","0.0-350.0","0","0","tMhNR","People","","978","","","","32","","42","","51","","","","-1","","","","","3","","","","","0","978","","","","","","","","","","","","","","","","","","","","","","","","",""
"","reward_outcome","","html-keyboard-response","340","4766639","0.0-351.0","0","0","tMhNR","People","","953","","","","40","","42","","51","","","","","","","","","","","","","","","","-1","953","","","","","","","","","","","","","","","","","","","","","","",""
"","fixation","","html-keyboard-response","341","4767660","0.0-354.0","0","0","tMhNR","People","","null","","","","null","","","","","","","","","","","","","","","","","","","","","","","","","","","","","","","","","","","","","","","","","","","",""
"","see_reward","","html-keyboard-response","342","4768482","0.0-355.0","0","0","tMhNR","People","","817","","","","32","","19","","52","","","","1","","","","","3","","","","","151","817","","","","","","","","","","","","","","","","","","","","","","","","",""
"","reward_outcome","","html-keyboard-response","343","4770497","0.0-356.0","0","0","tMhNR","People","","1232","","","","38","","19","","52","","","","","","","","","","","","","","","","1","1232","","","","","","","","","","","","","","","","","","","","","","",""
"","fixation","","html-keyboard-response","344","4771509","0.0-359.0","0","0","tMhNR","People","","null","","","","null","","","","","","","","","","","","","","","","","","","","","","","","","","","","","","","","","","","","","","","","","","","",""
"","see_reward","","html-keyboard-response","345","4772307","0.0-360.0","0","0","tMhNR","People","","795","","","","32","","9","","53","","","","-1","","","","","3","","","","","0","795","","","","","","","","","","","","","","","","","","","","","","","","",""
"","reward_outcome","","html-keyboard-response","346","4774323","0.0-361.0","0","0","tMhNR","People","","1230","","","","40","","9","","53","","","","","","","","","","","","","","","","-1","1230","","","","","","","","","","","","","","","","","","","","","","",""
"","fixation","","html-keyboard-response","347","4775328","0.0-364.0","0","0","tMhNR","People","","null","","","","null","","","","","","","","","","","","","","","","","","","","","","","","","","","","","","","","","","","","","","","","","","","",""
"","see_reward","","html-keyboard-response","348","4776283","0.0-365.0","0","0","tMhNR","People","","944","","","","32","","36","","54","","","","1","","","","","3","","","","","148","944","","","","","","","","","","","","","","","","","","","","","","","","",""
"","reward_outcome","","html-keyboard-response","349","4778290","0.0-366.0","0","0","tMhNR","People","","1052","","","","38","","36","","54","","","","","","","","","","","","","","","","1","1052","","","","","","","","","","","","","","","","","","","","","","",""
"","fixation","","html-keyboard-response","350","4779305","0.0-369.0","0","0","tMhNR","People","","null","","","","null","","","","","","","","","","","","","","","","","","","","","","","","","","","","","","","","","","","","","","","","","","","",""
"","see_reward","","html-keyboard-response","351","4779946","0.0-370.0","0","0","tMhNR","People","","639","","","","32","","28","","55","","","","1","","","","","3","","","","","156","639","","","","","","","","","","","","","","","","","","","","","","","","",""
"","reward_outcome","","html-keyboard-response","352","4781962","0.0-371.0","0","0","tMhNR","People","","1072","","","","38","","28","","55","","","","","","","","","","","","","","","","1","1072","","","","","","","","","","","","","","","","","","","","","","",""
"","fixation","","html-keyboard-response","353","4782976","0.0-374.0","0","0","tMhNR","People","","null","","","","null","","","","","","","","","","","","","","","","","","","","","","","","","","","","","","","","","","","","","","","","","","","",""
