"success","ttype","start_time","trial_type","trial_index","time_elapsed","internal_node_id","warning","missed_checkup","PID","stim_type","view_history","rt","responses","repeat_instructions","key_press","response","stimulus_id","painting","index","stimulus_left","stimulus_right","explain_trial","reward_type","rating_left","rating_right","painting_left","painting_right","block","left_chosen","chosen_obj","unchosen_obj","explain_response","reward_amount","see_reward_rt","register_reward_response","register_reward_rt","deliberation_reward_tally","stimulus_left_deliberation_ind","stimulus_right_deliberation_ind","chosen_trial","gain_left","higher_outcome_chosen","old_pair","chosen_object","rt_pairs","left_object_chosen","rt_object","old_response","new_rating","deliberated_stim","initial_rating","outcome_eval_rt","outcome_eval_response","outcome_eval_gain","outcome_eval_acc","preamble","outcome_eval_confidence","outcome_eval_confidence_rt","total_reward_tally"
"true","full_screen","d01192023hr2037","fullscreen","0","1168485","0.0-0.0","0","0","oQjkh","Scenes","","","","","","","","","","","","","","","","","","","","","","","","","","","","","","","","","","","","","","","","","","","","","","","","",""
"","rating_instructions","","instructions","1","1177197","0.0-1.0-0.0","0","0","oQjkh","Scenes","[{""page_index"":0,""viewing_time"":6602},{""page_index"":1,""viewing_time"":2103}]","8707","","","","","","","","","","","","","","","","","","","","","","","","","","","","","","","","","","","","","","","","","","","","","","",""
"","rating_comprehension_check","","survey-multi-choice","2","1182605","0.0-1.0-1.0","0","0","oQjkh","Scenes","","5402","{""Q0"":""True"",""Q1"":""Mouse""}","0","","","","","","","","","","","","","","","","","","","","","","","","","","","","","","","","","","","","","","","","","","","","",""
"","start_phase","","html-keyboard-response","3","1184902","0.0-2.0","0","0","oQjkh","Scenes","","2294","","","78","","","","","","","","","","","","","","","","","","","","","","","","","","","","","","","","","","","","","","","","","","","",""
"","rating","","html-slider-response","4","1191876","0.0-3.0","0","0","oQjkh","Scenes","","6969","","","","82","104","artem-sapegin-XGDBdSQ70O0-unsplash.jpg","0","","","","","","","","","","","","","","","","","","","","","","","","","","","","","","","","","","","","","","","",""
"","rating","","html-slider-response","5","1195348","0.0-4.0","0","0","oQjkh","Scenes","","3467","","","","76","138","petr-vysohlid-9fqwGqGLUxc-unsplash.jpg","1","","","","","","","","","","","","","","","","","","","","","","","","","","","","","","","","","","","","","","","",""
"","rating","","html-slider-response","6","1200019","0.0-5.0","0","0","oQjkh","Scenes","","4668","","","","55","120","jarrett-kow-1ZOyYPOBn7I-unsplash.jpg","2","","","","","","","","","","","","","","","","","","","","","","","","","","","","","","","","","","","","","","","",""
"","rating","","html-slider-response","7","1203075","0.0-6.0","0","0","oQjkh","Scenes","","3051","","","","79","142","sergey-pesterev-y-b_FOmJXdg-unsplash.jpg","3","","","","","","","","","","","","","","","","","","","","","","","","","","","","","","","","","","","","","","","",""
"","rating","","html-slider-response","8","1205476","0.0-7.0","0","0","oQjkh","Scenes","","2397","","","","78","103","anton-darius-FBJugtbHsWU-unsplash.jpg","4","","","","","","","","","","","","","","","","","","","","","","","","","","","","","","","","","","","","","","","",""
"","rating","","html-slider-response","9","1209530","0.0-8.0","0","0","oQjkh","Scenes","","4051","","","","86","116","david-marcu-W5MhJ6cy1So-unsplash.jpg","5","","","","","","","","","","","","","","","","","","","","","","","","","","","","","","","","","","","","","","","",""
"","rating","","html-slider-response","10","1212748","0.0-9.0","0","0","oQjkh","Scenes","","3213","","","","67","109","brigitta-schneiter-hXXRLtTxXCU-unsplash.jpg","6","","","","","","","","","","","","","","","","","","","","","","","","","","","","","","","","","","","","","","","",""
"","rating","","html-slider-response","11","1216763","0.0-10.0","0","0","oQjkh","Scenes","","4012","","","","68","107","benjamin-davies-Zm2n2O7Fph4-unsplash.jpg","7","","","","","","","","","","","","","","","","","","","","","","","","","","","","","","","","","","","","","","","",""
"","rating","","html-slider-response","12","1219691","0.0-11.0","0","0","oQjkh","Scenes","","2923","","","","71","133","mickey-o-neil-xL66l--msXU-unsplash.jpg","8","","","","","","","","","","","","","","","","","","","","","","","","","","","","","","","","","","","","","","","",""
"","rating","","html-slider-response","13","1222995","0.0-12.0","0","0","oQjkh","Scenes","","3301","","","","100","125","john-lee-oMneOBYhJxY-unsplash.jpg","9","","","","","","","","","","","","","","","","","","","","","","","","","","","","","","","","","","","","","","","",""
"","rating","","html-slider-response","14","1226047","0.0-13.0","0","0","oQjkh","Scenes","","3049","","","","65","126","jordan-mcqueen-PJCZOWuOxbU-unsplash.jpg","10","","","","","","","","","","","","","","","","","","","","","","","","","","","","","","","","","","","","","","","",""
"","rating","","html-slider-response","15","1228507","0.0-14.0","0","0","oQjkh","Scenes","","2456","","","","65","148","tom-gainor-ZqLeQDjY6fY-unsplash.jpg","11","","","","","","","","","","","","","","","","","","","","","","","","","","","","","","","","","","","","","","","",""
"","rating","","html-slider-response","16","1231659","0.0-15.0","0","0","oQjkh","Scenes","","3148","","","","65","124","johannes-plenio-sPt5RIjKfpk-unsplash.jpg","12","","","","","","","","","","","","","","","","","","","","","","","","","","","","","","","","","","","","","","","",""
"","rating","","html-slider-response","17","1234370","0.0-16.0","0","0","oQjkh","Scenes","","2708","","","","72","117","frank-mckenna-OD9EOzfSOh0-unsplash.jpg","13","","","","","","","","","","","","","","","","","","","","","","","","","","","","","","","","","","","","","","","",""
"","rating","","html-slider-response","18","1237139","0.0-17.0","0","0","oQjkh","Scenes","","2765","","","","100","108","benjamin-voros-phIFdC6lA4E-unsplash.jpg","14","","","","","","","","","","","","","","","","","","","","","","","","","","","","","","","","","","","","","","","",""
"","rating","","html-slider-response","19","1240139","0.0-18.0","0","0","oQjkh","Scenes","","2996","","","","63","135","mohammad-alizade-4wzRuAb-KWs-unsplash.jpg","15","","","","","","","","","","","","","","","","","","","","","","","","","","","","","","","","","","","","","","","",""
"","rating","","html-slider-response","20","1242931","0.0-19.0","0","0","oQjkh","Scenes","","2788","","","","60","139","samsommer-vddccTqwal8-unsplash.jpg","16","","","","","","","","","","","","","","","","","","","","","","","","","","","","","","","","","","","","","","","",""
"","rating","","html-slider-response","21","1246331","0.0-20.0","0","0","oQjkh","Scenes","","3396","","","","85","115","darrell-cassell-hoCXpPUMCoE-unsplash.jpg","17","","","","","","","","","","","","","","","","","","","","","","","","","","","","","","","","","","","","","","","",""
"","rating","","html-slider-response","22","1249548","0.0-21.0","0","0","oQjkh","Scenes","","3213","","","","100","140","samuele-errico-piccarini-JEBqFu2AOOA-unsplash.jpg","18","","","","","","","","","","","","","","","","","","","","","","","","","","","","","","","","","","","","","","","",""
"","rating","","html-slider-response","23","1252753","0.0-22.0","0","0","oQjkh","Scenes","","3202","","","","60","114","daniel-sessler-z_9VmsxR8hs-unsplash.jpg","19","","","","","","","","","","","","","","","","","","","","","","","","","","","","","","","","","","","","","","","",""
"","rating","","html-slider-response","24","1256339","0.0-23.0","0","0","oQjkh","Scenes","","3582","","","","100","112","cosmic-timetraveler-pYyOZ8q7AII-unsplash.jpg","20","","","","","","","","","","","","","","","","","","","","","","","","","","","","","","","","","","","","","","","",""
"","rating","","html-slider-response","25","1258947","0.0-24.0","0","0","oQjkh","Scenes","","2603","","","","85","134","milada-vigerova-pQMM63GE7fo-unsplash.jpg","21","","","","","","","","","","","","","","","","","","","","","","","","","","","","","","","","","","","","","","","",""
"","rating","","html-slider-response","26","1261274","0.0-25.0","0","0","oQjkh","Scenes","","2322","","","","50","105","ashim-d-silva-S2Q5mdOrrVc-unsplash.jpg","22","","","","","","","","","","","","","","","","","","","","","","","","","","","","","","","","","","","","","","","",""
"","rating","","html-slider-response","27","1264323","0.0-26.0","0","0","oQjkh","Scenes","","3045","","","","59","111","claudio-testa-U3F2o6vz3bs-unsplash.jpg","23","","","","","","","","","","","","","","","","","","","","","","","","","","","","","","","","","","","","","","","",""
"","rating","","html-slider-response","28","1266131","0.0-27.0","0","0","oQjkh","Scenes","","1804","","","","50","121","jean-pierre-brungs-qxCqkbF7tUc-unsplash.jpg","24","","","","","","","","","","","","","","","","","","","","","","","","","","","","","","","","","","","","","","","",""
"","rating","","html-slider-response","29","1267884","0.0-28.0","0","0","oQjkh","Scenes","","1748","","","","50","149","yuriy-bogdanov-W51VK3Obcj0-unsplash.jpg","25","","","","","","","","","","","","","","","","","","","","","","","","","","","","","","","","","","","","","","","",""
"","rating","","html-slider-response","30","1270506","0.0-29.0","0","0","oQjkh","Scenes","","2619","","","","58","146","thomas-morse-cuKKa0vWZSY-unsplash.jpg","26","","","","","","","","","","","","","","","","","","","","","","","","","","","","","","","","","","","","","","","",""
"","rating","","html-slider-response","31","1273715","0.0-30.0","0","0","oQjkh","Scenes","","3204","","","","82","137","olga-stalska-QaWRyEdlffY-unsplash.jpg","27","","","","","","","","","","","","","","","","","","","","","","","","","","","","","","","","","","","","","","","",""
"","rating","","html-slider-response","32","1276267","0.0-31.0","0","0","oQjkh","Scenes","","2548","","","","65","127","kace-rodriguez-p3OzJuT_Dks-unsplash.jpg","28","","","","","","","","","","","","","","","","","","","","","","","","","","","","","","","","","","","","","","","",""
"","rating","","html-slider-response","33","1281851","0.0-32.0","0","0","oQjkh","Scenes","","5579","","","","64","143","sigurdur-fjalar-jonsson-1KxBabIntpE-unsplash.jpg","29","","","","","","","","","","","","","","","","","","","","","","","","","","","","","","","","","","","","","","","",""
"","rating","","html-slider-response","34","1288083","0.0-33.0","0","0","oQjkh","Scenes","","6227","","","","57","100","aleksandra-boguslawska-MS7KD9Ti7FQ-unsplash.jpg","30","","","","","","","","","","","","","","","","","","","","","","","","","","","","","","","","","","","","","","","",""
"","rating","","html-slider-response","35","1290073","0.0-34.0","0","0","oQjkh","Scenes","","1987","","","","50","106","ashim-d-silva-WeYamle9fDM-unsplash.jpg","31","","","","","","","","","","","","","","","","","","","","","","","","","","","","","","","","","","","","","","","",""
"","rating","","html-slider-response","36","1292755","0.0-35.0","0","0","oQjkh","Scenes","","2677","","","","54","102","anisur-rahman-K2b7UDed6uQ-unsplash.jpg","32","","","","","","","","","","","","","","","","","","","","","","","","","","","","","","","","","","","","","","","",""
"","rating","","html-slider-response","37","1295428","0.0-36.0","0","0","oQjkh","Scenes","","2668","","","","47","129","kurt-cotoaga-cqbLg3lZEpk-unsplash.jpg","33","","","","","","","","","","","","","","","","","","","","","","","","","","","","","","","","","","","","","","","",""
"","rating","","html-slider-response","38","1297858","0.0-37.0","0","0","oQjkh","Scenes","","2427","","","","56","128","karsten-wurth-jS0zC2PJ17A-unsplash.jpg","34","","","","","","","","","","","","","","","","","","","","","","","","","","","","","","","","","","","","","","","",""
"","rating","","html-slider-response","39","1300451","0.0-38.0","0","0","oQjkh","Scenes","","2589","","","","68","119","james-wheeler-AFC0XvICMgs-unsplash.jpg","35","","","","","","","","","","","","","","","","","","","","","","","","","","","","","","","","","","","","","","","",""
"","rating","","html-slider-response","40","1302131","0.0-39.0","0","0","oQjkh","Scenes","","1676","","","","50","136","nicolas-jehly-LzVB84KkZOE-unsplash.jpg","36","","","","","","","","","","","","","","","","","","","","","","","","","","","","","","","","","","","","","","","",""
"","rating","","html-slider-response","41","1304539","0.0-40.0","0","0","oQjkh","Scenes","","2404","","","","75","131","luca-bravo-hFzIoD0F_i8-unsplash.jpg","37","","","","","","","","","","","","","","","","","","","","","","","","","","","","","","","","","","","","","","","",""
"","rating","","html-slider-response","42","1307563","0.0-41.0","0","0","oQjkh","Scenes","","3021","","","","50","113","damian-denis-D8R_txR_0PE-unsplash.jpg","38","","","","","","","","","","","","","","","","","","","","","","","","","","","","","","","","","","","","","","","",""
"","rating","","html-slider-response","43","1309851","0.0-42.0","0","0","oQjkh","Scenes","","2284","","","","72","132","meng-ji-8BH_M-53CyA-unsplash.jpg","39","","","","","","","","","","","","","","","","","","","","","","","","","","","","","","","","","","","","","","","",""
"","rating","","html-slider-response","44","1313515","0.0-43.0","0","0","oQjkh","Scenes","","3660","","","","73","118","henry-be-NLF6hTe4PAg-unsplash.jpg","40","","","","","","","","","","","","","","","","","","","","","","","","","","","","","","","","","","","","","","","",""
"","rating","","html-slider-response","45","1316595","0.0-44.0","0","0","oQjkh","Scenes","","3076","","","","71","130","lina-loos-04-C1NZk1hE-unsplash.jpg","41","","","","","","","","","","","","","","","","","","","","","","","","","","","","","","","","","","","","","","","",""
"","rating","","html-slider-response","46","1318947","0.0-45.0","0","0","oQjkh","Scenes","","2347","","","","73","147","tobias-keller-73F4pKoUkM0-unsplash.jpg","42","","","","","","","","","","","","","","","","","","","","","","","","","","","","","","","","","","","","","","","",""
"","rating","","html-slider-response","47","1321283","0.0-46.0","0","0","oQjkh","Scenes","","2331","","","","74","123","joel-jasmin-forestbird-efuwb5eBDrI-unsplash.jpg","43","","","","","","","","","","","","","","","","","","","","","","","","","","","","","","","","","","","","","","","",""
"","rating","","html-slider-response","48","1324065","0.0-47.0","0","0","oQjkh","Scenes","","2779","","","","71","141","sebastian-unrau-v4e3JI7DDHI-unsplash.jpg","44","","","","","","","","","","","","","","","","","","","","","","","","","","","","","","","","","","","","","","","",""
"","rating","","html-slider-response","49","1326180","0.0-48.0","0","0","oQjkh","Scenes","","2111","","","","50","122","jeff-king-bJHWJeiHfHc-unsplash.jpg","45","","","","","","","","","","","","","","","","","","","","","","","","","","","","","","","","","","","","","","","",""
"","rating","","html-slider-response","50","1329267","0.0-49.0","0","0","oQjkh","Scenes","","3083","","","","57","144","solotravelgoals-7kLufxYoqWk-unsplash.jpg","46","","","","","","","","","","","","","","","","","","","","","","","","","","","","","","","","","","","","","","","",""
"","rating","","html-slider-response","51","1332360","0.0-50.0","0","0","oQjkh","Scenes","","3091","","","","64","101","aniket-deole-T-tOgjWZ0fQ-unsplash.jpg","47","","","","","","","","","","","","","","","","","","","","","","","","","","","","","","","","","","","","","","","",""
"","rating","","html-slider-response","52","1334947","0.0-51.0","0","0","oQjkh","Scenes","","2583","","","","65","110","bruno-van-der-kraan-qez8mNJ3ilU-unsplash.jpg","48","","","","","","","","","","","","","","","","","","","","","","","","","","","","","","","","","","","","","","","",""
"","rating","","html-slider-response","53","1337319","0.0-52.0","0","0","oQjkh","Scenes","","2369","","","","64","145","stephen-leonardi-gyIRjKPXupE-unsplash.jpg","49","","","","","","","","","","","","","","","","","","","","","","","","","","","","","","","","","","","","","","","",""
"","deliberation_instructions","","instructions","54","1387685","0.0-53.0-0.0","0","0","oQjkh","Scenes","[{""page_index"":0,""viewing_time"":9462},{""page_index"":1,""viewing_time"":10834},{""page_index"":2,""viewing_time"":11830},{""page_index"":3,""viewing_time"":16584},{""page_index"":4,""viewing_time"":1650}]","50361","","","","","","","","","","","","","","","","","","","","","","","","","","","","","","","","","","","","","","","","","","","","","","",""
"","deliberation_comprehension_check","","survey-multi-choice","55","1404700","0.0-53.0-1.0","0","0","oQjkh","Scenes","","17006","{""Q0"":""True"",""Q1"":""True"",""Q2"":""Consider carefully and take your time (up to 10 seconds)"",""Q3"":""True"",""Q4"":""D""}","0","","","","","","","","","","","","","","","","","","","","","","","","","","","","","","","","","","","","","","","","","","","","",""
"","start_phase","","html-keyboard-response","56","1406827","0.0-54.0","0","0","oQjkh","Scenes","","2124","","","78","","","","","","","","","","","","","","","","","","","","","","","","","","","","","","","","","","","","","","","","","","","",""
"","first_deliberation_block","","html-keyboard-response","57","1410139","0.0-55.0","0","0","oQjkh","Scenes","","3310","","","78","","","","","","","","","","","","","","","","","","","","","","","","","","","","","","","","","","","","","","","","","","","",""
"","fixation","","html-keyboard-response","58","1411146","0.0-56.0-0.0","0","0","oQjkh","Scenes","","null","","","null","","","","","","","","","","","","","","","","","","","","","","","","","","","","","","","","","","","","","","","","","","","",""
"","deliberation","","html-keyboard-response","59","1420260","0.0-56.0-1.0","0","0","oQjkh","Scenes","","9108","","","68","","","","0","109","124","1","1","67","65","brigitta-schneiter-hXXRLtTxXCU-unsplash.jpg","johannes-plenio-sPt5RIjKfpk-unsplash.jpg","1","1","109","124","","","","","","","","","","","","","","","","","","","","","","","","","","","",""
"","choice_confirmation","","html-keyboard-response","60","1420765","0.0-56.0-2.0-0.0","0","0","oQjkh","Scenes","","null","","","null","","","","0","109","124","","","","","","","","","","","","","","","","","","","","","","","","","","","","","","","","","","","","","",""
"","explain_trial","","survey-text","61","1441249","0.0-56.0-5.0-0.0","0","0","oQjkh","Scenes","","20478","{""Q0"":""I think this color scheme and more minimalist design would suit more people's tastes.""}","","","","","","0","109","124","","","","","","","","","","","{""Q0"":""I think this color scheme and more minimalist design would suit more people's tastes.""}","","","","","","","","","","","","","","","","","","","","","","","","","","",""
"","fixation","","html-keyboard-response","62","1442253","0.0-57.0-0.0","0","0","oQjkh","Scenes","","null","","","null","","","","","","","","","","","","","","","","","","","","","","","","","","","","","","","","","","","","","","","","","","","",""
"","deliberation","","html-keyboard-response","63","1447459","0.0-57.0-1.0","0","0","oQjkh","Scenes","","5202","","","75","","","","1","126","107","0","-1","65","68","jordan-mcqueen-PJCZOWuOxbU-unsplash.jpg","benjamin-davies-Zm2n2O7Fph4-unsplash.jpg","1","0","107","126","","","","","","","","","","","","","","","","","","","","","","","","","","","",""
"","choice_confirmation","","html-keyboard-response","64","1447963","0.0-57.0-2.0-0.0","0","0","oQjkh","Scenes","","null","","","null","","","","1","126","107","","","","","","","","","","","","","","","","","","","","","","","","","","","","","","","","","","","","","",""
"","fixation","","html-keyboard-response","65","1448966","0.0-58.0-0.0","0","0","oQjkh","Scenes","","null","","","null","","","","","","","","","","","","","","","","","","","","","","","","","","","","","","","","","","","","","","","","","","","",""
"","deliberation","","html-keyboard-response","66","1453941","0.0-58.0-1.0","0","0","oQjkh","Scenes","","4971","","","75","","","","2","135","147","1","-1","63","73","mohammad-alizade-4wzRuAb-KWs-unsplash.jpg","tobias-keller-73F4pKoUkM0-unsplash.jpg","1","0","147","135","","","","","","","","","","","","","","","","","","","","","","","","","","","",""
"","choice_confirmation","","html-keyboard-response","67","1454446","0.0-58.0-2.0-0.0","0","0","oQjkh","Scenes","","null","","","null","","","","2","135","147","","","","","","","","","","","","","","","","","","","","","","","","","","","","","","","","","","","","","",""
"","explain_trial","","survey-text","68","1481347","0.0-58.0-5.0-0.0","0","0","oQjkh","Scenes","","26896","{""Q0"":""The brightness of the sky really draws the eye at first glance better than the night sky does.""}","","","","","","2","135","147","","","","","","","","","","","{""Q0"":""The brightness of the sky really draws the eye at first glance better than the night sky does.""}","","","","","","","","","","","","","","","","","","","","","","","","","","",""
"","fixation","","html-keyboard-response","69","1482354","0.0-59.0-0.0","0","0","oQjkh","Scenes","","null","","","null","","","","","","","","","","","","","","","","","","","","","","","","","","","","","","","","","","","","","","","","","","","",""
"","deliberation","","html-keyboard-response","70","1485547","0.0-59.0-1.0","0","0","oQjkh","Scenes","","3189","","","75","","","","3","141","117","0","-1","71","72","sebastian-unrau-v4e3JI7DDHI-unsplash.jpg","frank-mckenna-OD9EOzfSOh0-unsplash.jpg","1","0","117","141","","","","","","","","","","","","","","","","","","","","","","","","","","","",""
"","choice_confirmation","","html-keyboard-response","71","1486052","0.0-59.0-2.0-0.0","0","0","oQjkh","Scenes","","null","","","null","","","","3","141","117","","","","","","","","","","","","","","","","","","","","","","","","","","","","","","","","","","","","","",""
"","fixation","","html-keyboard-response","72","1487060","0.0-60.0-0.0","0","0","oQjkh","Scenes","","null","","","null","","","","","","","","","","","","","","","","","","","","","","","","","","","","","","","","","","","","","","","","","","","",""
"","deliberation","","html-keyboard-response","73","1489252","0.0-60.0-1.0","0","0","oQjkh","Scenes","","2189","","","68","","","","4","143","145","0","1","64","64","sigurdur-fjalar-jonsson-1KxBabIntpE-unsplash.jpg","stephen-leonardi-gyIRjKPXupE-unsplash.jpg","1","1","143","145","","","","","","","","","","","","","","","","","","","","","","","","","","","",""
"","choice_confirmation","","html-keyboard-response","74","1489757","0.0-60.0-2.0-0.0","0","0","oQjkh","Scenes","","null","","","null","","","","4","143","145","","","","","","","","","","","","","","","","","","","","","","","","","","","","","","","","","","","","","",""
"","fixation","","html-keyboard-response","75","1490763","0.0-61.0-0.0","0","0","oQjkh","Scenes","","null","","","null","","","","","","","","","","","","","","","","","","","","","","","","","","","","","","","","","","","","","","","","","","","",""
"","deliberation","","html-keyboard-response","76","1492283","0.0-61.0-1.0","0","0","oQjkh","Scenes","","1517","","","75","","","","5","114","132","1","-1","60","72","daniel-sessler-z_9VmsxR8hs-unsplash.jpg","meng-ji-8BH_M-53CyA-unsplash.jpg","1","0","132","114","","","","","","","","","","","","","","","","","","","","","","","","","","","",""
"","choice_confirmation","","html-keyboard-response","77","1492788","0.0-61.0-2.0-0.0","0","0","oQjkh","Scenes","","null","","","null","","","","5","114","132","","","","","","","","","","","","","","","","","","","","","","","","","","","","","","","","","","","","","",""
"","explain_trial","","survey-text","78","1515665","0.0-61.0-5.0-0.0","0","0","oQjkh","Scenes","","22873","{""Q0"":""The bright blues are sure to appeal to someone's taste, and I think more people tend to prefer beaches.""}","","","","","","5","114","132","","","","","","","","","","","{""Q0"":""The bright blues are sure to appeal to someone's taste, and I think more people tend to prefer beaches.""}","","","","","","","","","","","","","","","","","","","","","","","","","","",""
"","fixation","","html-keyboard-response","79","1516674","0.0-62.0-0.0","0","0","oQjkh","Scenes","","null","","","null","","","","","","","","","","","","","","","","","","","","","","","","","","","","","","","","","","","","","","","","","","","",""
"","deliberation","","html-keyboard-response","80","1523268","0.0-62.0-1.0","0","0","oQjkh","Scenes","","6590","","","75","","","","6","110","101","1","1","65","64","bruno-van-der-kraan-qez8mNJ3ilU-unsplash.jpg","aniket-deole-T-tOgjWZ0fQ-unsplash.jpg","1","0","101","110","","","","","","","","","","","","","","","","","","","","","","","","","","","",""
"","choice_confirmation","","html-keyboard-response","81","1523774","0.0-62.0-2.0-0.0","0","0","oQjkh","Scenes","","null","","","null","","","","6","110","101","","","","","","","","","","","","","","","","","","","","","","","","","","","","","","","","","","","","","",""
"","explain_trial","","survey-text","82","1543977","0.0-62.0-5.0-0.0","0","0","oQjkh","Scenes","","20199","{""Q0"":""The clouds in the first photo almost make it look blurry, which wouldn't be a desirable trait.""}","","","","","","6","110","101","","","","","","","","","","","{""Q0"":""The clouds in the first photo almost make it look blurry, which wouldn't be a desirable trait.""}","","","","","","","","","","","","","","","","","","","","","","","","","","",""
"","fixation","","html-keyboard-response","83","1544984","0.0-63.0-0.0","0","0","oQjkh","Scenes","","null","","","null","","","","","","","","","","","","","","","","","","","","","","","","","","","","","","","","","","","","","","","","","","","",""
"","deliberation","","html-keyboard-response","84","1548452","0.0-63.0-1.0","0","0","oQjkh","Scenes","","3464","","","75","","","","7","118","139","0","1","73","60","henry-be-NLF6hTe4PAg-unsplash.jpg","samsommer-vddccTqwal8-unsplash.jpg","1","0","139","118","","","","","","","","","","","","","","","","","","","","","","","","","","","",""
"","choice_confirmation","","html-keyboard-response","85","1548957","0.0-63.0-2.0-0.0","0","0","oQjkh","Scenes","","null","","","null","","","","7","118","139","","","","","","","","","","","","","","","","","","","","","","","","","","","","","","","","","","","","","",""
"","fixation","","html-keyboard-response","86","1549964","0.0-64.0-0.0","0","0","oQjkh","Scenes","","null","","","null","","","","","","","","","","","","","","","","","","","","","","","","","","","","","","","","","","","","","","","","","","","",""
"","deliberation","","html-keyboard-response","87","1559441","0.0-64.0-1.0","0","0","oQjkh","Scenes","","9474","","","68","","","","8","133","123","1","1","71","74","mickey-o-neil-xL66l--msXU-unsplash.jpg","joel-jasmin-forestbird-efuwb5eBDrI-unsplash.jpg","1","1","133","123","","","","","","","","","","","","","","","","","","","","","","","","","","","",""
"","choice_confirmation","","html-keyboard-response","88","1559946","0.0-64.0-2.0-0.0","0","0","oQjkh","Scenes","","null","","","null","","","","8","133","123","","","","","","","","","","","","","","","","","","","","","","","","","","","","","","","","","","","","","",""
"","explain_trial","","survey-text","89","1592043","0.0-64.0-5.0-0.0","0","0","oQjkh","Scenes","","32092","{""Q0"":""I think someone could derive quite a bit of meaning from this one and have it tell a story for them, while the other is pretty but is essentially just scenery.""}","","","","","","8","133","123","","","","","","","","","","","{""Q0"":""I think someone could derive quite a bit of meaning from this one and have it tell a story for them, while the other is pretty but is essentially just scenery.""}","","","","","","","","","","","","","","","","","","","","","","","","","","",""
"","fixation","","html-keyboard-response","90","1593052","0.0-65.0-0.0","0","0","oQjkh","Scenes","","null","","","null","","","","","","","","","","","","","","","","","","","","","","","","","","","","","","","","","","","","","","","","","","","",""
"","deliberation","","html-keyboard-response","91","1598067","0.0-65.0-1.0","0","0","oQjkh","Scenes","","5012","","","75","","","","9","130","111","1","-1","71","59","lina-loos-04-C1NZk1hE-unsplash.jpg","claudio-testa-U3F2o6vz3bs-unsplash.jpg","1","0","111","130","","","","","","","","","","","","","","","","","","","","","","","","","","","",""
"","choice_confirmation","","html-keyboard-response","92","1598573","0.0-65.0-2.0-0.0","0","0","oQjkh","Scenes","","null","","","null","","","","9","130","111","","","","","","","","","","","","","","","","","","","","","","","","","","","","","","","","","","","","","",""
"","explain_trial","","survey-text","93","1637277","0.0-65.0-5.0-0.0","0","0","oQjkh","Scenes","","38698","{""Q0"":""Again, the clouds in the other photo make it look slightly blurry, which I figure less people would want.""}","","","","","","9","130","111","","","","","","","","","","","{""Q0"":""Again, the clouds in the other photo make it look slightly blurry, which I figure less people would want.""}","","","","","","","","","","","","","","","","","","","","","","","","","","",""
"","fixation","","html-keyboard-response","94","1638283","0.0-66.0-0.0","0","0","oQjkh","Scenes","","null","","","null","","","","","","","","","","","","","","","","","","","","","","","","","","","","","","","","","","","","","","","","","","","",""
"","deliberation","","html-keyboard-response","95","1642190","0.0-66.0-1.0","0","0","oQjkh","Scenes","","3904","","","75","","","","10","127","146","0","1","65","58","kace-rodriguez-p3OzJuT_Dks-unsplash.jpg","thomas-morse-cuKKa0vWZSY-unsplash.jpg","1","0","146","127","","","","","","","","","","","","","","","","","","","","","","","","","","","",""
"","choice_confirmation","","html-keyboard-response","96","1642696","0.0-66.0-2.0-0.0","0","0","oQjkh","Scenes","","null","","","null","","","","10","127","146","","","","","","","","","","","","","","","","","","","","","","","","","","","","","","","","","","","","","",""
"","fixation","","html-keyboard-response","97","1643701","0.0-67.0-0.0","0","0","oQjkh","Scenes","","null","","","null","","","","","","","","","","","","","","","","","","","","","","","","","","","","","","","","","","","","","","","","","","","",""
"","deliberation","","html-keyboard-response","98","1650510","0.0-67.0-1.0","0","0","oQjkh","Scenes","","6805","","","68","","","","11","119","148","0","-1","68","65","james-wheeler-AFC0XvICMgs-unsplash.jpg","tom-gainor-ZqLeQDjY6fY-unsplash.jpg","1","1","119","148","","","","","","","","","","","","","","","","","","","","","","","","","","","",""
"","choice_confirmation","","html-keyboard-response","99","1651017","0.0-67.0-2.0-0.0","0","0","oQjkh","Scenes","","null","","","null","","","","11","119","148","","","","","","","","","","","","","","","","","","","","","","","","","","","","","","","","","","","","","",""
"","practice_deliberation_again","","html-keyboard-response","100","1653460","0.0-67.0-6.0-0.0","0","0","oQjkh","Scenes","","2440","","","78","","","","","","","","","","","","","","","","","","","","","","","","","","","","","","","","","","","","","","","","","","","",""
"","fixation","","html-keyboard-response","101","1654465","0.0-68.0-0.0","0","0","oQjkh","Scenes","","null","","","null","","","","","","","","","","","","","","","","","","","","","","","","","","","","","","","","","","","","","","","","","","","",""
"","deliberation","","html-keyboard-response","102","1656250","0.0-68.0-1.0","0","0","oQjkh","Scenes","","1782","","","68","","","","12","143","145","1","1","64","64","sigurdur-fjalar-jonsson-1KxBabIntpE-unsplash.jpg","stephen-leonardi-gyIRjKPXupE-unsplash.jpg","2","1","143","145","","","","","","","","","","","","","","","","","","","","","","","","","","","",""
"","choice_confirmation","","html-keyboard-response","103","1656755","0.0-68.0-2.0-0.0","0","0","oQjkh","Scenes","","null","","","null","","","","12","143","145","","","","","","","","","","","","","","","","","","","","","","","","","","","","","","","","","","","","","",""
"","explain_trial","","survey-text","104","1702099","0.0-68.0-5.0-0.0","0","0","oQjkh","Scenes","","45337","{""Q0"":""I just feel like this would be preferable scenery for most people since the lighting is the star of the second photo and that may not be for everyone.""}","","","","","","12","143","145","","","","","","","","","","","{""Q0"":""I just feel like this would be preferable scenery for most people since the lighting is the star of the second photo and that may not be for everyone.""}","","","","","","","","","","","","","","","","","","","","","","","","","","",""
"","fixation","","html-keyboard-response","105","1703107","0.0-69.0-0.0","0","0","oQjkh","Scenes","","null","","","null","","","","","","","","","","","","","","","","","","","","","","","","","","","","","","","","","","","","","","","","","","","",""
"","deliberation","","html-keyboard-response","106","1705267","0.0-69.0-1.0","0","0","oQjkh","Scenes","","2155","","","68","","","","13","119","148","1","-1","68","65","james-wheeler-AFC0XvICMgs-unsplash.jpg","tom-gainor-ZqLeQDjY6fY-unsplash.jpg","2","1","119","148","","","","","","","","","","","","","","","","","","","","","","","","","","","",""
"","choice_confirmation","","html-keyboard-response","107","1705773","0.0-69.0-2.0-0.0","0","0","oQjkh","Scenes","","null","","","null","","","","13","119","148","","","","","","","","","","","","","","","","","","","","","","","","","","","","","","","","","","","","","",""
"","explain_trial","","survey-text","108","1733004","0.0-69.0-5.0-0.0","0","0","oQjkh","Scenes","","27226","{""Q0"":""Although I personally prefer the coloring of the second photo, the first looks more realistic. The second looks like it could have a filter on it.""}","","","","","","13","119","148","","","","","","","","","","","{""Q0"":""Although I personally prefer the coloring of the second photo, the first looks more realistic. The second looks like it could have a filter on it.""}","","","","","","","","","","","","","","","","","","","","","","","","","","",""
"","fixation","","html-keyboard-response","109","1734012","0.0-70.0-0.0","0","0","oQjkh","Scenes","","null","","","null","","","","","","","","","","","","","","","","","","","","","","","","","","","","","","","","","","","","","","","","","","","",""
"","deliberation","","html-keyboard-response","110","1738490","0.0-70.0-1.0","0","0","oQjkh","Scenes","","4473","","","75","","","","14","135","147","0","-1","63","73","mohammad-alizade-4wzRuAb-KWs-unsplash.jpg","tobias-keller-73F4pKoUkM0-unsplash.jpg","2","0","147","135","","","","","","","","","","","","","","","","","","","","","","","","","","","",""
"","choice_confirmation","","html-keyboard-response","111","1738993","0.0-70.0-2.0-0.0","0","0","oQjkh","Scenes","","null","","","null","","","","14","135","147","","","","","","","","","","","","","","","","","","","","","","","","","","","","","","","","","","","","","",""
"","fixation","","html-keyboard-response","112","1739995","0.0-71.0-0.0","0","0","oQjkh","Scenes","","null","","","null","","","","","","","","","","","","","","","","","","","","","","","","","","","","","","","","","","","","","","","","","","","",""
"","deliberation","","html-keyboard-response","113","1742380","0.0-71.0-1.0","0","0","oQjkh","Scenes","","2383","","","68","","","","15","133","123","0","1","71","74","mickey-o-neil-xL66l--msXU-unsplash.jpg","joel-jasmin-forestbird-efuwb5eBDrI-unsplash.jpg","2","1","133","123","","","","","","","","","","","","","","","","","","","","","","","","","","","",""
"","choice_confirmation","","html-keyboard-response","114","1742885","0.0-71.0-2.0-0.0","0","0","oQjkh","Scenes","","null","","","null","","","","15","133","123","","","","","","","","","","","","","","","","","","","","","","","","","","","","","","","","","","","","","",""
"","fixation","","html-keyboard-response","115","1743894","0.0-72.0-0.0","0","0","oQjkh","Scenes","","null","","","null","","","","","","","","","","","","","","","","","","","","","","","","","","","","","","","","","","","","","","","","","","","",""
"","deliberation","","html-keyboard-response","116","1749828","0.0-72.0-1.0","0","0","oQjkh","Scenes","","5931","","","75","","","","16","126","107","1","-1","65","68","jordan-mcqueen-PJCZOWuOxbU-unsplash.jpg","benjamin-davies-Zm2n2O7Fph4-unsplash.jpg","2","0","107","126","","","","","","","","","","","","","","","","","","","","","","","","","","","",""
"","choice_confirmation","","html-keyboard-response","117","1750334","0.0-72.0-2.0-0.0","0","0","oQjkh","Scenes","","null","","","null","","","","16","126","107","","","","","","","","","","","","","","","","","","","","","","","","","","","","","","","","","","","","","",""
"","explain_trial","","survey-text","118","1777899","0.0-72.0-5.0-0.0","0","0","oQjkh","Scenes","","27560","{""Q0"":""The greens are more eye catching than the wheat of the other photo.""}","","","","","","16","126","107","","","","","","","","","","","{""Q0"":""The greens are more eye catching than the wheat of the other photo.""}","","","","","","","","","","","","","","","","","","","","","","","","","","",""
"","fixation","","html-keyboard-response","119","1778907","0.0-73.0-0.0","0","0","oQjkh","Scenes","","null","","","null","","","","","","","","","","","","","","","","","","","","","","","","","","","","","","","","","","","","","","","","","","","",""
"","deliberation","","html-keyboard-response","120","1781691","0.0-73.0-1.0","0","0","oQjkh","Scenes","","2779","","","68","","","","17","109","124","0","1","67","65","brigitta-schneiter-hXXRLtTxXCU-unsplash.jpg","johannes-plenio-sPt5RIjKfpk-unsplash.jpg","2","1","109","124","","","","","","","","","","","","","","","","","","","","","","","","","","","",""
"","choice_confirmation","","html-keyboard-response","121","1782196","0.0-73.0-2.0-0.0","0","0","oQjkh","Scenes","","null","","","null","","","","17","109","124","","","","","","","","","","","","","","","","","","","","","","","","","","","","","","","","","","","","","",""
"","fixation","","html-keyboard-response","122","1783203","0.0-74.0-0.0","0","0","oQjkh","Scenes","","null","","","null","","","","","","","","","","","","","","","","","","","","","","","","","","","","","","","","","","","","","","","","","","","",""
"","deliberation","","html-keyboard-response","123","1786884","0.0-74.0-1.0","0","0","oQjkh","Scenes","","3678","","","75","","","","18","118","139","1","1","73","60","henry-be-NLF6hTe4PAg-unsplash.jpg","samsommer-vddccTqwal8-unsplash.jpg","2","0","139","118","","","","","","","","","","","","","","","","","","","","","","","","","","","",""
"","choice_confirmation","","html-keyboard-response","124","1787389","0.0-74.0-2.0-0.0","0","0","oQjkh","Scenes","","null","","","null","","","","18","118","139","","","","","","","","","","","","","","","","","","","","","","","","","","","","","","","","","","","","","",""
"","explain_trial","","survey-text","125","1817577","0.0-74.0-5.0-0.0","0","0","oQjkh","Scenes","","30184","{""Q0"":""This photo has such crisp lines and colors that it would be a great addition to neutral rooms.""}","","","","","","18","118","139","","","","","","","","","","","{""Q0"":""This photo has such crisp lines and colors that it would be a great addition to neutral rooms.""}","","","","","","","","","","","","","","","","","","","","","","","","","","",""
"","fixation","","html-keyboard-response","126","1818583","0.0-75.0-0.0","0","0","oQjkh","Scenes","","null","","","null","","","","","","","","","","","","","","","","","","","","","","","","","","","","","","","","","","","","","","","","","","","",""
"","deliberation","","html-keyboard-response","127","1828591","0.0-75.0-1.0","0","0","oQjkh","Scenes","","null","","","null","","","","19","110","101","0","1","65","64","bruno-van-der-kraan-qez8mNJ3ilU-unsplash.jpg","aniket-deole-T-tOgjWZ0fQ-unsplash.jpg","2","","","","","","","","","","","","","","","","","","","","","","","","","","","","","","",""
"","deliberation_too_slow","","html-keyboard-response","128","1830095","0.0-75.0-4.0-0.0","1","0","oQjkh","Scenes","","null","","","null","","","","19","","","","","","","","","","","","","","","","","","","","","","","","","","","","","","","","","","","","","","","",""
"","fixation","","html-keyboard-response","129","1831099","0.0-75.1-0.1","0","0","oQjkh","Scenes","","null","","","null","","","","","","","","","","","","","","","","","","","","","","","","","","","","","","","","","","","","","","","","","","","",""
"","deliberation","","html-keyboard-response","130","1831255","0.0-75.1-1.1","0","0","oQjkh","Scenes","","152","","","75","","","","19","110","101","0","1","65","64","bruno-van-der-kraan-qez8mNJ3ilU-unsplash.jpg","aniket-deole-T-tOgjWZ0fQ-unsplash.jpg","2","0","101","110","","","","","","","","","","","","","","","","","","","","","","","","","","","",""
"","choice_confirmation","","html-keyboard-response","131","1831759","0.0-75.1-2.1-0.1","0","0","oQjkh","Scenes","","null","","","null","","","","19","110","101","","","","","","","","","","","","","","","","","","","","","","","","","","","","","","","","","","","","","",""
"","deliberation_too_fast","","html-keyboard-response","132","1833267","0.0-75.1-3.1-0.1","1","0","oQjkh","Scenes","","null","","","null","","","","19","","","","","","","","","","","","","","","","","","","","","","","","","","","","","","","","","","","","","","","",""
"","fixation","","html-keyboard-response","133","1834274","0.0-76.0-0.0","0","0","oQjkh","Scenes","","null","","","null","","","","","","","","","","","","","","","","","","","","","","","","","","","","","","","","","","","","","","","","","","","",""
"","deliberation","","html-keyboard-response","134","1837028","0.0-76.0-1.0","0","0","oQjkh","Scenes","","2752","","","75","","","","20","127","146","1","1","65","58","kace-rodriguez-p3OzJuT_Dks-unsplash.jpg","thomas-morse-cuKKa0vWZSY-unsplash.jpg","2","0","146","127","","","","","","","","","","","","","","","","","","","","","","","","","","","",""
"","choice_confirmation","","html-keyboard-response","135","1837533","0.0-76.0-2.0-0.0","0","0","oQjkh","Scenes","","null","","","null","","","","20","127","146","","","","","","","","","","","","","","","","","","","","","","","","","","","","","","","","","","","","","",""
"","explain_trial","","survey-text","136","1868019","0.0-76.0-5.0-0.0","0","0","oQjkh","Scenes","","30482","{""Q0"":""The more colorful options are probably more appealing to most viewers.""}","","","","","","20","127","146","","","","","","","","","","","{""Q0"":""The more colorful options are probably more appealing to most viewers.""}","","","","","","","","","","","","","","","","","","","","","","","","","","",""
"","fixation","","html-keyboard-response","137","1869027","0.0-77.0-0.0","0","0","oQjkh","Scenes","","null","","","null","","","","","","","","","","","","","","","","","","","","","","","","","","","","","","","","","","","","","","","","","","","",""
"","deliberation","","html-keyboard-response","138","1871028","0.0-77.0-1.0","0","0","oQjkh","Scenes","","1997","","","75","","","","21","141","117","1","-1","71","72","sebastian-unrau-v4e3JI7DDHI-unsplash.jpg","frank-mckenna-OD9EOzfSOh0-unsplash.jpg","2","0","117","141","","","","","","","","","","","","","","","","","","","","","","","","","","","",""
"","choice_confirmation","","html-keyboard-response","139","1871533","0.0-77.0-2.0-0.0","0","0","oQjkh","Scenes","","null","","","null","","","","21","141","117","","","","","","","","","","","","","","","","","","","","","","","","","","","","","","","","","","","","","",""
"","explain_trial","","survey-text","140","1907004","0.0-77.0-5.0-0.0","0","0","oQjkh","Scenes","","35466","{""Q0"":""I think beach scenes are popular sellers, especially since the coloration of this particular photo is striking.""}","","","","","","21","141","117","","","","","","","","","","","{""Q0"":""I think beach scenes are popular sellers, especially since the coloration of this particular photo is striking.""}","","","","","","","","","","","","","","","","","","","","","","","","","","",""
"","fixation","","html-keyboard-response","141","1908008","0.0-78.0-0.0","0","0","oQjkh","Scenes","","null","","","null","","","","","","","","","","","","","","","","","","","","","","","","","","","","","","","","","","","","","","","","","","","",""
"","deliberation","","html-keyboard-response","142","1910238","0.0-78.0-1.0","0","0","oQjkh","Scenes","","2224","","","75","","","","22","130","111","0","-1","71","59","lina-loos-04-C1NZk1hE-unsplash.jpg","claudio-testa-U3F2o6vz3bs-unsplash.jpg","2","0","111","130","","","","","","","","","","","","","","","","","","","","","","","","","","","",""
"","choice_confirmation","","html-keyboard-response","143","1910742","0.0-78.0-2.0-0.0","0","0","oQjkh","Scenes","","null","","","null","","","","22","130","111","","","","","","","","","","","","","","","","","","","","","","","","","","","","","","","","","","","","","",""
"","fixation","","html-keyboard-response","144","1911750","0.0-79.0-0.0","0","0","oQjkh","Scenes","","null","","","null","","","","","","","","","","","","","","","","","","","","","","","","","","","","","","","","","","","","","","","","","","","",""
"","deliberation","","html-keyboard-response","145","1914645","0.0-79.0-1.0","0","0","oQjkh","Scenes","","2890","","","75","","","","23","114","132","0","-1","60","72","daniel-sessler-z_9VmsxR8hs-unsplash.jpg","meng-ji-8BH_M-53CyA-unsplash.jpg","2","0","132","114","","","","","","","","","","","","","","","","","","","","","","","","","","","",""
"","choice_confirmation","","html-keyboard-response","146","1915151","0.0-79.0-2.0-0.0","0","0","oQjkh","Scenes","","null","","","null","","","","23","114","132","","","","","","","","","","","","","","","","","","","","","","","","","","","","","","","","","","","","","",""
"","start_critical_deliberation_block","","html-keyboard-response","147","1920116","0.0-79.0-7.0-0.0","0","0","oQjkh","Scenes","","4962","","","78","","","","","","","","","","","","","","","","","","","","","","","","","","","","","","","","","","","","","","","","","","","",""
"","fixation","","html-keyboard-response","148","1921124","0.0-80.0-0.0","0","0","oQjkh","Scenes","","null","","","null","","","","","","","","","","","","","","","","","","","","","","","","","","","","","","","","","","","","","","","","","","","",""
"","deliberation","","html-keyboard-response","149","1923181","0.0-80.0-1.0","0","0","oQjkh","Scenes","","2052","","","75","","","","24","127","146","0","1","65","58","kace-rodriguez-p3OzJuT_Dks-unsplash.jpg","thomas-morse-cuKKa0vWZSY-unsplash.jpg","3","0","146","127","","","","","","","","","","","","","","","","","","","","","","","","","","","",""
"","choice_confirmation","","html-keyboard-response","150","1923686","0.0-80.0-2.0-0.0","0","0","oQjkh","Scenes","","null","","","null","","","","24","127","146","","","","","","","","","","","","","","","","","","","","","","","","","","","","","","","","","","","","","",""
"","fixation","","html-keyboard-response","151","1924694","0.0-81.0-0.0","0","0","oQjkh","Scenes","","null","","","null","","","","","","","","","","","","","","","","","","","","","","","","","","","","","","","","","","","","","","","","","","","",""
"","deliberation","","html-keyboard-response","152","1925845","0.0-81.0-1.0","0","0","oQjkh","Scenes","","1146","","","75","","","","25","130","111","0","-1","71","59","lina-loos-04-C1NZk1hE-unsplash.jpg","claudio-testa-U3F2o6vz3bs-unsplash.jpg","3","0","111","130","","","","","","","","","","","","","","","","","","","","","","","","","","","",""
"","choice_confirmation","","html-keyboard-response","153","1926350","0.0-81.0-2.0-0.0","0","0","oQjkh","Scenes","","null","","","null","","","","25","130","111","","","","","","","","","","","","","","","","","","","","","","","","","","","","","","","","","","","","","",""
"","fixation","","html-keyboard-response","154","1927357","0.0-82.0-0.0","0","0","oQjkh","Scenes","","null","","","null","","","","","","","","","","","","","","","","","","","","","","","","","","","","","","","","","","","","","","","","","","","",""
"","deliberation","","html-keyboard-response","155","1928177","0.0-82.0-1.0","0","0","oQjkh","Scenes","","818","","","75","","","","26","114","132","0","-1","60","72","daniel-sessler-z_9VmsxR8hs-unsplash.jpg","meng-ji-8BH_M-53CyA-unsplash.jpg","3","0","132","114","","","","","","","","","","","","","","","","","","","","","","","","","","","",""
"","choice_confirmation","","html-keyboard-response","156","1928683","0.0-82.0-2.0-0.0","0","0","oQjkh","Scenes","","null","","","null","","","","26","114","132","","","","","","","","","","","","","","","","","","","","","","","","","","","","","","","","","","","","","",""
"","fixation","","html-keyboard-response","157","1929692","0.0-83.0-0.0","0","0","oQjkh","Scenes","","null","","","null","","","","","","","","","","","","","","","","","","","","","","","","","","","","","","","","","","","","","","","","","","","",""
"","deliberation","","html-keyboard-response","158","1930700","0.0-83.0-1.0","0","0","oQjkh","Scenes","","1005","","","68","","","","27","143","145","0","1","64","64","sigurdur-fjalar-jonsson-1KxBabIntpE-unsplash.jpg","stephen-leonardi-gyIRjKPXupE-unsplash.jpg","3","1","143","145","","","","","","","","","","","","","","","","","","","","","","","","","","","",""
"","choice_confirmation","","html-keyboard-response","159","1931206","0.0-83.0-2.0-0.0","0","0","oQjkh","Scenes","","null","","","null","","","","27","143","145","","","","","","","","","","","","","","","","","","","","","","","","","","","","","","","","","","","","","",""
"","fixation","","html-keyboard-response","160","1932212","0.0-84.0-0.0","0","0","oQjkh","Scenes","","null","","","null","","","","","","","","","","","","","","","","","","","","","","","","","","","","","","","","","","","","","","","","","","","",""
"","deliberation","","html-keyboard-response","161","1933978","0.0-84.0-1.0","0","0","oQjkh","Scenes","","1763","","","75","","","","28","110","101","0","1","65","64","bruno-van-der-kraan-qez8mNJ3ilU-unsplash.jpg","aniket-deole-T-tOgjWZ0fQ-unsplash.jpg","3","0","101","110","","","","","","","","","","","","","","","","","","","","","","","","","","","",""
"","choice_confirmation","","html-keyboard-response","162","1934483","0.0-84.0-2.0-0.0","0","0","oQjkh","Scenes","","null","","","null","","","","28","110","101","","","","","","","","","","","","","","","","","","","","","","","","","","","","","","","","","","","","","",""
"","fixation","","html-keyboard-response","163","1935488","0.0-85.0-0.0","0","0","oQjkh","Scenes","","null","","","null","","","","","","","","","","","","","","","","","","","","","","","","","","","","","","","","","","","","","","","","","","","",""
"","deliberation","","html-keyboard-response","164","1936658","0.0-85.0-1.0","0","0","oQjkh","Scenes","","1166","","","68","","","","29","133","123","0","1","71","74","mickey-o-neil-xL66l--msXU-unsplash.jpg","joel-jasmin-forestbird-efuwb5eBDrI-unsplash.jpg","3","1","133","123","","","","","","","","","","","","","","","","","","","","","","","","","","","",""
"","choice_confirmation","","html-keyboard-response","165","1937162","0.0-85.0-2.0-0.0","0","0","oQjkh","Scenes","","null","","","null","","","","29","133","123","","","","","","","","","","","","","","","","","","","","","","","","","","","","","","","","","","","","","",""
"","fixation","","html-keyboard-response","166","1938168","0.0-86.0-0.0","0","0","oQjkh","Scenes","","null","","","null","","","","","","","","","","","","","","","","","","","","","","","","","","","","","","","","","","","","","","","","","","","",""
"","deliberation","","html-keyboard-response","167","1938913","0.0-86.0-1.0","0","0","oQjkh","Scenes","","741","","","75","","","","30","141","117","0","-1","71","72","sebastian-unrau-v4e3JI7DDHI-unsplash.jpg","frank-mckenna-OD9EOzfSOh0-unsplash.jpg","3","0","117","141","","","","","","","","","","","","","","","","","","","","","","","","","","","",""
"","choice_confirmation","","html-keyboard-response","168","1939418","0.0-86.0-2.0-0.0","0","0","oQjkh","Scenes","","null","","","null","","","","30","141","117","","","","","","","","","","","","","","","","","","","","","","","","","","","","","","","","","","","","","",""
"","fixation","","html-keyboard-response","169","1940425","0.0-87.0-0.0","0","0","oQjkh","Scenes","","null","","","null","","","","","","","","","","","","","","","","","","","","","","","","","","","","","","","","","","","","","","","","","","","",""
"","deliberation","","html-keyboard-response","170","1941217","0.0-87.0-1.0","0","0","oQjkh","Scenes","","791","","","75","","","","31","118","139","0","1","73","60","henry-be-NLF6hTe4PAg-unsplash.jpg","samsommer-vddccTqwal8-unsplash.jpg","3","0","139","118","","","","","","","","","","","","","","","","","","","","","","","","","","","",""
"","choice_confirmation","","html-keyboard-response","171","1941721","0.0-87.0-2.0-0.0","0","0","oQjkh","Scenes","","null","","","null","","","","31","118","139","","","","","","","","","","","","","","","","","","","","","","","","","","","","","","","","","","","","","",""
"","fixation","","html-keyboard-response","172","1942725","0.0-88.0-0.0","0","0","oQjkh","Scenes","","null","","","null","","","","","","","","","","","","","","","","","","","","","","","","","","","","","","","","","","","","","","","","","","","",""
"","deliberation","","html-keyboard-response","173","1944108","0.0-88.0-1.0","0","0","oQjkh","Scenes","","1380","","","75","","","","32","135","147","0","-1","63","73","mohammad-alizade-4wzRuAb-KWs-unsplash.jpg","tobias-keller-73F4pKoUkM0-unsplash.jpg","3","0","147","135","","","","","","","","","","","","","","","","","","","","","","","","","","","",""
"","choice_confirmation","","html-keyboard-response","174","1944611","0.0-88.0-2.0-0.0","0","0","oQjkh","Scenes","","null","","","null","","","","32","135","147","","","","","","","","","","","","","","","","","","","","","","","","","","","","","","","","","","","","","",""
"","fixation","","html-keyboard-response","175","1945618","0.0-89.0-0.0","0","0","oQjkh","Scenes","","null","","","null","","","","","","","","","","","","","","","","","","","","","","","","","","","","","","","","","","","","","","","","","","","",""
"","deliberation","","html-keyboard-response","176","1946439","0.0-89.0-1.0","0","0","oQjkh","Scenes","","816","","","75","","","","33","126","107","0","-1","65","68","jordan-mcqueen-PJCZOWuOxbU-unsplash.jpg","benjamin-davies-Zm2n2O7Fph4-unsplash.jpg","3","0","107","126","","","","","","","","","","","","","","","","","","","","","","","","","","","",""
"","choice_confirmation","","html-keyboard-response","177","1946942","0.0-89.0-2.0-0.0","0","0","oQjkh","Scenes","","null","","","null","","","","33","126","107","","","","","","","","","","","","","","","","","","","","","","","","","","","","","","","","","","","","","",""
"","fixation","","html-keyboard-response","178","1947948","0.0-90.0-0.0","0","0","oQjkh","Scenes","","null","","","null","","","","","","","","","","","","","","","","","","","","","","","","","","","","","","","","","","","","","","","","","","","",""
"","deliberation","","html-keyboard-response","179","1948708","0.0-90.0-1.0","0","0","oQjkh","Scenes","","756","","","68","","","","34","119","148","0","-1","68","65","james-wheeler-AFC0XvICMgs-unsplash.jpg","tom-gainor-ZqLeQDjY6fY-unsplash.jpg","3","1","119","148","","","","","","","","","","","","","","","","","","","","","","","","","","","",""
"","choice_confirmation","","html-keyboard-response","180","1949212","0.0-90.0-2.0-0.0","0","0","oQjkh","Scenes","","null","","","null","","","","34","119","148","","","","","","","","","","","","","","","","","","","","","","","","","","","","","","","","","","","","","",""
"","fixation","","html-keyboard-response","181","1950220","0.0-91.0-0.0","0","0","oQjkh","Scenes","","null","","","null","","","","","","","","","","","","","","","","","","","","","","","","","","","","","","","","","","","","","","","","","","","",""
"","deliberation","","html-keyboard-response","182","1951962","0.0-91.0-1.0","0","0","oQjkh","Scenes","","1739","","","68","","","","35","109","124","0","1","67","65","brigitta-schneiter-hXXRLtTxXCU-unsplash.jpg","johannes-plenio-sPt5RIjKfpk-unsplash.jpg","3","1","109","124","","","","","","","","","","","","","","","","","","","","","","","","","","","",""
"","choice_confirmation","","html-keyboard-response","183","1952476","0.0-91.0-2.0-0.0","0","0","oQjkh","Scenes","","null","","","null","","","","35","109","124","","","","","","","","","","","","","","","","","","","","","","","","","","","","","","","","","","","","","",""
"","reward_learning_instructions","","instructions","184","1999581","0.0-92.0-0.0","0","0","oQjkh","Scenes","[{""page_index"":0,""viewing_time"":23204},{""page_index"":1,""viewing_time"":21336},{""page_index"":2,""viewing_time"":2560}]","47101","","","","","","","","","","","","","","","","","","","","","","","","","","","","","","","","","","","","","","","","","","","","","","",""
"","reward_comprehension_check","","survey-multi-choice","185","2010091","0.0-92.0-1.0","0","0","oQjkh","Scenes","","10500","{""Q0"":""True"",""Q1"":""True"",""Q2"":""Press the space bar to see its outcome"",""Q3"":""Press the relevant key while the outcome is presented""}","0","","","","","","","","","","","","","","","","","","","","","","","","","","","","","","","","","","","","","","","","","","","","",""
"","start_phase","","html-keyboard-response","186","2011652","0.0-93.0","0","0","oQjkh","Scenes","","1557","","","78","","","","","","","","","","","","","","","","","","","","","","","","","","","","","","","","","","","","","","","","","","","",""
"","fixation","","html-keyboard-response","187","2012657","0.0-94.0","0","0","oQjkh","Scenes","","null","","","null","","","","","","","","","","","","","","","","","","","","","","","","","","","","","","","","","","","","","","","","","","","",""
"","see_reward","","html-keyboard-response","188","2013074","0.0-95.0","0","0","oQjkh","Scenes","","412","","","32","","139","","0","","","","1","","","","","1","","","","","149","412","","","","","","","","","","","","","","","","","","","","","","","","",""
"","reward_outcome","","html-keyboard-response","189","2015081","0.0-96.0","0","0","oQjkh","Scenes","","1177","","","38","","139","","0","","","","","","","","","","","","","","","","1","1177","","","","","","","","","","","","","","","","","","","","","","",""
"","fixation","","html-keyboard-response","190","2016090","0.0-99.0","0","0","oQjkh","Scenes","","null","","","null","","","","","","","","","","","","","","","","","","","","","","","","","","","","","","","","","","","","","","","","","","","",""
"","see_reward","","html-keyboard-response","191","2016860","0.0-100.0","0","0","oQjkh","Scenes","","767","","","32","","143","","1","","","","1","","","","","1","","","","","158","767","","","","","","","","","","","","","","","","","","","","","","","","",""
"","reward_outcome","","html-keyboard-response","192","2018866","0.0-101.0","0","0","oQjkh","Scenes","","693","","","38","","143","","1","","","","","","","","","","","","","","","","1","693","","","","","","","","","","","","","","","","","","","","","","",""
"","fixation","","html-keyboard-response","193","2019870","0.0-104.0","0","0","oQjkh","Scenes","","null","","","null","","","","","","","","","","","","","","","","","","","","","","","","","","","","","","","","","","","","","","","","","","","",""
"","see_reward","","html-keyboard-response","194","2020412","0.0-105.0","0","0","oQjkh","Scenes","","539","","","32","","109","","2","","","","1","","","","","1","","","","","151","539","","","","","","","","","","","","","","","","","","","","","","","","",""
"","reward_outcome","","html-keyboard-response","195","2022420","0.0-106.0","0","0","oQjkh","Scenes","","645","","","38","","109","","2","","","","","","","","","","","","","","","","1","645","","","","","","","","","","","","","","","","","","","","","","",""
"","fixation","","html-keyboard-response","196","2023426","0.0-109.0","0","0","oQjkh","Scenes","","null","","","null","","","","","","","","","","","","","","","","","","","","","","","","","","","","","","","","","","","","","","","","","","","",""
"","see_reward","","html-keyboard-response","197","2023971","0.0-110.0","0","0","oQjkh","Scenes","","542","","","32","","146","","3","","","","1","","","","","1","","","","","150","542","","","","","","","","","","","","","","","","","","","","","","","","",""
"","reward_outcome","","html-keyboard-response","198","2025979","0.0-111.0","0","0","oQjkh","Scenes","","779","","","38","","146","","3","","","","","","","","","","","","","","","","1","779","","","","","","","","","","","","","","","","","","","","","","",""
"","fixation","","html-keyboard-response","199","2026986","0.0-114.0","0","0","oQjkh","Scenes","","null","","","null","","","","","","","","","","","","","","","","","","","","","","","","","","","","","","","","","","","","","","","","","","","",""
"","see_reward","","html-keyboard-response","200","2027540","0.0-115.0","0","0","oQjkh","Scenes","","551","","","32","","132","","4","","","","-1","","","","","1","","","","","0","551","","","","","","","","","","","","","","","","","","","","","","","","",""
"","reward_outcome","","html-keyboard-response","201","2029547","0.0-116.0","0","0","oQjkh","Scenes","","741","","","40","","132","","4","","","","","","","","","","","","","","","","-1","741","","","","","","","","","","","","","","","","","","","","","","",""
"","fixation","","html-keyboard-response","202","2030556","0.0-119.0","0","0","oQjkh","Scenes","","null","","","null","","","","","","","","","","","","","","","","","","","","","","","","","","","","","","","","","","","","","","","","","","","",""
"","see_reward","","html-keyboard-response","203","2031189","0.0-120.0","0","0","oQjkh","Scenes","","629","","","32","","147","","5","","","","-1","","","","","1","","","","","0","629","","","","","","","","","","","","","","","","","","","","","","","","",""
"","reward_outcome","","html-keyboard-response","204","2033194","0.0-121.0","0","0","oQjkh","Scenes","","771","","","40","","147","","5","","","","","","","","","","","","","","","","-1","771","","","","","","","","","","","","","","","","","","","","","","",""
"","fixation","","html-keyboard-response","205","2034202","0.0-124.0","0","0","oQjkh","Scenes","","null","","","null","","","","","","","","","","","","","","","","","","","","","","","","","","","","","","","","","","","","","","","","","","","",""
"","see_reward","","html-keyboard-response","206","2034604","0.0-125.0","0","0","oQjkh","Scenes","","398","","","32","","133","","6","","","","1","","","","","1","","","","","160","398","","","","","","","","","","","","","","","","","","","","","","","","",""
"","reward_outcome","","html-keyboard-response","207","2036609","0.0-126.0","0","0","oQjkh","Scenes","","685","","","38","","133","","6","","","","","","","","","","","","","","","","1","685","","","","","","","","","","","","","","","","","","","","","","",""
"","fixation","","html-keyboard-response","208","2037616","0.0-129.0","0","0","oQjkh","Scenes","","null","","","null","","","","","","","","","","","","","","","","","","","","","","","","","","","","","","","","","","","","","","","","","","","",""
"","see_reward","","html-keyboard-response","209","2038067","0.0-130.0","0","0","oQjkh","Scenes","","447","","","32","","117","","7","","","","-1","","","","","1","","","","","0","447","","","","","","","","","","","","","","","","","","","","","","","","",""
"","reward_outcome","","html-keyboard-response","210","2040075","0.0-131.0","0","0","oQjkh","Scenes","","766","","","40","","117","","7","","","","","","","","","","","","","","","","-1","766","","","","","","","","","","","","","","","","","","","","","","",""
"","fixation","","html-keyboard-response","211","2041081","0.0-134.0","0","0","oQjkh","Scenes","","null","","","null","","","","","","","","","","","","","","","","","","","","","","","","","","","","","","","","","","","","","","","","","","","",""
"","see_reward","","html-keyboard-response","212","2041638","0.0-135.0","0","0","oQjkh","Scenes","","552","","","32","","111","","8","","","","-1","","","","","1","","","","","0","552","","","","","","","","","","","","","","","","","","","","","","","","",""
"","reward_outcome","","html-keyboard-response","213","2043644","0.0-136.0","0","0","oQjkh","Scenes","","611","","","40","","111","","8","","","","","","","","","","","","","","","","-1","611","","","","","","","","","","","","","","","","","","","","","","",""
"","fixation","","html-keyboard-response","214","2044651","0.0-139.0","0","0","oQjkh","Scenes","","null","","","null","","","","","","","","","","","","","","","","","","","","","","","","","","","","","","","","","","","","","","","","","","","",""
"","see_reward","","html-keyboard-response","215","2045211","0.0-140.0","0","0","oQjkh","Scenes","","557","","","32","","109","","9","","","","1","","","","","1","","","","","151","557","","","","","","","","","","","","","","","","","","","","","","","","",""
"","reward_outcome","","html-keyboard-response","216","2047219","0.0-141.0","0","0","oQjkh","Scenes","","661","","","38","","109","","9","","","","","","","","","","","","","","","","1","661","","","","","","","","","","","","","","","","","","","","","","",""
"","fixation","","html-keyboard-response","217","2048225","0.0-144.0","0","0","oQjkh","Scenes","","null","","","null","","","","","","","","","","","","","","","","","","","","","","","","","","","","","","","","","","","","","","","","","","","",""
"","see_reward","","html-keyboard-response","218","2048667","0.0-145.0","0","0","oQjkh","Scenes","","438","","","32","","139","","10","","","","1","","","","","1","","","","","149","438","","","","","","","","","","","","","","","","","","","","","","","","",""
"","reward_outcome","","html-keyboard-response","219","2050675","0.0-146.0","0","0","oQjkh","Scenes","","628","","","38","","139","","10","","","","","","","","","","","","","","","","1","628","","","","","","","","","","","","","","","","","","","","","","",""
"","fixation","","html-keyboard-response","220","2051683","0.0-149.0","0","0","oQjkh","Scenes","","null","","","null","","","","","","","","","","","","","","","","","","","","","","","","","","","","","","","","","","","","","","","","","","","",""
"","see_reward","","html-keyboard-response","221","2052076","0.0-150.0","0","0","oQjkh","Scenes","","389","","","32","","146","","11","","","","1","","","","","1","","","","","150","389","","","","","","","","","","","","","","","","","","","","","","","","",""
"","reward_outcome","","html-keyboard-response","222","2054085","0.0-151.0","0","0","oQjkh","Scenes","","669","","","38","","146","","11","","","","","","","","","","","","","","","","1","669","","","","","","","","","","","","","","","","","","","","","","",""
"","fixation","","html-keyboard-response","223","2055092","0.0-154.0","0","0","oQjkh","Scenes","","null","","","null","","","","","","","","","","","","","","","","","","","","","","","","","","","","","","","","","","","","","","","","","","","",""
"","see_reward","","html-keyboard-response","224","2055612","0.0-155.0","0","0","oQjkh","Scenes","","517","","","32","","119","","12","","","","-1","","","","","1","","","","","0","517","","","","","","","","","","","","","","","","","","","","","","","","",""
"","reward_outcome","","html-keyboard-response","225","2057620","0.0-156.0","0","0","oQjkh","Scenes","","581","","","40","","119","","12","","","","","","","","","","","","","","","","-1","581","","","","","","","","","","","","","","","","","","","","","","",""
"","fixation","","html-keyboard-response","226","2058629","0.0-159.0","0","0","oQjkh","Scenes","","null","","","null","","","","","","","","","","","","","","","","","","","","","","","","","","","","","","","","","","","","","","","","","","","",""
"","see_reward","","html-keyboard-response","227","2059140","0.0-160.0","0","0","oQjkh","Scenes","","506","","","32","","147","","13","","","","-1","","","","","1","","","","","0","506","","","","","","","","","","","","","","","","","","","","","","","","",""
"","reward_outcome","","html-keyboard-response","228","2061145","0.0-161.0","0","0","oQjkh","Scenes","","637","","","40","","147","","13","","","","","","","","","","","","","","","","-1","637","","","","","","","","","","","","","","","","","","","","","","",""
"","fixation","","html-keyboard-response","229","2062154","0.0-164.0","0","0","oQjkh","Scenes","","null","","","null","","","","","","","","","","","","","","","","","","","","","","","","","","","","","","","","","","","","","","","","","","","",""
"","see_reward","","html-keyboard-response","230","2062645","0.0-165.0","0","0","oQjkh","Scenes","","487","","","32","","107","","14","","","","-1","","","","","1","","","","","0","487","","","","","","","","","","","","","","","","","","","","","","","","",""
"","reward_outcome","","html-keyboard-response","231","2064650","0.0-166.0","0","0","oQjkh","Scenes","","732","","","40","","107","","14","","","","","","","","","","","","","","","","-1","732","","","","","","","","","","","","","","","","","","","","","","",""
"","fixation","","html-keyboard-response","232","2065658","0.0-169.0","0","0","oQjkh","Scenes","","null","","","null","","","","","","","","","","","","","","","","","","","","","","","","","","","","","","","","","","","","","","","","","","","",""
"","see_reward","","html-keyboard-response","233","2065716","0.0-170.0","0","0","oQjkh","Scenes","","54","","","32","","107","","15","","","","-1","","","","","1","","","","","0","54","","","","","","","","","","","","","","","","","","","","","","","","",""
"","reward_outcome","","html-keyboard-response","234","2067723","0.0-171.0","0","0","oQjkh","Scenes","","1315","","","40","","107","","15","","","","","","","","","","","","","","","","-1","1315","","","","","","","","","","","","","","","","","","","","","","",""
"","fixation","","html-keyboard-response","235","2068732","0.0-174.0","0","0","oQjkh","Scenes","","null","","","null","","","","","","","","","","","","","","","","","","","","","","","","","","","","","","","","","","","","","","","","","","","",""
"","see_reward","","html-keyboard-response","236","2069306","0.0-175.0","0","0","oQjkh","Scenes","","571","","","32","","111","","16","","","","-1","","","","","1","","","","","0","571","","","","","","","","","","","","","","","","","","","","","","","","",""
"","reward_outcome","","html-keyboard-response","237","2071315","0.0-176.0","0","0","oQjkh","Scenes","","831","","","40","","111","","16","","","","","","","","","","","","","","","","-1","831","","","","","","","","","","","","","","","","","","","","","","",""
"","fixation","","html-keyboard-response","238","2072322","0.0-179.0","0","0","oQjkh","Scenes","","null","","","null","","","","","","","","","","","","","","","","","","","","","","","","","","","","","","","","","","","","","","","","","","","",""
"","see_reward","","html-keyboard-response","239","2072840","0.0-180.0","0","0","oQjkh","Scenes","","515","","","32","","133","","17","","","","1","","","","","1","","","","","160","515","","","","","","","","","","","","","","","","","","","","","","","","",""
"","reward_outcome","","html-keyboard-response","240","2074845","0.0-181.0","0","0","oQjkh","Scenes","","750","","","38","","133","","17","","","","","","","","","","","","","","","","1","750","","","","","","","","","","","","","","","","","","","","","","",""
"","fixation","","html-keyboard-response","241","2075849","0.0-184.0","0","0","oQjkh","Scenes","","null","","","null","","","","","","","","","","","","","","","","","","","","","","","","","","","","","","","","","","","","","","","","","","","",""
"","see_reward","","html-keyboard-response","242","2076284","0.0-185.0","0","0","oQjkh","Scenes","","431","","","32","","117","","18","","","","-1","","","","","1","","","","","0","431","","","","","","","","","","","","","","","","","","","","","","","","",""
"","reward_outcome","","html-keyboard-response","243","2078288","0.0-186.0","0","0","oQjkh","Scenes","","893","","","40","","117","","18","","","","","","","","","","","","","","","","-1","893","","","","","","","","","","","","","","","","","","","","","","",""
"","fixation","","html-keyboard-response","244","2079296","0.0-189.0","0","0","oQjkh","Scenes","","null","","","null","","","","","","","","","","","","","","","","","","","","","","","","","","","","","","","","","","","","","","","","","","","",""
"","see_reward","","html-keyboard-response","245","2079876","0.0-190.0","0","0","oQjkh","Scenes","","576","","","32","","101","","19","","","","1","","","","","1","","","","","159","576","","","","","","","","","","","","","","","","","","","","","","","","",""
"","reward_outcome","","html-keyboard-response","246","2081884","0.0-191.0","0","0","oQjkh","Scenes","","763","","","38","","101","","19","","","","","","","","","","","","","","","","1","763","","","","","","","","","","","","","","","","","","","","","","",""
"","fixation","","html-keyboard-response","247","2082891","0.0-194.0","0","0","oQjkh","Scenes","","null","","","null","","","","","","","","","","","","","","","","","","","","","","","","","","","","","","","","","","","","","","","","","","","",""
"","see_reward","","html-keyboard-response","248","2083258","0.0-195.0","0","0","oQjkh","Scenes","","365","","","32","","101","","20","","","","1","","","","","1","","","","","159","365","","","","","","","","","","","","","","","","","","","","","","","","",""
"","reward_outcome","","html-keyboard-response","249","2085267","0.0-196.0","0","0","oQjkh","Scenes","","1052","","","38","","101","","20","","","","","","","","","","","","","","","","1","1052","","","","","","","","","","","","","","","","","","","","","","",""
"","fixation","","html-keyboard-response","250","2086275","0.0-199.0","0","0","oQjkh","Scenes","","null","","","null","","","","","","","","","","","","","","","","","","","","","","","","","","","","","","","","","","","","","","","","","","","",""
"","see_reward","","html-keyboard-response","251","2086756","0.0-200.0","0","0","oQjkh","Scenes","","476","","","32","","132","","21","","","","-1","","","","","1","","","","","0","476","","","","","","","","","","","","","","","","","","","","","","","","",""
"","reward_outcome","","html-keyboard-response","252","2088761","0.0-201.0","0","0","oQjkh","Scenes","","669","","","40","","132","","21","","","","","","","","","","","","","","","","-1","669","","","","","","","","","","","","","","","","","","","","","","",""
"","fixation","","html-keyboard-response","253","2089768","0.0-204.0","0","0","oQjkh","Scenes","","null","","","null","","","","","","","","","","","","","","","","","","","","","","","","","","","","","","","","","","","","","","","","","","","",""
"","see_reward","","html-keyboard-response","254","2090252","0.0-205.0","0","0","oQjkh","Scenes","","480","","","32","","143","","22","","","","1","","","","","1","","","","","158","480","","","","","","","","","","","","","","","","","","","","","","","","",""
"","reward_outcome","","html-keyboard-response","255","2092256","0.0-206.0","0","0","oQjkh","Scenes","","733","","","38","","143","","22","","","","","","","","","","","","","","","","1","733","","","","","","","","","","","","","","","","","","","","","","",""
"","fixation","","html-keyboard-response","256","2093260","0.0-209.0","0","0","oQjkh","Scenes","","null","","","null","","","","","","","","","","","","","","","","","","","","","","","","","","","","","","","","","","","","","","","","","","","",""
"","see_reward","","html-keyboard-response","257","2093925","0.0-210.0","0","0","oQjkh","Scenes","","660","","","32","","119","","23","","","","-1","","","","","1","","","","","0","660","","","","","","","","","","","","","","","","","","","","","","","","",""
"","reward_outcome","","html-keyboard-response","258","2095933","0.0-211.0","0","0","oQjkh","Scenes","","620","","","40","","119","","23","","","","","","","","","","","","","","","","-1","620","","","","","","","","","","","","","","","","","","","","","","",""
"","block_over","","html-keyboard-response","259","2098444","0.0-213.0-0.0","0","0","oQjkh","Scenes","","2508","","","78","","","","","","","","","","","","","","","","","","","","","","","","","","","","","","","","","","","","","","","","","","","",""
"","fixation","","html-keyboard-response","260","2099447","0.0-214.0","0","0","oQjkh","Scenes","","null","","","null","","","","","","","","","","","","","","","","","","","","","","","","","","","","","","","","","","","","","","","","","","","",""
"","see_reward","","html-keyboard-response","261","2099827","0.0-215.0","0","0","oQjkh","Scenes","","378","","","32","","139","","24","","","","1","","","","","2","","","","","149","378","","","","","","","","","","","","","","","","","","","","","","","","",""
"","reward_outcome","","html-keyboard-response","262","2101831","0.0-216.0","0","0","oQjkh","Scenes","","693","","","38","","139","","24","","","","","","","","","","","","","","","","1","693","","","","","","","","","","","","","","","","","","","","","","",""
"","fixation","","html-keyboard-response","263","2102836","0.0-219.0","0","0","oQjkh","Scenes","","null","","","null","","","","","","","","","","","","","","","","","","","","","","","","","","","","","","","","","","","","","","","","","","","",""
"","see_reward","","html-keyboard-response","264","2103442","0.0-220.0","0","0","oQjkh","Scenes","","602","","","32","","119","","25","","","","-1","","","","","2","","","","","0","602","","","","","","","","","","","","","","","","","","","","","","","","",""
"","reward_outcome","","html-keyboard-response","265","2105447","0.0-221.0","0","0","oQjkh","Scenes","","711","","","40","","119","","25","","","","","","","","","","","","","","","","-1","711","","","","","","","","","","","","","","","","","","","","","","",""
"","fixation","","html-keyboard-response","266","2106456","0.0-224.0","0","0","oQjkh","Scenes","","null","","","null","","","","","","","","","","","","","","","","","","","","","","","","","","","","","","","","","","","","","","","","","","","",""
"","see_reward","","html-keyboard-response","267","2107115","0.0-225.0","0","0","oQjkh","Scenes","","656","","","32","","109","","26","","","","1","","","","","2","","","","","151","656","","","","","","","","","","","","","","","","","","","","","","","","",""
"","reward_outcome","","html-keyboard-response","268","2109123","0.0-226.0","0","0","oQjkh","Scenes","","710","","","38","","109","","26","","","","","","","","","","","","","","","","1","710","","","","","","","","","","","","","","","","","","","","","","",""
"","fixation","","html-keyboard-response","269","2110132","0.0-229.0","0","0","oQjkh","Scenes","","null","","","null","","","","","","","","","","","","","","","","","","","","","","","","","","","","","","","","","","","","","","","","","","","",""
"","see_reward","","html-keyboard-response","270","2110764","0.0-230.0","0","0","oQjkh","Scenes","","629","","","32","","139","","27","","","","1","","","","","2","","","","","149","629","","","","","","","","","","","","","","","","","","","","","","","","",""
"","reward_outcome","","html-keyboard-response","271","2112772","0.0-231.0","0","0","oQjkh","Scenes","","724","","","38","","139","","27","","","","","","","","","","","","","","","","1","724","","","","","","","","","","","","","","","","","","","","","","",""
"","fixation","","html-keyboard-response","272","2113777","0.0-234.0","0","0","oQjkh","Scenes","","null","","","null","","","","","","","","","","","","","","","","","","","","","","","","","","","","","","","","","","","","","","","","","","","",""
"","see_reward","","html-keyboard-response","273","2114444","0.0-235.0","0","0","oQjkh","Scenes","","663","","","32","","133","","28","","","","1","","","","","2","","","","","160","663","","","","","","","","","","","","","","","","","","","","","","","","",""
"","reward_outcome","","html-keyboard-response","274","2116451","0.0-236.0","0","0","oQjkh","Scenes","","676","","","40","","133","","28","","","","","","","","","","","","","","","","-1","676","","","","","","","","","","","","","","","","","","","","","","",""
"","fixation","","html-keyboard-response","275","2117460","0.0-239.0","0","0","oQjkh","Scenes","","null","","","null","","","","","","","","","","","","","","","","","","","","","","","","","","","","","","","","","","","","","","","","","","","",""
"","see_reward","","html-keyboard-response","276","2118036","0.0-240.0","0","0","oQjkh","Scenes","","573","","","32","","101","","29","","","","1","","","","","2","","","","","159","573","","","","","","","","","","","","","","","","","","","","","","","","",""
"","reward_outcome","","html-keyboard-response","277","2120043","0.0-241.0","0","0","oQjkh","Scenes","","772","","","38","","101","","29","","","","","","","","","","","","","","","","1","772","","","","","","","","","","","","","","","","","","","","","","",""
"","fixation","","html-keyboard-response","278","2121050","0.0-244.0","0","0","oQjkh","Scenes","","null","","","null","","","","","","","","","","","","","","","","","","","","","","","","","","","","","","","","","","","","","","","","","","","",""
"","see_reward","","html-keyboard-response","279","2121341","0.0-245.0","0","0","oQjkh","Scenes","","286","","","32","","107","","30","","","","-1","","","","","2","","","","","0","286","","","","","","","","","","","","","","","","","","","","","","","","",""
"","reward_outcome","","html-keyboard-response","280","2123345","0.0-246.0","0","0","oQjkh","Scenes","","764","","","40","","107","","30","","","","","","","","","","","","","","","","-1","764","","","","","","","","","","","","","","","","","","","","","","",""
"","fixation","","html-keyboard-response","281","2124351","0.0-249.0","0","0","oQjkh","Scenes","","null","","","null","","","","","","","","","","","","","","","","","","","","","","","","","","","","","","","","","","","","","","","","","","","",""
"","see_reward","","html-keyboard-response","282","2124795","0.0-250.0","0","0","oQjkh","Scenes","","440","","","32","","111","","31","","","","-1","","","","","2","","","","","0","440","","","","","","","","","","","","","","","","","","","","","","","","",""
"","reward_outcome","","html-keyboard-response","283","2126804","0.0-251.0","0","0","oQjkh","Scenes","","653","","","40","","111","","31","","","","","","","","","","","","","","","","-1","653","","","","","","","","","","","","","","","","","","","","","","",""
"","fixation","","html-keyboard-response","284","2127813","0.0-254.0","0","0","oQjkh","Scenes","","null","","","null","","","","","","","","","","","","","","","","","","","","","","","","","","","","","","","","","","","","","","","","","","","",""
"","see_reward","","html-keyboard-response","285","2128331","0.0-255.0","0","0","oQjkh","Scenes","","514","","","32","","146","","32","","","","1","","","","","2","","","","","150","514","","","","","","","","","","","","","","","","","","","","","","","","",""
"","reward_outcome","","html-keyboard-response","286","2130338","0.0-256.0","0","0","oQjkh","Scenes","","718","","","38","","146","","32","","","","","","","","","","","","","","","","1","718","","","","","","","","","","","","","","","","","","","","","","",""
"","fixation","","html-keyboard-response","287","2131344","0.0-259.0","0","0","oQjkh","Scenes","","null","","","null","","","","","","","","","","","","","","","","","","","","","","","","","","","","","","","","","","","","","","","","","","","",""
"","see_reward","","html-keyboard-response","288","2131940","0.0-260.0","0","0","oQjkh","Scenes","","592","","","32","","133","","33","","","","1","","","","","2","","","","","160","592","","","","","","","","","","","","","","","","","","","","","","","","",""
"","reward_outcome","","html-keyboard-response","289","2133945","0.0-261.0","0","0","oQjkh","Scenes","","764","","","38","","133","","33","","","","","","","","","","","","","","","","1","764","","","","","","","","","","","","","","","","","","","","","","",""
"","fixation","","html-keyboard-response","290","2134951","0.0-264.0","0","0","oQjkh","Scenes","","null","","","null","","","","","","","","","","","","","","","","","","","","","","","","","","","","","","","","","","","","","","","","","","","",""
"","see_reward","","html-keyboard-response","291","2135547","0.0-265.0","0","0","oQjkh","Scenes","","593","","","32","","109","","34","","","","1","","","","","2","","","","","151","593","","","","","","","","","","","","","","","","","","","","","","","","",""
"","reward_outcome","","html-keyboard-response","292","2137552","0.0-266.0","0","0","oQjkh","Scenes","","662","","","38","","109","","34","","","","","","","","","","","","","","","","1","662","","","","","","","","","","","","","","","","","","","","","","",""
"","fixation","","html-keyboard-response","293","2138557","0.0-269.0","0","0","oQjkh","Scenes","","null","","","null","","","","","","","","","","","","","","","","","","","","","","","","","","","","","","","","","","","","","","","","","","","",""
"","see_reward","","html-keyboard-response","294","2138876","0.0-270.0","0","0","oQjkh","Scenes","","316","","","32","","107","","35","","","","-1","","","","","2","","","","","0","316","","","","","","","","","","","","","","","","","","","","","","","","",""
"","reward_outcome","","html-keyboard-response","295","2140882","0.0-271.0","0","0","oQjkh","Scenes","","755","","","40","","107","","35","","","","","","","","","","","","","","","","-1","755","","","","","","","","","","","","","","","","","","","","","","",""
"","fixation","","html-keyboard-response","296","2141890","0.0-274.0","0","0","oQjkh","Scenes","","null","","","null","","","","","","","","","","","","","","","","","","","","","","","","","","","","","","","","","","","","","","","","","","","",""
"","see_reward","","html-keyboard-response","297","2142260","0.0-275.0","0","0","oQjkh","Scenes","","366","","","32","","111","","36","","","","-1","","","","","2","","","","","0","366","","","","","","","","","","","","","","","","","","","","","","","","",""
"","reward_outcome","","html-keyboard-response","298","2144267","0.0-276.0","0","0","oQjkh","Scenes","","789","","","40","","111","","36","","","","","","","","","","","","","","","","-1","789","","","","","","","","","","","","","","","","","","","","","","",""
"","fixation","","html-keyboard-response","299","2145273","0.0-279.0","0","0","oQjkh","Scenes","","null","","","null","","","","","","","","","","","","","","","","","","","","","","","","","","","","","","","","","","","","","","","","","","","",""
"","see_reward","","html-keyboard-response","300","2145811","0.0-280.0","0","0","oQjkh","Scenes","","534","","","32","","132","","37","","","","-1","","","","","2","","","","","0","534","","","","","","","","","","","","","","","","","","","","","","","","",""
"","reward_outcome","","html-keyboard-response","301","2147818","0.0-281.0","0","0","oQjkh","Scenes","","796","","","40","","132","","37","","","","","","","","","","","","","","","","-1","796","","","","","","","","","","","","","","","","","","","","","","",""
"","fixation","","html-keyboard-response","302","2148824","0.0-284.0","0","0","oQjkh","Scenes","","null","","","null","","","","","","","","","","","","","","","","","","","","","","","","","","","","","","","","","","","","","","","","","","","",""
"","see_reward","","html-keyboard-response","303","2149521","0.0-285.0","0","0","oQjkh","Scenes","","694","","","32","","117","","38","","","","-1","","","","","2","","","","","0","694","","","","","","","","","","","","","","","","","","","","","","","","",""
"","reward_outcome","","html-keyboard-response","304","2151528","0.0-286.0","0","0","oQjkh","Scenes","","776","","","40","","117","","38","","","","","","","","","","","","","","","","-1","776","","","","","","","","","","","","","","","","","","","","","","",""
"","fixation","","html-keyboard-response","305","2152534","0.0-289.0","0","0","oQjkh","Scenes","","null","","","null","","","","","","","","","","","","","","","","","","","","","","","","","","","","","","","","","","","","","","","","","","","",""
"","see_reward","","html-keyboard-response","306","2153108","0.0-290.0","0","0","oQjkh","Scenes","","571","","","32","","147","","39","","","","-1","","","","","2","","","","","0","571","","","","","","","","","","","","","","","","","","","","","","","","",""
"","reward_outcome","","html-keyboard-response","307","2155115","0.0-291.0","0","0","oQjkh","Scenes","","780","","","40","","147","","39","","","","","","","","","","","","","","","","-1","780","","","","","","","","","","","","","","","","","","","","","","",""
"","fixation","","html-keyboard-response","308","2156123","0.0-294.0","0","0","oQjkh","Scenes","","null","","","null","","","","","","","","","","","","","","","","","","","","","","","","","","","","","","","","","","","","","","","","","","","",""
"","see_reward","","html-keyboard-response","309","2156724","0.0-295.0","0","0","oQjkh","Scenes","","597","","","32","","147","","40","","","","-1","","","","","2","","","","","0","597","","","","","","","","","","","","","","","","","","","","","","","","",""
"","reward_outcome","","html-keyboard-response","310","2158732","0.0-296.0","0","0","oQjkh","Scenes","","762","","","40","","147","","40","","","","","","","","","","","","","","","","-1","762","","","","","","","","","","","","","","","","","","","","","","",""
"","fixation","","html-keyboard-response","311","2159741","0.0-299.0","0","0","oQjkh","Scenes","","null","","","null","","","","","","","","","","","","","","","","","","","","","","","","","","","","","","","","","","","","","","","","","","","",""
"","see_reward","","html-keyboard-response","312","2160346","0.0-300.0","0","0","oQjkh","Scenes","","602","","","32","","132","","41","","","","-1","","","","","2","","","","","0","602","","","","","","","","","","","","","","","","","","","","","","","","",""
"","reward_outcome","","html-keyboard-response","313","2162349","0.0-301.0","0","0","oQjkh","Scenes","","775","","","40","","132","","41","","","","","","","","","","","","","","","","-1","775","","","","","","","","","","","","","","","","","","","","","","",""
"","fixation","","html-keyboard-response","314","2163357","0.0-304.0","0","0","oQjkh","Scenes","","null","","","null","","","","","","","","","","","","","","","","","","","","","","","","","","","","","","","","","","","","","","","","","","","",""
"","see_reward","","html-keyboard-response","315","2164029","0.0-305.0","0","0","oQjkh","Scenes","","667","","","32","","119","","42","","","","-1","","","","","2","","","","","0","667","","","","","","","","","","","","","","","","","","","","","","","","",""
"","reward_outcome","","html-keyboard-response","316","2166036","0.0-306.0","0","0","oQjkh","Scenes","","868","","","40","","119","","42","","","","","","","","","","","","","","","","-1","868","","","","","","","","","","","","","","","","","","","","","","",""
"","fixation","","html-keyboard-response","317","2167041","0.0-309.0","0","0","oQjkh","Scenes","","null","","","null","","","","","","","","","","","","","","","","","","","","","","","","","","","","","","","","","","","","","","","","","","","",""
"","see_reward","","html-keyboard-response","318","2167372","0.0-310.0","0","0","oQjkh","Scenes","","326","","","32","","101","","43","","","","1","","","","","2","","","","","159","326","","","","","","","","","","","","","","","","","","","","","","","","",""
"","reward_outcome","","html-keyboard-response","319","2169378","0.0-311.0","0","0","oQjkh","Scenes","","677","","","38","","101","","43","","","","","","","","","","","","","","","","1","677","","","","","","","","","","","","","","","","","","","","","","",""
"","fixation","","html-keyboard-response","320","2170383","0.0-314.0","0","0","oQjkh","Scenes","","null","","","null","","","","","","","","","","","","","","","","","","","","","","","","","","","","","","","","","","","","","","","","","","","",""
"","see_reward","","html-keyboard-response","321","2170779","0.0-315.0","0","0","oQjkh","Scenes","","392","","","32","","143","","44","","","","1","","","","","2","","","","","158","392","","","","","","","","","","","","","","","","","","","","","","","","",""
"","reward_outcome","","html-keyboard-response","322","2172785","0.0-316.0","0","0","oQjkh","Scenes","","652","","","38","","143","","44","","","","","","","","","","","","","","","","1","652","","","","","","","","","","","","","","","","","","","","","","",""
"","fixation","","html-keyboard-response","323","2173794","0.0-319.0","0","0","oQjkh","Scenes","","null","","","null","","","","","","","","","","","","","","","","","","","","","","","","","","","","","","","","","","","","","","","","","","","",""
"","see_reward","","html-keyboard-response","324","2174116","0.0-320.0","0","0","oQjkh","Scenes","","317","","","32","","117","","45","","","","-1","","","","","2","","","","","0","317","","","","","","","","","","","","","","","","","","","","","","","","",""
"","reward_outcome","","html-keyboard-response","325","2176123","0.0-321.0","0","0","oQjkh","Scenes","","700","","","40","","117","","45","","","","","","","","","","","","","","","","-1","700","","","","","","","","","","","","","","","","","","","","","","",""
"","fixation","","html-keyboard-response","326","2177132","0.0-324.0","0","0","oQjkh","Scenes","","null","","","null","","","","","","","","","","","","","","","","","","","","","","","","","","","","","","","","","","","","","","","","","","","",""
"","see_reward","","html-keyboard-response","327","2177363","0.0-325.0","0","0","oQjkh","Scenes","","229","","","32","","146","","46","","","","1","","","","","2","","","","","150","229","","","","","","","","","","","","","","","","","","","","","","","","",""
"","reward_outcome","","html-keyboard-response","328","2179370","0.0-326.0","0","0","oQjkh","Scenes","","726","","","38","","146","","46","","","","","","","","","","","","","","","","1","726","","","","","","","","","","","","","","","","","","","","","","",""
"","fixation","","html-keyboard-response","329","2180377","0.0-329.0","0","0","oQjkh","Scenes","","null","","","null","","","","","","","","","","","","","","","","","","","","","","","","","","","","","","","","","","","","","","","","","","","",""
"","see_reward","","html-keyboard-response","330","2180971","0.0-330.0","0","0","oQjkh","Scenes","","590","","","32","","143","","47","","","","1","","","","","2","","","","","158","590","","","","","","","","","","","","","","","","","","","","","","","","",""
"","reward_outcome","","html-keyboard-response","331","2182977","0.0-331.0","0","0","oQjkh","Scenes","","662","","","38","","143","","47","","","","","","","","","","","","","","","","1","662","","","","","","","","","","","","","","","","","","","","","","",""
"","block_over","","html-keyboard-response","332","2184940","0.0-333.0-0.0","0","0","oQjkh","Scenes","","1960","","","78","","","","","","","","","","","","","","","","","","","","","","","","","","","","","","","","","","","","","","","","","","","",""
"","fixation","","html-keyboard-response","333","2185944","0.0-334.0","0","0","oQjkh","Scenes","","null","","","null","","","","","","","","","","","","","","","","","","","","","","","","","","","","","","","","","","","","","","","","","","","",""
"","see_reward","","html-keyboard-response","334","2186252","0.0-335.0","0","0","oQjkh","Scenes","","303","","","32","","117","","48","","","","-1","","","","","3","","","","","0","303","","","","","","","","","","","","","","","","","","","","","","","","",""
"","reward_outcome","","html-keyboard-response","335","2188256","0.0-336.0","0","0","oQjkh","Scenes","","621","","","40","","117","","48","","","","","","","","","","","","","","","","-1","621","","","","","","","","","","","","","","","","","","","","","","",""
"","fixation","","html-keyboard-response","336","2189265","0.0-339.0","0","0","oQjkh","Scenes","","null","","","null","","","","","","","","","","","","","","","","","","","","","","","","","","","","","","","","","","","","","","","","","","","",""
"","see_reward","","html-keyboard-response","337","2189835","0.0-340.0","0","0","oQjkh","Scenes","","567","","","32","","139","","49","","","","1","","","","","3","","","","","149","567","","","","","","","","","","","","","","","","","","","","","","","","",""
"","reward_outcome","","html-keyboard-response","338","2191841","0.0-341.0","0","0","oQjkh","Scenes","","663","","","38","","139","","49","","","","","","","","","","","","","","","","1","663","","","","","","","","","","","","","","","","","","","","","","",""
"","fixation","","html-keyboard-response","339","2192848","0.0-344.0","0","0","oQjkh","Scenes","","null","","","null","","","","","","","","","","","","","","","","","","","","","","","","","","","","","","","","","","","","","","","","","","","",""
"","see_reward","","html-keyboard-response","340","2193172","0.0-345.0","0","0","oQjkh","Scenes","","319","","","32","","143","","50","","","","1","","","","","3","","","","","158","319","","","","","","","","","","","","","","","","","","","","","","","","",""
"","reward_outcome","","html-keyboard-response","341","2195177","0.0-346.0","0","0","oQjkh","Scenes","","741","","","38","","143","","50","","","","","","","","","","","","","","","","1","741","","","","","","","","","","","","","","","","","","","","","","",""
"","fixation","","html-keyboard-response","342","2196183","0.0-349.0","0","0","oQjkh","Scenes","","null","","","null","","","","","","","","","","","","","","","","","","","","","","","","","","","","","","","","","","","","","","","","","","","",""
"","see_reward","","html-keyboard-response","343","2196579","0.0-350.0","0","0","oQjkh","Scenes","","392","","","32","","146","","51","","","","1","","","","","3","","","","","150","392","","","","","","","","","","","","","","","","","","","","","","","","",""
"","reward_outcome","","html-keyboard-response","344","2198586","0.0-351.0","0","0","oQjkh","Scenes","","558","","","38","","146","","51","","","","","","","","","","","","","","","","1","558","","","","","","","","","","","","","","","","","","","","","","",""
"","fixation","","html-keyboard-response","345","2199600","0.0-354.0","0","0","oQjkh","Scenes","","null","","","null","","","","","","","","","","","","","","","","","","","","","","","","","","","","","","","","","","","","","","","","","","","",""
"","see_reward","","html-keyboard-response","346","2200091","0.0-355.0","0","0","oQjkh","Scenes","","488","","","32","","132","","52","","","","-1","","","","","3","","","","","0","488","","","","","","","","","","","","","","","","","","","","","","","","",""
