"success","ttype","start_time","trial_type","trial_index","time_elapsed","internal_node_id","warning","missed_checkup","PID","stim_type","view_history","rt","responses","category","repeat_instructions","key_press","response","stimulus_id","painting","index","stimulus_left","stimulus_right","explain_trial","reward_type","rating_left","rating_right","painting_left","painting_right","block","left_chosen","chosen_obj","unchosen_obj","explain_response","reward_amount","see_reward_rt","register_reward_response","register_reward_rt","deliberation_reward_tally","stimulus_left_deliberation_ind","stimulus_right_deliberation_ind","chosen_trial","gain_left","higher_outcome_chosen","old_pair","chosen_object","rt_pairs","left_object_chosen","rt_object","old_response","new_rating","deliberated_stim","initial_rating","outcome_eval_rt","outcome_eval_response","outcome_eval_gain","outcome_eval_acc","preamble","outcome_eval_confidence","outcome_eval_confidence_rt","total_reward_tally"
"true","full_screen","d01182023hr1359","fullscreen","0","6969","0.0-0.0","0","0","1pow4","People","","","","","","","","","","","","","","","","","","","","","","","","","","","","","","","","","","","","","","","","","","","","","","","","","",""
"","rating_instructions","","instructions","1","17442","0.0-1.0-0.0","0","0","1pow4","People","[{""page_index"":0,""viewing_time"":8818},{""page_index"":1,""viewing_time"":1649}]","10468","","","","","","","","","","","","","","","","","","","","","","","","","","","","","","","","","","","","","","","","","","","","","","","",""
"","","","survey-multi-choice","2","21820","0.0-1.0-1.0","0","0","1pow4","People","","4375","{""Q0"":""True"",""Q1"":""Mouse""}","rating_comprehension_check","0","","","","","","","","","","","","","","","","","","","","","","","","","","","","","","","","","","","","","","","","","","","","",""
"","start_phase","","html-keyboard-response","3","23760","0.0-2.0","0","0","1pow4","People","","1937","","","","78","","","","","","","","","","","","","","","","","","","","","","","","","","","","","","","","","","","","","","","","","","","",""
"","rating","","html-slider-response","4","27589","0.0-3.0","0","0","1pow4","People","","3827","","","","","61","36","ospan-ali-mGdA2fzjWLo-unsplash.jpg","0","","","","","","","","","","","","","","","","","","","","","","","","","","","","","","","","","","","","","","","",""
"","rating","","html-slider-response","5","30332","0.0-4.0","0","0","1pow4","People","","2741","","","","","77","48","velizar-ivanov-7ktP9yZA1g4-unsplash.jpg","1","","","","","","","","","","","","","","","","","","","","","","","","","","","","","","","","","","","","","","","",""
"","rating","","html-slider-response","6","33466","0.0-5.0","0","0","1pow4","People","","3134","","","","","56","46","stefan-stefancik-QXevDflbl8A-unsplash.jpg","2","","","","","","","","","","","","","","","","","","","","","","","","","","","","","","","","","","","","","","","",""
"","rating","","html-slider-response","7","35895","0.0-6.0","0","0","1pow4","People","","2427","","","","","65","45","sarah-noltner-pL5ZzPp1zqg-unsplash.jpg","3","","","","","","","","","","","","","","","","","","","","","","","","","","","","","","","","","","","","","","","",""
"","rating","","html-slider-response","8","37965","0.0-7.0","0","0","1pow4","People","","2068","","","","","82","11","christian-ferrer-8vT-DgHZDG4-unsplash.jpg","4","","","","","","","","","","","","","","","","","","","","","","","","","","","","","","","","","","","","","","","",""
"","rating","","html-slider-response","9","40107","0.0-8.0","0","0","1pow4","People","","2141","","","","","54","0","abstral-official-cyOKLSgkgCE-unsplash.jpg","5","","","","","","","","","","","","","","","","","","","","","","","","","","","","","","","","","","","","","","","",""
"","rating","","html-slider-response","10","43744","0.0-9.0","0","0","1pow4","People","","3635","","","","","77","30","matheus-ferrero-pg_WCHWSdT8-unsplash.jpg","6","","","","","","","","","","","","","","","","","","","","","","","","","","","","","","","","","","","","","","","",""
"","rating","","html-slider-response","11","45884","0.0-10.0","0","0","1pow4","People","","2139","","","","","58","2","arjunsyah-TBUA5KHJn6k-unsplash.jpg","7","","","","","","","","","","","","","","","","","","","","","","","","","","","","","","","","","","","","","","","",""
"","rating","","html-slider-response","12","48253","0.0-11.0","0","0","1pow4","People","","2367","","","","","76","23","joanna-nix-walkup-H4fEMshfwTE-unsplash.jpg","8","","","","","","","","","","","","","","","","","","","","","","","","","","","","","","","","","","","","","","","",""
"","rating","","html-slider-response","13","50452","0.0-12.0","0","0","1pow4","People","","2198","","","","","90","7","brooke-cagle-HRZUzoX1e6w-unsplash.jpg","9","","","","","","","","","","","","","","","","","","","","","","","","","","","","","","","","","","","","","","","",""
"","rating","","html-slider-response","14","52901","0.0-13.0","0","0","1pow4","People","","2447","","","","","60","33","olena-sergienko-0TSd6uCKTKc-unsplash.jpg","10","","","","","","","","","","","","","","","","","","","","","","","","","","","","","","","","","","","","","","","",""
"","rating","","html-slider-response","15","55156","0.0-14.0","0","0","1pow4","People","","2254","","","","","69","29","leilani-angel-K84vnnzxmTQ-unsplash.jpg","11","","","","","","","","","","","","","","","","","","","","","","","","","","","","","","","","","","","","","","","",""
"","rating","","html-slider-response","16","57797","0.0-15.0","0","0","1pow4","People","","2638","","","","","73","24","joel-mott-LaK153ghdig-unsplash.jpg","12","","","","","","","","","","","","","","","","","","","","","","","","","","","","","","","","","","","","","","","",""
"","rating","","html-slider-response","17","61471","0.0-16.0","0","0","1pow4","People","","3673","","","","","74","26","juri-gianfrancesco-9EZadYaMzk4-unsplash.jpg","13","","","","","","","","","","","","","","","","","","","","","","","","","","","","","","","","","","","","","","","",""
"","rating","","html-slider-response","18","63627","0.0-17.0","0","0","1pow4","People","","2154","","","","","87","6","ben-o-bro-C5XyLljkMrY-unsplash.jpg","14","","","","","","","","","","","","","","","","","","","","","","","","","","","","","","","","","","","","","","","",""
"","rating","","html-slider-response","19","66033","0.0-18.0","0","0","1pow4","People","","2405","","","","","80","43","raamin-ka-0qJBEzudn5E-unsplash.jpg","15","","","","","","","","","","","","","","","","","","","","","","","","","","","","","","","","","","","","","","","",""
"","rating","","html-slider-response","20","68385","0.0-19.0","0","0","1pow4","People","","2350","","","","","62","5","batel-studio-ttSRjiYG_WM-unsplash.jpg","16","","","","","","","","","","","","","","","","","","","","","","","","","","","","","","","","","","","","","","","",""
"","rating","","html-slider-response","21","71527","0.0-20.0","0","0","1pow4","People","","3141","","","","","72","18","good-faces-xmSWVeGEnJw-unsplash.jpg","17","","","","","","","","","","","","","","","","","","","","","","","","","","","","","","","","","","","","","","","",""
"","rating","","html-slider-response","22","74213","0.0-21.0","0","0","1pow4","People","","2684","","","","","78","14","freddy-kearney-o-ioeoATbIM-unsplash.jpg","18","","","","","","","","","","","","","","","","","","","","","","","","","","","","","","","","","","","","","","","",""
"","rating","","html-slider-response","23","76194","0.0-22.0","0","0","1pow4","People","","1979","","","","","37","27","jurica-koletic-7YVZYZeITc8-unsplash.jpg","19","","","","","","","","","","","","","","","","","","","","","","","","","","","","","","","","","","","","","","","",""
"","rating","","html-slider-response","24","78467","0.0-23.0","0","0","1pow4","People","","2271","","","","","56","3","art-hauntington-jzY0KRJopEI-unsplash.jpg","20","","","","","","","","","","","","","","","","","","","","","","","","","","","","","","","","","","","","","","","",""
"","rating","","html-slider-response","25","81071","0.0-24.0","0","0","1pow4","People","","2602","","","","","65","40","prince-akachi-4Yv84VgQkRM-unsplash.jpg","21","","","","","","","","","","","","","","","","","","","","","","","","","","","","","","","","","","","","","","","",""
"","rating","","html-slider-response","26","83070","0.0-25.0","0","0","1pow4","People","","1997","","","","","46","35","oliver-ragfelt-khV4fTy6-D8-unsplash.jpg","22","","","","","","","","","","","","","","","","","","","","","","","","","","","","","","","","","","","","","","","",""
"","rating","","html-slider-response","27","85059","0.0-26.0","0","0","1pow4","People","","1988","","","","","66","28","justin-chen-J7Cf1Gch49E-unsplash.jpg","23","","","","","","","","","","","","","","","","","","","","","","","","","","","","","","","","","","","","","","","",""
"","rating","","html-slider-response","28","87709","0.0-27.0","0","0","1pow4","People","","2649","","","","","67","8","bruce-dixon-3M9WJQVHzog-unsplash.jpg","24","","","","","","","","","","","","","","","","","","","","","","","","","","","","","","","","","","","","","","","",""
"","rating","","html-slider-response","29","89814","0.0-28.0","0","0","1pow4","People","","2102","","","","","46","9","carlos-andres-gomez-vJuk8Y86mRw-unsplash.jpg","25","","","","","","","","","","","","","","","","","","","","","","","","","","","","","","","","","","","","","","","",""
"","rating","","html-slider-response","30","92400","0.0-29.0","0","0","1pow4","People","","2584","","","","","35","31","mathilda-khoo-vLR0YP_otCo-unsplash.jpg","26","","","","","","","","","","","","","","","","","","","","","","","","","","","","","","","","","","","","","","","",""
"","rating","","html-slider-response","31","94338","0.0-30.0","0","0","1pow4","People","","1936","","","","","59","13","erik-lucatero-d2MSDujJl2g-unsplash.jpg","27","","","","","","","","","","","","","","","","","","","","","","","","","","","","","","","","","","","","","","","",""
"","rating","","html-slider-response","32","96337","0.0-31.0","0","0","1pow4","People","","1998","","","","","69","17","gleb-lukomets-paBzWCPN23k-unsplash.jpg","28","","","","","","","","","","","","","","","","","","","","","","","","","","","","","","","","","","","","","","","",""
"","rating","","html-slider-response","33","99141","0.0-32.0","0","0","1pow4","People","","2803","","","","","63","37","pavel-anoshin-d0peGya6R5Y-unsplash.jpg","29","","","","","","","","","","","","","","","","","","","","","","","","","","","","","","","","","","","","","","","",""
"","rating","","html-slider-response","34","101285","0.0-33.0","0","0","1pow4","People","","2143","","","","","79","10","charles-etoroma-95UF6LXe-Lo-unsplash.jpg","30","","","","","","","","","","","","","","","","","","","","","","","","","","","","","","","","","","","","","","","",""
"","rating","","html-slider-response","35","103455","0.0-34.0","0","0","1pow4","People","","2168","","","","","66","19","ha-nguy-n-OFSQ6bHjFjs-unsplash.jpg","31","","","","","","","","","","","","","","","","","","","","","","","","","","","","","","","","","","","","","","","",""
"","rating","","html-slider-response","36","105406","0.0-35.0","0","0","1pow4","People","","1949","","","","","54","49","vicky-hladynets-_gDoyVv5F4c-unsplash.jpg","32","","","","","","","","","","","","","","","","","","","","","","","","","","","","","","","","","","","","","","","",""
"","rating","","html-slider-response","37","107596","0.0-36.0","0","0","1pow4","People","","2189","","","","","69","21","jessica-felicio-_cvwXhGqG-o-unsplash.jpg","33","","","","","","","","","","","","","","","","","","","","","","","","","","","","","","","","","","","","","","","",""
"","rating","","html-slider-response","38","109718","0.0-37.0","0","0","1pow4","People","","2121","","","","","88","15","gabriel-silverio-u3WmDyKGsrY-unsplash.jpg","34","","","","","","","","","","","","","","","","","","","","","","","","","","","","","","","","","","","","","","","",""
"","rating","","html-slider-response","39","111925","0.0-38.0","0","0","1pow4","People","","2206","","","","","67","47","tyler-nix-ZGa9d1a_4tA-unsplash.jpg","35","","","","","","","","","","","","","","","","","","","","","","","","","","","","","","","","","","","","","","","",""
"","rating","","html-slider-response","40","114023","0.0-39.0","0","0","1pow4","People","","2096","","","","","80","25","joseph-gonzalez-iFgRcqHznqg-unsplash.jpg","36","","","","","","","","","","","","","","","","","","","","","","","","","","","","","","","","","","","","","","","",""
"","rating","","html-slider-response","41","116255","0.0-40.0","0","0","1pow4","People","","2230","","","","","43","38","petr-sevcovic-HzDF-rxlSeM-unsplash.jpg","37","","","","","","","","","","","","","","","","","","","","","","","","","","","","","","","","","","","","","","","",""
"","rating","","html-slider-response","42","118176","0.0-41.0","0","0","1pow4","People","","1919","","","","","54","22","jessica-radanavong-mrYkTuAesKE-unsplash.jpg","38","","","","","","","","","","","","","","","","","","","","","","","","","","","","","","","","","","","","","","","",""
"","rating","","html-slider-response","43","120844","0.0-42.0","0","0","1pow4","People","","2667","","","","","68","39","philip-martin-5aGUyCW_PJw-unsplash.jpg","39","","","","","","","","","","","","","","","","","","","","","","","","","","","","","","","","","","","","","","","",""
"","rating","","html-slider-response","44","123362","0.0-43.0","0","0","1pow4","People","","2515","","","","","88","42","prince-akachi-l3IHXOdMyHQ-unsplash.jpg","40","","","","","","","","","","","","","","","","","","","","","","","","","","","","","","","","","","","","","","","",""
"","rating","","html-slider-response","45","125278","0.0-44.0","0","0","1pow4","People","","1916","","","","","73","1","aiony-haust-jmATI5Q_YgY-unsplash.jpg","41","","","","","","","","","","","","","","","","","","","","","","","","","","","","","","","","","","","","","","","",""
"","rating","","html-slider-response","46","127426","0.0-45.0","0","0","1pow4","People","","2145","","","","","64","12","daniel-rigdon-dXmXKPP2L4E-unsplash.jpg","42","","","","","","","","","","","","","","","","","","","","","","","","","","","","","","","","","","","","","","","",""
"","rating","","html-slider-response","47","130473","0.0-46.0","0","0","1pow4","People","","3045","","","","","58","32","nathan-dumlao-ger61_TX6oI-unsplash.jpg","43","","","","","","","","","","","","","","","","","","","","","","","","","","","","","","","","","","","","","","","",""
"","rating","","html-slider-response","48","132692","0.0-47.0","0","0","1pow4","People","","2217","","","","","83","34","oliver-johnson-1TUIcKob7Zs-unsplash.jpg","44","","","","","","","","","","","","","","","","","","","","","","","","","","","","","","","","","","","","","","","",""
"","rating","","html-slider-response","49","134948","0.0-48.0","0","0","1pow4","People","","2254","","","","","71","44","rikonavt-HQjfrvdTfak-unsplash.jpg","45","","","","","","","","","","","","","","","","","","","","","","","","","","","","","","","","","","","","","","","",""
"","rating","","html-slider-response","50","136817","0.0-49.0","0","0","1pow4","People","","1868","","","","","42","4","barna-bartis-2x3vfVxwR7o-unsplash.jpg","46","","","","","","","","","","","","","","","","","","","","","","","","","","","","","","","","","","","","","","","",""
"","rating","","html-slider-response","51","138522","0.0-50.0","0","0","1pow4","People","","1704","","","","","79","16","giano-currie-5-9YOsmf8IQ-unsplash.jpg","47","","","","","","","","","","","","","","","","","","","","","","","","","","","","","","","","","","","","","","","",""
"","rating","","html-slider-response","52","140897","0.0-51.0","0","0","1pow4","People","","2373","","","","","86","20","houcine-ncib-B4TjXnI0Y2c-unsplash.jpg","48","","","","","","","","","","","","","","","","","","","","","","","","","","","","","","","","","","","","","","","",""
"","rating","","html-slider-response","53","142785","0.0-52.0","0","0","1pow4","People","","1885","","","","","63","41","prince-akachi-i2hoD-C2RUA-unsplash.jpg","49","","","","","","","","","","","","","","","","","","","","","","","","","","","","","","","","","","","","","","","",""
"","deliberation_instructions","","instructions","54","187369","0.0-53.0-0.0","0","0","1pow4","People","[{""page_index"":0,""viewing_time"":11298},{""page_index"":1,""viewing_time"":13458},{""page_index"":2,""viewing_time"":12721},{""page_index"":3,""viewing_time"":5768},{""page_index"":4,""viewing_time"":1336}]","44581","","","","","","","","","","","","","","","","","","","","","","","","","","","","","","","","","","","","","","","","","","","","","","","",""
"","","","survey-multi-choice","55","208757","0.0-53.0-1.0","0","0","1pow4","People","","21385","{""Q0"":""True"",""Q1"":""True"",""Q2"":""Do it as quickly as possible"",""Q3"":""True"",""Q4"":""D""}","deliberation_comprehension_check","1","","","","","","","","","","","","","","","","","","","","","","","","","","","","","","","","","","","","","","","","","","","","",""
"","missed_instruction_checkup","","html-keyboard-response","56","210976","0.0-53.0-2.0-0.0","0","1","1pow4","People","","2216","","","","78","","","","","","","","","","","","","","","","","","","","","","","","","","","","","","","","","","","","","","","","","","","",""
"","deliberation_instructions","","instructions","57","217710","0.0-53.1-0.1","0","0","1pow4","People","[{""page_index"":0,""viewing_time"":4454},{""page_index"":1,""viewing_time"":802},{""page_index"":2,""viewing_time"":317},{""page_index"":3,""viewing_time"":207},{""page_index"":4,""viewing_time"":954}]","6734","","","","","","","","","","","","","","","","","","","","","","","","","","","","","","","","","","","","","","","","","","","","","","","",""
"","","","survey-multi-choice","58","226505","0.0-53.1-1.1","0","0","1pow4","People","","8791","{""Q0"":""True"",""Q1"":""True"",""Q2"":""Consider carefully and take your time (up to 10 seconds)"",""Q3"":""True"",""Q4"":""D""}","deliberation_comprehension_check","0","","","","","","","","","","","","","","","","","","","","","","","","","","","","","","","","","","","","","","","","","","","","",""
"","start_phase","","html-keyboard-response","59","227663","0.0-54.0","0","0","1pow4","People","","1158","","","","78","","","","","","","","","","","","","","","","","","","","","","","","","","","","","","","","","","","","","","","","","","","",""
"","first_deliberation_block","","html-keyboard-response","60","229263","0.0-55.0","0","0","1pow4","People","","1598","","","","78","","","","","","","","","","","","","","","","","","","","","","","","","","","","","","","","","","","","","","","","","","","",""
"","fixation","","html-keyboard-response","61","230280","0.0-56.0-0.0","0","0","1pow4","People","","null","","","","null","","","","","","","","","","","","","","","","","","","","","","","","","","","","","","","","","","","","","","","","","","","",""
"","deliberation","","html-keyboard-response","62","231927","0.0-56.0-1.0","0","0","1pow4","People","","1645","","","","75","","","","0","8","12","1","-1","67","64","bruce-dixon-3M9WJQVHzog-unsplash.jpg","daniel-rigdon-dXmXKPP2L4E-unsplash.jpg","1","0","12","8","","","","","","","","","","","","","","","","","","","","","","","","","","","",""
"","choice_confirmation","","html-keyboard-response","63","232438","0.0-56.0-2.0-0.0","0","0","1pow4","People","","null","","","","null","","","","0","8","12","","","","","","","","","","","","","","","","","","","","","","","","","","","","","","","","","","","","","",""
"","explain_trial","","survey-text","64","244727","0.0-56.0-5.0-0.0","0","0","1pow4","People","","12287","{""Q0"":""Looked more professional""}","","","","","","","0","8","12","","","","","","","","","","","{""Q0"":""Looked more professional""}","","","","","","","","","","","","","","","","","","","","","","","","","","",""
"","fixation","","html-keyboard-response","65","245733","0.0-57.0-0.0","0","0","1pow4","People","","null","","","","null","","","","","","","","","","","","","","","","","","","","","","","","","","","","","","","","","","","","","","","","","","","",""
"","deliberation","","html-keyboard-response","66","247471","0.0-57.0-1.0","0","0","1pow4","People","","1738","","","","68","","","","1","26","19","1","1","74","66","juri-gianfrancesco-9EZadYaMzk4-unsplash.jpg","ha-nguy-n-OFSQ6bHjFjs-unsplash.jpg","1","1","26","19","","","","","","","","","","","","","","","","","","","","","","","","","","","",""
"","choice_confirmation","","html-keyboard-response","67","247988","0.0-57.0-2.0-0.0","0","0","1pow4","People","","null","","","","null","","","","1","26","19","","","","","","","","","","","","","","","","","","","","","","","","","","","","","","","","","","","","","",""
"","explain_trial","","survey-text","68","259969","0.0-57.0-5.0-0.0","0","0","1pow4","People","","11980","{""Q0"":""Liked the interaction with the plant""}","","","","","","","1","26","19","","","","","","","","","","","{""Q0"":""Liked the interaction with the plant""}","","","","","","","","","","","","","","","","","","","","","","","","","","",""
"","fixation","","html-keyboard-response","69","260972","0.0-58.0-0.0","0","0","1pow4","People","","null","","","","null","","","","","","","","","","","","","","","","","","","","","","","","","","","","","","","","","","","","","","","","","","","",""
"","deliberation","","html-keyboard-response","70","263055","0.0-58.0-1.0","0","0","1pow4","People","","2081","","","","75","","","","2","29","41","1","-1","69","63","leilani-angel-K84vnnzxmTQ-unsplash.jpg","prince-akachi-i2hoD-C2RUA-unsplash.jpg","1","0","41","29","","","","","","","","","","","","","","","","","","","","","","","","","","","",""
"","choice_confirmation","","html-keyboard-response","71","263560","0.0-58.0-2.0-0.0","0","0","1pow4","People","","null","","","","null","","","","2","29","41","","","","","","","","","","","","","","","","","","","","","","","","","","","","","","","","","","","","","",""
"","explain_trial","","survey-text","72","268532","0.0-58.0-5.0-0.0","0","0","1pow4","People","","4971","{""Q0"":""Better smile""}","","","","","","","2","29","41","","","","","","","","","","","{""Q0"":""Better smile""}","","","","","","","","","","","","","","","","","","","","","","","","","","",""
"","fixation","","html-keyboard-response","73","269534","0.0-59.0-0.0","0","0","1pow4","People","","null","","","","null","","","","","","","","","","","","","","","","","","","","","","","","","","","","","","","","","","","","","","","","","","","",""
"","deliberation","","html-keyboard-response","74","275167","0.0-59.0-1.0","0","0","1pow4","People","","5631","","","","68","","","","3","13","39","0","1","59","68","erik-lucatero-d2MSDujJl2g-unsplash.jpg","philip-martin-5aGUyCW_PJw-unsplash.jpg","1","1","13","39","","","","","","","","","","","","","","","","","","","","","","","","","","","",""
"","choice_confirmation","","html-keyboard-response","75","275673","0.0-59.0-2.0-0.0","0","0","1pow4","People","","null","","","","null","","","","3","13","39","","","","","","","","","","","","","","","","","","","","","","","","","","","","","","","","","","","","","",""
"","fixation","","html-keyboard-response","76","276680","0.0-60.0-0.0","0","0","1pow4","People","","null","","","","null","","","","","","","","","","","","","","","","","","","","","","","","","","","","","","","","","","","","","","","","","","","",""
"","deliberation","","html-keyboard-response","77","279055","0.0-60.0-1.0","0","0","1pow4","People","","2374","","","","75","","","","4","37","17","1","1","63","69","pavel-anoshin-d0peGya6R5Y-unsplash.jpg","gleb-lukomets-paBzWCPN23k-unsplash.jpg","1","0","17","37","","","","","","","","","","","","","","","","","","","","","","","","","","","",""
"","choice_confirmation","","html-keyboard-response","78","279570","0.0-60.0-2.0-0.0","0","0","1pow4","People","","null","","","","null","","","","4","37","17","","","","","","","","","","","","","","","","","","","","","","","","","","","","","","","","","","","","","",""
"","explain_trial","","survey-text","79","290699","0.0-60.0-5.0-0.0","0","0","1pow4","People","","11127","{""Q0"":""Person was more photogenic ""}","","","","","","","4","37","17","","","","","","","","","","","{""Q0"":""Person was more photogenic ""}","","","","","","","","","","","","","","","","","","","","","","","","","","",""
"","fixation","","html-keyboard-response","80","291714","0.0-61.0-0.0","0","0","1pow4","People","","null","","","","null","","","","","","","","","","","","","","","","","","","","","","","","","","","","","","","","","","","","","","","","","","","",""
"","deliberation","","html-keyboard-response","81","293535","0.0-61.0-1.0","0","0","1pow4","People","","1819","","","","68","","","","5","21","28","0","-1","69","66","jessica-felicio-_cvwXhGqG-o-unsplash.jpg","justin-chen-J7Cf1Gch49E-unsplash.jpg","1","1","21","28","","","","","","","","","","","","","","","","","","","","","","","","","","","",""
"","choice_confirmation","","html-keyboard-response","82","294049","0.0-61.0-2.0-0.0","0","0","1pow4","People","","null","","","","null","","","","5","21","28","","","","","","","","","","","","","","","","","","","","","","","","","","","","","","","","","","","","","",""
"","fixation","","html-keyboard-response","83","295058","0.0-62.0-0.0","0","0","1pow4","People","","null","","","","null","","","","","","","","","","","","","","","","","","","","","","","","","","","","","","","","","","","","","","","","","","","",""
"","deliberation","","html-keyboard-response","84","296463","0.0-62.0-1.0","0","0","1pow4","People","","1404","","","","68","","","","6","36","47","1","1","61","67","ospan-ali-mGdA2fzjWLo-unsplash.jpg","tyler-nix-ZGa9d1a_4tA-unsplash.jpg","1","1","36","47","","","","","","","","","","","","","","","","","","","","","","","","","","","",""
"","choice_confirmation","","html-keyboard-response","85","296973","0.0-62.0-2.0-0.0","0","0","1pow4","People","","null","","","","null","","","","6","36","47","","","","","","","","","","","","","","","","","","","","","","","","","","","","","","","","","","","","","",""
"","explain_trial","","survey-text","86","313597","0.0-62.0-5.0-0.0","0","0","1pow4","People","","16622","{""Q0"":""Looked artsy while the other looked professional""}","","","","","","","6","36","47","","","","","","","","","","","{""Q0"":""Looked artsy while the other looked professional""}","","","","","","","","","","","","","","","","","","","","","","","","","","",""
"","fixation","","html-keyboard-response","87","314607","0.0-63.0-0.0","0","0","1pow4","People","","null","","","","null","","","","","","","","","","","","","","","","","","","","","","","","","","","","","","","","","","","","","","","","","","","",""
"","deliberation","","html-keyboard-response","88","318487","0.0-63.0-1.0","0","0","1pow4","People","","3879","","","","75","","","","7","18","23","0","-1","72","76","good-faces-xmSWVeGEnJw-unsplash.jpg","joanna-nix-walkup-H4fEMshfwTE-unsplash.jpg","1","0","23","18","","","","","","","","","","","","","","","","","","","","","","","","","","","",""
"","choice_confirmation","","html-keyboard-response","89","319006","0.0-63.0-2.0-0.0","0","0","1pow4","People","","null","","","","null","","","","7","18","23","","","","","","","","","","","","","","","","","","","","","","","","","","","","","","","","","","","","","",""
"","fixation","","html-keyboard-response","90","320013","0.0-64.0-0.0","0","0","1pow4","People","","null","","","","null","","","","","","","","","","","","","","","","","","","","","","","","","","","","","","","","","","","","","","","","","","","",""
"","deliberation","","html-keyboard-response","91","322983","0.0-64.0-1.0","0","0","1pow4","People","","2969","","","","75","","","","8","24","44","0","-1","73","71","joel-mott-LaK153ghdig-unsplash.jpg","rikonavt-HQjfrvdTfak-unsplash.jpg","1","0","44","24","","","","","","","","","","","","","","","","","","","","","","","","","","","",""
"","choice_confirmation","","html-keyboard-response","92","323495","0.0-64.0-2.0-0.0","0","0","1pow4","People","","null","","","","null","","","","8","24","44","","","","","","","","","","","","","","","","","","","","","","","","","","","","","","","","","","","","","",""
"","fixation","","html-keyboard-response","93","324506","0.0-65.0-0.0","0","0","1pow4","People","","null","","","","null","","","","","","","","","","","","","","","","","","","","","","","","","","","","","","","","","","","","","","","","","","","",""
"","deliberation","","html-keyboard-response","94","326919","0.0-65.0-1.0","0","0","1pow4","People","","2411","","","","75","","","","9","45","48","0","-1","65","77","sarah-noltner-pL5ZzPp1zqg-unsplash.jpg","velizar-ivanov-7ktP9yZA1g4-unsplash.jpg","1","0","48","45","","","","","","","","","","","","","","","","","","","","","","","","","","","",""
"","choice_confirmation","","html-keyboard-response","95","327433","0.0-65.0-2.0-0.0","0","0","1pow4","People","","null","","","","null","","","","9","45","48","","","","","","","","","","","","","","","","","","","","","","","","","","","","","","","","","","","","","",""
"","fixation","","html-keyboard-response","96","328446","0.0-66.0-0.0","0","0","1pow4","People","","null","","","","null","","","","","","","","","","","","","","","","","","","","","","","","","","","","","","","","","","","","","","","","","","","",""
"","deliberation","","html-keyboard-response","97","330431","0.0-66.0-1.0","0","0","1pow4","People","","1983","","","","68","","","","10","1","33","1","1","73","60","aiony-haust-jmATI5Q_YgY-unsplash.jpg","olena-sergienko-0TSd6uCKTKc-unsplash.jpg","1","1","1","33","","","","","","","","","","","","","","","","","","","","","","","","","","","",""
"","choice_confirmation","","html-keyboard-response","98","330947","0.0-66.0-2.0-0.0","0","0","1pow4","People","","null","","","","null","","","","10","1","33","","","","","","","","","","","","","","","","","","","","","","","","","","","","","","","","","","","","","",""
"","explain_trial","","survey-text","99","344735","0.0-66.0-5.0-0.0","0","0","1pow4","People","","13786","{""Q0"":""Looks like a painting""}","","","","","","","10","1","33","","","","","","","","","","","{""Q0"":""Looks like a painting""}","","","","","","","","","","","","","","","","","","","","","","","","","","",""
"","fixation","","html-keyboard-response","100","345738","0.0-67.0-0.0","0","0","1pow4","People","","null","","","","null","","","","","","","","","","","","","","","","","","","","","","","","","","","","","","","","","","","","","","","","","","","",""
"","deliberation","","html-keyboard-response","101","347343","0.0-67.0-1.0","0","0","1pow4","People","","1604","","","","75","","","","11","5","40","0","1","62","65","batel-studio-ttSRjiYG_WM-unsplash.jpg","prince-akachi-4Yv84VgQkRM-unsplash.jpg","1","0","40","5","","","","","","","","","","","","","","","","","","","","","","","","","","","",""
"","choice_confirmation","","html-keyboard-response","102","347856","0.0-67.0-2.0-0.0","0","0","1pow4","People","","null","","","","null","","","","11","5","40","","","","","","","","","","","","","","","","","","","","","","","","","","","","","","","","","","","","","",""
"","practice_deliberation_again","","html-keyboard-response","103","350959","0.0-67.0-6.0-0.0","0","0","1pow4","People","","3103","","","","78","","","","","","","","","","","","","","","","","","","","","","","","","","","","","","","","","","","","","","","","","","","",""
"","fixation","","html-keyboard-response","104","351963","0.0-68.0-0.0","0","0","1pow4","People","","null","","","","null","","","","","","","","","","","","","","","","","","","","","","","","","","","","","","","","","","","","","","","","","","","",""
"","deliberation","","html-keyboard-response","105","353287","0.0-68.0-1.0","0","0","1pow4","People","","1323","","","","68","","","","12","29","41","0","-1","69","63","leilani-angel-K84vnnzxmTQ-unsplash.jpg","prince-akachi-i2hoD-C2RUA-unsplash.jpg","2","1","29","41","","","","","","","","","","","","","","","","","","","","","","","","","","","",""
"","choice_confirmation","","html-keyboard-response","106","353807","0.0-68.0-2.0-0.0","0","0","1pow4","People","","null","","","","null","","","","12","29","41","","","","","","","","","","","","","","","","","","","","","","","","","","","","","","","","","","","","","",""
"","fixation","","html-keyboard-response","107","354825","0.0-69.0-0.0","0","0","1pow4","People","","null","","","","null","","","","","","","","","","","","","","","","","","","","","","","","","","","","","","","","","","","","","","","","","","","",""
"","deliberation","","html-keyboard-response","108","355583","0.0-69.0-1.0","0","0","1pow4","People","","757","","","","75","","","","13","45","48","1","-1","65","77","sarah-noltner-pL5ZzPp1zqg-unsplash.jpg","velizar-ivanov-7ktP9yZA1g4-unsplash.jpg","2","0","48","45","","","","","","","","","","","","","","","","","","","","","","","","","","","",""
"","choice_confirmation","","html-keyboard-response","109","356086","0.0-69.0-2.0-0.0","0","0","1pow4","People","","null","","","","null","","","","13","45","48","","","","","","","","","","","","","","","","","","","","","","","","","","","","","","","","","","","","","",""
"","explain_trial","","survey-text","110","362719","0.0-69.0-5.0-0.0","0","0","1pow4","People","","6631","{""Q0"":""More photogenic ""}","","","","","","","13","45","48","","","","","","","","","","","{""Q0"":""More photogenic ""}","","","","","","","","","","","","","","","","","","","","","","","","","","",""
"","fixation","","html-keyboard-response","111","363723","0.0-70.0-0.0","0","0","1pow4","People","","null","","","","null","","","","","","","","","","","","","","","","","","","","","","","","","","","","","","","","","","","","","","","","","","","",""
"","deliberation","","html-keyboard-response","112","364984","0.0-70.0-1.0","0","0","1pow4","People","","1259","","","","75","","","","14","21","28","1","-1","69","66","jessica-felicio-_cvwXhGqG-o-unsplash.jpg","justin-chen-J7Cf1Gch49E-unsplash.jpg","2","0","28","21","","","","","","","","","","","","","","","","","","","","","","","","","","","",""
"","choice_confirmation","","html-keyboard-response","113","365493","0.0-70.0-2.0-0.0","0","0","1pow4","People","","null","","","","null","","","","14","21","28","","","","","","","","","","","","","","","","","","","","","","","","","","","","","","","","","","","","","",""
"","explain_trial","","survey-text","114","372782","0.0-70.0-5.0-0.0","0","0","1pow4","People","","7287","{""Q0"":""Better smile""}","","","","","","","14","21","28","","","","","","","","","","","{""Q0"":""Better smile""}","","","","","","","","","","","","","","","","","","","","","","","","","","",""
"","fixation","","html-keyboard-response","115","373791","0.0-71.0-0.0","0","0","1pow4","People","","null","","","","null","","","","","","","","","","","","","","","","","","","","","","","","","","","","","","","","","","","","","","","","","","","",""
"","deliberation","","html-keyboard-response","116","375319","0.0-71.0-1.0","0","0","1pow4","People","","1524","","","","68","","","","15","26","19","0","1","74","66","juri-gianfrancesco-9EZadYaMzk4-unsplash.jpg","ha-nguy-n-OFSQ6bHjFjs-unsplash.jpg","2","1","26","19","","","","","","","","","","","","","","","","","","","","","","","","","","","",""
"","choice_confirmation","","html-keyboard-response","117","375826","0.0-71.0-2.0-0.0","0","0","1pow4","People","","null","","","","null","","","","15","26","19","","","","","","","","","","","","","","","","","","","","","","","","","","","","","","","","","","","","","",""
"","fixation","","html-keyboard-response","118","376842","0.0-72.0-0.0","0","0","1pow4","People","","null","","","","null","","","","","","","","","","","","","","","","","","","","","","","","","","","","","","","","","","","","","","","","","","","",""
"","deliberation","","html-keyboard-response","119","377863","0.0-72.0-1.0","0","0","1pow4","People","","1019","","","","75","","","","16","5","40","1","1","62","65","batel-studio-ttSRjiYG_WM-unsplash.jpg","prince-akachi-4Yv84VgQkRM-unsplash.jpg","2","0","40","5","","","","","","","","","","","","","","","","","","","","","","","","","","","",""
"","choice_confirmation","","html-keyboard-response","120","378374","0.0-72.0-2.0-0.0","0","0","1pow4","People","","null","","","","null","","","","16","5","40","","","","","","","","","","","","","","","","","","","","","","","","","","","","","","","","","","","","","",""
"","explain_trial","","survey-text","121","394623","0.0-72.0-5.0-0.0","0","0","1pow4","People","","16248","{""Q0"":""Great smile, liked the camera. ""}","","","","","","","16","5","40","","","","","","","","","","","{""Q0"":""Great smile, liked the camera. ""}","","","","","","","","","","","","","","","","","","","","","","","","","","",""
"","fixation","","html-keyboard-response","122","395628","0.0-73.0-0.0","0","0","1pow4","People","","null","","","","null","","","","","","","","","","","","","","","","","","","","","","","","","","","","","","","","","","","","","","","","","","","",""
"","deliberation","","html-keyboard-response","123","397792","0.0-73.0-1.0","0","0","1pow4","People","","2162","","","","68","","","","17","1","33","0","1","73","60","aiony-haust-jmATI5Q_YgY-unsplash.jpg","olena-sergienko-0TSd6uCKTKc-unsplash.jpg","2","1","1","33","","","","","","","","","","","","","","","","","","","","","","","","","","","",""
"","choice_confirmation","","html-keyboard-response","124","398298","0.0-73.0-2.0-0.0","0","0","1pow4","People","","null","","","","null","","","","17","1","33","","","","","","","","","","","","","","","","","","","","","","","","","","","","","","","","","","","","","",""
"","fixation","","html-keyboard-response","125","399308","0.0-74.0-0.0","0","0","1pow4","People","","null","","","","null","","","","","","","","","","","","","","","","","","","","","","","","","","","","","","","","","","","","","","","","","","","",""
"","deliberation","","html-keyboard-response","126","400535","0.0-74.0-1.0","0","0","1pow4","People","","1227","","","","75","","","","18","8","12","0","-1","67","64","bruce-dixon-3M9WJQVHzog-unsplash.jpg","daniel-rigdon-dXmXKPP2L4E-unsplash.jpg","2","0","12","8","","","","","","","","","","","","","","","","","","","","","","","","","","","",""
"","choice_confirmation","","html-keyboard-response","127","401059","0.0-74.0-2.0-0.0","0","0","1pow4","People","","null","","","","null","","","","18","8","12","","","","","","","","","","","","","","","","","","","","","","","","","","","","","","","","","","","","","",""
"","fixation","","html-keyboard-response","128","402068","0.0-75.0-0.0","0","0","1pow4","People","","null","","","","null","","","","","","","","","","","","","","","","","","","","","","","","","","","","","","","","","","","","","","","","","","","",""
"","deliberation","","html-keyboard-response","129","402863","0.0-75.0-1.0","0","0","1pow4","People","","794","","","","75","","","","19","37","17","0","1","63","69","pavel-anoshin-d0peGya6R5Y-unsplash.jpg","gleb-lukomets-paBzWCPN23k-unsplash.jpg","2","0","17","37","","","","","","","","","","","","","","","","","","","","","","","","","","","",""
"","choice_confirmation","","html-keyboard-response","130","403381","0.0-75.0-2.0-0.0","0","0","1pow4","People","","null","","","","null","","","","19","37","17","","","","","","","","","","","","","","","","","","","","","","","","","","","","","","","","","","","","","",""
"","fixation","","html-keyboard-response","131","404394","0.0-76.0-0.0","0","0","1pow4","People","","null","","","","null","","","","","","","","","","","","","","","","","","","","","","","","","","","","","","","","","","","","","","","","","","","",""
"","deliberation","","html-keyboard-response","132","405343","0.0-76.0-1.0","0","0","1pow4","People","","948","","","","68","","","","20","36","47","0","1","61","67","ospan-ali-mGdA2fzjWLo-unsplash.jpg","tyler-nix-ZGa9d1a_4tA-unsplash.jpg","2","1","36","47","","","","","","","","","","","","","","","","","","","","","","","","","","","",""
"","choice_confirmation","","html-keyboard-response","133","405858","0.0-76.0-2.0-0.0","0","0","1pow4","People","","null","","","","null","","","","20","36","47","","","","","","","","","","","","","","","","","","","","","","","","","","","","","","","","","","","","","",""
"","fixation","","html-keyboard-response","134","406875","0.0-77.0-0.0","0","0","1pow4","People","","null","","","","null","","","","","","","","","","","","","","","","","","","","","","","","","","","","","","","","","","","","","","","","","","","",""
"","deliberation","","html-keyboard-response","135","408016","0.0-77.0-1.0","0","0","1pow4","People","","1139","","","","68","","","","21","18","23","1","-1","72","76","good-faces-xmSWVeGEnJw-unsplash.jpg","joanna-nix-walkup-H4fEMshfwTE-unsplash.jpg","2","1","18","23","","","","","","","","","","","","","","","","","","","","","","","","","","","",""
"","choice_confirmation","","html-keyboard-response","136","408528","0.0-77.0-2.0-0.0","0","0","1pow4","People","","null","","","","null","","","","21","18","23","","","","","","","","","","","","","","","","","","","","","","","","","","","","","","","","","","","","","",""
"","explain_trial","","survey-text","137","416508","0.0-77.0-5.0-0.0","0","0","1pow4","People","","7978","{""Q0"":""Love her hair""}","","","","","","","21","18","23","","","","","","","","","","","{""Q0"":""Love her hair""}","","","","","","","","","","","","","","","","","","","","","","","","","","",""
"","fixation","","html-keyboard-response","138","417510","0.0-78.0-0.0","0","0","1pow4","People","","null","","","","null","","","","","","","","","","","","","","","","","","","","","","","","","","","","","","","","","","","","","","","","","","","",""
"","deliberation","","html-keyboard-response","139","419159","0.0-78.0-1.0","0","0","1pow4","People","","1648","","","","68","","","","22","24","44","1","-1","73","71","joel-mott-LaK153ghdig-unsplash.jpg","rikonavt-HQjfrvdTfak-unsplash.jpg","2","1","24","44","","","","","","","","","","","","","","","","","","","","","","","","","","","",""
"","choice_confirmation","","html-keyboard-response","140","419665","0.0-78.0-2.0-0.0","0","0","1pow4","People","","null","","","","null","","","","22","24","44","","","","","","","","","","","","","","","","","","","","","","","","","","","","","","","","","","","","","",""
"","explain_trial","","survey-text","141","424928","0.0-78.0-5.0-0.0","0","0","1pow4","People","","5261","{""Q0"":""Great smile.""}","","","","","","","22","24","44","","","","","","","","","","","{""Q0"":""Great smile.""}","","","","","","","","","","","","","","","","","","","","","","","","","","",""
"","fixation","","html-keyboard-response","142","425933","0.0-79.0-0.0","0","0","1pow4","People","","null","","","","null","","","","","","","","","","","","","","","","","","","","","","","","","","","","","","","","","","","","","","","","","","","",""
"","deliberation","","html-keyboard-response","143","427095","0.0-79.0-1.0","0","0","1pow4","People","","1162","","","","68","","","","23","13","39","1","1","59","68","erik-lucatero-d2MSDujJl2g-unsplash.jpg","philip-martin-5aGUyCW_PJw-unsplash.jpg","2","1","13","39","","","","","","","","","","","","","","","","","","","","","","","","","","","",""
"","choice_confirmation","","html-keyboard-response","144","427606","0.0-79.0-2.0-0.0","0","0","1pow4","People","","null","","","","null","","","","23","13","39","","","","","","","","","","","","","","","","","","","","","","","","","","","","","","","","","","","","","",""
"","explain_trial","","survey-text","145","441520","0.0-79.0-5.0-0.0","0","0","1pow4","People","","13913","{""Q0"":""no particular reason""}","","","","","","","23","13","39","","","","","","","","","","","{""Q0"":""no particular reason""}","","","","","","","","","","","","","","","","","","","","","","","","","","",""
"","start_critical_deliberation_block","","html-keyboard-response","146","444143","0.0-79.0-7.0-0.0","0","0","1pow4","People","","2622","","","","78","","","","","","","","","","","","","","","","","","","","","","","","","","","","","","","","","","","","","","","","","","","",""
"","fixation","","html-keyboard-response","147","445153","0.0-80.0-0.0","0","0","1pow4","People","","null","","","","null","","","","","","","","","","","","","","","","","","","","","","","","","","","","","","","","","","","","","","","","","","","",""
"","deliberation","","html-keyboard-response","148","447520","0.0-80.0-1.0","0","0","1pow4","People","","2363","","","","68","","","","24","24","44","0","-1","73","71","joel-mott-LaK153ghdig-unsplash.jpg","rikonavt-HQjfrvdTfak-unsplash.jpg","3","1","24","44","","","","","","","","","","","","","","","","","","","","","","","","","","","",""
"","choice_confirmation","","html-keyboard-response","149","448023","0.0-80.0-2.0-0.0","0","0","1pow4","People","","null","","","","null","","","","24","24","44","","","","","","","","","","","","","","","","","","","","","","","","","","","","","","","","","","","","","",""
"","fixation","","html-keyboard-response","150","449036","0.0-81.0-0.0","0","0","1pow4","People","","null","","","","null","","","","","","","","","","","","","","","","","","","","","","","","","","","","","","","","","","","","","","","","","","","",""
"","deliberation","","html-keyboard-response","151","450320","0.0-81.0-1.0","0","0","1pow4","People","","1282","","","","68","","","","25","18","23","0","-1","72","76","good-faces-xmSWVeGEnJw-unsplash.jpg","joanna-nix-walkup-H4fEMshfwTE-unsplash.jpg","3","1","18","23","","","","","","","","","","","","","","","","","","","","","","","","","","","",""
"","choice_confirmation","","html-keyboard-response","152","450844","0.0-81.0-2.0-0.0","0","0","1pow4","People","","null","","","","null","","","","25","18","23","","","","","","","","","","","","","","","","","","","","","","","","","","","","","","","","","","","","","",""
"","fixation","","html-keyboard-response","153","451865","0.0-82.0-0.0","0","0","1pow4","People","","null","","","","null","","","","","","","","","","","","","","","","","","","","","","","","","","","","","","","","","","","","","","","","","","","",""
"","deliberation","","html-keyboard-response","154","452609","0.0-82.0-1.0","0","0","1pow4","People","","742","","","","68","","","","26","36","47","0","1","61","67","ospan-ali-mGdA2fzjWLo-unsplash.jpg","tyler-nix-ZGa9d1a_4tA-unsplash.jpg","3","1","36","47","","","","","","","","","","","","","","","","","","","","","","","","","","","",""
"","choice_confirmation","","html-keyboard-response","155","453123","0.0-82.0-2.0-0.0","0","0","1pow4","People","","null","","","","null","","","","26","36","47","","","","","","","","","","","","","","","","","","","","","","","","","","","","","","","","","","","","","",""
"","fixation","","html-keyboard-response","156","454135","0.0-83.0-0.0","0","0","1pow4","People","","null","","","","null","","","","","","","","","","","","","","","","","","","","","","","","","","","","","","","","","","","","","","","","","","","",""
"","deliberation","","html-keyboard-response","157","455400","0.0-83.0-1.0","0","0","1pow4","People","","1263","","","","75","","","","27","8","12","0","-1","67","64","bruce-dixon-3M9WJQVHzog-unsplash.jpg","daniel-rigdon-dXmXKPP2L4E-unsplash.jpg","3","0","12","8","","","","","","","","","","","","","","","","","","","","","","","","","","","",""
"","choice_confirmation","","html-keyboard-response","158","455919","0.0-83.0-2.0-0.0","0","0","1pow4","People","","null","","","","null","","","","27","8","12","","","","","","","","","","","","","","","","","","","","","","","","","","","","","","","","","","","","","",""
"","fixation","","html-keyboard-response","159","456929","0.0-84.0-0.0","0","0","1pow4","People","","null","","","","null","","","","","","","","","","","","","","","","","","","","","","","","","","","","","","","","","","","","","","","","","","","",""
"","deliberation","","html-keyboard-response","160","458640","0.0-84.0-1.0","0","0","1pow4","People","","1710","","","","75","","","","28","29","41","0","-1","69","63","leilani-angel-K84vnnzxmTQ-unsplash.jpg","prince-akachi-i2hoD-C2RUA-unsplash.jpg","3","0","41","29","","","","","","","","","","","","","","","","","","","","","","","","","","","",""
"","choice_confirmation","","html-keyboard-response","161","459156","0.0-84.0-2.0-0.0","0","0","1pow4","People","","null","","","","null","","","","28","29","41","","","","","","","","","","","","","","","","","","","","","","","","","","","","","","","","","","","","","",""
"","fixation","","html-keyboard-response","162","460165","0.0-85.0-0.0","0","0","1pow4","People","","null","","","","null","","","","","","","","","","","","","","","","","","","","","","","","","","","","","","","","","","","","","","","","","","","",""
"","deliberation","","html-keyboard-response","163","460983","0.0-85.0-1.0","0","0","1pow4","People","","817","","","","68","","","","29","13","39","0","1","59","68","erik-lucatero-d2MSDujJl2g-unsplash.jpg","philip-martin-5aGUyCW_PJw-unsplash.jpg","3","1","13","39","","","","","","","","","","","","","","","","","","","","","","","","","","","",""
"","choice_confirmation","","html-keyboard-response","164","461487","0.0-85.0-2.0-0.0","0","0","1pow4","People","","null","","","","null","","","","29","13","39","","","","","","","","","","","","","","","","","","","","","","","","","","","","","","","","","","","","","",""
"","fixation","","html-keyboard-response","165","462498","0.0-86.0-0.0","0","0","1pow4","People","","null","","","","null","","","","","","","","","","","","","","","","","","","","","","","","","","","","","","","","","","","","","","","","","","","",""
"","deliberation","","html-keyboard-response","166","463168","0.0-86.0-1.0","0","0","1pow4","People","","668","","","","75","","","","30","37","17","0","1","63","69","pavel-anoshin-d0peGya6R5Y-unsplash.jpg","gleb-lukomets-paBzWCPN23k-unsplash.jpg","3","0","17","37","","","","","","","","","","","","","","","","","","","","","","","","","","","",""
"","choice_confirmation","","html-keyboard-response","167","463679","0.0-86.0-2.0-0.0","0","0","1pow4","People","","null","","","","null","","","","30","37","17","","","","","","","","","","","","","","","","","","","","","","","","","","","","","","","","","","","","","",""
"","fixation","","html-keyboard-response","168","464696","0.0-87.0-0.0","0","0","1pow4","People","","null","","","","null","","","","","","","","","","","","","","","","","","","","","","","","","","","","","","","","","","","","","","","","","","","",""
"","deliberation","","html-keyboard-response","169","465720","0.0-87.0-1.0","0","0","1pow4","People","","1022","","","","75","","","","31","5","40","0","1","62","65","batel-studio-ttSRjiYG_WM-unsplash.jpg","prince-akachi-4Yv84VgQkRM-unsplash.jpg","3","0","40","5","","","","","","","","","","","","","","","","","","","","","","","","","","","",""
"","choice_confirmation","","html-keyboard-response","170","466221","0.0-87.0-2.0-0.0","0","0","1pow4","People","","null","","","","null","","","","31","5","40","","","","","","","","","","","","","","","","","","","","","","","","","","","","","","","","","","","","","",""
"","fixation","","html-keyboard-response","171","467232","0.0-88.0-0.0","0","0","1pow4","People","","null","","","","null","","","","","","","","","","","","","","","","","","","","","","","","","","","","","","","","","","","","","","","","","","","",""
"","deliberation","","html-keyboard-response","172","468088","0.0-88.0-1.0","0","0","1pow4","People","","854","","","","68","","","","32","26","19","0","1","74","66","juri-gianfrancesco-9EZadYaMzk4-unsplash.jpg","ha-nguy-n-OFSQ6bHjFjs-unsplash.jpg","3","1","26","19","","","","","","","","","","","","","","","","","","","","","","","","","","","",""
"","choice_confirmation","","html-keyboard-response","173","468608","0.0-88.0-2.0-0.0","0","0","1pow4","People","","null","","","","null","","","","32","26","19","","","","","","","","","","","","","","","","","","","","","","","","","","","","","","","","","","","","","",""
"","fixation","","html-keyboard-response","174","469616","0.0-89.0-0.0","0","0","1pow4","People","","null","","","","null","","","","","","","","","","","","","","","","","","","","","","","","","","","","","","","","","","","","","","","","","","","",""
"","deliberation","","html-keyboard-response","175","470696","0.0-89.0-1.0","0","0","1pow4","People","","1078","","","","75","","","","33","45","48","0","-1","65","77","sarah-noltner-pL5ZzPp1zqg-unsplash.jpg","velizar-ivanov-7ktP9yZA1g4-unsplash.jpg","3","0","48","45","","","","","","","","","","","","","","","","","","","","","","","","","","","",""
"","choice_confirmation","","html-keyboard-response","176","471207","0.0-89.0-2.0-0.0","0","0","1pow4","People","","null","","","","null","","","","33","45","48","","","","","","","","","","","","","","","","","","","","","","","","","","","","","","","","","","","","","",""
"","fixation","","html-keyboard-response","177","472234","0.0-90.0-0.0","0","0","1pow4","People","","null","","","","null","","","","","","","","","","","","","","","","","","","","","","","","","","","","","","","","","","","","","","","","","","","",""
"","deliberation","","html-keyboard-response","178","473032","0.0-90.0-1.0","0","0","1pow4","People","","797","","","","68","","","","34","1","33","0","1","73","60","aiony-haust-jmATI5Q_YgY-unsplash.jpg","olena-sergienko-0TSd6uCKTKc-unsplash.jpg","3","1","1","33","","","","","","","","","","","","","","","","","","","","","","","","","","","",""
"","choice_confirmation","","html-keyboard-response","179","473543","0.0-90.0-2.0-0.0","0","0","1pow4","People","","null","","","","null","","","","34","1","33","","","","","","","","","","","","","","","","","","","","","","","","","","","","","","","","","","","","","",""
"","fixation","","html-keyboard-response","180","474551","0.0-91.0-0.0","0","0","1pow4","People","","null","","","","null","","","","","","","","","","","","","","","","","","","","","","","","","","","","","","","","","","","","","","","","","","","",""
"","deliberation","","html-keyboard-response","181","475808","0.0-91.0-1.0","0","0","1pow4","People","","1255","","","","68","","","","35","21","28","0","-1","69","66","jessica-felicio-_cvwXhGqG-o-unsplash.jpg","justin-chen-J7Cf1Gch49E-unsplash.jpg","3","1","21","28","","","","","","","","","","","","","","","","","","","","","","","","","","","",""
"","choice_confirmation","","html-keyboard-response","182","476321","0.0-91.0-2.0-0.0","0","0","1pow4","People","","null","","","","null","","","","35","21","28","","","","","","","","","","","","","","","","","","","","","","","","","","","","","","","","","","","","","",""
"","reward_learning_instructions","","instructions","183","508058","0.0-92.0-0.0","0","0","1pow4","People","[{""page_index"":0,""viewing_time"":14780},{""page_index"":1,""viewing_time"":15606},{""page_index"":2,""viewing_time"":1349}]","31736","","","","","","","","","","","","","","","","","","","","","","","","","","","","","","","","","","","","","","","","","","","","","","","",""
"","","","survey-multi-choice","184","518167","0.0-92.0-1.0","0","0","1pow4","People","","10107","{""Q0"":""True"",""Q1"":""True"",""Q2"":""Press the space bar to see its outcome"",""Q3"":""Press the relevant key while the outcome is presented""}","reward_comprehension_check","0","","","","","","","","","","","","","","","","","","","","","","","","","","","","","","","","","","","","","","","","","","","","",""
"","start_phase","","html-keyboard-response","185","519543","0.0-93.0","0","0","1pow4","People","","1375","","","","78","","","","","","","","","","","","","","","","","","","","","","","","","","","","","","","","","","","","","","","","","","","",""
"","fixation","","html-keyboard-response","186","520557","0.0-94.0","0","0","1pow4","People","","null","","","","null","","","","","","","","","","","","","","","","","","","","","","","","","","","","","","","","","","","","","","","","","","","",""
"","see_reward","","html-keyboard-response","187","521272","0.0-95.0","0","0","1pow4","People","","714","","","","32","","48","","0","","","","-1","","","","","1","","","","","0","714","","","","","","","","","","","","","","","","","","","","","","","","",""
"","reward_outcome","","html-keyboard-response","188","523286","0.0-96.0","0","0","1pow4","People","","757","","","","40","","48","","0","","","","","","","","","","","","","","","","-1","757","","","","","","","","","","","","","","","","","","","","","","",""
"","fixation","","html-keyboard-response","189","524301","0.0-99.0","0","0","1pow4","People","","null","","","","null","","","","","","","","","","","","","","","","","","","","","","","","","","","","","","","","","","","","","","","","","","","",""
"","see_reward","","html-keyboard-response","190","525119","0.0-100.0","0","0","1pow4","People","","817","","","","32","","36","","1","","","","1","","","","","1","","","","","144","817","","","","","","","","","","","","","","","","","","","","","","","","",""
"","reward_outcome","","html-keyboard-response","191","527132","0.0-101.0","0","0","1pow4","People","","559","","","","38","","36","","1","","","","","","","","","","","","","","","","1","559","","","","","","","","","","","","","","","","","","","","","","",""
"","fixation","","html-keyboard-response","192","528145","0.0-104.0","0","0","1pow4","People","","null","","","","null","","","","","","","","","","","","","","","","","","","","","","","","","","","","","","","","","","","","","","","","","","","",""
"","see_reward","","html-keyboard-response","193","528968","0.0-105.0","0","0","1pow4","People","","820","","","","32","","12","","2","","","","-1","","","","","1","","","","","0","820","","","","","","","","","","","","","","","","","","","","","","","","",""
"","reward_outcome","","html-keyboard-response","194","530986","0.0-106.0","0","0","1pow4","People","","614","","","","40","","12","","2","","","","","","","","","","","","","","","","-1","614","","","","","","","","","","","","","","","","","","","","","","",""
"","fixation","","html-keyboard-response","195","532009","0.0-109.0","0","0","1pow4","People","","null","","","","null","","","","","","","","","","","","","","","","","","","","","","","","","","","","","","","","","","","","","","","","","","","",""
"","see_reward","","html-keyboard-response","196","532472","0.0-110.0","0","0","1pow4","People","","462","","","","32","","36","","3","","","","1","","","","","1","","","","","144","462","","","","","","","","","","","","","","","","","","","","","","","","",""
"","reward_outcome","","html-keyboard-response","197","534476","0.0-111.0","0","0","1pow4","People","","758","","","","38","","36","","3","","","","","","","","","","","","","","","","1","758","","","","","","","","","","","","","","","","","","","","","","",""
"","fixation","","html-keyboard-response","198","535498","0.0-114.0","0","0","1pow4","People","","null","","","","null","","","","","","","","","","","","","","","","","","","","","","","","","","","","","","","","","","","","","","","","","","","",""
"","see_reward","","html-keyboard-response","199","536135","0.0-115.0","0","0","1pow4","People","","636","","","","32","","24","","4","","","","-1","","","","","1","","","","","0","636","","","","","","","","","","","","","","","","","","","","","","","","",""
"","reward_outcome","","html-keyboard-response","200","538146","0.0-116.0","0","0","1pow4","People","","558","","","","40","","24","","4","","","","","","","","","","","","","","","","-1","558","","","","","","","","","","","","","","","","","","","","","","",""
"","fixation","","html-keyboard-response","201","539167","0.0-119.0","0","0","1pow4","People","","null","","","","null","","","","","","","","","","","","","","","","","","","","","","","","","","","","","","","","","","","","","","","","","","","",""
"","see_reward","","html-keyboard-response","202","539736","0.0-120.0","0","0","1pow4","People","","566","","","","32","","18","","5","","","","-1","","","","","1","","","","","0","566","","","","","","","","","","","","","","","","","","","","","","","","",""
"","reward_outcome","","html-keyboard-response","203","541741","0.0-121.0","0","0","1pow4","People","","598","","","","40","","18","","5","","","","","","","","","","","","","","","","-1","598","","","","","","","","","","","","","","","","","","","","","","",""
"","fixation","","html-keyboard-response","204","542761","0.0-124.0","0","0","1pow4","People","","null","","","","null","","","","","","","","","","","","","","","","","","","","","","","","","","","","","","","","","","","","","","","","","","","",""
"","see_reward","","html-keyboard-response","205","543671","0.0-125.0","0","0","1pow4","People","","909","","","","32","","17","","6","","","","1","","","","","1","","","","","157","909","","","","","","","","","","","","","","","","","","","","","","","","",""
"","reward_outcome","","html-keyboard-response","206","545680","0.0-126.0","0","0","1pow4","People","","798","","","","38","","17","","6","","","","","","","","","","","","","","","","1","798","","","","","","","","","","","","","","","","","","","","","","",""
"","fixation","","html-keyboard-response","207","546690","0.0-129.0","0","0","1pow4","People","","null","","","","null","","","","","","","","","","","","","","","","","","","","","","","","","","","","","","","","","","","","","","","","","","","",""
"","see_reward","","html-keyboard-response","208","547247","0.0-130.0","0","0","1pow4","People","","555","","","","32","","13","","7","","","","1","","","","","1","","","","","153","555","","","","","","","","","","","","","","","","","","","","","","","","",""
"","reward_outcome","","html-keyboard-response","209","549256","0.0-131.0","0","0","1pow4","People","","574","","","","38","","13","","7","","","","","","","","","","","","","","","","1","574","","","","","","","","","","","","","","","","","","","","","","",""
"","fixation","","html-keyboard-response","210","550261","0.0-134.0","0","0","1pow4","People","","null","","","","null","","","","","","","","","","","","","","","","","","","","","","","","","","","","","","","","","","","","","","","","","","","",""
"","see_reward","","html-keyboard-response","211","550856","0.0-135.0","0","0","1pow4","People","","593","","","","32","","48","","8","","","","-1","","","","","1","","","","","0","593","","","","","","","","","","","","","","","","","","","","","","","","",""
"","reward_outcome","","html-keyboard-response","212","552861","0.0-136.0","0","0","1pow4","People","","638","","","","40","","48","","8","","","","","","","","","","","","","","","","-1","638","","","","","","","","","","","","","","","","","","","","","","",""
"","fixation","","html-keyboard-response","213","553875","0.0-139.0","0","0","1pow4","People","","null","","","","null","","","","","","","","","","","","","","","","","","","","","","","","","","","","","","","","","","","","","","","","","","","",""
"","see_reward","","html-keyboard-response","214","554384","0.0-140.0","0","0","1pow4","People","","506","","","","32","","26","","9","","","","1","","","","","1","","","","","150","506","","","","","","","","","","","","","","","","","","","","","","","","",""
"","reward_outcome","","html-keyboard-response","215","556395","0.0-141.0","0","0","1pow4","People","","533","","","","38","","26","","9","","","","","","","","","","","","","","","","1","533","","","","","","","","","","","","","","","","","","","","","","",""
"","fixation","","html-keyboard-response","216","557407","0.0-144.0","0","0","1pow4","People","","null","","","","null","","","","","","","","","","","","","","","","","","","","","","","","","","","","","","","","","","","","","","","","","","","",""
"","see_reward","","html-keyboard-response","217","557951","0.0-145.0","0","0","1pow4","People","","541","","","","32","","1","","10","","","","1","","","","","1","","","","","158","541","","","","","","","","","","","","","","","","","","","","","","","","",""
"","reward_outcome","","html-keyboard-response","218","559969","0.0-146.0","0","0","1pow4","People","","550","","","","38","","1","","10","","","","","","","","","","","","","","","","1","550","","","","","","","","","","","","","","","","","","","","","","",""
"","fixation","","html-keyboard-response","219","560983","0.0-149.0","0","0","1pow4","People","","null","","","","null","","","","","","","","","","","","","","","","","","","","","","","","","","","","","","","","","","","","","","","","","","","",""
"","see_reward","","html-keyboard-response","220","561431","0.0-150.0","0","0","1pow4","People","","447","","","","32","","13","","11","","","","1","","","","","1","","","","","153","447","","","","","","","","","","","","","","","","","","","","","","","","",""
"","reward_outcome","","html-keyboard-response","221","563446","0.0-151.0","0","0","1pow4","People","","494","","","","38","","13","","11","","","","","","","","","","","","","","","","1","494","","","","","","","","","","","","","","","","","","","","","","",""
"","fixation","","html-keyboard-response","222","564459","0.0-154.0","0","0","1pow4","People","","null","","","","null","","","","","","","","","","","","","","","","","","","","","","","","","","","","","","","","","","","","","","","","","","","",""
"","see_reward","","html-keyboard-response","223","565135","0.0-155.0","0","0","1pow4","People","","670","","","","32","","24","","12","","","","-1","","","","","1","","","","","0","670","","","","","","","","","","","","","","","","","","","","","","","","",""
"","reward_outcome","","html-keyboard-response","224","567144","0.0-156.0","0","0","1pow4","People","","518","","","","40","","24","","12","","","","","","","","","","","","","","","","-1","518","","","","","","","","","","","","","","","","","","","","","","",""
"","fixation","","html-keyboard-response","225","568158","0.0-159.0","0","0","1pow4","People","","null","","","","null","","","","","","","","","","","","","","","","","","","","","","","","","","","","","","","","","","","","","","","","","","","",""
"","see_reward","","html-keyboard-response","226","568759","0.0-160.0","0","0","1pow4","People","","600","","","","32","","26","","13","","","","1","","","","","1","","","","","150","600","","","","","","","","","","","","","","","","","","","","","","","","",""
"","reward_outcome","","html-keyboard-response","227","570767","0.0-161.0","0","0","1pow4","People","","318","","","","38","","26","","13","","","","","","","","","","","","","","","","1","318","","","","","","","","","","","","","","","","","","","","","","",""
"","fixation","","html-keyboard-response","228","571772","0.0-164.0","0","0","1pow4","People","","null","","","","null","","","","","","","","","","","","","","","","","","","","","","","","","","","","","","","","","","","","","","","","","","","",""
"","see_reward","","html-keyboard-response","229","572247","0.0-165.0","0","0","1pow4","People","","474","","","","32","","1","","14","","","","1","","","","","1","","","","","158","474","","","","","","","","","","","","","","","","","","","","","","","","",""
"","reward_outcome","","html-keyboard-response","230","574267","0.0-166.0","0","0","1pow4","People","","414","","","","38","","1","","14","","","","","","","","","","","","","","","","1","414","","","","","","","","","","","","","","","","","","","","","","",""
"","fixation","","html-keyboard-response","231","575276","0.0-169.0","0","0","1pow4","People","","null","","","","null","","","","","","","","","","","","","","","","","","","","","","","","","","","","","","","","","","","","","","","","","","","",""
"","see_reward","","html-keyboard-response","232","575751","0.0-170.0","0","0","1pow4","People","","473","","","","32","","40","","15","","","","1","","","","","1","","","","","157","473","","","","","","","","","","","","","","","","","","","","","","","","",""
"","reward_outcome","","html-keyboard-response","233","577762","0.0-171.0","0","0","1pow4","People","","478","","","","38","","40","","15","","","","","","","","","","","","","","","","1","478","","","","","","","","","","","","","","","","","","","","","","",""
"","fixation","","html-keyboard-response","234","578776","0.0-174.0","0","0","1pow4","People","","null","","","","null","","","","","","","","","","","","","","","","","","","","","","","","","","","","","","","","","","","","","","","","","","","",""
"","see_reward","","html-keyboard-response","235","579127","0.0-175.0","0","0","1pow4","People","","349","","","","32","","18","","16","","","","-1","","","","","1","","","","","0","349","","","","","","","","","","","","","","","","","","","","","","","","",""
"","reward_outcome","","html-keyboard-response","236","581137","0.0-176.0","0","0","1pow4","People","","479","","","","40","","18","","16","","","","","","","","","","","","","","","","-1","479","","","","","","","","","","","","","","","","","","","","","","",""
"","fixation","","html-keyboard-response","237","582146","0.0-179.0","0","0","1pow4","People","","null","","","","null","","","","","","","","","","","","","","","","","","","","","","","","","","","","","","","","","","","","","","","","","","","",""
"","see_reward","","html-keyboard-response","238","582607","0.0-180.0","0","0","1pow4","People","","460","","","","32","","40","","17","","","","1","","","","","1","","","","","157","460","","","","","","","","","","","","","","","","","","","","","","","","",""
"","reward_outcome","","html-keyboard-response","239","584619","0.0-181.0","0","0","1pow4","People","","334","","","","38","","40","","17","","","","","","","","","","","","","","","","1","334","","","","","","","","","","","","","","","","","","","","","","",""
"","fixation","","html-keyboard-response","240","585631","0.0-184.0","0","0","1pow4","People","","null","","","","null","","","","","","","","","","","","","","","","","","","","","","","","","","","","","","","","","","","","","","","","","","","",""
"","see_reward","","html-keyboard-response","241","586199","0.0-185.0","0","0","1pow4","People","","567","","","","32","","17","","18","","","","1","","","","","1","","","","","157","567","","","","","","","","","","","","","","","","","","","","","","","","",""
"","reward_outcome","","html-keyboard-response","242","588209","0.0-186.0","0","0","1pow4","People","","270","","","","38","","17","","18","","","","","","","","","","","","","","","","1","270","","","","","","","","","","","","","","","","","","","","","","",""
"","fixation","","html-keyboard-response","243","589213","0.0-189.0","0","0","1pow4","People","","null","","","","null","","","","","","","","","","","","","","","","","","","","","","","","","","","","","","","","","","","","","","","","","","","",""
"","see_reward","","html-keyboard-response","244","589624","0.0-190.0","0","0","1pow4","People","","410","","","","32","","41","","19","","","","-1","","","","","1","","","","","0","410","","","","","","","","","","","","","","","","","","","","","","","","",""
"","reward_outcome","","html-keyboard-response","245","591639","0.0-191.0","0","0","1pow4","People","","671","","","","40","","41","","19","","","","","","","","","","","","","","","","-1","671","","","","","","","","","","","","","","","","","","","","","","",""
"","fixation","","html-keyboard-response","246","592645","0.0-194.0","0","0","1pow4","People","","null","","","","null","","","","","","","","","","","","","","","","","","","","","","","","","","","","","","","","","","","","","","","","","","","",""
"","see_reward","","html-keyboard-response","247","593136","0.0-195.0","0","0","1pow4","People","","490","","","","32","","21","","20","","","","-1","","","","","1","","","","","0","490","","","","","","","","","","","","","","","","","","","","","","","","",""
"","reward_outcome","","html-keyboard-response","248","595153","0.0-196.0","0","0","1pow4","People","","534","","","","40","","21","","20","","","","","","","","","","","","","","","","-1","534","","","","","","","","","","","","","","","","","","","","","","",""
"","fixation","","html-keyboard-response","249","596161","0.0-199.0","0","0","1pow4","People","","null","","","","null","","","","","","","","","","","","","","","","","","","","","","","","","","","","","","","","","","","","","","","","","","","",""
"","see_reward","","html-keyboard-response","250","596656","0.0-200.0","0","0","1pow4","People","","495","","","","32","","12","","21","","","","-1","","","","","1","","","","","0","495","","","","","","","","","","","","","","","","","","","","","","","","",""
"","reward_outcome","","html-keyboard-response","251","598662","0.0-201.0","0","0","1pow4","People","","590","","","","40","","12","","21","","","","","","","","","","","","","","","","-1","590","","","","","","","","","","","","","","","","","","","","","","",""
"","fixation","","html-keyboard-response","252","599673","0.0-204.0","0","0","1pow4","People","","null","","","","null","","","","","","","","","","","","","","","","","","","","","","","","","","","","","","","","","","","","","","","","","","","",""
"","see_reward","","html-keyboard-response","253","600159","0.0-205.0","0","0","1pow4","People","","486","","","","32","","41","","22","","","","-1","","","","","1","","","","","0","486","","","","","","","","","","","","","","","","","","","","","","","","",""
"","reward_outcome","","html-keyboard-response","254","602169","0.0-206.0","0","0","1pow4","People","","455","","","","40","","41","","22","","","","","","","","","","","","","","","","-1","455","","","","","","","","","","","","","","","","","","","","","","",""
"","fixation","","html-keyboard-response","255","603177","0.0-209.0","0","0","1pow4","People","","null","","","","null","","","","","","","","","","","","","","","","","","","","","","","","","","","","","","","","","","","","","","","","","","","",""
"","see_reward","","html-keyboard-response","256","603632","0.0-210.0","0","0","1pow4","People","","454","","","","32","","21","","23","","","","-1","","","","","1","","","","","0","454","","","","","","","","","","","","","","","","","","","","","","","","",""
"","reward_outcome","","html-keyboard-response","257","605645","0.0-211.0","0","0","1pow4","People","","381","","","","40","","21","","23","","","","","","","","","","","","","","","","-1","381","","","","","","","","","","","","","","","","","","","","","","",""
"","block_over","","html-keyboard-response","258","608047","0.0-213.0-0.0","0","0","1pow4","People","","2401","","","","78","","","","","","","","","","","","","","","","","","","","","","","","","","","","","","","","","","","","","","","","","","","",""
"","fixation","","html-keyboard-response","259","609053","0.0-214.0","0","0","1pow4","People","","null","","","","null","","","","","","","","","","","","","","","","","","","","","","","","","","","","","","","","","","","","","","","","","","","",""
"","see_reward","","html-keyboard-response","260","609608","0.0-215.0","0","0","1pow4","People","","554","","","","32","","18","","24","","","","-1","","","","","2","","","","","0","554","","","","","","","","","","","","","","","","","","","","","","","","",""
"","reward_outcome","","html-keyboard-response","261","611624","0.0-216.0","0","0","1pow4","People","","415","","","","40","","18","","24","","","","","","","","","","","","","","","","-1","415","","","","","","","","","","","","","","","","","","","","","","",""
"","fixation","","html-keyboard-response","262","612633","0.0-219.0","0","0","1pow4","People","","null","","","","null","","","","","","","","","","","","","","","","","","","","","","","","","","","","","","","","","","","","","","","","","","","",""
"","see_reward","","html-keyboard-response","263","613111","0.0-220.0","0","0","1pow4","People","","478","","","","32","","24","","25","","","","-1","","","","","2","","","","","0","478","","","","","","","","","","","","","","","","","","","","","","","","",""
"","reward_outcome","","html-keyboard-response","264","615122","0.0-221.0","0","0","1pow4","People","","607","","","","40","","24","","25","","","","","","","","","","","","","","","","-1","607","","","","","","","","","","","","","","","","","","","","","","",""
"","fixation","","html-keyboard-response","265","616130","0.0-224.0","0","0","1pow4","People","","null","","","","null","","","","","","","","","","","","","","","","","","","","","","","","","","","","","","","","","","","","","","","","","","","",""
"","see_reward","","html-keyboard-response","266","616151","0.0-225.0","0","0","1pow4","People","","21","","","","32","","36","","26","","","","1","","","","","2","","","","","144","21","","","","","","","","","","","","","","","","","","","","","","","","",""
"","reward_outcome","","html-keyboard-response","267","618164","0.0-226.0","0","0","1pow4","People","","1069","","","","38","","36","","26","","","","","","","","","","","","","","","","1","1069","","","","","","","","","","","","","","","","","","","","","","",""
"","fixation","","html-keyboard-response","268","619174","0.0-229.0","0","0","1pow4","People","","null","","","","null","","","","","","","","","","","","","","","","","","","","","","","","","","","","","","","","","","","","","","","","","","","",""
"","see_reward","","html-keyboard-response","269","619616","0.0-230.0","0","0","1pow4","People","","441","","","","32","","40","","27","","","","1","","","","","2","","","","","157","441","","","","","","","","","","","","","","","","","","","","","","","","",""
"","reward_outcome","","html-keyboard-response","270","621623","0.0-231.0","0","0","1pow4","People","","519","","","","38","","40","","27","","","","","","","","","","","","","","","","1","519","","","","","","","","","","","","","","","","","","","","","","",""
"","fixation","","html-keyboard-response","271","622635","0.0-234.0","0","0","1pow4","People","","null","","","","null","","","","","","","","","","","","","","","","","","","","","","","","","","","","","","","","","","","","","","","","","","","",""
"","see_reward","","html-keyboard-response","272","623176","0.0-235.0","0","0","1pow4","People","","540","","","","32","","12","","28","","","","-1","","","","","2","","","","","0","540","","","","","","","","","","","","","","","","","","","","","","","","",""
"","reward_outcome","","html-keyboard-response","273","625195","0.0-236.0","0","0","1pow4","People","","303","","","","40","","12","","28","","","","","","","","","","","","","","","","-1","303","","","","","","","","","","","","","","","","","","","","","","",""
"","fixation","","html-keyboard-response","274","626211","0.0-239.0","0","0","1pow4","People","","null","","","","null","","","","","","","","","","","","","","","","","","","","","","","","","","","","","","","","","","","","","","","","","","","",""
"","see_reward","","html-keyboard-response","275","626560","0.0-240.0","0","0","1pow4","People","","347","","","","32","","17","","29","","","","1","","","","","2","","","","","157","347","","","","","","","","","","","","","","","","","","","","","","","","",""
"","reward_outcome","","html-keyboard-response","276","628569","0.0-241.0","0","0","1pow4","People","","303","","","","38","","17","","29","","","","","","","","","","","","","","","","1","303","","","","","","","","","","","","","","","","","","","","","","",""
"","fixation","","html-keyboard-response","277","629575","0.0-244.0","0","0","1pow4","People","","null","","","","null","","","","","","","","","","","","","","","","","","","","","","","","","","","","","","","","","","","","","","","","","","","",""
"","see_reward","","html-keyboard-response","278","630167","0.0-245.0","0","0","1pow4","People","","590","","","","32","","18","","30","","","","-1","","","","","2","","","","","0","590","","","","","","","","","","","","","","","","","","","","","","","","",""
"","reward_outcome","","html-keyboard-response","279","632186","0.0-246.0","0","0","1pow4","People","","303","","","","40","","18","","30","","","","","","","","","","","","","","","","-1","303","","","","","","","","","","","","","","","","","","","","","","",""
"","fixation","","html-keyboard-response","280","633192","0.0-249.0","0","0","1pow4","People","","null","","","","null","","","","","","","","","","","","","","","","","","","","","","","","","","","","","","","","","","","","","","","","","","","",""
"","see_reward","","html-keyboard-response","281","633777","0.0-250.0","0","0","1pow4","People","","582","","","","32","","26","","31","","","","1","","","","","2","","","","","150","582","","","","","","","","","","","","","","","","","","","","","","","","",""
"","reward_outcome","","html-keyboard-response","282","635783","0.0-251.0","0","0","1pow4","People","","293","","","","38","","26","","31","","","","","","","","","","","","","","","","1","293","","","","","","","","","","","","","","","","","","","","","","",""
"","fixation","","html-keyboard-response","283","636795","0.0-254.0","0","0","1pow4","People","","null","","","","null","","","","","","","","","","","","","","","","","","","","","","","","","","","","","","","","","","","","","","","","","","","",""
"","see_reward","","html-keyboard-response","284","637344","0.0-255.0","0","0","1pow4","People","","548","","","","32","","1","","32","","","","1","","","","","2","","","","","158","548","","","","","","","","","","","","","","","","","","","","","","","","",""
"","reward_outcome","","html-keyboard-response","285","639361","0.0-256.0","0","0","1pow4","People","","262","","","","38","","1","","32","","","","","","","","","","","","","","","","1","262","","","","","","","","","","","","","","","","","","","","","","",""
"","fixation","","html-keyboard-response","286","640366","0.0-259.0","0","0","1pow4","People","","null","","","","null","","","","","","","","","","","","","","","","","","","","","","","","","","","","","","","","","","","","","","","","","","","",""
"","see_reward","","html-keyboard-response","287","640904","0.0-260.0","0","0","1pow4","People","","536","","","","32","","13","","33","","","","1","","","","","2","","","","","153","536","","","","","","","","","","","","","","","","","","","","","","","","",""
"","reward_outcome","","html-keyboard-response","288","642914","0.0-261.0","0","0","1pow4","People","","295","","","","38","","13","","33","","","","","","","","","","","","","","","","1","295","","","","","","","","","","","","","","","","","","","","","","",""
"","fixation","","html-keyboard-response","289","643930","0.0-264.0","0","0","1pow4","People","","null","","","","null","","","","","","","","","","","","","","","","","","","","","","","","","","","","","","","","","","","","","","","","","","","",""
"","see_reward","","html-keyboard-response","290","644536","0.0-265.0","0","0","1pow4","People","","604","","","","32","","21","","34","","","","-1","","","","","2","","","","","0","604","","","","","","","","","","","","","","","","","","","","","","","","",""
"","reward_outcome","","html-keyboard-response","291","646545","0.0-266.0","0","0","1pow4","People","","342","","","","40","","21","","34","","","","","","","","","","","","","","","","-1","342","","","","","","","","","","","","","","","","","","","","","","",""
"","fixation","","html-keyboard-response","292","647559","0.0-269.0","0","0","1pow4","People","","null","","","","null","","","","","","","","","","","","","","","","","","","","","","","","","","","","","","","","","","","","","","","","","","","",""
"","see_reward","","html-keyboard-response","293","648056","0.0-270.0","0","0","1pow4","People","","497","","","","32","","1","","35","","","","1","","","","","2","","","","","158","497","","","","","","","","","","","","","","","","","","","","","","","","",""
"","reward_outcome","","html-keyboard-response","294","650066","0.0-271.0","0","0","1pow4","People","","286","","","","38","","1","","35","","","","","","","","","","","","","","","","1","286","","","","","","","","","","","","","","","","","","","","","","",""
"","fixation","","html-keyboard-response","295","651078","0.0-274.0","0","0","1pow4","People","","null","","","","null","","","","","","","","","","","","","","","","","","","","","","","","","","","","","","","","","","","","","","","","","","","",""
"","see_reward","","html-keyboard-response","296","651575","0.0-275.0","0","0","1pow4","People","","497","","","","32","","17","","36","","","","1","","","","","2","","","","","157","497","","","","","","","","","","","","","","","","","","","","","","","","",""
"","reward_outcome","","html-keyboard-response","297","653592","0.0-276.0","0","0","1pow4","People","","383","","","","38","","17","","36","","","","","","","","","","","","","","","","1","383","","","","","","","","","","","","","","","","","","","","","","",""
"","fixation","","html-keyboard-response","298","654613","0.0-279.0","0","0","1pow4","People","","null","","","","null","","","","","","","","","","","","","","","","","","","","","","","","","","","","","","","","","","","","","","","","","","","",""
"","see_reward","","html-keyboard-response","299","654984","0.0-280.0","0","0","1pow4","People","","370","","","","32","","40","","37","","","","1","","","","","2","","","","","157","370","","","","","","","","","","","","","","","","","","","","","","","","",""
"","reward_outcome","","html-keyboard-response","300","656990","0.0-281.0","0","0","1pow4","People","","319","","","","38","","40","","37","","","","","","","","","","","","","","","","1","319","","","","","","","","","","","","","","","","","","","","","","",""
"","fixation","","html-keyboard-response","301","657997","0.0-284.0","0","0","1pow4","People","","null","","","","null","","","","","","","","","","","","","","","","","","","","","","","","","","","","","","","","","","","","","","","","","","","",""
"","see_reward","","html-keyboard-response","302","658543","0.0-285.0","0","0","1pow4","People","","545","","","","32","","48","","38","","","","-1","","","","","2","","","","","0","545","","","","","","","","","","","","","","","","","","","","","","","","",""
"","reward_outcome","","html-keyboard-response","303","660551","0.0-286.0","0","0","1pow4","People","","439","","","","40","","48","","38","","","","","","","","","","","","","","","","-1","439","","","","","","","","","","","","","","","","","","","","","","",""
"","fixation","","html-keyboard-response","304","661565","0.0-289.0","0","0","1pow4","People","","null","","","","null","","","","","","","","","","","","","","","","","","","","","","","","","","","","","","","","","","","","","","","","","","","",""
"","see_reward","","html-keyboard-response","305","662168","0.0-290.0","0","0","1pow4","People","","602","","","","32","","36","","39","","","","1","","","","","2","","","","","144","602","","","","","","","","","","","","","","","","","","","","","","","","",""
"","reward_outcome","","html-keyboard-response","306","664185","0.0-291.0","0","0","1pow4","People","","296","","","","38","","36","","39","","","","","","","","","","","","","","","","1","296","","","","","","","","","","","","","","","","","","","","","","",""
"","fixation","","html-keyboard-response","307","665192","0.0-294.0","0","0","1pow4","People","","null","","","","null","","","","","","","","","","","","","","","","","","","","","","","","","","","","","","","","","","","","","","","","","","","",""
"","see_reward","","html-keyboard-response","308","665752","0.0-295.0","0","0","1pow4","People","","559","","","","32","","26","","40","","","","1","","","","","2","","","","","150","559","","","","","","","","","","","","","","","","","","","","","","","","",""
"","reward_outcome","","html-keyboard-response","309","667766","0.0-296.0","0","0","1pow4","People","","287","","","","38","","26","","40","","","","","","","","","","","","","","","","1","287","","","","","","","","","","","","","","","","","","","","","","",""
"","fixation","","html-keyboard-response","310","668774","0.0-299.0","0","0","1pow4","People","","null","","","","null","","","","","","","","","","","","","","","","","","","","","","","","","","","","","","","","","","","","","","","","","","","",""
"","see_reward","","html-keyboard-response","311","669087","0.0-300.0","0","0","1pow4","People","","312","","","","32","","13","","41","","","","1","","","","","2","","","","","153","312","","","","","","","","","","","","","","","","","","","","","","","","",""
"","reward_outcome","","html-keyboard-response","312","671106","0.0-301.0","0","0","1pow4","People","","350","","","","38","","13","","41","","","","","","","","","","","","","","","","1","350","","","","","","","","","","","","","","","","","","","","","","",""
"","fixation","","html-keyboard-response","313","672115","0.0-304.0","0","0","1pow4","People","","null","","","","null","","","","","","","","","","","","","","","","","","","","","","","","","","","","","","","","","","","","","","","","","","","",""
"","see_reward","","html-keyboard-response","314","672423","0.0-305.0","0","0","1pow4","People","","304","","","","32","","12","","42","","","","-1","","","","","2","","","","","0","304","","","","","","","","","","","","","","","","","","","","","","","","",""
"","reward_outcome","","html-keyboard-response","315","674443","0.0-306.0","0","0","1pow4","People","","472","","","","40","","12","","42","","","","","","","","","","","","","","","","-1","472","","","","","","","","","","","","","","","","","","","","","","",""
"","fixation","","html-keyboard-response","316","675463","0.0-309.0","0","0","1pow4","People","","null","","","","null","","","","","","","","","","","","","","","","","","","","","","","","","","","","","","","","","","","","","","","","","","","",""
"","see_reward","","html-keyboard-response","317","675992","0.0-310.0","0","0","1pow4","People","","528","","","","32","","24","","43","","","","-1","","","","","2","","","","","0","528","","","","","","","","","","","","","","","","","","","","","","","","",""
"","reward_outcome","","html-keyboard-response","318","678008","0.0-311.0","0","0","1pow4","People","","399","","","","40","","24","","43","","","","","","","","","","","","","","","","-1","399","","","","","","","","","","","","","","","","","","","","","","",""
"","fixation","","html-keyboard-response","319","679023","0.0-314.0","0","0","1pow4","People","","null","","","","null","","","","","","","","","","","","","","","","","","","","","","","","","","","","","","","","","","","","","","","","","","","",""
"","see_reward","","html-keyboard-response","320","679959","0.0-315.0","0","0","1pow4","People","","936","","","","32","","41","","44","","","","-1","","","","","2","","","","","0","936","","","","","","","","","","","","","","","","","","","","","","","","",""
"","reward_outcome","","html-keyboard-response","321","681971","0.0-316.0","0","0","1pow4","People","","679","","","","40","","41","","44","","","","","","","","","","","","","","","","-1","679","","","","","","","","","","","","","","","","","","","","","","",""
"","fixation","","html-keyboard-response","322","682994","0.0-319.0","0","0","1pow4","People","","null","","","","null","","","","","","","","","","","","","","","","","","","","","","","","","","","","","","","","","","","","","","","","","","","",""
"","see_reward","","html-keyboard-response","323","683519","0.0-320.0","0","0","1pow4","People","","524","","","","32","","48","","45","","","","-1","","","","","2","","","","","0","524","","","","","","","","","","","","","","","","","","","","","","","","",""
"","reward_outcome","","html-keyboard-response","324","685529","0.0-321.0","0","0","1pow4","People","","574","","","","40","","48","","45","","","","","","","","","","","","","","","","-1","574","","","","","","","","","","","","","","","","","","","","","","",""
"","fixation","","html-keyboard-response","325","686537","0.0-324.0","0","0","1pow4","People","","null","","","","null","","","","","","","","","","","","","","","","","","","","","","","","","","","","","","","","","","","","","","","","","","","",""
"","see_reward","","html-keyboard-response","326","687000","0.0-325.0","0","0","1pow4","People","","462","","","","32","","21","","46","","","","-1","","","","","2","","","","","0","462","","","","","","","","","","","","","","","","","","","","","","","","",""
"","reward_outcome","","html-keyboard-response","327","689013","0.0-326.0","0","0","1pow4","People","","295","","","","40","","21","","46","","","","","","","","","","","","","","","","-1","295","","","","","","","","","","","","","","","","","","","","","","",""
"","fixation","","html-keyboard-response","328","690021","0.0-329.0","0","0","1pow4","People","","null","","","","null","","","","","","","","","","","","","","","","","","","","","","","","","","","","","","","","","","","","","","","","","","","",""
"","see_reward","","html-keyboard-response","329","690416","0.0-330.0","0","0","1pow4","People","","394","","","","32","","41","","47","","","","-1","","","","","2","","","","","0","394","","","","","","","","","","","","","","","","","","","","","","","","",""
"","reward_outcome","","html-keyboard-response","330","692441","0.0-331.0","0","0","1pow4","People","","375","","","","40","","41","","47","","","","","","","","","","","","","","","","-1","375","","","","","","","","","","","","","","","","","","","","","","",""
"","block_over","","html-keyboard-response","331","715415","0.0-333.0-0.0","0","0","1pow4","People","","22973","","","","78","","","","","","","","","","","","","","","","","","","","","","","","","","","","","","","","","","","","","","","","","","","",""
"","fixation","","html-keyboard-response","332","716425","0.0-334.0","0","0","1pow4","People","","null","","","","null","","","","","","","","","","","","","","","","","","","","","","","","","","","","","","","","","","","","","","","","","","","",""
"","see_reward","","html-keyboard-response","333","716951","0.0-335.0","0","0","1pow4","People","","524","","","","32","","24","","48","","","","-1","","","","","3","","","","","0","524","","","","","","","","","","","","","","","","","","","","","","","","",""
"","reward_outcome","","html-keyboard-response","334","718958","0.0-336.0","0","0","1pow4","People","","318","","","","40","","24","","48","","","","","","","","","","","","","","","","-1","318","","","","","","","","","","","","","","","","","","","","","","",""
"","fixation","","html-keyboard-response","335","719968","0.0-339.0","0","0","1pow4","People","","null","","","","null","","","","","","","","","","","","","","","","","","","","","","","","","","","","","","","","","","","","","","","","","","","",""
"","see_reward","","html-keyboard-response","336","720415","0.0-340.0","0","0","1pow4","People","","447","","","","32","","1","","49","","","","1","","","","","3","","","","","158","447","","","","","","","","","","","","","","","","","","","","","","","","",""
"","reward_outcome","","html-keyboard-response","337","722430","0.0-341.0","0","0","1pow4","People","","206","","","","38","","1","","49","","","","","","","","","","","","","","","","1","206","","","","","","","","","","","","","","","","","","","","","","",""
"","fixation","","html-keyboard-response","338","723445","0.0-344.0","0","0","1pow4","People","","null","","","","null","","","","","","","","","","","","","","","","","","","","","","","","","","","","","","","","","","","","","","","","","","","",""
"","see_reward","","html-keyboard-response","339","723880","0.0-345.0","0","0","1pow4","People","","433","","","","32","","21","","50","","","","-1","","","","","3","","","","","0","433","","","","","","","","","","","","","","","","","","","","","","","","",""
"","reward_outcome","","html-keyboard-response","340","725893","0.0-346.0","0","0","1pow4","People","","206","","","","40","","21","","50","","","","","","","","","","","","","","","","-1","206","","","","","","","","","","","","","","","","","","","","","","",""
"","fixation","","html-keyboard-response","341","726902","0.0-349.0","0","0","1pow4","People","","null","","","","null","","","","","","","","","","","","","","","","","","","","","","","","","","","","","","","","","","","","","","","","","","","",""
"","see_reward","","html-keyboard-response","342","727359","0.0-350.0","0","0","1pow4","People","","456","","","","32","","40","","51","","","","1","","","","","3","","","","","157","456","","","","","","","","","","","","","","","","","","","","","","","","",""
"","reward_outcome","","html-keyboard-response","343","729371","0.0-351.0","0","0","1pow4","People","","182","","","","38","","40","","51","","","","","","","","","","","","","","","","1","182","","","","","","","","","","","","","","","","","","","","","","",""
"","fixation","","html-keyboard-response","344","730381","0.0-354.0","0","0","1pow4","People","","null","","","","null","","","","","","","","","","","","","","","","","","","","","","","","","","","","","","","","","","","","","","","","","","","",""
"","see_reward","","html-keyboard-response","345","730871","0.0-355.0","0","0","1pow4","People","","489","","","","32","","17","","52","","","","1","","","","","3","","","","","157","489","","","","","","","","","","","","","","","","","","","","","","","","",""
"","reward_outcome","","html-keyboard-response","346","732877","0.0-356.0","0","0","1pow4","People","","190","","","","38","","17","","52","","","","","","","","","","","","","","","","1","190","","","","","","","","","","","","","","","","","","","","","","",""
"","fixation","","html-keyboard-response","347","733898","0.0-359.0","0","0","1pow4","People","","null","","","","null","","","","","","","","","","","","","","","","","","","","","","","","","","","","","","","","","","","","","","","","","","","",""
"","see_reward","","html-keyboard-response","348","734407","0.0-360.0","0","0","1pow4","People","","507","","","","32","","12","","53","","","","-1","","","","","3","","","","","0","507","","","","","","","","","","","","","","","","","","","","","","","","",""
"","reward_outcome","","html-keyboard-response","349","736413","0.0-361.0","0","0","1pow4","People","","247","","","","40","","12","","53","","","","","","","","","","","","","","","","-1","247","","","","","","","","","","","","","","","","","","","","","","",""
"","fixation","","html-keyboard-response","350","737445","0.0-364.0","0","0","1pow4","People","","null","","","","null","","","","","","","","","","","","","","","","","","","","","","","","","","","","","","","","","","","","","","","","","","","",""
"","see_reward","","html-keyboard-response","351","738008","0.0-365.0","0","0","1pow4","People","","562","","","","32","","13","","54","","","","1","","","","","3","","","","","153","562","","","","","","","","","","","","","","","","","","","","","","","","",""
"","reward_outcome","","html-keyboard-response","352","740023","0.0-366.0","0","0","1pow4","People","","183","","","","38","","13","","54","","","","","","","","","","","","","","","","1","183","","","","","","","","","","","","","","","","","","","","","","",""
"","fixation","","html-keyboard-response","353","741031","0.0-369.0","0","0","1pow4","People","","null","","","","null","","","","","","","","","","","","","","","","","","","","","","","","","","","","","","","","","","","","","","","","","","","",""
