"success","ttype","start_time","trial_type","trial_index","time_elapsed","internal_node_id","warning","missed_checkup","PID","stim_type","view_history","rt","responses","repeat_instructions","key_press","response","stimulus_id","painting","index","stimulus_left","stimulus_right","explain_trial","reward_type","rating_left","rating_right","painting_left","painting_right","block","left_chosen","chosen_obj","unchosen_obj","explain_response","reward_amount","see_reward_rt","register_reward_response","register_reward_rt","deliberation_reward_tally","stimulus_left_deliberation_ind","stimulus_right_deliberation_ind","chosen_trial","gain_left","higher_outcome_chosen","old_pair","chosen_object","rt_pairs","left_object_chosen","rt_object","old_response","new_rating","deliberated_stim","initial_rating","outcome_eval_rt","outcome_eval_response","outcome_eval_gain","outcome_eval_acc","preamble","outcome_eval_confidence","outcome_eval_confidence_rt","total_reward_tally"
"true","full_screen","d01192023hr2048","fullscreen","0","125268","0.0-0.0","0","0","HL3zD","Scenes","","","","","","","","","","","","","","","","","","","","","","","","","","","","","","","","","","","","","","","","","","","","","","","","",""
"","rating_instructions","","instructions","1","142326","0.0-1.0-0.0","0","0","HL3zD","Scenes","[{""page_index"":0,""viewing_time"":13527},{""page_index"":1,""viewing_time"":3529}]","17056","","","","","","","","","","","","","","","","","","","","","","","","","","","","","","","","","","","","","","","","","","","","","","",""
"","rating_comprehension_check","","survey-multi-choice","2","225154","0.0-1.0-1.0","0","0","HL3zD","Scenes","","82826","{""Q0"":""True"",""Q1"":""Mouse""}","0","","","","","","","","","","","","","","","","","","","","","","","","","","","","","","","","","","","","","","","","","","","","",""
"","start_phase","","html-keyboard-response","3","280446","0.0-2.0","0","0","HL3zD","Scenes","","55285","","","78","","","","","","","","","","","","","","","","","","","","","","","","","","","","","","","","","","","","","","","","","","","",""
"","rating","","html-slider-response","4","287469","0.0-3.0","0","0","HL3zD","Scenes","","7020","","","","88","134","milada-vigerova-pQMM63GE7fo-unsplash.jpg","0","","","","","","","","","","","","","","","","","","","","","","","","","","","","","","","","","","","","","","","",""
"","rating","","html-slider-response","5","291610","0.0-4.0","0","0","HL3zD","Scenes","","4140","","","","88","108","benjamin-voros-phIFdC6lA4E-unsplash.jpg","1","","","","","","","","","","","","","","","","","","","","","","","","","","","","","","","","","","","","","","","",""
"","rating","","html-slider-response","6","295530","0.0-5.0","0","0","HL3zD","Scenes","","3919","","","","100","102","anisur-rahman-K2b7UDed6uQ-unsplash.jpg","2","","","","","","","","","","","","","","","","","","","","","","","","","","","","","","","","","","","","","","","",""
"","rating","","html-slider-response","7","299946","0.0-6.0","0","0","HL3zD","Scenes","","4415","","","","100","145","stephen-leonardi-gyIRjKPXupE-unsplash.jpg","3","","","","","","","","","","","","","","","","","","","","","","","","","","","","","","","","","","","","","","","",""
"","rating","","html-slider-response","8","306099","0.0-7.0","0","0","HL3zD","Scenes","","6151","","","","91","149","yuriy-bogdanov-W51VK3Obcj0-unsplash.jpg","4","","","","","","","","","","","","","","","","","","","","","","","","","","","","","","","","","","","","","","","",""
"","rating","","html-slider-response","9","310930","0.0-8.0","0","0","HL3zD","Scenes","","4829","","","","98","109","brigitta-schneiter-hXXRLtTxXCU-unsplash.jpg","5","","","","","","","","","","","","","","","","","","","","","","","","","","","","","","","","","","","","","","","",""
"","rating","","html-slider-response","10","319042","0.0-9.0","0","0","HL3zD","Scenes","","8110","","","","99","101","aniket-deole-T-tOgjWZ0fQ-unsplash.jpg","6","","","","","","","","","","","","","","","","","","","","","","","","","","","","","","","","","","","","","","","",""
"","rating","","html-slider-response","11","323818","0.0-10.0","0","0","HL3zD","Scenes","","4775","","","","98","138","petr-vysohlid-9fqwGqGLUxc-unsplash.jpg","7","","","","","","","","","","","","","","","","","","","","","","","","","","","","","","","","","","","","","","","",""
"","rating","","html-slider-response","12","327514","0.0-11.0","0","0","HL3zD","Scenes","","3694","","","","99","107","benjamin-davies-Zm2n2O7Fph4-unsplash.jpg","8","","","","","","","","","","","","","","","","","","","","","","","","","","","","","","","","","","","","","","","",""
"","rating","","html-slider-response","13","331258","0.0-12.0","0","0","HL3zD","Scenes","","3744","","","","98","132","meng-ji-8BH_M-53CyA-unsplash.jpg","9","","","","","","","","","","","","","","","","","","","","","","","","","","","","","","","","","","","","","","","",""
"","rating","","html-slider-response","14","336107","0.0-13.0","0","0","HL3zD","Scenes","","4846","","","","98","118","henry-be-NLF6hTe4PAg-unsplash.jpg","10","","","","","","","","","","","","","","","","","","","","","","","","","","","","","","","","","","","","","","","",""
"","rating","","html-slider-response","15","342539","0.0-14.0","0","0","HL3zD","Scenes","","6431","","","","96","139","samsommer-vddccTqwal8-unsplash.jpg","11","","","","","","","","","","","","","","","","","","","","","","","","","","","","","","","","","","","","","","","",""
"","rating","","html-slider-response","16","348818","0.0-15.0","0","0","HL3zD","Scenes","","6278","","","","97","122","jeff-king-bJHWJeiHfHc-unsplash.jpg","12","","","","","","","","","","","","","","","","","","","","","","","","","","","","","","","","","","","","","","","",""
"","rating","","html-slider-response","17","355867","0.0-16.0","0","0","HL3zD","Scenes","","7047","","","","35","105","ashim-d-silva-S2Q5mdOrrVc-unsplash.jpg","13","","","","","","","","","","","","","","","","","","","","","","","","","","","","","","","","","","","","","","","",""
"","rating","","html-slider-response","18","361282","0.0-17.0","0","0","HL3zD","Scenes","","5414","","","","43","106","ashim-d-silva-WeYamle9fDM-unsplash.jpg","14","","","","","","","","","","","","","","","","","","","","","","","","","","","","","","","","","","","","","","","",""
"","rating","","html-slider-response","19","389140","0.0-18.0","0","0","HL3zD","Scenes","","27855","","","","91","143","sigurdur-fjalar-jonsson-1KxBabIntpE-unsplash.jpg","15","","","","","","","","","","","","","","","","","","","","","","","","","","","","","","","","","","","","","","","",""
"","rating","","html-slider-response","20","393642","0.0-19.0","0","0","HL3zD","Scenes","","4500","","","","98","140","samuele-errico-piccarini-JEBqFu2AOOA-unsplash.jpg","16","","","","","","","","","","","","","","","","","","","","","","","","","","","","","","","","","","","","","","","",""
"","rating","","html-slider-response","21","398946","0.0-20.0","0","0","HL3zD","Scenes","","5302","","","","35","103","anton-darius-FBJugtbHsWU-unsplash.jpg","17","","","","","","","","","","","","","","","","","","","","","","","","","","","","","","","","","","","","","","","",""
"","rating","","html-slider-response","22","402666","0.0-21.0","0","0","HL3zD","Scenes","","3718","","","","98","137","olga-stalska-QaWRyEdlffY-unsplash.jpg","18","","","","","","","","","","","","","","","","","","","","","","","","","","","","","","","","","","","","","","","",""
"","rating","","html-slider-response","23","408778","0.0-22.0","0","0","HL3zD","Scenes","","6110","","","","95","127","kace-rodriguez-p3OzJuT_Dks-unsplash.jpg","19","","","","","","","","","","","","","","","","","","","","","","","","","","","","","","","","","","","","","","","",""
"","rating","","html-slider-response","24","413682","0.0-23.0","0","0","HL3zD","Scenes","","4903","","","","82","124","johannes-plenio-sPt5RIjKfpk-unsplash.jpg","20","","","","","","","","","","","","","","","","","","","","","","","","","","","","","","","","","","","","","","","",""
"","rating","","html-slider-response","25","417227","0.0-24.0","0","0","HL3zD","Scenes","","3544","","","","99","128","karsten-wurth-jS0zC2PJ17A-unsplash.jpg","21","","","","","","","","","","","","","","","","","","","","","","","","","","","","","","","","","","","","","","","",""
"","rating","","html-slider-response","26","424026","0.0-25.0","0","0","HL3zD","Scenes","","6797","","","","33","113","damian-denis-D8R_txR_0PE-unsplash.jpg","22","","","","","","","","","","","","","","","","","","","","","","","","","","","","","","","","","","","","","","","",""
"","rating","","html-slider-response","27","428890","0.0-26.0","0","0","HL3zD","Scenes","","4862","","","","83","146","thomas-morse-cuKKa0vWZSY-unsplash.jpg","23","","","","","","","","","","","","","","","","","","","","","","","","","","","","","","","","","","","","","","","",""
"","rating","","html-slider-response","28","433931","0.0-27.0","0","0","HL3zD","Scenes","","5039","","","","89","111","claudio-testa-U3F2o6vz3bs-unsplash.jpg","24","","","","","","","","","","","","","","","","","","","","","","","","","","","","","","","","","","","","","","","",""
"","rating","","html-slider-response","29","444874","0.0-28.0","0","0","HL3zD","Scenes","","10942","","","","41","100","aleksandra-boguslawska-MS7KD9Ti7FQ-unsplash.jpg","25","","","","","","","","","","","","","","","","","","","","","","","","","","","","","","","","","","","","","","","",""
"","rating","","html-slider-response","30","451418","0.0-29.0","0","0","HL3zD","Scenes","","6542","","","","83","141","sebastian-unrau-v4e3JI7DDHI-unsplash.jpg","26","","","","","","","","","","","","","","","","","","","","","","","","","","","","","","","","","","","","","","","",""
"","rating","","html-slider-response","31","455954","0.0-30.0","0","0","HL3zD","Scenes","","4534","","","","99","104","artem-sapegin-XGDBdSQ70O0-unsplash.jpg","27","","","","","","","","","","","","","","","","","","","","","","","","","","","","","","","","","","","","","","","",""
"","rating","","html-slider-response","32","459922","0.0-31.0","0","0","HL3zD","Scenes","","3967","","","","96","135","mohammad-alizade-4wzRuAb-KWs-unsplash.jpg","28","","","","","","","","","","","","","","","","","","","","","","","","","","","","","","","","","","","","","","","",""
"","rating","","html-slider-response","33","462994","0.0-32.0","0","0","HL3zD","Scenes","","3071","","","","99","148","tom-gainor-ZqLeQDjY6fY-unsplash.jpg","29","","","","","","","","","","","","","","","","","","","","","","","","","","","","","","","","","","","","","","","",""
"","rating","","html-slider-response","34","468450","0.0-33.0","0","0","HL3zD","Scenes","","5454","","","","97","142","sergey-pesterev-y-b_FOmJXdg-unsplash.jpg","30","","","","","","","","","","","","","","","","","","","","","","","","","","","","","","","","","","","","","","","",""
"","rating","","html-slider-response","35","474603","0.0-34.0","0","0","HL3zD","Scenes","","6150","","","","91","147","tobias-keller-73F4pKoUkM0-unsplash.jpg","31","","","","","","","","","","","","","","","","","","","","","","","","","","","","","","","","","","","","","","","",""
"","rating","","html-slider-response","36","480690","0.0-35.0","0","0","HL3zD","Scenes","","6086","","","","85","133","mickey-o-neil-xL66l--msXU-unsplash.jpg","32","","","","","","","","","","","","","","","","","","","","","","","","","","","","","","","","","","","","","","","",""
"","rating","","html-slider-response","37","485994","0.0-36.0","0","0","HL3zD","Scenes","","5302","","","","97","110","bruno-van-der-kraan-qez8mNJ3ilU-unsplash.jpg","33","","","","","","","","","","","","","","","","","","","","","","","","","","","","","","","","","","","","","","","",""
"","rating","","html-slider-response","38","495674","0.0-37.0","0","0","HL3zD","Scenes","","9678","","","","86","131","luca-bravo-hFzIoD0F_i8-unsplash.jpg","34","","","","","","","","","","","","","","","","","","","","","","","","","","","","","","","","","","","","","","","",""
"","rating","","html-slider-response","39","500434","0.0-38.0","0","0","HL3zD","Scenes","","4758","","","","88","117","frank-mckenna-OD9EOzfSOh0-unsplash.jpg","35","","","","","","","","","","","","","","","","","","","","","","","","","","","","","","","","","","","","","","","",""
"","rating","","html-slider-response","40","503876","0.0-39.0","0","0","HL3zD","Scenes","","3439","","","","99","123","joel-jasmin-forestbird-efuwb5eBDrI-unsplash.jpg","36","","","","","","","","","","","","","","","","","","","","","","","","","","","","","","","","","","","","","","","",""
"","rating","","html-slider-response","41","507603","0.0-40.0","0","0","HL3zD","Scenes","","3725","","","","82","114","daniel-sessler-z_9VmsxR8hs-unsplash.jpg","37","","","","","","","","","","","","","","","","","","","","","","","","","","","","","","","","","","","","","","","",""
"","rating","","html-slider-response","42","513203","0.0-41.0","0","0","HL3zD","Scenes","","5597","","","","34","120","jarrett-kow-1ZOyYPOBn7I-unsplash.jpg","38","","","","","","","","","","","","","","","","","","","","","","","","","","","","","","","","","","","","","","","",""
"","rating","","html-slider-response","43","521899","0.0-42.0","0","0","HL3zD","Scenes","","8693","","","","89","130","lina-loos-04-C1NZk1hE-unsplash.jpg","39","","","","","","","","","","","","","","","","","","","","","","","","","","","","","","","","","","","","","","","",""
"","rating","","html-slider-response","44","533489","0.0-43.0","0","0","HL3zD","Scenes","","11589","","","","80","129","kurt-cotoaga-cqbLg3lZEpk-unsplash.jpg","40","","","","","","","","","","","","","","","","","","","","","","","","","","","","","","","","","","","","","","","",""
"","rating","","html-slider-response","45","537857","0.0-44.0","0","0","HL3zD","Scenes","","4366","","","","94","119","james-wheeler-AFC0XvICMgs-unsplash.jpg","41","","","","","","","","","","","","","","","","","","","","","","","","","","","","","","","","","","","","","","","",""
"","rating","","html-slider-response","46","541714","0.0-45.0","0","0","HL3zD","Scenes","","3855","","","","99","116","david-marcu-W5MhJ6cy1So-unsplash.jpg","42","","","","","","","","","","","","","","","","","","","","","","","","","","","","","","","","","","","","","","","",""
"","rating","","html-slider-response","47","546505","0.0-46.0","0","0","HL3zD","Scenes","","4790","","","","95","112","cosmic-timetraveler-pYyOZ8q7AII-unsplash.jpg","43","","","","","","","","","","","","","","","","","","","","","","","","","","","","","","","","","","","","","","","",""
"","rating","","html-slider-response","48","550714","0.0-47.0","0","0","HL3zD","Scenes","","4207","","","","93","144","solotravelgoals-7kLufxYoqWk-unsplash.jpg","44","","","","","","","","","","","","","","","","","","","","","","","","","","","","","","","","","","","","","","","",""
"","rating","","html-slider-response","49","554617","0.0-48.0","0","0","HL3zD","Scenes","","3901","","","","93","136","nicolas-jehly-LzVB84KkZOE-unsplash.jpg","45","","","","","","","","","","","","","","","","","","","","","","","","","","","","","","","","","","","","","","","",""
"","rating","","html-slider-response","50","559313","0.0-49.0","0","0","HL3zD","Scenes","","4695","","","","95","121","jean-pierre-brungs-qxCqkbF7tUc-unsplash.jpg","46","","","","","","","","","","","","","","","","","","","","","","","","","","","","","","","","","","","","","","","",""
"","rating","","html-slider-response","51","586050","0.0-50.0","0","0","HL3zD","Scenes","","26735","","","","86","126","jordan-mcqueen-PJCZOWuOxbU-unsplash.jpg","47","","","","","","","","","","","","","","","","","","","","","","","","","","","","","","","","","","","","","","","",""
"","rating","","html-slider-response","52","590267","0.0-51.0","0","0","HL3zD","Scenes","","4216","","","","92","115","darrell-cassell-hoCXpPUMCoE-unsplash.jpg","48","","","","","","","","","","","","","","","","","","","","","","","","","","","","","","","","","","","","","","","",""
"","rating","","html-slider-response","53","603635","0.0-52.0","0","0","HL3zD","Scenes","","13365","","","","93","125","john-lee-oMneOBYhJxY-unsplash.jpg","49","","","","","","","","","","","","","","","","","","","","","","","","","","","","","","","","","","","","","","","",""
"","deliberation_instructions","","instructions","54","1013242","0.0-53.0-0.0","0","0","HL3zD","Scenes","[{""page_index"":0,""viewing_time"":338037},{""page_index"":1,""viewing_time"":18367},{""page_index"":2,""viewing_time"":16448},{""page_index"":3,""viewing_time"":35159},{""page_index"":4,""viewing_time"":1593}]","409604","","","","","","","","","","","","","","","","","","","","","","","","","","","","","","","","","","","","","","","","","","","","","","",""
"","deliberation_comprehension_check","","survey-multi-choice","55","1310490","0.0-53.0-1.0","0","0","HL3zD","Scenes","","297245","{""Q0"":""True"",""Q1"":""False"",""Q2"":""Consider carefully and take your time (up to 10 seconds)"",""Q3"":""False"",""Q4"":""D""}","1","","","","","","","","","","","","","","","","","","","","","","","","","","","","","","","","","","","","","","","","","","","","",""
"","missed_instruction_checkup","","html-keyboard-response","56","1314511","0.0-53.0-2.0-0.0","0","1","HL3zD","Scenes","","4019","","","78","","","","","","","","","","","","","","","","","","","","","","","","","","","","","","","","","","","","","","","","","","","",""
"","deliberation_instructions","","instructions","57","1355203","0.0-53.1-0.1","0","0","HL3zD","Scenes","[{""page_index"":0,""viewing_time"":8169},{""page_index"":1,""viewing_time"":7968},{""page_index"":2,""viewing_time"":14328},{""page_index"":3,""viewing_time"":2792},{""page_index"":4,""viewing_time"":1816},{""page_index"":3,""viewing_time"":4688},{""page_index"":4,""viewing_time"":928}]","40689","","","","","","","","","","","","","","","","","","","","","","","","","","","","","","","","","","","","","","","","","","","","","","",""
"","deliberation_comprehension_check","","survey-multi-choice","58","1374546","0.0-53.1-1.1","0","0","HL3zD","Scenes","","19336","{""Q0"":""True"",""Q1"":""True"",""Q2"":""Consider carefully and take your time (up to 10 seconds)"",""Q3"":""True"",""Q4"":""D""}","0","","","","","","","","","","","","","","","","","","","","","","","","","","","","","","","","","","","","","","","","","","","","",""
"","start_phase","","html-keyboard-response","59","1376877","0.0-54.0","0","0","HL3zD","Scenes","","2330","","","78","","","","","","","","","","","","","","","","","","","","","","","","","","","","","","","","","","","","","","","","","","","",""
"","first_deliberation_block","","html-keyboard-response","60","1380288","0.0-55.0","0","0","HL3zD","Scenes","","3410","","","78","","","","","","","","","","","","","","","","","","","","","","","","","","","","","","","","","","","","","","","","","","","",""
"","fixation","","html-keyboard-response","61","1381306","0.0-56.0-0.0","0","0","HL3zD","Scenes","","null","","","null","","","","","","","","","","","","","","","","","","","","","","","","","","","","","","","","","","","","","","","","","","","",""
"","deliberation","","html-keyboard-response","62","1384107","0.0-56.0-1.0","0","0","HL3zD","Scenes","","2799","","","75","","","","0","110","134","1","1","97","88","bruno-van-der-kraan-qez8mNJ3ilU-unsplash.jpg","milada-vigerova-pQMM63GE7fo-unsplash.jpg","1","0","134","110","","","","","","","","","","","","","","","","","","","","","","","","","","","",""
"","choice_confirmation","","html-keyboard-response","63","1384630","0.0-56.0-2.0-0.0","0","0","HL3zD","Scenes","","null","","","null","","","","0","110","134","","","","","","","","","","","","","","","","","","","","","","","","","","","","","","","","","","","","","",""
"","explain_trial","","survey-text","64","1414530","0.0-56.0-5.0-0.0","0","0","HL3zD","Scenes","","29898","{""Q0"":""It looks brighter green and full of nature""}","","","","","","0","110","134","","","","","","","","","","","{""Q0"":""It looks brighter green and full of nature""}","","","","","","","","","","","","","","","","","","","","","","","","","","",""
"","fixation","","html-keyboard-response","65","1415537","0.0-57.0-0.0","0","0","HL3zD","Scenes","","null","","","null","","","","","","","","","","","","","","","","","","","","","","","","","","","","","","","","","","","","","","","","","","","",""
"","deliberation","","html-keyboard-response","66","1420196","0.0-57.0-1.0","0","0","HL3zD","Scenes","","4659","","","75","","","","1","127","139","1","-1","95","96","kace-rodriguez-p3OzJuT_Dks-unsplash.jpg","samsommer-vddccTqwal8-unsplash.jpg","1","0","139","127","","","","","","","","","","","","","","","","","","","","","","","","","","","",""
"","choice_confirmation","","html-keyboard-response","67","1420705","0.0-57.0-2.0-0.0","0","0","HL3zD","Scenes","","null","","","null","","","","1","127","139","","","","","","","","","","","","","","","","","","","","","","","","","","","","","","","","","","","","","",""
"","explain_trial","","survey-text","68","1450020","0.0-57.0-5.0-0.0","0","0","HL3zD","Scenes","","29313","{""Q0"":""It's brighter, crispy""}","","","","","","1","127","139","","","","","","","","","","","{""Q0"":""It's brighter, crispy""}","","","","","","","","","","","","","","","","","","","","","","","","","","",""
"","fixation","","html-keyboard-response","69","1451027","0.0-58.0-0.0","0","0","HL3zD","Scenes","","null","","","null","","","","","","","","","","","","","","","","","","","","","","","","","","","","","","","","","","","","","","","","","","","",""
"","deliberation","","html-keyboard-response","70","1455373","0.0-58.0-1.0","0","0","HL3zD","Scenes","","4344","","","68","","","","2","144","117","0","1","93","88","solotravelgoals-7kLufxYoqWk-unsplash.jpg","frank-mckenna-OD9EOzfSOh0-unsplash.jpg","1","1","144","117","","","","","","","","","","","","","","","","","","","","","","","","","","","",""
"","choice_confirmation","","html-keyboard-response","71","1455891","0.0-58.0-2.0-0.0","0","0","HL3zD","Scenes","","null","","","null","","","","2","144","117","","","","","","","","","","","","","","","","","","","","","","","","","","","","","","","","","","","","","",""
"","fixation","","html-keyboard-response","72","1456909","0.0-59.0-0.0","0","0","HL3zD","Scenes","","null","","","null","","","","","","","","","","","","","","","","","","","","","","","","","","","","","","","","","","","","","","","","","","","",""
"","deliberation","","html-keyboard-response","73","1459870","0.0-59.0-1.0","0","0","HL3zD","Scenes","","2958","","","68","","","","3","121","111","1","-1","95","89","jean-pierre-brungs-qxCqkbF7tUc-unsplash.jpg","claudio-testa-U3F2o6vz3bs-unsplash.jpg","1","1","121","111","","","","","","","","","","","","","","","","","","","","","","","","","","","",""
"","choice_confirmation","","html-keyboard-response","74","1460376","0.0-59.0-2.0-0.0","0","0","HL3zD","Scenes","","null","","","null","","","","3","121","111","","","","","","","","","","","","","","","","","","","","","","","","","","","","","","","","","","","","","",""
"","explain_trial","","survey-text","75","1474092","0.0-59.0-5.0-0.0","0","0","HL3zD","Scenes","","13715","{""Q0"":""It makes me feel nostalgic""}","","","","","","3","121","111","","","","","","","","","","","{""Q0"":""It makes me feel nostalgic""}","","","","","","","","","","","","","","","","","","","","","","","","","","",""
"","fixation","","html-keyboard-response","76","1475095","0.0-60.0-0.0","0","0","HL3zD","Scenes","","null","","","null","","","","","","","","","","","","","","","","","","","","","","","","","","","","","","","","","","","","","","","","","","","",""
"","deliberation","","html-keyboard-response","77","1478251","0.0-60.0-1.0","0","0","HL3zD","Scenes","","3154","","","68","","","","4","119","115","1","1","94","92","james-wheeler-AFC0XvICMgs-unsplash.jpg","darrell-cassell-hoCXpPUMCoE-unsplash.jpg","1","1","119","115","","","","","","","","","","","","","","","","","","","","","","","","","","","",""
"","choice_confirmation","","html-keyboard-response","78","1478759","0.0-60.0-2.0-0.0","0","0","HL3zD","Scenes","","null","","","null","","","","4","119","115","","","","","","","","","","","","","","","","","","","","","","","","","","","","","","","","","","","","","",""
"","explain_trial","","survey-text","79","1519586","0.0-60.0-5.0-0.0","0","0","HL3zD","Scenes","","40825","{""Q0"":""Its captivating""}","","","","","","4","119","115","","","","","","","","","","","{""Q0"":""Its captivating""}","","","","","","","","","","","","","","","","","","","","","","","","","","",""
"","fixation","","html-keyboard-response","80","1520599","0.0-61.0-0.0","0","0","HL3zD","Scenes","","null","","","null","","","","","","","","","","","","","","","","","","","","","","","","","","","","","","","","","","","","","","","","","","","",""
"","deliberation","","html-keyboard-response","81","1523254","0.0-61.0-1.0","0","0","HL3zD","Scenes","","2653","","","75","","","","5","108","126","1","1","88","86","benjamin-voros-phIFdC6lA4E-unsplash.jpg","jordan-mcqueen-PJCZOWuOxbU-unsplash.jpg","1","0","126","108","","","","","","","","","","","","","","","","","","","","","","","","","","","",""
"","choice_confirmation","","html-keyboard-response","82","1523773","0.0-61.0-2.0-0.0","0","0","HL3zD","Scenes","","null","","","null","","","","5","108","126","","","","","","","","","","","","","","","","","","","","","","","","","","","","","","","","","","","","","",""
"","explain_trial","","survey-text","83","1811996","0.0-61.0-5.0-0.0","0","0","HL3zD","Scenes","","288222","{""Q0"":""its a beautiful sunrise""}","","","","","","5","108","126","","","","","","","","","","","{""Q0"":""its a beautiful sunrise""}","","","","","","","","","","","","","","","","","","","","","","","","","","",""
"","fixation","","html-keyboard-response","84","1813003","0.0-62.0-0.0","0","0","HL3zD","Scenes","","null","","","null","","","","","","","","","","","","","","","","","","","","","","","","","","","","","","","","","","","","","","","","","","","",""
"","deliberation","","html-keyboard-response","85","1814921","0.0-62.0-1.0","0","0","HL3zD","Scenes","","1916","","","75","","","","6","149","147","0","-1","91","91","yuriy-bogdanov-W51VK3Obcj0-unsplash.jpg","tobias-keller-73F4pKoUkM0-unsplash.jpg","1","0","147","149","","","","","","","","","","","","","","","","","","","","","","","","","","","",""
"","choice_confirmation","","html-keyboard-response","86","1815424","0.0-62.0-2.0-0.0","0","0","HL3zD","Scenes","","null","","","null","","","","6","149","147","","","","","","","","","","","","","","","","","","","","","","","","","","","","","","","","","","","","","",""
"","fixation","","html-keyboard-response","87","1816433","0.0-63.0-0.0","0","0","HL3zD","Scenes","","null","","","null","","","","","","","","","","","","","","","","","","","","","","","","","","","","","","","","","","","","","","","","","","","",""
"","deliberation","","html-keyboard-response","88","1819740","0.0-63.0-1.0","0","0","HL3zD","Scenes","","3305","","","75","","","","7","142","112","1","-1","97","95","sergey-pesterev-y-b_FOmJXdg-unsplash.jpg","cosmic-timetraveler-pYyOZ8q7AII-unsplash.jpg","1","0","112","142","","","","","","","","","","","","","","","","","","","","","","","","","","","",""
"","choice_confirmation","","html-keyboard-response","89","1820259","0.0-63.0-2.0-0.0","0","0","HL3zD","Scenes","","null","","","null","","","","7","142","112","","","","","","","","","","","","","","","","","","","","","","","","","","","","","","","","","","","","","",""
"","explain_trial","","survey-text","90","1845978","0.0-63.0-5.0-0.0","0","0","HL3zD","Scenes","","25717","{""Q0"":""I love the color""}","","","","","","7","142","112","","","","","","","","","","","{""Q0"":""I love the color""}","","","","","","","","","","","","","","","","","","","","","","","","","","",""
"","fixation","","html-keyboard-response","91","1846984","0.0-64.0-0.0","0","0","HL3zD","Scenes","","null","","","null","","","","","","","","","","","","","","","","","","","","","","","","","","","","","","","","","","","","","","","","","","","",""
"","deliberation","","html-keyboard-response","92","1856999","0.0-64.0-1.0","0","0","HL3zD","Scenes","","null","","","null","","","","8","125","138","0","1","93","98","john-lee-oMneOBYhJxY-unsplash.jpg","petr-vysohlid-9fqwGqGLUxc-unsplash.jpg","1","","","","","","","","","","","","","","","","","","","","","","","","","","","","","","",""
"","deliberation_too_slow","","html-keyboard-response","93","1858506","0.0-64.0-4.0-0.0","1","0","HL3zD","Scenes","","null","","","null","","","","8","","","","","","","","","","","","","","","","","","","","","","","","","","","","","","","","","","","","","","","",""
"","fixation","","html-keyboard-response","94","1859515","0.0-64.1-0.1","0","0","HL3zD","Scenes","","null","","","null","","","","","","","","","","","","","","","","","","","","","","","","","","","","","","","","","","","","","","","","","","","",""
"","deliberation","","html-keyboard-response","95","1861285","0.0-64.1-1.1","0","0","HL3zD","Scenes","","1769","","","75","","","","8","125","138","0","1","93","98","john-lee-oMneOBYhJxY-unsplash.jpg","petr-vysohlid-9fqwGqGLUxc-unsplash.jpg","1","0","138","125","","","","","","","","","","","","","","","","","","","","","","","","","","","",""
"","choice_confirmation","","html-keyboard-response","96","1861799","0.0-64.1-2.1-0.1","0","0","HL3zD","Scenes","","null","","","null","","","","8","125","138","","","","","","","","","","","","","","","","","","","","","","","","","","","","","","","","","","","","","",""
"","fixation","","html-keyboard-response","97","1862812","0.0-65.0-0.0","0","0","HL3zD","Scenes","","null","","","null","","","","","","","","","","","","","","","","","","","","","","","","","","","","","","","","","","","","","","","","","","","",""
"","deliberation","","html-keyboard-response","98","1865308","0.0-65.0-1.0","0","0","HL3zD","Scenes","","2496","","","68","","","","9","130","109","0","-1","89","98","lina-loos-04-C1NZk1hE-unsplash.jpg","brigitta-schneiter-hXXRLtTxXCU-unsplash.jpg","1","1","130","109","","","","","","","","","","","","","","","","","","","","","","","","","","","",""
"","choice_confirmation","","html-keyboard-response","99","1865821","0.0-65.0-2.0-0.0","0","0","HL3zD","Scenes","","null","","","null","","","","9","130","109","","","","","","","","","","","","","","","","","","","","","","","","","","","","","","","","","","","","","",""
"","fixation","","html-keyboard-response","100","1866845","0.0-66.0-0.0","0","0","HL3zD","Scenes","","null","","","null","","","","","","","","","","","","","","","","","","","","","","","","","","","","","","","","","","","","","","","","","","","",""
"","deliberation","","html-keyboard-response","101","1868323","0.0-66.0-1.0","0","0","HL3zD","Scenes","","1477","","","68","","","","10","136","122","0","1","93","97","nicolas-jehly-LzVB84KkZOE-unsplash.jpg","jeff-king-bJHWJeiHfHc-unsplash.jpg","1","1","136","122","","","","","","","","","","","","","","","","","","","","","","","","","","","",""
"","choice_confirmation","","html-keyboard-response","102","1868840","0.0-66.0-2.0-0.0","0","0","HL3zD","Scenes","","null","","","null","","","","10","136","122","","","","","","","","","","","","","","","","","","","","","","","","","","","","","","","","","","","","","",""
"","fixation","","html-keyboard-response","103","1869852","0.0-67.0-0.0","0","0","HL3zD","Scenes","","null","","","null","","","","","","","","","","","","","","","","","","","","","","","","","","","","","","","","","","","","","","","","","","","",""
"","deliberation","","html-keyboard-response","104","1871472","0.0-67.0-1.0","0","0","HL3zD","Scenes","","1619","","","75","","","","11","143","135","0","-1","91","96","sigurdur-fjalar-jonsson-1KxBabIntpE-unsplash.jpg","mohammad-alizade-4wzRuAb-KWs-unsplash.jpg","1","0","135","143","","","","","","","","","","","","","","","","","","","","","","","","","","","",""
"","choice_confirmation","","html-keyboard-response","105","1871987","0.0-67.0-2.0-0.0","0","0","HL3zD","Scenes","","null","","","null","","","","11","143","135","","","","","","","","","","","","","","","","","","","","","","","","","","","","","","","","","","","","","",""
"","practice_deliberation_again","","html-keyboard-response","106","1874302","0.0-67.0-6.0-0.0","0","0","HL3zD","Scenes","","2313","","","78","","","","","","","","","","","","","","","","","","","","","","","","","","","","","","","","","","","","","","","","","","","",""
"","fixation","","html-keyboard-response","107","1875317","0.0-68.0-0.0","0","0","HL3zD","Scenes","","null","","","null","","","","","","","","","","","","","","","","","","","","","","","","","","","","","","","","","","","","","","","","","","","",""
"","deliberation","","html-keyboard-response","108","1878792","0.0-68.0-1.0","0","0","HL3zD","Scenes","","3474","","","75","","","","12","125","138","1","1","93","98","john-lee-oMneOBYhJxY-unsplash.jpg","petr-vysohlid-9fqwGqGLUxc-unsplash.jpg","2","0","138","125","","","","","","","","","","","","","","","","","","","","","","","","","","","",""
"","choice_confirmation","","html-keyboard-response","109","1879299","0.0-68.0-2.0-0.0","0","0","HL3zD","Scenes","","null","","","null","","","","12","125","138","","","","","","","","","","","","","","","","","","","","","","","","","","","","","","","","","","","","","",""
"","explain_trial","","survey-text","110","1889348","0.0-68.0-5.0-0.0","0","0","HL3zD","Scenes","","10048","{""Q0"":""Its memorable""}","","","","","","12","125","138","","","","","","","","","","","{""Q0"":""Its memorable""}","","","","","","","","","","","","","","","","","","","","","","","","","","",""
"","fixation","","html-keyboard-response","111","1890357","0.0-69.0-0.0","0","0","HL3zD","Scenes","","null","","","null","","","","","","","","","","","","","","","","","","","","","","","","","","","","","","","","","","","","","","","","","","","",""
"","deliberation","","html-keyboard-response","112","1892887","0.0-69.0-1.0","0","0","HL3zD","Scenes","","2528","","","68","","","","13","130","109","1","-1","89","98","lina-loos-04-C1NZk1hE-unsplash.jpg","brigitta-schneiter-hXXRLtTxXCU-unsplash.jpg","2","1","130","109","","","","","","","","","","","","","","","","","","","","","","","","","","","",""
"","choice_confirmation","","html-keyboard-response","113","1893398","0.0-69.0-2.0-0.0","0","0","HL3zD","Scenes","","null","","","null","","","","13","130","109","","","","","","","","","","","","","","","","","","","","","","","","","","","","","","","","","","","","","",""
"","explain_trial","","survey-text","114","1915424","0.0-69.0-5.0-0.0","0","0","HL3zD","Scenes","","22024","{""Q0"":""Its so full of nature""}","","","","","","13","130","109","","","","","","","","","","","{""Q0"":""Its so full of nature""}","","","","","","","","","","","","","","","","","","","","","","","","","","",""
"","fixation","","html-keyboard-response","115","1916445","0.0-70.0-0.0","0","0","HL3zD","Scenes","","null","","","null","","","","","","","","","","","","","","","","","","","","","","","","","","","","","","","","","","","","","","","","","","","",""
"","deliberation","","html-keyboard-response","116","1919119","0.0-70.0-1.0","0","0","HL3zD","Scenes","","2673","","","68","","","","14","149","147","1","-1","91","91","yuriy-bogdanov-W51VK3Obcj0-unsplash.jpg","tobias-keller-73F4pKoUkM0-unsplash.jpg","2","1","149","147","","","","","","","","","","","","","","","","","","","","","","","","","","","",""
"","choice_confirmation","","html-keyboard-response","117","1919631","0.0-70.0-2.0-0.0","0","0","HL3zD","Scenes","","null","","","null","","","","14","149","147","","","","","","","","","","","","","","","","","","","","","","","","","","","","","","","","","","","","","",""
"","explain_trial","","survey-text","118","1937820","0.0-70.0-5.0-0.0","0","0","HL3zD","Scenes","","18187","{""Q0"":""Landscape is attractive""}","","","","","","14","149","147","","","","","","","","","","","{""Q0"":""Landscape is attractive""}","","","","","","","","","","","","","","","","","","","","","","","","","","",""
"","fixation","","html-keyboard-response","119","1938836","0.0-71.0-0.0","0","0","HL3zD","Scenes","","null","","","null","","","","","","","","","","","","","","","","","","","","","","","","","","","","","","","","","","","","","","","","","","","",""
"","deliberation","","html-keyboard-response","120","1940278","0.0-71.0-1.0","0","0","HL3zD","Scenes","","1440","","","75","","","","15","110","134","0","1","97","88","bruno-van-der-kraan-qez8mNJ3ilU-unsplash.jpg","milada-vigerova-pQMM63GE7fo-unsplash.jpg","2","0","134","110","","","","","","","","","","","","","","","","","","","","","","","","","","","",""
"","choice_confirmation","","html-keyboard-response","121","1940788","0.0-71.0-2.0-0.0","0","0","HL3zD","Scenes","","null","","","null","","","","15","110","134","","","","","","","","","","","","","","","","","","","","","","","","","","","","","","","","","","","","","",""
"","fixation","","html-keyboard-response","122","1941799","0.0-72.0-0.0","0","0","HL3zD","Scenes","","null","","","null","","","","","","","","","","","","","","","","","","","","","","","","","","","","","","","","","","","","","","","","","","","",""
"","deliberation","","html-keyboard-response","123","1943076","0.0-72.0-1.0","0","0","HL3zD","Scenes","","1276","","","75","","","","16","121","111","0","-1","95","89","jean-pierre-brungs-qxCqkbF7tUc-unsplash.jpg","claudio-testa-U3F2o6vz3bs-unsplash.jpg","2","0","111","121","","","","","","","","","","","","","","","","","","","","","","","","","","","",""
"","choice_confirmation","","html-keyboard-response","124","1943598","0.0-72.0-2.0-0.0","0","0","HL3zD","Scenes","","null","","","null","","","","16","121","111","","","","","","","","","","","","","","","","","","","","","","","","","","","","","","","","","","","","","",""
"","fixation","","html-keyboard-response","125","1944609","0.0-73.0-0.0","0","0","HL3zD","Scenes","","null","","","null","","","","","","","","","","","","","","","","","","","","","","","","","","","","","","","","","","","","","","","","","","","",""
"","deliberation","","html-keyboard-response","126","1946220","0.0-73.0-1.0","0","0","HL3zD","Scenes","","1611","","","75","","","","17","143","135","1","-1","91","96","sigurdur-fjalar-jonsson-1KxBabIntpE-unsplash.jpg","mohammad-alizade-4wzRuAb-KWs-unsplash.jpg","2","0","135","143","","","","","","","","","","","","","","","","","","","","","","","","","","","",""
"","choice_confirmation","","html-keyboard-response","127","1946735","0.0-73.0-2.0-0.0","0","0","HL3zD","Scenes","","null","","","null","","","","17","143","135","","","","","","","","","","","","","","","","","","","","","","","","","","","","","","","","","","","","","",""
"","explain_trial","","survey-text","128","1961635","0.0-73.0-5.0-0.0","0","0","HL3zD","Scenes","","14897","{""Q0"":""A beautiful evening""}","","","","","","17","143","135","","","","","","","","","","","{""Q0"":""A beautiful evening""}","","","","","","","","","","","","","","","","","","","","","","","","","","",""
"","fixation","","html-keyboard-response","129","1962642","0.0-74.0-0.0","0","0","HL3zD","Scenes","","null","","","null","","","","","","","","","","","","","","","","","","","","","","","","","","","","","","","","","","","","","","","","","","","",""
"","deliberation","","html-keyboard-response","130","1965262","0.0-74.0-1.0","0","0","HL3zD","Scenes","","2619","","","75","","","","18","127","139","0","-1","95","96","kace-rodriguez-p3OzJuT_Dks-unsplash.jpg","samsommer-vddccTqwal8-unsplash.jpg","2","0","139","127","","","","","","","","","","","","","","","","","","","","","","","","","","","",""
"","choice_confirmation","","html-keyboard-response","131","1965778","0.0-74.0-2.0-0.0","0","0","HL3zD","Scenes","","null","","","null","","","","18","127","139","","","","","","","","","","","","","","","","","","","","","","","","","","","","","","","","","","","","","",""
"","fixation","","html-keyboard-response","132","1966784","0.0-75.0-0.0","0","0","HL3zD","Scenes","","null","","","null","","","","","","","","","","","","","","","","","","","","","","","","","","","","","","","","","","","","","","","","","","","",""
"","deliberation","","html-keyboard-response","133","1968179","0.0-75.0-1.0","0","0","HL3zD","Scenes","","1394","","","75","","","","19","136","122","1","1","93","97","nicolas-jehly-LzVB84KkZOE-unsplash.jpg","jeff-king-bJHWJeiHfHc-unsplash.jpg","2","0","122","136","","","","","","","","","","","","","","","","","","","","","","","","","","","",""
"","choice_confirmation","","html-keyboard-response","134","1968693","0.0-75.0-2.0-0.0","0","0","HL3zD","Scenes","","null","","","null","","","","19","136","122","","","","","","","","","","","","","","","","","","","","","","","","","","","","","","","","","","","","","",""
"","explain_trial","","survey-text","135","1983710","0.0-75.0-5.0-0.0","0","0","HL3zD","Scenes","","15016","{""Q0"":""So serene""}","","","","","","19","136","122","","","","","","","","","","","{""Q0"":""So serene""}","","","","","","","","","","","","","","","","","","","","","","","","","","",""
"","fixation","","html-keyboard-response","136","1984730","0.0-76.0-0.0","0","0","HL3zD","Scenes","","null","","","null","","","","","","","","","","","","","","","","","","","","","","","","","","","","","","","","","","","","","","","","","","","",""
"","deliberation","","html-keyboard-response","137","1987622","0.0-76.0-1.0","0","0","HL3zD","Scenes","","2890","","","68","","","","20","144","117","1","1","93","88","solotravelgoals-7kLufxYoqWk-unsplash.jpg","frank-mckenna-OD9EOzfSOh0-unsplash.jpg","2","1","144","117","","","","","","","","","","","","","","","","","","","","","","","","","","","",""
"","choice_confirmation","","html-keyboard-response","138","1988138","0.0-76.0-2.0-0.0","0","0","HL3zD","Scenes","","null","","","null","","","","20","144","117","","","","","","","","","","","","","","","","","","","","","","","","","","","","","","","","","","","","","",""
"","explain_trial","","survey-text","139","1997953","0.0-76.0-5.0-0.0","0","0","HL3zD","Scenes","","9813","{""Q0"":""Looks ancient nicely""}","","","","","","20","144","117","","","","","","","","","","","{""Q0"":""Looks ancient nicely""}","","","","","","","","","","","","","","","","","","","","","","","","","","",""
"","fixation","","html-keyboard-response","140","1998970","0.0-77.0-0.0","0","0","HL3zD","Scenes","","null","","","null","","","","","","","","","","","","","","","","","","","","","","","","","","","","","","","","","","","","","","","","","","","",""
"","deliberation","","html-keyboard-response","141","2000779","0.0-77.0-1.0","0","0","HL3zD","Scenes","","1809","","","75","","","","21","108","126","0","1","88","86","benjamin-voros-phIFdC6lA4E-unsplash.jpg","jordan-mcqueen-PJCZOWuOxbU-unsplash.jpg","2","0","126","108","","","","","","","","","","","","","","","","","","","","","","","","","","","",""
"","choice_confirmation","","html-keyboard-response","142","2001287","0.0-77.0-2.0-0.0","0","0","HL3zD","Scenes","","null","","","null","","","","21","108","126","","","","","","","","","","","","","","","","","","","","","","","","","","","","","","","","","","","","","",""
"","fixation","","html-keyboard-response","143","2002302","0.0-78.0-0.0","0","0","HL3zD","Scenes","","null","","","null","","","","","","","","","","","","","","","","","","","","","","","","","","","","","","","","","","","","","","","","","","","",""
"","deliberation","","html-keyboard-response","144","2004377","0.0-78.0-1.0","0","0","HL3zD","Scenes","","2073","","","75","","","","22","142","112","0","-1","97","95","sergey-pesterev-y-b_FOmJXdg-unsplash.jpg","cosmic-timetraveler-pYyOZ8q7AII-unsplash.jpg","2","0","112","142","","","","","","","","","","","","","","","","","","","","","","","","","","","",""
"","choice_confirmation","","html-keyboard-response","145","2004881","0.0-78.0-2.0-0.0","0","0","HL3zD","Scenes","","null","","","null","","","","22","142","112","","","","","","","","","","","","","","","","","","","","","","","","","","","","","","","","","","","","","",""
"","fixation","","html-keyboard-response","146","2005898","0.0-79.0-0.0","0","0","HL3zD","Scenes","","null","","","null","","","","","","","","","","","","","","","","","","","","","","","","","","","","","","","","","","","","","","","","","","","",""
"","deliberation","","html-keyboard-response","147","2007325","0.0-79.0-1.0","0","0","HL3zD","Scenes","","1426","","","68","","","","23","119","115","0","1","94","92","james-wheeler-AFC0XvICMgs-unsplash.jpg","darrell-cassell-hoCXpPUMCoE-unsplash.jpg","2","1","119","115","","","","","","","","","","","","","","","","","","","","","","","","","","","",""
"","choice_confirmation","","html-keyboard-response","148","2007843","0.0-79.0-2.0-0.0","0","0","HL3zD","Scenes","","null","","","null","","","","23","119","115","","","","","","","","","","","","","","","","","","","","","","","","","","","","","","","","","","","","","",""
"","start_critical_deliberation_block","","html-keyboard-response","149","2011465","0.0-79.0-7.0-0.0","0","0","HL3zD","Scenes","","3621","","","78","","","","","","","","","","","","","","","","","","","","","","","","","","","","","","","","","","","","","","","","","","","",""
"","fixation","","html-keyboard-response","150","2012485","0.0-80.0-0.0","0","0","HL3zD","Scenes","","null","","","null","","","","","","","","","","","","","","","","","","","","","","","","","","","","","","","","","","","","","","","","","","","",""
"","deliberation","","html-keyboard-response","151","2013983","0.0-80.0-1.0","0","0","HL3zD","Scenes","","1497","","","75","","","","24","142","112","0","-1","97","95","sergey-pesterev-y-b_FOmJXdg-unsplash.jpg","cosmic-timetraveler-pYyOZ8q7AII-unsplash.jpg","3","0","112","142","","","","","","","","","","","","","","","","","","","","","","","","","","","",""
"","choice_confirmation","","html-keyboard-response","152","2014493","0.0-80.0-2.0-0.0","0","0","HL3zD","Scenes","","null","","","null","","","","24","142","112","","","","","","","","","","","","","","","","","","","","","","","","","","","","","","","","","","","","","",""
"","fixation","","html-keyboard-response","153","2015518","0.0-81.0-0.0","0","0","HL3zD","Scenes","","null","","","null","","","","","","","","","","","","","","","","","","","","","","","","","","","","","","","","","","","","","","","","","","","",""
"","deliberation","","html-keyboard-response","154","2016680","0.0-81.0-1.0","0","0","HL3zD","Scenes","","1160","","","68","","","","25","144","117","0","1","93","88","solotravelgoals-7kLufxYoqWk-unsplash.jpg","frank-mckenna-OD9EOzfSOh0-unsplash.jpg","3","1","144","117","","","","","","","","","","","","","","","","","","","","","","","","","","","",""
"","choice_confirmation","","html-keyboard-response","155","2017187","0.0-81.0-2.0-0.0","0","0","HL3zD","Scenes","","null","","","null","","","","25","144","117","","","","","","","","","","","","","","","","","","","","","","","","","","","","","","","","","","","","","",""
"","fixation","","html-keyboard-response","156","2018202","0.0-82.0-0.0","0","0","HL3zD","Scenes","","null","","","null","","","","","","","","","","","","","","","","","","","","","","","","","","","","","","","","","","","","","","","","","","","",""
"","deliberation","","html-keyboard-response","157","2020092","0.0-82.0-1.0","0","0","HL3zD","Scenes","","1888","","","68","","","","26","136","122","0","1","93","97","nicolas-jehly-LzVB84KkZOE-unsplash.jpg","jeff-king-bJHWJeiHfHc-unsplash.jpg","3","1","136","122","","","","","","","","","","","","","","","","","","","","","","","","","","","",""
"","choice_confirmation","","html-keyboard-response","158","2020604","0.0-82.0-2.0-0.0","0","0","HL3zD","Scenes","","null","","","null","","","","26","136","122","","","","","","","","","","","","","","","","","","","","","","","","","","","","","","","","","","","","","",""
"","fixation","","html-keyboard-response","159","2021616","0.0-83.0-0.0","0","0","HL3zD","Scenes","","null","","","null","","","","","","","","","","","","","","","","","","","","","","","","","","","","","","","","","","","","","","","","","","","",""
"","deliberation","","html-keyboard-response","160","2022763","0.0-83.0-1.0","0","0","HL3zD","Scenes","","1146","","","68","","","","27","125","138","0","1","93","98","john-lee-oMneOBYhJxY-unsplash.jpg","petr-vysohlid-9fqwGqGLUxc-unsplash.jpg","3","1","125","138","","","","","","","","","","","","","","","","","","","","","","","","","","","",""
"","choice_confirmation","","html-keyboard-response","161","2023284","0.0-83.0-2.0-0.0","0","0","HL3zD","Scenes","","null","","","null","","","","27","125","138","","","","","","","","","","","","","","","","","","","","","","","","","","","","","","","","","","","","","",""
"","fixation","","html-keyboard-response","162","2024300","0.0-84.0-0.0","0","0","HL3zD","Scenes","","null","","","null","","","","","","","","","","","","","","","","","","","","","","","","","","","","","","","","","","","","","","","","","","","",""
"","deliberation","","html-keyboard-response","163","2025758","0.0-84.0-1.0","0","0","HL3zD","Scenes","","1457","","","75","","","","28","127","139","0","-1","95","96","kace-rodriguez-p3OzJuT_Dks-unsplash.jpg","samsommer-vddccTqwal8-unsplash.jpg","3","0","139","127","","","","","","","","","","","","","","","","","","","","","","","","","","","",""
"","choice_confirmation","","html-keyboard-response","164","2026273","0.0-84.0-2.0-0.0","0","0","HL3zD","Scenes","","null","","","null","","","","28","127","139","","","","","","","","","","","","","","","","","","","","","","","","","","","","","","","","","","","","","",""
"","fixation","","html-keyboard-response","165","2027291","0.0-85.0-0.0","0","0","HL3zD","Scenes","","null","","","null","","","","","","","","","","","","","","","","","","","","","","","","","","","","","","","","","","","","","","","","","","","",""
"","deliberation","","html-keyboard-response","166","2028006","0.0-85.0-1.0","0","0","HL3zD","Scenes","","713","","","75","","","","29","108","126","0","1","88","86","benjamin-voros-phIFdC6lA4E-unsplash.jpg","jordan-mcqueen-PJCZOWuOxbU-unsplash.jpg","3","0","126","108","","","","","","","","","","","","","","","","","","","","","","","","","","","",""
"","choice_confirmation","","html-keyboard-response","167","2028518","0.0-85.0-2.0-0.0","0","0","HL3zD","Scenes","","null","","","null","","","","29","108","126","","","","","","","","","","","","","","","","","","","","","","","","","","","","","","","","","","","","","",""
"","fixation","","html-keyboard-response","168","2029541","0.0-86.0-0.0","0","0","HL3zD","Scenes","","null","","","null","","","","","","","","","","","","","","","","","","","","","","","","","","","","","","","","","","","","","","","","","","","",""
"","deliberation","","html-keyboard-response","169","2030287","0.0-86.0-1.0","0","0","HL3zD","Scenes","","746","","","75","","","","30","110","134","0","1","97","88","bruno-van-der-kraan-qez8mNJ3ilU-unsplash.jpg","milada-vigerova-pQMM63GE7fo-unsplash.jpg","3","0","134","110","","","","","","","","","","","","","","","","","","","","","","","","","","","",""
"","choice_confirmation","","html-keyboard-response","170","2030800","0.0-86.0-2.0-0.0","0","0","HL3zD","Scenes","","null","","","null","","","","30","110","134","","","","","","","","","","","","","","","","","","","","","","","","","","","","","","","","","","","","","",""
"","fixation","","html-keyboard-response","171","2031821","0.0-87.0-0.0","0","0","HL3zD","Scenes","","null","","","null","","","","","","","","","","","","","","","","","","","","","","","","","","","","","","","","","","","","","","","","","","","",""
"","deliberation","","html-keyboard-response","172","2032761","0.0-87.0-1.0","0","0","HL3zD","Scenes","","940","","","75","","","","31","143","135","0","-1","91","96","sigurdur-fjalar-jonsson-1KxBabIntpE-unsplash.jpg","mohammad-alizade-4wzRuAb-KWs-unsplash.jpg","3","0","135","143","","","","","","","","","","","","","","","","","","","","","","","","","","","",""
"","choice_confirmation","","html-keyboard-response","173","2033264","0.0-87.0-2.0-0.0","0","0","HL3zD","Scenes","","null","","","null","","","","31","143","135","","","","","","","","","","","","","","","","","","","","","","","","","","","","","","","","","","","","","",""
"","fixation","","html-keyboard-response","174","2034273","0.0-88.0-0.0","0","0","HL3zD","Scenes","","null","","","null","","","","","","","","","","","","","","","","","","","","","","","","","","","","","","","","","","","","","","","","","","","",""
"","deliberation","","html-keyboard-response","175","2035392","0.0-88.0-1.0","0","0","HL3zD","Scenes","","1118","","","68","","","","32","130","109","0","-1","89","98","lina-loos-04-C1NZk1hE-unsplash.jpg","brigitta-schneiter-hXXRLtTxXCU-unsplash.jpg","3","1","130","109","","","","","","","","","","","","","","","","","","","","","","","","","","","",""
"","choice_confirmation","","html-keyboard-response","176","2035904","0.0-88.0-2.0-0.0","0","0","HL3zD","Scenes","","null","","","null","","","","32","130","109","","","","","","","","","","","","","","","","","","","","","","","","","","","","","","","","","","","","","",""
"","fixation","","html-keyboard-response","177","2036914","0.0-89.0-0.0","0","0","HL3zD","Scenes","","null","","","null","","","","","","","","","","","","","","","","","","","","","","","","","","","","","","","","","","","","","","","","","","","",""
"","deliberation","","html-keyboard-response","178","2037695","0.0-89.0-1.0","0","0","HL3zD","Scenes","","780","","","75","","","","33","121","111","0","-1","95","89","jean-pierre-brungs-qxCqkbF7tUc-unsplash.jpg","claudio-testa-U3F2o6vz3bs-unsplash.jpg","3","0","111","121","","","","","","","","","","","","","","","","","","","","","","","","","","","",""
"","choice_confirmation","","html-keyboard-response","179","2038211","0.0-89.0-2.0-0.0","0","0","HL3zD","Scenes","","null","","","null","","","","33","121","111","","","","","","","","","","","","","","","","","","","","","","","","","","","","","","","","","","","","","",""
"","fixation","","html-keyboard-response","180","2039219","0.0-90.0-0.0","0","0","HL3zD","Scenes","","null","","","null","","","","","","","","","","","","","","","","","","","","","","","","","","","","","","","","","","","","","","","","","","","",""
"","deliberation","","html-keyboard-response","181","2040187","0.0-90.0-1.0","0","0","HL3zD","Scenes","","966","","","68","","","","34","149","147","0","-1","91","91","yuriy-bogdanov-W51VK3Obcj0-unsplash.jpg","tobias-keller-73F4pKoUkM0-unsplash.jpg","3","1","149","147","","","","","","","","","","","","","","","","","","","","","","","","","","","",""
"","choice_confirmation","","html-keyboard-response","182","2040699","0.0-90.0-2.0-0.0","0","0","HL3zD","Scenes","","null","","","null","","","","34","149","147","","","","","","","","","","","","","","","","","","","","","","","","","","","","","","","","","","","","","",""
"","fixation","","html-keyboard-response","183","2041713","0.0-91.0-0.0","0","0","HL3zD","Scenes","","null","","","null","","","","","","","","","","","","","","","","","","","","","","","","","","","","","","","","","","","","","","","","","","","",""
"","deliberation","","html-keyboard-response","184","2042465","0.0-91.0-1.0","0","0","HL3zD","Scenes","","750","","","68","","","","35","119","115","0","1","94","92","james-wheeler-AFC0XvICMgs-unsplash.jpg","darrell-cassell-hoCXpPUMCoE-unsplash.jpg","3","1","119","115","","","","","","","","","","","","","","","","","","","","","","","","","","","",""
"","choice_confirmation","","html-keyboard-response","185","2042984","0.0-91.0-2.0-0.0","0","0","HL3zD","Scenes","","null","","","null","","","","35","119","115","","","","","","","","","","","","","","","","","","","","","","","","","","","","","","","","","","","","","",""
"","reward_learning_instructions","","instructions","186","2149520","0.0-92.0-0.0","0","0","HL3zD","Scenes","[{""page_index"":0,""viewing_time"":17086},{""page_index"":1,""viewing_time"":86967},{""page_index"":2,""viewing_time"":2482}]","106535","","","","","","","","","","","","","","","","","","","","","","","","","","","","","","","","","","","","","","","","","","","","","","",""
"","reward_comprehension_check","","survey-multi-choice","187","2170101","0.0-92.0-1.0","0","0","HL3zD","Scenes","","20577","{""Q0"":""True"",""Q1"":""True"",""Q2"":""Press the space bar to see its outcome"",""Q3"":""Press the relevant key while the outcome is presented""}","0","","","","","","","","","","","","","","","","","","","","","","","","","","","","","","","","","","","","","","","","","","","","",""
"","start_phase","","html-keyboard-response","188","2171937","0.0-93.0","0","0","HL3zD","Scenes","","1834","","","78","","","","","","","","","","","","","","","","","","","","","","","","","","","","","","","","","","","","","","","","","","","",""
"","fixation","","html-keyboard-response","189","2172947","0.0-94.0","0","0","HL3zD","Scenes","","null","","","null","","","","","","","","","","","","","","","","","","","","","","","","","","","","","","","","","","","","","","","","","","","",""
"","see_reward","","html-keyboard-response","190","2173915","0.0-95.0","0","0","HL3zD","Scenes","","967","","","32","","125","","0","","","","1","","","","","1","","","","","141","967","","","","","","","","","","","","","","","","","","","","","","","","",""
"","reward_outcome","","html-keyboard-response","191","2175928","0.0-96.0","0","0","HL3zD","Scenes","","1935","","","38","","125","","0","","","","","","","","","","","","","","","","1","1935","","","","","","","","","","","","","","","","","","","","","","",""
"","fixation","","html-keyboard-response","192","2176938","0.0-99.0","0","0","HL3zD","Scenes","","null","","","null","","","","","","","","","","","","","","","","","","","","","","","","","","","","","","","","","","","","","","","","","","","",""
"","see_reward","","html-keyboard-response","193","2178036","0.0-100.0","0","0","HL3zD","Scenes","","1096","","","32","","126","","1","","","","1","","","","","1","","","","","141","1096","","","","","","","","","","","","","","","","","","","","","","","","",""
"","reward_outcome","","html-keyboard-response","194","2180047","0.0-101.0","0","0","HL3zD","Scenes","","1039","","","38","","126","","1","","","","","","","","","","","","","","","","1","1039","","","","","","","","","","","","","","","","","","","","","","",""
"","fixation","","html-keyboard-response","195","2181057","0.0-104.0","0","0","HL3zD","Scenes","","null","","","null","","","","","","","","","","","","","","","","","","","","","","","","","","","","","","","","","","","","","","","","","","","",""
"","see_reward","","html-keyboard-response","196","2181956","0.0-105.0","0","0","HL3zD","Scenes","","897","","","32","","139","","2","","","","-1","","","","","1","","","","","0","897","","","","","","","","","","","","","","","","","","","","","","","","",""
"","reward_outcome","","html-keyboard-response","197","2183970","0.0-106.0","0","0","HL3zD","Scenes","","918","","","40","","139","","2","","","","","","","","","","","","","","","","-1","918","","","","","","","","","","","","","","","","","","","","","","",""
"","fixation","","html-keyboard-response","198","2184976","0.0-109.0","0","0","HL3zD","Scenes","","null","","","null","","","","","","","","","","","","","","","","","","","","","","","","","","","","","","","","","","","","","","","","","","","",""
"","see_reward","","html-keyboard-response","199","2185830","0.0-110.0","0","0","HL3zD","Scenes","","852","","","32","","136","","3","","","","1","","","","","1","","","","","148","852","","","","","","","","","","","","","","","","","","","","","","","","",""
"","reward_outcome","","html-keyboard-response","200","2187845","0.0-111.0","0","0","HL3zD","Scenes","","923","","","38","","136","","3","","","","","","","","","","","","","","","","1","923","","","","","","","","","","","","","","","","","","","","","","",""
"","fixation","","html-keyboard-response","201","2188855","0.0-114.0","0","0","HL3zD","Scenes","","null","","","null","","","","","","","","","","","","","","","","","","","","","","","","","","","","","","","","","","","","","","","","","","","",""
"","see_reward","","html-keyboard-response","202","2189590","0.0-115.0","0","0","HL3zD","Scenes","","733","","","32","","111","","4","","","","-1","","","","","1","","","","","0","733","","","","","","","","","","","","","","","","","","","","","","","","",""
"","reward_outcome","","html-keyboard-response","203","2191610","0.0-116.0","0","0","HL3zD","Scenes","","679","","","40","","111","","4","","","","","","","","","","","","","","","","-1","679","","","","","","","","","","","","","","","","","","","","","","",""
"","fixation","","html-keyboard-response","204","2192624","0.0-119.0","0","0","HL3zD","Scenes","","null","","","null","","","","","","","","","","","","","","","","","","","","","","","","","","","","","","","","","","","","","","","","","","","",""
"","see_reward","","html-keyboard-response","205","2193431","0.0-120.0","0","0","HL3zD","Scenes","","806","","","32","","135","","5","","","","-1","","","","","1","","","","","0","806","","","","","","","","","","","","","","","","","","","","","","","","",""
"","reward_outcome","","html-keyboard-response","206","2195444","0.0-121.0","0","0","HL3zD","Scenes","","810","","","40","","135","","5","","","","","","","","","","","","","","","","-1","810","","","","","","","","","","","","","","","","","","","","","","",""
"","fixation","","html-keyboard-response","207","2196453","0.0-124.0","0","0","HL3zD","Scenes","","null","","","null","","","","","","","","","","","","","","","","","","","","","","","","","","","","","","","","","","","","","","","","","","","",""
"","see_reward","","html-keyboard-response","208","2197129","0.0-125.0","0","0","HL3zD","Scenes","","675","","","32","","139","","6","","","","-1","","","","","1","","","","","0","675","","","","","","","","","","","","","","","","","","","","","","","","",""
"","reward_outcome","","html-keyboard-response","209","2199149","0.0-126.0","0","0","HL3zD","Scenes","","902","","","40","","139","","6","","","","","","","","","","","","","","","","-1","902","","","","","","","","","","","","","","","","","","","","","","",""
"","fixation","","html-keyboard-response","210","2200157","0.0-129.0","0","0","HL3zD","Scenes","","null","","","null","","","","","","","","","","","","","","","","","","","","","","","","","","","","","","","","","","","","","","","","","","","",""
"","see_reward","","html-keyboard-response","211","2201152","0.0-130.0","0","0","HL3zD","Scenes","","995","","","32","","134","","7","","","","1","","","","","1","","","","","152","995","","","","","","","","","","","","","","","","","","","","","","","","",""
"","reward_outcome","","html-keyboard-response","212","2203160","0.0-131.0","0","0","HL3zD","Scenes","","827","","","38","","134","","7","","","","","","","","","","","","","","","","1","827","","","","","","","","","","","","","","","","","","","","","","",""
"","fixation","","html-keyboard-response","213","2204168","0.0-134.0","0","0","HL3zD","Scenes","","null","","","null","","","","","","","","","","","","","","","","","","","","","","","","","","","","","","","","","","","","","","","","","","","",""
"","see_reward","","html-keyboard-response","214","2205025","0.0-135.0","0","0","HL3zD","Scenes","","856","","","32","","144","","8","","","","1","","","","","1","","","","","150","856","","","","","","","","","","","","","","","","","","","","","","","","",""
"","reward_outcome","","html-keyboard-response","215","2207040","0.0-136.0","0","0","HL3zD","Scenes","","772","","","38","","144","","8","","","","","","","","","","","","","","","","1","772","","","","","","","","","","","","","","","","","","","","","","",""
"","fixation","","html-keyboard-response","216","2208062","0.0-139.0","0","0","HL3zD","Scenes","","null","","","null","","","","","","","","","","","","","","","","","","","","","","","","","","","","","","","","","","","","","","","","","","","",""
"","see_reward","","html-keyboard-response","217","2208671","0.0-140.0","0","0","HL3zD","Scenes","","607","","","32","","136","","9","","","","1","","","","","1","","","","","148","607","","","","","","","","","","","","","","","","","","","","","","","","",""
"","reward_outcome","","html-keyboard-response","218","2210686","0.0-141.0","0","0","HL3zD","Scenes","","558","","","38","","136","","9","","","","","","","","","","","","","","","","1","558","","","","","","","","","","","","","","","","","","","","","","",""
"","fixation","","html-keyboard-response","219","2211706","0.0-144.0","0","0","HL3zD","Scenes","","null","","","null","","","","","","","","","","","","","","","","","","","","","","","","","","","","","","","","","","","","","","","","","","","",""
"","see_reward","","html-keyboard-response","220","2212460","0.0-145.0","0","0","HL3zD","Scenes","","754","","","32","","112","","10","","","","-1","","","","","1","","","","","0","754","","","","","","","","","","","","","","","","","","","","","","","","",""
"","reward_outcome","","html-keyboard-response","221","2214478","0.0-146.0","0","0","HL3zD","Scenes","","880","","","40","","112","","10","","","","","","","","","","","","","","","","-1","880","","","","","","","","","","","","","","","","","","","","","","",""
"","fixation","","html-keyboard-response","222","2215501","0.0-149.0","0","0","HL3zD","Scenes","","null","","","null","","","","","","","","","","","","","","","","","","","","","","","","","","","","","","","","","","","","","","","","","","","",""
"","see_reward","","html-keyboard-response","223","2216362","0.0-150.0","0","0","HL3zD","Scenes","","859","","","32","","119","","11","","","","1","","","","","1","","","","","143","859","","","","","","","","","","","","","","","","","","","","","","","","",""
"","reward_outcome","","html-keyboard-response","224","2218369","0.0-151.0","0","0","HL3zD","Scenes","","991","","","38","","119","","11","","","","","","","","","","","","","","","","1","991","","","","","","","","","","","","","","","","","","","","","","",""
"","fixation","","html-keyboard-response","225","2219380","0.0-154.0","0","0","HL3zD","Scenes","","null","","","null","","","","","","","","","","","","","","","","","","","","","","","","","","","","","","","","","","","","","","","","","","","",""
"","see_reward","","html-keyboard-response","226","2220035","0.0-155.0","0","0","HL3zD","Scenes","","654","","","32","","134","","12","","","","1","","","","","1","","","","","152","654","","","","","","","","","","","","","","","","","","","","","","","","",""
"","reward_outcome","","html-keyboard-response","227","2222048","0.0-156.0","0","0","HL3zD","Scenes","","776","","","38","","134","","12","","","","","","","","","","","","","","","","1","776","","","","","","","","","","","","","","","","","","","","","","",""
"","fixation","","html-keyboard-response","228","2223060","0.0-159.0","0","0","HL3zD","Scenes","","null","","","null","","","","","","","","","","","","","","","","","","","","","","","","","","","","","","","","","","","","","","","","","","","",""
"","see_reward","","html-keyboard-response","229","2223761","0.0-160.0","0","0","HL3zD","Scenes","","699","","","32","","126","","13","","","","1","","","","","1","","","","","141","699","","","","","","","","","","","","","","","","","","","","","","","","",""
"","reward_outcome","","html-keyboard-response","230","2225780","0.0-161.0","0","0","HL3zD","Scenes","","485","","","38","","126","","13","","","","","","","","","","","","","","","","1","485","","","","","","","","","","","","","","","","","","","","","","",""
"","fixation","","html-keyboard-response","231","2226790","0.0-164.0","0","0","HL3zD","Scenes","","null","","","null","","","","","","","","","","","","","","","","","","","","","","","","","","","","","","","","","","","","","","","","","","","",""
"","see_reward","","html-keyboard-response","232","2227373","0.0-165.0","0","0","HL3zD","Scenes","","582","","","32","","149","","14","","","","-1","","","","","1","","","","","0","582","","","","","","","","","","","","","","","","","","","","","","","","",""
"","reward_outcome","","html-keyboard-response","233","2229395","0.0-166.0","0","0","HL3zD","Scenes","","803","","","40","","149","","14","","","","","","","","","","","","","","","","-1","803","","","","","","","","","","","","","","","","","","","","","","",""
"","fixation","","html-keyboard-response","234","2230408","0.0-169.0","0","0","HL3zD","Scenes","","null","","","null","","","","","","","","","","","","","","","","","","","","","","","","","","","","","","","","","","","","","","","","","","","",""
"","see_reward","","html-keyboard-response","235","2231081","0.0-170.0","0","0","HL3zD","Scenes","","673","","","32","","144","","15","","","","1","","","","","1","","","","","150","673","","","","","","","","","","","","","","","","","","","","","","","","",""
"","reward_outcome","","html-keyboard-response","236","2233089","0.0-171.0","0","0","HL3zD","Scenes","","523","","","38","","144","","15","","","","","","","","","","","","","","","","1","523","","","","","","","","","","","","","","","","","","","","","","",""
"","fixation","","html-keyboard-response","237","2234097","0.0-174.0","0","0","HL3zD","Scenes","","null","","","null","","","","","","","","","","","","","","","","","","","","","","","","","","","","","","","","","","","","","","","","","","","",""
"","see_reward","","html-keyboard-response","238","2234606","0.0-175.0","0","0","HL3zD","Scenes","","508","","","32","","135","","16","","","","-1","","","","","1","","","","","0","508","","","","","","","","","","","","","","","","","","","","","","","","",""
"","reward_outcome","","html-keyboard-response","239","2236616","0.0-176.0","0","0","HL3zD","Scenes","","804","","","40","","135","","16","","","","","","","","","","","","","","","","-1","804","","","","","","","","","","","","","","","","","","","","","","",""
"","fixation","","html-keyboard-response","240","2237625","0.0-179.0","0","0","HL3zD","Scenes","","null","","","null","","","","","","","","","","","","","","","","","","","","","","","","","","","","","","","","","","","","","","","","","","","",""
"","see_reward","","html-keyboard-response","241","2238679","0.0-180.0","0","0","HL3zD","Scenes","","1053","","","32","","111","","17","","","","-1","","","","","1","","","","","0","1053","","","","","","","","","","","","","","","","","","","","","","","","",""
"","reward_outcome","","html-keyboard-response","242","2240692","0.0-181.0","0","0","HL3zD","Scenes","","1142","","","40","","111","","17","","","","","","","","","","","","","","","","-1","1142","","","","","","","","","","","","","","","","","","","","","","",""
"","fixation","","html-keyboard-response","243","2241702","0.0-184.0","0","0","HL3zD","Scenes","","null","","","null","","","","","","","","","","","","","","","","","","","","","","","","","","","","","","","","","","","","","","","","","","","",""
"","see_reward","","html-keyboard-response","244","2242345","0.0-185.0","0","0","HL3zD","Scenes","","643","","","32","","130","","18","","","","-1","","","","","1","","","","","0","643","","","","","","","","","","","","","","","","","","","","","","","","",""
"","reward_outcome","","html-keyboard-response","245","2244360","0.0-186.0","0","0","HL3zD","Scenes","","1101","","","40","","130","","18","","","","","","","","","","","","","","","","-1","1101","","","","","","","","","","","","","","","","","","","","","","",""
"","fixation","","html-keyboard-response","246","2245370","0.0-189.0","0","0","HL3zD","Scenes","","null","","","null","","","","","","","","","","","","","","","","","","","","","","","","","","","","","","","","","","","","","","","","","","","",""
"","see_reward","","html-keyboard-response","247","2246186","0.0-190.0","0","0","HL3zD","Scenes","","815","","","32","","119","","19","","","","1","","","","","1","","","","","143","815","","","","","","","","","","","","","","","","","","","","","","","","",""
"","reward_outcome","","html-keyboard-response","248","2248205","0.0-191.0","0","0","HL3zD","Scenes","","709","","","40","","119","","19","","","","","","","","","","","","","","","","-1","709","","","","","","","","","","","","","","","","","","","","","","",""
"","fixation","","html-keyboard-response","249","2249216","0.0-194.0","0","0","HL3zD","Scenes","","null","","","null","","","","","","","","","","","","","","","","","","","","","","","","","","","","","","","","","","","","","","","","","","","",""
"","see_reward","","html-keyboard-response","250","2250578","0.0-195.0","0","0","HL3zD","Scenes","","1360","","","32","","130","","20","","","","-1","","","","","1","","","","","0","1360","","","","","","","","","","","","","","","","","","","","","","","","",""
"","reward_outcome","","html-keyboard-response","251","2252596","0.0-196.0","0","0","HL3zD","Scenes","","789","","","40","","130","","20","","","","","","","","","","","","","","","","-1","789","","","","","","","","","","","","","","","","","","","","","","",""
"","fixation","","html-keyboard-response","252","2253608","0.0-199.0","0","0","HL3zD","Scenes","","null","","","null","","","","","","","","","","","","","","","","","","","","","","","","","","","","","","","","","","","","","","","","","","","",""
"","see_reward","","html-keyboard-response","253","2254403","0.0-200.0","0","0","HL3zD","Scenes","","794","","","32","","112","","21","","","","-1","","","","","1","","","","","0","794","","","","","","","","","","","","","","","","","","","","","","","","",""
"","reward_outcome","","html-keyboard-response","254","2256409","0.0-201.0","0","0","HL3zD","Scenes","","836","","","40","","112","","21","","","","","","","","","","","","","","","","-1","836","","","","","","","","","","","","","","","","","","","","","","",""
"","fixation","","html-keyboard-response","255","2257428","0.0-204.0","0","0","HL3zD","Scenes","","null","","","null","","","","","","","","","","","","","","","","","","","","","","","","","","","","","","","","","","","","","","","","","","","",""
"","see_reward","","html-keyboard-response","256","2258090","0.0-205.0","0","0","HL3zD","Scenes","","661","","","32","","125","","22","","","","1","","","","","1","","","","","141","661","","","","","","","","","","","","","","","","","","","","","","","","",""
"","reward_outcome","","html-keyboard-response","257","2260107","0.0-206.0","0","0","HL3zD","Scenes","","1260","","","38","","125","","22","","","","","","","","","","","","","","","","1","1260","","","","","","","","","","","","","","","","","","","","","","",""
"","fixation","","html-keyboard-response","258","2261117","0.0-209.0","0","0","HL3zD","Scenes","","null","","","null","","","","","","","","","","","","","","","","","","","","","","","","","","","","","","","","","","","","","","","","","","","",""
"","see_reward","","html-keyboard-response","259","2261918","0.0-210.0","0","0","HL3zD","Scenes","","800","","","32","","149","","23","","","","-1","","","","","1","","","","","0","800","","","","","","","","","","","","","","","","","","","","","","","","",""
"","reward_outcome","","html-keyboard-response","260","2263940","0.0-211.0","0","0","HL3zD","Scenes","","1118","","","40","","149","","23","","","","","","","","","","","","","","","","-1","1118","","","","","","","","","","","","","","","","","","","","","","",""
"","block_over","","html-keyboard-response","261","2267469","0.0-213.0-0.0","0","0","HL3zD","Scenes","","3527","","","78","","","","","","","","","","","","","","","","","","","","","","","","","","","","","","","","","","","","","","","","","","","",""
"","fixation","","html-keyboard-response","262","2268489","0.0-214.0","0","0","HL3zD","Scenes","","null","","","null","","","","","","","","","","","","","","","","","","","","","","","","","","","","","","","","","","","","","","","","","","","",""
"","see_reward","","html-keyboard-response","263","2269499","0.0-215.0","0","0","HL3zD","Scenes","","1009","","","32","","130","","24","","","","-1","","","","","2","","","","","0","1009","","","","","","","","","","","","","","","","","","","","","","","","",""
"","reward_outcome","","html-keyboard-response","264","2271509","0.0-216.0","0","0","HL3zD","Scenes","","897","","","40","","130","","24","","","","","","","","","","","","","","","","-1","897","","","","","","","","","","","","","","","","","","","","","","",""
"","fixation","","html-keyboard-response","265","2272523","0.0-219.0","0","0","HL3zD","Scenes","","null","","","null","","","","","","","","","","","","","","","","","","","","","","","","","","","","","","","","","","","","","","","","","","","",""
"","see_reward","","html-keyboard-response","266","2272900","0.0-220.0","0","0","HL3zD","Scenes","","376","","","32","","134","","25","","","","1","","","","","2","","","","","152","376","","","","","","","","","","","","","","","","","","","","","","","","",""
"","reward_outcome","","html-keyboard-response","267","2274907","0.0-221.0","0","0","HL3zD","Scenes","","903","","","38","","134","","25","","","","","","","","","","","","","","","","1","903","","","","","","","","","","","","","","","","","","","","","","",""
"","fixation","","html-keyboard-response","268","2275914","0.0-224.0","0","0","HL3zD","Scenes","","null","","","null","","","","","","","","","","","","","","","","","","","","","","","","","","","","","","","","","","","","","","","","","","","",""
"","see_reward","","html-keyboard-response","269","2276311","0.0-225.0","0","0","HL3zD","Scenes","","396","","","32","","130","","26","","","","-1","","","","","2","","","","","0","396","","","","","","","","","","","","","","","","","","","","","","","","",""
"","reward_outcome","","html-keyboard-response","270","2278322","0.0-226.0","0","0","HL3zD","Scenes","","692","","","40","","130","","26","","","","","","","","","","","","","","","","-1","692","","","","","","","","","","","","","","","","","","","","","","",""
"","fixation","","html-keyboard-response","271","2279328","0.0-229.0","0","0","HL3zD","Scenes","","null","","","null","","","","","","","","","","","","","","","","","","","","","","","","","","","","","","","","","","","","","","","","","","","",""
"","see_reward","","html-keyboard-response","272","2280054","0.0-230.0","0","0","HL3zD","Scenes","","726","","","32","","149","","27","","","","-1","","","","","2","","","","","0","726","","","","","","","","","","","","","","","","","","","","","","","","",""
"","reward_outcome","","html-keyboard-response","273","2282075","0.0-231.0","0","0","HL3zD","Scenes","","1084","","","40","","149","","27","","","","","","","","","","","","","","","","-1","1084","","","","","","","","","","","","","","","","","","","","","","",""
"","fixation","","html-keyboard-response","274","2283081","0.0-234.0","0","0","HL3zD","Scenes","","null","","","null","","","","","","","","","","","","","","","","","","","","","","","","","","","","","","","","","","","","","","","","","","","",""
"","see_reward","","html-keyboard-response","275","2283559","0.0-235.0","0","0","HL3zD","Scenes","","478","","","32","","149","","28","","","","-1","","","","","2","","","","","0","478","","","","","","","","","","","","","","","","","","","","","","","","",""
"","reward_outcome","","html-keyboard-response","276","2285570","0.0-236.0","0","0","HL3zD","Scenes","","505","","","40","","149","","28","","","","","","","","","","","","","","","","-1","505","","","","","","","","","","","","","","","","","","","","","","",""
"","fixation","","html-keyboard-response","277","2286588","0.0-239.0","0","0","HL3zD","Scenes","","null","","","null","","","","","","","","","","","","","","","","","","","","","","","","","","","","","","","","","","","","","","","","","","","",""
"","see_reward","","html-keyboard-response","278","2286856","0.0-240.0","0","0","HL3zD","Scenes","","267","","","32","","139","","29","","","","-1","","","","","2","","","","","0","267","","","","","","","","","","","","","","","","","","","","","","","","",""
"","reward_outcome","","html-keyboard-response","279","2288877","0.0-241.0","0","0","HL3zD","Scenes","","741","","","40","","139","","29","","","","","","","","","","","","","","","","-1","741","","","","","","","","","","","","","","","","","","","","","","",""
"","fixation","","html-keyboard-response","280","2289889","0.0-244.0","0","0","HL3zD","Scenes","","null","","","null","","","","","","","","","","","","","","","","","","","","","","","","","","","","","","","","","","","","","","","","","","","",""
"","see_reward","","html-keyboard-response","281","2290642","0.0-245.0","0","0","HL3zD","Scenes","","752","","","32","","119","","30","","","","1","","","","","2","","","","","143","752","","","","","","","","","","","","","","","","","","","","","","","","",""
"","reward_outcome","","html-keyboard-response","282","2292655","0.0-246.0","0","0","HL3zD","Scenes","","1113","","","38","","119","","30","","","","","","","","","","","","","","","","1","1113","","","","","","","","","","","","","","","","","","","","","","",""
"","fixation","","html-keyboard-response","283","2293673","0.0-249.0","0","0","HL3zD","Scenes","","null","","","null","","","","","","","","","","","","","","","","","","","","","","","","","","","","","","","","","","","","","","","","","","","",""
"","see_reward","","html-keyboard-response","284","2294237","0.0-250.0","0","0","HL3zD","Scenes","","562","","","32","","125","","31","","","","1","","","","","2","","","","","141","562","","","","","","","","","","","","","","","","","","","","","","","","",""
"","reward_outcome","","html-keyboard-response","285","2296250","0.0-251.0","0","0","HL3zD","Scenes","","1061","","","38","","125","","31","","","","","","","","","","","","","","","","1","1061","","","","","","","","","","","","","","","","","","","","","","",""
"","fixation","","html-keyboard-response","286","2297265","0.0-254.0","0","0","HL3zD","Scenes","","null","","","null","","","","","","","","","","","","","","","","","","","","","","","","","","","","","","","","","","","","","","","","","","","",""
"","see_reward","","html-keyboard-response","287","2297766","0.0-255.0","0","0","HL3zD","Scenes","","498","","","32","","112","","32","","","","-1","","","","","2","","","","","0","498","","","","","","","","","","","","","","","","","","","","","","","","",""
"","reward_outcome","","html-keyboard-response","288","2299783","0.0-256.0","0","0","HL3zD","Scenes","","742","","","40","","112","","32","","","","","","","","","","","","","","","","-1","742","","","","","","","","","","","","","","","","","","","","","","",""
"","fixation","","html-keyboard-response","289","2300796","0.0-259.0","0","0","HL3zD","Scenes","","null","","","null","","","","","","","","","","","","","","","","","","","","","","","","","","","","","","","","","","","","","","","","","","","",""
"","see_reward","","html-keyboard-response","290","2301472","0.0-260.0","0","0","HL3zD","Scenes","","676","","","32","","135","","33","","","","-1","","","","","2","","","","","0","676","","","","","","","","","","","","","","","","","","","","","","","","",""
"","reward_outcome","","html-keyboard-response","291","2303488","0.0-261.0","0","0","HL3zD","Scenes","","937","","","40","","135","","33","","","","","","","","","","","","","","","","-1","937","","","","","","","","","","","","","","","","","","","","","","",""
"","fixation","","html-keyboard-response","292","2304498","0.0-264.0","0","0","HL3zD","Scenes","","null","","","null","","","","","","","","","","","","","","","","","","","","","","","","","","","","","","","","","","","","","","","","","","","",""
"","see_reward","","html-keyboard-response","293","2305316","0.0-265.0","0","0","HL3zD","Scenes","","816","","","32","","144","","34","","","","1","","","","","2","","","","","150","816","","","","","","","","","","","","","","","","","","","","","","","","",""
"","reward_outcome","","html-keyboard-response","294","2307319","0.0-266.0","0","0","HL3zD","Scenes","","890","","","38","","144","","34","","","","","","","","","","","","","","","","1","890","","","","","","","","","","","","","","","","","","","","","","",""
"","fixation","","html-keyboard-response","295","2308332","0.0-269.0","0","0","HL3zD","Scenes","","null","","","null","","","","","","","","","","","","","","","","","","","","","","","","","","","","","","","","","","","","","","","","","","","",""
"","see_reward","","html-keyboard-response","296","2311069","0.0-270.0","0","0","HL3zD","Scenes","","2735","","","32","","119","","35","","","","1","","","","","2","","","","","143","2735","","","","","","","","","","","","","","","","","","","","","","","","",""
"","reward_outcome","","html-keyboard-response","297","2313091","0.0-271.0","0","0","HL3zD","Scenes","","720","","","38","","119","","35","","","","","","","","","","","","","","","","1","720","","","","","","","","","","","","","","","","","","","","","","",""
"","fixation","","html-keyboard-response","298","2314100","0.0-274.0","0","0","HL3zD","Scenes","","null","","","null","","","","","","","","","","","","","","","","","","","","","","","","","","","","","","","","","","","","","","","","","","","",""
"","see_reward","","html-keyboard-response","299","2314767","0.0-275.0","0","0","HL3zD","Scenes","","664","","","32","","126","","36","","","","1","","","","","2","","","","","141","664","","","","","","","","","","","","","","","","","","","","","","","","",""
"","reward_outcome","","html-keyboard-response","300","2316781","0.0-276.0","0","0","HL3zD","Scenes","","759","","","38","","126","","36","","","","","","","","","","","","","","","","1","759","","","","","","","","","","","","","","","","","","","","","","",""
"","fixation","","html-keyboard-response","301","2317788","0.0-279.0","0","0","HL3zD","Scenes","","null","","","null","","","","","","","","","","","","","","","","","","","","","","","","","","","","","","","","","","","","","","","","","","","",""
"","see_reward","","html-keyboard-response","302","2318293","0.0-280.0","0","0","HL3zD","Scenes","","504","","","32","","125","","37","","","","1","","","","","2","","","","","141","504","","","","","","","","","","","","","","","","","","","","","","","","",""
"","reward_outcome","","html-keyboard-response","303","2320312","0.0-281.0","0","0","HL3zD","Scenes","","718","","","38","","125","","37","","","","","","","","","","","","","","","","1","718","","","","","","","","","","","","","","","","","","","","","","",""
"","fixation","","html-keyboard-response","304","2321324","0.0-284.0","0","0","HL3zD","Scenes","","null","","","null","","","","","","","","","","","","","","","","","","","","","","","","","","","","","","","","","","","","","","","","","","","",""
"","see_reward","","html-keyboard-response","305","2321822","0.0-285.0","0","0","HL3zD","Scenes","","497","","","32","","112","","38","","","","-1","","","","","2","","","","","0","497","","","","","","","","","","","","","","","","","","","","","","","","",""
"","reward_outcome","","html-keyboard-response","306","2323838","0.0-286.0","0","0","HL3zD","Scenes","","314","","","38","","112","","38","","","","","","","","","","","","","","","","1","314","","","","","","","","","","","","","","","","","","","","","","",""
"","fixation","","html-keyboard-response","307","2324860","0.0-289.0","0","0","HL3zD","Scenes","","null","","","null","","","","","","","","","","","","","","","","","","","","","","","","","","","","","","","","","","","","","","","","","","","",""
"","see_reward","","html-keyboard-response","308","2325631","0.0-290.0","0","0","HL3zD","Scenes","","771","","","32","","134","","39","","","","1","","","","","2","","","","","152","771","","","","","","","","","","","","","","","","","","","","","","","","",""
"","reward_outcome","","html-keyboard-response","309","2327647","0.0-291.0","0","0","HL3zD","Scenes","","1201","","","38","","134","","39","","","","","","","","","","","","","","","","1","1201","","","","","","","","","","","","","","","","","","","","","","",""
"","fixation","","html-keyboard-response","310","2328660","0.0-294.0","0","0","HL3zD","Scenes","","null","","","null","","","","","","","","","","","","","","","","","","","","","","","","","","","","","","","","","","","","","","","","","","","",""
"","see_reward","","html-keyboard-response","311","2329008","0.0-295.0","0","0","HL3zD","Scenes","","347","","","32","","126","","40","","","","1","","","","","2","","","","","141","347","","","","","","","","","","","","","","","","","","","","","","","","",""
"","reward_outcome","","html-keyboard-response","312","2331024","0.0-296.0","0","0","HL3zD","Scenes","","703","","","38","","126","","40","","","","","","","","","","","","","","","","1","703","","","","","","","","","","","","","","","","","","","","","","",""
"","fixation","","html-keyboard-response","313","2332032","0.0-299.0","0","0","HL3zD","Scenes","","null","","","null","","","","","","","","","","","","","","","","","","","","","","","","","","","","","","","","","","","","","","","","","","","",""
"","see_reward","","html-keyboard-response","314","2332680","0.0-300.0","0","0","HL3zD","Scenes","","646","","","32","","135","","41","","","","-1","","","","","2","","","","","0","646","","","","","","","","","","","","","","","","","","","","","","","","",""
"","reward_outcome","","html-keyboard-response","315","2334693","0.0-301.0","0","0","HL3zD","Scenes","","737","","","40","","135","","41","","","","","","","","","","","","","","","","-1","737","","","","","","","","","","","","","","","","","","","","","","",""
"","fixation","","html-keyboard-response","316","2335703","0.0-304.0","0","0","HL3zD","Scenes","","null","","","null","","","","","","","","","","","","","","","","","","","","","","","","","","","","","","","","","","","","","","","","","","","",""
"","see_reward","","html-keyboard-response","317","2336497","0.0-305.0","0","0","HL3zD","Scenes","","793","","","32","","139","","42","","","","-1","","","","","2","","","","","0","793","","","","","","","","","","","","","","","","","","","","","","","","",""
"","reward_outcome","","html-keyboard-response","318","2338516","0.0-306.0","0","0","HL3zD","Scenes","","816","","","40","","139","","42","","","","","","","","","","","","","","","","-1","816","","","","","","","","","","","","","","","","","","","","","","",""
"","fixation","","html-keyboard-response","319","2339526","0.0-309.0","0","0","HL3zD","Scenes","","null","","","null","","","","","","","","","","","","","","","","","","","","","","","","","","","","","","","","","","","","","","","","","","","",""
"","see_reward","","html-keyboard-response","320","2340048","0.0-310.0","0","0","HL3zD","Scenes","","520","","","32","","111","","43","","","","-1","","","","","2","","","","","0","520","","","","","","","","","","","","","","","","","","","","","","","","",""
"","reward_outcome","","html-keyboard-response","321","2342062","0.0-311.0","0","0","HL3zD","Scenes","","631","","","40","","111","","43","","","","","","","","","","","","","","","","-1","631","","","","","","","","","","","","","","","","","","","","","","",""
"","fixation","","html-keyboard-response","322","2343076","0.0-314.0","0","0","HL3zD","Scenes","","null","","","null","","","","","","","","","","","","","","","","","","","","","","","","","","","","","","","","","","","","","","","","","","","",""
"","see_reward","","html-keyboard-response","323","2344442","0.0-315.0","0","0","HL3zD","Scenes","","1364","","","32","","144","","44","","","","1","","","","","2","","","","","150","1364","","","","","","","","","","","","","","","","","","","","","","","","",""
"","reward_outcome","","html-keyboard-response","324","2346454","0.0-316.0","0","0","HL3zD","Scenes","","1135","","","38","","144","","44","","","","","","","","","","","","","","","","1","1135","","","","","","","","","","","","","","","","","","","","","","",""
"","fixation","","html-keyboard-response","325","2347472","0.0-319.0","0","0","HL3zD","Scenes","","null","","","null","","","","","","","","","","","","","","","","","","","","","","","","","","","","","","","","","","","","","","","","","","","",""
"","see_reward","","html-keyboard-response","326","2347963","0.0-320.0","0","0","HL3zD","Scenes","","489","","","32","","136","","45","","","","1","","","","","2","","","","","148","489","","","","","","","","","","","","","","","","","","","","","","","","",""
"","reward_outcome","","html-keyboard-response","327","2349974","0.0-321.0","0","0","HL3zD","Scenes","","758","","","38","","136","","45","","","","","","","","","","","","","","","","1","758","","","","","","","","","","","","","","","","","","","","","","",""
"","fixation","","html-keyboard-response","328","2350982","0.0-324.0","0","0","HL3zD","Scenes","","null","","","null","","","","","","","","","","","","","","","","","","","","","","","","","","","","","","","","","","","","","","","","","","","",""
"","see_reward","","html-keyboard-response","329","2351511","0.0-325.0","0","0","HL3zD","Scenes","","527","","","32","","136","","46","","","","1","","","","","2","","","","","148","527","","","","","","","","","","","","","","","","","","","","","","","","",""
"","reward_outcome","","html-keyboard-response","330","2353523","0.0-326.0","0","0","HL3zD","Scenes","","685","","","38","","136","","46","","","","","","","","","","","","","","","","1","685","","","","","","","","","","","","","","","","","","","","","","",""
"","fixation","","html-keyboard-response","331","2354536","0.0-329.0","0","0","HL3zD","Scenes","","null","","","null","","","","","","","","","","","","","","","","","","","","","","","","","","","","","","","","","","","","","","","","","","","",""
"","see_reward","","html-keyboard-response","332","2355799","0.0-330.0","0","0","HL3zD","Scenes","","1262","","","32","","111","","47","","","","-1","","","","","2","","","","","0","1262","","","","","","","","","","","","","","","","","","","","","","","","",""
"","reward_outcome","","html-keyboard-response","333","2357810","0.0-331.0","0","0","HL3zD","Scenes","","1367","","","40","","111","","47","","","","","","","","","","","","","","","","-1","1367","","","","","","","","","","","","","","","","","","","","","","",""
"","block_over","","html-keyboard-response","334","2393378","0.0-333.0-0.0","0","0","HL3zD","Scenes","","35568","","","78","","","","","","","","","","","","","","","","","","","","","","","","","","","","","","","","","","","","","","","","","","","",""
"","fixation","","html-keyboard-response","335","2394389","0.0-334.0","0","0","HL3zD","Scenes","","null","","","null","","","","","","","","","","","","","","","","","","","","","","","","","","","","","","","","","","","","","","","","","","","",""
"","see_reward","","html-keyboard-response","336","2395512","0.0-335.0","0","0","HL3zD","Scenes","","1121","","","32","","144","","48","","","","1","","","","","3","","","","","150","1121","","","","","","","","","","","","","","","","","","","","","","","","",""
"","reward_outcome","","html-keyboard-response","337","2397534","0.0-336.0","0","0","HL3zD","Scenes","","1069","","","38","","144","","48","","","","","","","","","","","","","","","","1","1069","","","","","","","","","","","","","","","","","","","","","","",""
"","fixation","","html-keyboard-response","338","2398545","0.0-339.0","0","0","HL3zD","Scenes","","null","","","null","","","","","","","","","","","","","","","","","","","","","","","","","","","","","","","","","","","","","","","","","","","",""
"","see_reward","","html-keyboard-response","339","2399029","0.0-340.0","0","0","HL3zD","Scenes","","483","","","32","","149","","49","","","","-1","","","","","3","","","","","0","483","","","","","","","","","","","","","","","","","","","","","","","","",""
"","reward_outcome","","html-keyboard-response","340","2401048","0.0-341.0","0","0","HL3zD","Scenes","","831","","","40","","149","","49","","","","","","","","","","","","","","","","-1","831","","","","","","","","","","","","","","","","","","","","","","",""
"","fixation","","html-keyboard-response","341","2402058","0.0-344.0","0","0","HL3zD","Scenes","","null","","","null","","","","","","","","","","","","","","","","","","","","","","","","","","","","","","","","","","","","","","","","","","","",""
"","see_reward","","html-keyboard-response","342","2402472","0.0-345.0","0","0","HL3zD","Scenes","","412","","","32","","136","","50","","","","1","","","","","3","","","","","148","412","","","","","","","","","","","","","","","","","","","","","","","","",""
"","reward_outcome","","html-keyboard-response","343","2404489","0.0-346.0","0","0","HL3zD","Scenes","","1078","","","38","","136","","50","","","","","","","","","","","","","","","","1","1078","","","","","","","","","","","","","","","","","","","","","","",""
"","fixation","","html-keyboard-response","344","2405495","0.0-349.0","0","0","HL3zD","Scenes","","null","","","null","","","","","","","","","","","","","","","","","","","","","","","","","","","","","","","","","","","","","","","","","","","",""
"","see_reward","","html-keyboard-response","345","2406181","0.0-350.0","0","0","HL3zD","Scenes","","685","","","32","","149","","51","","","","-1","","","","","3","","","","","0","685","","","","","","","","","","","","","","","","","","","","","","","","",""
"","reward_outcome","","html-keyboard-response","346","2408204","0.0-351.0","0","0","HL3zD","Scenes","","845","","","40","","149","","51","","","","","","","","","","","","","","","","-1","845","","","","","","","","","","","","","","","","","","","","","","",""
"","fixation","","html-keyboard-response","347","2409211","0.0-354.0","0","0","HL3zD","Scenes","","null","","","null","","","","","","","","","","","","","","","","","","","","","","","","","","","","","","","","","","","","","","","","","","","",""
"","see_reward","","html-keyboard-response","348","2409719","0.0-355.0","0","0","HL3zD","Scenes","","506","","","32","","134","","52","","","","1","","","","","3","","","","","152","506","","","","","","","","","","","","","","","","","","","","","","","","",""
"","reward_outcome","","html-keyboard-response","349","2411739","0.0-356.0","0","0","HL3zD","Scenes","","643","","","38","","134","","52","","","","","","","","","","","","","","","","1","643","","","","","","","","","","","","","","","","","","","","","","",""
"","fixation","","html-keyboard-response","350","2412748","0.0-359.0","0","0","HL3zD","Scenes","","null","","","null","","","","","","","","","","","","","","","","","","","","","","","","","","","","","","","","","","","","","","","","","","","",""
"","see_reward","","html-keyboard-response","351","2413130","0.0-360.0","0","0","HL3zD","Scenes","","381","","","32","","125","","53","","","","1","","","","","3","","","","","141","381","","","","","","","","","","","","","","","","","","","","","","","","",""
"","reward_outcome","","html-keyboard-response","352","2415135","0.0-361.0","0","0","HL3zD","Scenes","","1040","","","38","","125","","53","","","","","","","","","","","","","","","","1","1040","","","","","","","","","","","","","","","","","","","","","","",""
"","fixation","","html-keyboard-response","353","2416147","0.0-364.0","0","0","HL3zD","Scenes","","null","","","null","","","","","","","","","","","","","","","","","","","","","","","","","","","","","","","","","","","","","","","","","","","",""
