"success","ttype","start_time","trial_type","trial_index","time_elapsed","internal_node_id","warning","missed_checkup","PID","stim_type","view_history","rt","responses","category","repeat_instructions","key_press","response","stimulus_id","painting","index","stimulus_left","stimulus_right","explain_trial","reward_type","rating_left","rating_right","painting_left","painting_right","block","left_chosen","chosen_obj","unchosen_obj","explain_response","reward_amount","see_reward_rt","register_reward_response","register_reward_rt","deliberation_reward_tally","stimulus_left_deliberation_ind","stimulus_right_deliberation_ind","chosen_trial","gain_left","higher_outcome_chosen","old_pair","chosen_object","rt_pairs","left_object_chosen","rt_object","old_response","new_rating","deliberated_stim","initial_rating","outcome_eval_rt","outcome_eval_response","outcome_eval_gain","outcome_eval_acc","preamble","outcome_eval_confidence","outcome_eval_confidence_rt","total_reward_tally"
"true","full_screen","d01182023hr1352","fullscreen","0","4108","0.0-0.0","0","0","dhc9M","People","","","","","","","","","","","","","","","","","","","","","","","","","","","","","","","","","","","","","","","","","","","","","","","","","",""
"","rating_instructions","","instructions","1","7928","0.0-1.0-0.0","0","0","dhc9M","People","[{""page_index"":0,""viewing_time"":2241},{""page_index"":1,""viewing_time"":1570}]","3814","","","","","","","","","","","","","","","","","","","","","","","","","","","","","","","","","","","","","","","","","","","","","","","",""
"","","","survey-multi-choice","2","13978","0.0-1.0-1.0","0","0","dhc9M","People","","6038","{""Q0"":""True"",""Q1"":""Mouse""}","rating_comprehension_check","0","","","","","","","","","","","","","","","","","","","","","","","","","","","","","","","","","","","","","","","","","","","","",""
"","start_phase","","html-keyboard-response","3","16672","0.0-2.0","0","0","dhc9M","People","","2687","","","","78","","","","","","","","","","","","","","","","","","","","","","","","","","","","","","","","","","","","","","","","","","","",""
"","rating","","html-slider-response","4","21069","0.0-3.0","0","0","dhc9M","People","","4388","","","","","80","11","christian-ferrer-8vT-DgHZDG4-unsplash.jpg","0","","","","","","","","","","","","","","","","","","","","","","","","","","","","","","","","","","","","","","","",""
"","rating","","html-slider-response","5","21373","0.0-4.0","0","0","dhc9M","People","","295","","","","","50","19","ha-nguy-n-OFSQ6bHjFjs-unsplash.jpg","1","","","","","","","","","","","","","","","","","","","","","","","","","","","","","","","","","","","","","","","",""
"","rating","","html-slider-response","6","24334","0.0-5.0","0","0","dhc9M","People","","2952","","","","","26","28","justin-chen-J7Cf1Gch49E-unsplash.jpg","2","","","","","","","","","","","","","","","","","","","","","","","","","","","","","","","","","","","","","","","",""
"","rating","","html-slider-response","7","27529","0.0-6.0","0","0","dhc9M","People","","3185","","","","","86","2","arjunsyah-TBUA5KHJn6k-unsplash.jpg","3","","","","","","","","","","","","","","","","","","","","","","","","","","","","","","","","","","","","","","","",""
"","rating","","html-slider-response","8","30745","0.0-7.0","0","0","dhc9M","People","","3206","","","","","19","6","ben-o-bro-C5XyLljkMrY-unsplash.jpg","4","","","","","","","","","","","","","","","","","","","","","","","","","","","","","","","","","","","","","","","",""
"","rating","","html-slider-response","9","34072","0.0-8.0","0","0","dhc9M","People","","3318","","","","","70","9","carlos-andres-gomez-vJuk8Y86mRw-unsplash.jpg","5","","","","","","","","","","","","","","","","","","","","","","","","","","","","","","","","","","","","","","","",""
"","rating","","html-slider-response","10","39930","0.0-9.0","0","0","dhc9M","People","","5852","","","","","20","21","jessica-felicio-_cvwXhGqG-o-unsplash.jpg","6","","","","","","","","","","","","","","","","","","","","","","","","","","","","","","","","","","","","","","","",""
"","rating","","html-slider-response","11","43024","0.0-10.0","0","0","dhc9M","People","","3084","","","","","75","34","oliver-johnson-1TUIcKob7Zs-unsplash.jpg","7","","","","","","","","","","","","","","","","","","","","","","","","","","","","","","","","","","","","","","","",""
"","rating","","html-slider-response","12","45589","0.0-11.0","0","0","dhc9M","People","","2556","","","","","19","5","batel-studio-ttSRjiYG_WM-unsplash.jpg","8","","","","","","","","","","","","","","","","","","","","","","","","","","","","","","","","","","","","","","","",""
"","rating","","html-slider-response","13","48506","0.0-12.0","0","0","dhc9M","People","","2911","","","","","93","18","good-faces-xmSWVeGEnJw-unsplash.jpg","9","","","","","","","","","","","","","","","","","","","","","","","","","","","","","","","","","","","","","","","",""
"","rating","","html-slider-response","14","50866","0.0-13.0","0","0","dhc9M","People","","2353","","","","","24","39","philip-martin-5aGUyCW_PJw-unsplash.jpg","10","","","","","","","","","","","","","","","","","","","","","","","","","","","","","","","","","","","","","","","",""
"","rating","","html-slider-response","15","53120","0.0-14.0","0","0","dhc9M","People","","2245","","","","","76","32","nathan-dumlao-ger61_TX6oI-unsplash.jpg","11","","","","","","","","","","","","","","","","","","","","","","","","","","","","","","","","","","","","","","","",""
"","rating","","html-slider-response","16","55188","0.0-15.0","0","0","dhc9M","People","","2063","","","","","19","44","rikonavt-HQjfrvdTfak-unsplash.jpg","12","","","","","","","","","","","","","","","","","","","","","","","","","","","","","","","","","","","","","","","",""
"","rating","","html-slider-response","17","57719","0.0-16.0","0","0","dhc9M","People","","2524","","","","","77","17","gleb-lukomets-paBzWCPN23k-unsplash.jpg","13","","","","","","","","","","","","","","","","","","","","","","","","","","","","","","","","","","","","","","","",""
"","rating","","html-slider-response","18","60185","0.0-17.0","0","0","dhc9M","People","","2461","","","","","27","35","oliver-ragfelt-khV4fTy6-D8-unsplash.jpg","14","","","","","","","","","","","","","","","","","","","","","","","","","","","","","","","","","","","","","","","",""
"","rating","","html-slider-response","19","60516","0.0-18.0","0","0","dhc9M","People","","326","","","","","50","20","houcine-ncib-B4TjXnI0Y2c-unsplash.jpg","15","","","","","","","","","","","","","","","","","","","","","","","","","","","","","","","","","","","","","","","",""
"","rating","","html-slider-response","20","63351","0.0-19.0","0","0","dhc9M","People","","2829","","","","","76","13","erik-lucatero-d2MSDujJl2g-unsplash.jpg","16","","","","","","","","","","","","","","","","","","","","","","","","","","","","","","","","","","","","","","","",""
"","rating","","html-slider-response","21","65854","0.0-20.0","0","0","dhc9M","People","","2497","","","","","21","43","raamin-ka-0qJBEzudn5E-unsplash.jpg","17","","","","","","","","","","","","","","","","","","","","","","","","","","","","","","","","","","","","","","","",""
"","rating","","html-slider-response","22","68215","0.0-21.0","0","0","dhc9M","People","","2351","","","","","78","22","jessica-radanavong-mrYkTuAesKE-unsplash.jpg","18","","","","","","","","","","","","","","","","","","","","","","","","","","","","","","","","","","","","","","","",""
"","rating","","html-slider-response","23","71135","0.0-22.0","0","0","dhc9M","People","","2911","","","","","23","14","freddy-kearney-o-ioeoATbIM-unsplash.jpg","19","","","","","","","","","","","","","","","","","","","","","","","","","","","","","","","","","","","","","","","",""
"","rating","","html-slider-response","24","77620","0.0-23.0","0","0","dhc9M","People","","6473","","","","","32","48","velizar-ivanov-7ktP9yZA1g4-unsplash.jpg","20","","","","","","","","","","","","","","","","","","","","","","","","","","","","","","","","","","","","","","","",""
"","rating","","html-slider-response","25","80638","0.0-24.0","0","0","dhc9M","People","","3009","","","","","29","1","aiony-haust-jmATI5Q_YgY-unsplash.jpg","21","","","","","","","","","","","","","","","","","","","","","","","","","","","","","","","","","","","","","","","",""
"","rating","","html-slider-response","26","83435","0.0-25.0","0","0","dhc9M","People","","2791","","","","","77","40","prince-akachi-4Yv84VgQkRM-unsplash.jpg","22","","","","","","","","","","","","","","","","","","","","","","","","","","","","","","","","","","","","","","","",""
"","rating","","html-slider-response","27","85896","0.0-26.0","0","0","dhc9M","People","","2452","","","","","89","36","ospan-ali-mGdA2fzjWLo-unsplash.jpg","23","","","","","","","","","","","","","","","","","","","","","","","","","","","","","","","","","","","","","","","",""
"","rating","","html-slider-response","28","88260","0.0-27.0","0","0","dhc9M","People","","2356","","","","","24","49","vicky-hladynets-_gDoyVv5F4c-unsplash.jpg","24","","","","","","","","","","","","","","","","","","","","","","","","","","","","","","","","","","","","","","","",""
"","rating","","html-slider-response","29","90740","0.0-28.0","0","0","dhc9M","People","","2475","","","","","63","23","joanna-nix-walkup-H4fEMshfwTE-unsplash.jpg","25","","","","","","","","","","","","","","","","","","","","","","","","","","","","","","","","","","","","","","","",""
"","rating","","html-slider-response","30","92678","0.0-29.0","0","0","dhc9M","People","","1931","","","","","24","16","giano-currie-5-9YOsmf8IQ-unsplash.jpg","26","","","","","","","","","","","","","","","","","","","","","","","","","","","","","","","","","","","","","","","",""
"","rating","","html-slider-response","31","95102","0.0-30.0","0","0","dhc9M","People","","2416","","","","","75","7","brooke-cagle-HRZUzoX1e6w-unsplash.jpg","27","","","","","","","","","","","","","","","","","","","","","","","","","","","","","","","","","","","","","","","",""
"","rating","","html-slider-response","32","100988","0.0-31.0","0","0","dhc9M","People","","5875","","","","","73","3","art-hauntington-jzY0KRJopEI-unsplash.jpg","28","","","","","","","","","","","","","","","","","","","","","","","","","","","","","","","","","","","","","","","",""
"","rating","","html-slider-response","33","103658","0.0-32.0","0","0","dhc9M","People","","2663","","","","","23","31","mathilda-khoo-vLR0YP_otCo-unsplash.jpg","29","","","","","","","","","","","","","","","","","","","","","","","","","","","","","","","","","","","","","","","",""
"","rating","","html-slider-response","34","106782","0.0-33.0","0","0","dhc9M","People","","3115","","","","","75","37","pavel-anoshin-d0peGya6R5Y-unsplash.jpg","30","","","","","","","","","","","","","","","","","","","","","","","","","","","","","","","","","","","","","","","",""
"","rating","","html-slider-response","35","109267","0.0-34.0","0","0","dhc9M","People","","2480","","","","","18","25","joseph-gonzalez-iFgRcqHznqg-unsplash.jpg","31","","","","","","","","","","","","","","","","","","","","","","","","","","","","","","","","","","","","","","","",""
"","rating","","html-slider-response","36","111669","0.0-35.0","0","0","dhc9M","People","","2397","","","","","72","12","daniel-rigdon-dXmXKPP2L4E-unsplash.jpg","32","","","","","","","","","","","","","","","","","","","","","","","","","","","","","","","","","","","","","","","",""
"","rating","","html-slider-response","37","113642","0.0-36.0","0","0","dhc9M","People","","1968","","","","","24","45","sarah-noltner-pL5ZzPp1zqg-unsplash.jpg","33","","","","","","","","","","","","","","","","","","","","","","","","","","","","","","","","","","","","","","","",""
"","rating","","html-slider-response","38","116280","0.0-37.0","0","0","dhc9M","People","","2632","","","","","79","30","matheus-ferrero-pg_WCHWSdT8-unsplash.jpg","34","","","","","","","","","","","","","","","","","","","","","","","","","","","","","","","","","","","","","","","",""
"","rating","","html-slider-response","39","126769","0.0-38.0","0","0","dhc9M","People","","10478","","","","","61","46","stefan-stefancik-QXevDflbl8A-unsplash.jpg","35","","","","","","","","","","","","","","","","","","","","","","","","","","","","","","","","","","","","","","","",""
"","rating","","html-slider-response","40","130037","0.0-39.0","0","0","dhc9M","People","","3257","","","","","15","26","juri-gianfrancesco-9EZadYaMzk4-unsplash.jpg","36","","","","","","","","","","","","","","","","","","","","","","","","","","","","","","","","","","","","","","","",""
"","rating","","html-slider-response","41","135376","0.0-40.0","0","0","dhc9M","People","","5331","","","","","73","24","joel-mott-LaK153ghdig-unsplash.jpg","37","","","","","","","","","","","","","","","","","","","","","","","","","","","","","","","","","","","","","","","",""
"","rating","","html-slider-response","42","137875","0.0-41.0","0","0","dhc9M","People","","2493","","","","","19","47","tyler-nix-ZGa9d1a_4tA-unsplash.jpg","38","","","","","","","","","","","","","","","","","","","","","","","","","","","","","","","","","","","","","","","",""
"","rating","","html-slider-response","43","140046","0.0-42.0","0","0","dhc9M","People","","2164","","","","","76","15","gabriel-silverio-u3WmDyKGsrY-unsplash.jpg","39","","","","","","","","","","","","","","","","","","","","","","","","","","","","","","","","","","","","","","","",""
"","rating","","html-slider-response","44","142451","0.0-43.0","0","0","dhc9M","People","","2396","","","","","21","38","petr-sevcovic-HzDF-rxlSeM-unsplash.jpg","40","","","","","","","","","","","","","","","","","","","","","","","","","","","","","","","","","","","","","","","",""
"","rating","","html-slider-response","45","144625","0.0-44.0","0","0","dhc9M","People","","2163","","","","","85","27","jurica-koletic-7YVZYZeITc8-unsplash.jpg","41","","","","","","","","","","","","","","","","","","","","","","","","","","","","","","","","","","","","","","","",""
"","rating","","html-slider-response","46","146716","0.0-45.0","0","0","dhc9M","People","","2084","","","","","31","41","prince-akachi-i2hoD-C2RUA-unsplash.jpg","42","","","","","","","","","","","","","","","","","","","","","","","","","","","","","","","","","","","","","","","",""
"","rating","","html-slider-response","47","149183","0.0-46.0","0","0","dhc9M","People","","2460","","","","","61","33","olena-sergienko-0TSd6uCKTKc-unsplash.jpg","43","","","","","","","","","","","","","","","","","","","","","","","","","","","","","","","","","","","","","","","",""
"","rating","","html-slider-response","48","155365","0.0-47.0","0","0","dhc9M","People","","6173","","","","","77","4","barna-bartis-2x3vfVxwR7o-unsplash.jpg","44","","","","","","","","","","","","","","","","","","","","","","","","","","","","","","","","","","","","","","","",""
"","rating","","html-slider-response","49","158285","0.0-48.0","0","0","dhc9M","People","","2911","","","","","41","0","abstral-official-cyOKLSgkgCE-unsplash.jpg","45","","","","","","","","","","","","","","","","","","","","","","","","","","","","","","","","","","","","","","","",""
"","rating","","html-slider-response","50","160880","0.0-49.0","0","0","dhc9M","People","","2589","","","","","86","42","prince-akachi-l3IHXOdMyHQ-unsplash.jpg","46","","","","","","","","","","","","","","","","","","","","","","","","","","","","","","","","","","","","","","","",""
"","rating","","html-slider-response","51","162852","0.0-50.0","0","0","dhc9M","People","","1967","","","","","30","29","leilani-angel-K84vnnzxmTQ-unsplash.jpg","47","","","","","","","","","","","","","","","","","","","","","","","","","","","","","","","","","","","","","","","",""
"","rating","","html-slider-response","52","164782","0.0-51.0","0","0","dhc9M","People","","1925","","","","","66","8","bruce-dixon-3M9WJQVHzog-unsplash.jpg","48","","","","","","","","","","","","","","","","","","","","","","","","","","","","","","","","","","","","","","","",""
"","rating","","html-slider-response","53","167189","0.0-52.0","0","0","dhc9M","People","","2402","","","","","78","10","charles-etoroma-95UF6LXe-Lo-unsplash.jpg","49","","","","","","","","","","","","","","","","","","","","","","","","","","","","","","","","","","","","","","","",""
"","deliberation_instructions","","instructions","54","178960","0.0-53.0-0.0","0","0","dhc9M","People","[{""page_index"":0,""viewing_time"":2810},{""page_index"":1,""viewing_time"":2527},{""page_index"":2,""viewing_time"":1742},{""page_index"":3,""viewing_time"":3163},{""page_index"":4,""viewing_time"":1513}]","11755","","","","","","","","","","","","","","","","","","","","","","","","","","","","","","","","","","","","","","","","","","","","","","","",""
"","","","survey-multi-choice","55","188296","0.0-53.0-1.0","0","0","dhc9M","People","","9323","{""Q0"":""True"",""Q1"":""True"",""Q2"":""Consider carefully and take your time (up to 10 seconds)"",""Q3"":""True"",""Q4"":""D""}","deliberation_comprehension_check","0","","","","","","","","","","","","","","","","","","","","","","","","","","","","","","","","","","","","","","","","","","","","",""
"","start_phase","","html-keyboard-response","56","190219","0.0-54.0","0","0","dhc9M","People","","1915","","","","78","","","","","","","","","","","","","","","","","","","","","","","","","","","","","","","","","","","","","","","","","","","",""
"","first_deliberation_block","","html-keyboard-response","57","192062","0.0-55.0","0","0","dhc9M","People","","1839","","","","78","","","","","","","","","","","","","","","","","","","","","","","","","","","","","","","","","","","","","","","","","","","",""
"","fixation","","html-keyboard-response","58","193069","0.0-56.0-0.0","0","0","dhc9M","People","","null","","","","null","","","","","","","","","","","","","","","","","","","","","","","","","","","","","","","","","","","","","","","","","","","",""
"","deliberation","","html-keyboard-response","59","193630","0.0-56.0-1.0","0","0","dhc9M","People","","554","","","","68","","","","0","45","33","1","-1","24","61","sarah-noltner-pL5ZzPp1zqg-unsplash.jpg","olena-sergienko-0TSd6uCKTKc-unsplash.jpg","1","1","45","33","","","","","","","","","","","","","","","","","","","","","","","","","","","",""
"","choice_confirmation","","html-keyboard-response","60","194140","0.0-56.0-2.0-0.0","0","0","dhc9M","People","","null","","","","null","","","","0","45","33","","","","","","","","","","","","","","","","","","","","","","","","","","","","","","","","","","","","","",""
"","explain_trial","","survey-text","61","204017","0.0-56.0-5.0-0.0","0","0","dhc9M","People","","9869","{""Q0"":""Faces good""}","","","","","","","0","45","33","","","","","","","","","","","{""Q0"":""Faces good""}","","","","","","","","","","","","","","","","","","","","","","","","","","",""
"","fixation","","html-keyboard-response","62","205029","0.0-57.0-0.0","0","0","dhc9M","People","","null","","","","null","","","","","","","","","","","","","","","","","","","","","","","","","","","","","","","","","","","","","","","","","","","",""
"","deliberation","","html-keyboard-response","63","207345","0.0-57.0-1.0","0","0","dhc9M","People","","2309","","","","75","","","","1","0","13","1","-1","41","76","abstral-official-cyOKLSgkgCE-unsplash.jpg","erik-lucatero-d2MSDujJl2g-unsplash.jpg","1","0","13","0","","","","","","","","","","","","","","","","","","","","","","","","","","","",""
"","choice_confirmation","","html-keyboard-response","64","207853","0.0-57.0-2.0-0.0","0","0","dhc9M","People","","null","","","","null","","","","1","0","13","","","","","","","","","","","","","","","","","","","","","","","","","","","","","","","","","","","","","",""
"","explain_trial","","survey-text","65","212176","0.0-57.0-5.0-0.0","0","0","dhc9M","People","","4317","{""Q0"":""Superb""}","","","","","","","1","0","13","","","","","","","","","","","{""Q0"":""Superb""}","","","","","","","","","","","","","","","","","","","","","","","","","","",""
"","fixation","","html-keyboard-response","66","213181","0.0-58.0-0.0","0","0","dhc9M","People","","null","","","","null","","","","","","","","","","","","","","","","","","","","","","","","","","","","","","","","","","","","","","","","","","","",""
"","deliberation","","html-keyboard-response","67","214410","0.0-58.0-1.0","0","0","dhc9M","People","","1225","","","","68","","","","2","16","37","0","-1","24","75","giano-currie-5-9YOsmf8IQ-unsplash.jpg","pavel-anoshin-d0peGya6R5Y-unsplash.jpg","1","1","16","37","","","","","","","","","","","","","","","","","","","","","","","","","","","",""
"","choice_confirmation","","html-keyboard-response","68","214918","0.0-58.0-2.0-0.0","0","0","dhc9M","People","","null","","","","null","","","","2","16","37","","","","","","","","","","","","","","","","","","","","","","","","","","","","","","","","","","","","","",""
"","fixation","","html-keyboard-response","69","215924","0.0-59.0-0.0","0","0","dhc9M","People","","null","","","","null","","","","","","","","","","","","","","","","","","","","","","","","","","","","","","","","","","","","","","","","","","","",""
"","deliberation","","html-keyboard-response","70","217299","0.0-59.0-1.0","0","0","dhc9M","People","","1369","","","","75","","","","3","24","23","1","1","73","63","joel-mott-LaK153ghdig-unsplash.jpg","joanna-nix-walkup-H4fEMshfwTE-unsplash.jpg","1","0","23","24","","","","","","","","","","","","","","","","","","","","","","","","","","","",""
"","choice_confirmation","","html-keyboard-response","71","217806","0.0-59.0-2.0-0.0","0","0","dhc9M","People","","null","","","","null","","","","3","24","23","","","","","","","","","","","","","","","","","","","","","","","","","","","","","","","","","","","","","",""
"","explain_trial","","survey-text","72","221865","0.0-59.0-5.0-0.0","0","0","dhc9M","People","","4052","{""Q0"":""Better""}","","","","","","","3","24","23","","","","","","","","","","","{""Q0"":""Better""}","","","","","","","","","","","","","","","","","","","","","","","","","","",""
"","fixation","","html-keyboard-response","73","222878","0.0-60.0-0.0","0","0","dhc9M","People","","null","","","","null","","","","","","","","","","","","","","","","","","","","","","","","","","","","","","","","","","","","","","","","","","","",""
"","deliberation","","html-keyboard-response","74","224903","0.0-60.0-1.0","0","0","dhc9M","People","","2019","","","","68","","","","4","46","3","0","1","61","73","stefan-stefancik-QXevDflbl8A-unsplash.jpg","art-hauntington-jzY0KRJopEI-unsplash.jpg","1","1","46","3","","","","","","","","","","","","","","","","","","","","","","","","","","","",""
"","choice_confirmation","","html-keyboard-response","75","225412","0.0-60.0-2.0-0.0","0","0","dhc9M","People","","null","","","","null","","","","4","46","3","","","","","","","","","","","","","","","","","","","","","","","","","","","","","","","","","","","","","",""
"","fixation","","html-keyboard-response","76","226424","0.0-61.0-0.0","0","0","dhc9M","People","","null","","","","null","","","","","","","","","","","","","","","","","","","","","","","","","","","","","","","","","","","","","","","","","","","",""
"","deliberation","","html-keyboard-response","77","227326","0.0-61.0-1.0","0","0","dhc9M","People","","896","","","","75","","","","5","34","9","1","1","75","70","oliver-johnson-1TUIcKob7Zs-unsplash.jpg","carlos-andres-gomez-vJuk8Y86mRw-unsplash.jpg","1","0","9","34","","","","","","","","","","","","","","","","","","","","","","","","","","","",""
"","choice_confirmation","","html-keyboard-response","78","227838","0.0-61.0-2.0-0.0","0","0","dhc9M","People","","null","","","","null","","","","5","34","9","","","","","","","","","","","","","","","","","","","","","","","","","","","","","","","","","","","","","",""
"","explain_trial","","survey-text","79","232906","0.0-61.0-5.0-0.0","0","0","dhc9M","People","","5061","{""Q0"":""The superb""}","","","","","","","5","34","9","","","","","","","","","","","{""Q0"":""The superb""}","","","","","","","","","","","","","","","","","","","","","","","","","","",""
"","fixation","","html-keyboard-response","80","233918","0.0-62.0-0.0","0","0","dhc9M","People","","null","","","","null","","","","","","","","","","","","","","","","","","","","","","","","","","","","","","","","","","","","","","","","","","","",""
"","deliberation","","html-keyboard-response","81","238294","0.0-62.0-1.0","0","0","dhc9M","People","","4366","","","","68","","","","6","12","32","1","1","72","76","daniel-rigdon-dXmXKPP2L4E-unsplash.jpg","nathan-dumlao-ger61_TX6oI-unsplash.jpg","1","1","12","32","","","","","","","","","","","","","","","","","","","","","","","","","","","",""
"","choice_confirmation","","html-keyboard-response","82","238805","0.0-62.0-2.0-0.0","0","0","dhc9M","People","","null","","","","null","","","","6","12","32","","","","","","","","","","","","","","","","","","","","","","","","","","","","","","","","","","","","","",""
"","explain_trial","","survey-text","83","244509","0.0-62.0-5.0-0.0","0","0","dhc9M","People","","5696","{""Q0"":""The best""}","","","","","","","6","12","32","","","","","","","","","","","{""Q0"":""The best""}","","","","","","","","","","","","","","","","","","","","","","","","","","",""
"","fixation","","html-keyboard-response","84","245518","0.0-63.0-0.0","0","0","dhc9M","People","","null","","","","null","","","","","","","","","","","","","","","","","","","","","","","","","","","","","","","","","","","","","","","","","","","",""
"","deliberation","","html-keyboard-response","85","247035","0.0-63.0-1.0","0","0","dhc9M","People","","1511","","","","75","","","","7","7","8","0","-1","75","66","brooke-cagle-HRZUzoX1e6w-unsplash.jpg","bruce-dixon-3M9WJQVHzog-unsplash.jpg","1","0","8","7","","","","","","","","","","","","","","","","","","","","","","","","","","","",""
"","choice_confirmation","","html-keyboard-response","86","247542","0.0-63.0-2.0-0.0","0","0","dhc9M","People","","null","","","","null","","","","7","7","8","","","","","","","","","","","","","","","","","","","","","","","","","","","","","","","","","","","","","",""
"","fixation","","html-keyboard-response","87","248550","0.0-64.0-0.0","0","0","dhc9M","People","","null","","","","null","","","","","","","","","","","","","","","","","","","","","","","","","","","","","","","","","","","","","","","","","","","",""
"","deliberation","","html-keyboard-response","88","249362","0.0-64.0-1.0","0","0","dhc9M","People","","803","","","","68","","","","8","20","35","1","1","50","27","houcine-ncib-B4TjXnI0Y2c-unsplash.jpg","oliver-ragfelt-khV4fTy6-D8-unsplash.jpg","1","1","20","35","","","","","","","","","","","","","","","","","","","","","","","","","","","",""
"","choice_confirmation","","html-keyboard-response","89","249868","0.0-64.0-2.0-0.0","0","0","dhc9M","People","","null","","","","null","","","","8","20","35","","","","","","","","","","","","","","","","","","","","","","","","","","","","","","","","","","","","","",""
"","explain_trial","","survey-text","90","255519","0.0-64.0-5.0-0.0","0","0","dhc9M","People","","5645","{""Q0"":""Beauty""}","","","","","","","8","20","35","","","","","","","","","","","{""Q0"":""Beauty""}","","","","","","","","","","","","","","","","","","","","","","","","","","",""
"","fixation","","html-keyboard-response","91","256528","0.0-65.0-0.0","0","0","dhc9M","People","","null","","","","null","","","","","","","","","","","","","","","","","","","","","","","","","","","","","","","","","","","","","","","","","","","",""
"","deliberation","","html-keyboard-response","92","257831","0.0-65.0-1.0","0","0","dhc9M","People","","1293","","","","75","","","","9","19","28","0","-1","50","26","ha-nguy-n-OFSQ6bHjFjs-unsplash.jpg","justin-chen-J7Cf1Gch49E-unsplash.jpg","1","0","28","19","","","","","","","","","","","","","","","","","","","","","","","","","","","",""
"","choice_confirmation","","html-keyboard-response","93","258339","0.0-65.0-2.0-0.0","0","0","dhc9M","People","","null","","","","null","","","","9","19","28","","","","","","","","","","","","","","","","","","","","","","","","","","","","","","","","","","","","","",""
"","fixation","","html-keyboard-response","94","259351","0.0-66.0-0.0","0","0","dhc9M","People","","null","","","","null","","","","","","","","","","","","","","","","","","","","","","","","","","","","","","","","","","","","","","","","","","","",""
"","deliberation","","html-keyboard-response","95","260334","0.0-66.0-1.0","0","0","dhc9M","People","","977","","","","75","","","","10","29","48","0","1","30","32","leilani-angel-K84vnnzxmTQ-unsplash.jpg","velizar-ivanov-7ktP9yZA1g4-unsplash.jpg","1","0","48","29","","","","","","","","","","","","","","","","","","","","","","","","","","","",""
"","choice_confirmation","","html-keyboard-response","96","260845","0.0-66.0-2.0-0.0","0","0","dhc9M","People","","null","","","","null","","","","10","29","48","","","","","","","","","","","","","","","","","","","","","","","","","","","","","","","","","","","","","",""
"","fixation","","html-keyboard-response","97","261854","0.0-67.0-0.0","0","0","dhc9M","People","","null","","","","null","","","","","","","","","","","","","","","","","","","","","","","","","","","","","","","","","","","","","","","","","","","",""
"","deliberation","","html-keyboard-response","98","264134","0.0-67.0-1.0","0","0","dhc9M","People","","2274","","","","75","","","","11","41","1","0","-1","31","29","prince-akachi-i2hoD-C2RUA-unsplash.jpg","aiony-haust-jmATI5Q_YgY-unsplash.jpg","1","0","1","41","","","","","","","","","","","","","","","","","","","","","","","","","","","",""
"","choice_confirmation","","html-keyboard-response","99","264646","0.0-67.0-2.0-0.0","0","0","dhc9M","People","","null","","","","null","","","","11","41","1","","","","","","","","","","","","","","","","","","","","","","","","","","","","","","","","","","","","","",""
"","practice_deliberation_again","","html-keyboard-response","100","267369","0.0-67.0-6.0-0.0","0","0","dhc9M","People","","2718","","","","78","","","","","","","","","","","","","","","","","","","","","","","","","","","","","","","","","","","","","","","","","","","",""
"","fixation","","html-keyboard-response","101","268374","0.0-68.0-0.0","0","0","dhc9M","People","","null","","","","null","","","","","","","","","","","","","","","","","","","","","","","","","","","","","","","","","","","","","","","","","","","",""
"","deliberation","","html-keyboard-response","102","268897","0.0-68.0-1.0","0","0","dhc9M","People","","515","","","","68","","","","12","19","28","1","-1","50","26","ha-nguy-n-OFSQ6bHjFjs-unsplash.jpg","justin-chen-J7Cf1Gch49E-unsplash.jpg","2","1","19","28","","","","","","","","","","","","","","","","","","","","","","","","","","","",""
"","choice_confirmation","","html-keyboard-response","103","269405","0.0-68.0-2.0-0.0","0","0","dhc9M","People","","null","","","","null","","","","12","19","28","","","","","","","","","","","","","","","","","","","","","","","","","","","","","","","","","","","","","",""
"","explain_trial","","survey-text","104","274401","0.0-68.0-5.0-0.0","0","0","dhc9M","People","","4990","{""Q0"":""Superb face""}","","","","","","","12","19","28","","","","","","","","","","","{""Q0"":""Superb face""}","","","","","","","","","","","","","","","","","","","","","","","","","","",""
"","fixation","","html-keyboard-response","105","275406","0.0-69.0-0.0","0","0","dhc9M","People","","null","","","","null","","","","","","","","","","","","","","","","","","","","","","","","","","","","","","","","","","","","","","","","","","","",""
"","deliberation","","html-keyboard-response","106","276016","0.0-69.0-1.0","0","0","dhc9M","People","","605","","","","75","","","","13","0","13","0","-1","41","76","abstral-official-cyOKLSgkgCE-unsplash.jpg","erik-lucatero-d2MSDujJl2g-unsplash.jpg","2","0","13","0","","","","","","","","","","","","","","","","","","","","","","","","","","","",""
"","choice_confirmation","","html-keyboard-response","107","276525","0.0-69.0-2.0-0.0","0","0","dhc9M","People","","null","","","","null","","","","13","0","13","","","","","","","","","","","","","","","","","","","","","","","","","","","","","","","","","","","","","",""
"","fixation","","html-keyboard-response","108","277541","0.0-70.0-0.0","0","0","dhc9M","People","","null","","","","null","","","","","","","","","","","","","","","","","","","","","","","","","","","","","","","","","","","","","","","","","","","",""
"","deliberation","","html-keyboard-response","109","279882","0.0-70.0-1.0","0","0","dhc9M","People","","2332","","","","75","","","","14","34","9","0","1","75","70","oliver-johnson-1TUIcKob7Zs-unsplash.jpg","carlos-andres-gomez-vJuk8Y86mRw-unsplash.jpg","2","0","9","34","","","","","","","","","","","","","","","","","","","","","","","","","","","",""
"","choice_confirmation","","html-keyboard-response","110","280389","0.0-70.0-2.0-0.0","0","0","dhc9M","People","","null","","","","null","","","","14","34","9","","","","","","","","","","","","","","","","","","","","","","","","","","","","","","","","","","","","","",""
"","fixation","","html-keyboard-response","111","281399","0.0-71.0-0.0","0","0","dhc9M","People","","null","","","","null","","","","","","","","","","","","","","","","","","","","","","","","","","","","","","","","","","","","","","","","","","","",""
"","deliberation","","html-keyboard-response","112","282106","0.0-71.0-1.0","0","0","dhc9M","People","","701","","","","75","","","","15","45","33","0","-1","24","61","sarah-noltner-pL5ZzPp1zqg-unsplash.jpg","olena-sergienko-0TSd6uCKTKc-unsplash.jpg","2","0","33","45","","","","","","","","","","","","","","","","","","","","","","","","","","","",""
"","choice_confirmation","","html-keyboard-response","113","282615","0.0-71.0-2.0-0.0","0","0","dhc9M","People","","null","","","","null","","","","15","45","33","","","","","","","","","","","","","","","","","","","","","","","","","","","","","","","","","","","","","",""
"","fixation","","html-keyboard-response","114","283621","0.0-72.0-0.0","0","0","dhc9M","People","","null","","","","null","","","","","","","","","","","","","","","","","","","","","","","","","","","","","","","","","","","","","","","","","","","",""
"","deliberation","","html-keyboard-response","115","284217","0.0-72.0-1.0","0","0","dhc9M","People","","591","","","","68","","","","16","41","1","1","-1","31","29","prince-akachi-i2hoD-C2RUA-unsplash.jpg","aiony-haust-jmATI5Q_YgY-unsplash.jpg","2","1","41","1","","","","","","","","","","","","","","","","","","","","","","","","","","","",""
"","choice_confirmation","","html-keyboard-response","116","284725","0.0-72.0-2.0-0.0","0","0","dhc9M","People","","null","","","","null","","","","16","41","1","","","","","","","","","","","","","","","","","","","","","","","","","","","","","","","","","","","","","",""
"","explain_trial","","survey-text","117","287939","0.0-72.0-5.0-0.0","0","0","dhc9M","People","","3205","{""Q0"":""Black""}","","","","","","","16","41","1","","","","","","","","","","","{""Q0"":""Black""}","","","","","","","","","","","","","","","","","","","","","","","","","","",""
"","fixation","","html-keyboard-response","118","288951","0.0-73.0-0.0","0","0","dhc9M","People","","null","","","","null","","","","","","","","","","","","","","","","","","","","","","","","","","","","","","","","","","","","","","","","","","","",""
"","deliberation","","html-keyboard-response","119","289992","0.0-73.0-1.0","0","0","dhc9M","People","","1033","","","","75","","","","17","7","8","1","-1","75","66","brooke-cagle-HRZUzoX1e6w-unsplash.jpg","bruce-dixon-3M9WJQVHzog-unsplash.jpg","2","0","8","7","","","","","","","","","","","","","","","","","","","","","","","","","","","",""
"","choice_confirmation","","html-keyboard-response","120","290501","0.0-73.0-2.0-0.0","0","0","dhc9M","People","","null","","","","null","","","","17","7","8","","","","","","","","","","","","","","","","","","","","","","","","","","","","","","","","","","","","","",""
"","explain_trial","","survey-text","121","293249","0.0-73.0-5.0-0.0","0","0","dhc9M","People","","2743","{""Q0"":""GFood""}","","","","","","","17","7","8","","","","","","","","","","","{""Q0"":""GFood""}","","","","","","","","","","","","","","","","","","","","","","","","","","",""
"","fixation","","html-keyboard-response","122","294253","0.0-74.0-0.0","0","0","dhc9M","People","","null","","","","null","","","","","","","","","","","","","","","","","","","","","","","","","","","","","","","","","","","","","","","","","","","",""
"","deliberation","","html-keyboard-response","123","294941","0.0-74.0-1.0","0","0","dhc9M","People","","682","","","","75","","","","18","29","48","1","1","30","32","leilani-angel-K84vnnzxmTQ-unsplash.jpg","velizar-ivanov-7ktP9yZA1g4-unsplash.jpg","2","0","48","29","","","","","","","","","","","","","","","","","","","","","","","","","","","",""
"","choice_confirmation","","html-keyboard-response","124","295445","0.0-74.0-2.0-0.0","0","0","dhc9M","People","","null","","","","null","","","","18","29","48","","","","","","","","","","","","","","","","","","","","","","","","","","","","","","","","","","","","","",""
"","explain_trial","","survey-text","125","298756","0.0-74.0-5.0-0.0","0","0","dhc9M","People","","3307","{""Q0"":""Beautry""}","","","","","","","18","29","48","","","","","","","","","","","{""Q0"":""Beautry""}","","","","","","","","","","","","","","","","","","","","","","","","","","",""
"","fixation","","html-keyboard-response","126","299765","0.0-75.0-0.0","0","0","dhc9M","People","","null","","","","null","","","","","","","","","","","","","","","","","","","","","","","","","","","","","","","","","","","","","","","","","","","",""
"","deliberation","","html-keyboard-response","127","300461","0.0-75.0-1.0","0","0","dhc9M","People","","691","","","","75","","","","19","46","3","1","1","61","73","stefan-stefancik-QXevDflbl8A-unsplash.jpg","art-hauntington-jzY0KRJopEI-unsplash.jpg","2","0","3","46","","","","","","","","","","","","","","","","","","","","","","","","","","","",""
"","choice_confirmation","","html-keyboard-response","128","300964","0.0-75.0-2.0-0.0","0","0","dhc9M","People","","null","","","","null","","","","19","46","3","","","","","","","","","","","","","","","","","","","","","","","","","","","","","","","","","","","","","",""
"","explain_trial","","survey-text","129","305972","0.0-75.0-5.0-0.0","0","0","dhc9M","People","","5002","{""Q0"":""Dell""}","","","","","","","19","46","3","","","","","","","","","","","{""Q0"":""Dell""}","","","","","","","","","","","","","","","","","","","","","","","","","","",""
"","fixation","","html-keyboard-response","130","306984","0.0-76.0-0.0","0","0","dhc9M","People","","null","","","","null","","","","","","","","","","","","","","","","","","","","","","","","","","","","","","","","","","","","","","","","","","","",""
"","deliberation","","html-keyboard-response","131","307887","0.0-76.0-1.0","0","0","dhc9M","People","","898","","","","75","","","","20","12","32","0","1","72","76","daniel-rigdon-dXmXKPP2L4E-unsplash.jpg","nathan-dumlao-ger61_TX6oI-unsplash.jpg","2","0","32","12","","","","","","","","","","","","","","","","","","","","","","","","","","","",""
"","choice_confirmation","","html-keyboard-response","132","308397","0.0-76.0-2.0-0.0","0","0","dhc9M","People","","null","","","","null","","","","20","12","32","","","","","","","","","","","","","","","","","","","","","","","","","","","","","","","","","","","","","",""
"","fixation","","html-keyboard-response","133","309406","0.0-77.0-0.0","0","0","dhc9M","People","","null","","","","null","","","","","","","","","","","","","","","","","","","","","","","","","","","","","","","","","","","","","","","","","","","",""
"","deliberation","","html-keyboard-response","134","310034","0.0-77.0-1.0","0","0","dhc9M","People","","625","","","","68","","","","21","16","37","1","-1","24","75","giano-currie-5-9YOsmf8IQ-unsplash.jpg","pavel-anoshin-d0peGya6R5Y-unsplash.jpg","2","1","16","37","","","","","","","","","","","","","","","","","","","","","","","","","","","",""
"","choice_confirmation","","html-keyboard-response","135","310540","0.0-77.0-2.0-0.0","0","0","dhc9M","People","","null","","","","null","","","","21","16","37","","","","","","","","","","","","","","","","","","","","","","","","","","","","","","","","","","","","","",""
"","explain_trial","","survey-text","136","315095","0.0-77.0-5.0-0.0","0","0","dhc9M","People","","4550","{""Q0"":""wOv""}","","","","","","","21","16","37","","","","","","","","","","","{""Q0"":""wOv""}","","","","","","","","","","","","","","","","","","","","","","","","","","",""
"","fixation","","html-keyboard-response","137","316102","0.0-78.0-0.0","0","0","dhc9M","People","","null","","","","null","","","","","","","","","","","","","","","","","","","","","","","","","","","","","","","","","","","","","","","","","","","",""
"","deliberation","","html-keyboard-response","138","326118","0.0-78.0-1.0","0","0","dhc9M","People","","null","","","","null","","","","22","20","35","0","1","50","27","houcine-ncib-B4TjXnI0Y2c-unsplash.jpg","oliver-ragfelt-khV4fTy6-D8-unsplash.jpg","2","","","","","","","","","","","","","","","","","","","","","","","","","","","","","","",""
"","deliberation_too_slow","","html-keyboard-response","139","327630","0.0-78.0-4.0-0.0","1","0","dhc9M","People","","null","","","","null","","","","22","","","","","","","","","","","","","","","","","","","","","","","","","","","","","","","","","","","","","","","",""
"","fixation","","html-keyboard-response","140","328646","0.0-78.1-0.1","0","0","dhc9M","People","","null","","","","null","","","","","","","","","","","","","","","","","","","","","","","","","","","","","","","","","","","","","","","","","","","",""
"","deliberation","","html-keyboard-response","141","328693","0.0-78.1-1.1","0","0","dhc9M","People","","42","","","","75","","","","22","20","35","0","1","50","27","houcine-ncib-B4TjXnI0Y2c-unsplash.jpg","oliver-ragfelt-khV4fTy6-D8-unsplash.jpg","2","0","35","20","","","","","","","","","","","","","","","","","","","","","","","","","","","",""
"","choice_confirmation","","html-keyboard-response","142","329201","0.0-78.1-2.1-0.1","0","0","dhc9M","People","","null","","","","null","","","","22","20","35","","","","","","","","","","","","","","","","","","","","","","","","","","","","","","","","","","","","","",""
"","deliberation_too_fast","","html-keyboard-response","143","330709","0.0-78.1-3.1-0.1","1","0","dhc9M","People","","null","","","","null","","","","22","","","","","","","","","","","","","","","","","","","","","","","","","","","","","","","","","","","","","","","",""
"","fixation","","html-keyboard-response","144","331725","0.0-79.0-0.0","0","0","dhc9M","People","","null","","","","null","","","","","","","","","","","","","","","","","","","","","","","","","","","","","","","","","","","","","","","","","","","",""
"","deliberation","","html-keyboard-response","145","332237","0.0-79.0-1.0","0","0","dhc9M","People","","509","","","","68","","","","23","24","23","0","1","73","63","joel-mott-LaK153ghdig-unsplash.jpg","joanna-nix-walkup-H4fEMshfwTE-unsplash.jpg","2","1","24","23","","","","","","","","","","","","","","","","","","","","","","","","","","","",""
"","choice_confirmation","","html-keyboard-response","146","332743","0.0-79.0-2.0-0.0","0","0","dhc9M","People","","null","","","","null","","","","23","24","23","","","","","","","","","","","","","","","","","","","","","","","","","","","","","","","","","","","","","",""
"","start_critical_deliberation_block","","html-keyboard-response","147","334941","0.0-79.0-7.0-0.0","0","0","dhc9M","People","","2193","","","","78","","","","","","","","","","","","","","","","","","","","","","","","","","","","","","","","","","","","","","","","","","","",""
"","fixation","","html-keyboard-response","148","335950","0.0-80.0-0.0","0","0","dhc9M","People","","null","","","","null","","","","","","","","","","","","","","","","","","","","","","","","","","","","","","","","","","","","","","","","","","","",""
"","deliberation","","html-keyboard-response","149","336686","0.0-80.0-1.0","0","0","dhc9M","People","","730","","","","75","","","","24","0","13","0","-1","41","76","abstral-official-cyOKLSgkgCE-unsplash.jpg","erik-lucatero-d2MSDujJl2g-unsplash.jpg","3","0","13","0","","","","","","","","","","","","","","","","","","","","","","","","","","","",""
"","choice_confirmation","","html-keyboard-response","150","337188","0.0-80.0-2.0-0.0","0","0","dhc9M","People","","null","","","","null","","","","24","0","13","","","","","","","","","","","","","","","","","","","","","","","","","","","","","","","","","","","","","",""
"","fixation","","html-keyboard-response","151","338198","0.0-81.0-0.0","0","0","dhc9M","People","","null","","","","null","","","","","","","","","","","","","","","","","","","","","","","","","","","","","","","","","","","","","","","","","","","",""
"","deliberation","","html-keyboard-response","152","338744","0.0-81.0-1.0","0","0","dhc9M","People","","541","","","","75","","","","25","46","3","0","1","61","73","stefan-stefancik-QXevDflbl8A-unsplash.jpg","art-hauntington-jzY0KRJopEI-unsplash.jpg","3","0","3","46","","","","","","","","","","","","","","","","","","","","","","","","","","","",""
"","choice_confirmation","","html-keyboard-response","153","339252","0.0-81.0-2.0-0.0","0","0","dhc9M","People","","null","","","","null","","","","25","46","3","","","","","","","","","","","","","","","","","","","","","","","","","","","","","","","","","","","","","",""
"","fixation","","html-keyboard-response","154","340263","0.0-82.0-0.0","0","0","dhc9M","People","","null","","","","null","","","","","","","","","","","","","","","","","","","","","","","","","","","","","","","","","","","","","","","","","","","",""
"","deliberation","","html-keyboard-response","155","341336","0.0-82.0-1.0","0","0","dhc9M","People","","1070","","","","75","","","","26","45","33","0","-1","24","61","sarah-noltner-pL5ZzPp1zqg-unsplash.jpg","olena-sergienko-0TSd6uCKTKc-unsplash.jpg","3","0","33","45","","","","","","","","","","","","","","","","","","","","","","","","","","","",""
"","choice_confirmation","","html-keyboard-response","156","341845","0.0-82.0-2.0-0.0","0","0","dhc9M","People","","null","","","","null","","","","26","45","33","","","","","","","","","","","","","","","","","","","","","","","","","","","","","","","","","","","","","",""
"","fixation","","html-keyboard-response","157","342852","0.0-83.0-0.0","0","0","dhc9M","People","","null","","","","null","","","","","","","","","","","","","","","","","","","","","","","","","","","","","","","","","","","","","","","","","","","",""
"","deliberation","","html-keyboard-response","158","343634","0.0-83.0-1.0","0","0","dhc9M","People","","777","","","","68","","","","27","24","23","0","1","73","63","joel-mott-LaK153ghdig-unsplash.jpg","joanna-nix-walkup-H4fEMshfwTE-unsplash.jpg","3","1","24","23","","","","","","","","","","","","","","","","","","","","","","","","","","","",""
"","choice_confirmation","","html-keyboard-response","159","344141","0.0-83.0-2.0-0.0","0","0","dhc9M","People","","null","","","","null","","","","27","24","23","","","","","","","","","","","","","","","","","","","","","","","","","","","","","","","","","","","","","",""
"","fixation","","html-keyboard-response","160","345148","0.0-84.0-0.0","0","0","dhc9M","People","","null","","","","null","","","","","","","","","","","","","","","","","","","","","","","","","","","","","","","","","","","","","","","","","","","",""
"","deliberation","","html-keyboard-response","161","346008","0.0-84.0-1.0","0","0","dhc9M","People","","857","","","","75","","","","28","19","28","0","-1","50","26","ha-nguy-n-OFSQ6bHjFjs-unsplash.jpg","justin-chen-J7Cf1Gch49E-unsplash.jpg","3","0","28","19","","","","","","","","","","","","","","","","","","","","","","","","","","","",""
"","choice_confirmation","","html-keyboard-response","162","346516","0.0-84.0-2.0-0.0","0","0","dhc9M","People","","null","","","","null","","","","28","19","28","","","","","","","","","","","","","","","","","","","","","","","","","","","","","","","","","","","","","",""
"","fixation","","html-keyboard-response","163","347525","0.0-85.0-0.0","0","0","dhc9M","People","","null","","","","null","","","","","","","","","","","","","","","","","","","","","","","","","","","","","","","","","","","","","","","","","","","",""
"","deliberation","","html-keyboard-response","164","348396","0.0-85.0-1.0","0","0","dhc9M","People","","868","","","","68","","","","29","41","1","0","-1","31","29","prince-akachi-i2hoD-C2RUA-unsplash.jpg","aiony-haust-jmATI5Q_YgY-unsplash.jpg","3","1","41","1","","","","","","","","","","","","","","","","","","","","","","","","","","","",""
"","choice_confirmation","","html-keyboard-response","165","348902","0.0-85.0-2.0-0.0","0","0","dhc9M","People","","null","","","","null","","","","29","41","1","","","","","","","","","","","","","","","","","","","","","","","","","","","","","","","","","","","","","",""
"","fixation","","html-keyboard-response","166","349908","0.0-86.0-0.0","0","0","dhc9M","People","","null","","","","null","","","","","","","","","","","","","","","","","","","","","","","","","","","","","","","","","","","","","","","","","","","",""
"","deliberation","","html-keyboard-response","167","350734","0.0-86.0-1.0","0","0","dhc9M","People","","821","","","","75","","","","30","29","48","0","1","30","32","leilani-angel-K84vnnzxmTQ-unsplash.jpg","velizar-ivanov-7ktP9yZA1g4-unsplash.jpg","3","0","48","29","","","","","","","","","","","","","","","","","","","","","","","","","","","",""
"","choice_confirmation","","html-keyboard-response","168","351246","0.0-86.0-2.0-0.0","0","0","dhc9M","People","","null","","","","null","","","","30","29","48","","","","","","","","","","","","","","","","","","","","","","","","","","","","","","","","","","","","","",""
"","fixation","","html-keyboard-response","169","352255","0.0-87.0-0.0","0","0","dhc9M","People","","null","","","","null","","","","","","","","","","","","","","","","","","","","","","","","","","","","","","","","","","","","","","","","","","","",""
"","deliberation","","html-keyboard-response","170","353452","0.0-87.0-1.0","0","0","dhc9M","People","","1189","","","","68","","","","31","34","9","0","1","75","70","oliver-johnson-1TUIcKob7Zs-unsplash.jpg","carlos-andres-gomez-vJuk8Y86mRw-unsplash.jpg","3","1","34","9","","","","","","","","","","","","","","","","","","","","","","","","","","","",""
"","choice_confirmation","","html-keyboard-response","171","353959","0.0-87.0-2.0-0.0","0","0","dhc9M","People","","null","","","","null","","","","31","34","9","","","","","","","","","","","","","","","","","","","","","","","","","","","","","","","","","","","","","",""
"","fixation","","html-keyboard-response","172","354965","0.0-88.0-0.0","0","0","dhc9M","People","","null","","","","null","","","","","","","","","","","","","","","","","","","","","","","","","","","","","","","","","","","","","","","","","","","",""
"","deliberation","","html-keyboard-response","173","357425","0.0-88.0-1.0","0","0","dhc9M","People","","2455","","","","75","","","","32","12","32","0","1","72","76","daniel-rigdon-dXmXKPP2L4E-unsplash.jpg","nathan-dumlao-ger61_TX6oI-unsplash.jpg","3","0","32","12","","","","","","","","","","","","","","","","","","","","","","","","","","","",""
"","choice_confirmation","","html-keyboard-response","174","357939","0.0-88.0-2.0-0.0","0","0","dhc9M","People","","null","","","","null","","","","32","12","32","","","","","","","","","","","","","","","","","","","","","","","","","","","","","","","","","","","","","",""
"","fixation","","html-keyboard-response","175","358948","0.0-89.0-0.0","0","0","dhc9M","People","","null","","","","null","","","","","","","","","","","","","","","","","","","","","","","","","","","","","","","","","","","","","","","","","","","",""
"","deliberation","","html-keyboard-response","176","360139","0.0-89.0-1.0","0","0","dhc9M","People","","1186","","","","68","","","","33","20","35","0","1","50","27","houcine-ncib-B4TjXnI0Y2c-unsplash.jpg","oliver-ragfelt-khV4fTy6-D8-unsplash.jpg","3","1","20","35","","","","","","","","","","","","","","","","","","","","","","","","","","","",""
"","choice_confirmation","","html-keyboard-response","177","360647","0.0-89.0-2.0-0.0","0","0","dhc9M","People","","null","","","","null","","","","33","20","35","","","","","","","","","","","","","","","","","","","","","","","","","","","","","","","","","","","","","",""
"","fixation","","html-keyboard-response","178","361653","0.0-90.0-0.0","0","0","dhc9M","People","","null","","","","null","","","","","","","","","","","","","","","","","","","","","","","","","","","","","","","","","","","","","","","","","","","",""
"","deliberation","","html-keyboard-response","179","362411","0.0-90.0-1.0","0","0","dhc9M","People","","755","","","","75","","","","34","7","8","0","-1","75","66","brooke-cagle-HRZUzoX1e6w-unsplash.jpg","bruce-dixon-3M9WJQVHzog-unsplash.jpg","3","0","8","7","","","","","","","","","","","","","","","","","","","","","","","","","","","",""
"","choice_confirmation","","html-keyboard-response","180","362915","0.0-90.0-2.0-0.0","0","0","dhc9M","People","","null","","","","null","","","","34","7","8","","","","","","","","","","","","","","","","","","","","","","","","","","","","","","","","","","","","","",""
"","fixation","","html-keyboard-response","181","363932","0.0-91.0-0.0","0","0","dhc9M","People","","null","","","","null","","","","","","","","","","","","","","","","","","","","","","","","","","","","","","","","","","","","","","","","","","","",""
"","deliberation","","html-keyboard-response","182","364569","0.0-91.0-1.0","0","0","dhc9M","People","","632","","","","75","","","","35","16","37","0","-1","24","75","giano-currie-5-9YOsmf8IQ-unsplash.jpg","pavel-anoshin-d0peGya6R5Y-unsplash.jpg","3","0","37","16","","","","","","","","","","","","","","","","","","","","","","","","","","","",""
"","choice_confirmation","","html-keyboard-response","183","365101","0.0-91.0-2.0-0.0","0","0","dhc9M","People","","null","","","","null","","","","35","16","37","","","","","","","","","","","","","","","","","","","","","","","","","","","","","","","","","","","","","",""
"","reward_learning_instructions","","instructions","184","375523","0.0-92.0-0.0","0","0","dhc9M","People","[{""page_index"":0,""viewing_time"":6227},{""page_index"":1,""viewing_time"":1915},{""page_index"":2,""viewing_time"":2271}]","10414","","","","","","","","","","","","","","","","","","","","","","","","","","","","","","","","","","","","","","","","","","","","","","","",""
"","","","survey-multi-choice","185","381256","0.0-92.0-1.0","0","0","dhc9M","People","","5716","{""Q0"":""True"",""Q1"":""True"",""Q2"":""Press the space bar to see its outcome"",""Q3"":""Just look at it""}","reward_comprehension_check","1","","","","","","","","","","","","","","","","","","","","","","","","","","","","","","","","","","","","","","","","","","","","",""
"","missed_instruction_checkup","","html-keyboard-response","186","384245","0.0-92.0-2.0-0.0","0","1","dhc9M","People","","2979","","","","78","","","","","","","","","","","","","","","","","","","","","","","","","","","","","","","","","","","","","","","","","","","",""
"","reward_learning_instructions","","instructions","187","391423","0.0-92.1-0.1","0","0","dhc9M","People","[{""page_index"":0,""viewing_time"":3072},{""page_index"":1,""viewing_time"":2330},{""page_index"":2,""viewing_time"":1766}]","7171","","","","","","","","","","","","","","","","","","","","","","","","","","","","","","","","","","","","","","","","","","","","","","","",""
"","","","survey-multi-choice","188","397962","0.0-92.1-1.1","0","0","dhc9M","People","","6522","{""Q0"":""True"",""Q1"":""True"",""Q2"":""Just look at it"",""Q3"":""Just look at it""}","reward_comprehension_check","1","","","","","","","","","","","","","","","","","","","","","","","","","","","","","","","","","","","","","","","","","","","","",""
"","missed_instruction_checkup","","html-keyboard-response","189","400631","0.0-92.1-2.1-0.1","0","1","dhc9M","People","","2662","","","","78","","","","","","","","","","","","","","","","","","","","","","","","","","","","","","","","","","","","","","","","","","","",""
"","reward_learning_instructions","","instructions","190","417930","0.0-92.2-0.2","0","0","dhc9M","People","[{""page_index"":0,""viewing_time"":5941},{""page_index"":1,""viewing_time"":9366},{""page_index"":2,""viewing_time"":1985}]","17294","","","","","","","","","","","","","","","","","","","","","","","","","","","","","","","","","","","","","","","","","","","","","","","",""
"","","","survey-multi-choice","191","427709","0.0-92.2-1.2","0","0","dhc9M","People","","9761","{""Q0"":""True"",""Q1"":""True"",""Q2"":""Press the space bar to see its outcome"",""Q3"":""Press the relevant key while the outcome is presented""}","reward_comprehension_check","0","","","","","","","","","","","","","","","","","","","","","","","","","","","","","","","","","","","","","","","","","","","","",""
"","start_phase","","html-keyboard-response","192","429713","0.0-93.0","0","0","dhc9M","People","","1992","","","","78","","","","","","","","","","","","","","","","","","","","","","","","","","","","","","","","","","","","","","","","","","","",""
"","fixation","","html-keyboard-response","193","430718","0.0-94.0","0","0","dhc9M","People","","null","","","","null","","","","","","","","","","","","","","","","","","","","","","","","","","","","","","","","","","","","","","","","","","","",""
"","see_reward","","html-keyboard-response","194","432997","0.0-95.0","0","0","dhc9M","People","","2271","","","","32","","13","","0","","","","-1","","","","","1","","","","","0","2271","","","","","","","","","","","","","","","","","","","","","","","","",""
"","reward_outcome","","html-keyboard-response","195","435008","0.0-96.0","0","0","dhc9M","People","","null","","","","null","","13","","0","","","","","","","","","","","","","","","","NaN","null","","","","","","","","","","","","","","","","","","","","","","",""
"","respond_faster","","html-keyboard-response","196","436518","0.0-97.0-0.0","1","0","dhc9M","People","","null","","","","null","","","","","","","","","","","","","","","","","","","","","","","","","","","","","","","","","","","","","","","","","","","",""
"","fixation","","html-keyboard-response","197","437525","0.0-99.0","0","0","dhc9M","People","","null","","","","null","","","","","","","","","","","","","","","","","","","","","","","","","","","","","","","","","","","","","","","","","","","",""
"","see_reward","","html-keyboard-response","198","438030","0.0-100.0","0","0","dhc9M","People","","502","","","","32","","13","","1","","","","-1","","","","","1","","","","","0","502","","","","","","","","","","","","","","","","","","","","","","","","",""
"","reward_outcome","","html-keyboard-response","199","440040","0.0-101.0","0","0","dhc9M","People","","null","","","","null","","13","","1","","","","","","","","","","","","","","","","NaN","null","","","","","","","","","","","","","","","","","","","","","","",""
"","respond_faster","","html-keyboard-response","200","441552","0.0-102.0-0.0","1","0","dhc9M","People","","null","","","","null","","","","","","","","","","","","","","","","","","","","","","","","","","","","","","","","","","","","","","","","","","","",""
"","fixation","","html-keyboard-response","201","442557","0.0-104.0","0","0","dhc9M","People","","null","","","","null","","","","","","","","","","","","","","","","","","","","","","","","","","","","","","","","","","","","","","","","","","","",""
"","see_reward","","html-keyboard-response","202","443405","0.0-105.0","0","0","dhc9M","People","","843","","","","32","","34","","2","","","","1","","","","","1","","","","","157","843","","","","","","","","","","","","","","","","","","","","","","","","",""
"","reward_outcome","","html-keyboard-response","203","445410","0.0-106.0","0","0","dhc9M","People","","111","","","","38","","34","","2","","","","","","","","","","","","","","","","1","111","","","","","","","","","","","","","","","","","","","","","","",""
"","fixation","","html-keyboard-response","204","446422","0.0-109.0","0","0","dhc9M","People","","null","","","","null","","","","","","","","","","","","","","","","","","","","","","","","","","","","","","","","","","","","","","","","","","","",""
"","see_reward","","html-keyboard-response","205","446917","0.0-110.0","0","0","dhc9M","People","","490","","","","32","","34","","3","","","","1","","","","","1","","","","","157","490","","","","","","","","","","","","","","","","","","","","","","","","",""
"","reward_outcome","","html-keyboard-response","206","448928","0.0-111.0","0","0","dhc9M","People","","8","","","","40","","34","","3","","","","","","","","","","","","","","","","-1","8","","","","","","","","","","","","","","","","","","","","","","",""
"","fixation","","html-keyboard-response","207","449934","0.0-114.0","0","0","dhc9M","People","","null","","","","null","","","","","","","","","","","","","","","","","","","","","","","","","","","","","","","","","","","","","","","","","","","",""
"","see_reward","","html-keyboard-response","208","450465","0.0-115.0","0","0","dhc9M","People","","525","","","","32","","33","","4","","","","-1","","","","","1","","","","","0","525","","","","","","","","","","","","","","","","","","","","","","","","",""
"","reward_outcome","","html-keyboard-response","209","452471","0.0-116.0","0","0","dhc9M","People","","113","","","","38","","33","","4","","","","","","","","","","","","","","","","1","113","","","","","","","","","","","","","","","","","","","","","","",""
"","fixation","","html-keyboard-response","210","453478","0.0-119.0","0","0","dhc9M","People","","null","","","","null","","","","","","","","","","","","","","","","","","","","","","","","","","","","","","","","","","","","","","","","","","","",""
"","see_reward","","html-keyboard-response","211","453498","0.0-120.0","0","0","dhc9M","People","","15","","","","32","","20","","5","","","","1","","","","","1","","","","","142","15","","","","","","","","","","","","","","","","","","","","","","","","",""
"","reward_outcome","","html-keyboard-response","212","455512","0.0-121.0","0","0","dhc9M","People","","6","","","","40","","20","","5","","","","","","","","","","","","","","","","-1","6","","","","","","","","","","","","","","","","","","","","","","",""
"","fixation","","html-keyboard-response","213","456517","0.0-124.0","0","0","dhc9M","People","","null","","","","null","","","","","","","","","","","","","","","","","","","","","","","","","","","","","","","","","","","","","","","","","","","",""
"","see_reward","","html-keyboard-response","214","456845","0.0-125.0","0","0","dhc9M","People","","322","","","","32","","48","","6","","","","1","","","","","1","","","","","153","322","","","","","","","","","","","","","","","","","","","","","","","","",""
"","reward_outcome","","html-keyboard-response","215","458858","0.0-126.0","0","0","dhc9M","People","","155","","","","38","","48","","6","","","","","","","","","","","","","","","","1","155","","","","","","","","","","","","","","","","","","","","","","",""
"","fixation","","html-keyboard-response","216","459873","0.0-129.0","0","0","dhc9M","People","","null","","","","null","","","","","","","","","","","","","","","","","","","","","","","","","","","","","","","","","","","","","","","","","","","",""
"","see_reward","","html-keyboard-response","217","459893","0.0-130.0","0","0","dhc9M","People","","16","","","","32","","28","","7","","","","-1","","","","","1","","","","","0","16","","","","","","","","","","","","","","","","","","","","","","","","",""
"","reward_outcome","","html-keyboard-response","218","461900","0.0-131.0","0","0","dhc9M","People","","133","","","","40","","28","","7","","","","","","","","","","","","","","","","-1","133","","","","","","","","","","","","","","","","","","","","","","",""
"","fixation","","html-keyboard-response","219","462909","0.0-134.0","0","0","dhc9M","People","","null","","","","null","","","","","","","","","","","","","","","","","","","","","","","","","","","","","","","","","","","","","","","","","","","",""
"","see_reward","","html-keyboard-response","220","463732","0.0-135.0","0","0","dhc9M","People","","817","","","","32","","32","","8","","","","1","","","","","1","","","","","154","817","","","","","","","","","","","","","","","","","","","","","","","","",""
"","reward_outcome","","html-keyboard-response","221","465743","0.0-136.0","0","0","dhc9M","People","","165","","","","40","","32","","8","","","","","","","","","","","","","","","","-1","165","","","","","","","","","","","","","","","","","","","","","","",""
"","fixation","","html-keyboard-response","222","466750","0.0-139.0","0","0","dhc9M","People","","null","","","","null","","","","","","","","","","","","","","","","","","","","","","","","","","","","","","","","","","","","","","","","","","","",""
"","see_reward","","html-keyboard-response","223","467779","0.0-140.0","0","0","dhc9M","People","","1024","","","","32","","37","","9","","","","-1","","","","","1","","","","","0","1024","","","","","","","","","","","","","","","","","","","","","","","","",""
"","reward_outcome","","html-keyboard-response","224","469794","0.0-141.0","0","0","dhc9M","People","","35","","","","40","","37","","9","","","","","","","","","","","","","","","","-1","35","","","","","","","","","","","","","","","","","","","","","","",""
"","fixation","","html-keyboard-response","225","470806","0.0-144.0","0","0","dhc9M","People","","null","","","","null","","","","","","","","","","","","","","","","","","","","","","","","","","","","","","","","","","","","","","","","","","","",""
"","see_reward","","html-keyboard-response","226","471097","0.0-145.0","0","0","dhc9M","People","","287","","","","32","","41","","10","","","","-1","","","","","1","","","","","0","287","","","","","","","","","","","","","","","","","","","","","","","","",""
"","reward_outcome","","html-keyboard-response","227","473104","0.0-146.0","0","0","dhc9M","People","","121","","","","38","","41","","10","","","","","","","","","","","","","","","","1","121","","","","","","","","","","","","","","","","","","","","","","",""
"","fixation","","html-keyboard-response","228","474110","0.0-149.0","0","0","dhc9M","People","","null","","","","null","","","","","","","","","","","","","","","","","","","","","","","","","","","","","","","","","","","","","","","","","","","",""
"","see_reward","","html-keyboard-response","229","474335","0.0-150.0","0","0","dhc9M","People","","220","","","","32","","8","","11","","","","-1","","","","","1","","","","","0","220","","","","","","","","","","","","","","","","","","","","","","","","",""
"","reward_outcome","","html-keyboard-response","230","476344","0.0-151.0","0","0","dhc9M","People","","197","","","","38","","8","","11","","","","","","","","","","","","","","","","1","197","","","","","","","","","","","","","","","","","","","","","","",""
"","fixation","","html-keyboard-response","231","477350","0.0-154.0","0","0","dhc9M","People","","null","","","","null","","","","","","","","","","","","","","","","","","","","","","","","","","","","","","","","","","","","","","","","","","","",""
"","see_reward","","html-keyboard-response","232","479923","0.0-155.0","0","0","dhc9M","People","","2563","","","","32","","32","","12","","","","1","","","","","1","","","","","154","2563","","","","","","","","","","","","","","","","","","","","","","","","",""
"","reward_outcome","","html-keyboard-response","233","481936","0.0-156.0","0","0","dhc9M","People","","623","","","","38","","32","","12","","","","","","","","","","","","","","","","1","623","","","","","","","","","","","","","","","","","","","","","","",""
"","fixation","","html-keyboard-response","234","482943","0.0-159.0","0","0","dhc9M","People","","null","","","","null","","","","","","","","","","","","","","","","","","","","","","","","","","","","","","","","","","","","","","","","","","","",""
"","see_reward","","html-keyboard-response","235","483924","0.0-160.0","0","0","dhc9M","People","","977","","","","32","","48","","13","","","","1","","","","","1","","","","","153","977","","","","","","","","","","","","","","","","","","","","","","","","",""
"","reward_outcome","","html-keyboard-response","236","485936","0.0-161.0","0","0","dhc9M","People","","305","","","","40","","48","","13","","","","","","","","","","","","","","","","-1","305","","","","","","","","","","","","","","","","","","","","","","",""
"","fixation","","html-keyboard-response","237","486943","0.0-164.0","0","0","dhc9M","People","","null","","","","null","","","","","","","","","","","","","","","","","","","","","","","","","","","","","","","","","","","","","","","","","","","",""
"","see_reward","","html-keyboard-response","238","488484","0.0-165.0","0","0","dhc9M","People","","1532","","","","32","","24","","14","","","","1","","","","","1","","","","","144","1532","","","","","","","","","","","","","","","","","","","","","","","","",""
"","reward_outcome","","html-keyboard-response","239","490496","0.0-166.0","0","0","dhc9M","People","","183","","","","38","","24","","14","","","","","","","","","","","","","","","","1","183","","","","","","","","","","","","","","","","","","","","","","",""
"","fixation","","html-keyboard-response","240","491503","0.0-169.0","0","0","dhc9M","People","","null","","","","null","","","","","","","","","","","","","","","","","","","","","","","","","","","","","","","","","","","","","","","","","","","",""
"","see_reward","","html-keyboard-response","241","491993","0.0-170.0","0","0","dhc9M","People","","484","","","","32","","20","","15","","","","1","","","","","1","","","","","142","484","","","","","","","","","","","","","","","","","","","","","","","","",""
"","reward_outcome","","html-keyboard-response","242","494000","0.0-171.0","0","0","dhc9M","People","","429","","","","40","","20","","15","","","","","","","","","","","","","","","","-1","429","","","","","","","","","","","","","","","","","","","","","","",""
"","fixation","","html-keyboard-response","243","495007","0.0-174.0","0","0","dhc9M","People","","null","","","","null","","","","","","","","","","","","","","","","","","","","","","","","","","","","","","","","","","","","","","","","","","","",""
"","see_reward","","html-keyboard-response","244","495917","0.0-175.0","0","0","dhc9M","People","","906","","","","32","","8","","16","","","","-1","","","","","1","","","","","0","906","","","","","","","","","","","","","","","","","","","","","","","","",""
"","reward_outcome","","html-keyboard-response","245","497933","0.0-176.0","0","0","dhc9M","People","","42","","","","38","","8","","16","","","","","","","","","","","","","","","","1","42","","","","","","","","","","","","","","","","","","","","","","",""
"","fixation","","html-keyboard-response","246","498942","0.0-179.0","0","0","dhc9M","People","","null","","","","null","","","","","","","","","","","","","","","","","","","","","","","","","","","","","","","","","","","","","","","","","","","",""
"","see_reward","","html-keyboard-response","247","499692","0.0-180.0","0","0","dhc9M","People","","743","","","","32","","24","","17","","","","1","","","","","1","","","","","144","743","","","","","","","","","","","","","","","","","","","","","","","","",""
"","reward_outcome","","html-keyboard-response","248","501705","0.0-181.0","0","0","dhc9M","People","","55","","","","38","","24","","17","","","","","","","","","","","","","","","","1","55","","","","","","","","","","","","","","","","","","","","","","",""
"","fixation","","html-keyboard-response","249","502711","0.0-184.0","0","0","dhc9M","People","","null","","","","null","","","","","","","","","","","","","","","","","","","","","","","","","","","","","","","","","","","","","","","","","","","",""
"","see_reward","","html-keyboard-response","250","504209","0.0-185.0","0","0","dhc9M","People","","1494","","","","32","","37","","18","","","","-1","","","","","1","","","","","0","1494","","","","","","","","","","","","","","","","","","","","","","","","",""
"","reward_outcome","","html-keyboard-response","251","506214","0.0-186.0","0","0","dhc9M","People","","118","","","","38","","37","","18","","","","","","","","","","","","","","","","1","118","","","","","","","","","","","","","","","","","","","","","","",""
"","fixation","","html-keyboard-response","252","507222","0.0-189.0","0","0","dhc9M","People","","null","","","","null","","","","","","","","","","","","","","","","","","","","","","","","","","","","","","","","","","","","","","","","","","","",""
"","see_reward","","html-keyboard-response","253","507909","0.0-190.0","0","0","dhc9M","People","","681","","","","32","","41","","19","","","","-1","","","","","1","","","","","0","681","","","","","","","","","","","","","","","","","","","","","","","","",""
"","reward_outcome","","html-keyboard-response","254","509922","0.0-191.0","0","0","dhc9M","People","","198","","","","38","","41","","19","","","","","","","","","","","","","","","","1","198","","","","","","","","","","","","","","","","","","","","","","",""
"","fixation","","html-keyboard-response","255","510934","0.0-194.0","0","0","dhc9M","People","","null","","","","null","","","","","","","","","","","","","","","","","","","","","","","","","","","","","","","","","","","","","","","","","","","",""
"","see_reward","","html-keyboard-response","256","511655","0.0-195.0","0","0","dhc9M","People","","716","","","","32","","3","","20","","","","1","","","","","1","","","","","150","716","","","","","","","","","","","","","","","","","","","","","","","","",""
"","reward_outcome","","html-keyboard-response","257","513663","0.0-196.0","0","0","dhc9M","People","","152","","","","40","","3","","20","","","","","","","","","","","","","","","","-1","152","","","","","","","","","","","","","","","","","","","","","","",""
"","fixation","","html-keyboard-response","258","514671","0.0-199.0","0","0","dhc9M","People","","null","","","","null","","","","","","","","","","","","","","","","","","","","","","","","","","","","","","","","","","","","","","","","","","","",""
"","see_reward","","html-keyboard-response","259","514828","0.0-200.0","0","0","dhc9M","People","","153","","","","32","","33","","21","","","","-1","","","","","1","","","","","0","153","","","","","","","","","","","","","","","","","","","","","","","","",""
"","reward_outcome","","html-keyboard-response","260","516840","0.0-201.0","0","0","dhc9M","People","","41","","","","38","","33","","21","","","","","","","","","","","","","","","","1","41","","","","","","","","","","","","","","","","","","","","","","",""
"","fixation","","html-keyboard-response","261","517850","0.0-204.0","0","0","dhc9M","People","","null","","","","null","","","","","","","","","","","","","","","","","","","","","","","","","","","","","","","","","","","","","","","","","","","",""
"","see_reward","","html-keyboard-response","262","519923","0.0-205.0","0","0","dhc9M","People","","2067","","","","32","","3","","22","","","","1","","","","","1","","","","","150","2067","","","","","","","","","","","","","","","","","","","","","","","","",""
"","reward_outcome","","html-keyboard-response","263","521935","0.0-206.0","0","0","dhc9M","People","","89","","","","38","","3","","22","","","","","","","","","","","","","","","","1","89","","","","","","","","","","","","","","","","","","","","","","",""
"","fixation","","html-keyboard-response","264","522943","0.0-209.0","0","0","dhc9M","People","","null","","","","null","","","","","","","","","","","","","","","","","","","","","","","","","","","","","","","","","","","","","","","","","","","",""
"","see_reward","","html-keyboard-response","265","524093","0.0-210.0","0","0","dhc9M","People","","1144","","","","32","","28","","23","","","","-1","","","","","1","","","","","0","1144","","","","","","","","","","","","","","","","","","","","","","","","",""
"","reward_outcome","","html-keyboard-response","266","526105","0.0-211.0","0","0","dhc9M","People","","31","","","","40","","28","","23","","","","","","","","","","","","","","","","-1","31","","","","","","","","","","","","","","","","","","","","","","",""
"","block_over","","html-keyboard-response","267","529025","0.0-213.0-0.0","0","0","dhc9M","People","","2915","","","","78","","","","","","","","","","","","","","","","","","","","","","","","","","","","","","","","","","","","","","","","","","","",""
"","fixation","","html-keyboard-response","268","530031","0.0-214.0","0","0","dhc9M","People","","null","","","","null","","","","","","","","","","","","","","","","","","","","","","","","","","","","","","","","","","","","","","","","","","","",""
"","see_reward","","html-keyboard-response","269","530326","0.0-215.0","0","0","dhc9M","People","","288","","","","32","","41","","24","","","","-1","","","","","2","","","","","0","288","","","","","","","","","","","","","","","","","","","","","","","","",""
"","reward_outcome","","html-keyboard-response","270","532338","0.0-216.0","0","0","dhc9M","People","","117","","","","38","","41","","24","","","","","","","","","","","","","","","","1","117","","","","","","","","","","","","","","","","","","","","","","",""
"","fixation","","html-keyboard-response","271","533344","0.0-219.0","0","0","dhc9M","People","","null","","","","null","","","","","","","","","","","","","","","","","","","","","","","","","","","","","","","","","","","","","","","","","","","",""
"","see_reward","","html-keyboard-response","272","533927","0.0-220.0","0","0","dhc9M","People","","578","","","","32","","20","","25","","","","1","","","","","2","","","","","142","578","","","","","","","","","","","","","","","","","","","","","","","","",""
"","reward_outcome","","html-keyboard-response","273","535936","0.0-221.0","0","0","dhc9M","People","","64","","","","40","","20","","25","","","","","","","","","","","","","","","","-1","64","","","","","","","","","","","","","","","","","","","","","","",""
"","fixation","","html-keyboard-response","274","536943","0.0-224.0","0","0","dhc9M","People","","null","","","","null","","","","","","","","","","","","","","","","","","","","","","","","","","","","","","","","","","","","","","","","","","","",""
"","see_reward","","html-keyboard-response","275","536977","0.0-225.0","0","0","dhc9M","People","","30","","","","32","","13","","26","","","","-1","","","","","2","","","","","0","30","","","","","","","","","","","","","","","","","","","","","","","","",""
"","reward_outcome","","html-keyboard-response","276","538987","0.0-226.0","0","0","dhc9M","People","","172","","","","40","","13","","26","","","","","","","","","","","","","","","","-1","172","","","","","","","","","","","","","","","","","","","","","","",""
"","fixation","","html-keyboard-response","277","539990","0.0-229.0","0","0","dhc9M","People","","null","","","","null","","","","","","","","","","","","","","","","","","","","","","","","","","","","","","","","","","","","","","","","","","","",""
"","see_reward","","html-keyboard-response","278","540007","0.0-230.0","0","0","dhc9M","People","","14","","","","32","","34","","27","","","","1","","","","","2","","","","","157","14","","","","","","","","","","","","","","","","","","","","","","","","",""
"","reward_outcome","","html-keyboard-response","279","542017","0.0-231.0","0","0","dhc9M","People","","35","","","","38","","34","","27","","","","","","","","","","","","","","","","1","35","","","","","","","","","","","","","","","","","","","","","","",""
"","fixation","","html-keyboard-response","280","543023","0.0-234.0","0","0","dhc9M","People","","null","","","","null","","","","","","","","","","","","","","","","","","","","","","","","","","","","","","","","","","","","","","","","","","","",""
"","see_reward","","html-keyboard-response","281","543404","0.0-235.0","0","0","dhc9M","People","","377","","","","32","","24","","28","","","","1","","","","","2","","","","","144","377","","","","","","","","","","","","","","","","","","","","","","","","",""
"","reward_outcome","","html-keyboard-response","282","545417","0.0-236.0","0","0","dhc9M","People","","181","","","","38","","24","","28","","","","","","","","","","","","","","","","1","181","","","","","","","","","","","","","","","","","","","","","","",""
"","fixation","","html-keyboard-response","283","546422","0.0-239.0","0","0","dhc9M","People","","null","","","","null","","","","","","","","","","","","","","","","","","","","","","","","","","","","","","","","","","","","","","","","","","","",""
"","see_reward","","html-keyboard-response","284","547213","0.0-240.0","0","0","dhc9M","People","","785","","","","32","","33","","29","","","","-1","","","","","2","","","","","0","785","","","","","","","","","","","","","","","","","","","","","","","","",""
"","reward_outcome","","html-keyboard-response","285","549224","0.0-241.0","0","0","dhc9M","People","","89","","","","38","","33","","29","","","","","","","","","","","","","","","","1","89","","","","","","","","","","","","","","","","","","","","","","",""
"","fixation","","html-keyboard-response","286","550230","0.0-244.0","0","0","dhc9M","People","","null","","","","null","","","","","","","","","","","","","","","","","","","","","","","","","","","","","","","","","","","","","","","","","","","",""
"","see_reward","","html-keyboard-response","287","550838","0.0-245.0","0","0","dhc9M","People","","602","","","","32","","41","","30","","","","-1","","","","","2","","","","","0","602","","","","","","","","","","","","","","","","","","","","","","","","",""
"","reward_outcome","","html-keyboard-response","288","552849","0.0-246.0","0","0","dhc9M","People","","176","","","","38","","41","","30","","","","","","","","","","","","","","","","1","176","","","","","","","","","","","","","","","","","","","","","","",""
"","fixation","","html-keyboard-response","289","553855","0.0-249.0","0","0","dhc9M","People","","null","","","","null","","","","","","","","","","","","","","","","","","","","","","","","","","","","","","","","","","","","","","","","","","","",""
"","see_reward","","html-keyboard-response","290","554520","0.0-250.0","0","0","dhc9M","People","","660","","","","32","","37","","31","","","","-1","","","","","2","","","","","0","660","","","","","","","","","","","","","","","","","","","","","","","","",""
"","reward_outcome","","html-keyboard-response","291","556528","0.0-251.0","0","0","dhc9M","People","","93","","","","38","","37","","31","","","","","","","","","","","","","","","","1","93","","","","","","","","","","","","","","","","","","","","","","",""
"","fixation","","html-keyboard-response","292","557535","0.0-254.0","0","0","dhc9M","People","","null","","","","null","","","","","","","","","","","","","","","","","","","","","","","","","","","","","","","","","","","","","","","","","","","",""
"","see_reward","","html-keyboard-response","293","558189","0.0-255.0","0","0","dhc9M","People","","650","","","","32","","48","","32","","","","1","","","","","2","","","","","153","650","","","","","","","","","","","","","","","","","","","","","","","","",""
"","reward_outcome","","html-keyboard-response","294","560199","0.0-256.0","0","0","dhc9M","People","","0","","","","38","","48","","32","","","","","","","","","","","","","","","","1","0","","","","","","","","","","","","","","","","","","","","","","",""
"","fixation","","html-keyboard-response","295","561206","0.0-259.0","0","0","dhc9M","People","","null","","","","null","","","","","","","","","","","","","","","","","","","","","","","","","","","","","","","","","","","","","","","","","","","",""
"","see_reward","","html-keyboard-response","296","561529","0.0-260.0","0","0","dhc9M","People","","311","","","","32","","3","","33","","","","1","","","","","2","","","","","150","311","","","","","","","","","","","","","","","","","","","","","","","","",""
"","reward_outcome","","html-keyboard-response","297","563540","0.0-261.0","0","0","dhc9M","People","","173","","","","38","","3","","33","","","","","","","","","","","","","","","","1","173","","","","","","","","","","","","","","","","","","","","","","",""
"","fixation","","html-keyboard-response","298","564549","0.0-264.0","0","0","dhc9M","People","","null","","","","null","","","","","","","","","","","","","","","","","","","","","","","","","","","","","","","","","","","","","","","","","","","",""
"","see_reward","","html-keyboard-response","299","565060","0.0-265.0","0","0","dhc9M","People","","506","","","","32","","13","","34","","","","-1","","","","","2","","","","","0","506","","","","","","","","","","","","","","","","","","","","","","","","",""
"","reward_outcome","","html-keyboard-response","300","567071","0.0-266.0","0","0","dhc9M","People","","105","","","","38","","13","","34","","","","","","","","","","","","","","","","1","105","","","","","","","","","","","","","","","","","","","","","","",""
"","fixation","","html-keyboard-response","301","568080","0.0-269.0","0","0","dhc9M","People","","null","","","","null","","","","","","","","","","","","","","","","","","","","","","","","","","","","","","","","","","","","","","","","","","","",""
"","see_reward","","html-keyboard-response","302","568321","0.0-270.0","0","0","dhc9M","People","","236","","","","32","","3","","35","","","","1","","","","","2","","","","","150","236","","","","","","","","","","","","","","","","","","","","","","","","",""
"","reward_outcome","","html-keyboard-response","303","570328","0.0-271.0","0","0","dhc9M","People","","111","","","","38","","3","","35","","","","","","","","","","","","","","","","1","111","","","","","","","","","","","","","","","","","","","","","","",""
"","fixation","","html-keyboard-response","304","571335","0.0-274.0","0","0","dhc9M","People","","null","","","","null","","","","","","","","","","","","","","","","","","","","","","","","","","","","","","","","","","","","","","","","","","","",""
"","see_reward","","html-keyboard-response","305","571572","0.0-275.0","0","0","dhc9M","People","","233","","","","32","","28","","36","","","","-1","","","","","2","","","","","0","233","","","","","","","","","","","","","","","","","","","","","","","","",""
"","reward_outcome","","html-keyboard-response","306","573585","0.0-276.0","0","0","dhc9M","People","","199","","","","38","","28","","36","","","","","","","","","","","","","","","","1","199","","","","","","","","","","","","","","","","","","","","","","",""
"","fixation","","html-keyboard-response","307","574592","0.0-279.0","0","0","dhc9M","People","","null","","","","null","","","","","","","","","","","","","","","","","","","","","","","","","","","","","","","","","","","","","","","","","","","",""
"","see_reward","","html-keyboard-response","308","575202","0.0-280.0","0","0","dhc9M","People","","603","","","","32","","8","","37","","","","-1","","","","","2","","","","","0","603","","","","","","","","","","","","","","","","","","","","","","","","",""
"","reward_outcome","","html-keyboard-response","309","577208","0.0-281.0","0","0","dhc9M","People","","211","","","","38","","8","","37","","","","","","","","","","","","","","","","1","211","","","","","","","","","","","","","","","","","","","","","","",""
"","fixation","","html-keyboard-response","310","578216","0.0-284.0","0","0","dhc9M","People","","null","","","","null","","","","","","","","","","","","","","","","","","","","","","","","","","","","","","","","","","","","","","","","","","","",""
"","see_reward","","html-keyboard-response","311","578695","0.0-285.0","0","0","dhc9M","People","","474","","","","32","","37","","38","","","","-1","","","","","2","","","","","0","474","","","","","","","","","","","","","","","","","","","","","","","","",""
"","reward_outcome","","html-keyboard-response","312","580704","0.0-286.0","0","0","dhc9M","People","","43","","","","38","","37","","38","","","","","","","","","","","","","","","","1","43","","","","","","","","","","","","","","","","","","","","","","",""
"","fixation","","html-keyboard-response","313","581711","0.0-289.0","0","0","dhc9M","People","","null","","","","null","","","","","","","","","","","","","","","","","","","","","","","","","","","","","","","","","","","","","","","","","","","",""
"","see_reward","","html-keyboard-response","314","582362","0.0-290.0","0","0","dhc9M","People","","645","","","","32","","8","","39","","","","-1","","","","","2","","","","","0","645","","","","","","","","","","","","","","","","","","","","","","","","",""
"","reward_outcome","","html-keyboard-response","315","584371","0.0-291.0","0","0","dhc9M","People","","232","","","","38","","8","","39","","","","","","","","","","","","","","","","1","232","","","","","","","","","","","","","","","","","","","","","","",""
"","fixation","","html-keyboard-response","316","585377","0.0-294.0","0","0","dhc9M","People","","null","","","","null","","","","","","","","","","","","","","","","","","","","","","","","","","","","","","","","","","","","","","","","","","","",""
"","see_reward","","html-keyboard-response","317","586049","0.0-295.0","0","0","dhc9M","People","","667","","","","32","","28","","40","","","","-1","","","","","2","","","","","0","667","","","","","","","","","","","","","","","","","","","","","","","","",""
"","reward_outcome","","html-keyboard-response","318","588063","0.0-296.0","0","0","dhc9M","People","","190","","","","40","","28","","40","","","","","","","","","","","","","","","","-1","190","","","","","","","","","","","","","","","","","","","","","","",""
"","fixation","","html-keyboard-response","319","589070","0.0-299.0","0","0","dhc9M","People","","null","","","","null","","","","","","","","","","","","","","","","","","","","","","","","","","","","","","","","","","","","","","","","","","","",""
"","see_reward","","html-keyboard-response","320","589090","0.0-300.0","0","0","dhc9M","People","","16","","","","32","","24","","41","","","","1","","","","","2","","","","","144","16","","","","","","","","","","","","","","","","","","","","","","","","",""
"","reward_outcome","","html-keyboard-response","321","591096","0.0-301.0","0","0","dhc9M","People","","150","","","","38","","24","","41","","","","","","","","","","","","","","","","1","150","","","","","","","","","","","","","","","","","","","","","","",""
"","fixation","","html-keyboard-response","322","592103","0.0-304.0","0","0","dhc9M","People","","null","","","","null","","","","","","","","","","","","","","","","","","","","","","","","","","","","","","","","","","","","","","","","","","","",""
"","see_reward","","html-keyboard-response","323","593134","0.0-305.0","0","0","dhc9M","People","","1026","","","","32","","32","","42","","","","1","","","","","2","","","","","154","1026","","","","","","","","","","","","","","","","","","","","","","","","",""
"","reward_outcome","","html-keyboard-response","324","595145","0.0-306.0","0","0","dhc9M","People","","218","","","","40","","32","","42","","","","","","","","","","","","","","","","-1","218","","","","","","","","","","","","","","","","","","","","","","",""
"","fixation","","html-keyboard-response","325","596149","0.0-309.0","0","0","dhc9M","People","","null","","","","null","","","","","","","","","","","","","","","","","","","","","","","","","","","","","","","","","","","","","","","","","","","",""
"","see_reward","","html-keyboard-response","326","596533","0.0-310.0","0","0","dhc9M","People","","380","","","","32","","34","","43","","","","1","","","","","2","","","","","157","380","","","","","","","","","","","","","","","","","","","","","","","","",""
"","reward_outcome","","html-keyboard-response","327","598546","0.0-311.0","0","0","dhc9M","People","","95","","","","38","","34","","43","","","","","","","","","","","","","","","","1","95","","","","","","","","","","","","","","","","","","","","","","",""
"","fixation","","html-keyboard-response","328","599552","0.0-314.0","0","0","dhc9M","People","","null","","","","null","","","","","","","","","","","","","","","","","","","","","","","","","","","","","","","","","","","","","","","","","","","",""
"","see_reward","","html-keyboard-response","329","600198","0.0-315.0","0","0","dhc9M","People","","639","","","","32","","20","","44","","","","1","","","","","2","","","","","142","639","","","","","","","","","","","","","","","","","","","","","","","","",""
"","reward_outcome","","html-keyboard-response","330","602211","0.0-316.0","0","0","dhc9M","People","","127","","","","40","","20","","44","","","","","","","","","","","","","","","","-1","127","","","","","","","","","","","","","","","","","","","","","","",""
"","fixation","","html-keyboard-response","331","603223","0.0-319.0","0","0","dhc9M","People","","null","","","","null","","","","","","","","","","","","","","","","","","","","","","","","","","","","","","","","","","","","","","","","","","","",""
"","see_reward","","html-keyboard-response","332","604083","0.0-320.0","0","0","dhc9M","People","","855","","","","32","","32","","45","","","","1","","","","","2","","","","","154","855","","","","","","","","","","","","","","","","","","","","","","","","",""
"","reward_outcome","","html-keyboard-response","333","606095","0.0-321.0","0","0","dhc9M","People","","95","","","","40","","32","","45","","","","","","","","","","","","","","","","-1","95","","","","","","","","","","","","","","","","","","","","","","",""
"","fixation","","html-keyboard-response","334","607101","0.0-324.0","0","0","dhc9M","People","","null","","","","null","","","","","","","","","","","","","","","","","","","","","","","","","","","","","","","","","","","","","","","","","","","",""
"","see_reward","","html-keyboard-response","335","607207","0.0-325.0","0","0","dhc9M","People","","100","","","","32","","33","","46","","","","-1","","","","","2","","","","","0","100","","","","","","","","","","","","","","","","","","","","","","","","",""
"","reward_outcome","","html-keyboard-response","336","609218","0.0-326.0","0","0","dhc9M","People","","162","","","","38","","33","","46","","","","","","","","","","","","","","","","1","162","","","","","","","","","","","","","","","","","","","","","","",""
"","fixation","","html-keyboard-response","337","610224","0.0-329.0","0","0","dhc9M","People","","null","","","","null","","","","","","","","","","","","","","","","","","","","","","","","","","","","","","","","","","","","","","","","","","","",""
"","see_reward","","html-keyboard-response","338","610798","0.0-330.0","0","0","dhc9M","People","","569","","","","32","","48","","47","","","","1","","","","","2","","","","","153","569","","","","","","","","","","","","","","","","","","","","","","","","",""
"","reward_outcome","","html-keyboard-response","339","612810","0.0-331.0","0","0","dhc9M","People","","24","","","","40","","48","","47","","","","","","","","","","","","","","","","-1","24","","","","","","","","","","","","","","","","","","","","","","",""
"","block_over","","html-keyboard-response","340","614961","0.0-333.0-0.0","0","0","dhc9M","People","","2146","","","","78","","","","","","","","","","","","","","","","","","","","","","","","","","","","","","","","","","","","","","","","","","","",""
"","fixation","","html-keyboard-response","341","615966","0.0-334.0","0","0","dhc9M","People","","null","","","","null","","","","","","","","","","","","","","","","","","","","","","","","","","","","","","","","","","","","","","","","","","","",""
"","see_reward","","html-keyboard-response","342","616526","0.0-335.0","0","0","dhc9M","People","","554","","","","32","","37","","48","","","","-1","","","","","3","","","","","0","554","","","","","","","","","","","","","","","","","","","","","","","","",""
"","reward_outcome","","html-keyboard-response","343","618535","0.0-336.0","0","0","dhc9M","People","","197","","","","40","","37","","48","","","","","","","","","","","","","","","","-1","197","","","","","","","","","","","","","","","","","","","","","","",""
"","fixation","","html-keyboard-response","344","619544","0.0-339.0","0","0","dhc9M","People","","null","","","","null","","","","","","","","","","","","","","","","","","","","","","","","","","","","","","","","","","","","","","","","","","","",""
"","see_reward","","html-keyboard-response","345","620035","0.0-340.0","0","0","dhc9M","People","","487","","","","32","","32","","49","","","","1","","","","","3","","","","","154","487","","","","","","","","","","","","","","","","","","","","","","","","",""
"","reward_outcome","","html-keyboard-response","346","622047","0.0-341.0","0","0","dhc9M","People","","186","","","","38","","32","","49","","","","","","","","","","","","","","","","1","186","","","","","","","","","","","","","","","","","","","","","","",""
"","fixation","","html-keyboard-response","347","623056","0.0-344.0","0","0","dhc9M","People","","null","","","","null","","","","","","","","","","","","","","","","","","","","","","","","","","","","","","","","","","","","","","","","","","","",""
"","see_reward","","html-keyboard-response","348","623088","0.0-345.0","0","0","dhc9M","People","","28","","","","32","","13","","50","","","","-1","","","","","3","","","","","0","28","","","","","","","","","","","","","","","","","","","","","","","","",""
"","reward_outcome","","html-keyboard-response","349","625097","0.0-346.0","0","0","dhc9M","People","","208","","","","38","","13","","50","","","","","","","","","","","","","","","","1","208","","","","","","","","","","","","","","","","","","","","","","",""
"","fixation","","html-keyboard-response","350","626100","0.0-349.0","0","0","dhc9M","People","","null","","","","null","","","","","","","","","","","","","","","","","","","","","","","","","","","","","","","","","","","","","","","","","","","",""
"","see_reward","","html-keyboard-response","351","626544","0.0-350.0","0","0","dhc9M","People","","440","","","","32","","8","","51","","","","-1","","","","","3","","","","","0","440","","","","","","","","","","","","","","","","","","","","","","","","",""
"","reward_outcome","","html-keyboard-response","352","628559","0.0-351.0","0","0","dhc9M","People","","114","","","","38","","8","","51","","","","","","","","","","","","","","","","1","114","","","","","","","","","","","","","","","","","","","","","","",""
"","fixation","","html-keyboard-response","353","629568","0.0-354.0","0","0","dhc9M","People","","null","","","","null","","","","","","","","","","","","","","","","","","","","","","","","","","","","","","","","","","","","","","","","","","","",""
"","see_reward","","html-keyboard-response","354","629682","0.0-355.0","0","0","dhc9M","People","","110","","","","32","","20","","52","","","","1","","","","","3","","","","","142","110","","","","","","","","","","","","","","","","","","","","","","","","",""
