"success","ttype","start_time","trial_type","trial_index","time_elapsed","internal_node_id","warning","missed_checkup","PID","stim_type","view_history","rt","responses","category","repeat_instructions","key_press","response","stimulus_id","painting","index","stimulus_left","stimulus_right","explain_trial","reward_type","rating_left","rating_right","painting_left","painting_right","block","left_chosen","chosen_obj","unchosen_obj","explain_response","reward_amount","see_reward_rt","register_reward_response","register_reward_rt","deliberation_reward_tally","stimulus_left_deliberation_ind","stimulus_right_deliberation_ind","chosen_trial","gain_left","higher_outcome_chosen","old_pair","chosen_object","rt_pairs","left_object_chosen","rt_object","old_response","new_rating","deliberated_stim","initial_rating","outcome_eval_rt","outcome_eval_response","outcome_eval_gain","outcome_eval_acc","preamble","outcome_eval_confidence","outcome_eval_confidence_rt","total_reward_tally"
"true","full_screen","d01182023hr1354","fullscreen","0","116832","0.0-0.0","0","0","vRFa3","People","","","","","","","","","","","","","","","","","","","","","","","","","","","","","","","","","","","","","","","","","","","","","","","","","",""
"","rating_instructions","","instructions","1","126804","0.0-1.0-0.0","0","0","vRFa3","People","[{""page_index"":0,""viewing_time"":8502},{""page_index"":1,""viewing_time"":1466}]","9968","","","","","","","","","","","","","","","","","","","","","","","","","","","","","","","","","","","","","","","","","","","","","","","",""
"","","","survey-multi-choice","2","131890","0.0-1.0-1.0","0","0","vRFa3","People","","5083","{""Q0"":""True"",""Q1"":""Mouse""}","rating_comprehension_check","0","","","","","","","","","","","","","","","","","","","","","","","","","","","","","","","","","","","","","","","","","","","","",""
"","start_phase","","html-keyboard-response","3","133750","0.0-2.0","0","0","vRFa3","People","","1857","","","","78","","","","","","","","","","","","","","","","","","","","","","","","","","","","","","","","","","","","","","","","","","","",""
"","rating","","html-slider-response","4","138076","0.0-3.0","0","0","vRFa3","People","","4322","","","","","73","48","velizar-ivanov-7ktP9yZA1g4-unsplash.jpg","0","","","","","","","","","","","","","","","","","","","","","","","","","","","","","","","","","","","","","","","",""
"","rating","","html-slider-response","5","141450","0.0-4.0","0","0","vRFa3","People","","3371","","","","","57","40","prince-akachi-4Yv84VgQkRM-unsplash.jpg","1","","","","","","","","","","","","","","","","","","","","","","","","","","","","","","","","","","","","","","","",""
"","rating","","html-slider-response","6","144896","0.0-5.0","0","0","vRFa3","People","","3443","","","","","79","1","aiony-haust-jmATI5Q_YgY-unsplash.jpg","2","","","","","","","","","","","","","","","","","","","","","","","","","","","","","","","","","","","","","","","",""
"","rating","","html-slider-response","7","148449","0.0-6.0","0","0","vRFa3","People","","3551","","","","","37","7","brooke-cagle-HRZUzoX1e6w-unsplash.jpg","3","","","","","","","","","","","","","","","","","","","","","","","","","","","","","","","","","","","","","","","",""
"","rating","","html-slider-response","8","152912","0.0-7.0","0","0","vRFa3","People","","4460","","","","","66","17","gleb-lukomets-paBzWCPN23k-unsplash.jpg","4","","","","","","","","","","","","","","","","","","","","","","","","","","","","","","","","","","","","","","","",""
"","rating","","html-slider-response","9","155811","0.0-8.0","0","0","vRFa3","People","","2898","","","","","66","20","houcine-ncib-B4TjXnI0Y2c-unsplash.jpg","5","","","","","","","","","","","","","","","","","","","","","","","","","","","","","","","","","","","","","","","",""
"","rating","","html-slider-response","10","158654","0.0-9.0","0","0","vRFa3","People","","2841","","","","","46","34","oliver-johnson-1TUIcKob7Zs-unsplash.jpg","6","","","","","","","","","","","","","","","","","","","","","","","","","","","","","","","","","","","","","","","",""
"","rating","","html-slider-response","11","161500","0.0-10.0","0","0","vRFa3","People","","2844","","","","","37","46","stefan-stefancik-QXevDflbl8A-unsplash.jpg","7","","","","","","","","","","","","","","","","","","","","","","","","","","","","","","","","","","","","","","","",""
"","rating","","html-slider-response","12","163904","0.0-11.0","0","0","vRFa3","People","","2402","","","","","45","9","carlos-andres-gomez-vJuk8Y86mRw-unsplash.jpg","8","","","","","","","","","","","","","","","","","","","","","","","","","","","","","","","","","","","","","","","",""
"","rating","","html-slider-response","13","166306","0.0-12.0","0","0","vRFa3","People","","2400","","","","","65","26","juri-gianfrancesco-9EZadYaMzk4-unsplash.jpg","9","","","","","","","","","","","","","","","","","","","","","","","","","","","","","","","","","","","","","","","",""
"","rating","","html-slider-response","14","169786","0.0-13.0","0","0","vRFa3","People","","3477","","","","","46","24","joel-mott-LaK153ghdig-unsplash.jpg","10","","","","","","","","","","","","","","","","","","","","","","","","","","","","","","","","","","","","","","","",""
"","rating","","html-slider-response","15","172202","0.0-14.0","0","0","vRFa3","People","","2414","","","","","38","3","art-hauntington-jzY0KRJopEI-unsplash.jpg","11","","","","","","","","","","","","","","","","","","","","","","","","","","","","","","","","","","","","","","","",""
"","rating","","html-slider-response","16","174693","0.0-15.0","0","0","vRFa3","People","","2489","","","","","58","42","prince-akachi-l3IHXOdMyHQ-unsplash.jpg","12","","","","","","","","","","","","","","","","","","","","","","","","","","","","","","","","","","","","","","","",""
"","rating","","html-slider-response","17","178717","0.0-16.0","0","0","vRFa3","People","","4021","","","","","58","31","mathilda-khoo-vLR0YP_otCo-unsplash.jpg","13","","","","","","","","","","","","","","","","","","","","","","","","","","","","","","","","","","","","","","","",""
"","rating","","html-slider-response","18","182466","0.0-17.0","0","0","vRFa3","People","","3747","","","","","55","14","freddy-kearney-o-ioeoATbIM-unsplash.jpg","14","","","","","","","","","","","","","","","","","","","","","","","","","","","","","","","","","","","","","","","",""
"","rating","","html-slider-response","19","185206","0.0-18.0","0","0","vRFa3","People","","2737","","","","","40","37","pavel-anoshin-d0peGya6R5Y-unsplash.jpg","15","","","","","","","","","","","","","","","","","","","","","","","","","","","","","","","","","","","","","","","",""
"","rating","","html-slider-response","20","187914","0.0-19.0","0","0","vRFa3","People","","2705","","","","","40","11","christian-ferrer-8vT-DgHZDG4-unsplash.jpg","16","","","","","","","","","","","","","","","","","","","","","","","","","","","","","","","","","","","","","","","",""
"","rating","","html-slider-response","21","190013","0.0-20.0","0","0","vRFa3","People","","2097","","","","","67","6","ben-o-bro-C5XyLljkMrY-unsplash.jpg","17","","","","","","","","","","","","","","","","","","","","","","","","","","","","","","","","","","","","","","","",""
"","rating","","html-slider-response","22","192495","0.0-21.0","0","0","vRFa3","People","","2479","","","","","43","39","philip-martin-5aGUyCW_PJw-unsplash.jpg","18","","","","","","","","","","","","","","","","","","","","","","","","","","","","","","","","","","","","","","","",""
"","rating","","html-slider-response","23","194804","0.0-22.0","0","0","vRFa3","People","","2306","","","","","55","41","prince-akachi-i2hoD-C2RUA-unsplash.jpg","19","","","","","","","","","","","","","","","","","","","","","","","","","","","","","","","","","","","","","","","",""
"","rating","","html-slider-response","24","197864","0.0-23.0","0","0","vRFa3","People","","3059","","","","","36","4","barna-bartis-2x3vfVxwR7o-unsplash.jpg","20","","","","","","","","","","","","","","","","","","","","","","","","","","","","","","","","","","","","","","","",""
"","rating","","html-slider-response","25","200692","0.0-24.0","0","0","vRFa3","People","","2827","","","","","72","43","raamin-ka-0qJBEzudn5E-unsplash.jpg","21","","","","","","","","","","","","","","","","","","","","","","","","","","","","","","","","","","","","","","","",""
"","rating","","html-slider-response","26","203186","0.0-25.0","0","0","vRFa3","People","","2491","","","","","22","0","abstral-official-cyOKLSgkgCE-unsplash.jpg","22","","","","","","","","","","","","","","","","","","","","","","","","","","","","","","","","","","","","","","","",""
"","rating","","html-slider-response","27","205657","0.0-26.0","0","0","vRFa3","People","","2469","","","","","55","21","jessica-felicio-_cvwXhGqG-o-unsplash.jpg","23","","","","","","","","","","","","","","","","","","","","","","","","","","","","","","","","","","","","","","","",""
"","rating","","html-slider-response","28","208334","0.0-27.0","0","0","vRFa3","People","","2675","","","","","40","23","joanna-nix-walkup-H4fEMshfwTE-unsplash.jpg","24","","","","","","","","","","","","","","","","","","","","","","","","","","","","","","","","","","","","","","","",""
"","rating","","html-slider-response","29","210746","0.0-28.0","0","0","vRFa3","People","","2410","","","","","38","30","matheus-ferrero-pg_WCHWSdT8-unsplash.jpg","25","","","","","","","","","","","","","","","","","","","","","","","","","","","","","","","","","","","","","","","",""
"","rating","","html-slider-response","30","213420","0.0-29.0","0","0","vRFa3","People","","2672","","","","","59","33","olena-sergienko-0TSd6uCKTKc-unsplash.jpg","26","","","","","","","","","","","","","","","","","","","","","","","","","","","","","","","","","","","","","","","",""
"","rating","","html-slider-response","31","216907","0.0-30.0","0","0","vRFa3","People","","3485","","","","","77","13","erik-lucatero-d2MSDujJl2g-unsplash.jpg","27","","","","","","","","","","","","","","","","","","","","","","","","","","","","","","","","","","","","","","","",""
"","rating","","html-slider-response","32","219686","0.0-31.0","0","0","vRFa3","People","","2777","","","","","43","19","ha-nguy-n-OFSQ6bHjFjs-unsplash.jpg","28","","","","","","","","","","","","","","","","","","","","","","","","","","","","","","","","","","","","","","","",""
"","rating","","html-slider-response","33","223090","0.0-32.0","0","0","vRFa3","People","","3402","","","","","42","22","jessica-radanavong-mrYkTuAesKE-unsplash.jpg","29","","","","","","","","","","","","","","","","","","","","","","","","","","","","","","","","","","","","","","","",""
"","rating","","html-slider-response","34","226246","0.0-33.0","0","0","vRFa3","People","","3154","","","","","70","32","nathan-dumlao-ger61_TX6oI-unsplash.jpg","30","","","","","","","","","","","","","","","","","","","","","","","","","","","","","","","","","","","","","","","",""
"","rating","","html-slider-response","35","228346","0.0-34.0","0","0","vRFa3","People","","2098","","","","","34","27","jurica-koletic-7YVZYZeITc8-unsplash.jpg","31","","","","","","","","","","","","","","","","","","","","","","","","","","","","","","","","","","","","","","","",""
"","rating","","html-slider-response","36","230964","0.0-35.0","0","0","vRFa3","People","","2616","","","","","56","45","sarah-noltner-pL5ZzPp1zqg-unsplash.jpg","32","","","","","","","","","","","","","","","","","","","","","","","","","","","","","","","","","","","","","","","",""
"","rating","","html-slider-response","37","233400","0.0-36.0","0","0","vRFa3","People","","2434","","","","","38","28","justin-chen-J7Cf1Gch49E-unsplash.jpg","33","","","","","","","","","","","","","","","","","","","","","","","","","","","","","","","","","","","","","","","",""
"","rating","","html-slider-response","38","236460","0.0-37.0","0","0","vRFa3","People","","3058","","","","","42","47","tyler-nix-ZGa9d1a_4tA-unsplash.jpg","34","","","","","","","","","","","","","","","","","","","","","","","","","","","","","","","","","","","","","","","",""
"","rating","","html-slider-response","39","240635","0.0-38.0","0","0","vRFa3","People","","4173","","","","","52","16","giano-currie-5-9YOsmf8IQ-unsplash.jpg","35","","","","","","","","","","","","","","","","","","","","","","","","","","","","","","","","","","","","","","","",""
"","rating","","html-slider-response","40","244531","0.0-39.0","0","0","vRFa3","People","","3894","","","","","60","44","rikonavt-HQjfrvdTfak-unsplash.jpg","36","","","","","","","","","","","","","","","","","","","","","","","","","","","","","","","","","","","","","","","",""
"","rating","","html-slider-response","41","247885","0.0-40.0","0","0","vRFa3","People","","3351","","","","","56","5","batel-studio-ttSRjiYG_WM-unsplash.jpg","37","","","","","","","","","","","","","","","","","","","","","","","","","","","","","","","","","","","","","","","",""
"","rating","","html-slider-response","42","251839","0.0-41.0","0","0","vRFa3","People","","3952","","","","","74","36","ospan-ali-mGdA2fzjWLo-unsplash.jpg","38","","","","","","","","","","","","","","","","","","","","","","","","","","","","","","","","","","","","","","","",""
"","rating","","html-slider-response","43","254675","0.0-42.0","0","0","vRFa3","People","","2834","","","","","65","38","petr-sevcovic-HzDF-rxlSeM-unsplash.jpg","39","","","","","","","","","","","","","","","","","","","","","","","","","","","","","","","","","","","","","","","",""
"","rating","","html-slider-response","44","256877","0.0-43.0","0","0","vRFa3","People","","2200","","","","","39","35","oliver-ragfelt-khV4fTy6-D8-unsplash.jpg","40","","","","","","","","","","","","","","","","","","","","","","","","","","","","","","","","","","","","","","","",""
"","rating","","html-slider-response","45","259347","0.0-44.0","0","0","vRFa3","People","","2468","","","","","54","2","arjunsyah-TBUA5KHJn6k-unsplash.jpg","41","","","","","","","","","","","","","","","","","","","","","","","","","","","","","","","","","","","","","","","",""
"","rating","","html-slider-response","46","261796","0.0-45.0","0","0","vRFa3","People","","2445","","","","","55","18","good-faces-xmSWVeGEnJw-unsplash.jpg","42","","","","","","","","","","","","","","","","","","","","","","","","","","","","","","","","","","","","","","","",""
"","rating","","html-slider-response","47","263882","0.0-46.0","0","0","vRFa3","People","","2084","","","","","44","29","leilani-angel-K84vnnzxmTQ-unsplash.jpg","43","","","","","","","","","","","","","","","","","","","","","","","","","","","","","","","","","","","","","","","",""
"","rating","","html-slider-response","48","266028","0.0-47.0","0","0","vRFa3","People","","2144","","","","","22","10","charles-etoroma-95UF6LXe-Lo-unsplash.jpg","44","","","","","","","","","","","","","","","","","","","","","","","","","","","","","","","","","","","","","","","",""
"","rating","","html-slider-response","49","268880","0.0-48.0","0","0","vRFa3","People","","2849","","","","","42","8","bruce-dixon-3M9WJQVHzog-unsplash.jpg","45","","","","","","","","","","","","","","","","","","","","","","","","","","","","","","","","","","","","","","","",""
"","rating","","html-slider-response","50","271218","0.0-49.0","0","0","vRFa3","People","","2336","","","","","62","15","gabriel-silverio-u3WmDyKGsrY-unsplash.jpg","46","","","","","","","","","","","","","","","","","","","","","","","","","","","","","","","","","","","","","","","",""
"","rating","","html-slider-response","51","273797","0.0-50.0","0","0","vRFa3","People","","2576","","","","","43","25","joseph-gonzalez-iFgRcqHznqg-unsplash.jpg","47","","","","","","","","","","","","","","","","","","","","","","","","","","","","","","","","","","","","","","","",""
"","rating","","html-slider-response","52","277609","0.0-51.0","0","0","vRFa3","People","","3810","","","","","47","12","daniel-rigdon-dXmXKPP2L4E-unsplash.jpg","48","","","","","","","","","","","","","","","","","","","","","","","","","","","","","","","","","","","","","","","",""
"","rating","","html-slider-response","53","280478","0.0-52.0","0","0","vRFa3","People","","2867","","","","","18","49","vicky-hladynets-_gDoyVv5F4c-unsplash.jpg","49","","","","","","","","","","","","","","","","","","","","","","","","","","","","","","","","","","","","","","","",""
"","deliberation_instructions","","instructions","54","383777","0.0-53.0-0.0","0","0","vRFa3","People","[{""page_index"":0,""viewing_time"":10011},{""page_index"":1,""viewing_time"":6230},{""page_index"":2,""viewing_time"":58136},{""page_index"":3,""viewing_time"":27057},{""page_index"":4,""viewing_time"":1862}]","103296","","","","","","","","","","","","","","","","","","","","","","","","","","","","","","","","","","","","","","","","","","","","","","","",""
"","","","survey-multi-choice","55","399478","0.0-53.0-1.0","0","0","vRFa3","People","","15696","{""Q0"":""True"",""Q1"":""True"",""Q2"":""Consider carefully and take your time (up to 10 seconds)"",""Q3"":""True"",""Q4"":""D""}","deliberation_comprehension_check","0","","","","","","","","","","","","","","","","","","","","","","","","","","","","","","","","","","","","","","","","","","","","",""
"","start_phase","","html-keyboard-response","56","402424","0.0-54.0","0","0","vRFa3","People","","2943","","","","78","","","","","","","","","","","","","","","","","","","","","","","","","","","","","","","","","","","","","","","","","","","",""
"","first_deliberation_block","","html-keyboard-response","57","406037","0.0-55.0","0","0","vRFa3","People","","3612","","","","78","","","","","","","","","","","","","","","","","","","","","","","","","","","","","","","","","","","","","","","","","","","",""
"","fixation","","html-keyboard-response","58","407049","0.0-56.0-0.0","0","0","vRFa3","People","","null","","","","null","","","","","","","","","","","","","","","","","","","","","","","","","","","","","","","","","","","","","","","","","","","",""
"","deliberation","","html-keyboard-response","59","409262","0.0-56.0-1.0","0","0","vRFa3","People","","2210","","","","68","","","","0","14","47","1","1","55","42","freddy-kearney-o-ioeoATbIM-unsplash.jpg","tyler-nix-ZGa9d1a_4tA-unsplash.jpg","1","1","14","47","","","","","","","","","","","","","","","","","","","","","","","","","","","",""
"","choice_confirmation","","html-keyboard-response","60","409770","0.0-56.0-2.0-0.0","0","0","vRFa3","People","","null","","","","null","","","","0","14","47","","","","","","","","","","","","","","","","","","","","","","","","","","","","","","","","","","","","","",""
"","explain_trial","","survey-text","61","423186","0.0-56.0-5.0-0.0","0","0","vRFa3","People","","13413","{""Q0"":""It evokes more emotions.""}","","","","","","","0","14","47","","","","","","","","","","","{""Q0"":""It evokes more emotions.""}","","","","","","","","","","","","","","","","","","","","","","","","","","",""
"","fixation","","html-keyboard-response","62","424194","0.0-57.0-0.0","0","0","vRFa3","People","","null","","","","null","","","","","","","","","","","","","","","","","","","","","","","","","","","","","","","","","","","","","","","","","","","",""
"","deliberation","","html-keyboard-response","63","426917","0.0-57.0-1.0","0","0","vRFa3","People","","2722","","","","68","","","","1","29","12","0","-1","44","47","leilani-angel-K84vnnzxmTQ-unsplash.jpg","daniel-rigdon-dXmXKPP2L4E-unsplash.jpg","1","1","29","12","","","","","","","","","","","","","","","","","","","","","","","","","","","",""
"","choice_confirmation","","html-keyboard-response","64","427435","0.0-57.0-2.0-0.0","0","0","vRFa3","People","","null","","","","null","","","","1","29","12","","","","","","","","","","","","","","","","","","","","","","","","","","","","","","","","","","","","","",""
"","fixation","","html-keyboard-response","65","428444","0.0-58.0-0.0","0","0","vRFa3","People","","null","","","","null","","","","","","","","","","","","","","","","","","","","","","","","","","","","","","","","","","","","","","","","","","","",""
"","deliberation","","html-keyboard-response","66","430205","0.0-58.0-1.0","0","0","vRFa3","People","","1758","","","","75","","","","2","24","42","0","-1","46","58","joel-mott-LaK153ghdig-unsplash.jpg","prince-akachi-l3IHXOdMyHQ-unsplash.jpg","1","0","42","24","","","","","","","","","","","","","","","","","","","","","","","","","","","",""
"","choice_confirmation","","html-keyboard-response","67","430716","0.0-58.0-2.0-0.0","0","0","vRFa3","People","","null","","","","null","","","","2","24","42","","","","","","","","","","","","","","","","","","","","","","","","","","","","","","","","","","","","","",""
"","fixation","","html-keyboard-response","68","431734","0.0-59.0-0.0","0","0","vRFa3","People","","null","","","","null","","","","","","","","","","","","","","","","","","","","","","","","","","","","","","","","","","","","","","","","","","","",""
"","deliberation","","html-keyboard-response","69","433348","0.0-59.0-1.0","0","0","vRFa3","People","","1611","","","","75","","","","3","5","16","1","-1","56","52","batel-studio-ttSRjiYG_WM-unsplash.jpg","giano-currie-5-9YOsmf8IQ-unsplash.jpg","1","0","16","5","","","","","","","","","","","","","","","","","","","","","","","","","","","",""
"","choice_confirmation","","html-keyboard-response","70","433871","0.0-59.0-2.0-0.0","0","0","vRFa3","People","","null","","","","null","","","","3","5","16","","","","","","","","","","","","","","","","","","","","","","","","","","","","","","","","","","","","","",""
"","explain_trial","","survey-text","71","459019","0.0-59.0-5.0-0.0","0","0","vRFa3","People","","25146","{""Q0"":""The model has more interesting eye contact with the camera.""}","","","","","","","3","5","16","","","","","","","","","","","{""Q0"":""The model has more interesting eye contact with the camera.""}","","","","","","","","","","","","","","","","","","","","","","","","","","",""
"","fixation","","html-keyboard-response","72","460024","0.0-60.0-0.0","0","0","vRFa3","People","","null","","","","null","","","","","","","","","","","","","","","","","","","","","","","","","","","","","","","","","","","","","","","","","","","",""
"","deliberation","","html-keyboard-response","73","461553","0.0-60.0-1.0","0","0","vRFa3","People","","1526","","","","68","","","","4","31","9","1","1","58","45","mathilda-khoo-vLR0YP_otCo-unsplash.jpg","carlos-andres-gomez-vJuk8Y86mRw-unsplash.jpg","1","1","31","9","","","","","","","","","","","","","","","","","","","","","","","","","","","",""
"","choice_confirmation","","html-keyboard-response","74","462065","0.0-60.0-2.0-0.0","0","0","vRFa3","People","","null","","","","null","","","","4","31","9","","","","","","","","","","","","","","","","","","","","","","","","","","","","","","","","","","","","","",""
"","explain_trial","","survey-text","75","487303","0.0-60.0-5.0-0.0","0","0","vRFa3","People","","25236","{""Q0"":""The subject looks mysterious and the photo makes me want to discern her emotions.""}","","","","","","","4","31","9","","","","","","","","","","","{""Q0"":""The subject looks mysterious and the photo makes me want to discern her emotions.""}","","","","","","","","","","","","","","","","","","","","","","","","","","",""
"","fixation","","html-keyboard-response","76","488316","0.0-61.0-0.0","0","0","vRFa3","People","","null","","","","null","","","","","","","","","","","","","","","","","","","","","","","","","","","","","","","","","","","","","","","","","","","",""
"","deliberation","","html-keyboard-response","77","491811","0.0-61.0-1.0","0","0","vRFa3","People","","3493","","","","68","","","","5","21","33","0","-1","55","59","jessica-felicio-_cvwXhGqG-o-unsplash.jpg","olena-sergienko-0TSd6uCKTKc-unsplash.jpg","1","1","21","33","","","","","","","","","","","","","","","","","","","","","","","","","","","",""
"","choice_confirmation","","html-keyboard-response","78","492335","0.0-61.0-2.0-0.0","0","0","vRFa3","People","","null","","","","null","","","","5","21","33","","","","","","","","","","","","","","","","","","","","","","","","","","","","","","","","","","","","","",""
"","fixation","","html-keyboard-response","79","493359","0.0-62.0-0.0","0","0","vRFa3","People","","null","","","","null","","","","","","","","","","","","","","","","","","","","","","","","","","","","","","","","","","","","","","","","","","","",""
"","deliberation","","html-keyboard-response","80","495023","0.0-62.0-1.0","0","0","vRFa3","People","","1661","","","","68","","","","6","45","22","1","1","56","42","sarah-noltner-pL5ZzPp1zqg-unsplash.jpg","jessica-radanavong-mrYkTuAesKE-unsplash.jpg","1","1","45","22","","","","","","","","","","","","","","","","","","","","","","","","","","","",""
"","choice_confirmation","","html-keyboard-response","81","495537","0.0-62.0-2.0-0.0","0","0","vRFa3","People","","null","","","","null","","","","6","45","22","","","","","","","","","","","","","","","","","","","","","","","","","","","","","","","","","","","","","",""
"","explain_trial","","survey-text","82","514406","0.0-62.0-5.0-0.0","0","0","vRFa3","People","","18867","{""Q0"":""It has a more interesting angle and facial expression.""}","","","","","","","6","45","22","","","","","","","","","","","{""Q0"":""It has a more interesting angle and facial expression.""}","","","","","","","","","","","","","","","","","","","","","","","","","","",""
"","fixation","","html-keyboard-response","83","515416","0.0-63.0-0.0","0","0","vRFa3","People","","null","","","","null","","","","","","","","","","","","","","","","","","","","","","","","","","","","","","","","","","","","","","","","","","","",""
"","deliberation","","html-keyboard-response","84","517259","0.0-63.0-1.0","0","0","vRFa3","People","","1840","","","","68","","","","7","2","25","0","-1","54","43","arjunsyah-TBUA5KHJn6k-unsplash.jpg","joseph-gonzalez-iFgRcqHznqg-unsplash.jpg","1","1","2","25","","","","","","","","","","","","","","","","","","","","","","","","","","","",""
"","choice_confirmation","","html-keyboard-response","85","517769","0.0-63.0-2.0-0.0","0","0","vRFa3","People","","null","","","","null","","","","7","2","25","","","","","","","","","","","","","","","","","","","","","","","","","","","","","","","","","","","","","",""
"","fixation","","html-keyboard-response","86","518778","0.0-64.0-0.0","0","0","vRFa3","People","","null","","","","null","","","","","","","","","","","","","","","","","","","","","","","","","","","","","","","","","","","","","","","","","","","",""
"","deliberation","","html-keyboard-response","87","521788","0.0-64.0-1.0","0","0","vRFa3","People","","3008","","","","68","","","","8","40","19","0","1","57","43","prince-akachi-4Yv84VgQkRM-unsplash.jpg","ha-nguy-n-OFSQ6bHjFjs-unsplash.jpg","1","1","40","19","","","","","","","","","","","","","","","","","","","","","","","","","","","",""
"","choice_confirmation","","html-keyboard-response","88","522298","0.0-64.0-2.0-0.0","0","0","vRFa3","People","","null","","","","null","","","","8","40","19","","","","","","","","","","","","","","","","","","","","","","","","","","","","","","","","","","","","","",""
"","fixation","","html-keyboard-response","89","523315","0.0-65.0-0.0","0","0","vRFa3","People","","null","","","","null","","","","","","","","","","","","","","","","","","","","","","","","","","","","","","","","","","","","","","","","","","","",""
"","deliberation","","html-keyboard-response","90","526625","0.0-65.0-1.0","0","0","vRFa3","People","","3306","","","","75","","","","9","8","34","1","-1","42","46","bruce-dixon-3M9WJQVHzog-unsplash.jpg","oliver-johnson-1TUIcKob7Zs-unsplash.jpg","1","0","34","8","","","","","","","","","","","","","","","","","","","","","","","","","","","",""
"","choice_confirmation","","html-keyboard-response","91","527141","0.0-65.0-2.0-0.0","0","0","vRFa3","People","","null","","","","null","","","","9","8","34","","","","","","","","","","","","","","","","","","","","","","","","","","","","","","","","","","","","","",""
"","explain_trial","","survey-text","92","539350","0.0-65.0-5.0-0.0","0","0","vRFa3","People","","12206","{""Q0"":""The eye contact is more compelling.""}","","","","","","","9","8","34","","","","","","","","","","","{""Q0"":""The eye contact is more compelling.""}","","","","","","","","","","","","","","","","","","","","","","","","","","",""
"","fixation","","html-keyboard-response","93","540364","0.0-66.0-0.0","0","0","vRFa3","People","","null","","","","null","","","","","","","","","","","","","","","","","","","","","","","","","","","","","","","","","","","","","","","","","","","",""
"","deliberation","","html-keyboard-response","94","543201","0.0-66.0-1.0","0","0","vRFa3","People","","2835","","","","75","","","","10","23","18","1","1","40","55","joanna-nix-walkup-H4fEMshfwTE-unsplash.jpg","good-faces-xmSWVeGEnJw-unsplash.jpg","1","0","18","23","","","","","","","","","","","","","","","","","","","","","","","","","","","",""
"","choice_confirmation","","html-keyboard-response","95","543709","0.0-66.0-2.0-0.0","0","0","vRFa3","People","","null","","","","null","","","","10","23","18","","","","","","","","","","","","","","","","","","","","","","","","","","","","","","","","","","","","","",""
"","explain_trial","","survey-text","96","553140","0.0-66.0-5.0-0.0","0","0","vRFa3","People","","9428","{""Q0"":""The angle of the face is more interesting.""}","","","","","","","10","23","18","","","","","","","","","","","{""Q0"":""The angle of the face is more interesting.""}","","","","","","","","","","","","","","","","","","","","","","","","","","",""
"","fixation","","html-keyboard-response","97","554161","0.0-67.0-0.0","0","0","vRFa3","People","","null","","","","null","","","","","","","","","","","","","","","","","","","","","","","","","","","","","","","","","","","","","","","","","","","",""
"","deliberation","","html-keyboard-response","98","556420","0.0-67.0-1.0","0","0","vRFa3","People","","2257","","","","68","","","","11","39","41","0","1","43","55","philip-martin-5aGUyCW_PJw-unsplash.jpg","prince-akachi-i2hoD-C2RUA-unsplash.jpg","1","1","39","41","","","","","","","","","","","","","","","","","","","","","","","","","","","",""
"","choice_confirmation","","html-keyboard-response","99","556931","0.0-67.0-2.0-0.0","0","0","vRFa3","People","","null","","","","null","","","","11","39","41","","","","","","","","","","","","","","","","","","","","","","","","","","","","","","","","","","","","","",""
"","practice_deliberation_again","","html-keyboard-response","100","559861","0.0-67.0-6.0-0.0","0","0","vRFa3","People","","2927","","","","78","","","","","","","","","","","","","","","","","","","","","","","","","","","","","","","","","","","","","","","","","","","",""
"","fixation","","html-keyboard-response","101","560877","0.0-68.0-0.0","0","0","vRFa3","People","","null","","","","null","","","","","","","","","","","","","","","","","","","","","","","","","","","","","","","","","","","","","","","","","","","",""
"","deliberation","","html-keyboard-response","102","562663","0.0-68.0-1.0","0","0","vRFa3","People","","1784","","","","68","","","","12","29","12","1","-1","44","47","leilani-angel-K84vnnzxmTQ-unsplash.jpg","daniel-rigdon-dXmXKPP2L4E-unsplash.jpg","2","1","29","12","","","","","","","","","","","","","","","","","","","","","","","","","","","",""
"","choice_confirmation","","html-keyboard-response","103","563174","0.0-68.0-2.0-0.0","0","0","vRFa3","People","","null","","","","null","","","","12","29","12","","","","","","","","","","","","","","","","","","","","","","","","","","","","","","","","","","","","","",""
"","explain_trial","","survey-text","104","585815","0.0-68.0-5.0-0.0","0","0","vRFa3","People","","22639","{""Q0"":""The angle of the face is better and the man seems to be thinking more interesting thoughts.""}","","","","","","","12","29","12","","","","","","","","","","","{""Q0"":""The angle of the face is better and the man seems to be thinking more interesting thoughts.""}","","","","","","","","","","","","","","","","","","","","","","","","","","",""
"","fixation","","html-keyboard-response","105","586823","0.0-69.0-0.0","0","0","vRFa3","People","","null","","","","null","","","","","","","","","","","","","","","","","","","","","","","","","","","","","","","","","","","","","","","","","","","",""
"","deliberation","","html-keyboard-response","106","588953","0.0-69.0-1.0","0","0","vRFa3","People","","2127","","","","68","","","","13","2","25","1","-1","54","43","arjunsyah-TBUA5KHJn6k-unsplash.jpg","joseph-gonzalez-iFgRcqHznqg-unsplash.jpg","2","1","2","25","","","","","","","","","","","","","","","","","","","","","","","","","","","",""
"","choice_confirmation","","html-keyboard-response","107","589456","0.0-69.0-2.0-0.0","0","0","vRFa3","People","","null","","","","null","","","","13","2","25","","","","","","","","","","","","","","","","","","","","","","","","","","","","","","","","","","","","","",""
"","explain_trial","","survey-text","108","626447","0.0-69.0-5.0-0.0","0","0","vRFa3","People","","36988","{""Q0"":""The subject has more a more interesting facial structure and the lighting is cooler.""}","","","","","","","13","2","25","","","","","","","","","","","{""Q0"":""The subject has more a more interesting facial structure and the lighting is cooler.""}","","","","","","","","","","","","","","","","","","","","","","","","","","",""
"","fixation","","html-keyboard-response","109","627458","0.0-70.0-0.0","0","0","vRFa3","People","","null","","","","null","","","","","","","","","","","","","","","","","","","","","","","","","","","","","","","","","","","","","","","","","","","",""
"","deliberation","","html-keyboard-response","110","629156","0.0-70.0-1.0","0","0","vRFa3","People","","1696","","","","75","","","","14","5","16","0","-1","56","52","batel-studio-ttSRjiYG_WM-unsplash.jpg","giano-currie-5-9YOsmf8IQ-unsplash.jpg","2","0","16","5","","","","","","","","","","","","","","","","","","","","","","","","","","","",""
"","choice_confirmation","","html-keyboard-response","111","629666","0.0-70.0-2.0-0.0","0","0","vRFa3","People","","null","","","","null","","","","14","5","16","","","","","","","","","","","","","","","","","","","","","","","","","","","","","","","","","","","","","",""
"","fixation","","html-keyboard-response","112","630691","0.0-71.0-0.0","0","0","vRFa3","People","","null","","","","null","","","","","","","","","","","","","","","","","","","","","","","","","","","","","","","","","","","","","","","","","","","",""
"","deliberation","","html-keyboard-response","113","631796","0.0-71.0-1.0","0","0","vRFa3","People","","1103","","","","75","","","","15","8","34","0","-1","42","46","bruce-dixon-3M9WJQVHzog-unsplash.jpg","oliver-johnson-1TUIcKob7Zs-unsplash.jpg","2","0","34","8","","","","","","","","","","","","","","","","","","","","","","","","","","","",""
"","choice_confirmation","","html-keyboard-response","114","632316","0.0-71.0-2.0-0.0","0","0","vRFa3","People","","null","","","","null","","","","15","8","34","","","","","","","","","","","","","","","","","","","","","","","","","","","","","","","","","","","","","",""
"","fixation","","html-keyboard-response","115","633331","0.0-72.0-0.0","0","0","vRFa3","People","","null","","","","null","","","","","","","","","","","","","","","","","","","","","","","","","","","","","","","","","","","","","","","","","","","",""
"","deliberation","","html-keyboard-response","116","635906","0.0-72.0-1.0","0","0","vRFa3","People","","2573","","","","75","","","","16","23","18","0","1","40","55","joanna-nix-walkup-H4fEMshfwTE-unsplash.jpg","good-faces-xmSWVeGEnJw-unsplash.jpg","2","0","18","23","","","","","","","","","","","","","","","","","","","","","","","","","","","",""
"","choice_confirmation","","html-keyboard-response","117","636413","0.0-72.0-2.0-0.0","0","0","vRFa3","People","","null","","","","null","","","","16","23","18","","","","","","","","","","","","","","","","","","","","","","","","","","","","","","","","","","","","","",""
"","fixation","","html-keyboard-response","118","637421","0.0-73.0-0.0","0","0","vRFa3","People","","null","","","","null","","","","","","","","","","","","","","","","","","","","","","","","","","","","","","","","","","","","","","","","","","","",""
"","deliberation","","html-keyboard-response","119","638601","0.0-73.0-1.0","0","0","vRFa3","People","","1178","","","","75","","","","17","24","42","1","-1","46","58","joel-mott-LaK153ghdig-unsplash.jpg","prince-akachi-l3IHXOdMyHQ-unsplash.jpg","2","0","42","24","","","","","","","","","","","","","","","","","","","","","","","","","","","",""
"","choice_confirmation","","html-keyboard-response","120","639109","0.0-73.0-2.0-0.0","0","0","vRFa3","People","","null","","","","null","","","","17","24","42","","","","","","","","","","","","","","","","","","","","","","","","","","","","","","","","","","","","","",""
"","explain_trial","","survey-text","121","652893","0.0-73.0-5.0-0.0","0","0","vRFa3","People","","13781","{""Q0"":""The eye-contact with the camera is compelling.""}","","","","","","","17","24","42","","","","","","","","","","","{""Q0"":""The eye-contact with the camera is compelling.""}","","","","","","","","","","","","","","","","","","","","","","","","","","",""
"","fixation","","html-keyboard-response","122","653897","0.0-74.0-0.0","0","0","vRFa3","People","","null","","","","null","","","","","","","","","","","","","","","","","","","","","","","","","","","","","","","","","","","","","","","","","","","",""
"","deliberation","","html-keyboard-response","123","655872","0.0-74.0-1.0","0","0","vRFa3","People","","1972","","","","68","","","","18","31","9","0","1","58","45","mathilda-khoo-vLR0YP_otCo-unsplash.jpg","carlos-andres-gomez-vJuk8Y86mRw-unsplash.jpg","2","1","31","9","","","","","","","","","","","","","","","","","","","","","","","","","","","",""
"","choice_confirmation","","html-keyboard-response","124","656379","0.0-74.0-2.0-0.0","0","0","vRFa3","People","","null","","","","null","","","","18","31","9","","","","","","","","","","","","","","","","","","","","","","","","","","","","","","","","","","","","","",""
"","fixation","","html-keyboard-response","125","657388","0.0-75.0-0.0","0","0","vRFa3","People","","null","","","","null","","","","","","","","","","","","","","","","","","","","","","","","","","","","","","","","","","","","","","","","","","","",""
"","deliberation","","html-keyboard-response","126","658986","0.0-75.0-1.0","0","0","vRFa3","People","","1596","","","","68","","","","19","40","19","1","1","57","43","prince-akachi-4Yv84VgQkRM-unsplash.jpg","ha-nguy-n-OFSQ6bHjFjs-unsplash.jpg","2","1","40","19","","","","","","","","","","","","","","","","","","","","","","","","","","","",""
"","choice_confirmation","","html-keyboard-response","127","659501","0.0-75.0-2.0-0.0","0","0","vRFa3","People","","null","","","","null","","","","19","40","19","","","","","","","","","","","","","","","","","","","","","","","","","","","","","","","","","","","","","",""
"","explain_trial","","survey-text","128","678357","0.0-75.0-5.0-0.0","0","0","vRFa3","People","","18854","{""Q0"":""The photo has better saturation and lighting""}","","","","","","","19","40","19","","","","","","","","","","","{""Q0"":""The photo has better saturation and lighting""}","","","","","","","","","","","","","","","","","","","","","","","","","","",""
"","fixation","","html-keyboard-response","129","679367","0.0-76.0-0.0","0","0","vRFa3","People","","null","","","","null","","","","","","","","","","","","","","","","","","","","","","","","","","","","","","","","","","","","","","","","","","","",""
"","deliberation","","html-keyboard-response","130","686563","0.0-76.0-1.0","0","0","vRFa3","People","","7195","","","","68","","","","20","14","47","0","1","55","42","freddy-kearney-o-ioeoATbIM-unsplash.jpg","tyler-nix-ZGa9d1a_4tA-unsplash.jpg","2","1","14","47","","","","","","","","","","","","","","","","","","","","","","","","","","","",""
"","choice_confirmation","","html-keyboard-response","131","687082","0.0-76.0-2.0-0.0","0","0","vRFa3","People","","null","","","","null","","","","20","14","47","","","","","","","","","","","","","","","","","","","","","","","","","","","","","","","","","","","","","",""
"","fixation","","html-keyboard-response","132","688098","0.0-77.0-0.0","0","0","vRFa3","People","","null","","","","null","","","","","","","","","","","","","","","","","","","","","","","","","","","","","","","","","","","","","","","","","","","",""
"","deliberation","","html-keyboard-response","133","689436","0.0-77.0-1.0","0","0","vRFa3","People","","1336","","","","68","","","","21","45","22","0","1","56","42","sarah-noltner-pL5ZzPp1zqg-unsplash.jpg","jessica-radanavong-mrYkTuAesKE-unsplash.jpg","2","1","45","22","","","","","","","","","","","","","","","","","","","","","","","","","","","",""
"","choice_confirmation","","html-keyboard-response","134","689940","0.0-77.0-2.0-0.0","0","0","vRFa3","People","","null","","","","null","","","","21","45","22","","","","","","","","","","","","","","","","","","","","","","","","","","","","","","","","","","","","","",""
"","fixation","","html-keyboard-response","135","690948","0.0-78.0-0.0","0","0","vRFa3","People","","null","","","","null","","","","","","","","","","","","","","","","","","","","","","","","","","","","","","","","","","","","","","","","","","","",""
"","deliberation","","html-keyboard-response","136","692251","0.0-78.0-1.0","0","0","vRFa3","People","","1300","","","","68","","","","22","39","41","1","1","43","55","philip-martin-5aGUyCW_PJw-unsplash.jpg","prince-akachi-i2hoD-C2RUA-unsplash.jpg","2","1","39","41","","","","","","","","","","","","","","","","","","","","","","","","","","","",""
"","choice_confirmation","","html-keyboard-response","137","692757","0.0-78.0-2.0-0.0","0","0","vRFa3","People","","null","","","","null","","","","22","39","41","","","","","","","","","","","","","","","","","","","","","","","","","","","","","","","","","","","","","",""
"","explain_trial","","survey-text","138","718985","0.0-78.0-5.0-0.0","0","0","vRFa3","People","","26226","{""Q0"":""The mans seems to have a more interesting emotional expression.""}","","","","","","","22","39","41","","","","","","","","","","","{""Q0"":""The mans seems to have a more interesting emotional expression.""}","","","","","","","","","","","","","","","","","","","","","","","","","","",""
"","fixation","","html-keyboard-response","139","720004","0.0-79.0-0.0","0","0","vRFa3","People","","null","","","","null","","","","","","","","","","","","","","","","","","","","","","","","","","","","","","","","","","","","","","","","","","","",""
"","deliberation","","html-keyboard-response","140","721658","0.0-79.0-1.0","0","0","vRFa3","People","","1651","","","","68","","","","23","21","33","1","-1","55","59","jessica-felicio-_cvwXhGqG-o-unsplash.jpg","olena-sergienko-0TSd6uCKTKc-unsplash.jpg","2","1","21","33","","","","","","","","","","","","","","","","","","","","","","","","","","","",""
"","choice_confirmation","","html-keyboard-response","141","722165","0.0-79.0-2.0-0.0","0","0","vRFa3","People","","null","","","","null","","","","23","21","33","","","","","","","","","","","","","","","","","","","","","","","","","","","","","","","","","","","","","",""
"","explain_trial","","survey-text","142","755385","0.0-79.0-5.0-0.0","0","0","vRFa3","People","","33218","{""Q0"":""I like the look of tension on her face and the smokey effects. I also like how her hair looks like a heart on the pink background.""}","","","","","","","23","21","33","","","","","","","","","","","{""Q0"":""I like the look of tension on her face and the smokey effects. I also like how her hair looks like a heart on the pink background.""}","","","","","","","","","","","","","","","","","","","","","","","","","","",""
"","start_critical_deliberation_block","","html-keyboard-response","143","792512","0.0-79.0-7.0-0.0","0","0","vRFa3","People","","37124","","","","78","","","","","","","","","","","","","","","","","","","","","","","","","","","","","","","","","","","","","","","","","","","",""
"","fixation","","html-keyboard-response","144","793522","0.0-80.0-0.0","0","0","vRFa3","People","","null","","","","null","","","","","","","","","","","","","","","","","","","","","","","","","","","","","","","","","","","","","","","","","","","",""
"","deliberation","","html-keyboard-response","145","795498","0.0-80.0-1.0","0","0","vRFa3","People","","1973","","","","68","","","","24","21","33","0","-1","55","59","jessica-felicio-_cvwXhGqG-o-unsplash.jpg","olena-sergienko-0TSd6uCKTKc-unsplash.jpg","3","1","21","33","","","","","","","","","","","","","","","","","","","","","","","","","","","",""
"","choice_confirmation","","html-keyboard-response","146","796011","0.0-80.0-2.0-0.0","0","0","vRFa3","People","","null","","","","null","","","","24","21","33","","","","","","","","","","","","","","","","","","","","","","","","","","","","","","","","","","","","","",""
"","fixation","","html-keyboard-response","147","797019","0.0-81.0-0.0","0","0","vRFa3","People","","null","","","","null","","","","","","","","","","","","","","","","","","","","","","","","","","","","","","","","","","","","","","","","","","","",""
"","deliberation","","html-keyboard-response","148","797920","0.0-81.0-1.0","0","0","vRFa3","People","","899","","","","68","","","","25","29","12","0","-1","44","47","leilani-angel-K84vnnzxmTQ-unsplash.jpg","daniel-rigdon-dXmXKPP2L4E-unsplash.jpg","3","1","29","12","","","","","","","","","","","","","","","","","","","","","","","","","","","",""
"","choice_confirmation","","html-keyboard-response","149","798430","0.0-81.0-2.0-0.0","0","0","vRFa3","People","","null","","","","null","","","","25","29","12","","","","","","","","","","","","","","","","","","","","","","","","","","","","","","","","","","","","","",""
"","fixation","","html-keyboard-response","150","799447","0.0-82.0-0.0","0","0","vRFa3","People","","null","","","","null","","","","","","","","","","","","","","","","","","","","","","","","","","","","","","","","","","","","","","","","","","","",""
"","deliberation","","html-keyboard-response","151","800238","0.0-82.0-1.0","0","0","vRFa3","People","","788","","","","68","","","","26","45","22","0","1","56","42","sarah-noltner-pL5ZzPp1zqg-unsplash.jpg","jessica-radanavong-mrYkTuAesKE-unsplash.jpg","3","1","45","22","","","","","","","","","","","","","","","","","","","","","","","","","","","",""
"","choice_confirmation","","html-keyboard-response","152","800752","0.0-82.0-2.0-0.0","0","0","vRFa3","People","","null","","","","null","","","","26","45","22","","","","","","","","","","","","","","","","","","","","","","","","","","","","","","","","","","","","","",""
"","fixation","","html-keyboard-response","153","801768","0.0-83.0-0.0","0","0","vRFa3","People","","null","","","","null","","","","","","","","","","","","","","","","","","","","","","","","","","","","","","","","","","","","","","","","","","","",""
"","deliberation","","html-keyboard-response","154","802524","0.0-83.0-1.0","0","0","vRFa3","People","","754","","","","75","","","","27","5","16","0","-1","56","52","batel-studio-ttSRjiYG_WM-unsplash.jpg","giano-currie-5-9YOsmf8IQ-unsplash.jpg","3","0","16","5","","","","","","","","","","","","","","","","","","","","","","","","","","","",""
"","choice_confirmation","","html-keyboard-response","155","803033","0.0-83.0-2.0-0.0","0","0","vRFa3","People","","null","","","","null","","","","27","5","16","","","","","","","","","","","","","","","","","","","","","","","","","","","","","","","","","","","","","",""
"","fixation","","html-keyboard-response","156","804049","0.0-84.0-0.0","0","0","vRFa3","People","","null","","","","null","","","","","","","","","","","","","","","","","","","","","","","","","","","","","","","","","","","","","","","","","","","",""
"","deliberation","","html-keyboard-response","157","804716","0.0-84.0-1.0","0","0","vRFa3","People","","664","","","","68","","","","28","40","19","0","1","57","43","prince-akachi-4Yv84VgQkRM-unsplash.jpg","ha-nguy-n-OFSQ6bHjFjs-unsplash.jpg","3","1","40","19","","","","","","","","","","","","","","","","","","","","","","","","","","","",""
"","choice_confirmation","","html-keyboard-response","158","805234","0.0-84.0-2.0-0.0","0","0","vRFa3","People","","null","","","","null","","","","28","40","19","","","","","","","","","","","","","","","","","","","","","","","","","","","","","","","","","","","","","",""
"","fixation","","html-keyboard-response","159","806243","0.0-85.0-0.0","0","0","vRFa3","People","","null","","","","null","","","","","","","","","","","","","","","","","","","","","","","","","","","","","","","","","","","","","","","","","","","",""
"","deliberation","","html-keyboard-response","160","807024","0.0-85.0-1.0","0","0","vRFa3","People","","779","","","","75","","","","29","8","34","0","-1","42","46","bruce-dixon-3M9WJQVHzog-unsplash.jpg","oliver-johnson-1TUIcKob7Zs-unsplash.jpg","3","0","34","8","","","","","","","","","","","","","","","","","","","","","","","","","","","",""
"","choice_confirmation","","html-keyboard-response","161","807539","0.0-85.0-2.0-0.0","0","0","vRFa3","People","","null","","","","null","","","","29","8","34","","","","","","","","","","","","","","","","","","","","","","","","","","","","","","","","","","","","","",""
"","fixation","","html-keyboard-response","162","808556","0.0-86.0-0.0","0","0","vRFa3","People","","null","","","","null","","","","","","","","","","","","","","","","","","","","","","","","","","","","","","","","","","","","","","","","","","","",""
"","deliberation","","html-keyboard-response","163","809289","0.0-86.0-1.0","0","0","vRFa3","People","","731","","","","68","","","","30","31","9","0","1","58","45","mathilda-khoo-vLR0YP_otCo-unsplash.jpg","carlos-andres-gomez-vJuk8Y86mRw-unsplash.jpg","3","1","31","9","","","","","","","","","","","","","","","","","","","","","","","","","","","",""
"","choice_confirmation","","html-keyboard-response","164","809804","0.0-86.0-2.0-0.0","0","0","vRFa3","People","","null","","","","null","","","","30","31","9","","","","","","","","","","","","","","","","","","","","","","","","","","","","","","","","","","","","","",""
"","fixation","","html-keyboard-response","165","810821","0.0-87.0-0.0","0","0","vRFa3","People","","null","","","","null","","","","","","","","","","","","","","","","","","","","","","","","","","","","","","","","","","","","","","","","","","","",""
"","deliberation","","html-keyboard-response","166","811546","0.0-87.0-1.0","0","0","vRFa3","People","","722","","","","68","","","","31","14","47","0","1","55","42","freddy-kearney-o-ioeoATbIM-unsplash.jpg","tyler-nix-ZGa9d1a_4tA-unsplash.jpg","3","1","14","47","","","","","","","","","","","","","","","","","","","","","","","","","","","",""
"","choice_confirmation","","html-keyboard-response","167","812061","0.0-87.0-2.0-0.0","0","0","vRFa3","People","","null","","","","null","","","","31","14","47","","","","","","","","","","","","","","","","","","","","","","","","","","","","","","","","","","","","","",""
"","fixation","","html-keyboard-response","168","813069","0.0-88.0-0.0","0","0","vRFa3","People","","null","","","","null","","","","","","","","","","","","","","","","","","","","","","","","","","","","","","","","","","","","","","","","","","","",""
"","deliberation","","html-keyboard-response","169","813950","0.0-88.0-1.0","0","0","vRFa3","People","","879","","","","68","","","","32","2","25","0","-1","54","43","arjunsyah-TBUA5KHJn6k-unsplash.jpg","joseph-gonzalez-iFgRcqHznqg-unsplash.jpg","3","1","2","25","","","","","","","","","","","","","","","","","","","","","","","","","","","",""
"","choice_confirmation","","html-keyboard-response","170","814461","0.0-88.0-2.0-0.0","0","0","vRFa3","People","","null","","","","null","","","","32","2","25","","","","","","","","","","","","","","","","","","","","","","","","","","","","","","","","","","","","","",""
"","fixation","","html-keyboard-response","171","815470","0.0-89.0-0.0","0","0","vRFa3","People","","null","","","","null","","","","","","","","","","","","","","","","","","","","","","","","","","","","","","","","","","","","","","","","","","","",""
"","deliberation","","html-keyboard-response","172","816321","0.0-89.0-1.0","0","0","vRFa3","People","","850","","","","75","","","","33","23","18","0","1","40","55","joanna-nix-walkup-H4fEMshfwTE-unsplash.jpg","good-faces-xmSWVeGEnJw-unsplash.jpg","3","0","18","23","","","","","","","","","","","","","","","","","","","","","","","","","","","",""
"","choice_confirmation","","html-keyboard-response","173","816839","0.0-89.0-2.0-0.0","0","0","vRFa3","People","","null","","","","null","","","","33","23","18","","","","","","","","","","","","","","","","","","","","","","","","","","","","","","","","","","","","","",""
"","fixation","","html-keyboard-response","174","817864","0.0-90.0-0.0","0","0","vRFa3","People","","null","","","","null","","","","","","","","","","","","","","","","","","","","","","","","","","","","","","","","","","","","","","","","","","","",""
"","deliberation","","html-keyboard-response","175","819167","0.0-90.0-1.0","0","0","vRFa3","People","","1300","","","","68","","","","34","39","41","0","1","43","55","philip-martin-5aGUyCW_PJw-unsplash.jpg","prince-akachi-i2hoD-C2RUA-unsplash.jpg","3","1","39","41","","","","","","","","","","","","","","","","","","","","","","","","","","","",""
"","choice_confirmation","","html-keyboard-response","176","819672","0.0-90.0-2.0-0.0","0","0","vRFa3","People","","null","","","","null","","","","34","39","41","","","","","","","","","","","","","","","","","","","","","","","","","","","","","","","","","","","","","",""
"","fixation","","html-keyboard-response","177","820688","0.0-91.0-0.0","0","0","vRFa3","People","","null","","","","null","","","","","","","","","","","","","","","","","","","","","","","","","","","","","","","","","","","","","","","","","","","",""
"","deliberation","","html-keyboard-response","178","821814","0.0-91.0-1.0","0","0","vRFa3","People","","1123","","","","75","","","","35","24","42","0","-1","46","58","joel-mott-LaK153ghdig-unsplash.jpg","prince-akachi-l3IHXOdMyHQ-unsplash.jpg","3","0","42","24","","","","","","","","","","","","","","","","","","","","","","","","","","","",""
"","choice_confirmation","","html-keyboard-response","179","822337","0.0-91.0-2.0-0.0","0","0","vRFa3","People","","null","","","","null","","","","35","24","42","","","","","","","","","","","","","","","","","","","","","","","","","","","","","","","","","","","","","",""
"","reward_learning_instructions","","instructions","180","858735","0.0-92.0-0.0","0","0","vRFa3","People","[{""page_index"":0,""viewing_time"":14601},{""page_index"":1,""viewing_time"":20009},{""page_index"":2,""viewing_time"":1785}]","36395","","","","","","","","","","","","","","","","","","","","","","","","","","","","","","","","","","","","","","","","","","","","","","","",""
"","","","survey-multi-choice","181","867991","0.0-92.0-1.0","0","0","vRFa3","People","","9250","{""Q0"":""True"",""Q1"":""True"",""Q2"":""Press the space bar to see its outcome"",""Q3"":""Press the relevant key while the outcome is presented""}","reward_comprehension_check","0","","","","","","","","","","","","","","","","","","","","","","","","","","","","","","","","","","","","","","","","","","","","",""
"","start_phase","","html-keyboard-response","182","869671","0.0-93.0","0","0","vRFa3","People","","1677","","","","78","","","","","","","","","","","","","","","","","","","","","","","","","","","","","","","","","","","","","","","","","","","",""
"","fixation","","html-keyboard-response","183","870677","0.0-94.0","0","0","vRFa3","People","","null","","","","null","","","","","","","","","","","","","","","","","","","","","","","","","","","","","","","","","","","","","","","","","","","",""
"","see_reward","","html-keyboard-response","184","871454","0.0-95.0","0","0","vRFa3","People","","773","","","","32","","45","","0","","","","1","","","","","1","","","","","150","773","","","","","","","","","","","","","","","","","","","","","","","","",""
"","reward_outcome","","html-keyboard-response","185","873462","0.0-96.0","0","0","vRFa3","People","","1940","","","","38","","45","","0","","","","","","","","","","","","","","","","1","1940","","","","","","","","","","","","","","","","","","","","","","",""
"","fixation","","html-keyboard-response","186","874478","0.0-99.0","0","0","vRFa3","People","","null","","","","null","","","","","","","","","","","","","","","","","","","","","","","","","","","","","","","","","","","","","","","","","","","",""
"","see_reward","","html-keyboard-response","187","875149","0.0-100.0","0","0","vRFa3","People","","668","","","","32","","42","","1","","","","-1","","","","","1","","","","","0","668","","","","","","","","","","","","","","","","","","","","","","","","",""
"","reward_outcome","","html-keyboard-response","188","877167","0.0-101.0","0","0","vRFa3","People","","1223","","","","40","","42","","1","","","","","","","","","","","","","","","","-1","1223","","","","","","","","","","","","","","","","","","","","","","",""
"","fixation","","html-keyboard-response","189","878176","0.0-104.0","0","0","vRFa3","People","","null","","","","null","","","","","","","","","","","","","","","","","","","","","","","","","","","","","","","","","","","","","","","","","","","",""
"","see_reward","","html-keyboard-response","190","878603","0.0-105.0","0","0","vRFa3","People","","425","","","","32","","39","","2","","","","1","","","","","1","","","","","155","425","","","","","","","","","","","","","","","","","","","","","","","","",""
"","reward_outcome","","html-keyboard-response","191","880617","0.0-106.0","0","0","vRFa3","People","","1111","","","","38","","39","","2","","","","","","","","","","","","","","","","1","1111","","","","","","","","","","","","","","","","","","","","","","",""
"","fixation","","html-keyboard-response","192","881633","0.0-109.0","0","0","vRFa3","People","","null","","","","null","","","","","","","","","","","","","","","","","","","","","","","","","","","","","","","","","","","","","","","","","","","",""
"","see_reward","","html-keyboard-response","193","882608","0.0-110.0","0","0","vRFa3","People","","972","","","","32","","18","","3","","","","1","","","","","1","","","","","141","972","","","","","","","","","","","","","","","","","","","","","","","","",""
"","reward_outcome","","html-keyboard-response","194","884627","0.0-111.0","0","0","vRFa3","People","","1119","","","","38","","18","","3","","","","","","","","","","","","","","","","1","1119","","","","","","","","","","","","","","","","","","","","","","",""
"","fixation","","html-keyboard-response","195","885644","0.0-114.0","0","0","vRFa3","People","","null","","","","null","","","","","","","","","","","","","","","","","","","","","","","","","","","","","","","","","","","","","","","","","","","",""
"","see_reward","","html-keyboard-response","196","886177","0.0-115.0","0","0","vRFa3","People","","530","","","","32","","21","","4","","","","-1","","","","","1","","","","","0","530","","","","","","","","","","","","","","","","","","","","","","","","",""
"","reward_outcome","","html-keyboard-response","197","888189","0.0-116.0","0","0","vRFa3","People","","763","","","","40","","21","","4","","","","","","","","","","","","","","","","-1","763","","","","","","","","","","","","","","","","","","","","","","",""
"","fixation","","html-keyboard-response","198","889198","0.0-119.0","0","0","vRFa3","People","","null","","","","null","","","","","","","","","","","","","","","","","","","","","","","","","","","","","","","","","","","","","","","","","","","",""
"","see_reward","","html-keyboard-response","199","889742","0.0-120.0","0","0","vRFa3","People","","542","","","","32","","34","","5","","","","-1","","","","","1","","","","","0","542","","","","","","","","","","","","","","","","","","","","","","","","",""
"","reward_outcome","","html-keyboard-response","200","891751","0.0-121.0","0","0","vRFa3","People","","711","","","","40","","34","","5","","","","","","","","","","","","","","","","-1","711","","","","","","","","","","","","","","","","","","","","","","",""
"","fixation","","html-keyboard-response","201","892759","0.0-124.0","0","0","vRFa3","People","","null","","","","null","","","","","","","","","","","","","","","","","","","","","","","","","","","","","","","","","","","","","","","","","","","",""
"","see_reward","","html-keyboard-response","202","893220","0.0-125.0","0","0","vRFa3","People","","458","","","","32","","14","","6","","","","1","","","","","1","","","","","160","458","","","","","","","","","","","","","","","","","","","","","","","","",""
"","reward_outcome","","html-keyboard-response","203","895231","0.0-126.0","0","0","vRFa3","People","","760","","","","38","","14","","6","","","","","","","","","","","","","","","","1","760","","","","","","","","","","","","","","","","","","","","","","",""
"","fixation","","html-keyboard-response","204","896247","0.0-129.0","0","0","vRFa3","People","","null","","","","null","","","","","","","","","","","","","","","","","","","","","","","","","","","","","","","","","","","","","","","","","","","",""
"","see_reward","","html-keyboard-response","205","897021","0.0-130.0","0","0","vRFa3","People","","771","","","","32","","31","","7","","","","1","","","","","1","","","","","144","771","","","","","","","","","","","","","","","","","","","","","","","","",""
"","reward_outcome","","html-keyboard-response","206","899041","0.0-131.0","0","0","vRFa3","People","","547","","","","38","","31","","7","","","","","","","","","","","","","","","","1","547","","","","","","","","","","","","","","","","","","","","","","",""
"","fixation","","html-keyboard-response","207","900058","0.0-134.0","0","0","vRFa3","People","","null","","","","null","","","","","","","","","","","","","","","","","","","","","","","","","","","","","","","","","","","","","","","","","","","",""
"","see_reward","","html-keyboard-response","208","900609","0.0-135.0","0","0","vRFa3","People","","549","","","","32","","18","","8","","","","1","","","","","1","","","","","141","549","","","","","","","","","","","","","","","","","","","","","","","","",""
"","reward_outcome","","html-keyboard-response","209","902634","0.0-136.0","0","0","vRFa3","People","","664","","","","38","","18","","8","","","","","","","","","","","","","","","","1","664","","","","","","","","","","","","","","","","","","","","","","",""
"","fixation","","html-keyboard-response","210","903658","0.0-139.0","0","0","vRFa3","People","","null","","","","null","","","","","","","","","","","","","","","","","","","","","","","","","","","","","","","","","","","","","","","","","","","",""
"","see_reward","","html-keyboard-response","211","904136","0.0-140.0","0","0","vRFa3","People","","475","","","","32","","16","","9","","","","-1","","","","","1","","","","","0","475","","","","","","","","","","","","","","","","","","","","","","","","",""
"","reward_outcome","","html-keyboard-response","212","906155","0.0-141.0","0","0","vRFa3","People","","911","","","","40","","16","","9","","","","","","","","","","","","","","","","-1","911","","","","","","","","","","","","","","","","","","","","","","",""
"","fixation","","html-keyboard-response","213","907171","0.0-144.0","0","0","vRFa3","People","","null","","","","null","","","","","","","","","","","","","","","","","","","","","","","","","","","","","","","","","","","","","","","","","","","",""
"","see_reward","","html-keyboard-response","214","908410","0.0-145.0","0","0","vRFa3","People","","1237","","","","32","","14","","10","","","","1","","","","","1","","","","","160","1237","","","","","","","","","","","","","","","","","","","","","","","","",""
"","reward_outcome","","html-keyboard-response","215","910421","0.0-146.0","0","0","vRFa3","People","","499","","","","38","","14","","10","","","","","","","","","","","","","","","","1","499","","","","","","","","","","","","","","","","","","","","","","",""
"","fixation","","html-keyboard-response","216","911437","0.0-149.0","0","0","vRFa3","People","","null","","","","null","","","","","","","","","","","","","","","","","","","","","","","","","","","","","","","","","","","","","","","","","","","",""
"","see_reward","","html-keyboard-response","217","911878","0.0-150.0","0","0","vRFa3","People","","439","","","","32","","21","","11","","","","-1","","","","","1","","","","","0","439","","","","","","","","","","","","","","","","","","","","","","","","",""
"","reward_outcome","","html-keyboard-response","218","913887","0.0-151.0","0","0","vRFa3","People","","486","","","","40","","21","","11","","","","","","","","","","","","","","","","-1","486","","","","","","","","","","","","","","","","","","","","","","",""
"","fixation","","html-keyboard-response","219","914896","0.0-154.0","0","0","vRFa3","People","","null","","","","null","","","","","","","","","","","","","","","","","","","","","","","","","","","","","","","","","","","","","","","","","","","",""
"","see_reward","","html-keyboard-response","220","915216","0.0-155.0","0","0","vRFa3","People","","317","","","","32","","16","","12","","","","-1","","","","","1","","","","","0","317","","","","","","","","","","","","","","","","","","","","","","","","",""
"","reward_outcome","","html-keyboard-response","221","917225","0.0-156.0","0","0","vRFa3","People","","473","","","","40","","16","","12","","","","","","","","","","","","","","","","-1","473","","","","","","","","","","","","","","","","","","","","","","",""
"","fixation","","html-keyboard-response","222","918234","0.0-159.0","0","0","vRFa3","People","","null","","","","null","","","","","","","","","","","","","","","","","","","","","","","","","","","","","","","","","","","","","","","","","","","",""
"","see_reward","","html-keyboard-response","223","918723","0.0-160.0","0","0","vRFa3","People","","487","","","","32","","34","","13","","","","-1","","","","","1","","","","","0","487","","","","","","","","","","","","","","","","","","","","","","","","",""
"","reward_outcome","","html-keyboard-response","224","920747","0.0-161.0","0","0","vRFa3","People","","425","","","","40","","34","","13","","","","","","","","","","","","","","","","-1","425","","","","","","","","","","","","","","","","","","","","","","",""
"","fixation","","html-keyboard-response","225","921772","0.0-164.0","0","0","vRFa3","People","","null","","","","null","","","","","","","","","","","","","","","","","","","","","","","","","","","","","","","","","","","","","","","","","","","",""
"","see_reward","","html-keyboard-response","226","922263","0.0-165.0","0","0","vRFa3","People","","489","","","","32","","42","","14","","","","-1","","","","","1","","","","","0","489","","","","","","","","","","","","","","","","","","","","","","","","",""
"","reward_outcome","","html-keyboard-response","227","924284","0.0-166.0","0","0","vRFa3","People","","466","","","","40","","42","","14","","","","","","","","","","","","","","","","-1","466","","","","","","","","","","","","","","","","","","","","","","",""
"","fixation","","html-keyboard-response","228","925301","0.0-169.0","0","0","vRFa3","People","","null","","","","null","","","","","","","","","","","","","","","","","","","","","","","","","","","","","","","","","","","","","","","","","","","",""
"","see_reward","","html-keyboard-response","229","925888","0.0-170.0","0","0","vRFa3","People","","585","","","","32","","40","","15","","","","1","","","","","1","","","","","142","585","","","","","","","","","","","","","","","","","","","","","","","","",""
"","reward_outcome","","html-keyboard-response","230","927895","0.0-171.0","0","0","vRFa3","People","","693","","","","38","","40","","15","","","","","","","","","","","","","","","","1","693","","","","","","","","","","","","","","","","","","","","","","",""
"","fixation","","html-keyboard-response","231","928903","0.0-174.0","0","0","vRFa3","People","","null","","","","null","","","","","","","","","","","","","","","","","","","","","","","","","","","","","","","","","","","","","","","","","","","",""
"","see_reward","","html-keyboard-response","232","929832","0.0-175.0","0","0","vRFa3","People","","927","","","","32","","39","","16","","","","1","","","","","1","","","","","155","927","","","","","","","","","","","","","","","","","","","","","","","","",""
"","reward_outcome","","html-keyboard-response","233","931848","0.0-176.0","0","0","vRFa3","People","","459","","","","38","","39","","16","","","","","","","","","","","","","","","","1","459","","","","","","","","","","","","","","","","","","","","","","",""
"","fixation","","html-keyboard-response","234","932864","0.0-179.0","0","0","vRFa3","People","","null","","","","null","","","","","","","","","","","","","","","","","","","","","","","","","","","","","","","","","","","","","","","","","","","",""
"","see_reward","","html-keyboard-response","235","933458","0.0-180.0","0","0","vRFa3","People","","591","","","","32","","29","","17","","","","-1","","","","","1","","","","","0","591","","","","","","","","","","","","","","","","","","","","","","","","",""
"","reward_outcome","","html-keyboard-response","236","935466","0.0-181.0","0","0","vRFa3","People","","573","","","","40","","29","","17","","","","","","","","","","","","","","","","-1","573","","","","","","","","","","","","","","","","","","","","","","",""
"","fixation","","html-keyboard-response","237","936475","0.0-184.0","0","0","vRFa3","People","","null","","","","null","","","","","","","","","","","","","","","","","","","","","","","","","","","","","","","","","","","","","","","","","","","",""
"","see_reward","","html-keyboard-response","238","937119","0.0-185.0","0","0","vRFa3","People","","641","","","","32","","2","","18","","","","-1","","","","","1","","","","","0","641","","","","","","","","","","","","","","","","","","","","","","","","",""
"","reward_outcome","","html-keyboard-response","239","939132","0.0-186.0","0","0","vRFa3","People","","603","","","","40","","2","","18","","","","","","","","","","","","","","","","-1","603","","","","","","","","","","","","","","","","","","","","","","",""
"","fixation","","html-keyboard-response","240","940148","0.0-189.0","0","0","vRFa3","People","","null","","","","null","","","","","","","","","","","","","","","","","","","","","","","","","","","","","","","","","","","","","","","","","","","",""
"","see_reward","","html-keyboard-response","241","940728","0.0-190.0","0","0","vRFa3","People","","577","","","","32","","40","","19","","","","1","","","","","1","","","","","142","577","","","","","","","","","","","","","","","","","","","","","","","","",""
"","reward_outcome","","html-keyboard-response","242","942742","0.0-191.0","0","0","vRFa3","People","","356","","","","38","","40","","19","","","","","","","","","","","","","","","","1","356","","","","","","","","","","","","","","","","","","","","","","",""
"","fixation","","html-keyboard-response","243","943751","0.0-194.0","0","0","vRFa3","People","","null","","","","null","","","","","","","","","","","","","","","","","","","","","","","","","","","","","","","","","","","","","","","","","","","",""
"","see_reward","","html-keyboard-response","244","944670","0.0-195.0","0","0","vRFa3","People","","917","","","","32","","45","","20","","","","1","","","","","1","","","","","150","917","","","","","","","","","","","","","","","","","","","","","","","","",""
"","reward_outcome","","html-keyboard-response","245","946688","0.0-196.0","0","0","vRFa3","People","","662","","","","38","","45","","20","","","","","","","","","","","","","","","","1","662","","","","","","","","","","","","","","","","","","","","","","",""
"","fixation","","html-keyboard-response","246","947696","0.0-199.0","0","0","vRFa3","People","","null","","","","null","","","","","","","","","","","","","","","","","","","","","","","","","","","","","","","","","","","","","","","","","","","",""
"","see_reward","","html-keyboard-response","247","948387","0.0-200.0","0","0","vRFa3","People","","689","","","","32","","31","","21","","","","1","","","","","1","","","","","144","689","","","","","","","","","","","","","","","","","","","","","","","","",""
"","reward_outcome","","html-keyboard-response","248","950402","0.0-201.0","0","0","vRFa3","People","","1073","","","","38","","31","","21","","","","","","","","","","","","","","","","1","1073","","","","","","","","","","","","","","","","","","","","","","",""
"","fixation","","html-keyboard-response","249","951410","0.0-204.0","0","0","vRFa3","People","","null","","","","null","","","","","","","","","","","","","","","","","","","","","","","","","","","","","","","","","","","","","","","","","","","",""
"","see_reward","","html-keyboard-response","250","952067","0.0-205.0","0","0","vRFa3","People","","655","","","","32","","2","","22","","","","-1","","","","","1","","","","","0","655","","","","","","","","","","","","","","","","","","","","","","","","",""
"","reward_outcome","","html-keyboard-response","251","954091","0.0-206.0","0","0","vRFa3","People","","346","","","","40","","2","","22","","","","","","","","","","","","","","","","-1","346","","","","","","","","","","","","","","","","","","","","","","",""
"","fixation","","html-keyboard-response","252","955107","0.0-209.0","0","0","vRFa3","People","","null","","","","null","","","","","","","","","","","","","","","","","","","","","","","","","","","","","","","","","","","","","","","","","","","",""
"","see_reward","","html-keyboard-response","253","955693","0.0-210.0","0","0","vRFa3","People","","584","","","","32","","29","","23","","","","-1","","","","","1","","","","","0","584","","","","","","","","","","","","","","","","","","","","","","","","",""
"","reward_outcome","","html-keyboard-response","254","957716","0.0-211.0","0","0","vRFa3","People","","197","","","","40","","29","","23","","","","","","","","","","","","","","","","-1","197","","","","","","","","","","","","","","","","","","","","","","",""
"","block_over","","html-keyboard-response","255","959690","0.0-213.0-0.0","0","0","vRFa3","People","","1971","","","","78","","","","","","","","","","","","","","","","","","","","","","","","","","","","","","","","","","","","","","","","","","","",""
"","fixation","","html-keyboard-response","256","960701","0.0-214.0","0","0","vRFa3","People","","null","","","","null","","","","","","","","","","","","","","","","","","","","","","","","","","","","","","","","","","","","","","","","","","","",""
"","see_reward","","html-keyboard-response","257","962191","0.0-215.0","0","0","vRFa3","People","","1488","","","","32","","29","","24","","","","-1","","","","","2","","","","","0","1488","","","","","","","","","","","","","","","","","","","","","","","","",""
"","reward_outcome","","html-keyboard-response","258","964206","0.0-216.0","0","0","vRFa3","People","","915","","","","40","","29","","24","","","","","","","","","","","","","","","","-1","915","","","","","","","","","","","","","","","","","","","","","","",""
"","fixation","","html-keyboard-response","259","965222","0.0-219.0","0","0","vRFa3","People","","null","","","","null","","","","","","","","","","","","","","","","","","","","","","","","","","","","","","","","","","","","","","","","","","","",""
"","see_reward","","html-keyboard-response","260","965883","0.0-220.0","0","0","vRFa3","People","","658","","","","32","","45","","25","","","","1","","","","","2","","","","","150","658","","","","","","","","","","","","","","","","","","","","","","","","",""
"","reward_outcome","","html-keyboard-response","261","967903","0.0-221.0","0","0","vRFa3","People","","479","","","","38","","45","","25","","","","","","","","","","","","","","","","1","479","","","","","","","","","","","","","","","","","","","","","","",""
"","fixation","","html-keyboard-response","262","968919","0.0-224.0","0","0","vRFa3","People","","null","","","","null","","","","","","","","","","","","","","","","","","","","","","","","","","","","","","","","","","","","","","","","","","","",""
"","see_reward","","html-keyboard-response","263","969374","0.0-225.0","0","0","vRFa3","People","","452","","","","32","","2","","26","","","","-1","","","","","2","","","","","0","452","","","","","","","","","","","","","","","","","","","","","","","","",""
"","reward_outcome","","html-keyboard-response","264","971392","0.0-226.0","0","0","vRFa3","People","","322","","","","40","","2","","26","","","","","","","","","","","","","","","","-1","322","","","","","","","","","","","","","","","","","","","","","","",""
"","fixation","","html-keyboard-response","265","972400","0.0-229.0","0","0","vRFa3","People","","null","","","","null","","","","","","","","","","","","","","","","","","","","","","","","","","","","","","","","","","","","","","","","","","","",""
"","see_reward","","html-keyboard-response","266","972842","0.0-230.0","0","0","vRFa3","People","","440","","","","32","","42","","27","","","","-1","","","","","2","","","","","0","440","","","","","","","","","","","","","","","","","","","","","","","","",""
"","reward_outcome","","html-keyboard-response","267","974849","0.0-231.0","0","0","vRFa3","People","","287","","","","40","","42","","27","","","","","","","","","","","","","","","","-1","287","","","","","","","","","","","","","","","","","","","","","","",""
"","fixation","","html-keyboard-response","268","975866","0.0-234.0","0","0","vRFa3","People","","null","","","","null","","","","","","","","","","","","","","","","","","","","","","","","","","","","","","","","","","","","","","","","","","","",""
"","see_reward","","html-keyboard-response","269","976181","0.0-235.0","0","0","vRFa3","People","","312","","","","32","","14","","28","","","","1","","","","","2","","","","","160","312","","","","","","","","","","","","","","","","","","","","","","","","",""
"","reward_outcome","","html-keyboard-response","270","978203","0.0-236.0","0","0","vRFa3","People","","545","","","","38","","14","","28","","","","","","","","","","","","","","","","1","545","","","","","","","","","","","","","","","","","","","","","","",""
"","fixation","","html-keyboard-response","271","979219","0.0-239.0","0","0","vRFa3","People","","null","","","","null","","","","","","","","","","","","","","","","","","","","","","","","","","","","","","","","","","","","","","","","","","","",""
"","see_reward","","html-keyboard-response","272","979700","0.0-240.0","0","0","vRFa3","People","","478","","","","32","","34","","29","","","","-1","","","","","2","","","","","0","478","","","","","","","","","","","","","","","","","","","","","","","","",""
"","reward_outcome","","html-keyboard-response","273","981725","0.0-241.0","0","0","vRFa3","People","","324","","","","40","","34","","29","","","","","","","","","","","","","","","","-1","324","","","","","","","","","","","","","","","","","","","","","","",""
"","fixation","","html-keyboard-response","274","982749","0.0-244.0","0","0","vRFa3","People","","null","","","","null","","","","","","","","","","","","","","","","","","","","","","","","","","","","","","","","","","","","","","","","","","","",""
"","see_reward","","html-keyboard-response","275","983258","0.0-245.0","0","0","vRFa3","People","","507","","","","32","","45","","30","","","","1","","","","","2","","","","","150","507","","","","","","","","","","","","","","","","","","","","","","","","",""
"","reward_outcome","","html-keyboard-response","276","985263","0.0-246.0","0","0","vRFa3","People","","275","","","","38","","45","","30","","","","","","","","","","","","","","","","1","275","","","","","","","","","","","","","","","","","","","","","","",""
"","fixation","","html-keyboard-response","277","986278","0.0-249.0","0","0","vRFa3","People","","null","","","","null","","","","","","","","","","","","","","","","","","","","","","","","","","","","","","","","","","","","","","","","","","","",""
"","see_reward","","html-keyboard-response","278","986794","0.0-250.0","0","0","vRFa3","People","","513","","","","32","","21","","31","","","","-1","","","","","2","","","","","0","513","","","","","","","","","","","","","","","","","","","","","","","","",""
"","reward_outcome","","html-keyboard-response","279","988799","0.0-251.0","0","0","vRFa3","People","","270","","","","40","","21","","31","","","","","","","","","","","","","","","","-1","270","","","","","","","","","","","","","","","","","","","","","","",""
"","fixation","","html-keyboard-response","280","989807","0.0-254.0","0","0","vRFa3","People","","null","","","","null","","","","","","","","","","","","","","","","","","","","","","","","","","","","","","","","","","","","","","","","","","","",""
"","see_reward","","html-keyboard-response","281","990127","0.0-255.0","0","0","vRFa3","People","","318","","","","32","","42","","32","","","","-1","","","","","2","","","","","0","318","","","","","","","","","","","","","","","","","","","","","","","","",""
"","reward_outcome","","html-keyboard-response","282","992135","0.0-256.0","0","0","vRFa3","People","","588","","","","40","","42","","32","","","","","","","","","","","","","","","","-1","588","","","","","","","","","","","","","","","","","","","","","","",""
"","fixation","","html-keyboard-response","283","993152","0.0-259.0","0","0","vRFa3","People","","null","","","","null","","","","","","","","","","","","","","","","","","","","","","","","","","","","","","","","","","","","","","","","","","","",""
"","see_reward","","html-keyboard-response","284","993599","0.0-260.0","0","0","vRFa3","People","","444","","","","32","","2","","33","","","","-1","","","","","2","","","","","0","444","","","","","","","","","","","","","","","","","","","","","","","","",""
"","reward_outcome","","html-keyboard-response","285","995618","0.0-261.0","0","0","vRFa3","People","","557","","","","40","","2","","33","","","","","","","","","","","","","","","","-1","557","","","","","","","","","","","","","","","","","","","","","","",""
"","fixation","","html-keyboard-response","286","996625","0.0-264.0","0","0","vRFa3","People","","null","","","","null","","","","","","","","","","","","","","","","","","","","","","","","","","","","","","","","","","","","","","","","","","","",""
"","see_reward","","html-keyboard-response","287","997089","0.0-265.0","0","0","vRFa3","People","","461","","","","32","","21","","34","","","","-1","","","","","2","","","","","0","461","","","","","","","","","","","","","","","","","","","","","","","","",""
"","reward_outcome","","html-keyboard-response","288","999098","0.0-266.0","0","0","vRFa3","People","","503","","","","40","","21","","34","","","","","","","","","","","","","","","","-1","503","","","","","","","","","","","","","","","","","","","","","","",""
"","fixation","","html-keyboard-response","289","1000116","0.0-269.0","0","0","vRFa3","People","","null","","","","null","","","","","","","","","","","","","","","","","","","","","","","","","","","","","","","","","","","","","","","","","","","",""
"","see_reward","","html-keyboard-response","290","1000876","0.0-270.0","0","0","vRFa3","People","","758","","","","32","","40","","35","","","","1","","","","","2","","","","","142","758","","","","","","","","","","","","","","","","","","","","","","","","",""
"","reward_outcome","","html-keyboard-response","291","1002901","0.0-271.0","0","0","vRFa3","People","","656","","","","38","","40","","35","","","","","","","","","","","","","","","","1","656","","","","","","","","","","","","","","","","","","","","","","",""
"","fixation","","html-keyboard-response","292","1003912","0.0-274.0","0","0","vRFa3","People","","null","","","","null","","","","","","","","","","","","","","","","","","","","","","","","","","","","","","","","","","","","","","","","","","","",""
"","see_reward","","html-keyboard-response","293","1004548","0.0-275.0","0","0","vRFa3","People","","634","","","","32","","18","","36","","","","1","","","","","2","","","","","141","634","","","","","","","","","","","","","","","","","","","","","","","","",""
"","reward_outcome","","html-keyboard-response","294","1006561","0.0-276.0","0","0","vRFa3","People","","580","","","","38","","18","","36","","","","","","","","","","","","","","","","1","580","","","","","","","","","","","","","","","","","","","","","","",""
"","fixation","","html-keyboard-response","295","1007578","0.0-279.0","0","0","vRFa3","People","","null","","","","null","","","","","","","","","","","","","","","","","","","","","","","","","","","","","","","","","","","","","","","","","","","",""
"","see_reward","","html-keyboard-response","296","1008072","0.0-280.0","0","0","vRFa3","People","","492","","","","32","","39","","37","","","","1","","","","","2","","","","","155","492","","","","","","","","","","","","","","","","","","","","","","","","",""
"","reward_outcome","","html-keyboard-response","297","1010081","0.0-281.0","0","0","vRFa3","People","","446","","","","38","","39","","37","","","","","","","","","","","","","","","","1","446","","","","","","","","","","","","","","","","","","","","","","",""
"","fixation","","html-keyboard-response","298","1011090","0.0-284.0","0","0","vRFa3","People","","null","","","","null","","","","","","","","","","","","","","","","","","","","","","","","","","","","","","","","","","","","","","","","","","","",""
"","see_reward","","html-keyboard-response","299","1012686","0.0-285.0","0","0","vRFa3","People","","1594","","","","32","","16","","38","","","","-1","","","","","2","","","","","0","1594","","","","","","","","","","","","","","","","","","","","","","","","",""
"","reward_outcome","","html-keyboard-response","300","1014700","0.0-286.0","0","0","vRFa3","People","","360","","","","40","","16","","38","","","","","","","","","","","","","","","","-1","360","","","","","","","","","","","","","","","","","","","","","","",""
"","fixation","","html-keyboard-response","301","1015717","0.0-289.0","0","0","vRFa3","People","","null","","","","null","","","","","","","","","","","","","","","","","","","","","","","","","","","","","","","","","","","","","","","","","","","",""
"","see_reward","","html-keyboard-response","302","1016785","0.0-290.0","0","0","vRFa3","People","","1066","","","","32","","29","","39","","","","-1","","","","","2","","","","","0","1066","","","","","","","","","","","","","","","","","","","","","","","","",""
"","reward_outcome","","html-keyboard-response","303","1018799","0.0-291.0","0","0","vRFa3","People","","704","","","","40","","29","","39","","","","","","","","","","","","","","","","-1","704","","","","","","","","","","","","","","","","","","","","","","",""
"","fixation","","html-keyboard-response","304","1019807","0.0-294.0","0","0","vRFa3","People","","null","","","","null","","","","","","","","","","","","","","","","","","","","","","","","","","","","","","","","","","","","","","","","","","","",""
"","see_reward","","html-keyboard-response","305","1020469","0.0-295.0","0","0","vRFa3","People","","660","","","","32","","31","","40","","","","1","","","","","2","","","","","144","660","","","","","","","","","","","","","","","","","","","","","","","","",""
"","reward_outcome","","html-keyboard-response","306","1022481","0.0-296.0","0","0","vRFa3","People","","1663","","","","38","","31","","40","","","","","","","","","","","","","","","","1","1663","","","","","","","","","","","","","","","","","","","","","","",""
"","fixation","","html-keyboard-response","307","1023497","0.0-299.0","0","0","vRFa3","People","","null","","","","null","","","","","","","","","","","","","","","","","","","","","","","","","","","","","","","","","","","","","","","","","","","",""
"","see_reward","","html-keyboard-response","308","1024042","0.0-300.0","0","0","vRFa3","People","","542","","","","32","","31","","41","","","","1","","","","","2","","","","","144","542","","","","","","","","","","","","","","","","","","","","","","","","",""
"","reward_outcome","","html-keyboard-response","309","1026057","0.0-301.0","0","0","vRFa3","People","","595","","","","38","","31","","41","","","","","","","","","","","","","","","","1","595","","","","","","","","","","","","","","","","","","","","","","",""
"","fixation","","html-keyboard-response","310","1027074","0.0-304.0","0","0","vRFa3","People","","null","","","","null","","","","","","","","","","","","","","","","","","","","","","","","","","","","","","","","","","","","","","","","","","","",""
"","see_reward","","html-keyboard-response","311","1027492","0.0-305.0","0","0","vRFa3","People","","416","","","","32","","18","","42","","","","1","","","","","2","","","","","141","416","","","","","","","","","","","","","","","","","","","","","","","","",""
"","reward_outcome","","html-keyboard-response","312","1029515","0.0-306.0","0","0","vRFa3","People","","554","","","","38","","18","","42","","","","","","","","","","","","","","","","1","554","","","","","","","","","","","","","","","","","","","","","","",""
"","fixation","","html-keyboard-response","313","1030540","0.0-309.0","0","0","vRFa3","People","","null","","","","null","","","","","","","","","","","","","","","","","","","","","","","","","","","","","","","","","","","","","","","","","","","",""
"","see_reward","","html-keyboard-response","314","1031128","0.0-310.0","0","0","vRFa3","People","","585","","","","32","","40","","43","","","","1","","","","","2","","","","","142","585","","","","","","","","","","","","","","","","","","","","","","","","",""
"","reward_outcome","","html-keyboard-response","315","1033141","0.0-311.0","0","0","vRFa3","People","","363","","","","38","","40","","43","","","","","","","","","","","","","","","","1","363","","","","","","","","","","","","","","","","","","","","","","",""
"","fixation","","html-keyboard-response","316","1034158","0.0-314.0","0","0","vRFa3","People","","null","","","","null","","","","","","","","","","","","","","","","","","","","","","","","","","","","","","","","","","","","","","","","","","","",""
"","see_reward","","html-keyboard-response","317","1034537","0.0-315.0","0","0","vRFa3","People","","376","","","","32","","39","","44","","","","1","","","","","2","","","","","155","376","","","","","","","","","","","","","","","","","","","","","","","","",""
"","reward_outcome","","html-keyboard-response","318","1036551","0.0-316.0","0","0","vRFa3","People","","611","","","","38","","39","","44","","","","","","","","","","","","","","","","1","611","","","","","","","","","","","","","","","","","","","","","","",""
"","fixation","","html-keyboard-response","319","1037567","0.0-319.0","0","0","vRFa3","People","","null","","","","null","","","","","","","","","","","","","","","","","","","","","","","","","","","","","","","","","","","","","","","","","","","",""
"","see_reward","","html-keyboard-response","320","1038063","0.0-320.0","0","0","vRFa3","People","","493","","","","32","","14","","45","","","","1","","","","","2","","","","","160","493","","","","","","","","","","","","","","","","","","","","","","","","",""
"","reward_outcome","","html-keyboard-response","321","1040079","0.0-321.0","0","0","vRFa3","People","","664","","","","38","","14","","45","","","","","","","","","","","","","","","","1","664","","","","","","","","","","","","","","","","","","","","","","",""
"","fixation","","html-keyboard-response","322","1041088","0.0-324.0","0","0","vRFa3","People","","null","","","","null","","","","","","","","","","","","","","","","","","","","","","","","","","","","","","","","","","","","","","","","","","","",""
"","see_reward","","html-keyboard-response","323","1041583","0.0-325.0","0","0","vRFa3","People","","492","","","","32","","34","","46","","","","-1","","","","","2","","","","","0","492","","","","","","","","","","","","","","","","","","","","","","","","",""
"","reward_outcome","","html-keyboard-response","324","1043592","0.0-326.0","0","0","vRFa3","People","","558","","","","40","","34","","46","","","","","","","","","","","","","","","","-1","558","","","","","","","","","","","","","","","","","","","","","","",""
"","fixation","","html-keyboard-response","325","1044609","0.0-329.0","0","0","vRFa3","People","","null","","","","null","","","","","","","","","","","","","","","","","","","","","","","","","","","","","","","","","","","","","","","","","","","",""
"","see_reward","","html-keyboard-response","326","1045223","0.0-330.0","0","0","vRFa3","People","","612","","","","32","","16","","47","","","","-1","","","","","2","","","","","0","612","","","","","","","","","","","","","","","","","","","","","","","","",""
"","reward_outcome","","html-keyboard-response","327","1047244","0.0-331.0","0","0","vRFa3","People","","300","","","","40","","16","","47","","","","","","","","","","","","","","","","-1","300","","","","","","","","","","","","","","","","","","","","","","",""
"","block_over","","html-keyboard-response","328","1048691","0.0-333.0-0.0","0","0","vRFa3","People","","1445","","","","78","","","","","","","","","","","","","","","","","","","","","","","","","","","","","","","","","","","","","","","","","","","",""
"","fixation","","html-keyboard-response","329","1049707","0.0-334.0","0","0","vRFa3","People","","null","","","","null","","","","","","","","","","","","","","","","","","","","","","","","","","","","","","","","","","","","","","","","","","","",""
"","see_reward","","html-keyboard-response","330","1050927","0.0-335.0","0","0","vRFa3","People","","1218","","","","32","","16","","48","","","","-1","","","","","3","","","","","0","1218","","","","","","","","","","","","","","","","","","","","","","","","",""
"","reward_outcome","","html-keyboard-response","331","1052948","0.0-336.0","0","0","vRFa3","People","","333","","","","40","","16","","48","","","","","","","","","","","","","","","","-1","333","","","","","","","","","","","","","","","","","","","","","","",""
"","fixation","","html-keyboard-response","332","1053964","0.0-339.0","0","0","vRFa3","People","","null","","","","null","","","","","","","","","","","","","","","","","","","","","","","","","","","","","","","","","","","","","","","","","","","",""
"","see_reward","","html-keyboard-response","333","1054351","0.0-340.0","0","0","vRFa3","People","","385","","","","32","","21","","49","","","","-1","","","","","3","","","","","0","385","","","","","","","","","","","","","","","","","","","","","","","","",""
"","reward_outcome","","html-keyboard-response","334","1056365","0.0-341.0","0","0","vRFa3","People","","605","","","","40","","21","","49","","","","","","","","","","","","","","","","-1","605","","","","","","","","","","","","","","","","","","","","","","",""
"","fixation","","html-keyboard-response","335","1057389","0.0-344.0","0","0","vRFa3","People","","null","","","","null","","","","","","","","","","","","","","","","","","","","","","","","","","","","","","","","","","","","","","","","","","","",""
"","see_reward","","html-keyboard-response","336","1057682","0.0-345.0","0","0","vRFa3","People","","290","","","","32","","21","","50","","","","-1","","","","","3","","","","","0","290","","","","","","","","","","","","","","","","","","","","","","","","",""
"","reward_outcome","","html-keyboard-response","337","1059686","0.0-346.0","0","0","vRFa3","People","","975","","","","40","","21","","50","","","","","","","","","","","","","","","","-1","975","","","","","","","","","","","","","","","","","","","","","","",""
"","fixation","","html-keyboard-response","338","1060694","0.0-349.0","0","0","vRFa3","People","","null","","","","null","","","","","","","","","","","","","","","","","","","","","","","","","","","","","","","","","","","","","","","","","","","",""
"","see_reward","","html-keyboard-response","339","1061029","0.0-350.0","0","0","vRFa3","People","","333","","","","32","","45","","51","","","","1","","","","","3","","","","","150","333","","","","","","","","","","","","","","","","","","","","","","","","",""
"","reward_outcome","","html-keyboard-response","340","1063047","0.0-351.0","0","0","vRFa3","People","","468","","","","38","","45","","51","","","","","","","","","","","","","","","","1","468","","","","","","","","","","","","","","","","","","","","","","",""
"","fixation","","html-keyboard-response","341","1064055","0.0-354.0","0","0","vRFa3","People","","null","","","","null","","","","","","","","","","","","","","","","","","","","","","","","","","","","","","","","","","","","","","","","","","","",""
"","see_reward","","html-keyboard-response","342","1064716","0.0-355.0","0","0","vRFa3","People","","658","","","","32","","29","","52","","","","-1","","","","","3","","","","","0","658","","","","","","","","","","","","","","","","","","","","","","","","",""
"","reward_outcome","","html-keyboard-response","343","1066729","0.0-356.0","0","0","vRFa3","People","","308","","","","40","","29","","52","","","","","","","","","","","","","","","","-1","308","","","","","","","","","","","","","","","","","","","","","","",""
"","fixation","","html-keyboard-response","344","1067745","0.0-359.0","0","0","vRFa3","People","","null","","","","null","","","","","","","","","","","","","","","","","","","","","","","","","","","","","","","","","","","","","","","","","","","",""
"","see_reward","","html-keyboard-response","345","1068314","0.0-360.0","0","0","vRFa3","People","","566","","","","32","","42","","53","","","","-1","","","","","3","","","","","0","566","","","","","","","","","","","","","","","","","","","","","","","","",""
"","reward_outcome","","html-keyboard-response","346","1070323","0.0-361.0","0","0","vRFa3","People","","326","","","","40","","42","","53","","","","","","","","","","","","","","","","-1","326","","","","","","","","","","","","","","","","","","","","","","",""
"","fixation","","html-keyboard-response","347","1071331","0.0-364.0","0","0","vRFa3","People","","null","","","","null","","","","","","","","","","","","","","","","","","","","","","","","","","","","","","","","","","","","","","","","","","","",""
"","see_reward","","html-keyboard-response","348","1071916","0.0-365.0","0","0","vRFa3","People","","583","","","","32","","31","","54","","","","1","","","","","3","","","","","144","583","","","","","","","","","","","","","","","","","","","","","","","","",""
"","reward_outcome","","html-keyboard-response","349","1073932","0.0-366.0","0","0","vRFa3","People","","278","","","","38","","31","","54","","","","","","","","","","","","","","","","1","278","","","","","","","","","","","","","","","","","","","","","","",""
"","fixation","","html-keyboard-response","350","1074956","0.0-369.0","0","0","vRFa3","People","","null","","","","null","","","","","","","","","","","","","","","","","","","","","","","","","","","","","","","","","","","","","","","","","","","",""
