"success","ttype","start_time","trial_type","trial_index","time_elapsed","internal_node_id","warning","missed_checkup","PID","stim_type","view_history","rt","responses","category","repeat_instructions","key_press","response","stimulus_id","painting","index","stimulus_left","stimulus_right","explain_trial","reward_type","rating_left","rating_right","painting_left","painting_right","block","left_chosen","chosen_obj","unchosen_obj","explain_response","reward_amount","see_reward_rt","register_reward_response","register_reward_rt","deliberation_reward_tally","stimulus_left_deliberation_ind","stimulus_right_deliberation_ind","chosen_trial","gain_left","higher_outcome_chosen","old_pair","chosen_object","rt_pairs","left_object_chosen","rt_object","old_response","new_rating","deliberated_stim","initial_rating","outcome_eval_rt","outcome_eval_response","outcome_eval_gain","outcome_eval_acc","preamble","outcome_eval_confidence","outcome_eval_confidence_rt","total_reward_tally"
"true","full_screen","d01182023hr1444","fullscreen","0","17372","0.0-0.0","0","0","BAPFD","People","","","","","","","","","","","","","","","","","","","","","","","","","","","","","","","","","","","","","","","","","","","","","","","","","",""
"","rating_instructions","","instructions","1","41429","0.0-1.0-0.0","0","0","BAPFD","People","[{""page_index"":0,""viewing_time"":18521},{""page_index"":1,""viewing_time"":5536}]","24057","","","","","","","","","","","","","","","","","","","","","","","","","","","","","","","","","","","","","","","","","","","","","","","",""
"","","","survey-multi-choice","2","54803","0.0-1.0-1.0","0","0","BAPFD","People","","13364","{""Q0"":""True"",""Q1"":""Mouse""}","rating_comprehension_check","0","","","","","","","","","","","","","","","","","","","","","","","","","","","","","","","","","","","","","","","","","","","","",""
"","start_phase","","html-keyboard-response","3","59736","0.0-2.0","0","0","BAPFD","People","","4927","","","","78","","","","","","","","","","","","","","","","","","","","","","","","","","","","","","","","","","","","","","","","","","","",""
"","rating","","html-slider-response","4","65636","0.0-3.0","0","0","BAPFD","People","","5793","","","","","100","17","gleb-lukomets-paBzWCPN23k-unsplash.jpg","0","","","","","","","","","","","","","","","","","","","","","","","","","","","","","","","","","","","","","","","",""
"","rating","","html-slider-response","5","70582","0.0-4.0","0","0","BAPFD","People","","4933","","","","","94","21","jessica-felicio-_cvwXhGqG-o-unsplash.jpg","1","","","","","","","","","","","","","","","","","","","","","","","","","","","","","","","","","","","","","","","",""
"","rating","","html-slider-response","6","82626","0.0-5.0","0","0","BAPFD","People","","12030","","","","","85","8","bruce-dixon-3M9WJQVHzog-unsplash.jpg","2","","","","","","","","","","","","","","","","","","","","","","","","","","","","","","","","","","","","","","","",""
"","rating","","html-slider-response","7","93263","0.0-6.0","0","0","BAPFD","People","","10626","","","","","93","30","matheus-ferrero-pg_WCHWSdT8-unsplash.jpg","3","","","","","","","","","","","","","","","","","","","","","","","","","","","","","","","","","","","","","","","",""
"","rating","","html-slider-response","8","97637","0.0-7.0","0","0","BAPFD","People","","4367","","","","","73","44","rikonavt-HQjfrvdTfak-unsplash.jpg","4","","","","","","","","","","","","","","","","","","","","","","","","","","","","","","","","","","","","","","","",""
"","rating","","html-slider-response","9","101689","0.0-8.0","0","0","BAPFD","People","","4050","","","","","73","34","oliver-johnson-1TUIcKob7Zs-unsplash.jpg","5","","","","","","","","","","","","","","","","","","","","","","","","","","","","","","","","","","","","","","","",""
"","rating","","html-slider-response","10","106142","0.0-9.0","0","0","BAPFD","People","","4451","","","","","90","27","jurica-koletic-7YVZYZeITc8-unsplash.jpg","6","","","","","","","","","","","","","","","","","","","","","","","","","","","","","","","","","","","","","","","",""
"","rating","","html-slider-response","11","110859","0.0-10.0","0","0","BAPFD","People","","4714","","","","","83","10","charles-etoroma-95UF6LXe-Lo-unsplash.jpg","7","","","","","","","","","","","","","","","","","","","","","","","","","","","","","","","","","","","","","","","",""
"","rating","","html-slider-response","12","117529","0.0-11.0","0","0","BAPFD","People","","6653","","","","","98","5","batel-studio-ttSRjiYG_WM-unsplash.jpg","8","","","","","","","","","","","","","","","","","","","","","","","","","","","","","","","","","","","","","","","",""
"","rating","","html-slider-response","13","121771","0.0-12.0","0","0","BAPFD","People","","4234","","","","","80","41","prince-akachi-i2hoD-C2RUA-unsplash.jpg","9","","","","","","","","","","","","","","","","","","","","","","","","","","","","","","","","","","","","","","","",""
"","rating","","html-slider-response","14","126061","0.0-13.0","0","0","BAPFD","People","","4287","","","","","83","6","ben-o-bro-C5XyLljkMrY-unsplash.jpg","10","","","","","","","","","","","","","","","","","","","","","","","","","","","","","","","","","","","","","","","",""
"","rating","","html-slider-response","15","131997","0.0-14.0","0","0","BAPFD","People","","5933","","","","","70","31","mathilda-khoo-vLR0YP_otCo-unsplash.jpg","11","","","","","","","","","","","","","","","","","","","","","","","","","","","","","","","","","","","","","","","",""
"","rating","","html-slider-response","16","135604","0.0-15.0","0","0","BAPFD","People","","3599","","","","","71","23","joanna-nix-walkup-H4fEMshfwTE-unsplash.jpg","12","","","","","","","","","","","","","","","","","","","","","","","","","","","","","","","","","","","","","","","",""
"","rating","","html-slider-response","17","139747","0.0-16.0","0","0","BAPFD","People","","4140","","","","","73","13","erik-lucatero-d2MSDujJl2g-unsplash.jpg","13","","","","","","","","","","","","","","","","","","","","","","","","","","","","","","","","","","","","","","","",""
"","rating","","html-slider-response","18","143002","0.0-17.0","0","0","BAPFD","People","","3246","","","","","76","7","brooke-cagle-HRZUzoX1e6w-unsplash.jpg","14","","","","","","","","","","","","","","","","","","","","","","","","","","","","","","","","","","","","","","","",""
"","rating","","html-slider-response","19","147029","0.0-18.0","0","0","BAPFD","People","","4016","","","","","93","3","art-hauntington-jzY0KRJopEI-unsplash.jpg","15","","","","","","","","","","","","","","","","","","","","","","","","","","","","","","","","","","","","","","","",""
"","rating","","html-slider-response","20","150954","0.0-19.0","0","0","BAPFD","People","","3920","","","","","74","14","freddy-kearney-o-ioeoATbIM-unsplash.jpg","16","","","","","","","","","","","","","","","","","","","","","","","","","","","","","","","","","","","","","","","",""
"","rating","","html-slider-response","21","155099","0.0-20.0","0","0","BAPFD","People","","4115","","","","","87","25","joseph-gonzalez-iFgRcqHznqg-unsplash.jpg","17","","","","","","","","","","","","","","","","","","","","","","","","","","","","","","","","","","","","","","","",""
"","rating","","html-slider-response","22","159006","0.0-21.0","0","0","BAPFD","People","","3898","","","","","91","40","prince-akachi-4Yv84VgQkRM-unsplash.jpg","18","","","","","","","","","","","","","","","","","","","","","","","","","","","","","","","","","","","","","","","",""
"","rating","","html-slider-response","23","165081","0.0-22.0","0","0","BAPFD","People","","6063","","","","","70","42","prince-akachi-l3IHXOdMyHQ-unsplash.jpg","19","","","","","","","","","","","","","","","","","","","","","","","","","","","","","","","","","","","","","","","",""
"","rating","","html-slider-response","24","170618","0.0-23.0","0","0","BAPFD","People","","5526","","","","","50","18","good-faces-xmSWVeGEnJw-unsplash.jpg","20","","","","","","","","","","","","","","","","","","","","","","","","","","","","","","","","","","","","","","","",""
"","rating","","html-slider-response","25","175524","0.0-24.0","0","0","BAPFD","People","","4901","","","","","69","38","petr-sevcovic-HzDF-rxlSeM-unsplash.jpg","21","","","","","","","","","","","","","","","","","","","","","","","","","","","","","","","","","","","","","","","",""
"","rating","","html-slider-response","26","179075","0.0-25.0","0","0","BAPFD","People","","3540","","","","","86","45","sarah-noltner-pL5ZzPp1zqg-unsplash.jpg","22","","","","","","","","","","","","","","","","","","","","","","","","","","","","","","","","","","","","","","","",""
"","rating","","html-slider-response","27","182960","0.0-26.0","0","0","BAPFD","People","","3882","","","","","83","26","juri-gianfrancesco-9EZadYaMzk4-unsplash.jpg","23","","","","","","","","","","","","","","","","","","","","","","","","","","","","","","","","","","","","","","","",""
"","rating","","html-slider-response","28","186711","0.0-27.0","0","0","BAPFD","People","","3747","","","","","97","43","raamin-ka-0qJBEzudn5E-unsplash.jpg","24","","","","","","","","","","","","","","","","","","","","","","","","","","","","","","","","","","","","","","","",""
"","rating","","html-slider-response","29","191678","0.0-28.0","0","0","BAPFD","People","","4965","","","","","83","47","tyler-nix-ZGa9d1a_4tA-unsplash.jpg","25","","","","","","","","","","","","","","","","","","","","","","","","","","","","","","","","","","","","","","","",""
"","rating","","html-slider-response","30","195828","0.0-29.0","0","0","BAPFD","People","","4148","","","","","98","36","ospan-ali-mGdA2fzjWLo-unsplash.jpg","26","","","","","","","","","","","","","","","","","","","","","","","","","","","","","","","","","","","","","","","",""
"","rating","","html-slider-response","31","199983","0.0-30.0","0","0","BAPFD","People","","4150","","","","","98","46","stefan-stefancik-QXevDflbl8A-unsplash.jpg","27","","","","","","","","","","","","","","","","","","","","","","","","","","","","","","","","","","","","","","","",""
"","rating","","html-slider-response","32","205629","0.0-31.0","0","0","BAPFD","People","","5638","","","","","73","37","pavel-anoshin-d0peGya6R5Y-unsplash.jpg","28","","","","","","","","","","","","","","","","","","","","","","","","","","","","","","","","","","","","","","","",""
"","rating","","html-slider-response","33","209309","0.0-32.0","0","0","BAPFD","People","","3666","","","","","97","35","oliver-ragfelt-khV4fTy6-D8-unsplash.jpg","29","","","","","","","","","","","","","","","","","","","","","","","","","","","","","","","","","","","","","","","",""
"","rating","","html-slider-response","34","213020","0.0-33.0","0","0","BAPFD","People","","3709","","","","","99","24","joel-mott-LaK153ghdig-unsplash.jpg","30","","","","","","","","","","","","","","","","","","","","","","","","","","","","","","","","","","","","","","","",""
"","rating","","html-slider-response","35","216501","0.0-34.0","0","0","BAPFD","People","","3477","","","","","79","16","giano-currie-5-9YOsmf8IQ-unsplash.jpg","31","","","","","","","","","","","","","","","","","","","","","","","","","","","","","","","","","","","","","","","",""
"","rating","","html-slider-response","36","223011","0.0-35.0","0","0","BAPFD","People","","6506","","","","","64","20","houcine-ncib-B4TjXnI0Y2c-unsplash.jpg","32","","","","","","","","","","","","","","","","","","","","","","","","","","","","","","","","","","","","","","","",""
"","rating","","html-slider-response","37","230061","0.0-36.0","0","0","BAPFD","People","","7047","","","","","44","32","nathan-dumlao-ger61_TX6oI-unsplash.jpg","33","","","","","","","","","","","","","","","","","","","","","","","","","","","","","","","","","","","","","","","",""
"","rating","","html-slider-response","38","232890","0.0-37.0","0","0","BAPFD","People","","2826","","","","","71","39","philip-martin-5aGUyCW_PJw-unsplash.jpg","34","","","","","","","","","","","","","","","","","","","","","","","","","","","","","","","","","","","","","","","",""
"","rating","","html-slider-response","39","236046","0.0-38.0","0","0","BAPFD","People","","3155","","","","","78","12","daniel-rigdon-dXmXKPP2L4E-unsplash.jpg","35","","","","","","","","","","","","","","","","","","","","","","","","","","","","","","","","","","","","","","","",""
"","rating","","html-slider-response","40","240993","0.0-39.0","0","0","BAPFD","People","","4944","","","","","66","2","arjunsyah-TBUA5KHJn6k-unsplash.jpg","36","","","","","","","","","","","","","","","","","","","","","","","","","","","","","","","","","","","","","","","",""
"","rating","","html-slider-response","41","244409","0.0-40.0","0","0","BAPFD","People","","3404","","","","","71","1","aiony-haust-jmATI5Q_YgY-unsplash.jpg","37","","","","","","","","","","","","","","","","","","","","","","","","","","","","","","","","","","","","","","","",""
"","rating","","html-slider-response","42","247481","0.0-41.0","0","0","BAPFD","People","","3063","","","","","77","28","justin-chen-J7Cf1Gch49E-unsplash.jpg","38","","","","","","","","","","","","","","","","","","","","","","","","","","","","","","","","","","","","","","","",""
"","rating","","html-slider-response","43","251221","0.0-42.0","0","0","BAPFD","People","","3736","","","","","94","33","olena-sergienko-0TSd6uCKTKc-unsplash.jpg","39","","","","","","","","","","","","","","","","","","","","","","","","","","","","","","","","","","","","","","","",""
"","rating","","html-slider-response","44","258128","0.0-43.0","0","0","BAPFD","People","","6903","","","","","69","15","gabriel-silverio-u3WmDyKGsrY-unsplash.jpg","40","","","","","","","","","","","","","","","","","","","","","","","","","","","","","","","","","","","","","","","",""
"","rating","","html-slider-response","45","261448","0.0-44.0","0","0","BAPFD","People","","3315","","","","","83","19","ha-nguy-n-OFSQ6bHjFjs-unsplash.jpg","41","","","","","","","","","","","","","","","","","","","","","","","","","","","","","","","","","","","","","","","",""
"","rating","","html-slider-response","46","267189","0.0-45.0","0","0","BAPFD","People","","5739","","","","","66","49","vicky-hladynets-_gDoyVv5F4c-unsplash.jpg","42","","","","","","","","","","","","","","","","","","","","","","","","","","","","","","","","","","","","","","","",""
"","rating","","html-slider-response","47","270245","0.0-46.0","0","0","BAPFD","People","","3051","","","","","68","0","abstral-official-cyOKLSgkgCE-unsplash.jpg","43","","","","","","","","","","","","","","","","","","","","","","","","","","","","","","","","","","","","","","","",""
"","rating","","html-slider-response","48","273674","0.0-47.0","0","0","BAPFD","People","","3426","","","","","79","4","barna-bartis-2x3vfVxwR7o-unsplash.jpg","44","","","","","","","","","","","","","","","","","","","","","","","","","","","","","","","","","","","","","","","",""
"","rating","","html-slider-response","49","277430","0.0-48.0","0","0","BAPFD","People","","3753","","","","","79","22","jessica-radanavong-mrYkTuAesKE-unsplash.jpg","45","","","","","","","","","","","","","","","","","","","","","","","","","","","","","","","","","","","","","","","",""
"","rating","","html-slider-response","50","283112","0.0-49.0","0","0","BAPFD","People","","5677","","","","","70","48","velizar-ivanov-7ktP9yZA1g4-unsplash.jpg","46","","","","","","","","","","","","","","","","","","","","","","","","","","","","","","","","","","","","","","","",""
"","rating","","html-slider-response","51","287987","0.0-50.0","0","0","BAPFD","People","","4875","","","","","76","29","leilani-angel-K84vnnzxmTQ-unsplash.jpg","47","","","","","","","","","","","","","","","","","","","","","","","","","","","","","","","","","","","","","","","",""
"","rating","","html-slider-response","52","290997","0.0-51.0","0","0","BAPFD","People","","3005","","","","","97","9","carlos-andres-gomez-vJuk8Y86mRw-unsplash.jpg","48","","","","","","","","","","","","","","","","","","","","","","","","","","","","","","","","","","","","","","","",""
"","rating","","html-slider-response","53","294608","0.0-52.0","0","0","BAPFD","People","","3607","","","","","96","11","christian-ferrer-8vT-DgHZDG4-unsplash.jpg","49","","","","","","","","","","","","","","","","","","","","","","","","","","","","","","","","","","","","","","","",""
"","deliberation_instructions","","instructions","54","401994","0.0-53.0-0.0","0","0","BAPFD","People","[{""page_index"":0,""viewing_time"":26240},{""page_index"":1,""viewing_time"":36875},{""page_index"":2,""viewing_time"":9914},{""page_index"":3,""viewing_time"":29881},{""page_index"":4,""viewing_time"":4464}]","107375","","","","","","","","","","","","","","","","","","","","","","","","","","","","","","","","","","","","","","","","","","","","","","","",""
"","","","survey-multi-choice","55","453533","0.0-53.0-1.0","0","0","BAPFD","People","","51521","{""Q0"":""True"",""Q1"":""False"",""Q2"":""Consider carefully and take your time (up to 10 seconds)"",""Q3"":""True"",""Q4"":""D""}","deliberation_comprehension_check","1","","","","","","","","","","","","","","","","","","","","","","","","","","","","","","","","","","","","","","","","","","","","",""
"","missed_instruction_checkup","","html-keyboard-response","56","458920","0.0-53.0-2.0-0.0","0","1","BAPFD","People","","5384","","","","78","","","","","","","","","","","","","","","","","","","","","","","","","","","","","","","","","","","","","","","","","","","",""
"","deliberation_instructions","","instructions","57","543462","0.0-53.1-0.1","0","0","BAPFD","People","[{""page_index"":0,""viewing_time"":19484},{""page_index"":1,""viewing_time"":23217},{""page_index"":2,""viewing_time"":35047},{""page_index"":3,""viewing_time"":4659},{""page_index"":4,""viewing_time"":2128}]","84537","","","","","","","","","","","","","","","","","","","","","","","","","","","","","","","","","","","","","","","","","","","","","","","",""
"","","","survey-multi-choice","58","585797","0.0-53.1-1.1","0","0","BAPFD","People","","42288","{""Q0"":""True"",""Q1"":""True"",""Q2"":""Do it as quickly as possible"",""Q3"":""True"",""Q4"":""D""}","deliberation_comprehension_check","1","","","","","","","","","","","","","","","","","","","","","","","","","","","","","","","","","","","","","","","","","","","","",""
"","missed_instruction_checkup","","html-keyboard-response","59","589276","0.0-53.1-2.1-0.1","0","1","BAPFD","People","","3473","","","","78","","","","","","","","","","","","","","","","","","","","","","","","","","","","","","","","","","","","","","","","","","","",""
"","deliberation_instructions","","instructions","60","622565","0.0-53.2-0.2","0","0","BAPFD","People","[{""page_index"":0,""viewing_time"":3978},{""page_index"":1,""viewing_time"":6721},{""page_index"":2,""viewing_time"":12685},{""page_index"":3,""viewing_time"":7351},{""page_index"":4,""viewing_time"":2550}]","33289","","","","","","","","","","","","","","","","","","","","","","","","","","","","","","","","","","","","","","","","","","","","","","","",""
"","","","survey-multi-choice","61","659667","0.0-53.2-1.2","0","0","BAPFD","People","","37079","{""Q0"":""True"",""Q1"":""False"",""Q2"":""Consider carefully and take your time (up to 10 seconds)"",""Q3"":""True"",""Q4"":""D""}","deliberation_comprehension_check","1","","","","","","","","","","","","","","","","","","","","","","","","","","","","","","","","","","","","","","","","","","","","",""
"","missed_instruction_checkup","","html-keyboard-response","62","662004","0.0-53.2-2.2-0.2","0","1","BAPFD","People","","2329","","","","78","","","","","","","","","","","","","","","","","","","","","","","","","","","","","","","","","","","","","","","","","","","",""
"","deliberation_instructions","","instructions","63","669206","0.0-53.3-0.3","0","0","BAPFD","People","[{""page_index"":0,""viewing_time"":1501},{""page_index"":1,""viewing_time"":1655},{""page_index"":2,""viewing_time"":850},{""page_index"":3,""viewing_time"":1334},{""page_index"":4,""viewing_time"":1860}]","7200","","","","","","","","","","","","","","","","","","","","","","","","","","","","","","","","","","","","","","","","","","","","","","","",""
"","","","survey-multi-choice","64","679065","0.0-53.3-1.3","0","0","BAPFD","People","","9855","{""Q0"":""True"",""Q1"":""False"",""Q2"":""Do it as quickly as possible"",""Q3"":""True"",""Q4"":""D""}","deliberation_comprehension_check","1","","","","","","","","","","","","","","","","","","","","","","","","","","","","","","","","","","","","","","","","","","","","",""
"","missed_instruction_checkup","","html-keyboard-response","65","681241","0.0-53.3-2.3-0.3","0","1","BAPFD","People","","2170","","","","78","","","","","","","","","","","","","","","","","","","","","","","","","","","","","","","","","","","","","","","","","","","",""
"","deliberation_instructions","","instructions","66","693604","0.0-53.4-0.4","0","0","BAPFD","People","[{""page_index"":0,""viewing_time"":2388},{""page_index"":1,""viewing_time"":2818},{""page_index"":2,""viewing_time"":1561},{""page_index"":3,""viewing_time"":3989},{""page_index"":4,""viewing_time"":1605}]","12362","","","","","","","","","","","","","","","","","","","","","","","","","","","","","","","","","","","","","","","","","","","","","","","",""
"","","","survey-multi-choice","67","705216","0.0-53.4-1.4","0","0","BAPFD","People","","11607","{""Q0"":""True"",""Q1"":""True"",""Q2"":""Consider carefully and take your time (up to 10 seconds)"",""Q3"":""True"",""Q4"":""D""}","deliberation_comprehension_check","0","","","","","","","","","","","","","","","","","","","","","","","","","","","","","","","","","","","","","","","","","","","","",""
"","start_phase","","html-keyboard-response","68","708605","0.0-54.0","0","0","BAPFD","People","","3386","","","","78","","","","","","","","","","","","","","","","","","","","","","","","","","","","","","","","","","","","","","","","","","","",""
"","first_deliberation_block","","html-keyboard-response","69","711454","0.0-55.0","0","0","BAPFD","People","","2844","","","","78","","","","","","","","","","","","","","","","","","","","","","","","","","","","","","","","","","","","","","","","","","","",""
"","fixation","","html-keyboard-response","70","712531","0.0-56.0-0.0","0","0","BAPFD","People","","null","","","","null","","","","","","","","","","","","","","","","","","","","","","","","","","","","","","","","","","","","","","","","","","","",""
"","deliberation","","html-keyboard-response","71","715755","0.0-56.0-1.0","0","0","BAPFD","People","","3219","","","","68","","","","0","13","12","0","1","73","78","erik-lucatero-d2MSDujJl2g-unsplash.jpg","daniel-rigdon-dXmXKPP2L4E-unsplash.jpg","1","1","13","12","","","","","","","","","","","","","","","","","","","","","","","","","","","",""
"","choice_confirmation","","html-keyboard-response","72","716493","0.0-56.0-2.0-0.0","0","0","BAPFD","People","","null","","","","null","","","","0","13","12","","","","","","","","","","","","","","","","","","","","","","","","","","","","","","","","","","","","","",""
"","fixation","","html-keyboard-response","73","717509","0.0-57.0-0.0","0","0","BAPFD","People","","null","","","","null","","","","","","","","","","","","","","","","","","","","","","","","","","","","","","","","","","","","","","","","","","","",""
"","deliberation","","html-keyboard-response","74","720457","0.0-57.0-1.0","0","0","BAPFD","People","","2943","","","","75","","","","1","14","29","0","1","74","76","freddy-kearney-o-ioeoATbIM-unsplash.jpg","leilani-angel-K84vnnzxmTQ-unsplash.jpg","1","0","29","14","","","","","","","","","","","","","","","","","","","","","","","","","","","",""
"","choice_confirmation","","html-keyboard-response","75","720982","0.0-57.0-2.0-0.0","0","0","BAPFD","People","","null","","","","null","","","","1","14","29","","","","","","","","","","","","","","","","","","","","","","","","","","","","","","","","","","","","","",""
"","fixation","","html-keyboard-response","76","721997","0.0-58.0-0.0","0","0","BAPFD","People","","null","","","","null","","","","","","","","","","","","","","","","","","","","","","","","","","","","","","","","","","","","","","","","","","","",""
"","deliberation","","html-keyboard-response","77","725106","0.0-58.0-1.0","0","0","BAPFD","People","","3103","","","","68","","","","2","27","19","1","1","90","83","jurica-koletic-7YVZYZeITc8-unsplash.jpg","ha-nguy-n-OFSQ6bHjFjs-unsplash.jpg","1","1","27","19","","","","","","","","","","","","","","","","","","","","","","","","","","","",""
"","choice_confirmation","","html-keyboard-response","78","725609","0.0-58.0-2.0-0.0","0","0","BAPFD","People","","null","","","","null","","","","2","27","19","","","","","","","","","","","","","","","","","","","","","","","","","","","","","","","","","","","","","",""
"","explain_trial","","survey-text","79","761705","0.0-58.0-5.0-0.0","0","0","BAPFD","People","","36078","{""Q0"":""looking very nice""}","","","","","","","2","27","19","","","","","","","","","","","{""Q0"":""looking very nice""}","","","","","","","","","","","","","","","","","","","","","","","","","","",""
"","fixation","","html-keyboard-response","80","762735","0.0-59.0-0.0","0","0","BAPFD","People","","null","","","","null","","","","","","","","","","","","","","","","","","","","","","","","","","","","","","","","","","","","","","","","","","","",""
"","deliberation","","html-keyboard-response","81","766950","0.0-59.0-1.0","0","0","BAPFD","People","","4214","","","","75","","","","3","7","34","1","-1","76","73","brooke-cagle-HRZUzoX1e6w-unsplash.jpg","oliver-johnson-1TUIcKob7Zs-unsplash.jpg","1","0","34","7","","","","","","","","","","","","","","","","","","","","","","","","","","","",""
"","choice_confirmation","","html-keyboard-response","82","767457","0.0-59.0-2.0-0.0","0","0","BAPFD","People","","null","","","","null","","","","3","7","34","","","","","","","","","","","","","","","","","","","","","","","","","","","","","","","","","","","","","",""
"","explain_trial","","survey-text","83","784454","0.0-59.0-5.0-0.0","0","0","BAPFD","People","","16995","{""Q0"":""looking good""}","","","","","","","3","7","34","","","","","","","","","","","{""Q0"":""looking good""}","","","","","","","","","","","","","","","","","","","","","","","","","","",""
"","fixation","","html-keyboard-response","84","785511","0.0-60.0-0.0","0","0","BAPFD","People","","null","","","","null","","","","","","","","","","","","","","","","","","","","","","","","","","","","","","","","","","","","","","","","","","","",""
"","deliberation","","html-keyboard-response","85","789422","0.0-60.0-1.0","0","0","BAPFD","People","","3908","","","","75","","","","4","25","45","1","-1","87","86","joseph-gonzalez-iFgRcqHznqg-unsplash.jpg","sarah-noltner-pL5ZzPp1zqg-unsplash.jpg","1","0","45","25","","","","","","","","","","","","","","","","","","","","","","","","","","","",""
"","choice_confirmation","","html-keyboard-response","86","789926","0.0-60.0-2.0-0.0","0","0","BAPFD","People","","null","","","","null","","","","4","25","45","","","","","","","","","","","","","","","","","","","","","","","","","","","","","","","","","","","","","",""
"","explain_trial","","survey-text","87","828549","0.0-60.0-5.0-0.0","0","0","BAPFD","People","","38615","{""Q0"":""good and nice""}","","","","","","","4","25","45","","","","","","","","","","","{""Q0"":""good and nice""}","","","","","","","","","","","","","","","","","","","","","","","","","","",""
"","fixation","","html-keyboard-response","88","829583","0.0-61.0-0.0","0","0","BAPFD","People","","null","","","","null","","","","","","","","","","","","","","","","","","","","","","","","","","","","","","","","","","","","","","","","","","","",""
"","deliberation","","html-keyboard-response","89","834157","0.0-61.0-1.0","0","0","BAPFD","People","","4572","","","","75","","","","5","22","6","1","1","79","83","jessica-radanavong-mrYkTuAesKE-unsplash.jpg","ben-o-bro-C5XyLljkMrY-unsplash.jpg","1","0","6","22","","","","","","","","","","","","","","","","","","","","","","","","","","","",""
"","choice_confirmation","","html-keyboard-response","90","834660","0.0-61.0-2.0-0.0","0","0","BAPFD","People","","null","","","","null","","","","5","22","6","","","","","","","","","","","","","","","","","","","","","","","","","","","","","","","","","","","","","",""
"","explain_trial","","survey-text","91","879474","0.0-61.0-5.0-0.0","0","0","BAPFD","People","","44810","{""Q0"":""natural clike""}","","","","","","","5","22","6","","","","","","","","","","","{""Q0"":""natural clike""}","","","","","","","","","","","","","","","","","","","","","","","","","","",""
"","fixation","","html-keyboard-response","92","880479","0.0-62.0-0.0","0","0","BAPFD","People","","null","","","","null","","","","","","","","","","","","","","","","","","","","","","","","","","","","","","","","","","","","","","","","","","","",""
"","deliberation","","html-keyboard-response","93","884564","0.0-62.0-1.0","0","0","BAPFD","People","","4084","","","","75","","","","6","26","28","1","-1","83","77","juri-gianfrancesco-9EZadYaMzk4-unsplash.jpg","justin-chen-J7Cf1Gch49E-unsplash.jpg","1","0","28","26","","","","","","","","","","","","","","","","","","","","","","","","","","","",""
"","choice_confirmation","","html-keyboard-response","94","885070","0.0-62.0-2.0-0.0","0","0","BAPFD","People","","null","","","","null","","","","6","26","28","","","","","","","","","","","","","","","","","","","","","","","","","","","","","","","","","","","","","",""
"","explain_trial","","survey-text","95","894654","0.0-62.0-5.0-0.0","0","0","BAPFD","People","","9582","{""Q0"":""nice look""}","","","","","","","6","26","28","","","","","","","","","","","{""Q0"":""nice look""}","","","","","","","","","","","","","","","","","","","","","","","","","","",""
"","fixation","","html-keyboard-response","96","895662","0.0-63.0-0.0","0","0","BAPFD","People","","null","","","","null","","","","","","","","","","","","","","","","","","","","","","","","","","","","","","","","","","","","","","","","","","","",""
"","deliberation","","html-keyboard-response","97","900568","0.0-63.0-1.0","0","0","BAPFD","People","","4901","","","","68","","","","7","8","44","0","-1","85","73","bruce-dixon-3M9WJQVHzog-unsplash.jpg","rikonavt-HQjfrvdTfak-unsplash.jpg","1","1","8","44","","","","","","","","","","","","","","","","","","","","","","","","","","","",""
"","choice_confirmation","","html-keyboard-response","98","901069","0.0-63.0-2.0-0.0","0","0","BAPFD","People","","null","","","","null","","","","7","8","44","","","","","","","","","","","","","","","","","","","","","","","","","","","","","","","","","","","","","",""
"","fixation","","html-keyboard-response","99","902098","0.0-64.0-0.0","0","0","BAPFD","People","","null","","","","null","","","","","","","","","","","","","","","","","","","","","","","","","","","","","","","","","","","","","","","","","","","",""
"","deliberation","","html-keyboard-response","100","906057","0.0-64.0-1.0","0","0","BAPFD","People","","3958","","","","68","","","","8","1","37","0","1","71","73","aiony-haust-jmATI5Q_YgY-unsplash.jpg","pavel-anoshin-d0peGya6R5Y-unsplash.jpg","1","1","1","37","","","","","","","","","","","","","","","","","","","","","","","","","","","",""
"","choice_confirmation","","html-keyboard-response","101","906566","0.0-64.0-2.0-0.0","0","0","BAPFD","People","","null","","","","null","","","","8","1","37","","","","","","","","","","","","","","","","","","","","","","","","","","","","","","","","","","","","","",""
"","fixation","","html-keyboard-response","102","907575","0.0-65.0-0.0","0","0","BAPFD","People","","null","","","","null","","","","","","","","","","","","","","","","","","","","","","","","","","","","","","","","","","","","","","","","","","","",""
"","deliberation","","html-keyboard-response","103","911618","0.0-65.0-1.0","0","0","BAPFD","People","","4036","","","","68","","","","9","41","16","0","1","80","79","prince-akachi-i2hoD-C2RUA-unsplash.jpg","giano-currie-5-9YOsmf8IQ-unsplash.jpg","1","1","41","16","","","","","","","","","","","","","","","","","","","","","","","","","","","",""
"","choice_confirmation","","html-keyboard-response","104","912120","0.0-65.0-2.0-0.0","0","0","BAPFD","People","","null","","","","null","","","","9","41","16","","","","","","","","","","","","","","","","","","","","","","","","","","","","","","","","","","","","","",""
"","fixation","","html-keyboard-response","105","913127","0.0-66.0-0.0","0","0","BAPFD","People","","null","","","","null","","","","","","","","","","","","","","","","","","","","","","","","","","","","","","","","","","","","","","","","","","","",""
"","deliberation","","html-keyboard-response","106","915769","0.0-66.0-1.0","0","0","BAPFD","People","","2642","","","","68","","","","10","4","10","1","-1","79","83","barna-bartis-2x3vfVxwR7o-unsplash.jpg","charles-etoroma-95UF6LXe-Lo-unsplash.jpg","1","1","4","10","","","","","","","","","","","","","","","","","","","","","","","","","","","",""
"","choice_confirmation","","html-keyboard-response","107","916287","0.0-66.0-2.0-0.0","0","0","BAPFD","People","","null","","","","null","","","","10","4","10","","","","","","","","","","","","","","","","","","","","","","","","","","","","","","","","","","","","","",""
"","explain_trial","","survey-text","108","934031","0.0-66.0-5.0-0.0","0","0","BAPFD","People","","17740","{""Q0"":""differend look""}","","","","","","","10","4","10","","","","","","","","","","","{""Q0"":""differend look""}","","","","","","","","","","","","","","","","","","","","","","","","","","",""
"","fixation","","html-keyboard-response","109","935044","0.0-67.0-0.0","0","0","BAPFD","People","","null","","","","null","","","","","","","","","","","","","","","","","","","","","","","","","","","","","","","","","","","","","","","","","","","",""
"","deliberation","","html-keyboard-response","110","938568","0.0-67.0-1.0","0","0","BAPFD","People","","3521","","","","75","","","","11","47","40","0","-1","83","91","tyler-nix-ZGa9d1a_4tA-unsplash.jpg","prince-akachi-4Yv84VgQkRM-unsplash.jpg","1","0","40","47","","","","","","","","","","","","","","","","","","","","","","","","","","","",""
"","choice_confirmation","","html-keyboard-response","111","939086","0.0-67.0-2.0-0.0","0","0","BAPFD","People","","null","","","","null","","","","11","47","40","","","","","","","","","","","","","","","","","","","","","","","","","","","","","","","","","","","","","",""
"","practice_deliberation_again","","html-keyboard-response","112","945381","0.0-67.0-6.0-0.0","0","0","BAPFD","People","","6294","","","","78","","","","","","","","","","","","","","","","","","","","","","","","","","","","","","","","","","","","","","","","","","","",""
"","fixation","","html-keyboard-response","113","946390","0.0-68.0-0.0","0","0","BAPFD","People","","null","","","","null","","","","","","","","","","","","","","","","","","","","","","","","","","","","","","","","","","","","","","","","","","","",""
"","deliberation","","html-keyboard-response","114","948757","0.0-68.0-1.0","0","0","BAPFD","People","","2365","","","","75","","","","12","22","6","0","1","79","83","jessica-radanavong-mrYkTuAesKE-unsplash.jpg","ben-o-bro-C5XyLljkMrY-unsplash.jpg","2","0","6","22","","","","","","","","","","","","","","","","","","","","","","","","","","","",""
"","choice_confirmation","","html-keyboard-response","115","949261","0.0-68.0-2.0-0.0","0","0","BAPFD","People","","null","","","","null","","","","12","22","6","","","","","","","","","","","","","","","","","","","","","","","","","","","","","","","","","","","","","",""
"","fixation","","html-keyboard-response","116","950269","0.0-69.0-0.0","0","0","BAPFD","People","","null","","","","null","","","","","","","","","","","","","","","","","","","","","","","","","","","","","","","","","","","","","","","","","","","",""
"","deliberation","","html-keyboard-response","117","952095","0.0-69.0-1.0","0","0","BAPFD","People","","1819","","","","68","","","","13","41","16","1","1","80","79","prince-akachi-i2hoD-C2RUA-unsplash.jpg","giano-currie-5-9YOsmf8IQ-unsplash.jpg","2","1","41","16","","","","","","","","","","","","","","","","","","","","","","","","","","","",""
"","choice_confirmation","","html-keyboard-response","118","952606","0.0-69.0-2.0-0.0","0","0","BAPFD","People","","null","","","","null","","","","13","41","16","","","","","","","","","","","","","","","","","","","","","","","","","","","","","","","","","","","","","",""
"","explain_trial","","survey-text","119","973166","0.0-69.0-5.0-0.0","0","0","BAPFD","People","","20557","{""Q0"":""nice click""}","","","","","","","13","41","16","","","","","","","","","","","{""Q0"":""nice click""}","","","","","","","","","","","","","","","","","","","","","","","","","","",""
"","fixation","","html-keyboard-response","120","974173","0.0-70.0-0.0","0","0","BAPFD","People","","null","","","","null","","","","","","","","","","","","","","","","","","","","","","","","","","","","","","","","","","","","","","","","","","","",""
"","deliberation","","html-keyboard-response","121","976656","0.0-70.0-1.0","0","0","BAPFD","People","","2483","","","","75","","","","14","47","40","1","-1","83","91","tyler-nix-ZGa9d1a_4tA-unsplash.jpg","prince-akachi-4Yv84VgQkRM-unsplash.jpg","2","0","40","47","","","","","","","","","","","","","","","","","","","","","","","","","","","",""
"","choice_confirmation","","html-keyboard-response","122","977173","0.0-70.0-2.0-0.0","0","0","BAPFD","People","","null","","","","null","","","","14","47","40","","","","","","","","","","","","","","","","","","","","","","","","","","","","","","","","","","","","","",""
"","explain_trial","","survey-text","123","1004278","0.0-70.0-5.0-0.0","0","0","BAPFD","People","","27102","{""Q0"":""very good still""}","","","","","","","14","47","40","","","","","","","","","","","{""Q0"":""very good still""}","","","","","","","","","","","","","","","","","","","","","","","","","","",""
"","fixation","","html-keyboard-response","124","1005287","0.0-71.0-0.0","0","0","BAPFD","People","","null","","","","null","","","","","","","","","","","","","","","","","","","","","","","","","","","","","","","","","","","","","","","","","","","",""
"","deliberation","","html-keyboard-response","125","1010223","0.0-71.0-1.0","0","0","BAPFD","People","","4931","","","","68","","","","15","7","34","0","-1","76","73","brooke-cagle-HRZUzoX1e6w-unsplash.jpg","oliver-johnson-1TUIcKob7Zs-unsplash.jpg","2","1","7","34","","","","","","","","","","","","","","","","","","","","","","","","","","","",""
"","choice_confirmation","","html-keyboard-response","126","1010733","0.0-71.0-2.0-0.0","0","0","BAPFD","People","","null","","","","null","","","","15","7","34","","","","","","","","","","","","","","","","","","","","","","","","","","","","","","","","","","","","","",""
"","fixation","","html-keyboard-response","127","1011774","0.0-72.0-0.0","0","0","BAPFD","People","","null","","","","null","","","","","","","","","","","","","","","","","","","","","","","","","","","","","","","","","","","","","","","","","","","",""
"","deliberation","","html-keyboard-response","128","1014456","0.0-72.0-1.0","0","0","BAPFD","People","","2679","","","","75","","","","16","13","12","1","1","73","78","erik-lucatero-d2MSDujJl2g-unsplash.jpg","daniel-rigdon-dXmXKPP2L4E-unsplash.jpg","2","0","12","13","","","","","","","","","","","","","","","","","","","","","","","","","","","",""
"","choice_confirmation","","html-keyboard-response","129","1014958","0.0-72.0-2.0-0.0","0","0","BAPFD","People","","null","","","","null","","","","16","13","12","","","","","","","","","","","","","","","","","","","","","","","","","","","","","","","","","","","","","",""
"","explain_trial","","survey-text","130","1027760","0.0-72.0-5.0-0.0","0","0","BAPFD","People","","12798","{""Q0"":""nice click""}","","","","","","","16","13","12","","","","","","","","","","","{""Q0"":""nice click""}","","","","","","","","","","","","","","","","","","","","","","","","","","",""
"","fixation","","html-keyboard-response","131","1028766","0.0-73.0-0.0","0","0","BAPFD","People","","null","","","","null","","","","","","","","","","","","","","","","","","","","","","","","","","","","","","","","","","","","","","","","","","","",""
"","deliberation","","html-keyboard-response","132","1035781","0.0-73.0-1.0","0","0","BAPFD","People","","7013","","","","75","","","","17","25","45","0","-1","87","86","joseph-gonzalez-iFgRcqHznqg-unsplash.jpg","sarah-noltner-pL5ZzPp1zqg-unsplash.jpg","2","0","45","25","","","","","","","","","","","","","","","","","","","","","","","","","","","",""
"","choice_confirmation","","html-keyboard-response","133","1036308","0.0-73.0-2.0-0.0","0","0","BAPFD","People","","null","","","","null","","","","17","25","45","","","","","","","","","","","","","","","","","","","","","","","","","","","","","","","","","","","","","",""
"","fixation","","html-keyboard-response","134","1037330","0.0-74.0-0.0","0","0","BAPFD","People","","null","","","","null","","","","","","","","","","","","","","","","","","","","","","","","","","","","","","","","","","","","","","","","","","","",""
"","deliberation","","html-keyboard-response","135","1040513","0.0-74.0-1.0","0","0","BAPFD","People","","3181","","","","68","","","","18","1","37","1","1","71","73","aiony-haust-jmATI5Q_YgY-unsplash.jpg","pavel-anoshin-d0peGya6R5Y-unsplash.jpg","2","1","1","37","","","","","","","","","","","","","","","","","","","","","","","","","","","",""
"","choice_confirmation","","html-keyboard-response","136","1041024","0.0-74.0-2.0-0.0","0","0","BAPFD","People","","null","","","","null","","","","18","1","37","","","","","","","","","","","","","","","","","","","","","","","","","","","","","","","","","","","","","",""
"","explain_trial","","survey-text","137","1053655","0.0-74.0-5.0-0.0","0","0","BAPFD","People","","12628","{""Q0"":""vry beautiful""}","","","","","","","18","1","37","","","","","","","","","","","{""Q0"":""vry beautiful""}","","","","","","","","","","","","","","","","","","","","","","","","","","",""
"","fixation","","html-keyboard-response","138","1054663","0.0-75.0-0.0","0","0","BAPFD","People","","null","","","","null","","","","","","","","","","","","","","","","","","","","","","","","","","","","","","","","","","","","","","","","","","","",""
"","deliberation","","html-keyboard-response","139","1056542","0.0-75.0-1.0","0","0","BAPFD","People","","1877","","","","68","","","","19","4","10","0","-1","79","83","barna-bartis-2x3vfVxwR7o-unsplash.jpg","charles-etoroma-95UF6LXe-Lo-unsplash.jpg","2","1","4","10","","","","","","","","","","","","","","","","","","","","","","","","","","","",""
"","choice_confirmation","","html-keyboard-response","140","1057045","0.0-75.0-2.0-0.0","0","0","BAPFD","People","","null","","","","null","","","","19","4","10","","","","","","","","","","","","","","","","","","","","","","","","","","","","","","","","","","","","","",""
"","fixation","","html-keyboard-response","141","1058053","0.0-76.0-0.0","0","0","BAPFD","People","","null","","","","null","","","","","","","","","","","","","","","","","","","","","","","","","","","","","","","","","","","","","","","","","","","",""
"","deliberation","","html-keyboard-response","142","1060843","0.0-76.0-1.0","0","0","BAPFD","People","","2788","","","","68","","","","20","14","29","1","1","74","76","freddy-kearney-o-ioeoATbIM-unsplash.jpg","leilani-angel-K84vnnzxmTQ-unsplash.jpg","2","1","14","29","","","","","","","","","","","","","","","","","","","","","","","","","","","",""
"","choice_confirmation","","html-keyboard-response","143","1061350","0.0-76.0-2.0-0.0","0","0","BAPFD","People","","null","","","","null","","","","20","14","29","","","","","","","","","","","","","","","","","","","","","","","","","","","","","","","","","","","","","",""
"","explain_trial","","survey-text","144","1077124","0.0-76.0-5.0-0.0","0","0","BAPFD","People","","15773","{""Q0"":""very nice""}","","","","","","","20","14","29","","","","","","","","","","","{""Q0"":""very nice""}","","","","","","","","","","","","","","","","","","","","","","","","","","",""
"","fixation","","html-keyboard-response","145","1078127","0.0-77.0-0.0","0","0","BAPFD","People","","null","","","","null","","","","","","","","","","","","","","","","","","","","","","","","","","","","","","","","","","","","","","","","","","","",""
"","deliberation","","html-keyboard-response","146","1080415","0.0-77.0-1.0","0","0","BAPFD","People","","2287","","","","75","","","","21","26","28","0","-1","83","77","juri-gianfrancesco-9EZadYaMzk4-unsplash.jpg","justin-chen-J7Cf1Gch49E-unsplash.jpg","2","0","28","26","","","","","","","","","","","","","","","","","","","","","","","","","","","",""
"","choice_confirmation","","html-keyboard-response","147","1080919","0.0-77.0-2.0-0.0","0","0","BAPFD","People","","null","","","","null","","","","21","26","28","","","","","","","","","","","","","","","","","","","","","","","","","","","","","","","","","","","","","",""
"","fixation","","html-keyboard-response","148","1081926","0.0-78.0-0.0","0","0","BAPFD","People","","null","","","","null","","","","","","","","","","","","","","","","","","","","","","","","","","","","","","","","","","","","","","","","","","","",""
"","deliberation","","html-keyboard-response","149","1084782","0.0-78.0-1.0","0","0","BAPFD","People","","2853","","","","68","","","","22","27","19","0","1","90","83","jurica-koletic-7YVZYZeITc8-unsplash.jpg","ha-nguy-n-OFSQ6bHjFjs-unsplash.jpg","2","1","27","19","","","","","","","","","","","","","","","","","","","","","","","","","","","",""
"","choice_confirmation","","html-keyboard-response","150","1085287","0.0-78.0-2.0-0.0","0","0","BAPFD","People","","null","","","","null","","","","22","27","19","","","","","","","","","","","","","","","","","","","","","","","","","","","","","","","","","","","","","",""
"","fixation","","html-keyboard-response","151","1086296","0.0-79.0-0.0","0","0","BAPFD","People","","null","","","","null","","","","","","","","","","","","","","","","","","","","","","","","","","","","","","","","","","","","","","","","","","","",""
"","deliberation","","html-keyboard-response","152","1090550","0.0-79.0-1.0","0","0","BAPFD","People","","4240","","","","75","","","","23","8","44","1","-1","85","73","bruce-dixon-3M9WJQVHzog-unsplash.jpg","rikonavt-HQjfrvdTfak-unsplash.jpg","2","0","44","8","","","","","","","","","","","","","","","","","","","","","","","","","","","",""
"","choice_confirmation","","html-keyboard-response","153","1091054","0.0-79.0-2.0-0.0","0","0","BAPFD","People","","null","","","","null","","","","23","8","44","","","","","","","","","","","","","","","","","","","","","","","","","","","","","","","","","","","","","",""
"","explain_trial","","survey-text","154","1115068","0.0-79.0-5.0-0.0","0","0","BAPFD","People","","24010","{""Q0"":""nice click""}","","","","","","","23","8","44","","","","","","","","","","","{""Q0"":""nice click""}","","","","","","","","","","","","","","","","","","","","","","","","","","",""
"","start_critical_deliberation_block","","html-keyboard-response","155","1120301","0.0-79.0-7.0-0.0","0","0","BAPFD","People","","5231","","","","78","","","","","","","","","","","","","","","","","","","","","","","","","","","","","","","","","","","","","","","","","","","",""
"","fixation","","html-keyboard-response","156","1121311","0.0-80.0-0.0","0","0","BAPFD","People","","null","","","","null","","","","","","","","","","","","","","","","","","","","","","","","","","","","","","","","","","","","","","","","","","","",""
"","deliberation","","html-keyboard-response","157","1123476","0.0-80.0-1.0","0","0","BAPFD","People","","2162","","","","75","","","","24","25","45","0","-1","87","86","joseph-gonzalez-iFgRcqHznqg-unsplash.jpg","sarah-noltner-pL5ZzPp1zqg-unsplash.jpg","3","0","45","25","","","","","","","","","","","","","","","","","","","","","","","","","","","",""
"","choice_confirmation","","html-keyboard-response","158","1123982","0.0-80.0-2.0-0.0","0","0","BAPFD","People","","null","","","","null","","","","24","25","45","","","","","","","","","","","","","","","","","","","","","","","","","","","","","","","","","","","","","",""
"","fixation","","html-keyboard-response","159","1125061","0.0-81.0-0.0","0","0","BAPFD","People","","null","","","","null","","","","","","","","","","","","","","","","","","","","","","","","","","","","","","","","","","","","","","","","","","","",""
"","deliberation","","html-keyboard-response","160","1126769","0.0-81.0-1.0","0","0","BAPFD","People","","1706","","","","75","","","","25","13","12","0","1","73","78","erik-lucatero-d2MSDujJl2g-unsplash.jpg","daniel-rigdon-dXmXKPP2L4E-unsplash.jpg","3","0","12","13","","","","","","","","","","","","","","","","","","","","","","","","","","","",""
"","choice_confirmation","","html-keyboard-response","161","1127344","0.0-81.0-2.0-0.0","0","0","BAPFD","People","","null","","","","null","","","","25","13","12","","","","","","","","","","","","","","","","","","","","","","","","","","","","","","","","","","","","","",""
"","fixation","","html-keyboard-response","162","1128382","0.0-82.0-0.0","0","0","BAPFD","People","","null","","","","null","","","","","","","","","","","","","","","","","","","","","","","","","","","","","","","","","","","","","","","","","","","",""
"","deliberation","","html-keyboard-response","163","1129651","0.0-82.0-1.0","0","0","BAPFD","People","","1259","","","","68","","","","26","1","37","0","1","71","73","aiony-haust-jmATI5Q_YgY-unsplash.jpg","pavel-anoshin-d0peGya6R5Y-unsplash.jpg","3","1","1","37","","","","","","","","","","","","","","","","","","","","","","","","","","","",""
"","choice_confirmation","","html-keyboard-response","164","1130159","0.0-82.0-2.0-0.0","0","0","BAPFD","People","","null","","","","null","","","","26","1","37","","","","","","","","","","","","","","","","","","","","","","","","","","","","","","","","","","","","","",""
"","fixation","","html-keyboard-response","165","1131166","0.0-83.0-0.0","0","0","BAPFD","People","","null","","","","null","","","","","","","","","","","","","","","","","","","","","","","","","","","","","","","","","","","","","","","","","","","",""
"","deliberation","","html-keyboard-response","166","1133871","0.0-83.0-1.0","0","0","BAPFD","People","","2694","","","","68","","","","27","4","10","0","-1","79","83","barna-bartis-2x3vfVxwR7o-unsplash.jpg","charles-etoroma-95UF6LXe-Lo-unsplash.jpg","3","1","4","10","","","","","","","","","","","","","","","","","","","","","","","","","","","",""
"","choice_confirmation","","html-keyboard-response","167","1134375","0.0-83.0-2.0-0.0","0","0","BAPFD","People","","null","","","","null","","","","27","4","10","","","","","","","","","","","","","","","","","","","","","","","","","","","","","","","","","","","","","",""
"","fixation","","html-keyboard-response","168","1135389","0.0-84.0-0.0","0","0","BAPFD","People","","null","","","","null","","","","","","","","","","","","","","","","","","","","","","","","","","","","","","","","","","","","","","","","","","","",""
"","deliberation","","html-keyboard-response","169","1139679","0.0-84.0-1.0","0","0","BAPFD","People","","4286","","","","75","","","","28","7","34","0","-1","76","73","brooke-cagle-HRZUzoX1e6w-unsplash.jpg","oliver-johnson-1TUIcKob7Zs-unsplash.jpg","3","0","34","7","","","","","","","","","","","","","","","","","","","","","","","","","","","",""
"","choice_confirmation","","html-keyboard-response","170","1140184","0.0-84.0-2.0-0.0","0","0","BAPFD","People","","null","","","","null","","","","28","7","34","","","","","","","","","","","","","","","","","","","","","","","","","","","","","","","","","","","","","",""
"","fixation","","html-keyboard-response","171","1141190","0.0-85.0-0.0","0","0","BAPFD","People","","null","","","","null","","","","","","","","","","","","","","","","","","","","","","","","","","","","","","","","","","","","","","","","","","","",""
"","deliberation","","html-keyboard-response","172","1142358","0.0-85.0-1.0","0","0","BAPFD","People","","1166","","","","68","","","","29","14","29","0","1","74","76","freddy-kearney-o-ioeoATbIM-unsplash.jpg","leilani-angel-K84vnnzxmTQ-unsplash.jpg","3","1","14","29","","","","","","","","","","","","","","","","","","","","","","","","","","","",""
"","choice_confirmation","","html-keyboard-response","173","1142867","0.0-85.0-2.0-0.0","0","0","BAPFD","People","","null","","","","null","","","","29","14","29","","","","","","","","","","","","","","","","","","","","","","","","","","","","","","","","","","","","","",""
"","fixation","","html-keyboard-response","174","1143894","0.0-86.0-0.0","0","0","BAPFD","People","","null","","","","null","","","","","","","","","","","","","","","","","","","","","","","","","","","","","","","","","","","","","","","","","","","",""
"","deliberation","","html-keyboard-response","175","1145373","0.0-86.0-1.0","0","0","BAPFD","People","","1478","","","","75","","","","30","47","40","0","-1","83","91","tyler-nix-ZGa9d1a_4tA-unsplash.jpg","prince-akachi-4Yv84VgQkRM-unsplash.jpg","3","0","40","47","","","","","","","","","","","","","","","","","","","","","","","","","","","",""
"","choice_confirmation","","html-keyboard-response","176","1145877","0.0-86.0-2.0-0.0","0","0","BAPFD","People","","null","","","","null","","","","30","47","40","","","","","","","","","","","","","","","","","","","","","","","","","","","","","","","","","","","","","",""
"","fixation","","html-keyboard-response","177","1146884","0.0-87.0-0.0","0","0","BAPFD","People","","null","","","","null","","","","","","","","","","","","","","","","","","","","","","","","","","","","","","","","","","","","","","","","","","","",""
"","deliberation","","html-keyboard-response","178","1148445","0.0-87.0-1.0","0","0","BAPFD","People","","1557","","","","75","","","","31","26","28","0","-1","83","77","juri-gianfrancesco-9EZadYaMzk4-unsplash.jpg","justin-chen-J7Cf1Gch49E-unsplash.jpg","3","0","28","26","","","","","","","","","","","","","","","","","","","","","","","","","","","",""
"","choice_confirmation","","html-keyboard-response","179","1148952","0.0-87.0-2.0-0.0","0","0","BAPFD","People","","null","","","","null","","","","31","26","28","","","","","","","","","","","","","","","","","","","","","","","","","","","","","","","","","","","","","",""
"","fixation","","html-keyboard-response","180","1149972","0.0-88.0-0.0","0","0","BAPFD","People","","null","","","","null","","","","","","","","","","","","","","","","","","","","","","","","","","","","","","","","","","","","","","","","","","","",""
"","deliberation","","html-keyboard-response","181","1152840","0.0-88.0-1.0","0","0","BAPFD","People","","2866","","","","68","","","","32","41","16","0","1","80","79","prince-akachi-i2hoD-C2RUA-unsplash.jpg","giano-currie-5-9YOsmf8IQ-unsplash.jpg","3","1","41","16","","","","","","","","","","","","","","","","","","","","","","","","","","","",""
"","choice_confirmation","","html-keyboard-response","182","1153342","0.0-88.0-2.0-0.0","0","0","BAPFD","People","","null","","","","null","","","","32","41","16","","","","","","","","","","","","","","","","","","","","","","","","","","","","","","","","","","","","","",""
"","fixation","","html-keyboard-response","183","1154352","0.0-89.0-0.0","0","0","BAPFD","People","","null","","","","null","","","","","","","","","","","","","","","","","","","","","","","","","","","","","","","","","","","","","","","","","","","",""
"","deliberation","","html-keyboard-response","184","1156012","0.0-89.0-1.0","0","0","BAPFD","People","","1658","","","","75","","","","33","8","44","0","-1","85","73","bruce-dixon-3M9WJQVHzog-unsplash.jpg","rikonavt-HQjfrvdTfak-unsplash.jpg","3","0","44","8","","","","","","","","","","","","","","","","","","","","","","","","","","","",""
"","choice_confirmation","","html-keyboard-response","185","1156521","0.0-89.0-2.0-0.0","0","0","BAPFD","People","","null","","","","null","","","","33","8","44","","","","","","","","","","","","","","","","","","","","","","","","","","","","","","","","","","","","","",""
"","fixation","","html-keyboard-response","186","1157550","0.0-90.0-0.0","0","0","BAPFD","People","","null","","","","null","","","","","","","","","","","","","","","","","","","","","","","","","","","","","","","","","","","","","","","","","","","",""
"","deliberation","","html-keyboard-response","187","1159427","0.0-90.0-1.0","0","0","BAPFD","People","","1873","","","","68","","","","34","27","19","0","1","90","83","jurica-koletic-7YVZYZeITc8-unsplash.jpg","ha-nguy-n-OFSQ6bHjFjs-unsplash.jpg","3","1","27","19","","","","","","","","","","","","","","","","","","","","","","","","","","","",""
"","choice_confirmation","","html-keyboard-response","188","1159965","0.0-90.0-2.0-0.0","0","0","BAPFD","People","","null","","","","null","","","","34","27","19","","","","","","","","","","","","","","","","","","","","","","","","","","","","","","","","","","","","","",""
"","fixation","","html-keyboard-response","189","1160968","0.0-91.0-0.0","0","0","BAPFD","People","","null","","","","null","","","","","","","","","","","","","","","","","","","","","","","","","","","","","","","","","","","","","","","","","","","",""
"","deliberation","","html-keyboard-response","190","1163199","0.0-91.0-1.0","0","0","BAPFD","People","","2228","","","","75","","","","35","22","6","0","1","79","83","jessica-radanavong-mrYkTuAesKE-unsplash.jpg","ben-o-bro-C5XyLljkMrY-unsplash.jpg","3","0","6","22","","","","","","","","","","","","","","","","","","","","","","","","","","","",""
"","choice_confirmation","","html-keyboard-response","191","1163714","0.0-91.0-2.0-0.0","0","0","BAPFD","People","","null","","","","null","","","","35","22","6","","","","","","","","","","","","","","","","","","","","","","","","","","","","","","","","","","","","","",""
"","reward_learning_instructions","","instructions","192","1238449","0.0-92.0-0.0","0","0","BAPFD","People","[{""page_index"":0,""viewing_time"":38349},{""page_index"":1,""viewing_time"":34550},{""page_index"":2,""viewing_time"":1833}]","74733","","","","","","","","","","","","","","","","","","","","","","","","","","","","","","","","","","","","","","","","","","","","","","","",""
"","","","survey-multi-choice","193","1265437","0.0-92.0-1.0","0","0","BAPFD","People","","26975","{""Q0"":""True"",""Q1"":""True"",""Q2"":""Press the space bar to see its outcome"",""Q3"":""Press the relevant key while the outcome is presented""}","reward_comprehension_check","0","","","","","","","","","","","","","","","","","","","","","","","","","","","","","","","","","","","","","","","","","","","","",""
"","start_phase","","html-keyboard-response","194","1268794","0.0-93.0","0","0","BAPFD","People","","3351","","","","78","","","","","","","","","","","","","","","","","","","","","","","","","","","","","","","","","","","","","","","","","","","",""
"","fixation","","html-keyboard-response","195","1269870","0.0-94.0","0","0","BAPFD","People","","null","","","","null","","","","","","","","","","","","","","","","","","","","","","","","","","","","","","","","","","","","","","","","","","","",""
"","see_reward","","html-keyboard-response","196","1276497","0.0-95.0","0","0","BAPFD","People","","6626","","","","32","","45","","0","","","","-1","","","","","1","","","","","0","6626","","","","","","","","","","","","","","","","","","","","","","","","",""
"","reward_outcome","","html-keyboard-response","197","1278505","0.0-96.0","0","0","BAPFD","People","","null","","","","null","","45","","0","","","","","","","","","","","","","","","","NaN","null","","","","","","","","","","","","","","","","","","","","","","",""
"","respond_faster","","html-keyboard-response","198","1280098","0.0-97.0-0.0","1","0","BAPFD","People","","null","","","","null","","","","","","","","","","","","","","","","","","","","","","","","","","","","","","","","","","","","","","","","","","","",""
"","fixation","","html-keyboard-response","199","1281124","0.0-99.0","0","0","BAPFD","People","","null","","","","null","","","","","","","","","","","","","","","","","","","","","","","","","","","","","","","","","","","","","","","","","","","",""
"","see_reward","","html-keyboard-response","200","1283044","0.0-100.0","0","0","BAPFD","People","","1920","","","","32","","34","","1","","","","-1","","","","","1","","","","","0","1920","","","","","","","","","","","","","","","","","","","","","","","","",""
"","reward_outcome","","html-keyboard-response","201","1285046","0.0-101.0","0","0","BAPFD","People","","null","","","","null","","34","","1","","","","","","","","","","","","","","","","NaN","null","","","","","","","","","","","","","","","","","","","","","","",""
"","respond_faster","","html-keyboard-response","202","1286553","0.0-102.0-0.0","1","0","BAPFD","People","","null","","","","null","","","","","","","","","","","","","","","","","","","","","","","","","","","","","","","","","","","","","","","","","","","",""
"","fixation","","html-keyboard-response","203","1287587","0.0-104.0","0","0","BAPFD","People","","null","","","","null","","","","","","","","","","","","","","","","","","","","","","","","","","","","","","","","","","","","","","","","","","","",""
"","see_reward","","html-keyboard-response","204","1289496","0.0-105.0","0","0","BAPFD","People","","1909","","","","32","","1","","2","","","","1","","","","","1","","","","","158","1909","","","","","","","","","","","","","","","","","","","","","","","","",""
"","reward_outcome","","html-keyboard-response","205","1291558","0.0-106.0","0","0","BAPFD","People","","null","","","","null","","1","","2","","","","","","","","","","","","","","","","NaN","null","","","","","","","","","","","","","","","","","","","","","","",""
"","respond_faster","","html-keyboard-response","206","1293071","0.0-107.0-0.0","1","0","BAPFD","People","","null","","","","null","","","","","","","","","","","","","","","","","","","","","","","","","","","","","","","","","","","","","","","","","","","",""
"","fixation","","html-keyboard-response","207","1294082","0.0-109.0","0","0","BAPFD","People","","null","","","","null","","","","","","","","","","","","","","","","","","","","","","","","","","","","","","","","","","","","","","","","","","","",""
"","see_reward","","html-keyboard-response","208","1295944","0.0-110.0","0","0","BAPFD","People","","1860","","","","32","","14","","3","","","","1","","","","","1","","","","","146","1860","","","","","","","","","","","","","","","","","","","","","","","","",""
"","reward_outcome","","html-keyboard-response","209","1297955","0.0-111.0","0","0","BAPFD","People","","null","","","","null","","14","","3","","","","","","","","","","","","","","","","NaN","null","","","","","","","","","","","","","","","","","","","","","","",""
"","respond_faster","","html-keyboard-response","210","1299466","0.0-112.0-0.0","1","0","BAPFD","People","","null","","","","null","","","","","","","","","","","","","","","","","","","","","","","","","","","","","","","","","","","","","","","","","","","",""
"","fixation","","html-keyboard-response","211","1300473","0.0-114.0","0","0","BAPFD","People","","null","","","","null","","","","","","","","","","","","","","","","","","","","","","","","","","","","","","","","","","","","","","","","","","","",""
"","see_reward","","html-keyboard-response","212","1301578","0.0-115.0","0","0","BAPFD","People","","1083","","","","32","","14","","4","","","","1","","","","","1","","","","","146","1083","","","","","","","","","","","","","","","","","","","","","","","","",""
"","reward_outcome","","html-keyboard-response","213","1303608","0.0-116.0","0","0","BAPFD","People","","null","","","","null","","14","","4","","","","","","","","","","","","","","","","NaN","null","","","","","","","","","","","","","","","","","","","","","","",""
"","respond_faster","","html-keyboard-response","214","1305112","0.0-117.0-0.0","1","0","BAPFD","People","","null","","","","null","","","","","","","","","","","","","","","","","","","","","","","","","","","","","","","","","","","","","","","","","","","",""
"","fixation","","html-keyboard-response","215","1306128","0.0-119.0","0","0","BAPFD","People","","null","","","","null","","","","","","","","","","","","","","","","","","","","","","","","","","","","","","","","","","","","","","","","","","","",""
"","see_reward","","html-keyboard-response","216","1307777","0.0-120.0","0","0","BAPFD","People","","1646","","","","32","","45","","5","","","","-1","","","","","1","","","","","0","1646","","","","","","","","","","","","","","","","","","","","","","","","",""
"","reward_outcome","","html-keyboard-response","217","1309784","0.0-121.0","0","0","BAPFD","People","","25","","","","38","","45","","5","","","","","","","","","","","","","","","","1","25","","","","","","","","","","","","","","","","","","","","","","",""
"","fixation","","html-keyboard-response","218","1310797","0.0-124.0","0","0","BAPFD","People","","null","","","","null","","","","","","","","","","","","","","","","","","","","","","","","","","","","","","","","","","","","","","","","","","","",""
"","see_reward","","html-keyboard-response","219","1312885","0.0-125.0","0","0","BAPFD","People","","2087","","","","32","","28","","6","","","","-1","","","","","1","","","","","0","2087","","","","","","","","","","","","","","","","","","","","","","","","",""
"","reward_outcome","","html-keyboard-response","220","1315122","0.0-126.0","0","0","BAPFD","People","","144","","","","38","","28","","6","","","","","","","","","","","","","","","","1","144","","","","","","","","","","","","","","","","","","","","","","",""
"","fixation","","html-keyboard-response","221","1316195","0.0-129.0","0","0","BAPFD","People","","null","","","","null","","","","","","","","","","","","","","","","","","","","","","","","","","","","","","","","","","","","","","","","","","","",""
"","see_reward","","html-keyboard-response","222","1318614","0.0-130.0","0","0","BAPFD","People","","2417","","","","32","","6","","7","","","","1","","","","","1","","","","","144","2417","","","","","","","","","","","","","","","","","","","","","","","","",""
"","reward_outcome","","html-keyboard-response","223","1320663","0.0-131.0","0","0","BAPFD","People","","34","","","","38","","6","","7","","","","","","","","","","","","","","","","1","34","","","","","","","","","","","","","","","","","","","","","","",""
"","fixation","","html-keyboard-response","224","1321677","0.0-134.0","0","0","BAPFD","People","","null","","","","null","","","","","","","","","","","","","","","","","","","","","","","","","","","","","","","","","","","","","","","","","","","",""
"","see_reward","","html-keyboard-response","225","1323504","0.0-135.0","0","0","BAPFD","People","","1826","","","","32","","44","","8","","","","-1","","","","","1","","","","","0","1826","","","","","","","","","","","","","","","","","","","","","","","","",""
"","reward_outcome","","html-keyboard-response","226","1325812","0.0-136.0","0","0","BAPFD","People","","19","","","","38","","44","","8","","","","","","","","","","","","","","","","1","19","","","","","","","","","","","","","","","","","","","","","","",""
"","fixation","","html-keyboard-response","227","1326817","0.0-139.0","0","0","BAPFD","People","","null","","","","null","","","","","","","","","","","","","","","","","","","","","","","","","","","","","","","","","","","","","","","","","","","",""
"","see_reward","","html-keyboard-response","228","1328193","0.0-140.0","0","0","BAPFD","People","","1360","","","","32","","40","","9","","","","-1","","","","","1","","","","","0","1360","","","","","","","","","","","","","","","","","","","","","","","","",""
"","reward_outcome","","html-keyboard-response","229","1330376","0.0-141.0","0","0","BAPFD","People","","null","","","","null","","40","","9","","","","","","","","","","","","","","","","NaN","null","","","","","","","","","","","","","","","","","","","","","","",""
"","respond_faster","","html-keyboard-response","230","1331895","0.0-142.0-0.0","1","0","BAPFD","People","","null","","","","null","","","","","","","","","","","","","","","","","","","","","","","","","","","","","","","","","","","","","","","","","","","",""
"","fixation","","html-keyboard-response","231","1332927","0.0-144.0","0","0","BAPFD","People","","null","","","","null","","","","","","","","","","","","","","","","","","","","","","","","","","","","","","","","","","","","","","","","","","","",""
"","see_reward","","html-keyboard-response","232","1334905","0.0-145.0","0","0","BAPFD","People","","1972","","","","32","","41","","10","","","","1","","","","","1","","","","","147","1972","","","","","","","","","","","","","","","","","","","","","","","","",""
"","reward_outcome","","html-keyboard-response","233","1336939","0.0-146.0","0","0","BAPFD","People","","null","","","","null","","41","","10","","","","","","","","","","","","","","","","NaN","null","","","","","","","","","","","","","","","","","","","","","","",""
"","respond_faster","","html-keyboard-response","234","1338447","0.0-147.0-0.0","1","0","BAPFD","People","","null","","","","null","","","","","","","","","","","","","","","","","","","","","","","","","","","","","","","","","","","","","","","","","","","",""
"","fixation","","html-keyboard-response","235","1339463","0.0-149.0","0","0","BAPFD","People","","null","","","","null","","","","","","","","","","","","","","","","","","","","","","","","","","","","","","","","","","","","","","","","","","","",""
"","see_reward","","html-keyboard-response","236","1340944","0.0-150.0","0","0","BAPFD","People","","1480","","","","32","","44","","11","","","","-1","","","","","1","","","","","0","1480","","","","","","","","","","","","","","","","","","","","","","","","",""
"","reward_outcome","","html-keyboard-response","237","1342953","0.0-151.0","0","0","BAPFD","People","","16","","","","40","","44","","11","","","","","","","","","","","","","","","","-1","16","","","","","","","","","","","","","","","","","","","","","","",""
"","fixation","","html-keyboard-response","238","1343974","0.0-154.0","0","0","BAPFD","People","","null","","","","null","","","","","","","","","","","","","","","","","","","","","","","","","","","","","","","","","","","","","","","","","","","",""
"","see_reward","","html-keyboard-response","239","1345153","0.0-155.0","0","0","BAPFD","People","","1175","","","","32","","12","","12","","","","1","","","","","1","","","","","150","1175","","","","","","","","","","","","","","","","","","","","","","","","",""
"","reward_outcome","","html-keyboard-response","240","1347159","0.0-156.0","0","0","BAPFD","People","","35","","","","38","","12","","12","","","","","","","","","","","","","","","","1","35","","","","","","","","","","","","","","","","","","","","","","",""
"","fixation","","html-keyboard-response","241","1348167","0.0-159.0","0","0","BAPFD","People","","null","","","","null","","","","","","","","","","","","","","","","","","","","","","","","","","","","","","","","","","","","","","","","","","","",""
"","see_reward","","html-keyboard-response","242","1349152","0.0-160.0","0","0","BAPFD","People","","981","","","","32","","41","","13","","","","1","","","","","1","","","","","147","981","","","","","","","","","","","","","","","","","","","","","","","","",""
"","reward_outcome","","html-keyboard-response","243","1351167","0.0-161.0","0","0","BAPFD","People","","null","","","","null","","41","","13","","","","","","","","","","","","","","","","NaN","null","","","","","","","","","","","","","","","","","","","","","","",""
"","respond_faster","","html-keyboard-response","244","1352681","0.0-162.0-0.0","1","0","BAPFD","People","","null","","","","null","","","","","","","","","","","","","","","","","","","","","","","","","","","","","","","","","","","","","","","","","","","",""
"","fixation","","html-keyboard-response","245","1353709","0.0-164.0","0","0","BAPFD","People","","null","","","","null","","","","","","","","","","","","","","","","","","","","","","","","","","","","","","","","","","","","","","","","","","","",""
"","see_reward","","html-keyboard-response","246","1355137","0.0-165.0","0","0","BAPFD","People","","1423","","","","32","","40","","14","","","","-1","","","","","1","","","","","0","1423","","","","","","","","","","","","","","","","","","","","","","","","",""
"","reward_outcome","","html-keyboard-response","247","1357145","0.0-166.0","0","0","BAPFD","People","","null","","","","null","","40","","14","","","","","","","","","","","","","","","","NaN","null","","","","","","","","","","","","","","","","","","","","","","",""
"","respond_faster","","html-keyboard-response","248","1358667","0.0-167.0-0.0","1","0","BAPFD","People","","null","","","","null","","","","","","","","","","","","","","","","","","","","","","","","","","","","","","","","","","","","","","","","","","","",""
"","fixation","","html-keyboard-response","249","1359740","0.0-169.0","0","0","BAPFD","People","","null","","","","null","","","","","","","","","","","","","","","","","","","","","","","","","","","","","","","","","","","","","","","","","","","",""
"","see_reward","","html-keyboard-response","250","1360390","0.0-170.0","0","0","BAPFD","People","","642","","","","32","","6","","15","","","","1","","","","","1","","","","","144","642","","","","","","","","","","","","","","","","","","","","","","","","",""
"","reward_outcome","","html-keyboard-response","251","1362408","0.0-171.0","0","0","BAPFD","People","","null","","","","null","","6","","15","","","","","","","","","","","","","","","","NaN","null","","","","","","","","","","","","","","","","","","","","","","",""
"","respond_faster","","html-keyboard-response","252","1363924","0.0-172.0-0.0","1","0","BAPFD","People","","null","","","","null","","","","","","","","","","","","","","","","","","","","","","","","","","","","","","","","","","","","","","","","","","","",""
"","fixation","","html-keyboard-response","253","1364939","0.0-174.0","0","0","BAPFD","People","","null","","","","null","","","","","","","","","","","","","","","","","","","","","","","","","","","","","","","","","","","","","","","","","","","",""
"","see_reward","","html-keyboard-response","254","1366535","0.0-175.0","0","0","BAPFD","People","","1596","","","","32","","27","","16","","","","1","","","","","1","","","","","153","1596","","","","","","","","","","","","","","","","","","","","","","","","",""
"","reward_outcome","","html-keyboard-response","255","1368544","0.0-176.0","0","0","BAPFD","People","","null","","","","null","","27","","16","","","","","","","","","","","","","","","","NaN","null","","","","","","","","","","","","","","","","","","","","","","",""
"","respond_faster","","html-keyboard-response","256","1370082","0.0-177.0-0.0","1","0","BAPFD","People","","null","","","","null","","","","","","","","","","","","","","","","","","","","","","","","","","","","","","","","","","","","","","","","","","","",""
"","fixation","","html-keyboard-response","257","1371297","0.0-179.0","0","0","BAPFD","People","","null","","","","null","","","","","","","","","","","","","","","","","","","","","","","","","","","","","","","","","","","","","","","","","","","",""
"","see_reward","","html-keyboard-response","258","1372150","0.0-180.0","0","0","BAPFD","People","","851","","","","32","","34","","17","","","","-1","","","","","1","","","","","0","851","","","","","","","","","","","","","","","","","","","","","","","","",""
"","reward_outcome","","html-keyboard-response","259","1374165","0.0-181.0","0","0","BAPFD","People","","null","","","","null","","34","","17","","","","","","","","","","","","","","","","NaN","null","","","","","","","","","","","","","","","","","","","","","","",""
"","respond_faster","","html-keyboard-response","260","1375676","0.0-182.0-0.0","1","0","BAPFD","People","","null","","","","null","","","","","","","","","","","","","","","","","","","","","","","","","","","","","","","","","","","","","","","","","","","",""
"","fixation","","html-keyboard-response","261","1376678","0.0-184.0","0","0","BAPFD","People","","null","","","","null","","","","","","","","","","","","","","","","","","","","","","","","","","","","","","","","","","","","","","","","","","","",""
"","see_reward","","html-keyboard-response","262","1377728","0.0-185.0","0","0","BAPFD","People","","1048","","","","32","","27","","18","","","","1","","","","","1","","","","","153","1048","","","","","","","","","","","","","","","","","","","","","","","","",""
"","reward_outcome","","html-keyboard-response","263","1379736","0.0-186.0","0","0","BAPFD","People","","null","","","","null","","27","","18","","","","","","","","","","","","","","","","NaN","null","","","","","","","","","","","","","","","","","","","","","","",""
"","respond_faster","","html-keyboard-response","264","1381243","0.0-187.0-0.0","1","0","BAPFD","People","","null","","","","null","","","","","","","","","","","","","","","","","","","","","","","","","","","","","","","","","","","","","","","","","","","",""
"","fixation","","html-keyboard-response","265","1382351","0.0-189.0","0","0","BAPFD","People","","null","","","","null","","","","","","","","","","","","","","","","","","","","","","","","","","","","","","","","","","","","","","","","","","","",""
"","see_reward","","html-keyboard-response","266","1382630","0.0-190.0","0","0","BAPFD","People","","278","","","","32","","1","","19","","","","1","","","","","1","","","","","158","278","","","","","","","","","","","","","","","","","","","","","","","","",""
"","reward_outcome","","html-keyboard-response","267","1384638","0.0-191.0","0","0","BAPFD","People","","24","","","","38","","1","","19","","","","","","","","","","","","","","","","1","24","","","","","","","","","","","","","","","","","","","","","","",""
"","fixation","","html-keyboard-response","268","1385866","0.0-194.0","0","0","BAPFD","People","","null","","","","null","","","","","","","","","","","","","","","","","","","","","","","","","","","","","","","","","","","","","","","","","","","",""
"","see_reward","","html-keyboard-response","269","1387081","0.0-195.0","0","0","BAPFD","People","","1179","","","","32","","12","","20","","","","1","","","","","1","","","","","150","1179","","","","","","","","","","","","","","","","","","","","","","","","",""
"","reward_outcome","","html-keyboard-response","270","1389091","0.0-196.0","0","0","BAPFD","People","","null","","","","null","","12","","20","","","","","","","","","","","","","","","","NaN","null","","","","","","","","","","","","","","","","","","","","","","",""
"","respond_faster","","html-keyboard-response","271","1390599","0.0-197.0-0.0","1","0","BAPFD","People","","null","","","","null","","","","","","","","","","","","","","","","","","","","","","","","","","","","","","","","","","","","","","","","","","","",""
"","fixation","","html-keyboard-response","272","1391615","0.0-199.0","0","0","BAPFD","People","","null","","","","null","","","","","","","","","","","","","","","","","","","","","","","","","","","","","","","","","","","","","","","","","","","",""
"","see_reward","","html-keyboard-response","273","1392495","0.0-200.0","0","0","BAPFD","People","","879","","","","32","","4","","21","","","","-1","","","","","1","","","","","0","879","","","","","","","","","","","","","","","","","","","","","","","","",""
"","reward_outcome","","html-keyboard-response","274","1394504","0.0-201.0","0","0","BAPFD","People","","null","","","","null","","4","","21","","","","","","","","","","","","","","","","NaN","null","","","","","","","","","","","","","","","","","","","","","","",""
"","respond_faster","","html-keyboard-response","275","1396198","0.0-202.0-0.0","1","0","BAPFD","People","","null","","","","null","","","","","","","","","","","","","","","","","","","","","","","","","","","","","","","","","","","","","","","","","","","",""
"","fixation","","html-keyboard-response","276","1397293","0.0-204.0","0","0","BAPFD","People","","null","","","","null","","","","","","","","","","","","","","","","","","","","","","","","","","","","","","","","","","","","","","","","","","","",""
"","see_reward","","html-keyboard-response","277","1397910","0.0-205.0","0","0","BAPFD","People","","611","","","","32","","4","","22","","","","-1","","","","","1","","","","","0","611","","","","","","","","","","","","","","","","","","","","","","","","",""
"","reward_outcome","","html-keyboard-response","278","1399924","0.0-206.0","0","0","BAPFD","People","","null","","","","null","","4","","22","","","","","","","","","","","","","","","","NaN","null","","","","","","","","","","","","","","","","","","","","","","",""
"","respond_faster","","html-keyboard-response","279","1401433","0.0-207.0-0.0","1","0","BAPFD","People","","null","","","","null","","","","","","","","","","","","","","","","","","","","","","","","","","","","","","","","","","","","","","","","","","","",""
"","fixation","","html-keyboard-response","280","1402442","0.0-209.0","0","0","BAPFD","People","","null","","","","null","","","","","","","","","","","","","","","","","","","","","","","","","","","","","","","","","","","","","","","","","","","",""
"","see_reward","","html-keyboard-response","281","1403187","0.0-210.0","0","0","BAPFD","People","","671","","","","32","","28","","23","","","","-1","","","","","1","","","","","0","671","","","","","","","","","","","","","","","","","","","","","","","","",""
"","reward_outcome","","html-keyboard-response","282","1405447","0.0-211.0","0","0","BAPFD","People","","null","","","","null","","28","","23","","","","","","","","","","","","","","","","NaN","null","","","","","","","","","","","","","","","","","","","","","","",""
"","respond_faster","","html-keyboard-response","283","1407007","0.0-212.0-0.0","1","0","BAPFD","People","","null","","","","null","","","","","","","","","","","","","","","","","","","","","","","","","","","","","","","","","","","","","","","","","","","",""
"","block_over","","html-keyboard-response","284","1412070","0.0-213.0-0.0","0","0","BAPFD","People","","5062","","","","78","","","","","","","","","","","","","","","","","","","","","","","","","","","","","","","","","","","","","","","","","","","",""
"","fixation","","html-keyboard-response","285","1413087","0.0-214.0","0","0","BAPFD","People","","null","","","","null","","","","","","","","","","","","","","","","","","","","","","","","","","","","","","","","","","","","","","","","","","","",""
"","see_reward","","html-keyboard-response","286","1414216","0.0-215.0","0","0","BAPFD","People","","1127","","","","32","","6","","24","","","","1","","","","","2","","","","","144","1127","","","","","","","","","","","","","","","","","","","","","","","","",""
"","reward_outcome","","html-keyboard-response","287","1416227","0.0-216.0","0","0","BAPFD","People","","8","","","","40","","6","","24","","","","","","","","","","","","","","","","-1","8","","","","","","","","","","","","","","","","","","","","","","",""
"","fixation","","html-keyboard-response","288","1417230","0.0-219.0","0","0","BAPFD","People","","null","","","","null","","","","","","","","","","","","","","","","","","","","","","","","","","","","","","","","","","","","","","","","","","","",""
"","see_reward","","html-keyboard-response","289","1418031","0.0-220.0","0","0","BAPFD","People","","799","","","","32","","40","","25","","","","-1","","","","","2","","","","","0","799","","","","","","","","","","","","","","","","","","","","","","","","",""
"","reward_outcome","","html-keyboard-response","290","1420040","0.0-221.0","0","0","BAPFD","People","","null","","","","null","","40","","25","","","","","","","","","","","","","","","","NaN","null","","","","","","","","","","","","","","","","","","","","","","",""
"","respond_faster","","html-keyboard-response","291","1421545","0.0-222.0-0.0","1","0","BAPFD","People","","null","","","","null","","","","","","","","","","","","","","","","","","","","","","","","","","","","","","","","","","","","","","","","","","","",""
"","fixation","","html-keyboard-response","292","1422561","0.0-224.0","0","0","BAPFD","People","","null","","","","null","","","","","","","","","","","","","","","","","","","","","","","","","","","","","","","","","","","","","","","","","","","",""
"","see_reward","","html-keyboard-response","293","1423263","0.0-225.0","0","0","BAPFD","People","","700","","","","32","","44","","26","","","","-1","","","","","2","","","","","0","700","","","","","","","","","","","","","","","","","","","","","","","","",""
"","reward_outcome","","html-keyboard-response","294","1425323","0.0-226.0","0","0","BAPFD","People","","null","","","","null","","44","","26","","","","","","","","","","","","","","","","NaN","null","","","","","","","","","","","","","","","","","","","","","","",""
"","respond_faster","","html-keyboard-response","295","1426831","0.0-227.0-0.0","1","0","BAPFD","People","","null","","","","null","","","","","","","","","","","","","","","","","","","","","","","","","","","","","","","","","","","","","","","","","","","",""
"","fixation","","html-keyboard-response","296","1427839","0.0-229.0","0","0","BAPFD","People","","null","","","","null","","","","","","","","","","","","","","","","","","","","","","","","","","","","","","","","","","","","","","","","","","","",""
"","see_reward","","html-keyboard-response","297","1428487","0.0-230.0","0","0","BAPFD","People","","646","","","","32","","41","","27","","","","1","","","","","2","","","","","147","646","","","","","","","","","","","","","","","","","","","","","","","","",""
"","reward_outcome","","html-keyboard-response","298","1430497","0.0-231.0","0","0","BAPFD","People","","0","","","","40","","41","","27","","","","","","","","","","","","","","","","-1","0","","","","","","","","","","","","","","","","","","","","","","",""
"","fixation","","html-keyboard-response","299","1431508","0.0-234.0","0","0","BAPFD","People","","null","","","","null","","","","","","","","","","","","","","","","","","","","","","","","","","","","","","","","","","","","","","","","","","","",""
"","see_reward","","html-keyboard-response","300","1432274","0.0-235.0","0","0","BAPFD","People","","765","","","","32","","14","","28","","","","1","","","","","2","","","","","146","765","","","","","","","","","","","","","","","","","","","","","","","","",""
"","reward_outcome","","html-keyboard-response","301","1434290","0.0-236.0","0","0","BAPFD","People","","null","","","","null","","14","","28","","","","","","","","","","","","","","","","NaN","null","","","","","","","","","","","","","","","","","","","","","","",""
"","respond_faster","","html-keyboard-response","302","1435799","0.0-237.0-0.0","1","0","BAPFD","People","","null","","","","null","","","","","","","","","","","","","","","","","","","","","","","","","","","","","","","","","","","","","","","","","","","",""
"","fixation","","html-keyboard-response","303","1437125","0.0-239.0","0","0","BAPFD","People","","null","","","","null","","","","","","","","","","","","","","","","","","","","","","","","","","","","","","","","","","","","","","","","","","","",""
"","see_reward","","html-keyboard-response","304","1437991","0.0-240.0","0","0","BAPFD","People","","864","","","","32","","4","","29","","","","-1","","","","","2","","","","","0","864","","","","","","","","","","","","","","","","","","","","","","","","",""
"","reward_outcome","","html-keyboard-response","305","1439999","0.0-241.0","0","0","BAPFD","People","","null","","","","null","","4","","29","","","","","","","","","","","","","","","","NaN","null","","","","","","","","","","","","","","","","","","","","","","",""
"","respond_faster","","html-keyboard-response","306","1441512","0.0-242.0-0.0","1","0","BAPFD","People","","null","","","","null","","","","","","","","","","","","","","","","","","","","","","","","","","","","","","","","","","","","","","","","","","","",""
"","fixation","","html-keyboard-response","307","1442583","0.0-244.0","0","0","BAPFD","People","","null","","","","null","","","","","","","","","","","","","","","","","","","","","","","","","","","","","","","","","","","","","","","","","","","",""
"","see_reward","","html-keyboard-response","308","1443448","0.0-245.0","0","0","BAPFD","People","","862","","","","32","","6","","30","","","","1","","","","","2","","","","","144","862","","","","","","","","","","","","","","","","","","","","","","","","",""
"","reward_outcome","","html-keyboard-response","309","1445508","0.0-246.0","0","0","BAPFD","People","","null","","","","null","","6","","30","","","","","","","","","","","","","","","","NaN","null","","","","","","","","","","","","","","","","","","","","","","",""
"","respond_faster","","html-keyboard-response","310","1447053","0.0-247.0-0.0","1","0","BAPFD","People","","null","","","","null","","","","","","","","","","","","","","","","","","","","","","","","","","","","","","","","","","","","","","","","","","","",""
"","fixation","","html-keyboard-response","311","1448127","0.0-249.0","0","0","BAPFD","People","","null","","","","null","","","","","","","","","","","","","","","","","","","","","","","","","","","","","","","","","","","","","","","","","","","",""
"","see_reward","","html-keyboard-response","312","1448842","0.0-250.0","0","0","BAPFD","People","","713","","","","32","","4","","31","","","","-1","","","","","2","","","","","0","713","","","","","","","","","","","","","","","","","","","","","","","","",""
"","reward_outcome","","html-keyboard-response","313","1450877","0.0-251.0","0","0","BAPFD","People","","null","","","","null","","4","","31","","","","","","","","","","","","","","","","NaN","null","","","","","","","","","","","","","","","","","","","","","","",""
"","respond_faster","","html-keyboard-response","314","1452399","0.0-252.0-0.0","1","0","BAPFD","People","","null","","","","null","","","","","","","","","","","","","","","","","","","","","","","","","","","","","","","","","","","","","","","","","","","",""
"","fixation","","html-keyboard-response","315","1453415","0.0-254.0","0","0","BAPFD","People","","null","","","","null","","","","","","","","","","","","","","","","","","","","","","","","","","","","","","","","","","","","","","","","","","","",""
"","see_reward","","html-keyboard-response","316","1454161","0.0-255.0","0","0","BAPFD","People","","744","","","","32","","14","","32","","","","1","","","","","2","","","","","146","744","","","","","","","","","","","","","","","","","","","","","","","","",""
"","reward_outcome","","html-keyboard-response","317","1456167","0.0-256.0","0","0","BAPFD","People","","null","","","","null","","14","","32","","","","","","","","","","","","","","","","NaN","null","","","","","","","","","","","","","","","","","","","","","","",""
"","respond_faster","","html-keyboard-response","318","1457671","0.0-257.0-0.0","1","0","BAPFD","People","","null","","","","null","","","","","","","","","","","","","","","","","","","","","","","","","","","","","","","","","","","","","","","","","","","",""
"","fixation","","html-keyboard-response","319","1458680","0.0-259.0","0","0","BAPFD","People","","null","","","","null","","","","","","","","","","","","","","","","","","","","","","","","","","","","","","","","","","","","","","","","","","","",""
"","see_reward","","html-keyboard-response","320","1459630","0.0-260.0","0","0","BAPFD","People","","946","","","","32","","34","","33","","","","-1","","","","","2","","","","","0","946","","","","","","","","","","","","","","","","","","","","","","","","",""
"","reward_outcome","","html-keyboard-response","321","1461642","0.0-261.0","0","0","BAPFD","People","","null","","","","null","","34","","33","","","","","","","","","","","","","","","","NaN","null","","","","","","","","","","","","","","","","","","","","","","",""
"","respond_faster","","html-keyboard-response","322","1463153","0.0-262.0-0.0","1","0","BAPFD","People","","null","","","","null","","","","","","","","","","","","","","","","","","","","","","","","","","","","","","","","","","","","","","","","","","","",""
"","fixation","","html-keyboard-response","323","1464159","0.0-264.0","0","0","BAPFD","People","","null","","","","null","","","","","","","","","","","","","","","","","","","","","","","","","","","","","","","","","","","","","","","","","","","",""
"","see_reward","","html-keyboard-response","324","1464793","0.0-265.0","0","0","BAPFD","People","","630","","","","32","","44","","34","","","","-1","","","","","2","","","","","0","630","","","","","","","","","","","","","","","","","","","","","","","","",""
"","reward_outcome","","html-keyboard-response","325","1466822","0.0-266.0","0","0","BAPFD","People","","null","","","","null","","44","","34","","","","","","","","","","","","","","","","NaN","null","","","","","","","","","","","","","","","","","","","","","","",""
"","respond_faster","","html-keyboard-response","326","1468340","0.0-267.0-0.0","1","0","BAPFD","People","","null","","","","null","","","","","","","","","","","","","","","","","","","","","","","","","","","","","","","","","","","","","","","","","","","",""
"","fixation","","html-keyboard-response","327","1469347","0.0-269.0","0","0","BAPFD","People","","null","","","","null","","","","","","","","","","","","","","","","","","","","","","","","","","","","","","","","","","","","","","","","","","","",""
"","see_reward","","html-keyboard-response","328","1470058","0.0-270.0","0","0","BAPFD","People","","710","","","","32","","27","","35","","","","1","","","","","2","","","","","153","710","","","","","","","","","","","","","","","","","","","","","","","","",""
"","reward_outcome","","html-keyboard-response","329","1472074","0.0-271.0","0","0","BAPFD","People","","null","","","","null","","27","","35","","","","","","","","","","","","","","","","NaN","null","","","","","","","","","","","","","","","","","","","","","","",""
"","respond_faster","","html-keyboard-response","330","1473584","0.0-272.0-0.0","1","0","BAPFD","People","","null","","","","null","","","","","","","","","","","","","","","","","","","","","","","","","","","","","","","","","","","","","","","","","","","",""
"","fixation","","html-keyboard-response","331","1474591","0.0-274.0","0","0","BAPFD","People","","null","","","","null","","","","","","","","","","","","","","","","","","","","","","","","","","","","","","","","","","","","","","","","","","","",""
"","see_reward","","html-keyboard-response","332","1475691","0.0-275.0","0","0","BAPFD","People","","1091","","","","32","","12","","36","","","","1","","","","","2","","","","","150","1091","","","","","","","","","","","","","","","","","","","","","","","","",""
"","reward_outcome","","html-keyboard-response","333","1477698","0.0-276.0","0","0","BAPFD","People","","null","","","","null","","12","","36","","","","","","","","","","","","","","","","NaN","null","","","","","","","","","","","","","","","","","","","","","","",""
"","respond_faster","","html-keyboard-response","334","1479199","0.0-277.0-0.0","1","0","BAPFD","People","","null","","","","null","","","","","","","","","","","","","","","","","","","","","","","","","","","","","","","","","","","","","","","","","","","",""
"","fixation","","html-keyboard-response","335","1480208","0.0-279.0","0","0","BAPFD","People","","null","","","","null","","","","","","","","","","","","","","","","","","","","","","","","","","","","","","","","","","","","","","","","","","","",""
"","see_reward","","html-keyboard-response","336","1481030","0.0-280.0","0","0","BAPFD","People","","821","","","","32","","45","","37","","","","-1","","","","","2","","","","","0","821","","","","","","","","","","","","","","","","","","","","","","","","",""
"","reward_outcome","","html-keyboard-response","337","1483048","0.0-281.0","0","0","BAPFD","People","","0","","","","38","","45","","37","","","","","","","","","","","","","","","","1","0","","","","","","","","","","","","","","","","","","","","","","",""
"","fixation","","html-keyboard-response","338","1484057","0.0-284.0","0","0","BAPFD","People","","null","","","","null","","","","","","","","","","","","","","","","","","","","","","","","","","","","","","","","","","","","","","","","","","","",""
"","see_reward","","html-keyboard-response","339","1485411","0.0-285.0","0","0","BAPFD","People","","1346","","","","32","","12","","38","","","","1","","","","","2","","","","","150","1346","","","","","","","","","","","","","","","","","","","","","","","","",""
"","reward_outcome","","html-keyboard-response","340","1487424","0.0-286.0","0","0","BAPFD","People","","null","","","","null","","12","","38","","","","","","","","","","","","","","","","NaN","null","","","","","","","","","","","","","","","","","","","","","","",""
"","respond_faster","","html-keyboard-response","341","1488928","0.0-287.0-0.0","1","0","BAPFD","People","","null","","","","null","","","","","","","","","","","","","","","","","","","","","","","","","","","","","","","","","","","","","","","","","","","",""
"","fixation","","html-keyboard-response","342","1489936","0.0-289.0","0","0","BAPFD","People","","null","","","","null","","","","","","","","","","","","","","","","","","","","","","","","","","","","","","","","","","","","","","","","","","","",""
"","see_reward","","html-keyboard-response","343","1490735","0.0-290.0","0","0","BAPFD","People","","798","","","","32","","45","","39","","","","-1","","","","","2","","","","","0","798","","","","","","","","","","","","","","","","","","","","","","","","",""
"","reward_outcome","","html-keyboard-response","344","1492743","0.0-291.0","0","0","BAPFD","People","","0","","","","38","","45","","39","","","","","","","","","","","","","","","","1","0","","","","","","","","","","","","","","","","","","","","","","",""
"","fixation","","html-keyboard-response","345","1493750","0.0-294.0","0","0","BAPFD","People","","null","","","","null","","","","","","","","","","","","","","","","","","","","","","","","","","","","","","","","","","","","","","","","","","","",""
"","see_reward","","html-keyboard-response","346","1494853","0.0-295.0","0","0","BAPFD","People","","1102","","","","32","","40","","40","","","","-1","","","","","2","","","","","0","1102","","","","","","","","","","","","","","","","","","","","","","","","",""
"","reward_outcome","","html-keyboard-response","347","1496854","0.0-296.0","0","0","BAPFD","People","","null","","","","null","","40","","40","","","","","","","","","","","","","","","","NaN","null","","","","","","","","","","","","","","","","","","","","","","",""
"","respond_faster","","html-keyboard-response","348","1498359","0.0-297.0-0.0","1","0","BAPFD","People","","null","","","","null","","","","","","","","","","","","","","","","","","","","","","","","","","","","","","","","","","","","","","","","","","","",""
