"success","ttype","start_time","trial_type","trial_index","time_elapsed","internal_node_id","warning","missed_checkup","PID","stim_type","view_history","rt","responses","category","repeat_instructions","key_press","response","stimulus_id","painting","index","stimulus_left","stimulus_right","explain_trial","reward_type","rating_left","rating_right","painting_left","painting_right","block","left_chosen","chosen_obj","unchosen_obj","explain_response","reward_amount","see_reward_rt","register_reward_response","register_reward_rt","deliberation_reward_tally","stimulus_left_deliberation_ind","stimulus_right_deliberation_ind","chosen_trial","gain_left","higher_outcome_chosen","old_pair","chosen_object","rt_pairs","left_object_chosen","rt_object","old_response","new_rating","deliberated_stim","initial_rating","outcome_eval_rt","outcome_eval_response","outcome_eval_gain","outcome_eval_acc","preamble","outcome_eval_confidence","outcome_eval_confidence_rt","total_reward_tally"
"true","full_screen","d01182023hr1353","fullscreen","0","24556","0.0-0.0","0","0","WIgBv","People","","","","","","","","","","","","","","","","","","","","","","","","","","","","","","","","","","","","","","","","","","","","","","","","","",""
"","rating_instructions","","instructions","1","87911","0.0-1.0-0.0","0","0","WIgBv","People","[{""page_index"":0,""viewing_time"":55837},{""page_index"":1,""viewing_time"":7491}]","63331","","","","","","","","","","","","","","","","","","","","","","","","","","","","","","","","","","","","","","","","","","","","","","","",""
"","","","survey-multi-choice","2","113341","0.0-1.0-1.0","0","0","WIgBv","People","","25418","{""Q0"":""True"",""Q1"":""Mouse""}","rating_comprehension_check","0","","","","","","","","","","","","","","","","","","","","","","","","","","","","","","","","","","","","","","","","","","","","",""
"","start_phase","","html-keyboard-response","3","133388","0.0-2.0","0","0","WIgBv","People","","20038","","","","78","","","","","","","","","","","","","","","","","","","","","","","","","","","","","","","","","","","","","","","","","","","",""
"","rating","","html-slider-response","4","142136","0.0-3.0","0","0","WIgBv","People","","8738","","","","","83","33","olena-sergienko-0TSd6uCKTKc-unsplash.jpg","0","","","","","","","","","","","","","","","","","","","","","","","","","","","","","","","","","","","","","","","",""
"","rating","","html-slider-response","5","146837","0.0-4.0","0","0","WIgBv","People","","4694","","","","","87","9","carlos-andres-gomez-vJuk8Y86mRw-unsplash.jpg","1","","","","","","","","","","","","","","","","","","","","","","","","","","","","","","","","","","","","","","","",""
"","rating","","html-slider-response","6","152515","0.0-5.0","0","0","WIgBv","People","","5671","","","","","45","14","freddy-kearney-o-ioeoATbIM-unsplash.jpg","2","","","","","","","","","","","","","","","","","","","","","","","","","","","","","","","","","","","","","","","",""
"","rating","","html-slider-response","7","157279","0.0-6.0","0","0","WIgBv","People","","4758","","","","","59","44","rikonavt-HQjfrvdTfak-unsplash.jpg","3","","","","","","","","","","","","","","","","","","","","","","","","","","","","","","","","","","","","","","","",""
"","rating","","html-slider-response","8","161255","0.0-7.0","0","0","WIgBv","People","","3966","","","","","66","2","arjunsyah-TBUA5KHJn6k-unsplash.jpg","4","","","","","","","","","","","","","","","","","","","","","","","","","","","","","","","","","","","","","","","",""
"","rating","","html-slider-response","9","165220","0.0-8.0","0","0","WIgBv","People","","3951","","","","","67","0","abstral-official-cyOKLSgkgCE-unsplash.jpg","5","","","","","","","","","","","","","","","","","","","","","","","","","","","","","","","","","","","","","","","",""
"","rating","","html-slider-response","10","172409","0.0-9.0","0","0","WIgBv","People","","7181","","","","","90","45","sarah-noltner-pL5ZzPp1zqg-unsplash.jpg","6","","","","","","","","","","","","","","","","","","","","","","","","","","","","","","","","","","","","","","","",""
"","rating","","html-slider-response","11","179404","0.0-10.0","0","0","WIgBv","People","","6988","","","","","91","39","philip-martin-5aGUyCW_PJw-unsplash.jpg","7","","","","","","","","","","","","","","","","","","","","","","","","","","","","","","","","","","","","","","","",""
"","rating","","html-slider-response","12","182703","0.0-11.0","0","0","WIgBv","People","","3291","","","","","91","5","batel-studio-ttSRjiYG_WM-unsplash.jpg","8","","","","","","","","","","","","","","","","","","","","","","","","","","","","","","","","","","","","","","","",""
"","rating","","html-slider-response","13","186515","0.0-12.0","0","0","WIgBv","People","","3805","","","","","89","22","jessica-radanavong-mrYkTuAesKE-unsplash.jpg","9","","","","","","","","","","","","","","","","","","","","","","","","","","","","","","","","","","","","","","","",""
"","rating","","html-slider-response","14","192373","0.0-13.0","0","0","WIgBv","People","","5850","","","","","97","17","gleb-lukomets-paBzWCPN23k-unsplash.jpg","10","","","","","","","","","","","","","","","","","","","","","","","","","","","","","","","","","","","","","","","",""
"","rating","","html-slider-response","15","201177","0.0-14.0","0","0","WIgBv","People","","8793","","","","","93","11","christian-ferrer-8vT-DgHZDG4-unsplash.jpg","11","","","","","","","","","","","","","","","","","","","","","","","","","","","","","","","","","","","","","","","",""
"","rating","","html-slider-response","16","204155","0.0-15.0","0","0","WIgBv","People","","2971","","","","","99","35","oliver-ragfelt-khV4fTy6-D8-unsplash.jpg","12","","","","","","","","","","","","","","","","","","","","","","","","","","","","","","","","","","","","","","","",""
"","rating","","html-slider-response","17","207861","0.0-16.0","0","0","WIgBv","People","","3700","","","","","97","4","barna-bartis-2x3vfVxwR7o-unsplash.jpg","13","","","","","","","","","","","","","","","","","","","","","","","","","","","","","","","","","","","","","","","",""
"","rating","","html-slider-response","18","212762","0.0-17.0","0","0","WIgBv","People","","4896","","","","","100","46","stefan-stefancik-QXevDflbl8A-unsplash.jpg","14","","","","","","","","","","","","","","","","","","","","","","","","","","","","","","","","","","","","","","","",""
"","rating","","html-slider-response","19","216450","0.0-18.0","0","0","WIgBv","People","","3680","","","","","96","42","prince-akachi-l3IHXOdMyHQ-unsplash.jpg","15","","","","","","","","","","","","","","","","","","","","","","","","","","","","","","","","","","","","","","","",""
"","rating","","html-slider-response","20","219980","0.0-19.0","0","0","WIgBv","People","","3523","","","","","98","19","ha-nguy-n-OFSQ6bHjFjs-unsplash.jpg","16","","","","","","","","","","","","","","","","","","","","","","","","","","","","","","","","","","","","","","","",""
"","rating","","html-slider-response","21","223517","0.0-20.0","0","0","WIgBv","People","","3531","","","","","96","16","giano-currie-5-9YOsmf8IQ-unsplash.jpg","17","","","","","","","","","","","","","","","","","","","","","","","","","","","","","","","","","","","","","","","",""
"","rating","","html-slider-response","22","234041","0.0-21.0","0","0","WIgBv","People","","10513","","","","","69","15","gabriel-silverio-u3WmDyKGsrY-unsplash.jpg","18","","","","","","","","","","","","","","","","","","","","","","","","","","","","","","","","","","","","","","","",""
"","rating","","html-slider-response","23","239283","0.0-22.0","0","0","WIgBv","People","","5235","","","","","69","21","jessica-felicio-_cvwXhGqG-o-unsplash.jpg","19","","","","","","","","","","","","","","","","","","","","","","","","","","","","","","","","","","","","","","","",""
"","rating","","html-slider-response","24","245118","0.0-23.0","0","0","WIgBv","People","","5827","","","","","97","7","brooke-cagle-HRZUzoX1e6w-unsplash.jpg","20","","","","","","","","","","","","","","","","","","","","","","","","","","","","","","","","","","","","","","","",""
"","rating","","html-slider-response","25","249401","0.0-24.0","0","0","WIgBv","People","","4274","","","","","98","38","petr-sevcovic-HzDF-rxlSeM-unsplash.jpg","21","","","","","","","","","","","","","","","","","","","","","","","","","","","","","","","","","","","","","","","",""
"","rating","","html-slider-response","26","253365","0.0-25.0","0","0","WIgBv","People","","3958","","","","","95","48","velizar-ivanov-7ktP9yZA1g4-unsplash.jpg","22","","","","","","","","","","","","","","","","","","","","","","","","","","","","","","","","","","","","","","","",""
"","rating","","html-slider-response","27","258946","0.0-26.0","0","0","WIgBv","People","","5572","","","","","96","40","prince-akachi-4Yv84VgQkRM-unsplash.jpg","23","","","","","","","","","","","","","","","","","","","","","","","","","","","","","","","","","","","","","","","",""
"","rating","","html-slider-response","28","263122","0.0-27.0","0","0","WIgBv","People","","4167","","","","","94","29","leilani-angel-K84vnnzxmTQ-unsplash.jpg","24","","","","","","","","","","","","","","","","","","","","","","","","","","","","","","","","","","","","","","","",""
"","rating","","html-slider-response","29","266309","0.0-28.0","0","0","WIgBv","People","","3180","","","","","92","49","vicky-hladynets-_gDoyVv5F4c-unsplash.jpg","25","","","","","","","","","","","","","","","","","","","","","","","","","","","","","","","","","","","","","","","",""
"","rating","","html-slider-response","30","270072","0.0-29.0","0","0","WIgBv","People","","3754","","","","","70","47","tyler-nix-ZGa9d1a_4tA-unsplash.jpg","26","","","","","","","","","","","","","","","","","","","","","","","","","","","","","","","","","","","","","","","",""
"","rating","","html-slider-response","31","274424","0.0-30.0","0","0","WIgBv","People","","4345","","","","","93","26","juri-gianfrancesco-9EZadYaMzk4-unsplash.jpg","27","","","","","","","","","","","","","","","","","","","","","","","","","","","","","","","","","","","","","","","",""
"","rating","","html-slider-response","32","278256","0.0-31.0","0","0","WIgBv","People","","3824","","","","","93","25","joseph-gonzalez-iFgRcqHznqg-unsplash.jpg","28","","","","","","","","","","","","","","","","","","","","","","","","","","","","","","","","","","","","","","","",""
"","rating","","html-slider-response","33","280583","0.0-32.0","0","0","WIgBv","People","","2319","","","","","90","6","ben-o-bro-C5XyLljkMrY-unsplash.jpg","29","","","","","","","","","","","","","","","","","","","","","","","","","","","","","","","","","","","","","","","",""
"","rating","","html-slider-response","34","282796","0.0-33.0","0","0","WIgBv","People","","2205","","","","","88","32","nathan-dumlao-ger61_TX6oI-unsplash.jpg","30","","","","","","","","","","","","","","","","","","","","","","","","","","","","","","","","","","","","","","","",""
"","rating","","html-slider-response","35","288058","0.0-34.0","0","0","WIgBv","People","","5254","","","","","88","27","jurica-koletic-7YVZYZeITc8-unsplash.jpg","31","","","","","","","","","","","","","","","","","","","","","","","","","","","","","","","","","","","","","","","",""
"","rating","","html-slider-response","36","293269","0.0-35.0","0","0","WIgBv","People","","5204","","","","","78","20","houcine-ncib-B4TjXnI0Y2c-unsplash.jpg","32","","","","","","","","","","","","","","","","","","","","","","","","","","","","","","","","","","","","","","","",""
"","rating","","html-slider-response","37","303811","0.0-36.0","0","0","WIgBv","People","","10532","","","","","87","10","charles-etoroma-95UF6LXe-Lo-unsplash.jpg","33","","","","","","","","","","","","","","","","","","","","","","","","","","","","","","","","","","","","","","","",""
"","rating","","html-slider-response","38","309057","0.0-37.0","0","0","WIgBv","People","","5237","","","","","94","23","joanna-nix-walkup-H4fEMshfwTE-unsplash.jpg","34","","","","","","","","","","","","","","","","","","","","","","","","","","","","","","","","","","","","","","","",""
"","rating","","html-slider-response","39","314119","0.0-38.0","0","0","WIgBv","People","","5053","","","","","91","34","oliver-johnson-1TUIcKob7Zs-unsplash.jpg","35","","","","","","","","","","","","","","","","","","","","","","","","","","","","","","","","","","","","","","","",""
"","rating","","html-slider-response","40","318295","0.0-39.0","0","0","WIgBv","People","","4168","","","","","92","3","art-hauntington-jzY0KRJopEI-unsplash.jpg","36","","","","","","","","","","","","","","","","","","","","","","","","","","","","","","","","","","","","","","","",""
"","rating","","html-slider-response","41","322694","0.0-40.0","0","0","WIgBv","People","","4370","","","","","72","13","erik-lucatero-d2MSDujJl2g-unsplash.jpg","37","","","","","","","","","","","","","","","","","","","","","","","","","","","","","","","","","","","","","","","",""
"","rating","","html-slider-response","42","326883","0.0-41.0","0","0","WIgBv","People","","4186","","","","","94","31","mathilda-khoo-vLR0YP_otCo-unsplash.jpg","38","","","","","","","","","","","","","","","","","","","","","","","","","","","","","","","","","","","","","","","",""
"","rating","","html-slider-response","43","330669","0.0-42.0","0","0","WIgBv","People","","3781","","","","","72","18","good-faces-xmSWVeGEnJw-unsplash.jpg","39","","","","","","","","","","","","","","","","","","","","","","","","","","","","","","","","","","","","","","","",""
"","rating","","html-slider-response","44","335047","0.0-43.0","0","0","WIgBv","People","","4373","","","","","95","43","raamin-ka-0qJBEzudn5E-unsplash.jpg","40","","","","","","","","","","","","","","","","","","","","","","","","","","","","","","","","","","","","","","","",""
"","rating","","html-slider-response","45","339129","0.0-44.0","0","0","WIgBv","People","","4077","","","","","86","8","bruce-dixon-3M9WJQVHzog-unsplash.jpg","41","","","","","","","","","","","","","","","","","","","","","","","","","","","","","","","","","","","","","","","",""
"","rating","","html-slider-response","46","342673","0.0-45.0","0","0","WIgBv","People","","3539","","","","","100","30","matheus-ferrero-pg_WCHWSdT8-unsplash.jpg","42","","","","","","","","","","","","","","","","","","","","","","","","","","","","","","","","","","","","","","","",""
"","rating","","html-slider-response","47","345992","0.0-46.0","0","0","WIgBv","People","","3312","","","","","95","24","joel-mott-LaK153ghdig-unsplash.jpg","43","","","","","","","","","","","","","","","","","","","","","","","","","","","","","","","","","","","","","","","",""
"","rating","","html-slider-response","48","350020","0.0-47.0","0","0","WIgBv","People","","4019","","","","","98","36","ospan-ali-mGdA2fzjWLo-unsplash.jpg","44","","","","","","","","","","","","","","","","","","","","","","","","","","","","","","","","","","","","","","","",""
"","rating","","html-slider-response","49","353938","0.0-48.0","0","0","WIgBv","People","","3914","","","","","88","1","aiony-haust-jmATI5Q_YgY-unsplash.jpg","45","","","","","","","","","","","","","","","","","","","","","","","","","","","","","","","","","","","","","","","",""
"","rating","","html-slider-response","50","357673","0.0-49.0","0","0","WIgBv","People","","3730","","","","","93","12","daniel-rigdon-dXmXKPP2L4E-unsplash.jpg","46","","","","","","","","","","","","","","","","","","","","","","","","","","","","","","","","","","","","","","","",""
"","rating","","html-slider-response","51","361470","0.0-50.0","0","0","WIgBv","People","","3787","","","","","96","28","justin-chen-J7Cf1Gch49E-unsplash.jpg","47","","","","","","","","","","","","","","","","","","","","","","","","","","","","","","","","","","","","","","","",""
"","rating","","html-slider-response","52","365815","0.0-51.0","0","0","WIgBv","People","","4338","","","","","86","37","pavel-anoshin-d0peGya6R5Y-unsplash.jpg","48","","","","","","","","","","","","","","","","","","","","","","","","","","","","","","","","","","","","","","","",""
"","rating","","html-slider-response","53","370122","0.0-52.0","0","0","WIgBv","People","","4299","","","","","58","41","prince-akachi-i2hoD-C2RUA-unsplash.jpg","49","","","","","","","","","","","","","","","","","","","","","","","","","","","","","","","","","","","","","","","",""
"","deliberation_instructions","","instructions","54","608349","0.0-53.0-0.0","0","0","WIgBv","People","[{""page_index"":0,""viewing_time"":54867},{""page_index"":1,""viewing_time"":110919},{""page_index"":2,""viewing_time"":4626},{""page_index"":3,""viewing_time"":62160},{""page_index"":4,""viewing_time"":5640}]","238213","","","","","","","","","","","","","","","","","","","","","","","","","","","","","","","","","","","","","","","","","","","","","","","",""
"","","","survey-multi-choice","55","683825","0.0-53.0-1.0","0","0","WIgBv","People","","75460","{""Q0"":""True"",""Q1"":""False"",""Q2"":""Consider carefully and take your time (up to 10 seconds)"",""Q3"":""True"",""Q4"":""D""}","deliberation_comprehension_check","1","","","","","","","","","","","","","","","","","","","","","","","","","","","","","","","","","","","","","","","","","","","","",""
"","missed_instruction_checkup","","html-keyboard-response","56","689753","0.0-53.0-2.0-0.0","0","1","WIgBv","People","","5916","","","","78","","","","","","","","","","","","","","","","","","","","","","","","","","","","","","","","","","","","","","","","","","","",""
"","deliberation_instructions","","instructions","57","819851","0.0-53.1-0.1","0","0","WIgBv","People","[{""page_index"":0,""viewing_time"":2453},{""page_index"":1,""viewing_time"":2175},{""page_index"":2,""viewing_time"":70068},{""page_index"":3,""viewing_time"":53159},{""page_index"":4,""viewing_time"":2235}]","130091","","","","","","","","","","","","","","","","","","","","","","","","","","","","","","","","","","","","","","","","","","","","","","","",""
"","","","survey-multi-choice","58","853960","0.0-53.1-1.1","0","0","WIgBv","People","","34092","{""Q0"":""True"",""Q1"":""True"",""Q2"":""Consider carefully and take your time (up to 10 seconds)"",""Q3"":""True"",""Q4"":""D""}","deliberation_comprehension_check","0","","","","","","","","","","","","","","","","","","","","","","","","","","","","","","","","","","","","","","","","","","","","",""
"","start_phase","","html-keyboard-response","59","858239","0.0-54.0","0","0","WIgBv","People","","4268","","","","78","","","","","","","","","","","","","","","","","","","","","","","","","","","","","","","","","","","","","","","","","","","",""
"","first_deliberation_block","","html-keyboard-response","60","863574","0.0-55.0","0","0","WIgBv","People","","5317","","","","78","","","","","","","","","","","","","","","","","","","","","","","","","","","","","","","","","","","","","","","","","","","",""
"","fixation","","html-keyboard-response","61","864588","0.0-56.0-0.0","0","0","WIgBv","People","","null","","","","null","","","","","","","","","","","","","","","","","","","","","","","","","","","","","","","","","","","","","","","","","","","",""
"","deliberation","","html-keyboard-response","62","873008","0.0-56.0-1.0","0","0","WIgBv","People","","8405","","","","75","","","","0","49","43","1","-1","92","95","vicky-hladynets-_gDoyVv5F4c-unsplash.jpg","raamin-ka-0qJBEzudn5E-unsplash.jpg","1","0","43","49","","","","","","","","","","","","","","","","","","","","","","","","","","","",""
"","choice_confirmation","","html-keyboard-response","63","873529","0.0-56.0-2.0-0.0","0","0","WIgBv","People","","null","","","","null","","","","0","49","43","","","","","","","","","","","","","","","","","","","","","","","","","","","","","","","","","","","","","",""
"","explain_trial","","survey-text","64","908040","0.0-56.0-5.0-0.0","0","0","WIgBv","People","","34494","{""Q0"":""Nice.""}","","","","","","","0","49","43","","","","","","","","","","","{""Q0"":""Nice.""}","","","","","","","","","","","","","","","","","","","","","","","","","","",""
"","fixation","","html-keyboard-response","65","909062","0.0-57.0-0.0","0","0","WIgBv","People","","null","","","","null","","","","","","","","","","","","","","","","","","","","","","","","","","","","","","","","","","","","","","","","","","","",""
"","deliberation","","html-keyboard-response","66","919073","0.0-57.0-1.0","0","0","WIgBv","People","","null","","","","null","","","","1","31","26","1","1","94","93","mathilda-khoo-vLR0YP_otCo-unsplash.jpg","juri-gianfrancesco-9EZadYaMzk4-unsplash.jpg","1","","","","","","","","","","","","","","","","","","","","","","","","","","","","","","",""
"","deliberation_too_slow","","html-keyboard-response","67","920578","0.0-57.0-4.0-0.0","1","0","WIgBv","People","","null","","","","null","","","","1","","","","","","","","","","","","","","","","","","","","","","","","","","","","","","","","","","","","","","","",""
"","fixation","","html-keyboard-response","68","921596","0.0-57.1-0.1","0","0","WIgBv","People","","null","","","","null","","","","","","","","","","","","","","","","","","","","","","","","","","","","","","","","","","","","","","","","","","","",""
"","deliberation","","html-keyboard-response","69","922828","0.0-57.1-1.1","0","0","WIgBv","People","","1227","","","","68","","","","1","31","26","1","1","94","93","mathilda-khoo-vLR0YP_otCo-unsplash.jpg","juri-gianfrancesco-9EZadYaMzk4-unsplash.jpg","1","1","31","26","","","","","","","","","","","","","","","","","","","","","","","","","","","",""
"","choice_confirmation","","html-keyboard-response","70","923343","0.0-57.1-2.1-0.1","0","0","WIgBv","People","","null","","","","null","","","","1","31","26","","","","","","","","","","","","","","","","","","","","","","","","","","","","","","","","","","","","","",""
"","explain_trial","","survey-text","71","934574","0.0-57.1-5.1-0.1","0","0","WIgBv","People","","11212","{""Q0"":""cute""}","","","","","","","1","31","26","","","","","","","","","","","{""Q0"":""cute""}","","","","","","","","","","","","","","","","","","","","","","","","","","",""
"","fixation","","html-keyboard-response","72","935590","0.0-58.0-0.0","0","0","WIgBv","People","","null","","","","null","","","","","","","","","","","","","","","","","","","","","","","","","","","","","","","","","","","","","","","","","","","",""
"","deliberation","","html-keyboard-response","73","940208","0.0-58.0-1.0","0","0","WIgBv","People","","4610","","","","75","","","","2","34","45","0","1","91","90","oliver-johnson-1TUIcKob7Zs-unsplash.jpg","sarah-noltner-pL5ZzPp1zqg-unsplash.jpg","1","0","45","34","","","","","","","","","","","","","","","","","","","","","","","","","","","",""
"","choice_confirmation","","html-keyboard-response","74","940715","0.0-58.0-2.0-0.0","0","0","WIgBv","People","","null","","","","null","","","","2","34","45","","","","","","","","","","","","","","","","","","","","","","","","","","","","","","","","","","","","","",""
"","fixation","","html-keyboard-response","75","941725","0.0-59.0-0.0","0","0","WIgBv","People","","null","","","","null","","","","","","","","","","","","","","","","","","","","","","","","","","","","","","","","","","","","","","","","","","","",""
"","deliberation","","html-keyboard-response","76","947175","0.0-59.0-1.0","0","0","WIgBv","People","","5446","","","","68","","","","3","11","32","0","1","93","88","christian-ferrer-8vT-DgHZDG4-unsplash.jpg","nathan-dumlao-ger61_TX6oI-unsplash.jpg","1","1","11","32","","","","","","","","","","","","","","","","","","","","","","","","","","","",""
"","choice_confirmation","","html-keyboard-response","77","947722","0.0-59.0-2.0-0.0","0","0","WIgBv","People","","null","","","","null","","","","3","11","32","","","","","","","","","","","","","","","","","","","","","","","","","","","","","","","","","","","","","",""
"","fixation","","html-keyboard-response","78","948740","0.0-60.0-0.0","0","0","WIgBv","People","","null","","","","null","","","","","","","","","","","","","","","","","","","","","","","","","","","","","","","","","","","","","","","","","","","",""
"","deliberation","","html-keyboard-response","79","954444","0.0-60.0-1.0","0","0","WIgBv","People","","5625","","","","68","","","","4","3","24","1","-1","92","95","art-hauntington-jzY0KRJopEI-unsplash.jpg","joel-mott-LaK153ghdig-unsplash.jpg","1","1","3","24","","","","","","","","","","","","","","","","","","","","","","","","","","","",""
"","choice_confirmation","","html-keyboard-response","80","954956","0.0-60.0-2.0-0.0","0","0","WIgBv","People","","null","","","","null","","","","4","3","24","","","","","","","","","","","","","","","","","","","","","","","","","","","","","","","","","","","","","",""
"","explain_trial","","survey-text","81","975838","0.0-60.0-5.0-0.0","0","0","WIgBv","People","","20873","{""Q0"":""cute smile.""}","","","","","","","4","3","24","","","","","","","","","","","{""Q0"":""cute smile.""}","","","","","","","","","","","","","","","","","","","","","","","","","","",""
"","fixation","","html-keyboard-response","82","976850","0.0-61.0-0.0","0","0","WIgBv","People","","null","","","","null","","","","","","","","","","","","","","","","","","","","","","","","","","","","","","","","","","","","","","","","","","","",""
"","deliberation","","html-keyboard-response","83","981787","0.0-61.0-1.0","0","0","WIgBv","People","","4931","","","","75","","","","5","29","9","0","1","94","87","leilani-angel-K84vnnzxmTQ-unsplash.jpg","carlos-andres-gomez-vJuk8Y86mRw-unsplash.jpg","1","0","9","29","","","","","","","","","","","","","","","","","","","","","","","","","","","",""
"","choice_confirmation","","html-keyboard-response","84","982296","0.0-61.0-2.0-0.0","0","0","WIgBv","People","","null","","","","null","","","","5","29","9","","","","","","","","","","","","","","","","","","","","","","","","","","","","","","","","","","","","","",""
"","fixation","","html-keyboard-response","85","983312","0.0-62.0-0.0","0","0","WIgBv","People","","null","","","","null","","","","","","","","","","","","","","","","","","","","","","","","","","","","","","","","","","","","","","","","","","","",""
"","deliberation","","html-keyboard-response","86","986867","0.0-62.0-1.0","0","0","WIgBv","People","","3542","","","","68","","","","6","1","5","0","-1","88","91","aiony-haust-jmATI5Q_YgY-unsplash.jpg","batel-studio-ttSRjiYG_WM-unsplash.jpg","1","1","1","5","","","","","","","","","","","","","","","","","","","","","","","","","","","",""
"","choice_confirmation","","html-keyboard-response","87","987371","0.0-62.0-2.0-0.0","0","0","WIgBv","People","","null","","","","null","","","","6","1","5","","","","","","","","","","","","","","","","","","","","","","","","","","","","","","","","","","","","","",""
"","fixation","","html-keyboard-response","88","988390","0.0-63.0-0.0","0","0","WIgBv","People","","null","","","","null","","","","","","","","","","","","","","","","","","","","","","","","","","","","","","","","","","","","","","","","","","","",""
"","deliberation","","html-keyboard-response","89","993552","0.0-63.0-1.0","0","0","WIgBv","People","","5154","","","","75","","","","7","23","37","1","1","94","86","joanna-nix-walkup-H4fEMshfwTE-unsplash.jpg","pavel-anoshin-d0peGya6R5Y-unsplash.jpg","1","0","37","23","","","","","","","","","","","","","","","","","","","","","","","","","","","",""
"","choice_confirmation","","html-keyboard-response","90","994062","0.0-63.0-2.0-0.0","0","0","WIgBv","People","","null","","","","null","","","","7","23","37","","","","","","","","","","","","","","","","","","","","","","","","","","","","","","","","","","","","","",""
"","explain_trial","","survey-text","91","1022142","0.0-63.0-5.0-0.0","0","0","WIgBv","People","","28069","{""Q0"":""handsome.""}","","","","","","","7","23","37","","","","","","","","","","","{""Q0"":""handsome.""}","","","","","","","","","","","","","","","","","","","","","","","","","","",""
"","fixation","","html-keyboard-response","92","1023162","0.0-64.0-0.0","0","0","WIgBv","People","","null","","","","null","","","","","","","","","","","","","","","","","","","","","","","","","","","","","","","","","","","","","","","","","","","",""
"","deliberation","","html-keyboard-response","93","1026953","0.0-64.0-1.0","0","0","WIgBv","People","","3784","","","","68","","","","8","25","6","0","-1","93","90","joseph-gonzalez-iFgRcqHznqg-unsplash.jpg","ben-o-bro-C5XyLljkMrY-unsplash.jpg","1","1","25","6","","","","","","","","","","","","","","","","","","","","","","","","","","","",""
"","choice_confirmation","","html-keyboard-response","94","1027467","0.0-64.0-2.0-0.0","0","0","WIgBv","People","","null","","","","null","","","","8","25","6","","","","","","","","","","","","","","","","","","","","","","","","","","","","","","","","","","","","","",""
"","fixation","","html-keyboard-response","95","1028473","0.0-65.0-0.0","0","0","WIgBv","People","","null","","","","null","","","","","","","","","","","","","","","","","","","","","","","","","","","","","","","","","","","","","","","","","","","",""
"","deliberation","","html-keyboard-response","96","1031714","0.0-65.0-1.0","0","0","WIgBv","People","","3237","","","","68","","","","9","22","39","0","1","89","91","jessica-radanavong-mrYkTuAesKE-unsplash.jpg","philip-martin-5aGUyCW_PJw-unsplash.jpg","1","1","22","39","","","","","","","","","","","","","","","","","","","","","","","","","","","",""
"","choice_confirmation","","html-keyboard-response","97","1032233","0.0-65.0-2.0-0.0","0","0","WIgBv","People","","null","","","","null","","","","9","22","39","","","","","","","","","","","","","","","","","","","","","","","","","","","","","","","","","","","","","",""
"","fixation","","html-keyboard-response","98","1033246","0.0-66.0-0.0","0","0","WIgBv","People","","null","","","","null","","","","","","","","","","","","","","","","","","","","","","","","","","","","","","","","","","","","","","","","","","","",""
"","deliberation","","html-keyboard-response","99","1037214","0.0-66.0-1.0","0","0","WIgBv","People","","3953","","","","75","","","","10","10","27","1","-1","87","88","charles-etoroma-95UF6LXe-Lo-unsplash.jpg","jurica-koletic-7YVZYZeITc8-unsplash.jpg","1","0","27","10","","","","","","","","","","","","","","","","","","","","","","","","","","","",""
"","choice_confirmation","","html-keyboard-response","100","1037733","0.0-66.0-2.0-0.0","0","0","WIgBv","People","","null","","","","null","","","","10","10","27","","","","","","","","","","","","","","","","","","","","","","","","","","","","","","","","","","","","","",""
"","explain_trial","","survey-text","101","1055433","0.0-66.0-5.0-0.0","0","0","WIgBv","People","","17690","{""Q0"":""cute smile""}","","","","","","","10","10","27","","","","","","","","","","","{""Q0"":""cute smile""}","","","","","","","","","","","","","","","","","","","","","","","","","","",""
"","fixation","","html-keyboard-response","102","1056457","0.0-67.0-0.0","0","0","WIgBv","People","","null","","","","null","","","","","","","","","","","","","","","","","","","","","","","","","","","","","","","","","","","","","","","","","","","",""
"","deliberation","","html-keyboard-response","103","1060614","0.0-67.0-1.0","0","0","WIgBv","People","","4151","","","","68","","","","11","12","48","1","-1","93","95","daniel-rigdon-dXmXKPP2L4E-unsplash.jpg","velizar-ivanov-7ktP9yZA1g4-unsplash.jpg","1","1","12","48","","","","","","","","","","","","","","","","","","","","","","","","","","","",""
"","choice_confirmation","","html-keyboard-response","104","1061121","0.0-67.0-2.0-0.0","0","0","WIgBv","People","","null","","","","null","","","","11","12","48","","","","","","","","","","","","","","","","","","","","","","","","","","","","","","","","","","","","","",""
"","explain_trial","","survey-text","105","1072589","0.0-67.0-5.0-0.0","0","0","WIgBv","People","","11458","{""Q0"":""cute girl""}","","","","","","","11","12","48","","","","","","","","","","","{""Q0"":""cute girl""}","","","","","","","","","","","","","","","","","","","","","","","","","","",""
"","practice_deliberation_again","","html-keyboard-response","106","1074751","0.0-67.0-6.0-0.0","0","0","WIgBv","People","","2157","","","","78","","","","","","","","","","","","","","","","","","","","","","","","","","","","","","","","","","","","","","","","","","","",""
"","fixation","","html-keyboard-response","107","1075764","0.0-68.0-0.0","0","0","WIgBv","People","","null","","","","null","","","","","","","","","","","","","","","","","","","","","","","","","","","","","","","","","","","","","","","","","","","",""
"","deliberation","","html-keyboard-response","108","1080539","0.0-68.0-1.0","0","0","WIgBv","People","","4761","","","","68","","","","12","25","6","1","-1","93","90","joseph-gonzalez-iFgRcqHznqg-unsplash.jpg","ben-o-bro-C5XyLljkMrY-unsplash.jpg","2","1","25","6","","","","","","","","","","","","","","","","","","","","","","","","","","","",""
"","choice_confirmation","","html-keyboard-response","109","1081045","0.0-68.0-2.0-0.0","0","0","WIgBv","People","","null","","","","null","","","","12","25","6","","","","","","","","","","","","","","","","","","","","","","","","","","","","","","","","","","","","","",""
"","explain_trial","","survey-text","110","1099065","0.0-68.0-5.0-0.0","0","0","WIgBv","People","","18007","{""Q0"":""nice dimple.""}","","","","","","","12","25","6","","","","","","","","","","","{""Q0"":""nice dimple.""}","","","","","","","","","","","","","","","","","","","","","","","","","","",""
"","fixation","","html-keyboard-response","111","1100082","0.0-69.0-0.0","0","0","WIgBv","People","","null","","","","null","","","","","","","","","","","","","","","","","","","","","","","","","","","","","","","","","","","","","","","","","","","",""
"","deliberation","","html-keyboard-response","112","1105820","0.0-69.0-1.0","0","0","WIgBv","People","","5731","","","","68","","","","13","22","39","1","1","89","91","jessica-radanavong-mrYkTuAesKE-unsplash.jpg","philip-martin-5aGUyCW_PJw-unsplash.jpg","2","1","22","39","","","","","","","","","","","","","","","","","","","","","","","","","","","",""
"","choice_confirmation","","html-keyboard-response","113","1106343","0.0-69.0-2.0-0.0","0","0","WIgBv","People","","null","","","","null","","","","13","22","39","","","","","","","","","","","","","","","","","","","","","","","","","","","","","","","","","","","","","",""
"","explain_trial","","survey-text","114","1112023","0.0-69.0-5.0-0.0","0","0","WIgBv","People","","5673","{""Q0"":""yung""}","","","","","","","13","22","39","","","","","","","","","","","{""Q0"":""yung""}","","","","","","","","","","","","","","","","","","","","","","","","","","",""
"","fixation","","html-keyboard-response","115","1113036","0.0-70.0-0.0","0","0","WIgBv","People","","null","","","","null","","","","","","","","","","","","","","","","","","","","","","","","","","","","","","","","","","","","","","","","","","","",""
"","deliberation","","html-keyboard-response","116","1116086","0.0-70.0-1.0","0","0","WIgBv","People","","3046","","","","75","","","","14","10","27","0","-1","87","88","charles-etoroma-95UF6LXe-Lo-unsplash.jpg","jurica-koletic-7YVZYZeITc8-unsplash.jpg","2","0","27","10","","","","","","","","","","","","","","","","","","","","","","","","","","","",""
"","choice_confirmation","","html-keyboard-response","117","1116590","0.0-70.0-2.0-0.0","0","0","WIgBv","People","","null","","","","null","","","","14","10","27","","","","","","","","","","","","","","","","","","","","","","","","","","","","","","","","","","","","","",""
"","fixation","","html-keyboard-response","118","1117713","0.0-71.0-0.0","0","0","WIgBv","People","","null","","","","null","","","","","","","","","","","","","","","","","","","","","","","","","","","","","","","","","","","","","","","","","","","",""
"","deliberation","","html-keyboard-response","119","1124752","0.0-71.0-1.0","0","0","WIgBv","People","","7033","","","","68","","","","15","31","26","0","1","94","93","mathilda-khoo-vLR0YP_otCo-unsplash.jpg","juri-gianfrancesco-9EZadYaMzk4-unsplash.jpg","2","1","31","26","","","","","","","","","","","","","","","","","","","","","","","","","","","",""
"","choice_confirmation","","html-keyboard-response","120","1125263","0.0-71.0-2.0-0.0","0","0","WIgBv","People","","null","","","","null","","","","15","31","26","","","","","","","","","","","","","","","","","","","","","","","","","","","","","","","","","","","","","",""
"","fixation","","html-keyboard-response","121","1126280","0.0-72.0-0.0","0","0","WIgBv","People","","null","","","","null","","","","","","","","","","","","","","","","","","","","","","","","","","","","","","","","","","","","","","","","","","","",""
"","deliberation","","html-keyboard-response","122","1128078","0.0-72.0-1.0","0","0","WIgBv","People","","1792","","","","68","","","","16","12","48","0","-1","93","95","daniel-rigdon-dXmXKPP2L4E-unsplash.jpg","velizar-ivanov-7ktP9yZA1g4-unsplash.jpg","2","1","12","48","","","","","","","","","","","","","","","","","","","","","","","","","","","",""
"","choice_confirmation","","html-keyboard-response","123","1128593","0.0-72.0-2.0-0.0","0","0","WIgBv","People","","null","","","","null","","","","16","12","48","","","","","","","","","","","","","","","","","","","","","","","","","","","","","","","","","","","","","",""
"","fixation","","html-keyboard-response","124","1129635","0.0-73.0-0.0","0","0","WIgBv","People","","null","","","","null","","","","","","","","","","","","","","","","","","","","","","","","","","","","","","","","","","","","","","","","","","","",""
"","deliberation","","html-keyboard-response","125","1131886","0.0-73.0-1.0","0","0","WIgBv","People","","2235","","","","75","","","","17","49","43","0","-1","92","95","vicky-hladynets-_gDoyVv5F4c-unsplash.jpg","raamin-ka-0qJBEzudn5E-unsplash.jpg","2","0","43","49","","","","","","","","","","","","","","","","","","","","","","","","","","","",""
"","choice_confirmation","","html-keyboard-response","126","1132403","0.0-73.0-2.0-0.0","0","0","WIgBv","People","","null","","","","null","","","","17","49","43","","","","","","","","","","","","","","","","","","","","","","","","","","","","","","","","","","","","","",""
"","fixation","","html-keyboard-response","127","1133454","0.0-74.0-0.0","0","0","WIgBv","People","","null","","","","null","","","","","","","","","","","","","","","","","","","","","","","","","","","","","","","","","","","","","","","","","","","",""
"","deliberation","","html-keyboard-response","128","1135596","0.0-74.0-1.0","0","0","WIgBv","People","","2135","","","","68","","","","18","1","5","1","-1","88","91","aiony-haust-jmATI5Q_YgY-unsplash.jpg","batel-studio-ttSRjiYG_WM-unsplash.jpg","2","1","1","5","","","","","","","","","","","","","","","","","","","","","","","","","","","",""
"","choice_confirmation","","html-keyboard-response","129","1136108","0.0-74.0-2.0-0.0","0","0","WIgBv","People","","null","","","","null","","","","18","1","5","","","","","","","","","","","","","","","","","","","","","","","","","","","","","","","","","","","","","",""
"","explain_trial","","survey-text","130","1146029","0.0-74.0-5.0-0.0","0","0","WIgBv","People","","9915","{""Q0"":""nice""}","","","","","","","18","1","5","","","","","","","","","","","{""Q0"":""nice""}","","","","","","","","","","","","","","","","","","","","","","","","","","",""
"","fixation","","html-keyboard-response","131","1147042","0.0-75.0-0.0","0","0","WIgBv","People","","null","","","","null","","","","","","","","","","","","","","","","","","","","","","","","","","","","","","","","","","","","","","","","","","","",""
"","deliberation","","html-keyboard-response","132","1151892","0.0-75.0-1.0","0","0","WIgBv","People","","4844","","","","68","","","","19","11","32","1","1","93","88","christian-ferrer-8vT-DgHZDG4-unsplash.jpg","nathan-dumlao-ger61_TX6oI-unsplash.jpg","2","1","11","32","","","","","","","","","","","","","","","","","","","","","","","","","","","",""
"","choice_confirmation","","html-keyboard-response","133","1152400","0.0-75.0-2.0-0.0","0","0","WIgBv","People","","null","","","","null","","","","19","11","32","","","","","","","","","","","","","","","","","","","","","","","","","","","","","","","","","","","","","",""
"","explain_trial","","survey-text","134","1161429","0.0-75.0-5.0-0.0","0","0","WIgBv","People","","9020","{""Q0"":""nice""}","","","","","","","19","11","32","","","","","","","","","","","{""Q0"":""nice""}","","","","","","","","","","","","","","","","","","","","","","","","","","",""
"","fixation","","html-keyboard-response","135","1162451","0.0-76.0-0.0","0","0","WIgBv","People","","null","","","","null","","","","","","","","","","","","","","","","","","","","","","","","","","","","","","","","","","","","","","","","","","","",""
"","deliberation","","html-keyboard-response","136","1165017","0.0-76.0-1.0","0","0","WIgBv","People","","2559","","","","68","","","","20","3","24","0","-1","92","95","art-hauntington-jzY0KRJopEI-unsplash.jpg","joel-mott-LaK153ghdig-unsplash.jpg","2","1","3","24","","","","","","","","","","","","","","","","","","","","","","","","","","","",""
"","choice_confirmation","","html-keyboard-response","137","1165528","0.0-76.0-2.0-0.0","0","0","WIgBv","People","","null","","","","null","","","","20","3","24","","","","","","","","","","","","","","","","","","","","","","","","","","","","","","","","","","","","","",""
"","fixation","","html-keyboard-response","138","1166546","0.0-77.0-0.0","0","0","WIgBv","People","","null","","","","null","","","","","","","","","","","","","","","","","","","","","","","","","","","","","","","","","","","","","","","","","","","",""
"","deliberation","","html-keyboard-response","139","1170575","0.0-77.0-1.0","0","0","WIgBv","People","","4025","","","","75","","","","21","29","9","1","1","94","87","leilani-angel-K84vnnzxmTQ-unsplash.jpg","carlos-andres-gomez-vJuk8Y86mRw-unsplash.jpg","2","0","9","29","","","","","","","","","","","","","","","","","","","","","","","","","","","",""
"","choice_confirmation","","html-keyboard-response","140","1171088","0.0-77.0-2.0-0.0","0","0","WIgBv","People","","null","","","","null","","","","21","29","9","","","","","","","","","","","","","","","","","","","","","","","","","","","","","","","","","","","","","",""
"","explain_trial","","survey-text","141","1185389","0.0-77.0-5.0-0.0","0","0","WIgBv","People","","14293","{""Q0"":""handsome""}","","","","","","","21","29","9","","","","","","","","","","","{""Q0"":""handsome""}","","","","","","","","","","","","","","","","","","","","","","","","","","",""
"","fixation","","html-keyboard-response","142","1186403","0.0-78.0-0.0","0","0","WIgBv","People","","null","","","","null","","","","","","","","","","","","","","","","","","","","","","","","","","","","","","","","","","","","","","","","","","","",""
"","deliberation","","html-keyboard-response","143","1190669","0.0-78.0-1.0","0","0","WIgBv","People","","4257","","","","75","","","","22","34","45","1","1","91","90","oliver-johnson-1TUIcKob7Zs-unsplash.jpg","sarah-noltner-pL5ZzPp1zqg-unsplash.jpg","2","0","45","34","","","","","","","","","","","","","","","","","","","","","","","","","","","",""
"","choice_confirmation","","html-keyboard-response","144","1191186","0.0-78.0-2.0-0.0","0","0","WIgBv","People","","null","","","","null","","","","22","34","45","","","","","","","","","","","","","","","","","","","","","","","","","","","","","","","","","","","","","",""
"","explain_trial","","survey-text","145","1204833","0.0-78.0-5.0-0.0","0","0","WIgBv","People","","13638","{""Q0"":""handsome""}","","","","","","","22","34","45","","","","","","","","","","","{""Q0"":""handsome""}","","","","","","","","","","","","","","","","","","","","","","","","","","",""
"","fixation","","html-keyboard-response","146","1205841","0.0-79.0-0.0","0","0","WIgBv","People","","null","","","","null","","","","","","","","","","","","","","","","","","","","","","","","","","","","","","","","","","","","","","","","","","","",""
"","deliberation","","html-keyboard-response","147","1211193","0.0-79.0-1.0","0","0","WIgBv","People","","5346","","","","75","","","","23","23","37","0","1","94","86","joanna-nix-walkup-H4fEMshfwTE-unsplash.jpg","pavel-anoshin-d0peGya6R5Y-unsplash.jpg","2","0","37","23","","","","","","","","","","","","","","","","","","","","","","","","","","","",""
"","choice_confirmation","","html-keyboard-response","148","1211700","0.0-79.0-2.0-0.0","0","0","WIgBv","People","","null","","","","null","","","","23","23","37","","","","","","","","","","","","","","","","","","","","","","","","","","","","","","","","","","","","","",""
"","start_critical_deliberation_block","","html-keyboard-response","149","1213806","0.0-79.0-7.0-0.0","0","0","WIgBv","People","","2093","","","","78","","","","","","","","","","","","","","","","","","","","","","","","","","","","","","","","","","","","","","","","","","","",""
"","fixation","","html-keyboard-response","150","1214811","0.0-80.0-0.0","0","0","WIgBv","People","","null","","","","null","","","","","","","","","","","","","","","","","","","","","","","","","","","","","","","","","","","","","","","","","","","",""
"","deliberation","","html-keyboard-response","151","1219616","0.0-80.0-1.0","0","0","WIgBv","People","","4794","","","","68","","","","24","25","6","0","-1","93","90","joseph-gonzalez-iFgRcqHznqg-unsplash.jpg","ben-o-bro-C5XyLljkMrY-unsplash.jpg","3","1","25","6","","","","","","","","","","","","","","","","","","","","","","","","","","","",""
"","choice_confirmation","","html-keyboard-response","152","1220138","0.0-80.0-2.0-0.0","0","0","WIgBv","People","","null","","","","null","","","","24","25","6","","","","","","","","","","","","","","","","","","","","","","","","","","","","","","","","","","","","","",""
"","fixation","","html-keyboard-response","153","1221154","0.0-81.0-0.0","0","0","WIgBv","People","","null","","","","null","","","","","","","","","","","","","","","","","","","","","","","","","","","","","","","","","","","","","","","","","","","",""
"","deliberation","","html-keyboard-response","154","1222789","0.0-81.0-1.0","0","0","WIgBv","People","","1620","","","","68","","","","25","3","24","0","-1","92","95","art-hauntington-jzY0KRJopEI-unsplash.jpg","joel-mott-LaK153ghdig-unsplash.jpg","3","1","3","24","","","","","","","","","","","","","","","","","","","","","","","","","","","",""
"","choice_confirmation","","html-keyboard-response","155","1223295","0.0-81.0-2.0-0.0","0","0","WIgBv","People","","null","","","","null","","","","25","3","24","","","","","","","","","","","","","","","","","","","","","","","","","","","","","","","","","","","","","",""
"","fixation","","html-keyboard-response","156","1224311","0.0-82.0-0.0","0","0","WIgBv","People","","null","","","","null","","","","","","","","","","","","","","","","","","","","","","","","","","","","","","","","","","","","","","","","","","","",""
"","deliberation","","html-keyboard-response","157","1225683","0.0-82.0-1.0","0","0","WIgBv","People","","1357","","","","75","","","","26","23","37","0","1","94","86","joanna-nix-walkup-H4fEMshfwTE-unsplash.jpg","pavel-anoshin-d0peGya6R5Y-unsplash.jpg","3","0","37","23","","","","","","","","","","","","","","","","","","","","","","","","","","","",""
"","choice_confirmation","","html-keyboard-response","158","1226200","0.0-82.0-2.0-0.0","0","0","WIgBv","People","","null","","","","null","","","","26","23","37","","","","","","","","","","","","","","","","","","","","","","","","","","","","","","","","","","","","","",""
"","fixation","","html-keyboard-response","159","1227217","0.0-83.0-0.0","0","0","WIgBv","People","","null","","","","null","","","","","","","","","","","","","","","","","","","","","","","","","","","","","","","","","","","","","","","","","","","",""
"","deliberation","","html-keyboard-response","160","1228502","0.0-83.0-1.0","0","0","WIgBv","People","","1276","","","","75","","","","27","10","27","0","-1","87","88","charles-etoroma-95UF6LXe-Lo-unsplash.jpg","jurica-koletic-7YVZYZeITc8-unsplash.jpg","3","0","27","10","","","","","","","","","","","","","","","","","","","","","","","","","","","",""
"","choice_confirmation","","html-keyboard-response","161","1229014","0.0-83.0-2.0-0.0","0","0","WIgBv","People","","null","","","","null","","","","27","10","27","","","","","","","","","","","","","","","","","","","","","","","","","","","","","","","","","","","","","",""
"","fixation","","html-keyboard-response","162","1230028","0.0-84.0-0.0","0","0","WIgBv","People","","null","","","","null","","","","","","","","","","","","","","","","","","","","","","","","","","","","","","","","","","","","","","","","","","","",""
"","deliberation","","html-keyboard-response","163","1230861","0.0-84.0-1.0","0","0","WIgBv","People","","824","","","","68","","","","28","1","5","0","-1","88","91","aiony-haust-jmATI5Q_YgY-unsplash.jpg","batel-studio-ttSRjiYG_WM-unsplash.jpg","3","1","1","5","","","","","","","","","","","","","","","","","","","","","","","","","","","",""
"","choice_confirmation","","html-keyboard-response","164","1231375","0.0-84.0-2.0-0.0","0","0","WIgBv","People","","null","","","","null","","","","28","1","5","","","","","","","","","","","","","","","","","","","","","","","","","","","","","","","","","","","","","",""
"","fixation","","html-keyboard-response","165","1232389","0.0-85.0-0.0","0","0","WIgBv","People","","null","","","","null","","","","","","","","","","","","","","","","","","","","","","","","","","","","","","","","","","","","","","","","","","","",""
"","deliberation","","html-keyboard-response","166","1233333","0.0-85.0-1.0","0","0","WIgBv","People","","931","","","","75","","","","29","49","43","0","-1","92","95","vicky-hladynets-_gDoyVv5F4c-unsplash.jpg","raamin-ka-0qJBEzudn5E-unsplash.jpg","3","0","43","49","","","","","","","","","","","","","","","","","","","","","","","","","","","",""
"","choice_confirmation","","html-keyboard-response","167","1233841","0.0-85.0-2.0-0.0","0","0","WIgBv","People","","null","","","","null","","","","29","49","43","","","","","","","","","","","","","","","","","","","","","","","","","","","","","","","","","","","","","",""
"","fixation","","html-keyboard-response","168","1234857","0.0-86.0-0.0","0","0","WIgBv","People","","null","","","","null","","","","","","","","","","","","","","","","","","","","","","","","","","","","","","","","","","","","","","","","","","","",""
"","deliberation","","html-keyboard-response","169","1236193","0.0-86.0-1.0","0","0","WIgBv","People","","1324","","","","75","","","","30","29","9","0","1","94","87","leilani-angel-K84vnnzxmTQ-unsplash.jpg","carlos-andres-gomez-vJuk8Y86mRw-unsplash.jpg","3","0","9","29","","","","","","","","","","","","","","","","","","","","","","","","","","","",""
"","choice_confirmation","","html-keyboard-response","170","1236699","0.0-86.0-2.0-0.0","0","0","WIgBv","People","","null","","","","null","","","","30","29","9","","","","","","","","","","","","","","","","","","","","","","","","","","","","","","","","","","","","","",""
"","fixation","","html-keyboard-response","171","1237723","0.0-87.0-0.0","0","0","WIgBv","People","","null","","","","null","","","","","","","","","","","","","","","","","","","","","","","","","","","","","","","","","","","","","","","","","","","",""
"","deliberation","","html-keyboard-response","172","1238548","0.0-87.0-1.0","0","0","WIgBv","People","","818","","","","68","","","","31","31","26","0","1","94","93","mathilda-khoo-vLR0YP_otCo-unsplash.jpg","juri-gianfrancesco-9EZadYaMzk4-unsplash.jpg","3","1","31","26","","","","","","","","","","","","","","","","","","","","","","","","","","","",""
"","choice_confirmation","","html-keyboard-response","173","1239061","0.0-87.0-2.0-0.0","0","0","WIgBv","People","","null","","","","null","","","","31","31","26","","","","","","","","","","","","","","","","","","","","","","","","","","","","","","","","","","","","","",""
"","fixation","","html-keyboard-response","174","1240075","0.0-88.0-0.0","0","0","WIgBv","People","","null","","","","null","","","","","","","","","","","","","","","","","","","","","","","","","","","","","","","","","","","","","","","","","","","",""
"","deliberation","","html-keyboard-response","175","1241318","0.0-88.0-1.0","0","0","WIgBv","People","","1233","","","","68","","","","32","11","32","0","1","93","88","christian-ferrer-8vT-DgHZDG4-unsplash.jpg","nathan-dumlao-ger61_TX6oI-unsplash.jpg","3","1","11","32","","","","","","","","","","","","","","","","","","","","","","","","","","","",""
"","choice_confirmation","","html-keyboard-response","176","1241827","0.0-88.0-2.0-0.0","0","0","WIgBv","People","","null","","","","null","","","","32","11","32","","","","","","","","","","","","","","","","","","","","","","","","","","","","","","","","","","","","","",""
"","fixation","","html-keyboard-response","177","1242842","0.0-89.0-0.0","0","0","WIgBv","People","","null","","","","null","","","","","","","","","","","","","","","","","","","","","","","","","","","","","","","","","","","","","","","","","","","",""
"","deliberation","","html-keyboard-response","178","1244229","0.0-89.0-1.0","0","0","WIgBv","People","","1371","","","","75","","","","33","34","45","0","1","91","90","oliver-johnson-1TUIcKob7Zs-unsplash.jpg","sarah-noltner-pL5ZzPp1zqg-unsplash.jpg","3","0","45","34","","","","","","","","","","","","","","","","","","","","","","","","","","","",""
"","choice_confirmation","","html-keyboard-response","179","1244739","0.0-89.0-2.0-0.0","0","0","WIgBv","People","","null","","","","null","","","","33","34","45","","","","","","","","","","","","","","","","","","","","","","","","","","","","","","","","","","","","","",""
"","fixation","","html-keyboard-response","180","1245748","0.0-90.0-0.0","0","0","WIgBv","People","","null","","","","null","","","","","","","","","","","","","","","","","","","","","","","","","","","","","","","","","","","","","","","","","","","",""
"","deliberation","","html-keyboard-response","181","1247110","0.0-90.0-1.0","0","0","WIgBv","People","","1357","","","","68","","","","34","12","48","0","-1","93","95","daniel-rigdon-dXmXKPP2L4E-unsplash.jpg","velizar-ivanov-7ktP9yZA1g4-unsplash.jpg","3","1","12","48","","","","","","","","","","","","","","","","","","","","","","","","","","","",""
"","choice_confirmation","","html-keyboard-response","182","1247623","0.0-90.0-2.0-0.0","0","0","WIgBv","People","","null","","","","null","","","","34","12","48","","","","","","","","","","","","","","","","","","","","","","","","","","","","","","","","","","","","","",""
"","fixation","","html-keyboard-response","183","1248654","0.0-91.0-0.0","0","0","WIgBv","People","","null","","","","null","","","","","","","","","","","","","","","","","","","","","","","","","","","","","","","","","","","","","","","","","","","",""
"","deliberation","","html-keyboard-response","184","1249903","0.0-91.0-1.0","0","0","WIgBv","People","","1231","","","","68","","","","35","22","39","0","1","89","91","jessica-radanavong-mrYkTuAesKE-unsplash.jpg","philip-martin-5aGUyCW_PJw-unsplash.jpg","3","1","22","39","","","","","","","","","","","","","","","","","","","","","","","","","","","",""
"","choice_confirmation","","html-keyboard-response","185","1250433","0.0-91.0-2.0-0.0","0","0","WIgBv","People","","null","","","","null","","","","35","22","39","","","","","","","","","","","","","","","","","","","","","","","","","","","","","","","","","","","","","",""
"","reward_learning_instructions","","instructions","186","1348262","0.0-92.0-0.0","0","0","WIgBv","People","[{""page_index"":0,""viewing_time"":61101},{""page_index"":1,""viewing_time"":33403},{""page_index"":2,""viewing_time"":3318}]","97822","","","","","","","","","","","","","","","","","","","","","","","","","","","","","","","","","","","","","","","","","","","","","","","",""
"","","","survey-multi-choice","187","1377769","0.0-92.0-1.0","0","0","WIgBv","People","","29495","{""Q0"":"""",""Q1"":""True"",""Q2"":""Press the space bar to see its outcome"",""Q3"":""Just look at it""}","reward_comprehension_check","1","","","","","","","","","","","","","","","","","","","","","","","","","","","","","","","","","","","","","","","","","","","","",""
"","missed_instruction_checkup","","html-keyboard-response","188","1380773","0.0-92.0-2.0-0.0","0","1","WIgBv","People","","3002","","","","78","","","","","","","","","","","","","","","","","","","","","","","","","","","","","","","","","","","","","","","","","","","",""
"","reward_learning_instructions","","instructions","189","1502427","0.0-92.1-0.1","0","0","WIgBv","People","[{""page_index"":0,""viewing_time"":33409},{""page_index"":1,""viewing_time"":85365},{""page_index"":2,""viewing_time"":2862}]","121648","","","","","","","","","","","","","","","","","","","","","","","","","","","","","","","","","","","","","","","","","","","","","","","",""
"","","","survey-multi-choice","190","1544117","0.0-92.1-1.1","0","0","WIgBv","People","","41670","{""Q0"":""True"",""Q1"":""True"",""Q2"":""Press the space bar to see its outcome"",""Q3"":""Press the relevant key while the outcome is presented""}","reward_comprehension_check","0","","","","","","","","","","","","","","","","","","","","","","","","","","","","","","","","","","","","","","","","","","","","",""
"","start_phase","","html-keyboard-response","191","1549505","0.0-93.0","0","0","WIgBv","People","","5382","","","","78","","","","","","","","","","","","","","","","","","","","","","","","","","","","","","","","","","","","","","","","","","","",""
"","fixation","","html-keyboard-response","192","1550513","0.0-94.0","0","0","WIgBv","People","","null","","","","null","","","","","","","","","","","","","","","","","","","","","","","","","","","","","","","","","","","","","","","","","","","",""
"","see_reward","","html-keyboard-response","193","1558339","0.0-95.0","0","0","WIgBv","People","","7810","","","","32","","9","","0","","","","1","","","","","1","","","","","148","7810","","","","","","","","","","","","","","","","","","","","","","","","",""
"","reward_outcome","","html-keyboard-response","194","1560360","0.0-96.0","0","0","WIgBv","People","","null","","","","null","","9","","0","","","","","","","","","","","","","","","","NaN","null","","","","","","","","","","","","","","","","","","","","","","",""
"","respond_faster","","html-keyboard-response","195","1561882","0.0-97.0-0.0","1","0","WIgBv","People","","null","","","","null","","","","","","","","","","","","","","","","","","","","","","","","","","","","","","","","","","","","","","","","","","","",""
"","fixation","","html-keyboard-response","196","1562905","0.0-99.0","0","0","WIgBv","People","","null","","","","null","","","","","","","","","","","","","","","","","","","","","","","","","","","","","","","","","","","","","","","","","","","",""
"","see_reward","","html-keyboard-response","197","1572642","0.0-100.0","0","0","WIgBv","People","","9736","","","","32","","11","","1","","","","1","","","","","1","","","","","147","9736","","","","","","","","","","","","","","","","","","","","","","","","",""
"","reward_outcome","","html-keyboard-response","198","1574658","0.0-101.0","0","0","WIgBv","People","","null","","","","null","","11","","1","","","","","","","","","","","","","","","","NaN","null","","","","","","","","","","","","","","","","","","","","","","",""
"","respond_faster","","html-keyboard-response","199","1576173","0.0-102.0-0.0","1","0","WIgBv","People","","null","","","","null","","","","","","","","","","","","","","","","","","","","","","","","","","","","","","","","","","","","","","","","","","","",""
"","fixation","","html-keyboard-response","200","1577186","0.0-104.0","0","0","WIgBv","People","","null","","","","null","","","","","","","","","","","","","","","","","","","","","","","","","","","","","","","","","","","","","","","","","","","",""
"","see_reward","","html-keyboard-response","201","1580141","0.0-105.0","0","0","WIgBv","People","","2944","","","","32","","31","","2","","","","1","","","","","1","","","","","148","2944","","","","","","","","","","","","","","","","","","","","","","","","",""
"","reward_outcome","","html-keyboard-response","202","1582153","0.0-106.0","0","0","WIgBv","People","","null","","","","null","","31","","2","","","","","","","","","","","","","","","","NaN","null","","","","","","","","","","","","","","","","","","","","","","",""
"","respond_faster","","html-keyboard-response","203","1583671","0.0-107.0-0.0","1","0","WIgBv","People","","null","","","","null","","","","","","","","","","","","","","","","","","","","","","","","","","","","","","","","","","","","","","","","","","","",""
"","fixation","","html-keyboard-response","204","1584692","0.0-109.0","0","0","WIgBv","People","","null","","","","null","","","","","","","","","","","","","","","","","","","","","","","","","","","","","","","","","","","","","","","","","","","",""
"","see_reward","","html-keyboard-response","205","1586612","0.0-110.0","0","0","WIgBv","People","","1912","","","","32","","45","","3","","","","1","","","","","1","","","","","154","1912","","","","","","","","","","","","","","","","","","","","","","","","",""
"","reward_outcome","","html-keyboard-response","206","1588625","0.0-111.0","0","0","WIgBv","People","","null","","","","null","","45","","3","","","","","","","","","","","","","","","","NaN","null","","","","","","","","","","","","","","","","","","","","","","",""
"","respond_faster","","html-keyboard-response","207","1590140","0.0-112.0-0.0","1","0","WIgBv","People","","null","","","","null","","","","","","","","","","","","","","","","","","","","","","","","","","","","","","","","","","","","","","","","","","","",""
"","fixation","","html-keyboard-response","208","1591153","0.0-114.0","0","0","WIgBv","People","","null","","","","null","","","","","","","","","","","","","","","","","","","","","","","","","","","","","","","","","","","","","","","","","","","",""
"","see_reward","","html-keyboard-response","209","1594333","0.0-115.0","0","0","WIgBv","People","","3169","","","","32","","9","","4","","","","1","","","","","1","","","","","148","3169","","","","","","","","","","","","","","","","","","","","","","","","",""
"","reward_outcome","","html-keyboard-response","210","1596360","0.0-116.0","0","0","WIgBv","People","","null","","","","null","","9","","4","","","","","","","","","","","","","","","","NaN","null","","","","","","","","","","","","","","","","","","","","","","",""
"","respond_faster","","html-keyboard-response","211","1597870","0.0-117.0-0.0","1","0","WIgBv","People","","null","","","","null","","","","","","","","","","","","","","","","","","","","","","","","","","","","","","","","","","","","","","","","","","","",""
"","fixation","","html-keyboard-response","212","1598887","0.0-119.0","0","0","WIgBv","People","","null","","","","null","","","","","","","","","","","","","","","","","","","","","","","","","","","","","","","","","","","","","","","","","","","",""
"","see_reward","","html-keyboard-response","213","1600845","0.0-120.0","0","0","WIgBv","People","","1952","","","","32","","1","","5","","","","-1","","","","","1","","","","","0","1952","","","","","","","","","","","","","","","","","","","","","","","","",""
"","reward_outcome","","html-keyboard-response","214","1602864","0.0-121.0","0","0","WIgBv","People","","null","","","","null","","1","","5","","","","","","","","","","","","","","","","NaN","null","","","","","","","","","","","","","","","","","","","","","","",""
"","respond_faster","","html-keyboard-response","215","1604375","0.0-122.0-0.0","1","0","WIgBv","People","","null","","","","null","","","","","","","","","","","","","","","","","","","","","","","","","","","","","","","","","","","","","","","","","","","",""
"","fixation","","html-keyboard-response","216","1605403","0.0-124.0","0","0","WIgBv","People","","null","","","","null","","","","","","","","","","","","","","","","","","","","","","","","","","","","","","","","","","","","","","","","","","","",""
"","see_reward","","html-keyboard-response","217","1606938","0.0-125.0","0","0","WIgBv","People","","1528","","","","32","","45","","6","","","","1","","","","","1","","","","","154","1528","","","","","","","","","","","","","","","","","","","","","","","","",""
"","reward_outcome","","html-keyboard-response","218","1608954","0.0-126.0","0","0","WIgBv","People","","null","","","","null","","45","","6","","","","","","","","","","","","","","","","NaN","null","","","","","","","","","","","","","","","","","","","","","","",""
"","respond_faster","","html-keyboard-response","219","1610473","0.0-127.0-0.0","1","0","WIgBv","People","","null","","","","null","","","","","","","","","","","","","","","","","","","","","","","","","","","","","","","","","","","","","","","","","","","",""
"","fixation","","html-keyboard-response","220","1611482","0.0-129.0","0","0","WIgBv","People","","null","","","","null","","","","","","","","","","","","","","","","","","","","","","","","","","","","","","","","","","","","","","","","","","","",""
"","see_reward","","html-keyboard-response","221","1618586","0.0-130.0","0","0","WIgBv","People","","7089","","","","32","","3","","7","","","","-1","","","","","1","","","","","0","7089","","","","","","","","","","","","","","","","","","","","","","","","",""
"","reward_outcome","","html-keyboard-response","222","1620606","0.0-131.0","0","0","WIgBv","People","","null","","","","null","","3","","7","","","","","","","","","","","","","","","","NaN","null","","","","","","","","","","","","","","","","","","","","","","",""
"","respond_faster","","html-keyboard-response","223","1622124","0.0-132.0-0.0","1","0","WIgBv","People","","null","","","","null","","","","","","","","","","","","","","","","","","","","","","","","","","","","","","","","","","","","","","","","","","","",""
"","fixation","","html-keyboard-response","224","1623137","0.0-134.0","0","0","WIgBv","People","","null","","","","null","","","","","","","","","","","","","","","","","","","","","","","","","","","","","","","","","","","","","","","","","","","",""
"","see_reward","","html-keyboard-response","225","1624418","0.0-135.0","0","0","WIgBv","People","","1278","","","","32","","25","","8","","","","-1","","","","","1","","","","","0","1278","","","","","","","","","","","","","","","","","","","","","","","","",""
"","reward_outcome","","html-keyboard-response","226","1626434","0.0-136.0","0","0","WIgBv","People","","null","","","","null","","25","","8","","","","","","","","","","","","","","","","NaN","null","","","","","","","","","","","","","","","","","","","","","","",""
"","respond_faster","","html-keyboard-response","227","1627952","0.0-137.0-0.0","1","0","WIgBv","People","","null","","","","null","","","","","","","","","","","","","","","","","","","","","","","","","","","","","","","","","","","","","","","","","","","",""
"","fixation","","html-keyboard-response","228","1628968","0.0-139.0","0","0","WIgBv","People","","null","","","","null","","","","","","","","","","","","","","","","","","","","","","","","","","","","","","","","","","","","","","","","","","","",""
"","see_reward","","html-keyboard-response","229","1630131","0.0-140.0","0","0","WIgBv","People","","1152","","","","32","","43","","9","","","","-1","","","","","1","","","","","0","1152","","","","","","","","","","","","","","","","","","","","","","","","",""
"","reward_outcome","","html-keyboard-response","230","1632143","0.0-141.0","0","0","WIgBv","People","","null","","","","null","","43","","9","","","","","","","","","","","","","","","","NaN","null","","","","","","","","","","","","","","","","","","","","","","",""
"","respond_faster","","html-keyboard-response","231","1633656","0.0-142.0-0.0","1","0","WIgBv","People","","null","","","","null","","","","","","","","","","","","","","","","","","","","","","","","","","","","","","","","","","","","","","","","","","","",""
"","fixation","","html-keyboard-response","232","1634670","0.0-144.0","0","0","WIgBv","People","","null","","","","null","","","","","","","","","","","","","","","","","","","","","","","","","","","","","","","","","","","","","","","","","","","",""
"","see_reward","","html-keyboard-response","233","1635986","0.0-145.0","0","0","WIgBv","People","","1308","","","","32","","12","","10","","","","-1","","","","","1","","","","","0","1308","","","","","","","","","","","","","","","","","","","","","","","","",""
"","reward_outcome","","html-keyboard-response","234","1637994","0.0-146.0","0","0","WIgBv","People","","null","","","","null","","12","","10","","","","","","","","","","","","","","","","NaN","null","","","","","","","","","","","","","","","","","","","","","","",""
"","respond_faster","","html-keyboard-response","235","1639497","0.0-147.0-0.0","1","0","WIgBv","People","","null","","","","null","","","","","","","","","","","","","","","","","","","","","","","","","","","","","","","","","","","","","","","","","","","",""
"","fixation","","html-keyboard-response","236","1640517","0.0-149.0","0","0","WIgBv","People","","null","","","","null","","","","","","","","","","","","","","","","","","","","","","","","","","","","","","","","","","","","","","","","","","","",""
"","see_reward","","html-keyboard-response","237","1642404","0.0-150.0","0","0","WIgBv","People","","1884","","","","32","","22","","11","","","","1","","","","","1","","","","","154","1884","","","","","","","","","","","","","","","","","","","","","","","","",""
"","reward_outcome","","html-keyboard-response","238","1644421","0.0-151.0","0","0","WIgBv","People","","null","","","","null","","22","","11","","","","","","","","","","","","","","","","NaN","null","","","","","","","","","","","","","","","","","","","","","","",""
"","respond_faster","","html-keyboard-response","239","1645935","0.0-152.0-0.0","1","0","WIgBv","People","","null","","","","null","","","","","","","","","","","","","","","","","","","","","","","","","","","","","","","","","","","","","","","","","","","",""
"","fixation","","html-keyboard-response","240","1646952","0.0-154.0","0","0","WIgBv","People","","null","","","","null","","","","","","","","","","","","","","","","","","","","","","","","","","","","","","","","","","","","","","","","","","","",""
"","see_reward","","html-keyboard-response","241","1647907","0.0-155.0","0","0","WIgBv","People","","947","","","","32","","1","","12","","","","-1","","","","","1","","","","","0","947","","","","","","","","","","","","","","","","","","","","","","","","",""
"","reward_outcome","","html-keyboard-response","242","1649920","0.0-156.0","0","0","WIgBv","People","","null","","","","null","","1","","12","","","","","","","","","","","","","","","","NaN","null","","","","","","","","","","","","","","","","","","","","","","",""
"","respond_faster","","html-keyboard-response","243","1651436","0.0-157.0-0.0","1","0","WIgBv","People","","null","","","","null","","","","","","","","","","","","","","","","","","","","","","","","","","","","","","","","","","","","","","","","","","","",""
"","fixation","","html-keyboard-response","244","1652456","0.0-159.0","0","0","WIgBv","People","","null","","","","null","","","","","","","","","","","","","","","","","","","","","","","","","","","","","","","","","","","","","","","","","","","",""
"","see_reward","","html-keyboard-response","245","1653365","0.0-160.0","0","0","WIgBv","People","","898","","","","32","","31","","13","","","","1","","","","","1","","","","","148","898","","","","","","","","","","","","","","","","","","","","","","","","",""
"","reward_outcome","","html-keyboard-response","246","1655375","0.0-161.0","0","0","WIgBv","People","","null","","","","null","","31","","13","","","","","","","","","","","","","","","","NaN","null","","","","","","","","","","","","","","","","","","","","","","",""
"","respond_faster","","html-keyboard-response","247","1656886","0.0-162.0-0.0","1","0","WIgBv","People","","null","","","","null","","","","","","","","","","","","","","","","","","","","","","","","","","","","","","","","","","","","","","","","","","","",""
"","fixation","","html-keyboard-response","248","1657919","0.0-164.0","0","0","WIgBv","People","","null","","","","null","","","","","","","","","","","","","","","","","","","","","","","","","","","","","","","","","","","","","","","","","","","",""
"","see_reward","","html-keyboard-response","249","1658630","0.0-165.0","0","0","WIgBv","People","","701","","","","32","","22","","14","","","","1","","","","","1","","","","","154","701","","","","","","","","","","","","","","","","","","","","","","","","",""
"","reward_outcome","","html-keyboard-response","250","1660656","0.0-166.0","0","0","WIgBv","People","","null","","","","null","","22","","14","","","","","","","","","","","","","","","","NaN","null","","","","","","","","","","","","","","","","","","","","","","",""
"","respond_faster","","html-keyboard-response","251","1662169","0.0-167.0-0.0","1","0","WIgBv","People","","null","","","","null","","","","","","","","","","","","","","","","","","","","","","","","","","","","","","","","","","","","","","","","","","","",""
"","fixation","","html-keyboard-response","252","1663184","0.0-169.0","0","0","WIgBv","People","","null","","","","null","","","","","","","","","","","","","","","","","","","","","","","","","","","","","","","","","","","","","","","","","","","",""
"","see_reward","","html-keyboard-response","253","1664292","0.0-170.0","0","0","WIgBv","People","","1093","","","","32","","27","","15","","","","-1","","","","","1","","","","","0","1093","","","","","","","","","","","","","","","","","","","","","","","","",""
"","reward_outcome","","html-keyboard-response","254","1666310","0.0-171.0","0","0","WIgBv","People","","null","","","","null","","27","","15","","","","","","","","","","","","","","","","NaN","null","","","","","","","","","","","","","","","","","","","","","","",""
"","respond_faster","","html-keyboard-response","255","1667839","0.0-172.0-0.0","1","0","WIgBv","People","","null","","","","null","","","","","","","","","","","","","","","","","","","","","","","","","","","","","","","","","","","","","","","","","","","",""
"","fixation","","html-keyboard-response","256","1668856","0.0-174.0","0","0","WIgBv","People","","null","","","","null","","","","","","","","","","","","","","","","","","","","","","","","","","","","","","","","","","","","","","","","","","","",""
"","see_reward","","html-keyboard-response","257","1669579","0.0-175.0","0","0","WIgBv","People","","717","","","","32","","3","","16","","","","-1","","","","","1","","","","","0","717","","","","","","","","","","","","","","","","","","","","","","","","",""
"","reward_outcome","","html-keyboard-response","258","1671593","0.0-176.0","0","0","WIgBv","People","","null","","","","null","","3","","16","","","","","","","","","","","","","","","","NaN","null","","","","","","","","","","","","","","","","","","","","","","",""
"","respond_faster","","html-keyboard-response","259","1673104","0.0-177.0-0.0","1","0","WIgBv","People","","null","","","","null","","","","","","","","","","","","","","","","","","","","","","","","","","","","","","","","","","","","","","","","","","","",""
"","fixation","","html-keyboard-response","260","1674124","0.0-179.0","0","0","WIgBv","People","","null","","","","null","","","","","","","","","","","","","","","","","","","","","","","","","","","","","","","","","","","","","","","","","","","",""
"","see_reward","","html-keyboard-response","261","1675243","0.0-180.0","0","0","WIgBv","People","","1105","","","","32","","37","","17","","","","1","","","","","1","","","","","150","1105","","","","","","","","","","","","","","","","","","","","","","","","",""
"","reward_outcome","","html-keyboard-response","262","1677399","0.0-181.0","0","0","WIgBv","People","","null","","","","null","","37","","17","","","","","","","","","","","","","","","","NaN","null","","","","","","","","","","","","","","","","","","","","","","",""
"","respond_faster","","html-keyboard-response","263","1678918","0.0-182.0-0.0","1","0","WIgBv","People","","null","","","","null","","","","","","","","","","","","","","","","","","","","","","","","","","","","","","","","","","","","","","","","","","","",""
"","fixation","","html-keyboard-response","264","1679936","0.0-184.0","0","0","WIgBv","People","","null","","","","null","","","","","","","","","","","","","","","","","","","","","","","","","","","","","","","","","","","","","","","","","","","",""
"","see_reward","","html-keyboard-response","265","1680859","0.0-185.0","0","0","WIgBv","People","","918","","","","32","","11","","18","","","","1","","","","","1","","","","","147","918","","","","","","","","","","","","","","","","","","","","","","","","",""
"","reward_outcome","","html-keyboard-response","266","1682879","0.0-186.0","0","0","WIgBv","People","","null","","","","null","","11","","18","","","","","","","","","","","","","","","","NaN","null","","","","","","","","","","","","","","","","","","","","","","",""
"","respond_faster","","html-keyboard-response","267","1684389","0.0-187.0-0.0","1","0","WIgBv","People","","null","","","","null","","","","","","","","","","","","","","","","","","","","","","","","","","","","","","","","","","","","","","","","","","","",""
"","fixation","","html-keyboard-response","268","1685404","0.0-189.0","0","0","WIgBv","People","","null","","","","null","","","","","","","","","","","","","","","","","","","","","","","","","","","","","","","","","","","","","","","","","","","",""
"","see_reward","","html-keyboard-response","269","1686331","0.0-190.0","0","0","WIgBv","People","","919","","","","32","","12","","19","","","","-1","","","","","1","","","","","0","919","","","","","","","","","","","","","","","","","","","","","","","","",""
"","reward_outcome","","html-keyboard-response","270","1688345","0.0-191.0","0","0","WIgBv","People","","null","","","","null","","12","","19","","","","","","","","","","","","","","","","NaN","null","","","","","","","","","","","","","","","","","","","","","","",""
"","respond_faster","","html-keyboard-response","271","1689867","0.0-192.0-0.0","1","0","WIgBv","People","","null","","","","null","","","","","","","","","","","","","","","","","","","","","","","","","","","","","","","","","","","","","","","","","","","",""
"","fixation","","html-keyboard-response","272","1690889","0.0-194.0","0","0","WIgBv","People","","null","","","","null","","","","","","","","","","","","","","","","","","","","","","","","","","","","","","","","","","","","","","","","","","","",""
"","see_reward","","html-keyboard-response","273","1691885","0.0-195.0","0","0","WIgBv","People","","980","","","","32","","43","","20","","","","-1","","","","","1","","","","","0","980","","","","","","","","","","","","","","","","","","","","","","","","",""
"","reward_outcome","","html-keyboard-response","274","1693887","0.0-196.0","0","0","WIgBv","People","","null","","","","null","","43","","20","","","","","","","","","","","","","","","","NaN","null","","","","","","","","","","","","","","","","","","","","","","",""
"","respond_faster","","html-keyboard-response","275","1695406","0.0-197.0-0.0","1","0","WIgBv","People","","null","","","","null","","","","","","","","","","","","","","","","","","","","","","","","","","","","","","","","","","","","","","","","","","","",""
"","fixation","","html-keyboard-response","276","1696418","0.0-199.0","0","0","WIgBv","People","","null","","","","null","","","","","","","","","","","","","","","","","","","","","","","","","","","","","","","","","","","","","","","","","","","",""
"","see_reward","","html-keyboard-response","277","1697213","0.0-200.0","0","0","WIgBv","People","","783","","","","32","","25","","21","","","","-1","","","","","1","","","","","0","783","","","","","","","","","","","","","","","","","","","","","","","","",""
"","reward_outcome","","html-keyboard-response","278","1699233","0.0-201.0","0","0","WIgBv","People","","514","","","","38","","25","","21","","","","","","","","","","","","","","","","1","514","","","","","","","","","","","","","","","","","","","","","","",""
"","fixation","","html-keyboard-response","279","1700241","0.0-204.0","0","0","WIgBv","People","","null","","","","null","","","","","","","","","","","","","","","","","","","","","","","","","","","","","","","","","","","","","","","","","","","",""
"","see_reward","","html-keyboard-response","280","1701525","0.0-205.0","0","0","WIgBv","People","","1269","","","","32","","37","","22","","","","1","","","","","1","","","","","150","1269","","","","","","","","","","","","","","","","","","","","","","","","",""
"","reward_outcome","","html-keyboard-response","281","1703544","0.0-206.0","0","0","WIgBv","People","","null","","","","null","","37","","22","","","","","","","","","","","","","","","","NaN","null","","","","","","","","","","","","","","","","","","","","","","",""
"","respond_faster","","html-keyboard-response","282","1705058","0.0-207.0-0.0","1","0","WIgBv","People","","null","","","","null","","","","","","","","","","","","","","","","","","","","","","","","","","","","","","","","","","","","","","","","","","","",""
"","fixation","","html-keyboard-response","283","1706062","0.0-209.0","0","0","WIgBv","People","","null","","","","null","","","","","","","","","","","","","","","","","","","","","","","","","","","","","","","","","","","","","","","","","","","",""
"","see_reward","","html-keyboard-response","284","1707050","0.0-210.0","0","0","WIgBv","People","","979","","","","32","","27","","23","","","","-1","","","","","1","","","","","0","979","","","","","","","","","","","","","","","","","","","","","","","","",""
"","reward_outcome","","html-keyboard-response","285","1709062","0.0-211.0","0","0","WIgBv","People","","null","","","","null","","27","","23","","","","","","","","","","","","","","","","NaN","null","","","","","","","","","","","","","","","","","","","","","","",""
"","respond_faster","","html-keyboard-response","286","1710576","0.0-212.0-0.0","1","0","WIgBv","People","","null","","","","null","","","","","","","","","","","","","","","","","","","","","","","","","","","","","","","","","","","","","","","","","","","",""
"","block_over","","html-keyboard-response","287","1717631","0.0-213.0-0.0","0","0","WIgBv","People","","7045","","","","78","","","","","","","","","","","","","","","","","","","","","","","","","","","","","","","","","","","","","","","","","","","",""
"","fixation","","html-keyboard-response","288","1718654","0.0-214.0","0","0","WIgBv","People","","null","","","","null","","","","","","","","","","","","","","","","","","","","","","","","","","","","","","","","","","","","","","","","","","","",""
"","see_reward","","html-keyboard-response","289","1722653","0.0-215.0","0","0","WIgBv","People","","3995","","","","32","","27","","24","","","","-1","","","","","2","","","","","0","3995","","","","","","","","","","","","","","","","","","","","","","","","",""
"","reward_outcome","","html-keyboard-response","290","1724671","0.0-216.0","0","0","WIgBv","People","","null","","","","null","","27","","24","","","","","","","","","","","","","","","","NaN","null","","","","","","","","","","","","","","","","","","","","","","",""
"","respond_faster","","html-keyboard-response","291","1726185","0.0-217.0-0.0","1","0","WIgBv","People","","null","","","","null","","","","","","","","","","","","","","","","","","","","","","","","","","","","","","","","","","","","","","","","","","","",""
"","fixation","","html-keyboard-response","292","1727200","0.0-219.0","0","0","WIgBv","People","","null","","","","null","","","","","","","","","","","","","","","","","","","","","","","","","","","","","","","","","","","","","","","","","","","",""
"","see_reward","","html-keyboard-response","293","1729778","0.0-220.0","0","0","WIgBv","People","","2560","","","","32","","45","","25","","","","1","","","","","2","","","","","154","2560","","","","","","","","","","","","","","","","","","","","","","","","",""
"","reward_outcome","","html-keyboard-response","294","1731794","0.0-221.0","0","0","WIgBv","People","","null","","","","null","","45","","25","","","","","","","","","","","","","","","","NaN","null","","","","","","","","","","","","","","","","","","","","","","",""
"","respond_faster","","html-keyboard-response","295","1733309","0.0-222.0-0.0","1","0","WIgBv","People","","null","","","","null","","","","","","","","","","","","","","","","","","","","","","","","","","","","","","","","","","","","","","","","","","","",""
"","fixation","","html-keyboard-response","296","1734326","0.0-224.0","0","0","WIgBv","People","","null","","","","null","","","","","","","","","","","","","","","","","","","","","","","","","","","","","","","","","","","","","","","","","","","",""
"","see_reward","","html-keyboard-response","297","1746493","0.0-225.0","0","0","WIgBv","People","","12151","","","","32","","37","","26","","","","1","","","","","2","","","","","150","12151","","","","","","","","","","","","","","","","","","","","","","","","",""
"","reward_outcome","","html-keyboard-response","298","1748499","0.0-226.0","0","0","WIgBv","People","","null","","","","null","","37","","26","","","","","","","","","","","","","","","","NaN","null","","","","","","","","","","","","","","","","","","","","","","",""
"","respond_faster","","html-keyboard-response","299","1750016","0.0-227.0-0.0","1","0","WIgBv","People","","null","","","","null","","","","","","","","","","","","","","","","","","","","","","","","","","","","","","","","","","","","","","","","","","","",""
"","fixation","","html-keyboard-response","300","1751027","0.0-229.0","0","0","WIgBv","People","","null","","","","null","","","","","","","","","","","","","","","","","","","","","","","","","","","","","","","","","","","","","","","","","","","",""
"","see_reward","","html-keyboard-response","301","1752619","0.0-230.0","0","0","WIgBv","People","","1578","","","","32","","9","","27","","","","1","","","","","2","","","","","148","1578","","","","","","","","","","","","","","","","","","","","","","","","",""
"","reward_outcome","","html-keyboard-response","302","1754624","0.0-231.0","0","0","WIgBv","People","","null","","","","null","","9","","27","","","","","","","","","","","","","","","","NaN","null","","","","","","","","","","","","","","","","","","","","","","",""
"","respond_faster","","html-keyboard-response","303","1756143","0.0-232.0-0.0","1","0","WIgBv","People","","null","","","","null","","","","","","","","","","","","","","","","","","","","","","","","","","","","","","","","","","","","","","","","","","","",""
"","fixation","","html-keyboard-response","304","1757156","0.0-234.0","0","0","WIgBv","People","","null","","","","null","","","","","","","","","","","","","","","","","","","","","","","","","","","","","","","","","","","","","","","","","","","",""
"","see_reward","","html-keyboard-response","305","1757989","0.0-235.0","0","0","WIgBv","People","","828","","","","32","","45","","28","","","","1","","","","","2","","","","","154","828","","","","","","","","","","","","","","","","","","","","","","","","",""
"","reward_outcome","","html-keyboard-response","306","1760003","0.0-236.0","0","0","WIgBv","People","","null","","","","null","","45","","28","","","","","","","","","","","","","","","","NaN","null","","","","","","","","","","","","","","","","","","","","","","",""
"","respond_faster","","html-keyboard-response","307","1761512","0.0-237.0-0.0","1","0","WIgBv","People","","null","","","","null","","","","","","","","","","","","","","","","","","","","","","","","","","","","","","","","","","","","","","","","","","","",""
"","fixation","","html-keyboard-response","308","1762520","0.0-239.0","0","0","WIgBv","People","","null","","","","null","","","","","","","","","","","","","","","","","","","","","","","","","","","","","","","","","","","","","","","","","","","",""
"","see_reward","","html-keyboard-response","309","1766256","0.0-240.0","0","0","WIgBv","People","","3730","","","","32","","12","","29","","","","-1","","","","","2","","","","","0","3730","","","","","","","","","","","","","","","","","","","","","","","","",""
"","reward_outcome","","html-keyboard-response","310","1768279","0.0-241.0","0","0","WIgBv","People","","null","","","","null","","12","","29","","","","","","","","","","","","","","","","NaN","null","","","","","","","","","","","","","","","","","","","","","","",""
"","respond_faster","","html-keyboard-response","311","1769792","0.0-242.0-0.0","1","0","WIgBv","People","","null","","","","null","","","","","","","","","","","","","","","","","","","","","","","","","","","","","","","","","","","","","","","","","","","",""
"","fixation","","html-keyboard-response","312","1770809","0.0-244.0","0","0","WIgBv","People","","null","","","","null","","","","","","","","","","","","","","","","","","","","","","","","","","","","","","","","","","","","","","","","","","","",""
"","see_reward","","html-keyboard-response","313","1772567","0.0-245.0","0","0","WIgBv","People","","1752","","","","32","","11","","30","","","","1","","","","","2","","","","","147","1752","","","","","","","","","","","","","","","","","","","","","","","","",""
"","reward_outcome","","html-keyboard-response","314","1774594","0.0-246.0","0","0","WIgBv","People","","null","","","","null","","11","","30","","","","","","","","","","","","","","","","NaN","null","","","","","","","","","","","","","","","","","","","","","","",""
"","respond_faster","","html-keyboard-response","315","1776107","0.0-247.0-0.0","1","0","WIgBv","People","","null","","","","null","","","","","","","","","","","","","","","","","","","","","","","","","","","","","","","","","","","","","","","","","","","",""
"","fixation","","html-keyboard-response","316","1777155","0.0-249.0","0","0","WIgBv","People","","null","","","","null","","","","","","","","","","","","","","","","","","","","","","","","","","","","","","","","","","","","","","","","","","","",""
"","see_reward","","html-keyboard-response","317","1781004","0.0-250.0","0","0","WIgBv","People","","3838","","","","32","","1","","31","","","","-1","","","","","2","","","","","0","3838","","","","","","","","","","","","","","","","","","","","","","","","",""
"","reward_outcome","","html-keyboard-response","318","1783016","0.0-251.0","0","0","WIgBv","People","","null","","","","null","","1","","31","","","","","","","","","","","","","","","","NaN","null","","","","","","","","","","","","","","","","","","","","","","",""
"","respond_faster","","html-keyboard-response","319","1784547","0.0-252.0-0.0","1","0","WIgBv","People","","null","","","","null","","","","","","","","","","","","","","","","","","","","","","","","","","","","","","","","","","","","","","","","","","","",""
"","fixation","","html-keyboard-response","320","1785561","0.0-254.0","0","0","WIgBv","People","","null","","","","null","","","","","","","","","","","","","","","","","","","","","","","","","","","","","","","","","","","","","","","","","","","",""
"","see_reward","","html-keyboard-response","321","1786640","0.0-255.0","0","0","WIgBv","People","","1073","","","","32","","3","","32","","","","-1","","","","","2","","","","","0","1073","","","","","","","","","","","","","","","","","","","","","","","","",""
"","reward_outcome","","html-keyboard-response","322","1788656","0.0-256.0","0","0","WIgBv","People","","null","","","","null","","3","","32","","","","","","","","","","","","","","","","NaN","null","","","","","","","","","","","","","","","","","","","","","","",""
"","respond_faster","","html-keyboard-response","323","1790170","0.0-257.0-0.0","1","0","WIgBv","People","","null","","","","null","","","","","","","","","","","","","","","","","","","","","","","","","","","","","","","","","","","","","","","","","","","",""
"","fixation","","html-keyboard-response","324","1791185","0.0-259.0","0","0","WIgBv","People","","null","","","","null","","","","","","","","","","","","","","","","","","","","","","","","","","","","","","","","","","","","","","","","","","","",""
"","see_reward","","html-keyboard-response","325","1794100","0.0-260.0","0","0","WIgBv","People","","2905","","","","32","","37","","33","","","","1","","","","","2","","","","","150","2905","","","","","","","","","","","","","","","","","","","","","","","","",""
"","reward_outcome","","html-keyboard-response","326","1796110","0.0-261.0","0","0","WIgBv","People","","null","","","","null","","37","","33","","","","","","","","","","","","","","","","NaN","null","","","","","","","","","","","","","","","","","","","","","","",""
"","respond_faster","","html-keyboard-response","327","1797632","0.0-262.0-0.0","1","0","WIgBv","People","","null","","","","null","","","","","","","","","","","","","","","","","","","","","","","","","","","","","","","","","","","","","","","","","","","",""
"","fixation","","html-keyboard-response","328","1798687","0.0-264.0","0","0","WIgBv","People","","null","","","","null","","","","","","","","","","","","","","","","","","","","","","","","","","","","","","","","","","","","","","","","","","","",""
"","see_reward","","html-keyboard-response","329","1800672","0.0-265.0","0","0","WIgBv","People","","1978","","","","32","","12","","34","","","","-1","","","","","2","","","","","0","1978","","","","","","","","","","","","","","","","","","","","","","","","",""
"","reward_outcome","","html-keyboard-response","330","1802684","0.0-266.0","0","0","WIgBv","People","","null","","","","null","","12","","34","","","","","","","","","","","","","","","","NaN","null","","","","","","","","","","","","","","","","","","","","","","",""
"","respond_faster","","html-keyboard-response","331","1804221","0.0-267.0-0.0","1","0","WIgBv","People","","null","","","","null","","","","","","","","","","","","","","","","","","","","","","","","","","","","","","","","","","","","","","","","","","","",""
"","fixation","","html-keyboard-response","332","1805235","0.0-269.0","0","0","WIgBv","People","","null","","","","null","","","","","","","","","","","","","","","","","","","","","","","","","","","","","","","","","","","","","","","","","","","",""
"","see_reward","","html-keyboard-response","333","1806119","0.0-270.0","0","0","WIgBv","People","","867","","","","32","","22","","35","","","","1","","","","","2","","","","","154","867","","","","","","","","","","","","","","","","","","","","","","","","",""
"","reward_outcome","","html-keyboard-response","334","1808139","0.0-271.0","0","0","WIgBv","People","","null","","","","null","","22","","35","","","","","","","","","","","","","","","","NaN","null","","","","","","","","","","","","","","","","","","","","","","",""
"","respond_faster","","html-keyboard-response","335","1809655","0.0-272.0-0.0","1","0","WIgBv","People","","null","","","","null","","","","","","","","","","","","","","","","","","","","","","","","","","","","","","","","","","","","","","","","","","","",""
"","fixation","","html-keyboard-response","336","1810669","0.0-274.0","0","0","WIgBv","People","","null","","","","null","","","","","","","","","","","","","","","","","","","","","","","","","","","","","","","","","","","","","","","","","","","",""
"","see_reward","","html-keyboard-response","337","1811716","0.0-275.0","0","0","WIgBv","People","","1044","","","","32","","3","","36","","","","-1","","","","","2","","","","","0","1044","","","","","","","","","","","","","","","","","","","","","","","","",""
"","reward_outcome","","html-keyboard-response","338","1813736","0.0-276.0","0","0","WIgBv","People","","null","","","","null","","3","","36","","","","","","","","","","","","","","","","NaN","null","","","","","","","","","","","","","","","","","","","","","","",""
"","respond_faster","","html-keyboard-response","339","1815255","0.0-277.0-0.0","1","0","WIgBv","People","","null","","","","null","","","","","","","","","","","","","","","","","","","","","","","","","","","","","","","","","","","","","","","","","","","",""
"","fixation","","html-keyboard-response","340","1816280","0.0-279.0","0","0","WIgBv","People","","null","","","","null","","","","","","","","","","","","","","","","","","","","","","","","","","","","","","","","","","","","","","","","","","","",""
"","see_reward","","html-keyboard-response","341","1817138","0.0-280.0","0","0","WIgBv","People","","856","","","","32","","31","","37","","","","1","","","","","2","","","","","148","856","","","","","","","","","","","","","","","","","","","","","","","","",""
"","reward_outcome","","html-keyboard-response","342","1819153","0.0-281.0","0","0","WIgBv","People","","null","","","","null","","31","","37","","","","","","","","","","","","","","","","NaN","null","","","","","","","","","","","","","","","","","","","","","","",""
"","respond_faster","","html-keyboard-response","343","1820669","0.0-282.0-0.0","1","0","WIgBv","People","","null","","","","null","","","","","","","","","","","","","","","","","","","","","","","","","","","","","","","","","","","","","","","","","","","",""
"","fixation","","html-keyboard-response","344","1821686","0.0-284.0","0","0","WIgBv","People","","null","","","","null","","","","","","","","","","","","","","","","","","","","","","","","","","","","","","","","","","","","","","","","","","","",""
"","see_reward","","html-keyboard-response","345","1871793","0.0-285.0","0","0","WIgBv","People","","50088","","","","32","","31","","38","","","","1","","","","","2","","","","","148","50088","","","","","","","","","","","","","","","","","","","","","","","","",""
"","reward_outcome","","html-keyboard-response","346","1873810","0.0-286.0","0","0","WIgBv","People","","null","","","","null","","31","","38","","","","","","","","","","","","","","","","NaN","null","","","","","","","","","","","","","","","","","","","","","","",""
"","respond_faster","","html-keyboard-response","347","1875325","0.0-287.0-0.0","1","0","WIgBv","People","","null","","","","null","","","","","","","","","","","","","","","","","","","","","","","","","","","","","","","","","","","","","","","","","","","",""
"","fixation","","html-keyboard-response","348","1876340","0.0-289.0","0","0","WIgBv","People","","null","","","","null","","","","","","","","","","","","","","","","","","","","","","","","","","","","","","","","","","","","","","","","","","","",""
"","see_reward","","html-keyboard-response","349","1880540","0.0-290.0","0","0","WIgBv","People","","4186","","","","32","","11","","39","","","","1","","","","","2","","","","","147","4186","","","","","","","","","","","","","","","","","","","","","","","","",""
"","reward_outcome","","html-keyboard-response","350","1882545","0.0-291.0","0","0","WIgBv","People","","null","","","","null","","11","","39","","","","","","","","","","","","","","","","NaN","null","","","","","","","","","","","","","","","","","","","","","","",""
