"success","ttype","start_time","trial_type","trial_index","time_elapsed","internal_node_id","warning","missed_checkup","PID","stim_type","view_history","rt","responses","repeat_instructions","key_press","response","stimulus_id","painting","index","stimulus_left","stimulus_right","explain_trial","reward_type","rating_left","rating_right","painting_left","painting_right","block","left_chosen","chosen_obj","unchosen_obj","explain_response","reward_amount","see_reward_rt","register_reward_response","register_reward_rt","deliberation_reward_tally","stimulus_left_deliberation_ind","stimulus_right_deliberation_ind","chosen_trial","gain_left","higher_outcome_chosen","old_pair","chosen_object","rt_pairs","left_object_chosen","rt_object","old_response","new_rating","deliberated_stim","initial_rating","outcome_eval_rt","outcome_eval_response","outcome_eval_gain","outcome_eval_acc","preamble","outcome_eval_confidence","outcome_eval_confidence_rt","total_reward_tally"
"true","full_screen","d01192023hr2155","fullscreen","0","10033","0.0-0.0","0","0","Px1eR","Scenes","","","","","","","","","","","","","","","","","","","","","","","","","","","","","","","","","","","","","","","","","","","","","","","","",""
"","rating_instructions","","instructions","1","20283","0.0-1.0-0.0","0","0","Px1eR","Scenes","[{""page_index"":0,""viewing_time"":8094},{""page_index"":1,""viewing_time"":2152}]","10247","","","","","","","","","","","","","","","","","","","","","","","","","","","","","","","","","","","","","","","","","","","","","","",""
"","rating_comprehension_check","","survey-multi-choice","2","25905","0.0-1.0-1.0","0","0","Px1eR","Scenes","","5617","{""Q0"":""True"",""Q1"":""Mouse""}","0","","","","","","","","","","","","","","","","","","","","","","","","","","","","","","","","","","","","","","","","","","","","",""
"","start_phase","","html-keyboard-response","3","29711","0.0-2.0","0","0","Px1eR","Scenes","","3801","","","78","","","","","","","","","","","","","","","","","","","","","","","","","","","","","","","","","","","","","","","","","","","",""
"","rating","","html-slider-response","4","33843","0.0-3.0","0","0","Px1eR","Scenes","","4127","","","","61","140","samuele-errico-piccarini-JEBqFu2AOOA-unsplash.jpg","0","","","","","","","","","","","","","","","","","","","","","","","","","","","","","","","","","","","","","","","",""
"","rating","","html-slider-response","5","35939","0.0-4.0","0","0","Px1eR","Scenes","","2092","","","","56","138","petr-vysohlid-9fqwGqGLUxc-unsplash.jpg","1","","","","","","","","","","","","","","","","","","","","","","","","","","","","","","","","","","","","","","","",""
"","rating","","html-slider-response","6","37542","0.0-5.0","0","0","Px1eR","Scenes","","1601","","","","54","148","tom-gainor-ZqLeQDjY6fY-unsplash.jpg","2","","","","","","","","","","","","","","","","","","","","","","","","","","","","","","","","","","","","","","","",""
"","rating","","html-slider-response","7","40016","0.0-6.0","0","0","Px1eR","Scenes","","2471","","","","38","133","mickey-o-neil-xL66l--msXU-unsplash.jpg","3","","","","","","","","","","","","","","","","","","","","","","","","","","","","","","","","","","","","","","","",""
"","rating","","html-slider-response","8","41656","0.0-7.0","0","0","Px1eR","Scenes","","1637","","","","60","119","james-wheeler-AFC0XvICMgs-unsplash.jpg","4","","","","","","","","","","","","","","","","","","","","","","","","","","","","","","","","","","","","","","","",""
"","rating","","html-slider-response","9","43501","0.0-8.0","0","0","Px1eR","Scenes","","1841","","","","43","137","olga-stalska-QaWRyEdlffY-unsplash.jpg","5","","","","","","","","","","","","","","","","","","","","","","","","","","","","","","","","","","","","","","","",""
"","rating","","html-slider-response","10","45373","0.0-9.0","0","0","Px1eR","Scenes","","1869","","","","25","114","daniel-sessler-z_9VmsxR8hs-unsplash.jpg","6","","","","","","","","","","","","","","","","","","","","","","","","","","","","","","","","","","","","","","","",""
"","rating","","html-slider-response","11","47206","0.0-10.0","0","0","Px1eR","Scenes","","1830","","","","36","131","luca-bravo-hFzIoD0F_i8-unsplash.jpg","7","","","","","","","","","","","","","","","","","","","","","","","","","","","","","","","","","","","","","","","",""
"","rating","","html-slider-response","12","48943","0.0-11.0","0","0","Px1eR","Scenes","","1733","","","","36","149","yuriy-bogdanov-W51VK3Obcj0-unsplash.jpg","8","","","","","","","","","","","","","","","","","","","","","","","","","","","","","","","","","","","","","","","",""
"","rating","","html-slider-response","13","50924","0.0-12.0","0","0","Px1eR","Scenes","","1977","","","","54","110","bruno-van-der-kraan-qez8mNJ3ilU-unsplash.jpg","9","","","","","","","","","","","","","","","","","","","","","","","","","","","","","","","","","","","","","","","",""
"","rating","","html-slider-response","14","52699","0.0-13.0","0","0","Px1eR","Scenes","","1772","","","","59","147","tobias-keller-73F4pKoUkM0-unsplash.jpg","10","","","","","","","","","","","","","","","","","","","","","","","","","","","","","","","","","","","","","","","",""
"","rating","","html-slider-response","15","54521","0.0-14.0","0","0","Px1eR","Scenes","","1819","","","","34","111","claudio-testa-U3F2o6vz3bs-unsplash.jpg","11","","","","","","","","","","","","","","","","","","","","","","","","","","","","","","","","","","","","","","","",""
"","rating","","html-slider-response","16","56688","0.0-15.0","0","0","Px1eR","Scenes","","2165","","","","73","125","john-lee-oMneOBYhJxY-unsplash.jpg","12","","","","","","","","","","","","","","","","","","","","","","","","","","","","","","","","","","","","","","","",""
"","rating","","html-slider-response","17","58873","0.0-16.0","0","0","Px1eR","Scenes","","2181","","","","26","121","jean-pierre-brungs-qxCqkbF7tUc-unsplash.jpg","13","","","","","","","","","","","","","","","","","","","","","","","","","","","","","","","","","","","","","","","",""
"","rating","","html-slider-response","18","60793","0.0-17.0","0","0","Px1eR","Scenes","","1918","","","","59","106","ashim-d-silva-WeYamle9fDM-unsplash.jpg","14","","","","","","","","","","","","","","","","","","","","","","","","","","","","","","","","","","","","","","","",""
"","rating","","html-slider-response","19","63091","0.0-18.0","0","0","Px1eR","Scenes","","2295","","","","80","109","brigitta-schneiter-hXXRLtTxXCU-unsplash.jpg","15","","","","","","","","","","","","","","","","","","","","","","","","","","","","","","","","","","","","","","","",""
"","rating","","html-slider-response","20","64859","0.0-19.0","0","0","Px1eR","Scenes","","1765","","","","57","100","aleksandra-boguslawska-MS7KD9Ti7FQ-unsplash.jpg","16","","","","","","","","","","","","","","","","","","","","","","","","","","","","","","","","","","","","","","","",""
"","rating","","html-slider-response","21","67447","0.0-20.0","0","0","Px1eR","Scenes","","2585","","","","55","135","mohammad-alizade-4wzRuAb-KWs-unsplash.jpg","17","","","","","","","","","","","","","","","","","","","","","","","","","","","","","","","","","","","","","","","",""
"","rating","","html-slider-response","22","70432","0.0-21.0","0","0","Px1eR","Scenes","","2983","","","","57","120","jarrett-kow-1ZOyYPOBn7I-unsplash.jpg","18","","","","","","","","","","","","","","","","","","","","","","","","","","","","","","","","","","","","","","","",""
"","rating","","html-slider-response","23","72496","0.0-22.0","0","0","Px1eR","Scenes","","2061","","","","58","104","artem-sapegin-XGDBdSQ70O0-unsplash.jpg","19","","","","","","","","","","","","","","","","","","","","","","","","","","","","","","","","","","","","","","","",""
"","rating","","html-slider-response","24","74653","0.0-23.0","0","0","Px1eR","Scenes","","2154","","","","61","134","milada-vigerova-pQMM63GE7fo-unsplash.jpg","20","","","","","","","","","","","","","","","","","","","","","","","","","","","","","","","","","","","","","","","",""
"","rating","","html-slider-response","25","76637","0.0-24.0","0","0","Px1eR","Scenes","","1981","","","","61","116","david-marcu-W5MhJ6cy1So-unsplash.jpg","21","","","","","","","","","","","","","","","","","","","","","","","","","","","","","","","","","","","","","","","",""
"","rating","","html-slider-response","26","78407","0.0-25.0","0","0","Px1eR","Scenes","","1766","","","","62","143","sigurdur-fjalar-jonsson-1KxBabIntpE-unsplash.jpg","22","","","","","","","","","","","","","","","","","","","","","","","","","","","","","","","","","","","","","","","",""
"","rating","","html-slider-response","27","79899","0.0-26.0","0","0","Px1eR","Scenes","","1489","","","","64","115","darrell-cassell-hoCXpPUMCoE-unsplash.jpg","23","","","","","","","","","","","","","","","","","","","","","","","","","","","","","","","","","","","","","","","",""
"","rating","","html-slider-response","28","81899","0.0-27.0","0","0","Px1eR","Scenes","","1997","","","","60","127","kace-rodriguez-p3OzJuT_Dks-unsplash.jpg","24","","","","","","","","","","","","","","","","","","","","","","","","","","","","","","","","","","","","","","","",""
"","rating","","html-slider-response","29","84622","0.0-28.0","0","0","Px1eR","Scenes","","2721","","","","82","145","stephen-leonardi-gyIRjKPXupE-unsplash.jpg","25","","","","","","","","","","","","","","","","","","","","","","","","","","","","","","","","","","","","","","","",""
"","rating","","html-slider-response","30","86230","0.0-29.0","0","0","Px1eR","Scenes","","1605","","","","60","117","frank-mckenna-OD9EOzfSOh0-unsplash.jpg","26","","","","","","","","","","","","","","","","","","","","","","","","","","","","","","","","","","","","","","","",""
"","rating","","html-slider-response","31","87901","0.0-30.0","0","0","Px1eR","Scenes","","1668","","","","59","123","joel-jasmin-forestbird-efuwb5eBDrI-unsplash.jpg","27","","","","","","","","","","","","","","","","","","","","","","","","","","","","","","","","","","","","","","","",""
"","rating","","html-slider-response","32","89641","0.0-31.0","0","0","Px1eR","Scenes","","1736","","","","72","132","meng-ji-8BH_M-53CyA-unsplash.jpg","28","","","","","","","","","","","","","","","","","","","","","","","","","","","","","","","","","","","","","","","",""
"","rating","","html-slider-response","33","92693","0.0-32.0","0","0","Px1eR","Scenes","","3048","","","","25","141","sebastian-unrau-v4e3JI7DDHI-unsplash.jpg","29","","","","","","","","","","","","","","","","","","","","","","","","","","","","","","","","","","","","","","","",""
"","rating","","html-slider-response","34","95047","0.0-33.0","0","0","Px1eR","Scenes","","2351","","","","76","139","samsommer-vddccTqwal8-unsplash.jpg","30","","","","","","","","","","","","","","","","","","","","","","","","","","","","","","","","","","","","","","","",""
"","rating","","html-slider-response","35","97050","0.0-34.0","0","0","Px1eR","Scenes","","2000","","","","71","124","johannes-plenio-sPt5RIjKfpk-unsplash.jpg","31","","","","","","","","","","","","","","","","","","","","","","","","","","","","","","","","","","","","","","","",""
"","rating","","html-slider-response","36","98743","0.0-35.0","0","0","Px1eR","Scenes","","1689","","","","61","108","benjamin-voros-phIFdC6lA4E-unsplash.jpg","32","","","","","","","","","","","","","","","","","","","","","","","","","","","","","","","","","","","","","","","",""
"","rating","","html-slider-response","37","100716","0.0-36.0","0","0","Px1eR","Scenes","","1970","","","","28","130","lina-loos-04-C1NZk1hE-unsplash.jpg","33","","","","","","","","","","","","","","","","","","","","","","","","","","","","","","","","","","","","","","","",""
"","rating","","html-slider-response","38","103381","0.0-37.0","0","0","Px1eR","Scenes","","2663","","","","29","146","thomas-morse-cuKKa0vWZSY-unsplash.jpg","34","","","","","","","","","","","","","","","","","","","","","","","","","","","","","","","","","","","","","","","",""
"","rating","","html-slider-response","39","105917","0.0-38.0","0","0","Px1eR","Scenes","","2533","","","","41","105","ashim-d-silva-S2Q5mdOrrVc-unsplash.jpg","35","","","","","","","","","","","","","","","","","","","","","","","","","","","","","","","","","","","","","","","",""
"","rating","","html-slider-response","40","108477","0.0-39.0","0","0","Px1eR","Scenes","","2557","","","","30","103","anton-darius-FBJugtbHsWU-unsplash.jpg","36","","","","","","","","","","","","","","","","","","","","","","","","","","","","","","","","","","","","","","","",""
"","rating","","html-slider-response","41","110735","0.0-40.0","0","0","Px1eR","Scenes","","2255","","","","37","122","jeff-king-bJHWJeiHfHc-unsplash.jpg","37","","","","","","","","","","","","","","","","","","","","","","","","","","","","","","","","","","","","","","","",""
"","rating","","html-slider-response","42","113582","0.0-41.0","0","0","Px1eR","Scenes","","2844","","","","55","101","aniket-deole-T-tOgjWZ0fQ-unsplash.jpg","38","","","","","","","","","","","","","","","","","","","","","","","","","","","","","","","","","","","","","","","",""
"","rating","","html-slider-response","43","115375","0.0-42.0","0","0","Px1eR","Scenes","","1789","","","","33","144","solotravelgoals-7kLufxYoqWk-unsplash.jpg","39","","","","","","","","","","","","","","","","","","","","","","","","","","","","","","","","","","","","","","","",""
"","rating","","html-slider-response","44","117258","0.0-43.0","0","0","Px1eR","Scenes","","1881","","","","72","112","cosmic-timetraveler-pYyOZ8q7AII-unsplash.jpg","40","","","","","","","","","","","","","","","","","","","","","","","","","","","","","","","","","","","","","","","",""
"","rating","","html-slider-response","45","119593","0.0-44.0","0","0","Px1eR","Scenes","","2332","","","","53","136","nicolas-jehly-LzVB84KkZOE-unsplash.jpg","41","","","","","","","","","","","","","","","","","","","","","","","","","","","","","","","","","","","","","","","",""
"","rating","","html-slider-response","46","122405","0.0-45.0","0","0","Px1eR","Scenes","","2810","","","","57","126","jordan-mcqueen-PJCZOWuOxbU-unsplash.jpg","42","","","","","","","","","","","","","","","","","","","","","","","","","","","","","","","","","","","","","","","",""
"","rating","","html-slider-response","47","124569","0.0-46.0","0","0","Px1eR","Scenes","","2161","","","","34","107","benjamin-davies-Zm2n2O7Fph4-unsplash.jpg","43","","","","","","","","","","","","","","","","","","","","","","","","","","","","","","","","","","","","","","","",""
"","rating","","html-slider-response","48","127131","0.0-47.0","0","0","Px1eR","Scenes","","2559","","","","15","102","anisur-rahman-K2b7UDed6uQ-unsplash.jpg","44","","","","","","","","","","","","","","","","","","","","","","","","","","","","","","","","","","","","","","","",""
"","rating","","html-slider-response","49","129779","0.0-48.0","0","0","Px1eR","Scenes","","2645","","","","23","118","henry-be-NLF6hTe4PAg-unsplash.jpg","45","","","","","","","","","","","","","","","","","","","","","","","","","","","","","","","","","","","","","","","",""
"","rating","","html-slider-response","50","131767","0.0-49.0","0","0","Px1eR","Scenes","","1986","","","","29","113","damian-denis-D8R_txR_0PE-unsplash.jpg","46","","","","","","","","","","","","","","","","","","","","","","","","","","","","","","","","","","","","","","","",""
"","rating","","html-slider-response","51","133712","0.0-50.0","0","0","Px1eR","Scenes","","1941","","","","54","129","kurt-cotoaga-cqbLg3lZEpk-unsplash.jpg","47","","","","","","","","","","","","","","","","","","","","","","","","","","","","","","","","","","","","","","","",""
"","rating","","html-slider-response","52","135745","0.0-51.0","0","0","Px1eR","Scenes","","2031","","","","62","142","sergey-pesterev-y-b_FOmJXdg-unsplash.jpg","48","","","","","","","","","","","","","","","","","","","","","","","","","","","","","","","","","","","","","","","",""
"","rating","","html-slider-response","53","137874","0.0-52.0","0","0","Px1eR","Scenes","","2125","","","","36","128","karsten-wurth-jS0zC2PJ17A-unsplash.jpg","49","","","","","","","","","","","","","","","","","","","","","","","","","","","","","","","","","","","","","","","",""
"","deliberation_instructions","","instructions","54","191104","0.0-53.0-0.0","0","0","Px1eR","Scenes","[{""page_index"":0,""viewing_time"":10060},{""page_index"":1,""viewing_time"":11631},{""page_index"":2,""viewing_time"":11198},{""page_index"":3,""viewing_time"":19243},{""page_index"":4,""viewing_time"":1090}]","53224","","","","","","","","","","","","","","","","","","","","","","","","","","","","","","","","","","","","","","","","","","","","","","",""
"","deliberation_comprehension_check","","survey-multi-choice","55","207276","0.0-53.0-1.0","0","0","Px1eR","Scenes","","16163","{""Q0"":""True"",""Q1"":""True"",""Q2"":""Consider carefully and take your time (up to 10 seconds)"",""Q3"":""True"",""Q4"":""D""}","0","","","","","","","","","","","","","","","","","","","","","","","","","","","","","","","","","","","","","","","","","","","","",""
"","start_phase","","html-keyboard-response","56","208850","0.0-54.0","0","0","Px1eR","Scenes","","1570","","","78","","","","","","","","","","","","","","","","","","","","","","","","","","","","","","","","","","","","","","","","","","","",""
"","first_deliberation_block","","html-keyboard-response","57","210286","0.0-55.0","0","0","Px1eR","Scenes","","1434","","","78","","","","","","","","","","","","","","","","","","","","","","","","","","","","","","","","","","","","","","","","","","","",""
"","fixation","","html-keyboard-response","58","211302","0.0-56.0-0.0","0","0","Px1eR","Scenes","","null","","","null","","","","","","","","","","","","","","","","","","","","","","","","","","","","","","","","","","","","","","","","","","","",""
"","deliberation","","html-keyboard-response","59","212422","0.0-56.0-1.0","0","0","Px1eR","Scenes","","1117","","","68","","","","0","129","126","0","-1","54","57","kurt-cotoaga-cqbLg3lZEpk-unsplash.jpg","jordan-mcqueen-PJCZOWuOxbU-unsplash.jpg","1","1","129","126","","","","","","","","","","","","","","","","","","","","","","","","","","","",""
"","choice_confirmation","","html-keyboard-response","60","212934","0.0-56.0-2.0-0.0","0","0","Px1eR","Scenes","","null","","","null","","","","0","129","126","","","","","","","","","","","","","","","","","","","","","","","","","","","","","","","","","","","","","",""
"","fixation","","html-keyboard-response","61","213946","0.0-57.0-0.0","0","0","Px1eR","Scenes","","null","","","null","","","","","","","","","","","","","","","","","","","","","","","","","","","","","","","","","","","","","","","","","","","",""
"","deliberation","","html-keyboard-response","62","215007","0.0-57.0-1.0","0","0","Px1eR","Scenes","","1059","","","68","","","","1","117","149","1","1","60","36","frank-mckenna-OD9EOzfSOh0-unsplash.jpg","yuriy-bogdanov-W51VK3Obcj0-unsplash.jpg","1","1","117","149","","","","","","","","","","","","","","","","","","","","","","","","","","","",""
"","choice_confirmation","","html-keyboard-response","63","215514","0.0-57.0-2.0-0.0","0","0","Px1eR","Scenes","","null","","","null","","","","1","117","149","","","","","","","","","","","","","","","","","","","","","","","","","","","","","","","","","","","","","",""
"","explain_trial","","survey-text","64","228387","0.0-57.0-5.0-0.0","0","0","Px1eR","Scenes","","12870","{""Q0"":""I like the reflection of the water""}","","","","","","1","117","149","","","","","","","","","","","{""Q0"":""I like the reflection of the water""}","","","","","","","","","","","","","","","","","","","","","","","","","","",""
"","fixation","","html-keyboard-response","65","229401","0.0-58.0-0.0","0","0","Px1eR","Scenes","","null","","","null","","","","","","","","","","","","","","","","","","","","","","","","","","","","","","","","","","","","","","","","","","","",""
"","deliberation","","html-keyboard-response","66","230865","0.0-58.0-1.0","0","0","Px1eR","Scenes","","1462","","","68","","","","2","135","120","1","-1","55","57","mohammad-alizade-4wzRuAb-KWs-unsplash.jpg","jarrett-kow-1ZOyYPOBn7I-unsplash.jpg","1","1","135","120","","","","","","","","","","","","","","","","","","","","","","","","","","","",""
"","choice_confirmation","","html-keyboard-response","67","231380","0.0-58.0-2.0-0.0","0","0","Px1eR","Scenes","","null","","","null","","","","2","135","120","","","","","","","","","","","","","","","","","","","","","","","","","","","","","","","","","","","","","",""
"","explain_trial","","survey-text","68","239432","0.0-58.0-5.0-0.0","0","0","Px1eR","Scenes","","8047","{""Q0"":""The sky is pretty""}","","","","","","2","135","120","","","","","","","","","","","{""Q0"":""The sky is pretty""}","","","","","","","","","","","","","","","","","","","","","","","","","","",""
"","fixation","","html-keyboard-response","69","240442","0.0-59.0-0.0","0","0","Px1eR","Scenes","","null","","","null","","","","","","","","","","","","","","","","","","","","","","","","","","","","","","","","","","","","","","","","","","","",""
"","deliberation","","html-keyboard-response","70","240841","0.0-59.0-1.0","0","0","Px1eR","Scenes","","396","","","68","","","","3","119","105","0","-1","60","41","james-wheeler-AFC0XvICMgs-unsplash.jpg","ashim-d-silva-S2Q5mdOrrVc-unsplash.jpg","1","1","119","105","","","","","","","","","","","","","","","","","","","","","","","","","","","",""
"","choice_confirmation","","html-keyboard-response","71","241345","0.0-59.0-2.0-0.0","0","0","Px1eR","Scenes","","null","","","null","","","","3","119","105","","","","","","","","","","","","","","","","","","","","","","","","","","","","","","","","","","","","","",""
"","fixation","","html-keyboard-response","72","242359","0.0-60.0-0.0","0","0","Px1eR","Scenes","","null","","","null","","","","","","","","","","","","","","","","","","","","","","","","","","","","","","","","","","","","","","","","","","","",""
"","deliberation","","html-keyboard-response","73","243941","0.0-60.0-1.0","0","0","Px1eR","Scenes","","1580","","","75","","","","4","128","136","1","1","36","53","karsten-wurth-jS0zC2PJ17A-unsplash.jpg","nicolas-jehly-LzVB84KkZOE-unsplash.jpg","1","0","136","128","","","","","","","","","","","","","","","","","","","","","","","","","","","",""
"","choice_confirmation","","html-keyboard-response","74","244449","0.0-60.0-2.0-0.0","0","0","Px1eR","Scenes","","null","","","null","","","","4","128","136","","","","","","","","","","","","","","","","","","","","","","","","","","","","","","","","","","","","","",""
"","explain_trial","","survey-text","75","257988","0.0-60.0-5.0-0.0","0","0","Px1eR","Scenes","","13535","{""Q0"":""The sand in the sun's shine looks like mars""}","","","","","","4","128","136","","","","","","","","","","","{""Q0"":""The sand in the sun's shine looks like mars""}","","","","","","","","","","","","","","","","","","","","","","","","","","",""
"","fixation","","html-keyboard-response","76","258995","0.0-61.0-0.0","0","0","Px1eR","Scenes","","null","","","null","","","","","","","","","","","","","","","","","","","","","","","","","","","","","","","","","","","","","","","","","","","",""
"","deliberation","","html-keyboard-response","77","259970","0.0-61.0-1.0","0","0","Px1eR","Scenes","","971","","","68","","","","5","100","133","0","1","57","38","aleksandra-boguslawska-MS7KD9Ti7FQ-unsplash.jpg","mickey-o-neil-xL66l--msXU-unsplash.jpg","1","1","100","133","","","","","","","","","","","","","","","","","","","","","","","","","","","",""
"","choice_confirmation","","html-keyboard-response","78","260484","0.0-61.0-2.0-0.0","0","0","Px1eR","Scenes","","null","","","null","","","","5","100","133","","","","","","","","","","","","","","","","","","","","","","","","","","","","","","","","","","","","","",""
"","fixation","","html-keyboard-response","79","261495","0.0-62.0-0.0","0","0","Px1eR","Scenes","","null","","","null","","","","","","","","","","","","","","","","","","","","","","","","","","","","","","","","","","","","","","","","","","","",""
"","deliberation","","html-keyboard-response","80","262540","0.0-62.0-1.0","0","0","Px1eR","Scenes","","1043","","","68","","","","6","123","140","1","1","59","61","joel-jasmin-forestbird-efuwb5eBDrI-unsplash.jpg","samuele-errico-piccarini-JEBqFu2AOOA-unsplash.jpg","1","1","123","140","","","","","","","","","","","","","","","","","","","","","","","","","","","",""
"","choice_confirmation","","html-keyboard-response","81","263044","0.0-62.0-2.0-0.0","0","0","Px1eR","Scenes","","null","","","null","","","","6","123","140","","","","","","","","","","","","","","","","","","","","","","","","","","","","","","","","","","","","","",""
"","explain_trial","","survey-text","82","275783","0.0-62.0-5.0-0.0","0","0","Px1eR","Scenes","","12736","{""Q0"":""The snowy reflections are great""}","","","","","","6","123","140","","","","","","","","","","","{""Q0"":""The snowy reflections are great""}","","","","","","","","","","","","","","","","","","","","","","","","","","",""
"","fixation","","html-keyboard-response","83","276807","0.0-63.0-0.0","0","0","Px1eR","Scenes","","null","","","null","","","","","","","","","","","","","","","","","","","","","","","","","","","","","","","","","","","","","","","","","","","",""
"","deliberation","","html-keyboard-response","84","277907","0.0-63.0-1.0","0","0","Px1eR","Scenes","","1096","","","75","","","","7","122","101","1","1","37","55","jeff-king-bJHWJeiHfHc-unsplash.jpg","aniket-deole-T-tOgjWZ0fQ-unsplash.jpg","1","0","101","122","","","","","","","","","","","","","","","","","","","","","","","","","","","",""
"","choice_confirmation","","html-keyboard-response","85","278424","0.0-63.0-2.0-0.0","0","0","Px1eR","Scenes","","null","","","null","","","","7","122","101","","","","","","","","","","","","","","","","","","","","","","","","","","","","","","","","","","","","","",""
"","explain_trial","","survey-text","86","289799","0.0-63.0-5.0-0.0","0","0","Px1eR","Scenes","","11372","{""Q0"":""I like the mountains more than grass""}","","","","","","7","122","101","","","","","","","","","","","{""Q0"":""I like the mountains more than grass""}","","","","","","","","","","","","","","","","","","","","","","","","","","",""
"","fixation","","html-keyboard-response","87","290821","0.0-64.0-0.0","0","0","Px1eR","Scenes","","null","","","null","","","","","","","","","","","","","","","","","","","","","","","","","","","","","","","","","","","","","","","","","","","",""
"","deliberation","","html-keyboard-response","88","291788","0.0-64.0-1.0","0","0","Px1eR","Scenes","","964","","","68","","","","8","127","104","0","-1","60","58","kace-rodriguez-p3OzJuT_Dks-unsplash.jpg","artem-sapegin-XGDBdSQ70O0-unsplash.jpg","1","1","127","104","","","","","","","","","","","","","","","","","","","","","","","","","","","",""
"","choice_confirmation","","html-keyboard-response","89","292291","0.0-64.0-2.0-0.0","0","0","Px1eR","Scenes","","null","","","null","","","","8","127","104","","","","","","","","","","","","","","","","","","","","","","","","","","","","","","","","","","","","","",""
"","fixation","","html-keyboard-response","90","293301","0.0-65.0-0.0","0","0","Px1eR","Scenes","","null","","","null","","","","","","","","","","","","","","","","","","","","","","","","","","","","","","","","","","","","","","","","","","","",""
"","deliberation","","html-keyboard-response","91","294372","0.0-65.0-1.0","0","0","Px1eR","Scenes","","1069","","","75","","","","9","110","137","0","1","54","43","bruno-van-der-kraan-qez8mNJ3ilU-unsplash.jpg","olga-stalska-QaWRyEdlffY-unsplash.jpg","1","0","137","110","","","","","","","","","","","","","","","","","","","","","","","","","","","",""
"","choice_confirmation","","html-keyboard-response","92","294885","0.0-65.0-2.0-0.0","0","0","Px1eR","Scenes","","null","","","null","","","","9","110","137","","","","","","","","","","","","","","","","","","","","","","","","","","","","","","","","","","","","","",""
"","fixation","","html-keyboard-response","93","295900","0.0-66.0-0.0","0","0","Px1eR","Scenes","","null","","","null","","","","","","","","","","","","","","","","","","","","","","","","","","","","","","","","","","","","","","","","","","","",""
"","deliberation","","html-keyboard-response","94","296928","0.0-66.0-1.0","0","0","Px1eR","Scenes","","1024","","","68","","","","10","138","106","1","-1","56","59","petr-vysohlid-9fqwGqGLUxc-unsplash.jpg","ashim-d-silva-WeYamle9fDM-unsplash.jpg","1","1","138","106","","","","","","","","","","","","","","","","","","","","","","","","","","","",""
"","choice_confirmation","","html-keyboard-response","95","297445","0.0-66.0-2.0-0.0","0","0","Px1eR","Scenes","","null","","","null","","","","10","138","106","","","","","","","","","","","","","","","","","","","","","","","","","","","","","","","","","","","","","",""
"","explain_trial","","survey-text","96","322587","0.0-66.0-5.0-0.0","0","0","Px1eR","Scenes","","25139","{""Q0"":""They are both great, I think I might like the right better but the left looks more natural""}","","","","","","10","138","106","","","","","","","","","","","{""Q0"":""They are both great, I think I might like the right better but the left looks more natural""}","","","","","","","","","","","","","","","","","","","","","","","","","","",""
"","fixation","","html-keyboard-response","97","323606","0.0-67.0-0.0","0","0","Px1eR","Scenes","","null","","","null","","","","","","","","","","","","","","","","","","","","","","","","","","","","","","","","","","","","","","","","","","","",""
"","deliberation","","html-keyboard-response","98","324783","0.0-67.0-1.0","0","0","Px1eR","Scenes","","1174","","","75","","","","11","147","148","0","-1","59","54","tobias-keller-73F4pKoUkM0-unsplash.jpg","tom-gainor-ZqLeQDjY6fY-unsplash.jpg","1","0","148","147","","","","","","","","","","","","","","","","","","","","","","","","","","","",""
"","choice_confirmation","","html-keyboard-response","99","325298","0.0-67.0-2.0-0.0","0","0","Px1eR","Scenes","","null","","","null","","","","11","147","148","","","","","","","","","","","","","","","","","","","","","","","","","","","","","","","","","","","","","",""
"","practice_deliberation_again","","html-keyboard-response","100","327412","0.0-67.0-6.0-0.0","0","0","Px1eR","Scenes","","2111","","","78","","","","","","","","","","","","","","","","","","","","","","","","","","","","","","","","","","","","","","","","","","","",""
"","fixation","","html-keyboard-response","101","328418","0.0-68.0-0.0","0","0","Px1eR","Scenes","","null","","","null","","","","","","","","","","","","","","","","","","","","","","","","","","","","","","","","","","","","","","","","","","","",""
"","deliberation","","html-keyboard-response","102","328995","0.0-68.0-1.0","0","0","Px1eR","Scenes","","573","","","75","","","","12","147","148","1","-1","59","54","tobias-keller-73F4pKoUkM0-unsplash.jpg","tom-gainor-ZqLeQDjY6fY-unsplash.jpg","2","0","148","147","","","","","","","","","","","","","","","","","","","","","","","","","","","",""
"","choice_confirmation","","html-keyboard-response","103","329507","0.0-68.0-2.0-0.0","0","0","Px1eR","Scenes","","null","","","null","","","","12","147","148","","","","","","","","","","","","","","","","","","","","","","","","","","","","","","","","","","","","","",""
"","explain_trial","","survey-text","104","339003","0.0-68.0-5.0-0.0","0","0","Px1eR","Scenes","","9494","{""Q0"":""The sky reflections are great""}","","","","","","12","147","148","","","","","","","","","","","{""Q0"":""The sky reflections are great""}","","","","","","","","","","","","","","","","","","","","","","","","","","",""
"","fixation","","html-keyboard-response","105","340020","0.0-69.0-0.0","0","0","Px1eR","Scenes","","null","","","null","","","","","","","","","","","","","","","","","","","","","","","","","","","","","","","","","","","","","","","","","","","",""
"","deliberation","","html-keyboard-response","106","341193","0.0-69.0-1.0","0","0","Px1eR","Scenes","","1170","","","68","","","","13","127","104","1","-1","60","58","kace-rodriguez-p3OzJuT_Dks-unsplash.jpg","artem-sapegin-XGDBdSQ70O0-unsplash.jpg","2","1","127","104","","","","","","","","","","","","","","","","","","","","","","","","","","","",""
"","choice_confirmation","","html-keyboard-response","107","341712","0.0-69.0-2.0-0.0","0","0","Px1eR","Scenes","","null","","","null","","","","13","127","104","","","","","","","","","","","","","","","","","","","","","","","","","","","","","","","","","","","","","",""
"","explain_trial","","survey-text","108","355700","0.0-69.0-5.0-0.0","0","0","Px1eR","Scenes","","13985","{""Q0"":""The symmetry of the mountains and the water""}","","","","","","13","127","104","","","","","","","","","","","{""Q0"":""The symmetry of the mountains and the water""}","","","","","","","","","","","","","","","","","","","","","","","","","","",""
"","fixation","","html-keyboard-response","109","356717","0.0-70.0-0.0","0","0","Px1eR","Scenes","","null","","","null","","","","","","","","","","","","","","","","","","","","","","","","","","","","","","","","","","","","","","","","","","","",""
"","deliberation","","html-keyboard-response","110","357630","0.0-70.0-1.0","0","0","Px1eR","Scenes","","909","","","68","","","","14","100","133","1","1","57","38","aleksandra-boguslawska-MS7KD9Ti7FQ-unsplash.jpg","mickey-o-neil-xL66l--msXU-unsplash.jpg","2","1","100","133","","","","","","","","","","","","","","","","","","","","","","","","","","","",""
"","choice_confirmation","","html-keyboard-response","111","358136","0.0-70.0-2.0-0.0","0","0","Px1eR","Scenes","","null","","","null","","","","14","100","133","","","","","","","","","","","","","","","","","","","","","","","","","","","","","","","","","","","","","",""
"","explain_trial","","survey-text","112","370394","0.0-70.0-5.0-0.0","0","0","Px1eR","Scenes","","12255","{""Q0"":""that pattern in the water looks very cool""}","","","","","","14","100","133","","","","","","","","","","","{""Q0"":""that pattern in the water looks very cool""}","","","","","","","","","","","","","","","","","","","","","","","","","","",""
"","fixation","","html-keyboard-response","113","371397","0.0-71.0-0.0","0","0","Px1eR","Scenes","","null","","","null","","","","","","","","","","","","","","","","","","","","","","","","","","","","","","","","","","","","","","","","","","","",""
"","deliberation","","html-keyboard-response","114","372569","0.0-71.0-1.0","0","0","Px1eR","Scenes","","1170","","","68","","","","15","123","140","0","1","59","61","joel-jasmin-forestbird-efuwb5eBDrI-unsplash.jpg","samuele-errico-piccarini-JEBqFu2AOOA-unsplash.jpg","2","1","123","140","","","","","","","","","","","","","","","","","","","","","","","","","","","",""
"","choice_confirmation","","html-keyboard-response","115","373085","0.0-71.0-2.0-0.0","0","0","Px1eR","Scenes","","null","","","null","","","","15","123","140","","","","","","","","","","","","","","","","","","","","","","","","","","","","","","","","","","","","","",""
"","fixation","","html-keyboard-response","116","374087","0.0-72.0-0.0","0","0","Px1eR","Scenes","","null","","","null","","","","","","","","","","","","","","","","","","","","","","","","","","","","","","","","","","","","","","","","","","","",""
"","deliberation","","html-keyboard-response","117","375057","0.0-72.0-1.0","0","0","Px1eR","Scenes","","967","","","75","","","","16","110","137","1","1","54","43","bruno-van-der-kraan-qez8mNJ3ilU-unsplash.jpg","olga-stalska-QaWRyEdlffY-unsplash.jpg","2","0","137","110","","","","","","","","","","","","","","","","","","","","","","","","","","","",""
"","choice_confirmation","","html-keyboard-response","118","375561","0.0-72.0-2.0-0.0","0","0","Px1eR","Scenes","","null","","","null","","","","16","110","137","","","","","","","","","","","","","","","","","","","","","","","","","","","","","","","","","","","","","",""
"","explain_trial","","survey-text","119","386575","0.0-72.0-5.0-0.0","0","0","Px1eR","Scenes","","11010","{""Q0"":""The sky looks better than the left one""}","","","","","","16","110","137","","","","","","","","","","","{""Q0"":""The sky looks better than the left one""}","","","","","","","","","","","","","","","","","","","","","","","","","","",""
"","fixation","","html-keyboard-response","120","387580","0.0-73.0-0.0","0","0","Px1eR","Scenes","","null","","","null","","","","","","","","","","","","","","","","","","","","","","","","","","","","","","","","","","","","","","","","","","","",""
"","deliberation","","html-keyboard-response","121","388425","0.0-73.0-1.0","0","0","Px1eR","Scenes","","843","","","68","","","","17","135","120","0","-1","55","57","mohammad-alizade-4wzRuAb-KWs-unsplash.jpg","jarrett-kow-1ZOyYPOBn7I-unsplash.jpg","2","1","135","120","","","","","","","","","","","","","","","","","","","","","","","","","","","",""
"","choice_confirmation","","html-keyboard-response","122","388930","0.0-73.0-2.0-0.0","0","0","Px1eR","Scenes","","null","","","null","","","","17","135","120","","","","","","","","","","","","","","","","","","","","","","","","","","","","","","","","","","","","","",""
"","fixation","","html-keyboard-response","123","389943","0.0-74.0-0.0","0","0","Px1eR","Scenes","","null","","","null","","","","","","","","","","","","","","","","","","","","","","","","","","","","","","","","","","","","","","","","","","","",""
"","deliberation","","html-keyboard-response","124","390854","0.0-74.0-1.0","0","0","Px1eR","Scenes","","908","","","68","","","","18","119","105","1","-1","60","41","james-wheeler-AFC0XvICMgs-unsplash.jpg","ashim-d-silva-S2Q5mdOrrVc-unsplash.jpg","2","1","119","105","","","","","","","","","","","","","","","","","","","","","","","","","","","",""
"","choice_confirmation","","html-keyboard-response","125","391370","0.0-74.0-2.0-0.0","0","0","Px1eR","Scenes","","null","","","null","","","","18","119","105","","","","","","","","","","","","","","","","","","","","","","","","","","","","","","","","","","","","","",""
"","explain_trial","","survey-text","126","406817","0.0-74.0-5.0-0.0","0","0","Px1eR","Scenes","","15444","{""Q0"":""Sand sucks, lol nah for real the reflections are amazing on the left""}","","","","","","18","119","105","","","","","","","","","","","{""Q0"":""Sand sucks, lol nah for real the reflections are amazing on the left""}","","","","","","","","","","","","","","","","","","","","","","","","","","",""
"","fixation","","html-keyboard-response","127","407827","0.0-75.0-0.0","0","0","Px1eR","Scenes","","null","","","null","","","","","","","","","","","","","","","","","","","","","","","","","","","","","","","","","","","","","","","","","","","",""
"","deliberation","","html-keyboard-response","128","409141","0.0-75.0-1.0","0","0","Px1eR","Scenes","","1309","","","75","","","","19","138","106","0","-1","56","59","petr-vysohlid-9fqwGqGLUxc-unsplash.jpg","ashim-d-silva-WeYamle9fDM-unsplash.jpg","2","0","106","138","","","","","","","","","","","","","","","","","","","","","","","","","","","",""
"","choice_confirmation","","html-keyboard-response","129","409664","0.0-75.0-2.0-0.0","0","0","Px1eR","Scenes","","null","","","null","","","","19","138","106","","","","","","","","","","","","","","","","","","","","","","","","","","","","","","","","","","","","","",""
"","fixation","","html-keyboard-response","130","410673","0.0-76.0-0.0","0","0","Px1eR","Scenes","","null","","","null","","","","","","","","","","","","","","","","","","","","","","","","","","","","","","","","","","","","","","","","","","","",""
"","deliberation","","html-keyboard-response","131","411878","0.0-76.0-1.0","0","0","Px1eR","Scenes","","1203","","","75","","","","20","128","136","0","1","36","53","karsten-wurth-jS0zC2PJ17A-unsplash.jpg","nicolas-jehly-LzVB84KkZOE-unsplash.jpg","2","0","136","128","","","","","","","","","","","","","","","","","","","","","","","","","","","",""
"","choice_confirmation","","html-keyboard-response","132","412390","0.0-76.0-2.0-0.0","0","0","Px1eR","Scenes","","null","","","null","","","","20","128","136","","","","","","","","","","","","","","","","","","","","","","","","","","","","","","","","","","","","","",""
"","fixation","","html-keyboard-response","133","413415","0.0-77.0-0.0","0","0","Px1eR","Scenes","","null","","","null","","","","","","","","","","","","","","","","","","","","","","","","","","","","","","","","","","","","","","","","","","","",""
"","deliberation","","html-keyboard-response","134","415840","0.0-77.0-1.0","0","0","Px1eR","Scenes","","2422","","","68","","","","21","129","126","1","-1","54","57","kurt-cotoaga-cqbLg3lZEpk-unsplash.jpg","jordan-mcqueen-PJCZOWuOxbU-unsplash.jpg","2","1","129","126","","","","","","","","","","","","","","","","","","","","","","","","","","","",""
"","choice_confirmation","","html-keyboard-response","135","416348","0.0-77.0-2.0-0.0","0","0","Px1eR","Scenes","","null","","","null","","","","21","129","126","","","","","","","","","","","","","","","","","","","","","","","","","","","","","","","","","","","","","",""
"","explain_trial","","survey-text","136","429436","0.0-77.0-5.0-0.0","0","0","Px1eR","Scenes","","13085","{""Q0"":""I like the mountains more than the sunset""}","","","","","","21","129","126","","","","","","","","","","","{""Q0"":""I like the mountains more than the sunset""}","","","","","","","","","","","","","","","","","","","","","","","","","","",""
"","fixation","","html-keyboard-response","137","430450","0.0-78.0-0.0","0","0","Px1eR","Scenes","","null","","","null","","","","","","","","","","","","","","","","","","","","","","","","","","","","","","","","","","","","","","","","","","","",""
"","deliberation","","html-keyboard-response","138","431538","0.0-78.0-1.0","0","0","Px1eR","Scenes","","1085","","","68","","","","22","117","149","0","1","60","36","frank-mckenna-OD9EOzfSOh0-unsplash.jpg","yuriy-bogdanov-W51VK3Obcj0-unsplash.jpg","2","1","117","149","","","","","","","","","","","","","","","","","","","","","","","","","","","",""
"","choice_confirmation","","html-keyboard-response","139","432052","0.0-78.0-2.0-0.0","0","0","Px1eR","Scenes","","null","","","null","","","","22","117","149","","","","","","","","","","","","","","","","","","","","","","","","","","","","","","","","","","","","","",""
"","fixation","","html-keyboard-response","140","433055","0.0-79.0-0.0","0","0","Px1eR","Scenes","","null","","","null","","","","","","","","","","","","","","","","","","","","","","","","","","","","","","","","","","","","","","","","","","","",""
"","deliberation","","html-keyboard-response","141","434103","0.0-79.0-1.0","0","0","Px1eR","Scenes","","1044","","","75","","","","23","122","101","0","1","37","55","jeff-king-bJHWJeiHfHc-unsplash.jpg","aniket-deole-T-tOgjWZ0fQ-unsplash.jpg","2","0","101","122","","","","","","","","","","","","","","","","","","","","","","","","","","","",""
"","choice_confirmation","","html-keyboard-response","142","434617","0.0-79.0-2.0-0.0","0","0","Px1eR","Scenes","","null","","","null","","","","23","122","101","","","","","","","","","","","","","","","","","","","","","","","","","","","","","","","","","","","","","",""
"","start_critical_deliberation_block","","html-keyboard-response","143","436545","0.0-79.0-7.0-0.0","0","0","Px1eR","Scenes","","1926","","","78","","","","","","","","","","","","","","","","","","","","","","","","","","","","","","","","","","","","","","","","","","","",""
"","fixation","","html-keyboard-response","144","437553","0.0-80.0-0.0","0","0","Px1eR","Scenes","","null","","","null","","","","","","","","","","","","","","","","","","","","","","","","","","","","","","","","","","","","","","","","","","","",""
"","deliberation","","html-keyboard-response","145","439867","0.0-80.0-1.0","0","0","Px1eR","Scenes","","2310","","","68","","","","24","127","104","0","-1","60","58","kace-rodriguez-p3OzJuT_Dks-unsplash.jpg","artem-sapegin-XGDBdSQ70O0-unsplash.jpg","3","1","127","104","","","","","","","","","","","","","","","","","","","","","","","","","","","",""
"","choice_confirmation","","html-keyboard-response","146","440377","0.0-80.0-2.0-0.0","0","0","Px1eR","Scenes","","null","","","null","","","","24","127","104","","","","","","","","","","","","","","","","","","","","","","","","","","","","","","","","","","","","","",""
"","fixation","","html-keyboard-response","147","441391","0.0-81.0-0.0","0","0","Px1eR","Scenes","","null","","","null","","","","","","","","","","","","","","","","","","","","","","","","","","","","","","","","","","","","","","","","","","","",""
"","deliberation","","html-keyboard-response","148","442282","0.0-81.0-1.0","0","0","Px1eR","Scenes","","887","","","75","","","","25","110","137","0","1","54","43","bruno-van-der-kraan-qez8mNJ3ilU-unsplash.jpg","olga-stalska-QaWRyEdlffY-unsplash.jpg","3","0","137","110","","","","","","","","","","","","","","","","","","","","","","","","","","","",""
"","choice_confirmation","","html-keyboard-response","149","442787","0.0-81.0-2.0-0.0","0","0","Px1eR","Scenes","","null","","","null","","","","25","110","137","","","","","","","","","","","","","","","","","","","","","","","","","","","","","","","","","","","","","",""
"","fixation","","html-keyboard-response","150","443792","0.0-82.0-0.0","0","0","Px1eR","Scenes","","null","","","null","","","","","","","","","","","","","","","","","","","","","","","","","","","","","","","","","","","","","","","","","","","",""
"","deliberation","","html-keyboard-response","151","444811","0.0-82.0-1.0","0","0","Px1eR","Scenes","","1016","","","75","","","","26","147","148","0","-1","59","54","tobias-keller-73F4pKoUkM0-unsplash.jpg","tom-gainor-ZqLeQDjY6fY-unsplash.jpg","3","0","148","147","","","","","","","","","","","","","","","","","","","","","","","","","","","",""
"","choice_confirmation","","html-keyboard-response","152","445319","0.0-82.0-2.0-0.0","0","0","Px1eR","Scenes","","null","","","null","","","","26","147","148","","","","","","","","","","","","","","","","","","","","","","","","","","","","","","","","","","","","","",""
"","fixation","","html-keyboard-response","153","446341","0.0-83.0-0.0","0","0","Px1eR","Scenes","","null","","","null","","","","","","","","","","","","","","","","","","","","","","","","","","","","","","","","","","","","","","","","","","","",""
"","deliberation","","html-keyboard-response","154","447429","0.0-83.0-1.0","0","0","Px1eR","Scenes","","1084","","","68","","","","27","123","140","0","1","59","61","joel-jasmin-forestbird-efuwb5eBDrI-unsplash.jpg","samuele-errico-piccarini-JEBqFu2AOOA-unsplash.jpg","3","1","123","140","","","","","","","","","","","","","","","","","","","","","","","","","","","",""
"","choice_confirmation","","html-keyboard-response","155","447944","0.0-83.0-2.0-0.0","0","0","Px1eR","Scenes","","null","","","null","","","","27","123","140","","","","","","","","","","","","","","","","","","","","","","","","","","","","","","","","","","","","","",""
"","fixation","","html-keyboard-response","156","448955","0.0-84.0-0.0","0","0","Px1eR","Scenes","","null","","","null","","","","","","","","","","","","","","","","","","","","","","","","","","","","","","","","","","","","","","","","","","","",""
"","deliberation","","html-keyboard-response","157","450561","0.0-84.0-1.0","0","0","Px1eR","Scenes","","1604","","","68","","","","28","135","120","0","-1","55","57","mohammad-alizade-4wzRuAb-KWs-unsplash.jpg","jarrett-kow-1ZOyYPOBn7I-unsplash.jpg","3","1","135","120","","","","","","","","","","","","","","","","","","","","","","","","","","","",""
"","choice_confirmation","","html-keyboard-response","158","451068","0.0-84.0-2.0-0.0","0","0","Px1eR","Scenes","","null","","","null","","","","28","135","120","","","","","","","","","","","","","","","","","","","","","","","","","","","","","","","","","","","","","",""
"","fixation","","html-keyboard-response","159","452082","0.0-85.0-0.0","0","0","Px1eR","Scenes","","null","","","null","","","","","","","","","","","","","","","","","","","","","","","","","","","","","","","","","","","","","","","","","","","",""
"","deliberation","","html-keyboard-response","160","453289","0.0-85.0-1.0","0","0","Px1eR","Scenes","","1204","","","75","","","","29","128","136","0","1","36","53","karsten-wurth-jS0zC2PJ17A-unsplash.jpg","nicolas-jehly-LzVB84KkZOE-unsplash.jpg","3","0","136","128","","","","","","","","","","","","","","","","","","","","","","","","","","","",""
"","choice_confirmation","","html-keyboard-response","161","453805","0.0-85.0-2.0-0.0","0","0","Px1eR","Scenes","","null","","","null","","","","29","128","136","","","","","","","","","","","","","","","","","","","","","","","","","","","","","","","","","","","","","",""
"","fixation","","html-keyboard-response","162","454821","0.0-86.0-0.0","0","0","Px1eR","Scenes","","null","","","null","","","","","","","","","","","","","","","","","","","","","","","","","","","","","","","","","","","","","","","","","","","",""
"","deliberation","","html-keyboard-response","163","455741","0.0-86.0-1.0","0","0","Px1eR","Scenes","","916","","","68","","","","30","117","149","0","1","60","36","frank-mckenna-OD9EOzfSOh0-unsplash.jpg","yuriy-bogdanov-W51VK3Obcj0-unsplash.jpg","3","1","117","149","","","","","","","","","","","","","","","","","","","","","","","","","","","",""
"","choice_confirmation","","html-keyboard-response","164","456259","0.0-86.0-2.0-0.0","0","0","Px1eR","Scenes","","null","","","null","","","","30","117","149","","","","","","","","","","","","","","","","","","","","","","","","","","","","","","","","","","","","","",""
"","fixation","","html-keyboard-response","165","457268","0.0-87.0-0.0","0","0","Px1eR","Scenes","","null","","","null","","","","","","","","","","","","","","","","","","","","","","","","","","","","","","","","","","","","","","","","","","","",""
"","deliberation","","html-keyboard-response","166","458119","0.0-87.0-1.0","0","0","Px1eR","Scenes","","847","","","68","","","","31","119","105","0","-1","60","41","james-wheeler-AFC0XvICMgs-unsplash.jpg","ashim-d-silva-S2Q5mdOrrVc-unsplash.jpg","3","1","119","105","","","","","","","","","","","","","","","","","","","","","","","","","","","",""
"","choice_confirmation","","html-keyboard-response","167","458628","0.0-87.0-2.0-0.0","0","0","Px1eR","Scenes","","null","","","null","","","","31","119","105","","","","","","","","","","","","","","","","","","","","","","","","","","","","","","","","","","","","","",""
"","fixation","","html-keyboard-response","168","459641","0.0-88.0-0.0","0","0","Px1eR","Scenes","","null","","","null","","","","","","","","","","","","","","","","","","","","","","","","","","","","","","","","","","","","","","","","","","","",""
"","deliberation","","html-keyboard-response","169","460939","0.0-88.0-1.0","0","0","Px1eR","Scenes","","1294","","","68","","","","32","129","126","0","-1","54","57","kurt-cotoaga-cqbLg3lZEpk-unsplash.jpg","jordan-mcqueen-PJCZOWuOxbU-unsplash.jpg","3","1","129","126","","","","","","","","","","","","","","","","","","","","","","","","","","","",""
"","choice_confirmation","","html-keyboard-response","170","461449","0.0-88.0-2.0-0.0","0","0","Px1eR","Scenes","","null","","","null","","","","32","129","126","","","","","","","","","","","","","","","","","","","","","","","","","","","","","","","","","","","","","",""
"","fixation","","html-keyboard-response","171","462463","0.0-89.0-0.0","0","0","Px1eR","Scenes","","null","","","null","","","","","","","","","","","","","","","","","","","","","","","","","","","","","","","","","","","","","","","","","","","",""
"","deliberation","","html-keyboard-response","172","463415","0.0-89.0-1.0","0","0","Px1eR","Scenes","","949","","","75","","","","33","122","101","0","1","37","55","jeff-king-bJHWJeiHfHc-unsplash.jpg","aniket-deole-T-tOgjWZ0fQ-unsplash.jpg","3","0","101","122","","","","","","","","","","","","","","","","","","","","","","","","","","","",""
"","choice_confirmation","","html-keyboard-response","173","463934","0.0-89.0-2.0-0.0","0","0","Px1eR","Scenes","","null","","","null","","","","33","122","101","","","","","","","","","","","","","","","","","","","","","","","","","","","","","","","","","","","","","",""
"","fixation","","html-keyboard-response","174","464945","0.0-90.0-0.0","0","0","Px1eR","Scenes","","null","","","null","","","","","","","","","","","","","","","","","","","","","","","","","","","","","","","","","","","","","","","","","","","",""
"","deliberation","","html-keyboard-response","175","467823","0.0-90.0-1.0","0","0","Px1eR","Scenes","","2874","","","68","","","","34","138","106","0","-1","56","59","petr-vysohlid-9fqwGqGLUxc-unsplash.jpg","ashim-d-silva-WeYamle9fDM-unsplash.jpg","3","1","138","106","","","","","","","","","","","","","","","","","","","","","","","","","","","",""
"","choice_confirmation","","html-keyboard-response","176","468338","0.0-90.0-2.0-0.0","0","0","Px1eR","Scenes","","null","","","null","","","","34","138","106","","","","","","","","","","","","","","","","","","","","","","","","","","","","","","","","","","","","","",""
"","fixation","","html-keyboard-response","177","469354","0.0-91.0-0.0","0","0","Px1eR","Scenes","","null","","","null","","","","","","","","","","","","","","","","","","","","","","","","","","","","","","","","","","","","","","","","","","","",""
"","deliberation","","html-keyboard-response","178","470291","0.0-91.0-1.0","0","0","Px1eR","Scenes","","934","","","68","","","","35","100","133","0","1","57","38","aleksandra-boguslawska-MS7KD9Ti7FQ-unsplash.jpg","mickey-o-neil-xL66l--msXU-unsplash.jpg","3","1","100","133","","","","","","","","","","","","","","","","","","","","","","","","","","","",""
"","choice_confirmation","","html-keyboard-response","179","470826","0.0-91.0-2.0-0.0","0","0","Px1eR","Scenes","","null","","","null","","","","35","100","133","","","","","","","","","","","","","","","","","","","","","","","","","","","","","","","","","","","","","",""
"","reward_learning_instructions","","instructions","180","500475","0.0-92.0-0.0","0","0","Px1eR","Scenes","[{""page_index"":0,""viewing_time"":13477},{""page_index"":1,""viewing_time"":14676},{""page_index"":2,""viewing_time"":1492}]","29646","","","","","","","","","","","","","","","","","","","","","","","","","","","","","","","","","","","","","","","","","","","","","","",""
"","reward_comprehension_check","","survey-multi-choice","181","514620","0.0-92.0-1.0","0","0","Px1eR","Scenes","","14136","{""Q0"":""True"",""Q1"":"""",""Q2"":""Press the space bar to see its outcome"",""Q3"":""Press the relevant key while the outcome is presented""}","1","","","","","","","","","","","","","","","","","","","","","","","","","","","","","","","","","","","","","","","","","","","","",""
"","missed_instruction_checkup","","html-keyboard-response","182","517497","0.0-92.0-2.0-0.0","0","1","Px1eR","Scenes","","2873","","","78","","","","","","","","","","","","","","","","","","","","","","","","","","","","","","","","","","","","","","","","","","","",""
"","reward_learning_instructions","","instructions","183","544779","0.0-92.1-0.1","0","0","Px1eR","Scenes","[{""page_index"":0,""viewing_time"":11791},{""page_index"":1,""viewing_time"":14688},{""page_index"":2,""viewing_time"":801}]","27280","","","","","","","","","","","","","","","","","","","","","","","","","","","","","","","","","","","","","","","","","","","","","","",""
"","reward_comprehension_check","","survey-multi-choice","184","562944","0.0-92.1-1.1","0","0","Px1eR","Scenes","","18159","{""Q0"":""True"",""Q1"":""False"",""Q2"":""Press the space bar to see its outcome"",""Q3"":""Press the relevant key while the outcome is presented""}","1","","","","","","","","","","","","","","","","","","","","","","","","","","","","","","","","","","","","","","","","","","","","",""
"","missed_instruction_checkup","","html-keyboard-response","185","564537","0.0-92.1-2.1-0.1","0","1","Px1eR","Scenes","","1590","","","78","","","","","","","","","","","","","","","","","","","","","","","","","","","","","","","","","","","","","","","","","","","",""
"","reward_learning_instructions","","instructions","186","573973","0.0-92.2-0.2","0","0","Px1eR","Scenes","[{""page_index"":0,""viewing_time"":1152},{""page_index"":1,""viewing_time"":1786},{""page_index"":0,""viewing_time"":3792},{""page_index"":1,""viewing_time"":1864},{""page_index"":2,""viewing_time"":840}]","9434","","","","","","","","","","","","","","","","","","","","","","","","","","","","","","","","","","","","","","","","","","","","","","",""
"","reward_comprehension_check","","survey-multi-choice","187","587062","0.0-92.2-1.2","0","0","Px1eR","Scenes","","13078","{""Q0"":""True"",""Q1"":""True"",""Q2"":""Press the space bar to see its outcome"",""Q3"":""Press the relevant key while the outcome is presented""}","0","","","","","","","","","","","","","","","","","","","","","","","","","","","","","","","","","","","","","","","","","","","","",""
"","start_phase","","html-keyboard-response","188","588794","0.0-93.0","0","0","Px1eR","Scenes","","1729","","","78","","","","","","","","","","","","","","","","","","","","","","","","","","","","","","","","","","","","","","","","","","","",""
"","fixation","","html-keyboard-response","189","589809","0.0-94.0","0","0","Px1eR","Scenes","","null","","","null","","","","","","","","","","","","","","","","","","","","","","","","","","","","","","","","","","","","","","","","","","","",""
"","see_reward","","html-keyboard-response","190","592151","0.0-95.0","0","0","Px1eR","Scenes","","2338","","","32","","123","","0","","","","1","","","","","1","","","","","153","2338","","","","","","","","","","","","","","","","","","","","","","","","",""
"","reward_outcome","","html-keyboard-response","191","594155","0.0-96.0","0","0","Px1eR","Scenes","","2000","","","38","","123","","0","","","","","","","","","","","","","","","","1","2000","","","","","","","","","","","","","","","","","","","","","","",""
"","fixation","","html-keyboard-response","192","595162","0.0-99.0","0","0","Px1eR","Scenes","","null","","","null","","","","","","","","","","","","","","","","","","","","","","","","","","","","","","","","","","","","","","","","","","","",""
"","see_reward","","html-keyboard-response","193","595931","0.0-100.0","0","0","Px1eR","Scenes","","767","","","32","","135","","1","","","","-1","","","","","1","","","","","0","767","","","","","","","","","","","","","","","","","","","","","","","","",""
"","reward_outcome","","html-keyboard-response","194","597951","0.0-101.0","0","0","Px1eR","Scenes","","1064","","","40","","135","","1","","","","","","","","","","","","","","","","-1","1064","","","","","","","","","","","","","","","","","","","","","","",""
"","fixation","","html-keyboard-response","195","598965","0.0-104.0","0","0","Px1eR","Scenes","","null","","","null","","","","","","","","","","","","","","","","","","","","","","","","","","","","","","","","","","","","","","","","","","","",""
"","see_reward","","html-keyboard-response","196","599921","0.0-105.0","0","0","Px1eR","Scenes","","953","","","32","","100","","2","","","","1","","","","","1","","","","","148","953","","","","","","","","","","","","","","","","","","","","","","","","",""
"","reward_outcome","","html-keyboard-response","197","601934","0.0-106.0","0","0","Px1eR","Scenes","","585","","","38","","100","","2","","","","","","","","","","","","","","","","1","585","","","","","","","","","","","","","","","","","","","","","","",""
"","fixation","","html-keyboard-response","198","602947","0.0-109.0","0","0","Px1eR","Scenes","","null","","","null","","","","","","","","","","","","","","","","","","","","","","","","","","","","","","","","","","","","","","","","","","","",""
"","see_reward","","html-keyboard-response","199","603651","0.0-110.0","0","0","Px1eR","Scenes","","701","","","32","","137","","3","","","","1","","","","","1","","","","","150","701","","","","","","","","","","","","","","","","","","","","","","","","",""
"","reward_outcome","","html-keyboard-response","200","605663","0.0-111.0","0","0","Px1eR","Scenes","","588","","","40","","137","","3","","","","","","","","","","","","","","","","-1","588","","","","","","","","","","","","","","","","","","","","","","",""
"","fixation","","html-keyboard-response","201","606684","0.0-114.0","0","0","Px1eR","Scenes","","null","","","null","","","","","","","","","","","","","","","","","","","","","","","","","","","","","","","","","","","","","","","","","","","",""
"","see_reward","","html-keyboard-response","202","607245","0.0-115.0","0","0","Px1eR","Scenes","","558","","","32","","101","","4","","","","1","","","","","1","","","","","146","558","","","","","","","","","","","","","","","","","","","","","","","","",""
"","reward_outcome","","html-keyboard-response","203","609258","0.0-116.0","0","0","Px1eR","Scenes","","775","","","38","","101","","4","","","","","","","","","","","","","","","","1","775","","","","","","","","","","","","","","","","","","","","","","",""
"","fixation","","html-keyboard-response","204","610272","0.0-119.0","0","0","Px1eR","Scenes","","null","","","null","","","","","","","","","","","","","","","","","","","","","","","","","","","","","","","","","","","","","","","","","","","",""
"","see_reward","","html-keyboard-response","205","611074","0.0-120.0","0","0","Px1eR","Scenes","","799","","","32","","129","","5","","","","-1","","","","","1","","","","","0","799","","","","","","","","","","","","","","","","","","","","","","","","",""
"","reward_outcome","","html-keyboard-response","206","613081","0.0-121.0","0","0","Px1eR","Scenes","","481","","","40","","129","","5","","","","","","","","","","","","","","","","-1","481","","","","","","","","","","","","","","","","","","","","","","",""
"","fixation","","html-keyboard-response","207","614092","0.0-124.0","0","0","Px1eR","Scenes","","null","","","null","","","","","","","","","","","","","","","","","","","","","","","","","","","","","","","","","","","","","","","","","","","",""
"","see_reward","","html-keyboard-response","208","614626","0.0-125.0","0","0","Px1eR","Scenes","","532","","","32","","123","","6","","","","1","","","","","1","","","","","153","532","","","","","","","","","","","","","","","","","","","","","","","","",""
"","reward_outcome","","html-keyboard-response","209","616645","0.0-126.0","0","0","Px1eR","Scenes","","449","","","38","","123","","6","","","","","","","","","","","","","","","","1","449","","","","","","","","","","","","","","","","","","","","","","",""
"","fixation","","html-keyboard-response","210","617658","0.0-129.0","0","0","Px1eR","Scenes","","null","","","null","","","","","","","","","","","","","","","","","","","","","","","","","","","","","","","","","","","","","","","","","","","",""
"","see_reward","","html-keyboard-response","211","618299","0.0-130.0","0","0","Px1eR","Scenes","","639","","","32","","135","","7","","","","-1","","","","","1","","","","","0","639","","","","","","","","","","","","","","","","","","","","","","","","",""
"","reward_outcome","","html-keyboard-response","212","620304","0.0-131.0","0","0","Px1eR","Scenes","","487","","","40","","135","","7","","","","","","","","","","","","","","","","-1","487","","","","","","","","","","","","","","","","","","","","","","",""
"","fixation","","html-keyboard-response","213","621327","0.0-134.0","0","0","Px1eR","Scenes","","null","","","null","","","","","","","","","","","","","","","","","","","","","","","","","","","","","","","","","","","","","","","","","","","",""
"","see_reward","","html-keyboard-response","214","622087","0.0-135.0","0","0","Px1eR","Scenes","","758","","","32","","127","","8","","","","-1","","","","","1","","","","","0","758","","","","","","","","","","","","","","","","","","","","","","","","",""
"","reward_outcome","","html-keyboard-response","215","624096","0.0-136.0","0","0","Px1eR","Scenes","","573","","","40","","127","","8","","","","","","","","","","","","","","","","-1","573","","","","","","","","","","","","","","","","","","","","","","",""
"","fixation","","html-keyboard-response","216","625108","0.0-139.0","0","0","Px1eR","Scenes","","null","","","null","","","","","","","","","","","","","","","","","","","","","","","","","","","","","","","","","","","","","","","","","","","",""
"","see_reward","","html-keyboard-response","217","625772","0.0-140.0","0","0","Px1eR","Scenes","","661","","","32","","119","","9","","","","-1","","","","","1","","","","","0","661","","","","","","","","","","","","","","","","","","","","","","","","",""
"","reward_outcome","","html-keyboard-response","218","627787","0.0-141.0","0","0","Px1eR","Scenes","","540","","","40","","119","","9","","","","","","","","","","","","","","","","-1","540","","","","","","","","","","","","","","","","","","","","","","",""
"","fixation","","html-keyboard-response","219","628798","0.0-144.0","0","0","Px1eR","Scenes","","null","","","null","","","","","","","","","","","","","","","","","","","","","","","","","","","","","","","","","","","","","","","","","","","",""
"","see_reward","","html-keyboard-response","220","629547","0.0-145.0","0","0","Px1eR","Scenes","","746","","","32","","138","","10","","","","-1","","","","","1","","","","","0","746","","","","","","","","","","","","","","","","","","","","","","","","",""
"","reward_outcome","","html-keyboard-response","221","631563","0.0-146.0","0","0","Px1eR","Scenes","","603","","","40","","138","","10","","","","","","","","","","","","","","","","-1","603","","","","","","","","","","","","","","","","","","","","","","",""
"","fixation","","html-keyboard-response","222","632570","0.0-149.0","0","0","Px1eR","Scenes","","null","","","null","","","","","","","","","","","","","","","","","","","","","","","","","","","","","","","","","","","","","","","","","","","",""
"","see_reward","","html-keyboard-response","223","633090","0.0-150.0","0","0","Px1eR","Scenes","","516","","","32","","101","","11","","","","1","","","","","1","","","","","146","516","","","","","","","","","","","","","","","","","","","","","","","","",""
"","reward_outcome","","html-keyboard-response","224","635105","0.0-151.0","0","0","Px1eR","Scenes","","532","","","38","","101","","11","","","","","","","","","","","","","","","","1","532","","","","","","","","","","","","","","","","","","","","","","",""
"","fixation","","html-keyboard-response","225","636120","0.0-154.0","0","0","Px1eR","Scenes","","null","","","null","","","","","","","","","","","","","","","","","","","","","","","","","","","","","","","","","","","","","","","","","","","",""
"","see_reward","","html-keyboard-response","226","636686","0.0-155.0","0","0","Px1eR","Scenes","","560","","","32","","119","","12","","","","-1","","","","","1","","","","","0","560","","","","","","","","","","","","","","","","","","","","","","","","",""
"","reward_outcome","","html-keyboard-response","227","638707","0.0-156.0","0","0","Px1eR","Scenes","","445","","","40","","119","","12","","","","","","","","","","","","","","","","-1","445","","","","","","","","","","","","","","","","","","","","","","",""
"","fixation","","html-keyboard-response","228","639722","0.0-159.0","0","0","Px1eR","Scenes","","null","","","null","","","","","","","","","","","","","","","","","","","","","","","","","","","","","","","","","","","","","","","","","","","",""
"","see_reward","","html-keyboard-response","229","640391","0.0-160.0","0","0","Px1eR","Scenes","","667","","","32","","136","","13","","","","1","","","","","1","","","","","149","667","","","","","","","","","","","","","","","","","","","","","","","","",""
"","reward_outcome","","html-keyboard-response","230","642408","0.0-161.0","0","0","Px1eR","Scenes","","475","","","38","","136","","13","","","","","","","","","","","","","","","","1","475","","","","","","","","","","","","","","","","","","","","","","",""
"","fixation","","html-keyboard-response","231","643431","0.0-164.0","0","0","Px1eR","Scenes","","null","","","null","","","","","","","","","","","","","","","","","","","","","","","","","","","","","","","","","","","","","","","","","","","",""
"","see_reward","","html-keyboard-response","232","643885","0.0-165.0","0","0","Px1eR","Scenes","","452","","","32","","137","","14","","","","1","","","","","1","","","","","150","452","","","","","","","","","","","","","","","","","","","","","","","","",""
"","reward_outcome","","html-keyboard-response","233","645901","0.0-166.0","0","0","Px1eR","Scenes","","472","","","38","","137","","14","","","","","","","","","","","","","","","","1","472","","","","","","","","","","","","","","","","","","","","","","",""
"","fixation","","html-keyboard-response","234","646911","0.0-169.0","0","0","Px1eR","Scenes","","null","","","null","","","","","","","","","","","","","","","","","","","","","","","","","","","","","","","","","","","","","","","","","","","",""
"","see_reward","","html-keyboard-response","235","647609","0.0-170.0","0","0","Px1eR","Scenes","","695","","","32","","148","","15","","","","-1","","","","","1","","","","","0","695","","","","","","","","","","","","","","","","","","","","","","","","",""
"","reward_outcome","","html-keyboard-response","236","649631","0.0-171.0","0","0","Px1eR","Scenes","","541","","","40","","148","","15","","","","","","","","","","","","","","","","-1","541","","","","","","","","","","","","","","","","","","","","","","",""
"","fixation","","html-keyboard-response","237","650647","0.0-174.0","0","0","Px1eR","Scenes","","null","","","null","","","","","","","","","","","","","","","","","","","","","","","","","","","","","","","","","","","","","","","","","","","",""
"","see_reward","","html-keyboard-response","238","651029","0.0-175.0","0","0","Px1eR","Scenes","","379","","","32","","129","","16","","","","-1","","","","","1","","","","","0","379","","","","","","","","","","","","","","","","","","","","","","","","",""
"","reward_outcome","","html-keyboard-response","239","653037","0.0-176.0","0","0","Px1eR","Scenes","","544","","","40","","129","","16","","","","","","","","","","","","","","","","-1","544","","","","","","","","","","","","","","","","","","","","","","",""
"","fixation","","html-keyboard-response","240","654043","0.0-179.0","0","0","Px1eR","Scenes","","null","","","null","","","","","","","","","","","","","","","","","","","","","","","","","","","","","","","","","","","","","","","","","","","",""
"","see_reward","","html-keyboard-response","241","654645","0.0-180.0","0","0","Px1eR","Scenes","","600","","","32","","117","","17","","","","1","","","","","1","","","","","145","600","","","","","","","","","","","","","","","","","","","","","","","","",""
"","reward_outcome","","html-keyboard-response","242","656657","0.0-181.0","0","0","Px1eR","Scenes","","583","","","38","","117","","17","","","","","","","","","","","","","","","","1","583","","","","","","","","","","","","","","","","","","","","","","",""
"","fixation","","html-keyboard-response","243","657673","0.0-184.0","0","0","Px1eR","Scenes","","null","","","null","","","","","","","","","","","","","","","","","","","","","","","","","","","","","","","","","","","","","","","","","","","",""
"","see_reward","","html-keyboard-response","244","658468","0.0-185.0","0","0","Px1eR","Scenes","","793","","","32","","148","","18","","","","-1","","","","","1","","","","","0","793","","","","","","","","","","","","","","","","","","","","","","","","",""
"","reward_outcome","","html-keyboard-response","245","660487","0.0-186.0","0","0","Px1eR","Scenes","","527","","","40","","148","","18","","","","","","","","","","","","","","","","-1","527","","","","","","","","","","","","","","","","","","","","","","",""
"","fixation","","html-keyboard-response","246","661501","0.0-189.0","0","0","Px1eR","Scenes","","null","","","null","","","","","","","","","","","","","","","","","","","","","","","","","","","","","","","","","","","","","","","","","","","",""
"","see_reward","","html-keyboard-response","247","661939","0.0-190.0","0","0","Px1eR","Scenes","","436","","","32","","138","","19","","","","-1","","","","","1","","","","","0","436","","","","","","","","","","","","","","","","","","","","","","","","",""
"","reward_outcome","","html-keyboard-response","248","663950","0.0-191.0","0","0","Px1eR","Scenes","","507","","","40","","138","","19","","","","","","","","","","","","","","","","-1","507","","","","","","","","","","","","","","","","","","","","","","",""
"","fixation","","html-keyboard-response","249","664963","0.0-194.0","0","0","Px1eR","Scenes","","null","","","null","","","","","","","","","","","","","","","","","","","","","","","","","","","","","","","","","","","","","","","","","","","",""
"","see_reward","","html-keyboard-response","250","666120","0.0-195.0","0","0","Px1eR","Scenes","","1152","","","32","","127","","20","","","","-1","","","","","1","","","","","0","1152","","","","","","","","","","","","","","","","","","","","","","","","",""
"","reward_outcome","","html-keyboard-response","251","668145","0.0-196.0","0","0","Px1eR","Scenes","","619","","","40","","127","","20","","","","","","","","","","","","","","","","-1","619","","","","","","","","","","","","","","","","","","","","","","",""
"","fixation","","html-keyboard-response","252","669167","0.0-199.0","0","0","Px1eR","Scenes","","null","","","null","","","","","","","","","","","","","","","","","","","","","","","","","","","","","","","","","","","","","","","","","","","",""
"","see_reward","","html-keyboard-response","253","669611","0.0-200.0","0","0","Px1eR","Scenes","","442","","","32","","136","","21","","","","1","","","","","1","","","","","149","442","","","","","","","","","","","","","","","","","","","","","","","","",""
"","reward_outcome","","html-keyboard-response","254","671627","0.0-201.0","0","0","Px1eR","Scenes","","449","","","38","","136","","21","","","","","","","","","","","","","","","","1","449","","","","","","","","","","","","","","","","","","","","","","",""
"","fixation","","html-keyboard-response","255","672640","0.0-204.0","0","0","Px1eR","Scenes","","null","","","null","","","","","","","","","","","","","","","","","","","","","","","","","","","","","","","","","","","","","","","","","","","",""
"","see_reward","","html-keyboard-response","256","673307","0.0-205.0","0","0","Px1eR","Scenes","","663","","","32","","117","","22","","","","1","","","","","1","","","","","145","663","","","","","","","","","","","","","","","","","","","","","","","","",""
"","reward_outcome","","html-keyboard-response","257","675316","0.0-206.0","0","0","Px1eR","Scenes","","536","","","38","","117","","22","","","","","","","","","","","","","","","","1","536","","","","","","","","","","","","","","","","","","","","","","",""
"","fixation","","html-keyboard-response","258","676326","0.0-209.0","0","0","Px1eR","Scenes","","null","","","null","","","","","","","","","","","","","","","","","","","","","","","","","","","","","","","","","","","","","","","","","","","",""
"","see_reward","","html-keyboard-response","259","676703","0.0-210.0","0","0","Px1eR","Scenes","","374","","","32","","100","","23","","","","1","","","","","1","","","","","148","374","","","","","","","","","","","","","","","","","","","","","","","","",""
"","reward_outcome","","html-keyboard-response","260","678716","0.0-211.0","0","0","Px1eR","Scenes","","788","","","38","","100","","23","","","","","","","","","","","","","","","","1","788","","","","","","","","","","","","","","","","","","","","","","",""
"","block_over","","html-keyboard-response","261","681550","0.0-213.0-0.0","0","0","Px1eR","Scenes","","2832","","","78","","","","","","","","","","","","","","","","","","","","","","","","","","","","","","","","","","","","","","","","","","","",""
"","fixation","","html-keyboard-response","262","682571","0.0-214.0","0","0","Px1eR","Scenes","","null","","","null","","","","","","","","","","","","","","","","","","","","","","","","","","","","","","","","","","","","","","","","","","","",""
"","see_reward","","html-keyboard-response","263","683263","0.0-215.0","0","0","Px1eR","Scenes","","688","","","32","","117","","24","","","","1","","","","","2","","","","","145","688","","","","","","","","","","","","","","","","","","","","","","","","",""
"","reward_outcome","","html-keyboard-response","264","685286","0.0-216.0","0","0","Px1eR","Scenes","","673","","","38","","117","","24","","","","","","","","","","","","","","","","1","673","","","","","","","","","","","","","","","","","","","","","","",""
"","fixation","","html-keyboard-response","265","686303","0.0-219.0","0","0","Px1eR","Scenes","","null","","","null","","","","","","","","","","","","","","","","","","","","","","","","","","","","","","","","","","","","","","","","","","","",""
"","see_reward","","html-keyboard-response","266","686898","0.0-220.0","0","0","Px1eR","Scenes","","592","","","32","","127","","25","","","","-1","","","","","2","","","","","0","592","","","","","","","","","","","","","","","","","","","","","","","","",""
"","reward_outcome","","html-keyboard-response","267","688918","0.0-221.0","0","0","Px1eR","Scenes","","690","","","40","","127","","25","","","","","","","","","","","","","","","","-1","690","","","","","","","","","","","","","","","","","","","","","","",""
"","fixation","","html-keyboard-response","268","689930","0.0-224.0","0","0","Px1eR","Scenes","","null","","","null","","","","","","","","","","","","","","","","","","","","","","","","","","","","","","","","","","","","","","","","","","","",""
"","see_reward","","html-keyboard-response","269","690441","0.0-225.0","0","0","Px1eR","Scenes","","509","","","32","","148","","26","","","","-1","","","","","2","","","","","0","509","","","","","","","","","","","","","","","","","","","","","","","","",""
"","reward_outcome","","html-keyboard-response","270","692462","0.0-226.0","0","0","Px1eR","Scenes","","546","","","40","","148","","26","","","","","","","","","","","","","","","","-1","546","","","","","","","","","","","","","","","","","","","","","","",""
"","fixation","","html-keyboard-response","271","693473","0.0-229.0","0","0","Px1eR","Scenes","","null","","","null","","","","","","","","","","","","","","","","","","","","","","","","","","","","","","","","","","","","","","","","","","","",""
"","see_reward","","html-keyboard-response","272","694120","0.0-230.0","0","0","Px1eR","Scenes","","644","","","32","","129","","27","","","","-1","","","","","2","","","","","0","644","","","","","","","","","","","","","","","","","","","","","","","","",""
"","reward_outcome","","html-keyboard-response","273","696130","0.0-231.0","0","0","Px1eR","Scenes","","530","","","40","","129","","27","","","","","","","","","","","","","","","","-1","530","","","","","","","","","","","","","","","","","","","","","","",""
"","fixation","","html-keyboard-response","274","697147","0.0-234.0","0","0","Px1eR","Scenes","","null","","","null","","","","","","","","","","","","","","","","","","","","","","","","","","","","","","","","","","","","","","","","","","","",""
"","see_reward","","html-keyboard-response","275","697644","0.0-235.0","0","0","Px1eR","Scenes","","494","","","32","","148","","28","","","","-1","","","","","2","","","","","0","494","","","","","","","","","","","","","","","","","","","","","","","","",""
"","reward_outcome","","html-keyboard-response","276","699659","0.0-236.0","0","0","Px1eR","Scenes","","633","","","40","","148","","28","","","","","","","","","","","","","","","","-1","633","","","","","","","","","","","","","","","","","","","","","","",""
"","fixation","","html-keyboard-response","277","700675","0.0-239.0","0","0","Px1eR","Scenes","","null","","","null","","","","","","","","","","","","","","","","","","","","","","","","","","","","","","","","","","","","","","","","","","","",""
"","see_reward","","html-keyboard-response","278","701082","0.0-240.0","0","0","Px1eR","Scenes","","404","","","32","","135","","29","","","","-1","","","","","2","","","","","0","404","","","","","","","","","","","","","","","","","","","","","","","","",""
"","reward_outcome","","html-keyboard-response","279","703090","0.0-241.0","0","0","Px1eR","Scenes","","531","","","40","","135","","29","","","","","","","","","","","","","","","","-1","531","","","","","","","","","","","","","","","","","","","","","","",""
"","fixation","","html-keyboard-response","280","704104","0.0-244.0","0","0","Px1eR","Scenes","","null","","","null","","","","","","","","","","","","","","","","","","","","","","","","","","","","","","","","","","","","","","","","","","","",""
"","see_reward","","html-keyboard-response","281","705034","0.0-245.0","0","0","Px1eR","Scenes","","927","","","32","","101","","30","","","","1","","","","","2","","","","","146","927","","","","","","","","","","","","","","","","","","","","","","","","",""
"","reward_outcome","","html-keyboard-response","282","707045","0.0-246.0","0","0","Px1eR","Scenes","","591","","","38","","101","","30","","","","","","","","","","","","","","","","1","591","","","","","","","","","","","","","","","","","","","","","","",""
"","fixation","","html-keyboard-response","283","708064","0.0-249.0","0","0","Px1eR","Scenes","","null","","","null","","","","","","","","","","","","","","","","","","","","","","","","","","","","","","","","","","","","","","","","","","","",""
"","see_reward","","html-keyboard-response","284","708609","0.0-250.0","0","0","Px1eR","Scenes","","543","","","32","","100","","31","","","","1","","","","","2","","","","","148","543","","","","","","","","","","","","","","","","","","","","","","","","",""
"","reward_outcome","","html-keyboard-response","285","710631","0.0-251.0","0","0","Px1eR","Scenes","","558","","","38","","100","","31","","","","","","","","","","","","","","","","1","558","","","","","","","","","","","","","","","","","","","","","","",""
"","fixation","","html-keyboard-response","286","711653","0.0-254.0","0","0","Px1eR","Scenes","","null","","","null","","","","","","","","","","","","","","","","","","","","","","","","","","","","","","","","","","","","","","","","","","","",""
"","see_reward","","html-keyboard-response","287","712343","0.0-255.0","0","0","Px1eR","Scenes","","687","","","32","","137","","32","","","","1","","","","","2","","","","","150","687","","","","","","","","","","","","","","","","","","","","","","","","",""
"","reward_outcome","","html-keyboard-response","288","714361","0.0-256.0","0","0","Px1eR","Scenes","","540","","","38","","137","","32","","","","","","","","","","","","","","","","1","540","","","","","","","","","","","","","","","","","","","","","","",""
"","fixation","","html-keyboard-response","289","715373","0.0-259.0","0","0","Px1eR","Scenes","","null","","","null","","","","","","","","","","","","","","","","","","","","","","","","","","","","","","","","","","","","","","","","","","","",""
"","see_reward","","html-keyboard-response","290","715709","0.0-260.0","0","0","Px1eR","Scenes","","334","","","32","","101","","33","","","","1","","","","","2","","","","","146","334","","","","","","","","","","","","","","","","","","","","","","","","",""
"","reward_outcome","","html-keyboard-response","291","717726","0.0-261.0","0","0","Px1eR","Scenes","","431","","","38","","101","","33","","","","","","","","","","","","","","","","1","431","","","","","","","","","","","","","","","","","","","","","","",""
"","fixation","","html-keyboard-response","292","718740","0.0-264.0","0","0","Px1eR","Scenes","","null","","","null","","","","","","","","","","","","","","","","","","","","","","","","","","","","","","","","","","","","","","","","","","","",""
"","see_reward","","html-keyboard-response","293","719186","0.0-265.0","0","0","Px1eR","Scenes","","443","","","32","","123","","34","","","","1","","","","","2","","","","","153","443","","","","","","","","","","","","","","","","","","","","","","","","",""
"","reward_outcome","","html-keyboard-response","294","721200","0.0-266.0","0","0","Px1eR","Scenes","","406","","","38","","123","","34","","","","","","","","","","","","","","","","1","406","","","","","","","","","","","","","","","","","","","","","","",""
"","fixation","","html-keyboard-response","295","722214","0.0-269.0","0","0","Px1eR","Scenes","","null","","","null","","","","","","","","","","","","","","","","","","","","","","","","","","","","","","","","","","","","","","","","","","","",""
"","see_reward","","html-keyboard-response","296","722701","0.0-270.0","0","0","Px1eR","Scenes","","485","","","32","","138","","35","","","","-1","","","","","2","","","","","0","485","","","","","","","","","","","","","","","","","","","","","","","","",""
"","reward_outcome","","html-keyboard-response","297","724719","0.0-271.0","0","0","Px1eR","Scenes","","478","","","40","","138","","35","","","","","","","","","","","","","","","","-1","478","","","","","","","","","","","","","","","","","","","","","","",""
"","fixation","","html-keyboard-response","298","725729","0.0-274.0","0","0","Px1eR","Scenes","","null","","","null","","","","","","","","","","","","","","","","","","","","","","","","","","","","","","","","","","","","","","","","","","","",""
"","see_reward","","html-keyboard-response","299","726232","0.0-275.0","0","0","Px1eR","Scenes","","501","","","32","","129","","36","","","","-1","","","","","2","","","","","0","501","","","","","","","","","","","","","","","","","","","","","","","","",""
"","reward_outcome","","html-keyboard-response","300","728250","0.0-276.0","0","0","Px1eR","Scenes","","513","","","40","","129","","36","","","","","","","","","","","","","","","","-1","513","","","","","","","","","","","","","","","","","","","","","","",""
"","fixation","","html-keyboard-response","301","729267","0.0-279.0","0","0","Px1eR","Scenes","","null","","","null","","","","","","","","","","","","","","","","","","","","","","","","","","","","","","","","","","","","","","","","","","","",""
"","see_reward","","html-keyboard-response","302","730317","0.0-280.0","0","0","Px1eR","Scenes","","1046","","","32","","136","","37","","","","1","","","","","2","","","","","149","1046","","","","","","","","","","","","","","","","","","","","","","","","",""
"","reward_outcome","","html-keyboard-response","303","732323","0.0-281.0","0","0","Px1eR","Scenes","","508","","","38","","136","","37","","","","","","","","","","","","","","","","1","508","","","","","","","","","","","","","","","","","","","","","","",""
"","fixation","","html-keyboard-response","304","733334","0.0-284.0","0","0","Px1eR","Scenes","","null","","","null","","","","","","","","","","","","","","","","","","","","","","","","","","","","","","","","","","","","","","","","","","","",""
"","see_reward","","html-keyboard-response","305","734192","0.0-285.0","0","0","Px1eR","Scenes","","855","","","32","","123","","38","","","","1","","","","","2","","","","","153","855","","","","","","","","","","","","","","","","","","","","","","","","",""
"","reward_outcome","","html-keyboard-response","306","736200","0.0-286.0","0","0","Px1eR","Scenes","","456","","","38","","123","","38","","","","","","","","","","","","","","","","1","456","","","","","","","","","","","","","","","","","","","","","","",""
"","fixation","","html-keyboard-response","307","737211","0.0-289.0","0","0","Px1eR","Scenes","","null","","","null","","","","","","","","","","","","","","","","","","","","","","","","","","","","","","","","","","","","","","","","","","","",""
"","see_reward","","html-keyboard-response","308","737819","0.0-290.0","0","0","Px1eR","Scenes","","605","","","32","","136","","39","","","","1","","","","","2","","","","","149","605","","","","","","","","","","","","","","","","","","","","","","","","",""
"","reward_outcome","","html-keyboard-response","309","739827","0.0-291.0","0","0","Px1eR","Scenes","","452","","","38","","136","","39","","","","","","","","","","","","","","","","1","452","","","","","","","","","","","","","","","","","","","","","","",""
"","fixation","","html-keyboard-response","310","740838","0.0-294.0","0","0","Px1eR","Scenes","","null","","","null","","","","","","","","","","","","","","","","","","","","","","","","","","","","","","","","","","","","","","","","","","","",""
"","see_reward","","html-keyboard-response","311","741306","0.0-295.0","0","0","Px1eR","Scenes","","465","","","32","","100","","40","","","","1","","","","","2","","","","","148","465","","","","","","","","","","","","","","","","","","","","","","","","",""
"","reward_outcome","","html-keyboard-response","312","743325","0.0-296.0","0","0","Px1eR","Scenes","","421","","","38","","100","","40","","","","","","","","","","","","","","","","1","421","","","","","","","","","","","","","","","","","","","","","","",""
"","fixation","","html-keyboard-response","313","744340","0.0-299.0","0","0","Px1eR","Scenes","","null","","","null","","","","","","","","","","","","","","","","","","","","","","","","","","","","","","","","","","","","","","","","","","","",""
"","see_reward","","html-keyboard-response","314","745033","0.0-300.0","0","0","Px1eR","Scenes","","691","","","32","","137","","41","","","","1","","","","","2","","","","","150","691","","","","","","","","","","","","","","","","","","","","","","","","",""
"","reward_outcome","","html-keyboard-response","315","747054","0.0-301.0","0","0","Px1eR","Scenes","","464","","","38","","137","","41","","","","","","","","","","","","","","","","1","464","","","","","","","","","","","","","","","","","","","","","","",""
"","fixation","","html-keyboard-response","316","748057","0.0-304.0","0","0","Px1eR","Scenes","","null","","","null","","","","","","","","","","","","","","","","","","","","","","","","","","","","","","","","","","","","","","","","","","","",""
"","see_reward","","html-keyboard-response","317","748581","0.0-305.0","0","0","Px1eR","Scenes","","522","","","32","","119","","42","","","","-1","","","","","2","","","","","0","522","","","","","","","","","","","","","","","","","","","","","","","","",""
"","reward_outcome","","html-keyboard-response","318","750599","0.0-306.0","0","0","Px1eR","Scenes","","444","","","40","","119","","42","","","","","","","","","","","","","","","","-1","444","","","","","","","","","","","","","","","","","","","","","","",""
"","fixation","","html-keyboard-response","319","751614","0.0-309.0","0","0","Px1eR","Scenes","","null","","","null","","","","","","","","","","","","","","","","","","","","","","","","","","","","","","","","","","","","","","","","","","","",""
"","see_reward","","html-keyboard-response","320","752210","0.0-310.0","0","0","Px1eR","Scenes","","593","","","32","","127","","43","","","","-1","","","","","2","","","","","0","593","","","","","","","","","","","","","","","","","","","","","","","","",""
"","reward_outcome","","html-keyboard-response","321","754217","0.0-311.0","0","0","Px1eR","Scenes","","641","","","40","","127","","43","","","","","","","","","","","","","","","","-1","641","","","","","","","","","","","","","","","","","","","","","","",""
"","fixation","","html-keyboard-response","322","755233","0.0-314.0","0","0","Px1eR","Scenes","","null","","","null","","","","","","","","","","","","","","","","","","","","","","","","","","","","","","","","","","","","","","","","","","","",""
"","see_reward","","html-keyboard-response","323","755799","0.0-315.0","0","0","Px1eR","Scenes","","564","","","32","","138","","44","","","","-1","","","","","2","","","","","0","564","","","","","","","","","","","","","","","","","","","","","","","","",""
"","reward_outcome","","html-keyboard-response","324","757820","0.0-316.0","0","0","Px1eR","Scenes","","496","","","40","","138","","44","","","","","","","","","","","","","","","","-1","496","","","","","","","","","","","","","","","","","","","","","","",""
"","fixation","","html-keyboard-response","325","758836","0.0-319.0","0","0","Px1eR","Scenes","","null","","","null","","","","","","","","","","","","","","","","","","","","","","","","","","","","","","","","","","","","","","","","","","","",""
"","see_reward","","html-keyboard-response","326","759491","0.0-320.0","0","0","Px1eR","Scenes","","653","","","32","","135","","45","","","","-1","","","","","2","","","","","0","653","","","","","","","","","","","","","","","","","","","","","","","","",""
"","reward_outcome","","html-keyboard-response","327","761508","0.0-321.0","0","0","Px1eR","Scenes","","497","","","40","","135","","45","","","","","","","","","","","","","","","","-1","497","","","","","","","","","","","","","","","","","","","","","","",""
"","fixation","","html-keyboard-response","328","762522","0.0-324.0","0","0","Px1eR","Scenes","","null","","","null","","","","","","","","","","","","","","","","","","","","","","","","","","","","","","","","","","","","","","","","","","","",""
"","see_reward","","html-keyboard-response","329","763135","0.0-325.0","0","0","Px1eR","Scenes","","609","","","32","","117","","46","","","","1","","","","","2","","","","","145","609","","","","","","","","","","","","","","","","","","","","","","","","",""
"","reward_outcome","","html-keyboard-response","330","765150","0.0-326.0","0","0","Px1eR","Scenes","","470","","","38","","117","","46","","","","","","","","","","","","","","","","1","470","","","","","","","","","","","","","","","","","","","","","","",""
"","fixation","","html-keyboard-response","331","766170","0.0-329.0","0","0","Px1eR","Scenes","","null","","","null","","","","","","","","","","","","","","","","","","","","","","","","","","","","","","","","","","","","","","","","","","","",""
"","see_reward","","html-keyboard-response","332","766617","0.0-330.0","0","0","Px1eR","Scenes","","445","","","32","","119","","47","","","","-1","","","","","2","","","","","0","445","","","","","","","","","","","","","","","","","","","","","","","","",""
"","reward_outcome","","html-keyboard-response","333","768639","0.0-331.0","0","0","Px1eR","Scenes","","468","","","40","","119","","47","","","","","","","","","","","","","","","","-1","468","","","","","","","","","","","","","","","","","","","","","","",""
"","block_over","","html-keyboard-response","334","772906","0.0-333.0-0.0","0","0","Px1eR","Scenes","","4266","","","78","","","","","","","","","","","","","","","","","","","","","","","","","","","","","","","","","","","","","","","","","","","",""
"","fixation","","html-keyboard-response","335","773917","0.0-334.0","0","0","Px1eR","Scenes","","null","","","null","","","","","","","","","","","","","","","","","","","","","","","","","","","","","","","","","","","","","","","","","","","",""
"","see_reward","","html-keyboard-response","336","774533","0.0-335.0","0","0","Px1eR","Scenes","","613","","","32","","123","","48","","","","1","","","","","3","","","","","153","613","","","","","","","","","","","","","","","","","","","","","","","","",""
"","reward_outcome","","html-keyboard-response","337","776549","0.0-336.0","0","0","Px1eR","Scenes","","436","","","38","","123","","48","","","","","","","","","","","","","","","","1","436","","","","","","","","","","","","","","","","","","","","","","",""
"","fixation","","html-keyboard-response","338","777567","0.0-339.0","0","0","Px1eR","Scenes","","null","","","null","","","","","","","","","","","","","","","","","","","","","","","","","","","","","","","","","","","","","","","","","","","",""
"","see_reward","","html-keyboard-response","339","778348","0.0-340.0","0","0","Px1eR","Scenes","","779","","","32","","119","","49","","","","-1","","","","","3","","","","","0","779","","","","","","","","","","","","","","","","","","","","","","","","",""
"","reward_outcome","","html-keyboard-response","340","780357","0.0-341.0","0","0","Px1eR","Scenes","","480","","","40","","119","","49","","","","","","","","","","","","","","","","-1","480","","","","","","","","","","","","","","","","","","","","","","",""
"","fixation","","html-keyboard-response","341","781371","0.0-344.0","0","0","Px1eR","Scenes","","null","","","null","","","","","","","","","","","","","","","","","","","","","","","","","","","","","","","","","","","","","","","","","","","",""
"","see_reward","","html-keyboard-response","342","781968","0.0-345.0","0","0","Px1eR","Scenes","","594","","","32","","100","","50","","","","1","","","","","3","","","","","148","594","","","","","","","","","","","","","","","","","","","","","","","","",""
"","reward_outcome","","html-keyboard-response","343","783986","0.0-346.0","0","0","Px1eR","Scenes","","447","","","38","","100","","50","","","","","","","","","","","","","","","","1","447","","","","","","","","","","","","","","","","","","","","","","",""
"","fixation","","html-keyboard-response","344","784997","0.0-349.0","0","0","Px1eR","Scenes","","null","","","null","","","","","","","","","","","","","","","","","","","","","","","","","","","","","","","","","","","","","","","","","","","",""
"","see_reward","","html-keyboard-response","345","785515","0.0-350.0","0","0","Px1eR","Scenes","","516","","","32","","148","","51","","","","-1","","","","","3","","","","","0","516","","","","","","","","","","","","","","","","","","","","","","","","",""
"","reward_outcome","","html-keyboard-response","346","787535","0.0-351.0","0","0","Px1eR","Scenes","","454","","","40","","148","","51","","","","","","","","","","","","","","","","-1","454","","","","","","","","","","","","","","","","","","","","","","",""
"","fixation","","html-keyboard-response","347","788550","0.0-354.0","0","0","Px1eR","Scenes","","null","","","null","","","","","","","","","","","","","","","","","","","","","","","","","","","","","","","","","","","","","","","","","","","",""
"","see_reward","","html-keyboard-response","348","789039","0.0-355.0","0","0","Px1eR","Scenes","","487","","","32","","100","","52","","","","1","","","","","3","","","","","148","487","","","","","","","","","","","","","","","","","","","","","","","","",""
"","reward_outcome","","html-keyboard-response","349","791060","0.0-356.0","0","0","Px1eR","Scenes","","497","","","38","","100","","52","","","","","","","","","","","","","","","","1","497","","","","","","","","","","","","","","","","","","","","","","",""
"","fixation","","html-keyboard-response","350","792076","0.0-359.0","0","0","Px1eR","Scenes","","null","","","null","","","","","","","","","","","","","","","","","","","","","","","","","","","","","","","","","","","","","","","","","","","",""
"","see_reward","","html-keyboard-response","351","793016","0.0-360.0","0","0","Px1eR","Scenes","","938","","","32","","101","","53","","","","1","","","","","3","","","","","146","938","","","","","","","","","","","","","","","","","","","","","","","","",""
"","reward_outcome","","html-keyboard-response","352","795038","0.0-361.0","0","0","Px1eR","Scenes","","488","","","38","","101","","53","","","","","","","","","","","","","","","","1","488","","","","","","","","","","","","","","","","","","","","","","",""
