"success","ttype","start_time","trial_type","trial_index","time_elapsed","internal_node_id","warning","missed_checkup","PID","stim_type","view_history","rt","responses","category","repeat_instructions","key_press","response","stimulus_id","painting","index","stimulus_left","stimulus_right","explain_trial","reward_type","rating_left","rating_right","painting_left","painting_right","block","left_chosen","chosen_obj","unchosen_obj","explain_response","reward_amount","see_reward_rt","register_reward_response","register_reward_rt","deliberation_reward_tally","stimulus_left_deliberation_ind","stimulus_right_deliberation_ind","chosen_trial","gain_left","higher_outcome_chosen","old_pair","chosen_object","rt_pairs","left_object_chosen","rt_object","old_response","new_rating","deliberated_stim","initial_rating","outcome_eval_rt","outcome_eval_response","outcome_eval_gain","outcome_eval_acc","preamble","outcome_eval_confidence","outcome_eval_confidence_rt","total_reward_tally"
"true","full_screen","d01182023hr1619","fullscreen","0","3493","0.0-0.0","0","0","Xcmcr","People","","","","","","","","","","","","","","","","","","","","","","","","","","","","","","","","","","","","","","","","","","","","","","","","","",""
"","rating_instructions","","instructions","1","12840","0.0-1.0-0.0","0","0","Xcmcr","People","[{""page_index"":0,""viewing_time"":6692},{""page_index"":1,""viewing_time"":2643}]","9336","","","","","","","","","","","","","","","","","","","","","","","","","","","","","","","","","","","","","","","","","","","","","","","",""
"","","","survey-multi-choice","2","25745","0.0-1.0-1.0","0","0","Xcmcr","People","","12893","{""Q0"":""True"",""Q1"":""Mouse""}","rating_comprehension_check","0","","","","","","","","","","","","","","","","","","","","","","","","","","","","","","","","","","","","","","","","","","","","",""
"","start_phase","","html-keyboard-response","3","29211","0.0-2.0","0","0","Xcmcr","People","","3457","","","","78","","","","","","","","","","","","","","","","","","","","","","","","","","","","","","","","","","","","","","","","","","","",""
"","rating","","html-slider-response","4","34528","0.0-3.0","0","0","Xcmcr","People","","5292","","","","","75","24","joel-mott-LaK153ghdig-unsplash.jpg","0","","","","","","","","","","","","","","","","","","","","","","","","","","","","","","","","","","","","","","","",""
"","rating","","html-slider-response","5","40363","0.0-4.0","0","0","Xcmcr","People","","5798","","","","","23","20","houcine-ncib-B4TjXnI0Y2c-unsplash.jpg","1","","","","","","","","","","","","","","","","","","","","","","","","","","","","","","","","","","","","","","","",""
"","rating","","html-slider-response","6","45181","0.0-5.0","0","0","Xcmcr","People","","4813","","","","","0","2","arjunsyah-TBUA5KHJn6k-unsplash.jpg","2","","","","","","","","","","","","","","","","","","","","","","","","","","","","","","","","","","","","","","","",""
"","rating","","html-slider-response","7","60883","0.0-6.0","0","0","Xcmcr","People","","15695","","","","","92","9","carlos-andres-gomez-vJuk8Y86mRw-unsplash.jpg","3","","","","","","","","","","","","","","","","","","","","","","","","","","","","","","","","","","","","","","","",""
"","rating","","html-slider-response","8","65147","0.0-7.0","0","0","Xcmcr","People","","4245","","","","","88","30","matheus-ferrero-pg_WCHWSdT8-unsplash.jpg","4","","","","","","","","","","","","","","","","","","","","","","","","","","","","","","","","","","","","","","","",""
"","rating","","html-slider-response","9","68368","0.0-8.0","0","0","Xcmcr","People","","3212","","","","","96","5","batel-studio-ttSRjiYG_WM-unsplash.jpg","5","","","","","","","","","","","","","","","","","","","","","","","","","","","","","","","","","","","","","","","",""
"","rating","","html-slider-response","10","71125","0.0-9.0","0","0","Xcmcr","People","","2748","","","","","24","22","jessica-radanavong-mrYkTuAesKE-unsplash.jpg","6","","","","","","","","","","","","","","","","","","","","","","","","","","","","","","","","","","","","","","","",""
"","rating","","html-slider-response","11","74442","0.0-10.0","0","0","Xcmcr","People","","3312","","","","","91","25","joseph-gonzalez-iFgRcqHznqg-unsplash.jpg","7","","","","","","","","","","","","","","","","","","","","","","","","","","","","","","","","","","","","","","","",""
"","rating","","html-slider-response","12","77705","0.0-11.0","0","0","Xcmcr","People","","3255","","","","","76","3","art-hauntington-jzY0KRJopEI-unsplash.jpg","8","","","","","","","","","","","","","","","","","","","","","","","","","","","","","","","","","","","","","","","",""
"","rating","","html-slider-response","13","80724","0.0-12.0","0","0","Xcmcr","People","","3012","","","","","19","0","abstral-official-cyOKLSgkgCE-unsplash.jpg","9","","","","","","","","","","","","","","","","","","","","","","","","","","","","","","","","","","","","","","","",""
"","rating","","html-slider-response","14","83483","0.0-13.0","0","0","Xcmcr","People","","2753","","","","","87","35","oliver-ragfelt-khV4fTy6-D8-unsplash.jpg","10","","","","","","","","","","","","","","","","","","","","","","","","","","","","","","","","","","","","","","","",""
"","rating","","html-slider-response","15","87184","0.0-14.0","0","0","Xcmcr","People","","3693","","","","","73","11","christian-ferrer-8vT-DgHZDG4-unsplash.jpg","11","","","","","","","","","","","","","","","","","","","","","","","","","","","","","","","","","","","","","","","",""
"","rating","","html-slider-response","16","90643","0.0-15.0","0","0","Xcmcr","People","","3451","","","","","90","23","joanna-nix-walkup-H4fEMshfwTE-unsplash.jpg","12","","","","","","","","","","","","","","","","","","","","","","","","","","","","","","","","","","","","","","","",""
"","rating","","html-slider-response","17","93966","0.0-16.0","0","0","Xcmcr","People","","3315","","","","","18","12","daniel-rigdon-dXmXKPP2L4E-unsplash.jpg","13","","","","","","","","","","","","","","","","","","","","","","","","","","","","","","","","","","","","","","","",""
"","rating","","html-slider-response","18","97997","0.0-17.0","0","0","Xcmcr","People","","4023","","","","","26","10","charles-etoroma-95UF6LXe-Lo-unsplash.jpg","14","","","","","","","","","","","","","","","","","","","","","","","","","","","","","","","","","","","","","","","",""
"","rating","","html-slider-response","19","100886","0.0-18.0","0","0","Xcmcr","People","","2880","","","","","12","29","leilani-angel-K84vnnzxmTQ-unsplash.jpg","15","","","","","","","","","","","","","","","","","","","","","","","","","","","","","","","","","","","","","","","",""
"","rating","","html-slider-response","20","104990","0.0-19.0","0","0","Xcmcr","People","","4096","","","","","84","41","prince-akachi-i2hoD-C2RUA-unsplash.jpg","16","","","","","","","","","","","","","","","","","","","","","","","","","","","","","","","","","","","","","","","",""
"","rating","","html-slider-response","21","109828","0.0-20.0","0","0","Xcmcr","People","","4826","","","","","27","40","prince-akachi-4Yv84VgQkRM-unsplash.jpg","17","","","","","","","","","","","","","","","","","","","","","","","","","","","","","","","","","","","","","","","",""
"","rating","","html-slider-response","22","115616","0.0-21.0","0","0","Xcmcr","People","","5778","","","","","17","42","prince-akachi-l3IHXOdMyHQ-unsplash.jpg","18","","","","","","","","","","","","","","","","","","","","","","","","","","","","","","","","","","","","","","","",""
"","rating","","html-slider-response","23","119559","0.0-22.0","0","0","Xcmcr","People","","3933","","","","","10","16","giano-currie-5-9YOsmf8IQ-unsplash.jpg","19","","","","","","","","","","","","","","","","","","","","","","","","","","","","","","","","","","","","","","","",""
"","rating","","html-slider-response","24","123451","0.0-23.0","0","0","Xcmcr","People","","3875","","","","","5","37","pavel-anoshin-d0peGya6R5Y-unsplash.jpg","20","","","","","","","","","","","","","","","","","","","","","","","","","","","","","","","","","","","","","","","",""
"","rating","","html-slider-response","25","137811","0.0-24.0","0","0","Xcmcr","People","","14352","","","","","79","46","stefan-stefancik-QXevDflbl8A-unsplash.jpg","21","","","","","","","","","","","","","","","","","","","","","","","","","","","","","","","","","","","","","","","",""
"","rating","","html-slider-response","26","218277","0.0-25.0","0","0","Xcmcr","People","","80455","","","","","69","1","aiony-haust-jmATI5Q_YgY-unsplash.jpg","22","","","","","","","","","","","","","","","","","","","","","","","","","","","","","","","","","","","","","","","",""
"","rating","","html-slider-response","27","296427","0.0-26.0","0","0","Xcmcr","People","","78139","","","","","84","44","rikonavt-HQjfrvdTfak-unsplash.jpg","23","","","","","","","","","","","","","","","","","","","","","","","","","","","","","","","","","","","","","","","",""
"","rating","","html-slider-response","28","301795","0.0-27.0","0","0","Xcmcr","People","","5359","","","","","70","38","petr-sevcovic-HzDF-rxlSeM-unsplash.jpg","24","","","","","","","","","","","","","","","","","","","","","","","","","","","","","","","","","","","","","","","",""
"","rating","","html-slider-response","29","308866","0.0-28.0","0","0","Xcmcr","People","","7061","","","","","21","14","freddy-kearney-o-ioeoATbIM-unsplash.jpg","25","","","","","","","","","","","","","","","","","","","","","","","","","","","","","","","","","","","","","","","",""
"","rating","","html-slider-response","30","312975","0.0-29.0","0","0","Xcmcr","People","","4097","","","","","68","27","jurica-koletic-7YVZYZeITc8-unsplash.jpg","26","","","","","","","","","","","","","","","","","","","","","","","","","","","","","","","","","","","","","","","",""
"","rating","","html-slider-response","31","317361","0.0-30.0","0","0","Xcmcr","People","","4380","","","","","87","19","ha-nguy-n-OFSQ6bHjFjs-unsplash.jpg","27","","","","","","","","","","","","","","","","","","","","","","","","","","","","","","","","","","","","","","","",""
"","rating","","html-slider-response","32","320891","0.0-31.0","0","0","Xcmcr","People","","3521","","","","","78","4","barna-bartis-2x3vfVxwR7o-unsplash.jpg","28","","","","","","","","","","","","","","","","","","","","","","","","","","","","","","","","","","","","","","","",""
"","rating","","html-slider-response","33","326696","0.0-32.0","0","0","Xcmcr","People","","5796","","","","","90","39","philip-martin-5aGUyCW_PJw-unsplash.jpg","29","","","","","","","","","","","","","","","","","","","","","","","","","","","","","","","","","","","","","","","",""
"","rating","","html-slider-response","34","330165","0.0-33.0","0","0","Xcmcr","People","","3446","","","","","88","28","justin-chen-J7Cf1Gch49E-unsplash.jpg","30","","","","","","","","","","","","","","","","","","","","","","","","","","","","","","","","","","","","","","","",""
"","rating","","html-slider-response","35","334826","0.0-34.0","0","0","Xcmcr","People","","4649","","","","","89","31","mathilda-khoo-vLR0YP_otCo-unsplash.jpg","31","","","","","","","","","","","","","","","","","","","","","","","","","","","","","","","","","","","","","","","",""
"","rating","","html-slider-response","36","339343","0.0-35.0","0","0","Xcmcr","People","","4507","","","","","96","48","velizar-ivanov-7ktP9yZA1g4-unsplash.jpg","32","","","","","","","","","","","","","","","","","","","","","","","","","","","","","","","","","","","","","","","",""
"","rating","","html-slider-response","37","342645","0.0-36.0","0","0","Xcmcr","People","","3293","","","","","94","47","tyler-nix-ZGa9d1a_4tA-unsplash.jpg","33","","","","","","","","","","","","","","","","","","","","","","","","","","","","","","","","","","","","","","","",""
"","rating","","html-slider-response","38","347861","0.0-37.0","0","0","Xcmcr","People","","5211","","","","","87","7","brooke-cagle-HRZUzoX1e6w-unsplash.jpg","34","","","","","","","","","","","","","","","","","","","","","","","","","","","","","","","","","","","","","","","",""
"","rating","","html-slider-response","39","352086","0.0-38.0","0","0","Xcmcr","People","","4216","","","","","92","33","olena-sergienko-0TSd6uCKTKc-unsplash.jpg","35","","","","","","","","","","","","","","","","","","","","","","","","","","","","","","","","","","","","","","","",""
"","rating","","html-slider-response","40","355483","0.0-39.0","0","0","Xcmcr","People","","3388","","","","","90","43","raamin-ka-0qJBEzudn5E-unsplash.jpg","36","","","","","","","","","","","","","","","","","","","","","","","","","","","","","","","","","","","","","","","",""
"","rating","","html-slider-response","41","363101","0.0-40.0","0","0","Xcmcr","People","","7608","","","","","86","8","bruce-dixon-3M9WJQVHzog-unsplash.jpg","37","","","","","","","","","","","","","","","","","","","","","","","","","","","","","","","","","","","","","","","",""
"","rating","","html-slider-response","42","371269","0.0-41.0","0","0","Xcmcr","People","","8156","","","","","18","32","nathan-dumlao-ger61_TX6oI-unsplash.jpg","38","","","","","","","","","","","","","","","","","","","","","","","","","","","","","","","","","","","","","","","",""
"","rating","","html-slider-response","43","375828","0.0-42.0","0","0","Xcmcr","People","","4550","","","","","24","15","gabriel-silverio-u3WmDyKGsrY-unsplash.jpg","39","","","","","","","","","","","","","","","","","","","","","","","","","","","","","","","","","","","","","","","",""
"","rating","","html-slider-response","44","385370","0.0-43.0","0","0","Xcmcr","People","","9530","","","","","16","13","erik-lucatero-d2MSDujJl2g-unsplash.jpg","40","","","","","","","","","","","","","","","","","","","","","","","","","","","","","","","","","","","","","","","",""
"","rating","","html-slider-response","45","393022","0.0-44.0","0","0","Xcmcr","People","","7639","","","","","18","26","juri-gianfrancesco-9EZadYaMzk4-unsplash.jpg","41","","","","","","","","","","","","","","","","","","","","","","","","","","","","","","","","","","","","","","","",""
"","rating","","html-slider-response","46","398989","0.0-45.0","0","0","Xcmcr","People","","5955","","","","","98","45","sarah-noltner-pL5ZzPp1zqg-unsplash.jpg","42","","","","","","","","","","","","","","","","","","","","","","","","","","","","","","","","","","","","","","","",""
"","rating","","html-slider-response","47","406659","0.0-46.0","0","0","Xcmcr","People","","7666","","","","","1","21","jessica-felicio-_cvwXhGqG-o-unsplash.jpg","43","","","","","","","","","","","","","","","","","","","","","","","","","","","","","","","","","","","","","","","",""
"","rating","","html-slider-response","48","421736","0.0-47.0","0","0","Xcmcr","People","","15062","","","","","85","6","ben-o-bro-C5XyLljkMrY-unsplash.jpg","44","","","","","","","","","","","","","","","","","","","","","","","","","","","","","","","","","","","","","","","",""
"","rating","","html-slider-response","49","430643","0.0-48.0","0","0","Xcmcr","People","","8898","","","","","88","34","oliver-johnson-1TUIcKob7Zs-unsplash.jpg","45","","","","","","","","","","","","","","","","","","","","","","","","","","","","","","","","","","","","","","","",""
"","rating","","html-slider-response","50","436724","0.0-49.0","0","0","Xcmcr","People","","6075","","","","","98","18","good-faces-xmSWVeGEnJw-unsplash.jpg","46","","","","","","","","","","","","","","","","","","","","","","","","","","","","","","","","","","","","","","","",""
"","rating","","html-slider-response","51","464244","0.0-50.0","0","0","Xcmcr","People","","27513","","","","","86","49","vicky-hladynets-_gDoyVv5F4c-unsplash.jpg","47","","","","","","","","","","","","","","","","","","","","","","","","","","","","","","","","","","","","","","","",""
"","rating","","html-slider-response","52","469809","0.0-51.0","0","0","Xcmcr","People","","5553","","","","","98","17","gleb-lukomets-paBzWCPN23k-unsplash.jpg","48","","","","","","","","","","","","","","","","","","","","","","","","","","","","","","","","","","","","","","","",""
"","rating","","html-slider-response","53","474142","0.0-52.0","0","0","Xcmcr","People","","4325","","","","","96","36","ospan-ali-mGdA2fzjWLo-unsplash.jpg","49","","","","","","","","","","","","","","","","","","","","","","","","","","","","","","","","","","","","","","","",""
"","deliberation_instructions","","instructions","54","513982","0.0-53.0-0.0","0","0","Xcmcr","People","[{""page_index"":0,""viewing_time"":17333},{""page_index"":1,""viewing_time"":6618},{""page_index"":2,""viewing_time"":3605},{""page_index"":3,""viewing_time"":9923},{""page_index"":4,""viewing_time"":2350}]","39830","","","","","","","","","","","","","","","","","","","","","","","","","","","","","","","","","","","","","","","","","","","","","","","",""
"","","","survey-multi-choice","55","564710","0.0-53.0-1.0","0","0","Xcmcr","People","","50709","{""Q0"":""True"",""Q1"":""True"",""Q2"":""Do it as quickly as possible"",""Q3"":""False"",""Q4"":""K""}","deliberation_comprehension_check","1","","","","","","","","","","","","","","","","","","","","","","","","","","","","","","","","","","","","","","","","","","","","",""
"","missed_instruction_checkup","","html-keyboard-response","56","569568","0.0-53.0-2.0-0.0","0","1","Xcmcr","People","","4848","","","","78","","","","","","","","","","","","","","","","","","","","","","","","","","","","","","","","","","","","","","","","","","","",""
"","deliberation_instructions","","instructions","57","674503","0.0-53.1-0.1","0","0","Xcmcr","People","[{""page_index"":0,""viewing_time"":23269},{""page_index"":1,""viewing_time"":57520},{""page_index"":2,""viewing_time"":7859},{""page_index"":3,""viewing_time"":14039},{""page_index"":4,""viewing_time"":2240}]","104928","","","","","","","","","","","","","","","","","","","","","","","","","","","","","","","","","","","","","","","","","","","","","","","",""
"","","","survey-multi-choice","58","742864","0.0-53.1-1.1","0","0","Xcmcr","People","","68346","{""Q0"":""True"",""Q1"":""True"",""Q2"":""Consider carefully and take your time (up to 10 seconds)"",""Q3"":""True"",""Q4"":""K""}","deliberation_comprehension_check","1","","","","","","","","","","","","","","","","","","","","","","","","","","","","","","","","","","","","","","","","","","","","",""
"","missed_instruction_checkup","","html-keyboard-response","59","746150","0.0-53.1-2.1-0.1","0","1","Xcmcr","People","","3282","","","","78","","","","","","","","","","","","","","","","","","","","","","","","","","","","","","","","","","","","","","","","","","","",""
"","deliberation_instructions","","instructions","60","763437","0.0-53.2-0.2","0","0","Xcmcr","People","[{""page_index"":0,""viewing_time"":5755},{""page_index"":1,""viewing_time"":3179},{""page_index"":2,""viewing_time"":1071},{""page_index"":3,""viewing_time"":5822},{""page_index"":4,""viewing_time"":1454}]","17282","","","","","","","","","","","","","","","","","","","","","","","","","","","","","","","","","","","","","","","","","","","","","","","",""
"","","","survey-multi-choice","61","780710","0.0-53.2-1.2","0","0","Xcmcr","People","","17256","{""Q0"":""True"",""Q1"":""True"",""Q2"":""Consider carefully and take your time (up to 10 seconds)"",""Q3"":""True"",""Q4"":""D""}","deliberation_comprehension_check","0","","","","","","","","","","","","","","","","","","","","","","","","","","","","","","","","","","","","","","","","","","","","",""
"","start_phase","","html-keyboard-response","62","785632","0.0-54.0","0","0","Xcmcr","People","","4915","","","","78","","","","","","","","","","","","","","","","","","","","","","","","","","","","","","","","","","","","","","","","","","","",""
"","first_deliberation_block","","html-keyboard-response","63","796875","0.0-55.0","0","0","Xcmcr","People","","11223","","","","78","","","","","","","","","","","","","","","","","","","","","","","","","","","","","","","","","","","","","","","","","","","",""
"","fixation","","html-keyboard-response","64","797964","0.0-56.0-0.0","0","0","Xcmcr","People","","null","","","","null","","","","","","","","","","","","","","","","","","","","","","","","","","","","","","","","","","","","","","","","","","","",""
"","deliberation","","html-keyboard-response","65","804927","0.0-56.0-1.0","0","0","Xcmcr","People","","6954","","","","75","","","","0","27","10","0","-1","68","26","jurica-koletic-7YVZYZeITc8-unsplash.jpg","charles-etoroma-95UF6LXe-Lo-unsplash.jpg","1","0","10","27","","","","","","","","","","","","","","","","","","","","","","","","","","","",""
"","choice_confirmation","","html-keyboard-response","66","805443","0.0-56.0-2.0-0.0","0","0","Xcmcr","People","","null","","","","null","","","","0","27","10","","","","","","","","","","","","","","","","","","","","","","","","","","","","","","","","","","","","","",""
"","fixation","","html-keyboard-response","67","806449","0.0-57.0-0.0","0","0","Xcmcr","People","","null","","","","null","","","","","","","","","","","","","","","","","","","","","","","","","","","","","","","","","","","","","","","","","","","",""
"","deliberation","","html-keyboard-response","68","808360","0.0-57.0-1.0","0","0","Xcmcr","People","","1905","","","","68","","","","1","1","4","0","1","69","78","aiony-haust-jmATI5Q_YgY-unsplash.jpg","barna-bartis-2x3vfVxwR7o-unsplash.jpg","1","1","1","4","","","","","","","","","","","","","","","","","","","","","","","","","","","",""
"","choice_confirmation","","html-keyboard-response","69","808865","0.0-57.0-2.0-0.0","0","0","Xcmcr","People","","null","","","","null","","","","1","1","4","","","","","","","","","","","","","","","","","","","","","","","","","","","","","","","","","","","","","",""
"","fixation","","html-keyboard-response","70","809875","0.0-58.0-0.0","0","0","Xcmcr","People","","null","","","","null","","","","","","","","","","","","","","","","","","","","","","","","","","","","","","","","","","","","","","","","","","","",""
"","deliberation","","html-keyboard-response","71","810912","0.0-58.0-1.0","0","0","Xcmcr","People","","1034","","","","75","","","","2","22","15","0","-1","24","24","jessica-radanavong-mrYkTuAesKE-unsplash.jpg","gabriel-silverio-u3WmDyKGsrY-unsplash.jpg","1","0","15","22","","","","","","","","","","","","","","","","","","","","","","","","","","","",""
"","choice_confirmation","","html-keyboard-response","72","811418","0.0-58.0-2.0-0.0","0","0","Xcmcr","People","","null","","","","null","","","","2","22","15","","","","","","","","","","","","","","","","","","","","","","","","","","","","","","","","","","","","","",""
"","fixation","","html-keyboard-response","73","812438","0.0-59.0-0.0","0","0","Xcmcr","People","","null","","","","null","","","","","","","","","","","","","","","","","","","","","","","","","","","","","","","","","","","","","","","","","","","",""
"","deliberation","","html-keyboard-response","74","813129","0.0-59.0-1.0","0","0","Xcmcr","People","","687","","","","68","","","","3","7","41","1","-1","87","84","brooke-cagle-HRZUzoX1e6w-unsplash.jpg","prince-akachi-i2hoD-C2RUA-unsplash.jpg","1","1","7","41","","","","","","","","","","","","","","","","","","","","","","","","","","","",""
"","choice_confirmation","","html-keyboard-response","75","813641","0.0-59.0-2.0-0.0","0","0","Xcmcr","People","","null","","","","null","","","","3","7","41","","","","","","","","","","","","","","","","","","","","","","","","","","","","","","","","","","","","","",""
"","explain_trial","","survey-text","76","829666","0.0-59.0-5.0-0.0","0","0","Xcmcr","People","","16012","{""Q0"":""very clear""}","","","","","","","3","7","41","","","","","","","","","","","{""Q0"":""very clear""}","","","","","","","","","","","","","","","","","","","","","","","","","","",""
"","fixation","","html-keyboard-response","77","830673","0.0-60.0-0.0","0","0","Xcmcr","People","","null","","","","null","","","","","","","","","","","","","","","","","","","","","","","","","","","","","","","","","","","","","","","","","","","",""
"","deliberation","","html-keyboard-response","78","834524","0.0-60.0-1.0","0","0","Xcmcr","People","","3846","","","","75","","","","4","34","49","1","1","88","86","oliver-johnson-1TUIcKob7Zs-unsplash.jpg","vicky-hladynets-_gDoyVv5F4c-unsplash.jpg","1","0","49","34","","","","","","","","","","","","","","","","","","","","","","","","","","","",""
"","choice_confirmation","","html-keyboard-response","79","835030","0.0-60.0-2.0-0.0","0","0","Xcmcr","People","","null","","","","null","","","","4","34","49","","","","","","","","","","","","","","","","","","","","","","","","","","","","","","","","","","","","","",""
"","explain_trial","","survey-text","80","843089","0.0-60.0-5.0-0.0","0","0","Xcmcr","People","","8049","{""Q0"":""nice""}","","","","","","","4","34","49","","","","","","","","","","","{""Q0"":""nice""}","","","","","","","","","","","","","","","","","","","","","","","","","","",""
"","fixation","","html-keyboard-response","81","844099","0.0-61.0-0.0","0","0","Xcmcr","People","","null","","","","null","","","","","","","","","","","","","","","","","","","","","","","","","","","","","","","","","","","","","","","","","","","",""
"","deliberation","","html-keyboard-response","82","847222","0.0-61.0-1.0","0","0","Xcmcr","People","","3116","","","","75","","","","5","38","3","1","-1","70","76","petr-sevcovic-HzDF-rxlSeM-unsplash.jpg","art-hauntington-jzY0KRJopEI-unsplash.jpg","1","0","3","38","","","","","","","","","","","","","","","","","","","","","","","","","","","",""
"","choice_confirmation","","html-keyboard-response","83","847729","0.0-61.0-2.0-0.0","0","0","Xcmcr","People","","null","","","","null","","","","5","38","3","","","","","","","","","","","","","","","","","","","","","","","","","","","","","","","","","","","","","",""
"","explain_trial","","survey-text","84","858422","0.0-61.0-5.0-0.0","0","0","Xcmcr","People","","10685","{""Q0"":""nice photo""}","","","","","","","5","38","3","","","","","","","","","","","{""Q0"":""nice photo""}","","","","","","","","","","","","","","","","","","","","","","","","","","",""
"","fixation","","html-keyboard-response","85","859447","0.0-62.0-0.0","0","0","Xcmcr","People","","null","","","","null","","","","","","","","","","","","","","","","","","","","","","","","","","","","","","","","","","","","","","","","","","","",""
"","deliberation","","html-keyboard-response","86","863752","0.0-62.0-1.0","0","0","Xcmcr","People","","4299","","","","75","","","","6","6","35","0","-1","85","87","ben-o-bro-C5XyLljkMrY-unsplash.jpg","oliver-ragfelt-khV4fTy6-D8-unsplash.jpg","1","0","35","6","","","","","","","","","","","","","","","","","","","","","","","","","","","",""
"","choice_confirmation","","html-keyboard-response","87","864281","0.0-62.0-2.0-0.0","0","0","Xcmcr","People","","null","","","","null","","","","6","6","35","","","","","","","","","","","","","","","","","","","","","","","","","","","","","","","","","","","","","",""
"","fixation","","html-keyboard-response","88","865291","0.0-63.0-0.0","0","0","Xcmcr","People","","null","","","","null","","","","","","","","","","","","","","","","","","","","","","","","","","","","","","","","","","","","","","","","","","","",""
"","deliberation","","html-keyboard-response","89","867818","0.0-63.0-1.0","0","0","Xcmcr","People","","2521","","","","75","","","","7","44","8","0","1","84","86","rikonavt-HQjfrvdTfak-unsplash.jpg","bruce-dixon-3M9WJQVHzog-unsplash.jpg","1","0","8","44","","","","","","","","","","","","","","","","","","","","","","","","","","","",""
"","choice_confirmation","","html-keyboard-response","90","868328","0.0-63.0-2.0-0.0","0","0","Xcmcr","People","","null","","","","null","","","","7","44","8","","","","","","","","","","","","","","","","","","","","","","","","","","","","","","","","","","","","","",""
"","fixation","","html-keyboard-response","91","869338","0.0-64.0-0.0","0","0","Xcmcr","People","","null","","","","null","","","","","","","","","","","","","","","","","","","","","","","","","","","","","","","","","","","","","","","","","","","",""
"","deliberation","","html-keyboard-response","92","870867","0.0-64.0-1.0","0","0","Xcmcr","People","","1525","","","","75","","","","8","30","24","1","1","88","75","matheus-ferrero-pg_WCHWSdT8-unsplash.jpg","joel-mott-LaK153ghdig-unsplash.jpg","1","0","24","30","","","","","","","","","","","","","","","","","","","","","","","","","","","",""
"","choice_confirmation","","html-keyboard-response","93","871379","0.0-64.0-2.0-0.0","0","0","Xcmcr","People","","null","","","","null","","","","8","30","24","","","","","","","","","","","","","","","","","","","","","","","","","","","","","","","","","","","","","",""
"","explain_trial","","survey-text","94","882464","0.0-64.0-5.0-0.0","0","0","Xcmcr","People","","11077","{""Q0"":""nice backround""}","","","","","","","8","30","24","","","","","","","","","","","{""Q0"":""nice backround""}","","","","","","","","","","","","","","","","","","","","","","","","","","",""
"","fixation","","html-keyboard-response","95","883484","0.0-65.0-0.0","0","0","Xcmcr","People","","null","","","","null","","","","","","","","","","","","","","","","","","","","","","","","","","","","","","","","","","","","","","","","","","","",""
"","deliberation","","html-keyboard-response","96","888589","0.0-65.0-1.0","0","0","Xcmcr","People","","5099","","","","75","","","","9","19","11","0","1","87","73","ha-nguy-n-OFSQ6bHjFjs-unsplash.jpg","christian-ferrer-8vT-DgHZDG4-unsplash.jpg","1","0","11","19","","","","","","","","","","","","","","","","","","","","","","","","","","","",""
"","choice_confirmation","","html-keyboard-response","97","889105","0.0-65.0-2.0-0.0","0","0","Xcmcr","People","","null","","","","null","","","","9","19","11","","","","","","","","","","","","","","","","","","","","","","","","","","","","","","","","","","","","","",""
"","fixation","","html-keyboard-response","98","890149","0.0-66.0-0.0","0","0","Xcmcr","People","","null","","","","null","","","","","","","","","","","","","","","","","","","","","","","","","","","","","","","","","","","","","","","","","","","",""
"","deliberation","","html-keyboard-response","99","896103","0.0-66.0-1.0","0","0","Xcmcr","People","","5932","","","","68","","","","10","31","40","1","-1","89","27","mathilda-khoo-vLR0YP_otCo-unsplash.jpg","prince-akachi-4Yv84VgQkRM-unsplash.jpg","1","1","31","40","","","","","","","","","","","","","","","","","","","","","","","","","","","",""
"","choice_confirmation","","html-keyboard-response","100","896755","0.0-66.0-2.0-0.0","0","0","Xcmcr","People","","null","","","","null","","","","10","31","40","","","","","","","","","","","","","","","","","","","","","","","","","","","","","","","","","","","","","",""
"","explain_trial","","survey-text","101","908439","0.0-66.0-5.0-0.0","0","0","Xcmcr","People","","11676","{""Q0"":""very clear""}","","","","","","","10","31","40","","","","","","","","","","","{""Q0"":""very clear""}","","","","","","","","","","","","","","","","","","","","","","","","","","",""
"","fixation","","html-keyboard-response","102","909450","0.0-67.0-0.0","0","0","Xcmcr","People","","null","","","","null","","","","","","","","","","","","","","","","","","","","","","","","","","","","","","","","","","","","","","","","","","","",""
"","deliberation","","html-keyboard-response","103","910621","0.0-67.0-1.0","0","0","Xcmcr","People","","1167","","","","68","","","","11","46","28","1","1","79","88","stefan-stefancik-QXevDflbl8A-unsplash.jpg","justin-chen-J7Cf1Gch49E-unsplash.jpg","1","1","46","28","","","","","","","","","","","","","","","","","","","","","","","","","","","",""
"","choice_confirmation","","html-keyboard-response","104","911136","0.0-67.0-2.0-0.0","0","0","Xcmcr","People","","null","","","","null","","","","11","46","28","","","","","","","","","","","","","","","","","","","","","","","","","","","","","","","","","","","","","",""
"","explain_trial","","survey-text","105","921590","0.0-67.0-5.0-0.0","0","0","Xcmcr","People","","10445","{""Q0"":""good to see""}","","","","","","","11","46","28","","","","","","","","","","","{""Q0"":""good to see""}","","","","","","","","","","","","","","","","","","","","","","","","","","",""
"","practice_deliberation_again","","html-keyboard-response","106","924523","0.0-67.0-6.0-0.0","0","0","Xcmcr","People","","2929","","","","78","","","","","","","","","","","","","","","","","","","","","","","","","","","","","","","","","","","","","","","","","","","",""
"","fixation","","html-keyboard-response","107","925619","0.0-68.0-0.0","0","0","Xcmcr","People","","null","","","","null","","","","","","","","","","","","","","","","","","","","","","","","","","","","","","","","","","","","","","","","","","","",""
"","deliberation","","html-keyboard-response","108","928365","0.0-68.0-1.0","0","0","Xcmcr","People","","2742","","","","75","","","","12","6","35","1","-1","85","87","ben-o-bro-C5XyLljkMrY-unsplash.jpg","oliver-ragfelt-khV4fTy6-D8-unsplash.jpg","2","0","35","6","","","","","","","","","","","","","","","","","","","","","","","","","","","",""
"","choice_confirmation","","html-keyboard-response","109","928872","0.0-68.0-2.0-0.0","0","0","Xcmcr","People","","null","","","","null","","","","12","6","35","","","","","","","","","","","","","","","","","","","","","","","","","","","","","","","","","","","","","",""
"","explain_trial","","survey-text","110","940458","0.0-68.0-5.0-0.0","0","0","Xcmcr","People","","11576","{""Q0"":""beautifull""}","","","","","","","12","6","35","","","","","","","","","","","{""Q0"":""beautifull""}","","","","","","","","","","","","","","","","","","","","","","","","","","",""
"","fixation","","html-keyboard-response","111","941466","0.0-69.0-0.0","0","0","Xcmcr","People","","null","","","","null","","","","","","","","","","","","","","","","","","","","","","","","","","","","","","","","","","","","","","","","","","","",""
"","deliberation","","html-keyboard-response","112","945596","0.0-69.0-1.0","0","0","Xcmcr","People","","4122","","","","75","","","","13","19","11","1","1","87","73","ha-nguy-n-OFSQ6bHjFjs-unsplash.jpg","christian-ferrer-8vT-DgHZDG4-unsplash.jpg","2","0","11","19","","","","","","","","","","","","","","","","","","","","","","","","","","","",""
"","choice_confirmation","","html-keyboard-response","113","946104","0.0-69.0-2.0-0.0","0","0","Xcmcr","People","","null","","","","null","","","","13","19","11","","","","","","","","","","","","","","","","","","","","","","","","","","","","","","","","","","","","","",""
"","explain_trial","","survey-text","114","951689","0.0-69.0-5.0-0.0","0","0","Xcmcr","People","","5575","{""Q0"":""nice ""}","","","","","","","13","19","11","","","","","","","","","","","{""Q0"":""nice ""}","","","","","","","","","","","","","","","","","","","","","","","","","","",""
"","fixation","","html-keyboard-response","115","952698","0.0-70.0-0.0","0","0","Xcmcr","People","","null","","","","null","","","","","","","","","","","","","","","","","","","","","","","","","","","","","","","","","","","","","","","","","","","",""
"","deliberation","","html-keyboard-response","116","957588","0.0-70.0-1.0","0","0","Xcmcr","People","","4882","","","","68","","","","14","7","41","0","-1","87","84","brooke-cagle-HRZUzoX1e6w-unsplash.jpg","prince-akachi-i2hoD-C2RUA-unsplash.jpg","2","1","7","41","","","","","","","","","","","","","","","","","","","","","","","","","","","",""
"","choice_confirmation","","html-keyboard-response","117","958097","0.0-70.0-2.0-0.0","0","0","Xcmcr","People","","null","","","","null","","","","14","7","41","","","","","","","","","","","","","","","","","","","","","","","","","","","","","","","","","","","","","",""
"","fixation","","html-keyboard-response","118","959105","0.0-71.0-0.0","0","0","Xcmcr","People","","null","","","","null","","","","","","","","","","","","","","","","","","","","","","","","","","","","","","","","","","","","","","","","","","","",""
"","deliberation","","html-keyboard-response","119","961272","0.0-71.0-1.0","0","0","Xcmcr","People","","2161","","","","68","","","","15","22","15","1","-1","24","24","jessica-radanavong-mrYkTuAesKE-unsplash.jpg","gabriel-silverio-u3WmDyKGsrY-unsplash.jpg","2","1","22","15","","","","","","","","","","","","","","","","","","","","","","","","","","","",""
"","choice_confirmation","","html-keyboard-response","120","961778","0.0-71.0-2.0-0.0","0","0","Xcmcr","People","","null","","","","null","","","","15","22","15","","","","","","","","","","","","","","","","","","","","","","","","","","","","","","","","","","","","","",""
"","explain_trial","","survey-text","121","969204","0.0-71.0-5.0-0.0","0","0","Xcmcr","People","","7416","{""Q0"":""good""}","","","","","","","15","22","15","","","","","","","","","","","{""Q0"":""good""}","","","","","","","","","","","","","","","","","","","","","","","","","","",""
"","fixation","","html-keyboard-response","122","970232","0.0-72.0-0.0","0","0","Xcmcr","People","","null","","","","null","","","","","","","","","","","","","","","","","","","","","","","","","","","","","","","","","","","","","","","","","","","",""
"","deliberation","","html-keyboard-response","123","972423","0.0-72.0-1.0","0","0","Xcmcr","People","","2185","","","","68","","","","16","46","28","0","1","79","88","stefan-stefancik-QXevDflbl8A-unsplash.jpg","justin-chen-J7Cf1Gch49E-unsplash.jpg","2","1","46","28","","","","","","","","","","","","","","","","","","","","","","","","","","","",""
"","choice_confirmation","","html-keyboard-response","124","972929","0.0-72.0-2.0-0.0","0","0","Xcmcr","People","","null","","","","null","","","","16","46","28","","","","","","","","","","","","","","","","","","","","","","","","","","","","","","","","","","","","","",""
"","fixation","","html-keyboard-response","125","973950","0.0-73.0-0.0","0","0","Xcmcr","People","","null","","","","null","","","","","","","","","","","","","","","","","","","","","","","","","","","","","","","","","","","","","","","","","","","",""
"","deliberation","","html-keyboard-response","126","976462","0.0-73.0-1.0","0","0","Xcmcr","People","","2508","","","","68","","","","17","27","10","1","-1","68","26","jurica-koletic-7YVZYZeITc8-unsplash.jpg","charles-etoroma-95UF6LXe-Lo-unsplash.jpg","2","1","27","10","","","","","","","","","","","","","","","","","","","","","","","","","","","",""
"","choice_confirmation","","html-keyboard-response","127","976969","0.0-73.0-2.0-0.0","0","0","Xcmcr","People","","null","","","","null","","","","17","27","10","","","","","","","","","","","","","","","","","","","","","","","","","","","","","","","","","","","","","",""
"","explain_trial","","survey-text","128","982826","0.0-73.0-5.0-0.0","0","0","Xcmcr","People","","5849","{""Q0"":""nice""}","","","","","","","17","27","10","","","","","","","","","","","{""Q0"":""nice""}","","","","","","","","","","","","","","","","","","","","","","","","","","",""
"","fixation","","html-keyboard-response","129","983833","0.0-74.0-0.0","0","0","Xcmcr","People","","null","","","","null","","","","","","","","","","","","","","","","","","","","","","","","","","","","","","","","","","","","","","","","","","","",""
"","deliberation","","html-keyboard-response","130","985199","0.0-74.0-1.0","0","0","Xcmcr","People","","1352","","","","68","","","","18","31","40","0","-1","89","27","mathilda-khoo-vLR0YP_otCo-unsplash.jpg","prince-akachi-4Yv84VgQkRM-unsplash.jpg","2","1","31","40","","","","","","","","","","","","","","","","","","","","","","","","","","","",""
"","choice_confirmation","","html-keyboard-response","131","985719","0.0-74.0-2.0-0.0","0","0","Xcmcr","People","","null","","","","null","","","","18","31","40","","","","","","","","","","","","","","","","","","","","","","","","","","","","","","","","","","","","","",""
"","fixation","","html-keyboard-response","132","986740","0.0-75.0-0.0","0","0","Xcmcr","People","","null","","","","null","","","","","","","","","","","","","","","","","","","","","","","","","","","","","","","","","","","","","","","","","","","",""
"","deliberation","","html-keyboard-response","133","988685","0.0-75.0-1.0","0","0","Xcmcr","People","","1935","","","","68","","","","19","1","4","1","1","69","78","aiony-haust-jmATI5Q_YgY-unsplash.jpg","barna-bartis-2x3vfVxwR7o-unsplash.jpg","2","1","1","4","","","","","","","","","","","","","","","","","","","","","","","","","","","",""
"","choice_confirmation","","html-keyboard-response","134","989237","0.0-75.0-2.0-0.0","0","0","Xcmcr","People","","null","","","","null","","","","19","1","4","","","","","","","","","","","","","","","","","","","","","","","","","","","","","","","","","","","","","",""
"","explain_trial","","survey-text","135","997607","0.0-75.0-5.0-0.0","0","0","Xcmcr","People","","8362","{""Q0"":""nice""}","","","","","","","19","1","4","","","","","","","","","","","{""Q0"":""nice""}","","","","","","","","","","","","","","","","","","","","","","","","","","",""
"","fixation","","html-keyboard-response","136","998632","0.0-76.0-0.0","0","0","Xcmcr","People","","null","","","","null","","","","","","","","","","","","","","","","","","","","","","","","","","","","","","","","","","","","","","","","","","","",""
"","deliberation","","html-keyboard-response","137","1001575","0.0-76.0-1.0","0","0","Xcmcr","People","","2935","","","","75","","","","20","38","3","0","-1","70","76","petr-sevcovic-HzDF-rxlSeM-unsplash.jpg","art-hauntington-jzY0KRJopEI-unsplash.jpg","2","0","3","38","","","","","","","","","","","","","","","","","","","","","","","","","","","",""
"","choice_confirmation","","html-keyboard-response","138","1002080","0.0-76.0-2.0-0.0","0","0","Xcmcr","People","","null","","","","null","","","","20","38","3","","","","","","","","","","","","","","","","","","","","","","","","","","","","","","","","","","","","","",""
"","fixation","","html-keyboard-response","139","1003091","0.0-77.0-0.0","0","0","Xcmcr","People","","null","","","","null","","","","","","","","","","","","","","","","","","","","","","","","","","","","","","","","","","","","","","","","","","","",""
"","deliberation","","html-keyboard-response","140","1005111","0.0-77.0-1.0","0","0","Xcmcr","People","","2011","","","","75","","","","21","44","8","1","1","84","86","rikonavt-HQjfrvdTfak-unsplash.jpg","bruce-dixon-3M9WJQVHzog-unsplash.jpg","2","0","8","44","","","","","","","","","","","","","","","","","","","","","","","","","","","",""
"","choice_confirmation","","html-keyboard-response","141","1005622","0.0-77.0-2.0-0.0","0","0","Xcmcr","People","","null","","","","null","","","","21","44","8","","","","","","","","","","","","","","","","","","","","","","","","","","","","","","","","","","","","","",""
"","explain_trial","","survey-text","142","1012639","0.0-77.0-5.0-0.0","0","0","Xcmcr","People","","7008","{""Q0"":""good""}","","","","","","","21","44","8","","","","","","","","","","","{""Q0"":""good""}","","","","","","","","","","","","","","","","","","","","","","","","","","",""
"","fixation","","html-keyboard-response","143","1013724","0.0-78.0-0.0","0","0","Xcmcr","People","","null","","","","null","","","","","","","","","","","","","","","","","","","","","","","","","","","","","","","","","","","","","","","","","","","",""
"","deliberation","","html-keyboard-response","144","1017905","0.0-78.0-1.0","0","0","Xcmcr","People","","4173","","","","75","","","","22","34","49","0","1","88","86","oliver-johnson-1TUIcKob7Zs-unsplash.jpg","vicky-hladynets-_gDoyVv5F4c-unsplash.jpg","2","0","49","34","","","","","","","","","","","","","","","","","","","","","","","","","","","",""
"","choice_confirmation","","html-keyboard-response","145","1018422","0.0-78.0-2.0-0.0","0","0","Xcmcr","People","","null","","","","null","","","","22","34","49","","","","","","","","","","","","","","","","","","","","","","","","","","","","","","","","","","","","","",""
"","fixation","","html-keyboard-response","146","1019432","0.0-79.0-0.0","0","0","Xcmcr","People","","null","","","","null","","","","","","","","","","","","","","","","","","","","","","","","","","","","","","","","","","","","","","","","","","","",""
"","deliberation","","html-keyboard-response","147","1021991","0.0-79.0-1.0","0","0","Xcmcr","People","","2555","","","","75","","","","23","30","24","0","1","88","75","matheus-ferrero-pg_WCHWSdT8-unsplash.jpg","joel-mott-LaK153ghdig-unsplash.jpg","2","0","24","30","","","","","","","","","","","","","","","","","","","","","","","","","","","",""
"","choice_confirmation","","html-keyboard-response","148","1022498","0.0-79.0-2.0-0.0","0","0","Xcmcr","People","","null","","","","null","","","","23","30","24","","","","","","","","","","","","","","","","","","","","","","","","","","","","","","","","","","","","","",""
"","start_critical_deliberation_block","","html-keyboard-response","149","1025658","0.0-79.0-7.0-0.0","0","0","Xcmcr","People","","3145","","","","78","","","","","","","","","","","","","","","","","","","","","","","","","","","","","","","","","","","","","","","","","","","",""
"","fixation","","html-keyboard-response","150","1026668","0.0-80.0-0.0","0","0","Xcmcr","People","","null","","","","null","","","","","","","","","","","","","","","","","","","","","","","","","","","","","","","","","","","","","","","","","","","",""
"","deliberation","","html-keyboard-response","151","1029283","0.0-80.0-1.0","0","0","Xcmcr","People","","2605","","","","75","","","","24","44","8","0","1","84","86","rikonavt-HQjfrvdTfak-unsplash.jpg","bruce-dixon-3M9WJQVHzog-unsplash.jpg","3","0","8","44","","","","","","","","","","","","","","","","","","","","","","","","","","","",""
"","choice_confirmation","","html-keyboard-response","152","1029793","0.0-80.0-2.0-0.0","0","0","Xcmcr","People","","null","","","","null","","","","24","44","8","","","","","","","","","","","","","","","","","","","","","","","","","","","","","","","","","","","","","",""
"","fixation","","html-keyboard-response","153","1030819","0.0-81.0-0.0","0","0","Xcmcr","People","","null","","","","null","","","","","","","","","","","","","","","","","","","","","","","","","","","","","","","","","","","","","","","","","","","",""
"","deliberation","","html-keyboard-response","154","1033753","0.0-81.0-1.0","0","0","Xcmcr","People","","2920","","","","68","","","","25","22","15","0","-1","24","24","jessica-radanavong-mrYkTuAesKE-unsplash.jpg","gabriel-silverio-u3WmDyKGsrY-unsplash.jpg","3","1","22","15","","","","","","","","","","","","","","","","","","","","","","","","","","","",""
"","choice_confirmation","","html-keyboard-response","155","1034262","0.0-81.0-2.0-0.0","0","0","Xcmcr","People","","null","","","","null","","","","25","22","15","","","","","","","","","","","","","","","","","","","","","","","","","","","","","","","","","","","","","",""
"","fixation","","html-keyboard-response","156","1035284","0.0-82.0-0.0","0","0","Xcmcr","People","","null","","","","null","","","","","","","","","","","","","","","","","","","","","","","","","","","","","","","","","","","","","","","","","","","",""
"","deliberation","","html-keyboard-response","157","1037285","0.0-82.0-1.0","0","0","Xcmcr","People","","1985","","","","68","","","","26","31","40","0","-1","89","27","mathilda-khoo-vLR0YP_otCo-unsplash.jpg","prince-akachi-4Yv84VgQkRM-unsplash.jpg","3","1","31","40","","","","","","","","","","","","","","","","","","","","","","","","","","","",""
"","choice_confirmation","","html-keyboard-response","158","1037807","0.0-82.0-2.0-0.0","0","0","Xcmcr","People","","null","","","","null","","","","26","31","40","","","","","","","","","","","","","","","","","","","","","","","","","","","","","","","","","","","","","",""
"","fixation","","html-keyboard-response","159","1038821","0.0-83.0-0.0","0","0","Xcmcr","People","","null","","","","null","","","","","","","","","","","","","","","","","","","","","","","","","","","","","","","","","","","","","","","","","","","",""
"","deliberation","","html-keyboard-response","160","1039908","0.0-83.0-1.0","0","0","Xcmcr","People","","1084","","","","75","","","","27","34","49","0","1","88","86","oliver-johnson-1TUIcKob7Zs-unsplash.jpg","vicky-hladynets-_gDoyVv5F4c-unsplash.jpg","3","0","49","34","","","","","","","","","","","","","","","","","","","","","","","","","","","",""
"","choice_confirmation","","html-keyboard-response","161","1040433","0.0-83.0-2.0-0.0","0","0","Xcmcr","People","","null","","","","null","","","","27","34","49","","","","","","","","","","","","","","","","","","","","","","","","","","","","","","","","","","","","","",""
"","fixation","","html-keyboard-response","162","1041440","0.0-84.0-0.0","0","0","Xcmcr","People","","null","","","","null","","","","","","","","","","","","","","","","","","","","","","","","","","","","","","","","","","","","","","","","","","","",""
"","deliberation","","html-keyboard-response","163","1043170","0.0-84.0-1.0","0","0","Xcmcr","People","","1724","","","","68","","","","28","7","41","0","-1","87","84","brooke-cagle-HRZUzoX1e6w-unsplash.jpg","prince-akachi-i2hoD-C2RUA-unsplash.jpg","3","1","7","41","","","","","","","","","","","","","","","","","","","","","","","","","","","",""
"","choice_confirmation","","html-keyboard-response","164","1043674","0.0-84.0-2.0-0.0","0","0","Xcmcr","People","","null","","","","null","","","","28","7","41","","","","","","","","","","","","","","","","","","","","","","","","","","","","","","","","","","","","","",""
"","fixation","","html-keyboard-response","165","1044687","0.0-85.0-0.0","0","0","Xcmcr","People","","null","","","","null","","","","","","","","","","","","","","","","","","","","","","","","","","","","","","","","","","","","","","","","","","","",""
"","deliberation","","html-keyboard-response","166","1046092","0.0-85.0-1.0","0","0","Xcmcr","People","","1399","","","","75","","","","29","30","24","0","1","88","75","matheus-ferrero-pg_WCHWSdT8-unsplash.jpg","joel-mott-LaK153ghdig-unsplash.jpg","3","0","24","30","","","","","","","","","","","","","","","","","","","","","","","","","","","",""
"","choice_confirmation","","html-keyboard-response","167","1046607","0.0-85.0-2.0-0.0","0","0","Xcmcr","People","","null","","","","null","","","","29","30","24","","","","","","","","","","","","","","","","","","","","","","","","","","","","","","","","","","","","","",""
"","fixation","","html-keyboard-response","168","1047625","0.0-86.0-0.0","0","0","Xcmcr","People","","null","","","","null","","","","","","","","","","","","","","","","","","","","","","","","","","","","","","","","","","","","","","","","","","","",""
"","deliberation","","html-keyboard-response","169","1049068","0.0-86.0-1.0","0","0","Xcmcr","People","","1429","","","","68","","","","30","46","28","0","1","79","88","stefan-stefancik-QXevDflbl8A-unsplash.jpg","justin-chen-J7Cf1Gch49E-unsplash.jpg","3","1","46","28","","","","","","","","","","","","","","","","","","","","","","","","","","","",""
"","choice_confirmation","","html-keyboard-response","170","1049583","0.0-86.0-2.0-0.0","0","0","Xcmcr","People","","null","","","","null","","","","30","46","28","","","","","","","","","","","","","","","","","","","","","","","","","","","","","","","","","","","","","",""
"","fixation","","html-keyboard-response","171","1050607","0.0-87.0-0.0","0","0","Xcmcr","People","","null","","","","null","","","","","","","","","","","","","","","","","","","","","","","","","","","","","","","","","","","","","","","","","","","",""
"","deliberation","","html-keyboard-response","172","1052127","0.0-87.0-1.0","0","0","Xcmcr","People","","1509","","","","75","","","","31","19","11","0","1","87","73","ha-nguy-n-OFSQ6bHjFjs-unsplash.jpg","christian-ferrer-8vT-DgHZDG4-unsplash.jpg","3","0","11","19","","","","","","","","","","","","","","","","","","","","","","","","","","","",""
"","choice_confirmation","","html-keyboard-response","173","1052635","0.0-87.0-2.0-0.0","0","0","Xcmcr","People","","null","","","","null","","","","31","19","11","","","","","","","","","","","","","","","","","","","","","","","","","","","","","","","","","","","","","",""
"","fixation","","html-keyboard-response","174","1053649","0.0-88.0-0.0","0","0","Xcmcr","People","","null","","","","null","","","","","","","","","","","","","","","","","","","","","","","","","","","","","","","","","","","","","","","","","","","",""
"","deliberation","","html-keyboard-response","175","1055324","0.0-88.0-1.0","0","0","Xcmcr","People","","1658","","","","75","","","","32","6","35","0","-1","85","87","ben-o-bro-C5XyLljkMrY-unsplash.jpg","oliver-ragfelt-khV4fTy6-D8-unsplash.jpg","3","0","35","6","","","","","","","","","","","","","","","","","","","","","","","","","","","",""
"","choice_confirmation","","html-keyboard-response","176","1055833","0.0-88.0-2.0-0.0","0","0","Xcmcr","People","","null","","","","null","","","","32","6","35","","","","","","","","","","","","","","","","","","","","","","","","","","","","","","","","","","","","","",""
"","fixation","","html-keyboard-response","177","1056859","0.0-89.0-0.0","0","0","Xcmcr","People","","null","","","","null","","","","","","","","","","","","","","","","","","","","","","","","","","","","","","","","","","","","","","","","","","","",""
"","deliberation","","html-keyboard-response","178","1058203","0.0-89.0-1.0","0","0","Xcmcr","People","","1336","","","","68","","","","33","27","10","0","-1","68","26","jurica-koletic-7YVZYZeITc8-unsplash.jpg","charles-etoroma-95UF6LXe-Lo-unsplash.jpg","3","1","27","10","","","","","","","","","","","","","","","","","","","","","","","","","","","",""
"","choice_confirmation","","html-keyboard-response","179","1058716","0.0-89.0-2.0-0.0","0","0","Xcmcr","People","","null","","","","null","","","","33","27","10","","","","","","","","","","","","","","","","","","","","","","","","","","","","","","","","","","","","","",""
"","fixation","","html-keyboard-response","180","1059728","0.0-90.0-0.0","0","0","Xcmcr","People","","null","","","","null","","","","","","","","","","","","","","","","","","","","","","","","","","","","","","","","","","","","","","","","","","","",""
"","deliberation","","html-keyboard-response","181","1060905","0.0-90.0-1.0","0","0","Xcmcr","People","","1172","","","","75","","","","34","38","3","0","-1","70","76","petr-sevcovic-HzDF-rxlSeM-unsplash.jpg","art-hauntington-jzY0KRJopEI-unsplash.jpg","3","0","3","38","","","","","","","","","","","","","","","","","","","","","","","","","","","",""
"","choice_confirmation","","html-keyboard-response","182","1061419","0.0-90.0-2.0-0.0","0","0","Xcmcr","People","","null","","","","null","","","","34","38","3","","","","","","","","","","","","","","","","","","","","","","","","","","","","","","","","","","","","","",""
"","fixation","","html-keyboard-response","183","1062435","0.0-91.0-0.0","0","0","Xcmcr","People","","null","","","","null","","","","","","","","","","","","","","","","","","","","","","","","","","","","","","","","","","","","","","","","","","","",""
"","deliberation","","html-keyboard-response","184","1063705","0.0-91.0-1.0","0","0","Xcmcr","People","","1261","","","","68","","","","35","1","4","0","1","69","78","aiony-haust-jmATI5Q_YgY-unsplash.jpg","barna-bartis-2x3vfVxwR7o-unsplash.jpg","3","1","1","4","","","","","","","","","","","","","","","","","","","","","","","","","","","",""
"","choice_confirmation","","html-keyboard-response","185","1064231","0.0-91.0-2.0-0.0","0","0","Xcmcr","People","","null","","","","null","","","","35","1","4","","","","","","","","","","","","","","","","","","","","","","","","","","","","","","","","","","","","","",""
"","reward_learning_instructions","","instructions","186","1105146","0.0-92.0-0.0","0","0","Xcmcr","People","[{""page_index"":0,""viewing_time"":11321},{""page_index"":1,""viewing_time"":27686},{""page_index"":2,""viewing_time"":1904}]","40912","","","","","","","","","","","","","","","","","","","","","","","","","","","","","","","","","","","","","","","","","","","","","","","",""
"","","","survey-multi-choice","187","1128855","0.0-92.0-1.0","0","0","Xcmcr","People","","23683","{""Q0"":""True"",""Q1"":""True"",""Q2"":""Press the space bar to see its outcome"",""Q3"":""Press the relevant key while the outcome is presented""}","reward_comprehension_check","0","","","","","","","","","","","","","","","","","","","","","","","","","","","","","","","","","","","","","","","","","","","","",""
"","start_phase","","html-keyboard-response","188","1131221","0.0-93.0","0","0","Xcmcr","People","","2358","","","","78","","","","","","","","","","","","","","","","","","","","","","","","","","","","","","","","","","","","","","","","","","","",""
"","fixation","","html-keyboard-response","189","1132237","0.0-94.0","0","0","Xcmcr","People","","null","","","","null","","","","","","","","","","","","","","","","","","","","","","","","","","","","","","","","","","","","","","","","","","","",""
"","see_reward","","html-keyboard-response","190","1134485","0.0-95.0","0","0","Xcmcr","People","","2234","","","","32","","11","","0","","","","1","","","","","1","","","","","155","2234","","","","","","","","","","","","","","","","","","","","","","","","",""
"","reward_outcome","","html-keyboard-response","191","1136496","0.0-96.0","0","0","Xcmcr","People","","1712","","","","38","","11","","0","","","","","","","","","","","","","","","","1","1712","","","","","","","","","","","","","","","","","","","","","","",""
"","fixation","","html-keyboard-response","192","1137512","0.0-99.0","0","0","Xcmcr","People","","null","","","","null","","","","","","","","","","","","","","","","","","","","","","","","","","","","","","","","","","","","","","","","","","","",""
"","see_reward","","html-keyboard-response","193","1138849","0.0-100.0","0","0","Xcmcr","People","","1319","","","","32","","27","","1","","","","-1","","","","","1","","","","","0","1319","","","","","","","","","","","","","","","","","","","","","","","","",""
"","reward_outcome","","html-keyboard-response","194","1140891","0.0-101.0","0","0","Xcmcr","People","","1112","","","","40","","27","","1","","","","","","","","","","","","","","","","-1","1112","","","","","","","","","","","","","","","","","","","","","","",""
"","fixation","","html-keyboard-response","195","1141902","0.0-104.0","0","0","Xcmcr","People","","null","","","","null","","","","","","","","","","","","","","","","","","","","","","","","","","","","","","","","","","","","","","","","","","","",""
"","see_reward","","html-keyboard-response","196","1143153","0.0-105.0","0","0","Xcmcr","People","","1229","","","","32","","1","","2","","","","1","","","","","1","","","","","141","1229","","","","","","","","","","","","","","","","","","","","","","","","",""
"","reward_outcome","","html-keyboard-response","197","1145171","0.0-106.0","0","0","Xcmcr","People","","1054","","","","38","","1","","2","","","","","","","","","","","","","","","","1","1054","","","","","","","","","","","","","","","","","","","","","","",""
"","fixation","","html-keyboard-response","198","1146185","0.0-109.0","0","0","Xcmcr","People","","null","","","","null","","","","","","","","","","","","","","","","","","","","","","","","","","","","","","","","","","","","","","","","","","","",""
"","see_reward","","html-keyboard-response","199","1147362","0.0-110.0","0","0","Xcmcr","People","","1167","","","","32","","46","","3","","","","1","","","","","1","","","","","157","1167","","","","","","","","","","","","","","","","","","","","","","","","",""
"","reward_outcome","","html-keyboard-response","200","1149374","0.0-111.0","0","0","Xcmcr","People","","1110","","","","38","","46","","3","","","","","","","","","","","","","","","","1","1110","","","","","","","","","","","","","","","","","","","","","","",""
"","fixation","","html-keyboard-response","201","1150387","0.0-114.0","0","0","Xcmcr","People","","null","","","","null","","","","","","","","","","","","","","","","","","","","","","","","","","","","","","","","","","","","","","","","","","","",""
"","see_reward","","html-keyboard-response","202","1151271","0.0-115.0","0","0","Xcmcr","People","","879","","","","32","","49","","4","","","","1","","","","","1","","","","","152","879","","","","","","","","","","","","","","","","","","","","","","","","",""
"","reward_outcome","","html-keyboard-response","203","1153284","0.0-116.0","0","0","Xcmcr","People","","1066","","","","38","","49","","4","","","","","","","","","","","","","","","","1","1066","","","","","","","","","","","","","","","","","","","","","","",""
"","fixation","","html-keyboard-response","204","1154295","0.0-119.0","0","0","Xcmcr","People","","null","","","","null","","","","","","","","","","","","","","","","","","","","","","","","","","","","","","","","","","","","","","","","","","","",""
"","see_reward","","html-keyboard-response","205","1155142","0.0-120.0","0","0","Xcmcr","People","","833","","","","32","","1","","5","","","","1","","","","","1","","","","","141","833","","","","","","","","","","","","","","","","","","","","","","","","",""
"","reward_outcome","","html-keyboard-response","206","1157169","0.0-121.0","0","0","Xcmcr","People","","898","","","","38","","1","","5","","","","","","","","","","","","","","","","1","898","","","","","","","","","","","","","","","","","","","","","","",""
"","fixation","","html-keyboard-response","207","1158183","0.0-124.0","0","0","Xcmcr","People","","null","","","","null","","","","","","","","","","","","","","","","","","","","","","","","","","","","","","","","","","","","","","","","","","","",""
"","see_reward","","html-keyboard-response","208","1158820","0.0-125.0","0","0","Xcmcr","People","","618","","","","32","","27","","6","","","","-1","","","","","1","","","","","0","618","","","","","","","","","","","","","","","","","","","","","","","","",""
"","reward_outcome","","html-keyboard-response","209","1160840","0.0-126.0","0","0","Xcmcr","People","","1609","","","","40","","27","","6","","","","","","","","","","","","","","","","-1","1609","","","","","","","","","","","","","","","","","","","","","","",""
"","fixation","","html-keyboard-response","210","1161857","0.0-129.0","0","0","Xcmcr","People","","null","","","","null","","","","","","","","","","","","","","","","","","","","","","","","","","","","","","","","","","","","","","","","","","","",""
"","see_reward","","html-keyboard-response","211","1162841","0.0-130.0","0","0","Xcmcr","People","","964","","","","32","","11","","7","","","","1","","","","","1","","","","","155","964","","","","","","","","","","","","","","","","","","","","","","","","",""
"","reward_outcome","","html-keyboard-response","212","1165009","0.0-131.0","0","0","Xcmcr","People","","745","","","","38","","11","","7","","","","","","","","","","","","","","","","1","745","","","","","","","","","","","","","","","","","","","","","","",""
"","fixation","","html-keyboard-response","213","1166027","0.0-134.0","0","0","Xcmcr","People","","null","","","","null","","","","","","","","","","","","","","","","","","","","","","","","","","","","","","","","","","","","","","","","","","","",""
"","see_reward","","html-keyboard-response","214","1166800","0.0-135.0","0","0","Xcmcr","People","","770","","","","32","","22","","8","","","","-1","","","","","1","","","","","0","770","","","","","","","","","","","","","","","","","","","","","","","","",""
"","reward_outcome","","html-keyboard-response","215","1168810","0.0-136.0","0","0","Xcmcr","People","","1176","","","","40","","22","","8","","","","","","","","","","","","","","","","-1","1176","","","","","","","","","","","","","","","","","","","","","","",""
"","fixation","","html-keyboard-response","216","1169819","0.0-139.0","0","0","Xcmcr","People","","null","","","","null","","","","","","","","","","","","","","","","","","","","","","","","","","","","","","","","","","","","","","","","","","","",""
"","see_reward","","html-keyboard-response","217","1170590","0.0-140.0","0","0","Xcmcr","People","","767","","","","32","","31","","9","","","","-1","","","","","1","","","","","0","767","","","","","","","","","","","","","","","","","","","","","","","","",""
"","reward_outcome","","html-keyboard-response","218","1172598","0.0-141.0","0","0","Xcmcr","People","","746","","","","38","","31","","9","","","","","","","","","","","","","","","","1","746","","","","","","","","","","","","","","","","","","","","","","",""
"","fixation","","html-keyboard-response","219","1173602","0.0-144.0","0","0","Xcmcr","People","","null","","","","null","","","","","","","","","","","","","","","","","","","","","","","","","","","","","","","","","","","","","","","","","","","",""
"","see_reward","","html-keyboard-response","220","1175008","0.0-145.0","0","0","Xcmcr","People","","1396","","","","32","","46","","10","","","","1","","","","","1","","","","","157","1396","","","","","","","","","","","","","","","","","","","","","","","","",""
"","reward_outcome","","html-keyboard-response","221","1177017","0.0-146.0","0","0","Xcmcr","People","","1020","","","","38","","46","","10","","","","","","","","","","","","","","","","1","1020","","","","","","","","","","","","","","","","","","","","","","",""
"","fixation","","html-keyboard-response","222","1178035","0.0-149.0","0","0","Xcmcr","People","","null","","","","null","","","","","","","","","","","","","","","","","","","","","","","","","","","","","","","","","","","","","","","","","","","",""
"","see_reward","","html-keyboard-response","223","1179128","0.0-150.0","0","0","Xcmcr","People","","1085","","","","32","","31","","11","","","","-1","","","","","1","","","","","0","1085","","","","","","","","","","","","","","","","","","","","","","","","",""
"","reward_outcome","","html-keyboard-response","224","1181139","0.0-151.0","0","0","Xcmcr","People","","1237","","","","40","","31","","11","","","","","","","","","","","","","","","","-1","1237","","","","","","","","","","","","","","","","","","","","","","",""
"","fixation","","html-keyboard-response","225","1182144","0.0-154.0","0","0","Xcmcr","People","","null","","","","null","","","","","","","","","","","","","","","","","","","","","","","","","","","","","","","","","","","","","","","","","","","",""
"","see_reward","","html-keyboard-response","226","1182936","0.0-155.0","0","0","Xcmcr","People","","788","","","","32","","35","","12","","","","-1","","","","","1","","","","","0","788","","","","","","","","","","","","","","","","","","","","","","","","",""
"","reward_outcome","","html-keyboard-response","227","1184946","0.0-156.0","0","0","Xcmcr","People","","1040","","","","40","","35","","12","","","","","","","","","","","","","","","","-1","1040","","","","","","","","","","","","","","","","","","","","","","",""
"","fixation","","html-keyboard-response","228","1185953","0.0-159.0","0","0","Xcmcr","People","","null","","","","null","","","","","","","","","","","","","","","","","","","","","","","","","","","","","","","","","","","","","","","","","","","",""
"","see_reward","","html-keyboard-response","229","1186660","0.0-160.0","0","0","Xcmcr","People","","703","","","","32","","22","","13","","","","-1","","","","","1","","","","","0","703","","","","","","","","","","","","","","","","","","","","","","","","",""
"","reward_outcome","","html-keyboard-response","230","1188667","0.0-161.0","0","0","Xcmcr","People","","768","","","","40","","22","","13","","","","","","","","","","","","","","","","-1","768","","","","","","","","","","","","","","","","","","","","","","",""
"","fixation","","html-keyboard-response","231","1189674","0.0-164.0","0","0","Xcmcr","People","","null","","","","null","","","","","","","","","","","","","","","","","","","","","","","","","","","","","","","","","","","","","","","","","","","",""
"","see_reward","","html-keyboard-response","232","1190712","0.0-165.0","0","0","Xcmcr","People","","1022","","","","32","","3","","14","","","","-1","","","","","1","","","","","0","1022","","","","","","","","","","","","","","","","","","","","","","","","",""
"","reward_outcome","","html-keyboard-response","233","1192718","0.0-166.0","0","0","Xcmcr","People","","973","","","","40","","3","","14","","","","","","","","","","","","","","","","-1","973","","","","","","","","","","","","","","","","","","","","","","",""
"","fixation","","html-keyboard-response","234","1193731","0.0-169.0","0","0","Xcmcr","People","","null","","","","null","","","","","","","","","","","","","","","","","","","","","","","","","","","","","","","","","","","","","","","","","","","",""
"","see_reward","","html-keyboard-response","235","1194856","0.0-170.0","0","0","Xcmcr","People","","1121","","","","32","","49","","15","","","","1","","","","","1","","","","","152","1121","","","","","","","","","","","","","","","","","","","","","","","","",""
"","reward_outcome","","html-keyboard-response","236","1196876","0.0-171.0","0","0","Xcmcr","People","","1073","","","","38","","49","","15","","","","","","","","","","","","","","","","1","1073","","","","","","","","","","","","","","","","","","","","","","",""
"","fixation","","html-keyboard-response","237","1197887","0.0-174.0","0","0","Xcmcr","People","","null","","","","null","","","","","","","","","","","","","","","","","","","","","","","","","","","","","","","","","","","","","","","","","","","",""
"","see_reward","","html-keyboard-response","238","1198890","0.0-175.0","0","0","Xcmcr","People","","990","","","","32","","35","","16","","","","-1","","","","","1","","","","","0","990","","","","","","","","","","","","","","","","","","","","","","","","",""
"","reward_outcome","","html-keyboard-response","239","1201031","0.0-176.0","0","0","Xcmcr","People","","1085","","","","40","","35","","16","","","","","","","","","","","","","","","","-1","1085","","","","","","","","","","","","","","","","","","","","","","",""
"","fixation","","html-keyboard-response","240","1202044","0.0-179.0","0","0","Xcmcr","People","","null","","","","null","","","","","","","","","","","","","","","","","","","","","","","","","","","","","","","","","","","","","","","","","","","",""
"","see_reward","","html-keyboard-response","241","1203006","0.0-180.0","0","0","Xcmcr","People","","954","","","","32","","7","","17","","","","-1","","","","","1","","","","","0","954","","","","","","","","","","","","","","","","","","","","","","","","",""
"","reward_outcome","","html-keyboard-response","242","1205117","0.0-181.0","0","0","Xcmcr","People","","1173","","","","40","","7","","17","","","","","","","","","","","","","","","","-1","1173","","","","","","","","","","","","","","","","","","","","","","",""
"","fixation","","html-keyboard-response","243","1206126","0.0-184.0","0","0","Xcmcr","People","","null","","","","null","","","","","","","","","","","","","","","","","","","","","","","","","","","","","","","","","","","","","","","","","","","",""
"","see_reward","","html-keyboard-response","244","1207269","0.0-185.0","0","0","Xcmcr","People","","1131","","","","32","","7","","18","","","","-1","","","","","1","","","","","0","1131","","","","","","","","","","","","","","","","","","","","","","","","",""
"","reward_outcome","","html-keyboard-response","245","1209324","0.0-186.0","0","0","Xcmcr","People","","914","","","","40","","7","","18","","","","","","","","","","","","","","","","-1","914","","","","","","","","","","","","","","","","","","","","","","",""
"","fixation","","html-keyboard-response","246","1210340","0.0-189.0","0","0","Xcmcr","People","","null","","","","null","","","","","","","","","","","","","","","","","","","","","","","","","","","","","","","","","","","","","","","","","","","",""
"","see_reward","","html-keyboard-response","247","1211146","0.0-190.0","0","0","Xcmcr","People","","792","","","","32","","24","","19","","","","1","","","","","1","","","","","149","792","","","","","","","","","","","","","","","","","","","","","","","","",""
"","reward_outcome","","html-keyboard-response","248","1213167","0.0-191.0","0","0","Xcmcr","People","","1428","","","","38","","24","","19","","","","","","","","","","","","","","","","1","1428","","","","","","","","","","","","","","","","","","","","","","",""
"","fixation","","html-keyboard-response","249","1214179","0.0-194.0","0","0","Xcmcr","People","","null","","","","null","","","","","","","","","","","","","","","","","","","","","","","","","","","","","","","","","","","","","","","","","","","",""
"","see_reward","","html-keyboard-response","250","1215628","0.0-195.0","0","0","Xcmcr","People","","1444","","","","32","","8","","20","","","","1","","","","","1","","","","","150","1444","","","","","","","","","","","","","","","","","","","","","","","","",""
"","reward_outcome","","html-keyboard-response","251","1217639","0.0-196.0","0","0","Xcmcr","People","","1738","","","","38","","8","","20","","","","","","","","","","","","","","","","1","1738","","","","","","","","","","","","","","","","","","","","","","",""
"","fixation","","html-keyboard-response","252","1218649","0.0-199.0","0","0","Xcmcr","People","","null","","","","null","","","","","","","","","","","","","","","","","","","","","","","","","","","","","","","","","","","","","","","","","","","",""
"","see_reward","","html-keyboard-response","253","1219402","0.0-200.0","0","0","Xcmcr","People","","735","","","","32","","24","","21","","","","1","","","","","1","","","","","149","735","","","","","","","","","","","","","","","","","","","","","","","","",""
"","reward_outcome","","html-keyboard-response","254","1221417","0.0-201.0","0","0","Xcmcr","People","","1030","","","","38","","24","","21","","","","","","","","","","","","","","","","1","1030","","","","","","","","","","","","","","","","","","","","","","",""
"","fixation","","html-keyboard-response","255","1222434","0.0-204.0","0","0","Xcmcr","People","","null","","","","null","","","","","","","","","","","","","","","","","","","","","","","","","","","","","","","","","","","","","","","","","","","",""
"","see_reward","","html-keyboard-response","256","1223427","0.0-205.0","0","0","Xcmcr","People","","980","","","","32","","3","","22","","","","-1","","","","","1","","","","","0","980","","","","","","","","","","","","","","","","","","","","","","","","",""
"","reward_outcome","","html-keyboard-response","257","1225435","0.0-206.0","0","0","Xcmcr","People","","1288","","","","40","","3","","22","","","","","","","","","","","","","","","","-1","1288","","","","","","","","","","","","","","","","","","","","","","",""
"","fixation","","html-keyboard-response","258","1226451","0.0-209.0","0","0","Xcmcr","People","","null","","","","null","","","","","","","","","","","","","","","","","","","","","","","","","","","","","","","","","","","","","","","","","","","",""
"","see_reward","","html-keyboard-response","259","1227989","0.0-210.0","0","0","Xcmcr","People","","1458","","","","32","","8","","23","","","","1","","","","","1","","","","","150","1458","","","","","","","","","","","","","","","","","","","","","","","","",""
"","reward_outcome","","html-keyboard-response","260","1229997","0.0-211.0","0","0","Xcmcr","People","","1196","","","","38","","8","","23","","","","","","","","","","","","","","","","1","1196","","","","","","","","","","","","","","","","","","","","","","",""
"","block_over","","html-keyboard-response","261","1234510","0.0-213.0-0.0","0","0","Xcmcr","People","","4496","","","","78","","","","","","","","","","","","","","","","","","","","","","","","","","","","","","","","","","","","","","","","","","","",""
"","fixation","","html-keyboard-response","262","1235532","0.0-214.0","0","0","Xcmcr","People","","null","","","","null","","","","","","","","","","","","","","","","","","","","","","","","","","","","","","","","","","","","","","","","","","","",""
"","see_reward","","html-keyboard-response","263","1236966","0.0-215.0","0","0","Xcmcr","People","","1413","","","","32","","1","","24","","","","1","","","","","2","","","","","141","1413","","","","","","","","","","","","","","","","","","","","","","","","",""
"","reward_outcome","","html-keyboard-response","264","1238998","0.0-216.0","0","0","Xcmcr","People","","1071","","","","38","","1","","24","","","","","","","","","","","","","","","","1","1071","","","","","","","","","","","","","","","","","","","","","","",""
"","fixation","","html-keyboard-response","265","1240011","0.0-219.0","0","0","Xcmcr","People","","null","","","","null","","","","","","","","","","","","","","","","","","","","","","","","","","","","","","","","","","","","","","","","","","","",""
"","see_reward","","html-keyboard-response","266","1240810","0.0-220.0","0","0","Xcmcr","People","","785","","","","32","","3","","25","","","","-1","","","","","2","","","","","0","785","","","","","","","","","","","","","","","","","","","","","","","","",""
"","reward_outcome","","html-keyboard-response","267","1242817","0.0-221.0","0","0","Xcmcr","People","","1018","","","","40","","3","","25","","","","","","","","","","","","","","","","-1","1018","","","","","","","","","","","","","","","","","","","","","","",""
"","fixation","","html-keyboard-response","268","1243824","0.0-224.0","0","0","Xcmcr","People","","null","","","","null","","","","","","","","","","","","","","","","","","","","","","","","","","","","","","","","","","","","","","","","","","","",""
"","see_reward","","html-keyboard-response","269","1244572","0.0-225.0","0","0","Xcmcr","People","","731","","","","32","","27","","26","","","","-1","","","","","2","","","","","0","731","","","","","","","","","","","","","","","","","","","","","","","","",""
"","reward_outcome","","html-keyboard-response","270","1246578","0.0-226.0","0","0","Xcmcr","People","","803","","","","40","","27","","26","","","","","","","","","","","","","","","","-1","803","","","","","","","","","","","","","","","","","","","","","","",""
"","fixation","","html-keyboard-response","271","1247586","0.0-229.0","0","0","Xcmcr","People","","null","","","","null","","","","","","","","","","","","","","","","","","","","","","","","","","","","","","","","","","","","","","","","","","","",""
"","see_reward","","html-keyboard-response","272","1248444","0.0-230.0","0","0","Xcmcr","People","","841","","","","32","","11","","27","","","","1","","","","","2","","","","","155","841","","","","","","","","","","","","","","","","","","","","","","","","",""
"","reward_outcome","","html-keyboard-response","273","1250450","0.0-231.0","0","0","Xcmcr","People","","1016","","","","38","","11","","27","","","","","","","","","","","","","","","","1","1016","","","","","","","","","","","","","","","","","","","","","","",""
"","fixation","","html-keyboard-response","274","1251458","0.0-234.0","0","0","Xcmcr","People","","null","","","","null","","","","","","","","","","","","","","","","","","","","","","","","","","","","","","","","","","","","","","","","","","","",""
"","see_reward","","html-keyboard-response","275","1252265","0.0-235.0","0","0","Xcmcr","People","","801","","","","32","","1","","28","","","","1","","","","","2","","","","","141","801","","","","","","","","","","","","","","","","","","","","","","","","",""
"","reward_outcome","","html-keyboard-response","276","1254279","0.0-236.0","0","0","Xcmcr","People","","930","","","","38","","1","","28","","","","","","","","","","","","","","","","1","930","","","","","","","","","","","","","","","","","","","","","","",""
"","fixation","","html-keyboard-response","277","1255294","0.0-239.0","0","0","Xcmcr","People","","null","","","","null","","","","","","","","","","","","","","","","","","","","","","","","","","","","","","","","","","","","","","","","","","","",""
"","see_reward","","html-keyboard-response","278","1256119","0.0-240.0","0","0","Xcmcr","People","","806","","","","32","","8","","29","","","","1","","","","","2","","","","","150","806","","","","","","","","","","","","","","","","","","","","","","","","",""
"","reward_outcome","","html-keyboard-response","279","1258138","0.0-241.0","0","0","Xcmcr","People","","895","","","","38","","8","","29","","","","","","","","","","","","","","","","1","895","","","","","","","","","","","","","","","","","","","","","","",""
"","fixation","","html-keyboard-response","280","1259374","0.0-244.0","0","0","Xcmcr","People","","null","","","","null","","","","","","","","","","","","","","","","","","","","","","","","","","","","","","","","","","","","","","","","","","","",""
"","see_reward","","html-keyboard-response","281","1260079","0.0-245.0","0","0","Xcmcr","People","","634","","","","32","","7","","30","","","","-1","","","","","2","","","","","0","634","","","","","","","","","","","","","","","","","","","","","","","","",""
"","reward_outcome","","html-keyboard-response","282","1262091","0.0-246.0","0","0","Xcmcr","People","","742","","","","40","","7","","30","","","","","","","","","","","","","","","","-1","742","","","","","","","","","","","","","","","","","","","","","","",""
"","fixation","","html-keyboard-response","283","1263097","0.0-249.0","0","0","Xcmcr","People","","null","","","","null","","","","","","","","","","","","","","","","","","","","","","","","","","","","","","","","","","","","","","","","","","","",""
"","see_reward","","html-keyboard-response","284","1264080","0.0-250.0","0","0","Xcmcr","People","","979","","","","32","","46","","31","","","","1","","","","","2","","","","","157","979","","","","","","","","","","","","","","","","","","","","","","","","",""
"","reward_outcome","","html-keyboard-response","285","1266094","0.0-251.0","0","0","Xcmcr","People","","1177","","","","38","","46","","31","","","","","","","","","","","","","","","","1","1177","","","","","","","","","","","","","","","","","","","","","","",""
"","fixation","","html-keyboard-response","286","1267106","0.0-254.0","0","0","Xcmcr","People","","null","","","","null","","","","","","","","","","","","","","","","","","","","","","","","","","","","","","","","","","","","","","","","","","","",""
"","see_reward","","html-keyboard-response","287","1267767","0.0-255.0","0","0","Xcmcr","People","","643","","","","32","","8","","32","","","","1","","","","","2","","","","","150","643","","","","","","","","","","","","","","","","","","","","","","","","",""
"","reward_outcome","","html-keyboard-response","288","1269782","0.0-256.0","0","0","Xcmcr","People","","932","","","","38","","8","","32","","","","","","","","","","","","","","","","1","932","","","","","","","","","","","","","","","","","","","","","","",""
"","fixation","","html-keyboard-response","289","1270805","0.0-259.0","0","0","Xcmcr","People","","null","","","","null","","","","","","","","","","","","","","","","","","","","","","","","","","","","","","","","","","","","","","","","","","","",""
"","see_reward","","html-keyboard-response","290","1271750","0.0-260.0","0","0","Xcmcr","People","","936","","","","32","","7","","33","","","","-1","","","","","2","","","","","0","936","","","","","","","","","","","","","","","","","","","","","","","","",""
"","reward_outcome","","html-keyboard-response","291","1273773","0.0-261.0","0","0","Xcmcr","People","","960","","","","40","","7","","33","","","","","","","","","","","","","","","","-1","960","","","","","","","","","","","","","","","","","","","","","","",""
"","fixation","","html-keyboard-response","292","1274784","0.0-264.0","0","0","Xcmcr","People","","null","","","","null","","","","","","","","","","","","","","","","","","","","","","","","","","","","","","","","","","","","","","","","","","","",""
"","see_reward","","html-keyboard-response","293","1275584","0.0-265.0","0","0","Xcmcr","People","","795","","","","32","","46","","34","","","","1","","","","","2","","","","","157","795","","","","","","","","","","","","","","","","","","","","","","","","",""
"","reward_outcome","","html-keyboard-response","294","1277594","0.0-266.0","0","0","Xcmcr","People","","883","","","","38","","46","","34","","","","","","","","","","","","","","","","1","883","","","","","","","","","","","","","","","","","","","","","","",""
"","fixation","","html-keyboard-response","295","1278602","0.0-269.0","0","0","Xcmcr","People","","null","","","","null","","","","","","","","","","","","","","","","","","","","","","","","","","","","","","","","","","","","","","","","","","","",""
"","see_reward","","html-keyboard-response","296","1279240","0.0-270.0","0","0","Xcmcr","People","","633","","","","32","","11","","35","","","","1","","","","","2","","","","","155","633","","","","","","","","","","","","","","","","","","","","","","","","",""
"","reward_outcome","","html-keyboard-response","297","1281264","0.0-271.0","0","0","Xcmcr","People","","851","","","","38","","11","","35","","","","","","","","","","","","","","","","1","851","","","","","","","","","","","","","","","","","","","","","","",""
"","fixation","","html-keyboard-response","298","1282279","0.0-274.0","0","0","Xcmcr","People","","null","","","","null","","","","","","","","","","","","","","","","","","","","","","","","","","","","","","","","","","","","","","","","","","","",""
"","see_reward","","html-keyboard-response","299","1282944","0.0-275.0","0","0","Xcmcr","People","","650","","","","32","","35","","36","","","","-1","","","","","2","","","","","0","650","","","","","","","","","","","","","","","","","","","","","","","","",""
"","reward_outcome","","html-keyboard-response","300","1284954","0.0-276.0","0","0","Xcmcr","People","","907","","","","40","","35","","36","","","","","","","","","","","","","","","","-1","907","","","","","","","","","","","","","","","","","","","","","","",""
"","fixation","","html-keyboard-response","301","1285961","0.0-279.0","0","0","Xcmcr","People","","null","","","","null","","","","","","","","","","","","","","","","","","","","","","","","","","","","","","","","","","","","","","","","","","","",""
"","see_reward","","html-keyboard-response","302","1286795","0.0-280.0","0","0","Xcmcr","People","","815","","","","32","","22","","37","","","","-1","","","","","2","","","","","0","815","","","","","","","","","","","","","","","","","","","","","","","","",""
"","reward_outcome","","html-keyboard-response","303","1288817","0.0-281.0","0","0","Xcmcr","People","","1056","","","","40","","22","","37","","","","","","","","","","","","","","","","-1","1056","","","","","","","","","","","","","","","","","","","","","","",""
"","fixation","","html-keyboard-response","304","1289837","0.0-284.0","0","0","Xcmcr","People","","null","","","","null","","","","","","","","","","","","","","","","","","","","","","","","","","","","","","","","","","","","","","","","","","","",""
"","see_reward","","html-keyboard-response","305","1290649","0.0-285.0","0","0","Xcmcr","People","","805","","","","32","","24","","38","","","","1","","","","","2","","","","","149","805","","","","","","","","","","","","","","","","","","","","","","","","",""
"","reward_outcome","","html-keyboard-response","306","1292658","0.0-286.0","0","0","Xcmcr","People","","922","","","","38","","24","","38","","","","","","","","","","","","","","","","1","922","","","","","","","","","","","","","","","","","","","","","","",""
"","fixation","","html-keyboard-response","307","1293668","0.0-289.0","0","0","Xcmcr","People","","null","","","","null","","","","","","","","","","","","","","","","","","","","","","","","","","","","","","","","","","","","","","","","","","","",""
"","see_reward","","html-keyboard-response","308","1294466","0.0-290.0","0","0","Xcmcr","People","","792","","","","32","","3","","39","","","","-1","","","","","2","","","","","0","792","","","","","","","","","","","","","","","","","","","","","","","","",""
"","reward_outcome","","html-keyboard-response","309","1296482","0.0-291.0","0","0","Xcmcr","People","","1027","","","","40","","3","","39","","","","","","","","","","","","","","","","-1","1027","","","","","","","","","","","","","","","","","","","","","","",""
"","fixation","","html-keyboard-response","310","1297491","0.0-294.0","0","0","Xcmcr","People","","null","","","","null","","","","","","","","","","","","","","","","","","","","","","","","","","","","","","","","","","","","","","","","","","","",""
"","see_reward","","html-keyboard-response","311","1298342","0.0-295.0","0","0","Xcmcr","People","","846","","","","32","","31","","40","","","","-1","","","","","2","","","","","0","846","","","","","","","","","","","","","","","","","","","","","","","","",""
"","reward_outcome","","html-keyboard-response","312","1300357","0.0-296.0","0","0","Xcmcr","People","","1025","","","","40","","31","","40","","","","","","","","","","","","","","","","-1","1025","","","","","","","","","","","","","","","","","","","","","","",""
"","fixation","","html-keyboard-response","313","1301372","0.0-299.0","0","0","Xcmcr","People","","null","","","","null","","","","","","","","","","","","","","","","","","","","","","","","","","","","","","","","","","","","","","","","","","","",""
"","see_reward","","html-keyboard-response","314","1302302","0.0-300.0","0","0","Xcmcr","People","","917","","","","32","","49","","41","","","","1","","","","","2","","","","","152","917","","","","","","","","","","","","","","","","","","","","","","","","",""
"","reward_outcome","","html-keyboard-response","315","1304327","0.0-301.0","0","0","Xcmcr","People","","1238","","","","38","","49","","41","","","","","","","","","","","","","","","","1","1238","","","","","","","","","","","","","","","","","","","","","","",""
"","fixation","","html-keyboard-response","316","1305343","0.0-304.0","0","0","Xcmcr","People","","null","","","","null","","","","","","","","","","","","","","","","","","","","","","","","","","","","","","","","","","","","","","","","","","","",""
"","see_reward","","html-keyboard-response","317","1306542","0.0-305.0","0","0","Xcmcr","People","","1188","","","","32","","24","","42","","","","1","","","","","2","","","","","149","1188","","","","","","","","","","","","","","","","","","","","","","","","",""
"","reward_outcome","","html-keyboard-response","318","1308558","0.0-306.0","0","0","Xcmcr","People","","913","","","","38","","24","","42","","","","","","","","","","","","","","","","1","913","","","","","","","","","","","","","","","","","","","","","","",""
"","fixation","","html-keyboard-response","319","1309577","0.0-309.0","0","0","Xcmcr","People","","null","","","","null","","","","","","","","","","","","","","","","","","","","","","","","","","","","","","","","","","","","","","","","","","","",""
"","see_reward","","html-keyboard-response","320","1310926","0.0-310.0","0","0","Xcmcr","People","","1323","","","","32","","31","","43","","","","-1","","","","","2","","","","","0","1323","","","","","","","","","","","","","","","","","","","","","","","","",""
"","reward_outcome","","html-keyboard-response","321","1312949","0.0-311.0","0","0","Xcmcr","People","","792","","","","40","","31","","43","","","","","","","","","","","","","","","","-1","792","","","","","","","","","","","","","","","","","","","","","","",""
"","fixation","","html-keyboard-response","322","1313954","0.0-314.0","0","0","Xcmcr","People","","null","","","","null","","","","","","","","","","","","","","","","","","","","","","","","","","","","","","","","","","","","","","","","","","","",""
"","see_reward","","html-keyboard-response","323","1314261","0.0-315.0","0","0","Xcmcr","People","","301","","","","32","","22","","44","","","","-1","","","","","2","","","","","0","301","","","","","","","","","","","","","","","","","","","","","","","","",""
"","reward_outcome","","html-keyboard-response","324","1316280","0.0-316.0","0","0","Xcmcr","People","","1058","","","","40","","22","","44","","","","","","","","","","","","","","","","-1","1058","","","","","","","","","","","","","","","","","","","","","","",""
"","fixation","","html-keyboard-response","325","1317289","0.0-319.0","0","0","Xcmcr","People","","null","","","","null","","","","","","","","","","","","","","","","","","","","","","","","","","","","","","","","","","","","","","","","","","","",""
"","see_reward","","html-keyboard-response","326","1318458","0.0-320.0","0","0","Xcmcr","People","","1156","","","","32","","35","","45","","","","-1","","","","","2","","","","","0","1156","","","","","","","","","","","","","","","","","","","","","","","","",""
"","reward_outcome","","html-keyboard-response","327","1320469","0.0-321.0","0","0","Xcmcr","People","","1045","","","","40","","35","","45","","","","","","","","","","","","","","","","-1","1045","","","","","","","","","","","","","","","","","","","","","","",""
"","fixation","","html-keyboard-response","328","1321473","0.0-324.0","0","0","Xcmcr","People","","null","","","","null","","","","","","","","","","","","","","","","","","","","","","","","","","","","","","","","","","","","","","","","","","","",""
"","see_reward","","html-keyboard-response","329","1322376","0.0-325.0","0","0","Xcmcr","People","","890","","","","32","","27","","46","","","","-1","","","","","2","","","","","0","890","","","","","","","","","","","","","","","","","","","","","","","","",""
"","reward_outcome","","html-keyboard-response","330","1324388","0.0-326.0","0","0","Xcmcr","People","","792","","","","40","","27","","46","","","","","","","","","","","","","","","","-1","792","","","","","","","","","","","","","","","","","","","","","","",""
"","fixation","","html-keyboard-response","331","1325419","0.0-329.0","0","0","Xcmcr","People","","null","","","","null","","","","","","","","","","","","","","","","","","","","","","","","","","","","","","","","","","","","","","","","","","","",""
"","see_reward","","html-keyboard-response","332","1345123","0.0-330.0","0","0","Xcmcr","People","","19697","","","","32","","49","","47","","","","1","","","","","2","","","","","152","19697","","","","","","","","","","","","","","","","","","","","","","","","",""
"","reward_outcome","","html-keyboard-response","333","1347137","0.0-331.0","0","0","Xcmcr","People","","1139","","","","38","","49","","47","","","","","","","","","","","","","","","","1","1139","","","","","","","","","","","","","","","","","","","","","","",""
"","block_over","","html-keyboard-response","334","1349401","0.0-333.0-0.0","0","0","Xcmcr","People","","2245","","","","78","","","","","","","","","","","","","","","","","","","","","","","","","","","","","","","","","","","","","","","","","","","",""
"","fixation","","html-keyboard-response","335","1350418","0.0-334.0","0","0","Xcmcr","People","","null","","","","null","","","","","","","","","","","","","","","","","","","","","","","","","","","","","","","","","","","","","","","","","","","",""
"","see_reward","","html-keyboard-response","336","1351878","0.0-335.0","0","0","Xcmcr","People","","1449","","","","32","","35","","48","","","","-1","","","","","3","","","","","0","1449","","","","","","","","","","","","","","","","","","","","","","","","",""
"","reward_outcome","","html-keyboard-response","337","1353890","0.0-336.0","0","0","Xcmcr","People","","1069","","","","40","","35","","48","","","","","","","","","","","","","","","","-1","1069","","","","","","","","","","","","","","","","","","","","","","",""
"","fixation","","html-keyboard-response","338","1354934","0.0-339.0","0","0","Xcmcr","People","","null","","","","null","","","","","","","","","","","","","","","","","","","","","","","","","","","","","","","","","","","","","","","","","","","",""
"","see_reward","","html-keyboard-response","339","1355665","0.0-340.0","0","0","Xcmcr","People","","727","","","","32","","35","","49","","","","-1","","","","","3","","","","","0","727","","","","","","","","","","","","","","","","","","","","","","","","",""
"","reward_outcome","","html-keyboard-response","340","1357687","0.0-341.0","0","0","Xcmcr","People","","764","","","","40","","35","","49","","","","","","","","","","","","","","","","-1","764","","","","","","","","","","","","","","","","","","","","","","",""
"","fixation","","html-keyboard-response","341","1358700","0.0-344.0","0","0","Xcmcr","People","","null","","","","null","","","","","","","","","","","","","","","","","","","","","","","","","","","","","","","","","","","","","","","","","","","",""
"","see_reward","","html-keyboard-response","342","1359465","0.0-345.0","0","0","Xcmcr","People","","747","","","","32","","8","","50","","","","1","","","","","3","","","","","150","747","","","","","","","","","","","","","","","","","","","","","","","","",""
"","reward_outcome","","html-keyboard-response","343","1361486","0.0-346.0","0","0","Xcmcr","People","","1042","","","","38","","8","","50","","","","","","","","","","","","","","","","1","1042","","","","","","","","","","","","","","","","","","","","","","",""
"","fixation","","html-keyboard-response","344","1362514","0.0-349.0","0","0","Xcmcr","People","","null","","","","null","","","","","","","","","","","","","","","","","","","","","","","","","","","","","","","","","","","","","","","","","","","",""
"","see_reward","","html-keyboard-response","345","1363164","0.0-350.0","0","0","Xcmcr","People","","635","","","","32","","31","","51","","","","-1","","","","","3","","","","","0","635","","","","","","","","","","","","","","","","","","","","","","","","",""
"","reward_outcome","","html-keyboard-response","346","1365169","0.0-351.0","0","0","Xcmcr","People","","969","","","","40","","31","","51","","","","","","","","","","","","","","","","-1","969","","","","","","","","","","","","","","","","","","","","","","",""
"","fixation","","html-keyboard-response","347","1366183","0.0-354.0","0","0","Xcmcr","People","","null","","","","null","","","","","","","","","","","","","","","","","","","","","","","","","","","","","","","","","","","","","","","","","","","",""
"","see_reward","","html-keyboard-response","348","1366953","0.0-355.0","0","0","Xcmcr","People","","766","","","","32","","22","","52","","","","-1","","","","","3","","","","","0","766","","","","","","","","","","","","","","","","","","","","","","","","",""
"","reward_outcome","","html-keyboard-response","349","1368965","0.0-356.0","0","0","Xcmcr","People","","602","","","","40","","22","","52","","","","","","","","","","","","","","","","-1","602","","","","","","","","","","","","","","","","","","","","","","",""
"","fixation","","html-keyboard-response","350","1369973","0.0-359.0","0","0","Xcmcr","People","","null","","","","null","","","","","","","","","","","","","","","","","","","","","","","","","","","","","","","","","","","","","","","","","","","",""
"","see_reward","","html-keyboard-response","351","1370658","0.0-360.0","0","0","Xcmcr","People","","681","","","","32","","24","","53","","","","1","","","","","3","","","","","149","681","","","","","","","","","","","","","","","","","","","","","","","","",""
"","reward_outcome","","html-keyboard-response","352","1372666","0.0-361.0","0","0","Xcmcr","People","","991","","","","38","","24","","53","","","","","","","","","","","","","","","","1","991","","","","","","","","","","","","","","","","","","","","","","",""
