"success","ttype","start_time","trial_type","trial_index","time_elapsed","internal_node_id","warning","missed_checkup","PID","stim_type","view_history","rt","responses","repeat_instructions","key_press","response","stimulus_id","painting","index","stimulus_left","stimulus_right","explain_trial","reward_type","rating_left","rating_right","painting_left","painting_right","block","left_chosen","chosen_obj","unchosen_obj","explain_response","reward_amount","see_reward_rt","register_reward_response","register_reward_rt","deliberation_reward_tally","stimulus_left_deliberation_ind","stimulus_right_deliberation_ind","chosen_trial","gain_left","higher_outcome_chosen","old_pair","chosen_object","rt_pairs","left_object_chosen","rt_object","old_response","new_rating","deliberated_stim","initial_rating","outcome_eval_rt","outcome_eval_response","outcome_eval_gain","outcome_eval_acc","preamble","outcome_eval_confidence","outcome_eval_confidence_rt","total_reward_tally"
"true","full_screen","d01192023hr2305","fullscreen","0","7944","0.0-0.0","0","0","NIX0X","Scenes","","","","","","","","","","","","","","","","","","","","","","","","","","","","","","","","","","","","","","","","","","","","","","","","",""
"","rating_instructions","","instructions","1","18647","0.0-1.0-0.0","0","0","NIX0X","Scenes","[{""page_index"":0,""viewing_time"":9130},{""page_index"":1,""viewing_time"":1571}]","10701","","","","","","","","","","","","","","","","","","","","","","","","","","","","","","","","","","","","","","","","","","","","","","",""
"","rating_comprehension_check","","survey-multi-choice","2","23739","0.0-1.0-1.0","0","0","NIX0X","Scenes","","5087","{""Q0"":""True"",""Q1"":""Mouse""}","0","","","","","","","","","","","","","","","","","","","","","","","","","","","","","","","","","","","","","","","","","","","","",""
"","start_phase","","html-keyboard-response","3","25337","0.0-2.0","0","0","NIX0X","Scenes","","1594","","","78","","","","","","","","","","","","","","","","","","","","","","","","","","","","","","","","","","","","","","","","","","","",""
"","rating","","html-slider-response","4","37228","0.0-3.0","0","0","NIX0X","Scenes","","11888","","","","76","135","mohammad-alizade-4wzRuAb-KWs-unsplash.jpg","0","","","","","","","","","","","","","","","","","","","","","","","","","","","","","","","","","","","","","","","",""
"","rating","","html-slider-response","5","45448","0.0-4.0","0","0","NIX0X","Scenes","","8217","","","","94","143","sigurdur-fjalar-jonsson-1KxBabIntpE-unsplash.jpg","1","","","","","","","","","","","","","","","","","","","","","","","","","","","","","","","","","","","","","","","",""
"","rating","","html-slider-response","6","49922","0.0-5.0","0","0","NIX0X","Scenes","","4472","","","","100","138","petr-vysohlid-9fqwGqGLUxc-unsplash.jpg","2","","","","","","","","","","","","","","","","","","","","","","","","","","","","","","","","","","","","","","","",""
"","rating","","html-slider-response","7","55475","0.0-6.0","0","0","NIX0X","Scenes","","5550","","","","92","112","cosmic-timetraveler-pYyOZ8q7AII-unsplash.jpg","3","","","","","","","","","","","","","","","","","","","","","","","","","","","","","","","","","","","","","","","",""
"","rating","","html-slider-response","8","58602","0.0-7.0","0","0","NIX0X","Scenes","","3125","","","","37","105","ashim-d-silva-S2Q5mdOrrVc-unsplash.jpg","4","","","","","","","","","","","","","","","","","","","","","","","","","","","","","","","","","","","","","","","",""
"","rating","","html-slider-response","9","62150","0.0-8.0","0","0","NIX0X","Scenes","","3545","","","","61","127","kace-rodriguez-p3OzJuT_Dks-unsplash.jpg","5","","","","","","","","","","","","","","","","","","","","","","","","","","","","","","","","","","","","","","","",""
"","rating","","html-slider-response","10","65468","0.0-9.0","0","0","NIX0X","Scenes","","3315","","","","19","116","david-marcu-W5MhJ6cy1So-unsplash.jpg","6","","","","","","","","","","","","","","","","","","","","","","","","","","","","","","","","","","","","","","","",""
"","rating","","html-slider-response","11","69641","0.0-10.0","0","0","NIX0X","Scenes","","4171","","","","71","142","sergey-pesterev-y-b_FOmJXdg-unsplash.jpg","7","","","","","","","","","","","","","","","","","","","","","","","","","","","","","","","","","","","","","","","",""
"","rating","","html-slider-response","12","72909","0.0-11.0","0","0","NIX0X","Scenes","","3267","","","","90","141","sebastian-unrau-v4e3JI7DDHI-unsplash.jpg","8","","","","","","","","","","","","","","","","","","","","","","","","","","","","","","","","","","","","","","","",""
"","rating","","html-slider-response","13","78399","0.0-12.0","0","0","NIX0X","Scenes","","5487","","","","70","144","solotravelgoals-7kLufxYoqWk-unsplash.jpg","9","","","","","","","","","","","","","","","","","","","","","","","","","","","","","","","","","","","","","","","",""
"","rating","","html-slider-response","14","84910","0.0-13.0","0","0","NIX0X","Scenes","","6507","","","","42","118","henry-be-NLF6hTe4PAg-unsplash.jpg","10","","","","","","","","","","","","","","","","","","","","","","","","","","","","","","","","","","","","","","","",""
"","rating","","html-slider-response","15","89655","0.0-14.0","0","0","NIX0X","Scenes","","4743","","","","59","147","tobias-keller-73F4pKoUkM0-unsplash.jpg","11","","","","","","","","","","","","","","","","","","","","","","","","","","","","","","","","","","","","","","","",""
"","rating","","html-slider-response","16","92914","0.0-15.0","0","0","NIX0X","Scenes","","3257","","","","67","106","ashim-d-silva-WeYamle9fDM-unsplash.jpg","12","","","","","","","","","","","","","","","","","","","","","","","","","","","","","","","","","","","","","","","",""
"","rating","","html-slider-response","17","95782","0.0-16.0","0","0","NIX0X","Scenes","","2867","","","","80","107","benjamin-davies-Zm2n2O7Fph4-unsplash.jpg","13","","","","","","","","","","","","","","","","","","","","","","","","","","","","","","","","","","","","","","","",""
"","rating","","html-slider-response","18","99155","0.0-17.0","0","0","NIX0X","Scenes","","3371","","","","61","113","damian-denis-D8R_txR_0PE-unsplash.jpg","14","","","","","","","","","","","","","","","","","","","","","","","","","","","","","","","","","","","","","","","",""
"","rating","","html-slider-response","19","101901","0.0-18.0","0","0","NIX0X","Scenes","","2743","","","","57","121","jean-pierre-brungs-qxCqkbF7tUc-unsplash.jpg","15","","","","","","","","","","","","","","","","","","","","","","","","","","","","","","","","","","","","","","","",""
"","rating","","html-slider-response","20","106591","0.0-19.0","0","0","NIX0X","Scenes","","4688","","","","91","134","milada-vigerova-pQMM63GE7fo-unsplash.jpg","16","","","","","","","","","","","","","","","","","","","","","","","","","","","","","","","","","","","","","","","",""
"","rating","","html-slider-response","21","110675","0.0-20.0","0","0","NIX0X","Scenes","","4082","","","","71","130","lina-loos-04-C1NZk1hE-unsplash.jpg","17","","","","","","","","","","","","","","","","","","","","","","","","","","","","","","","","","","","","","","","",""
"","rating","","html-slider-response","22","113354","0.0-21.0","0","0","NIX0X","Scenes","","2677","","","","62","115","darrell-cassell-hoCXpPUMCoE-unsplash.jpg","18","","","","","","","","","","","","","","","","","","","","","","","","","","","","","","","","","","","","","","","",""
"","rating","","html-slider-response","23","118694","0.0-22.0","0","0","NIX0X","Scenes","","5336","","","","89","104","artem-sapegin-XGDBdSQ70O0-unsplash.jpg","19","","","","","","","","","","","","","","","","","","","","","","","","","","","","","","","","","","","","","","","",""
"","rating","","html-slider-response","24","121819","0.0-23.0","0","0","NIX0X","Scenes","","3123","","","","63","120","jarrett-kow-1ZOyYPOBn7I-unsplash.jpg","20","","","","","","","","","","","","","","","","","","","","","","","","","","","","","","","","","","","","","","","",""
"","rating","","html-slider-response","25","124576","0.0-24.0","0","0","NIX0X","Scenes","","2753","","","","77","148","tom-gainor-ZqLeQDjY6fY-unsplash.jpg","21","","","","","","","","","","","","","","","","","","","","","","","","","","","","","","","","","","","","","","","",""
"","rating","","html-slider-response","26","128013","0.0-25.0","0","0","NIX0X","Scenes","","3435","","","","71","125","john-lee-oMneOBYhJxY-unsplash.jpg","22","","","","","","","","","","","","","","","","","","","","","","","","","","","","","","","","","","","","","","","",""
"","rating","","html-slider-response","27","131015","0.0-26.0","0","0","NIX0X","Scenes","","2998","","","","65","149","yuriy-bogdanov-W51VK3Obcj0-unsplash.jpg","23","","","","","","","","","","","","","","","","","","","","","","","","","","","","","","","","","","","","","","","",""
"","rating","","html-slider-response","28","134785","0.0-27.0","0","0","NIX0X","Scenes","","3768","","","","79","100","aleksandra-boguslawska-MS7KD9Ti7FQ-unsplash.jpg","24","","","","","","","","","","","","","","","","","","","","","","","","","","","","","","","","","","","","","","","",""
"","rating","","html-slider-response","29","140637","0.0-28.0","0","0","NIX0X","Scenes","","5849","","","","73","140","samuele-errico-piccarini-JEBqFu2AOOA-unsplash.jpg","25","","","","","","","","","","","","","","","","","","","","","","","","","","","","","","","","","","","","","","","",""
"","rating","","html-slider-response","30","144656","0.0-29.0","0","0","NIX0X","Scenes","","4016","","","","88","108","benjamin-voros-phIFdC6lA4E-unsplash.jpg","26","","","","","","","","","","","","","","","","","","","","","","","","","","","","","","","","","","","","","","","",""
"","rating","","html-slider-response","31","148360","0.0-30.0","0","0","NIX0X","Scenes","","3702","","","","79","117","frank-mckenna-OD9EOzfSOh0-unsplash.jpg","27","","","","","","","","","","","","","","","","","","","","","","","","","","","","","","","","","","","","","","","",""
"","rating","","html-slider-response","32","153174","0.0-31.0","0","0","NIX0X","Scenes","","4809","","","","87","128","karsten-wurth-jS0zC2PJ17A-unsplash.jpg","28","","","","","","","","","","","","","","","","","","","","","","","","","","","","","","","","","","","","","","","",""
"","rating","","html-slider-response","33","156069","0.0-32.0","0","0","NIX0X","Scenes","","2892","","","","77","126","jordan-mcqueen-PJCZOWuOxbU-unsplash.jpg","29","","","","","","","","","","","","","","","","","","","","","","","","","","","","","","","","","","","","","","","",""
"","rating","","html-slider-response","34","162296","0.0-33.0","0","0","NIX0X","Scenes","","6223","","","","67","137","olga-stalska-QaWRyEdlffY-unsplash.jpg","30","","","","","","","","","","","","","","","","","","","","","","","","","","","","","","","","","","","","","","","",""
"","rating","","html-slider-response","35","165839","0.0-34.0","0","0","NIX0X","Scenes","","3538","","","","72","132","meng-ji-8BH_M-53CyA-unsplash.jpg","31","","","","","","","","","","","","","","","","","","","","","","","","","","","","","","","","","","","","","","","",""
"","rating","","html-slider-response","36","169028","0.0-35.0","0","0","NIX0X","Scenes","","3186","","","","78","110","bruno-van-der-kraan-qez8mNJ3ilU-unsplash.jpg","32","","","","","","","","","","","","","","","","","","","","","","","","","","","","","","","","","","","","","","","",""
"","rating","","html-slider-response","37","173182","0.0-36.0","0","0","NIX0X","Scenes","","4151","","","","65","133","mickey-o-neil-xL66l--msXU-unsplash.jpg","33","","","","","","","","","","","","","","","","","","","","","","","","","","","","","","","","","","","","","","","",""
"","rating","","html-slider-response","38","179295","0.0-37.0","0","0","NIX0X","Scenes","","6111","","","","71","139","samsommer-vddccTqwal8-unsplash.jpg","34","","","","","","","","","","","","","","","","","","","","","","","","","","","","","","","","","","","","","","","",""
"","rating","","html-slider-response","39","183970","0.0-38.0","0","0","NIX0X","Scenes","","4673","","","","71","146","thomas-morse-cuKKa0vWZSY-unsplash.jpg","35","","","","","","","","","","","","","","","","","","","","","","","","","","","","","","","","","","","","","","","",""
"","rating","","html-slider-response","40","187658","0.0-39.0","0","0","NIX0X","Scenes","","3684","","","","65","102","anisur-rahman-K2b7UDed6uQ-unsplash.jpg","36","","","","","","","","","","","","","","","","","","","","","","","","","","","","","","","","","","","","","","","",""
"","rating","","html-slider-response","41","193138","0.0-40.0","0","0","NIX0X","Scenes","","5477","","","","60","101","aniket-deole-T-tOgjWZ0fQ-unsplash.jpg","37","","","","","","","","","","","","","","","","","","","","","","","","","","","","","","","","","","","","","","","",""
"","rating","","html-slider-response","42","196140","0.0-41.0","0","0","NIX0X","Scenes","","3000","","","","72","123","joel-jasmin-forestbird-efuwb5eBDrI-unsplash.jpg","38","","","","","","","","","","","","","","","","","","","","","","","","","","","","","","","","","","","","","","","",""
"","rating","","html-slider-response","43","203054","0.0-42.0","0","0","NIX0X","Scenes","","6912","","","","45","114","daniel-sessler-z_9VmsxR8hs-unsplash.jpg","39","","","","","","","","","","","","","","","","","","","","","","","","","","","","","","","","","","","","","","","",""
"","rating","","html-slider-response","44","205944","0.0-43.0","0","0","NIX0X","Scenes","","2888","","","","67","103","anton-darius-FBJugtbHsWU-unsplash.jpg","40","","","","","","","","","","","","","","","","","","","","","","","","","","","","","","","","","","","","","","","",""
"","rating","","html-slider-response","45","208544","0.0-44.0","0","0","NIX0X","Scenes","","2598","","","","84","119","james-wheeler-AFC0XvICMgs-unsplash.jpg","41","","","","","","","","","","","","","","","","","","","","","","","","","","","","","","","","","","","","","","","",""
"","rating","","html-slider-response","46","211288","0.0-45.0","0","0","NIX0X","Scenes","","2742","","","","40","109","brigitta-schneiter-hXXRLtTxXCU-unsplash.jpg","42","","","","","","","","","","","","","","","","","","","","","","","","","","","","","","","","","","","","","","","",""
"","rating","","html-slider-response","47","214299","0.0-46.0","0","0","NIX0X","Scenes","","3008","","","","58","145","stephen-leonardi-gyIRjKPXupE-unsplash.jpg","43","","","","","","","","","","","","","","","","","","","","","","","","","","","","","","","","","","","","","","","",""
"","rating","","html-slider-response","48","219703","0.0-47.0","0","0","NIX0X","Scenes","","5401","","","","69","136","nicolas-jehly-LzVB84KkZOE-unsplash.jpg","44","","","","","","","","","","","","","","","","","","","","","","","","","","","","","","","","","","","","","","","",""
"","rating","","html-slider-response","49","222722","0.0-48.0","0","0","NIX0X","Scenes","","3017","","","","55","131","luca-bravo-hFzIoD0F_i8-unsplash.jpg","45","","","","","","","","","","","","","","","","","","","","","","","","","","","","","","","","","","","","","","","",""
"","rating","","html-slider-response","50","225870","0.0-49.0","0","0","NIX0X","Scenes","","3146","","","","61","122","jeff-king-bJHWJeiHfHc-unsplash.jpg","46","","","","","","","","","","","","","","","","","","","","","","","","","","","","","","","","","","","","","","","",""
"","rating","","html-slider-response","51","230421","0.0-50.0","0","0","NIX0X","Scenes","","4549","","","","72","124","johannes-plenio-sPt5RIjKfpk-unsplash.jpg","47","","","","","","","","","","","","","","","","","","","","","","","","","","","","","","","","","","","","","","","",""
"","rating","","html-slider-response","52","235263","0.0-51.0","0","0","NIX0X","Scenes","","4839","","","","39","129","kurt-cotoaga-cqbLg3lZEpk-unsplash.jpg","48","","","","","","","","","","","","","","","","","","","","","","","","","","","","","","","","","","","","","","","",""
"","rating","","html-slider-response","53","238372","0.0-52.0","0","0","NIX0X","Scenes","","3106","","","","61","111","claudio-testa-U3F2o6vz3bs-unsplash.jpg","49","","","","","","","","","","","","","","","","","","","","","","","","","","","","","","","","","","","","","","","",""
"","deliberation_instructions","","instructions","54","286156","0.0-53.0-0.0","0","0","NIX0X","Scenes","[{""page_index"":0,""viewing_time"":20466},{""page_index"":1,""viewing_time"":7765},{""page_index"":2,""viewing_time"":9091},{""page_index"":3,""viewing_time"":8994},{""page_index"":4,""viewing_time"":1463}]","47781","","","","","","","","","","","","","","","","","","","","","","","","","","","","","","","","","","","","","","","","","","","","","","",""
"","deliberation_comprehension_check","","survey-multi-choice","55","311994","0.0-53.0-1.0","0","0","NIX0X","Scenes","","25830","{""Q0"":""True"",""Q1"":""True"",""Q2"":""Consider carefully and take your time (up to 10 seconds)"",""Q3"":""True"",""Q4"":""D""}","0","","","","","","","","","","","","","","","","","","","","","","","","","","","","","","","","","","","","","","","","","","","","",""
"","start_phase","","html-keyboard-response","56","315414","0.0-54.0","0","0","NIX0X","Scenes","","3416","","","78","","","","","","","","","","","","","","","","","","","","","","","","","","","","","","","","","","","","","","","","","","","",""
"","first_deliberation_block","","html-keyboard-response","57","316421","0.0-55.0","0","0","NIX0X","Scenes","","1006","","","78","","","","","","","","","","","","","","","","","","","","","","","","","","","","","","","","","","","","","","","","","","","",""
"","fixation","","html-keyboard-response","58","317427","0.0-56.0-0.0","0","0","NIX0X","Scenes","","null","","","null","","","","","","","","","","","","","","","","","","","","","","","","","","","","","","","","","","","","","","","","","","","",""
"","deliberation","","html-keyboard-response","59","323858","0.0-56.0-1.0","0","0","NIX0X","Scenes","","6427","","","75","","","","0","136","124","1","1","69","72","nicolas-jehly-LzVB84KkZOE-unsplash.jpg","johannes-plenio-sPt5RIjKfpk-unsplash.jpg","1","0","124","136","","","","","","","","","","","","","","","","","","","","","","","","","","","",""
"","choice_confirmation","","html-keyboard-response","60","324374","0.0-56.0-2.0-0.0","0","0","NIX0X","Scenes","","null","","","null","","","","0","136","124","","","","","","","","","","","","","","","","","","","","","","","","","","","","","","","","","","","","","",""
"","explain_trial","","survey-text","61","338116","0.0-56.0-5.0-0.0","0","0","NIX0X","Scenes","","13738","{""Q0"":""It is more intriguing. The left is too barren""}","","","","","","0","136","124","","","","","","","","","","","{""Q0"":""It is more intriguing. The left is too barren""}","","","","","","","","","","","","","","","","","","","","","","","","","","",""
"","fixation","","html-keyboard-response","62","339127","0.0-57.0-0.0","0","0","NIX0X","Scenes","","null","","","null","","","","","","","","","","","","","","","","","","","","","","","","","","","","","","","","","","","","","","","","","","","",""
"","deliberation","","html-keyboard-response","63","343146","0.0-57.0-1.0","0","0","NIX0X","Scenes","","4016","","","75","","","","1","137","146","1","-1","67","71","olga-stalska-QaWRyEdlffY-unsplash.jpg","thomas-morse-cuKKa0vWZSY-unsplash.jpg","1","0","146","137","","","","","","","","","","","","","","","","","","","","","","","","","","","",""
"","choice_confirmation","","html-keyboard-response","64","343658","0.0-57.0-2.0-0.0","0","0","NIX0X","Scenes","","null","","","null","","","","1","137","146","","","","","","","","","","","","","","","","","","","","","","","","","","","","","","","","","","","","","",""
"","explain_trial","","survey-text","65","369154","0.0-57.0-5.0-0.0","0","0","NIX0X","Scenes","","25493","{""Q0"":""The colors are more intriguing. The left is not too interesting.""}","","","","","","1","137","146","","","","","","","","","","","{""Q0"":""The colors are more intriguing. The left is not too interesting.""}","","","","","","","","","","","","","","","","","","","","","","","","","","",""
"","fixation","","html-keyboard-response","66","370159","0.0-58.0-0.0","0","0","NIX0X","Scenes","","null","","","null","","","","","","","","","","","","","","","","","","","","","","","","","","","","","","","","","","","","","","","","","","","",""
"","deliberation","","html-keyboard-response","67","373789","0.0-58.0-1.0","0","0","NIX0X","Scenes","","3627","","","75","","","","2","115","103","1","-1","62","67","darrell-cassell-hoCXpPUMCoE-unsplash.jpg","anton-darius-FBJugtbHsWU-unsplash.jpg","1","0","103","115","","","","","","","","","","","","","","","","","","","","","","","","","","","",""
"","choice_confirmation","","html-keyboard-response","68","374308","0.0-58.0-2.0-0.0","0","0","NIX0X","Scenes","","null","","","null","","","","2","115","103","","","","","","","","","","","","","","","","","","","","","","","","","","","","","","","","","","","","","",""
"","explain_trial","","survey-text","69","397185","0.0-58.0-5.0-0.0","0","0","NIX0X","Scenes","","22874","{""Q0"":""It looks more lush. The left is just a beach, which is very common in art""}","","","","","","2","115","103","","","","","","","","","","","{""Q0"":""It looks more lush. The left is just a beach, which is very common in art""}","","","","","","","","","","","","","","","","","","","","","","","","","","",""
"","fixation","","html-keyboard-response","70","398199","0.0-59.0-0.0","0","0","NIX0X","Scenes","","null","","","null","","","","","","","","","","","","","","","","","","","","","","","","","","","","","","","","","","","","","","","","","","","",""
"","deliberation","","html-keyboard-response","71","404475","0.0-59.0-1.0","0","0","NIX0X","Scenes","","6273","","","75","","","","3","144","139","0","1","70","71","solotravelgoals-7kLufxYoqWk-unsplash.jpg","samsommer-vddccTqwal8-unsplash.jpg","1","0","139","144","","","","","","","","","","","","","","","","","","","","","","","","","","","",""
"","choice_confirmation","","html-keyboard-response","72","404998","0.0-59.0-2.0-0.0","0","0","NIX0X","Scenes","","null","","","null","","","","3","144","139","","","","","","","","","","","","","","","","","","","","","","","","","","","","","","","","","","","","","",""
"","fixation","","html-keyboard-response","73","406008","0.0-60.0-0.0","0","0","NIX0X","Scenes","","null","","","null","","","","","","","","","","","","","","","","","","","","","","","","","","","","","","","","","","","","","","","","","","","",""
"","deliberation","","html-keyboard-response","74","411954","0.0-60.0-1.0","0","0","NIX0X","Scenes","","5944","","","68","","","","4","135","132","1","1","76","72","mohammad-alizade-4wzRuAb-KWs-unsplash.jpg","meng-ji-8BH_M-53CyA-unsplash.jpg","1","1","135","132","","","","","","","","","","","","","","","","","","","","","","","","","","","",""
"","choice_confirmation","","html-keyboard-response","75","412464","0.0-60.0-2.0-0.0","0","0","NIX0X","Scenes","","null","","","null","","","","4","135","132","","","","","","","","","","","","","","","","","","","","","","","","","","","","","","","","","","","","","",""
"","explain_trial","","survey-text","76","428855","0.0-60.0-5.0-0.0","0","0","NIX0X","Scenes","","16389","{""Q0"":""It looks more serene. It makes me feel like relaxing.""}","","","","","","4","135","132","","","","","","","","","","","{""Q0"":""It looks more serene. It makes me feel like relaxing.""}","","","","","","","","","","","","","","","","","","","","","","","","","","",""
"","fixation","","html-keyboard-response","77","429875","0.0-61.0-0.0","0","0","NIX0X","Scenes","","null","","","null","","","","","","","","","","","","","","","","","","","","","","","","","","","","","","","","","","","","","","","","","","","",""
"","deliberation","","html-keyboard-response","78","436694","0.0-61.0-1.0","0","0","NIX0X","Scenes","","6817","","","68","","","","5","148","106","0","-1","77","67","tom-gainor-ZqLeQDjY6fY-unsplash.jpg","ashim-d-silva-WeYamle9fDM-unsplash.jpg","1","1","148","106","","","","","","","","","","","","","","","","","","","","","","","","","","","",""
"","choice_confirmation","","html-keyboard-response","79","437199","0.0-61.0-2.0-0.0","0","0","NIX0X","Scenes","","null","","","null","","","","5","148","106","","","","","","","","","","","","","","","","","","","","","","","","","","","","","","","","","","","","","",""
"","fixation","","html-keyboard-response","80","438212","0.0-62.0-0.0","0","0","NIX0X","Scenes","","null","","","null","","","","","","","","","","","","","","","","","","","","","","","","","","","","","","","","","","","","","","","","","","","",""
"","deliberation","","html-keyboard-response","81","443819","0.0-62.0-1.0","0","0","NIX0X","Scenes","","5604","","","68","","","","6","126","149","0","1","77","65","jordan-mcqueen-PJCZOWuOxbU-unsplash.jpg","yuriy-bogdanov-W51VK3Obcj0-unsplash.jpg","1","1","126","149","","","","","","","","","","","","","","","","","","","","","","","","","","","",""
"","choice_confirmation","","html-keyboard-response","82","444331","0.0-62.0-2.0-0.0","0","0","NIX0X","Scenes","","null","","","null","","","","6","126","149","","","","","","","","","","","","","","","","","","","","","","","","","","","","","","","","","","","","","",""
"","fixation","","html-keyboard-response","83","445336","0.0-63.0-0.0","0","0","NIX0X","Scenes","","null","","","null","","","","","","","","","","","","","","","","","","","","","","","","","","","","","","","","","","","","","","","","","","","",""
"","deliberation","","html-keyboard-response","84","452600","0.0-63.0-1.0","0","0","NIX0X","Scenes","","7261","","","68","","","","7","120","125","0","-1","63","71","jarrett-kow-1ZOyYPOBn7I-unsplash.jpg","john-lee-oMneOBYhJxY-unsplash.jpg","1","1","120","125","","","","","","","","","","","","","","","","","","","","","","","","","","","",""
"","choice_confirmation","","html-keyboard-response","85","453118","0.0-63.0-2.0-0.0","0","0","NIX0X","Scenes","","null","","","null","","","","7","120","125","","","","","","","","","","","","","","","","","","","","","","","","","","","","","","","","","","","","","",""
"","fixation","","html-keyboard-response","86","454133","0.0-64.0-0.0","0","0","NIX0X","Scenes","","null","","","null","","","","","","","","","","","","","","","","","","","","","","","","","","","","","","","","","","","","","","","","","","","",""
"","deliberation","","html-keyboard-response","87","464141","0.0-64.0-1.0","0","0","NIX0X","Scenes","","null","","","null","","","","8","140","122","1","-1","73","61","samuele-errico-piccarini-JEBqFu2AOOA-unsplash.jpg","jeff-king-bJHWJeiHfHc-unsplash.jpg","1","","","","","","","","","","","","","","","","","","","","","","","","","","","","","","",""
"","deliberation_too_slow","","html-keyboard-response","88","465661","0.0-64.0-4.0-0.0","1","0","NIX0X","Scenes","","null","","","null","","","","8","","","","","","","","","","","","","","","","","","","","","","","","","","","","","","","","","","","","","","","",""
"","fixation","","html-keyboard-response","89","466681","0.0-64.1-0.1","0","0","NIX0X","Scenes","","null","","","null","","","","","","","","","","","","","","","","","","","","","","","","","","","","","","","","","","","","","","","","","","","",""
"","deliberation","","html-keyboard-response","90","469675","0.0-64.1-1.1","0","0","NIX0X","Scenes","","2992","","","75","","","","8","140","122","1","-1","73","61","samuele-errico-piccarini-JEBqFu2AOOA-unsplash.jpg","jeff-king-bJHWJeiHfHc-unsplash.jpg","1","0","122","140","","","","","","","","","","","","","","","","","","","","","","","","","","","",""
"","choice_confirmation","","html-keyboard-response","91","470182","0.0-64.1-2.1-0.1","0","0","NIX0X","Scenes","","null","","","null","","","","8","140","122","","","","","","","","","","","","","","","","","","","","","","","","","","","","","","","","","","","","","",""
"","explain_trial","","survey-text","92","486275","0.0-64.1-5.1-0.1","0","0","NIX0X","Scenes","","16090","{""Q0"":""There is a focal point, which is the tree.""}","","","","","","8","140","122","","","","","","","","","","","{""Q0"":""There is a focal point, which is the tree.""}","","","","","","","","","","","","","","","","","","","","","","","","","","",""
"","fixation","","html-keyboard-response","93","487294","0.0-65.0-0.0","0","0","NIX0X","Scenes","","null","","","null","","","","","","","","","","","","","","","","","","","","","","","","","","","","","","","","","","","","","","","","","","","",""
"","deliberation","","html-keyboard-response","94","490594","0.0-65.0-1.0","0","0","NIX0X","Scenes","","3298","","","68","","","","9","142","102","1","-1","71","65","sergey-pesterev-y-b_FOmJXdg-unsplash.jpg","anisur-rahman-K2b7UDed6uQ-unsplash.jpg","1","1","142","102","","","","","","","","","","","","","","","","","","","","","","","","","","","",""
"","choice_confirmation","","html-keyboard-response","95","491110","0.0-65.0-2.0-0.0","0","0","NIX0X","Scenes","","null","","","null","","","","9","142","102","","","","","","","","","","","","","","","","","","","","","","","","","","","","","","","","","","","","","",""
"","explain_trial","","survey-text","96","503390","0.0-65.0-5.0-0.0","0","0","NIX0X","Scenes","","12278","{""Q0"":""The glass on the ground is very detailed.""}","","","","","","9","142","102","","","","","","","","","","","{""Q0"":""The glass on the ground is very detailed.""}","","","","","","","","","","","","","","","","","","","","","","","","","","",""
"","fixation","","html-keyboard-response","97","504403","0.0-66.0-0.0","0","0","NIX0X","Scenes","","null","","","null","","","","","","","","","","","","","","","","","","","","","","","","","","","","","","","","","","","","","","","","","","","",""
"","deliberation","","html-keyboard-response","98","508773","0.0-66.0-1.0","0","0","NIX0X","Scenes","","4368","","","68","","","","10","133","123","0","1","65","72","mickey-o-neil-xL66l--msXU-unsplash.jpg","joel-jasmin-forestbird-efuwb5eBDrI-unsplash.jpg","1","1","133","123","","","","","","","","","","","","","","","","","","","","","","","","","","","",""
"","choice_confirmation","","html-keyboard-response","99","509292","0.0-66.0-2.0-0.0","0","0","NIX0X","Scenes","","null","","","null","","","","10","133","123","","","","","","","","","","","","","","","","","","","","","","","","","","","","","","","","","","","","","",""
"","fixation","","html-keyboard-response","100","510304","0.0-67.0-0.0","0","0","NIX0X","Scenes","","null","","","null","","","","","","","","","","","","","","","","","","","","","","","","","","","","","","","","","","","","","","","","","","","",""
"","deliberation","","html-keyboard-response","101","515397","0.0-67.0-1.0","0","0","NIX0X","Scenes","","5090","","","75","","","","11","130","111","0","1","71","61","lina-loos-04-C1NZk1hE-unsplash.jpg","claudio-testa-U3F2o6vz3bs-unsplash.jpg","1","0","111","130","","","","","","","","","","","","","","","","","","","","","","","","","","","",""
"","choice_confirmation","","html-keyboard-response","102","515915","0.0-67.0-2.0-0.0","0","0","NIX0X","Scenes","","null","","","null","","","","11","130","111","","","","","","","","","","","","","","","","","","","","","","","","","","","","","","","","","","","","","",""
"","practice_deliberation_again","","html-keyboard-response","103","519354","0.0-67.0-6.0-0.0","0","0","NIX0X","Scenes","","3436","","","78","","","","","","","","","","","","","","","","","","","","","","","","","","","","","","","","","","","","","","","","","","","",""
"","fixation","","html-keyboard-response","104","520380","0.0-68.0-0.0","0","0","NIX0X","Scenes","","null","","","null","","","","","","","","","","","","","","","","","","","","","","","","","","","","","","","","","","","","","","","","","","","",""
"","deliberation","","html-keyboard-response","105","526905","0.0-68.0-1.0","0","0","NIX0X","Scenes","","6523","","","75","","","","12","148","106","1","-1","77","67","tom-gainor-ZqLeQDjY6fY-unsplash.jpg","ashim-d-silva-WeYamle9fDM-unsplash.jpg","2","0","106","148","","","","","","","","","","","","","","","","","","","","","","","","","","","",""
"","choice_confirmation","","html-keyboard-response","106","527428","0.0-68.0-2.0-0.0","0","0","NIX0X","Scenes","","null","","","null","","","","12","148","106","","","","","","","","","","","","","","","","","","","","","","","","","","","","","","","","","","","","","",""
"","explain_trial","","survey-text","107","548960","0.0-68.0-5.0-0.0","0","0","NIX0X","Scenes","","21530","{""Q0"":""The way the mountains curve looks interesting, and the colors are vibrant""}","","","","","","12","148","106","","","","","","","","","","","{""Q0"":""The way the mountains curve looks interesting, and the colors are vibrant""}","","","","","","","","","","","","","","","","","","","","","","","","","","",""
"","fixation","","html-keyboard-response","108","549973","0.0-69.0-0.0","0","0","NIX0X","Scenes","","null","","","null","","","","","","","","","","","","","","","","","","","","","","","","","","","","","","","","","","","","","","","","","","","",""
"","deliberation","","html-keyboard-response","109","553514","0.0-69.0-1.0","0","0","NIX0X","Scenes","","3537","","","75","","","","13","144","139","1","1","70","71","solotravelgoals-7kLufxYoqWk-unsplash.jpg","samsommer-vddccTqwal8-unsplash.jpg","2","0","139","144","","","","","","","","","","","","","","","","","","","","","","","","","","","",""
"","choice_confirmation","","html-keyboard-response","110","554023","0.0-69.0-2.0-0.0","0","0","NIX0X","Scenes","","null","","","null","","","","13","144","139","","","","","","","","","","","","","","","","","","","","","","","","","","","","","","","","","","","","","",""
"","explain_trial","","survey-text","111","564551","0.0-69.0-5.0-0.0","0","0","NIX0X","Scenes","","10524","{""Q0"":""The mountain in the center is very detailed""}","","","","","","13","144","139","","","","","","","","","","","{""Q0"":""The mountain in the center is very detailed""}","","","","","","","","","","","","","","","","","","","","","","","","","","",""
"","fixation","","html-keyboard-response","112","565562","0.0-70.0-0.0","0","0","NIX0X","Scenes","","null","","","null","","","","","","","","","","","","","","","","","","","","","","","","","","","","","","","","","","","","","","","","","","","",""
"","deliberation","","html-keyboard-response","113","567409","0.0-70.0-1.0","0","0","NIX0X","Scenes","","1845","","","68","","","","14","126","149","1","1","77","65","jordan-mcqueen-PJCZOWuOxbU-unsplash.jpg","yuriy-bogdanov-W51VK3Obcj0-unsplash.jpg","2","1","126","149","","","","","","","","","","","","","","","","","","","","","","","","","","","",""
"","choice_confirmation","","html-keyboard-response","114","567913","0.0-70.0-2.0-0.0","0","0","NIX0X","Scenes","","null","","","null","","","","14","126","149","","","","","","","","","","","","","","","","","","","","","","","","","","","","","","","","","","","","","",""
"","explain_trial","","survey-text","115","597458","0.0-70.0-5.0-0.0","0","0","NIX0X","Scenes","","29541","{""Q0"":""It is more detailed and vibrant with the sunset in the center""}","","","","","","14","126","149","","","","","","","","","","","{""Q0"":""It is more detailed and vibrant with the sunset in the center""}","","","","","","","","","","","","","","","","","","","","","","","","","","",""
"","fixation","","html-keyboard-response","116","598469","0.0-71.0-0.0","0","0","NIX0X","Scenes","","null","","","null","","","","","","","","","","","","","","","","","","","","","","","","","","","","","","","","","","","","","","","","","","","",""
"","deliberation","","html-keyboard-response","117","600492","0.0-71.0-1.0","0","0","NIX0X","Scenes","","2021","","","75","","","","15","130","111","1","1","71","61","lina-loos-04-C1NZk1hE-unsplash.jpg","claudio-testa-U3F2o6vz3bs-unsplash.jpg","2","0","111","130","","","","","","","","","","","","","","","","","","","","","","","","","","","",""
"","choice_confirmation","","html-keyboard-response","118","601006","0.0-71.0-2.0-0.0","0","0","NIX0X","Scenes","","null","","","null","","","","15","130","111","","","","","","","","","","","","","","","","","","","","","","","","","","","","","","","","","","","","","",""
"","explain_trial","","survey-text","119","614911","0.0-71.0-5.0-0.0","0","0","NIX0X","Scenes","","13902","{""Q0"":""It is more vibrant and makes me want to walk on the trail""}","","","","","","15","130","111","","","","","","","","","","","{""Q0"":""It is more vibrant and makes me want to walk on the trail""}","","","","","","","","","","","","","","","","","","","","","","","","","","",""
"","fixation","","html-keyboard-response","120","615929","0.0-72.0-0.0","0","0","NIX0X","Scenes","","null","","","null","","","","","","","","","","","","","","","","","","","","","","","","","","","","","","","","","","","","","","","","","","","",""
"","deliberation","","html-keyboard-response","121","618907","0.0-72.0-1.0","0","0","NIX0X","Scenes","","2976","","","75","","","","16","115","103","0","-1","62","67","darrell-cassell-hoCXpPUMCoE-unsplash.jpg","anton-darius-FBJugtbHsWU-unsplash.jpg","2","0","103","115","","","","","","","","","","","","","","","","","","","","","","","","","","","",""
"","choice_confirmation","","html-keyboard-response","122","619423","0.0-72.0-2.0-0.0","0","0","NIX0X","Scenes","","null","","","null","","","","16","115","103","","","","","","","","","","","","","","","","","","","","","","","","","","","","","","","","","","","","","",""
"","fixation","","html-keyboard-response","123","620428","0.0-73.0-0.0","0","0","NIX0X","Scenes","","null","","","null","","","","","","","","","","","","","","","","","","","","","","","","","","","","","","","","","","","","","","","","","","","",""
"","deliberation","","html-keyboard-response","124","622856","0.0-73.0-1.0","0","0","NIX0X","Scenes","","2426","","","68","","","","17","120","125","1","-1","63","71","jarrett-kow-1ZOyYPOBn7I-unsplash.jpg","john-lee-oMneOBYhJxY-unsplash.jpg","2","1","120","125","","","","","","","","","","","","","","","","","","","","","","","","","","","",""
"","choice_confirmation","","html-keyboard-response","125","623365","0.0-73.0-2.0-0.0","0","0","NIX0X","Scenes","","null","","","null","","","","17","120","125","","","","","","","","","","","","","","","","","","","","","","","","","","","","","","","","","","","","","",""
"","explain_trial","","survey-text","126","640930","0.0-73.0-5.0-0.0","0","0","NIX0X","Scenes","","17563","{""Q0"":""It looks very interesting with the contrast of red and blue""}","","","","","","17","120","125","","","","","","","","","","","{""Q0"":""It looks very interesting with the contrast of red and blue""}","","","","","","","","","","","","","","","","","","","","","","","","","","",""
"","fixation","","html-keyboard-response","127","641952","0.0-74.0-0.0","0","0","NIX0X","Scenes","","null","","","null","","","","","","","","","","","","","","","","","","","","","","","","","","","","","","","","","","","","","","","","","","","",""
"","deliberation","","html-keyboard-response","128","645936","0.0-74.0-1.0","0","0","NIX0X","Scenes","","3981","","","75","","","","18","136","124","0","1","69","72","nicolas-jehly-LzVB84KkZOE-unsplash.jpg","johannes-plenio-sPt5RIjKfpk-unsplash.jpg","2","0","124","136","","","","","","","","","","","","","","","","","","","","","","","","","","","",""
"","choice_confirmation","","html-keyboard-response","129","646450","0.0-74.0-2.0-0.0","0","0","NIX0X","Scenes","","null","","","null","","","","18","136","124","","","","","","","","","","","","","","","","","","","","","","","","","","","","","","","","","","","","","",""
"","fixation","","html-keyboard-response","130","647475","0.0-75.0-0.0","0","0","NIX0X","Scenes","","null","","","null","","","","","","","","","","","","","","","","","","","","","","","","","","","","","","","","","","","","","","","","","","","",""
"","deliberation","","html-keyboard-response","131","649458","0.0-75.0-1.0","0","0","NIX0X","Scenes","","1981","","","68","","","","19","135","132","0","1","76","72","mohammad-alizade-4wzRuAb-KWs-unsplash.jpg","meng-ji-8BH_M-53CyA-unsplash.jpg","2","1","135","132","","","","","","","","","","","","","","","","","","","","","","","","","","","",""
"","choice_confirmation","","html-keyboard-response","132","649981","0.0-75.0-2.0-0.0","0","0","NIX0X","Scenes","","null","","","null","","","","19","135","132","","","","","","","","","","","","","","","","","","","","","","","","","","","","","","","","","","","","","",""
"","fixation","","html-keyboard-response","133","650992","0.0-76.0-0.0","0","0","NIX0X","Scenes","","null","","","null","","","","","","","","","","","","","","","","","","","","","","","","","","","","","","","","","","","","","","","","","","","",""
"","deliberation","","html-keyboard-response","134","652677","0.0-76.0-1.0","0","0","NIX0X","Scenes","","1684","","","68","","","","20","142","102","0","-1","71","65","sergey-pesterev-y-b_FOmJXdg-unsplash.jpg","anisur-rahman-K2b7UDed6uQ-unsplash.jpg","2","1","142","102","","","","","","","","","","","","","","","","","","","","","","","","","","","",""
"","choice_confirmation","","html-keyboard-response","135","653183","0.0-76.0-2.0-0.0","0","0","NIX0X","Scenes","","null","","","null","","","","20","142","102","","","","","","","","","","","","","","","","","","","","","","","","","","","","","","","","","","","","","",""
"","fixation","","html-keyboard-response","136","654187","0.0-77.0-0.0","0","0","NIX0X","Scenes","","null","","","null","","","","","","","","","","","","","","","","","","","","","","","","","","","","","","","","","","","","","","","","","","","",""
"","deliberation","","html-keyboard-response","137","655800","0.0-77.0-1.0","0","0","NIX0X","Scenes","","1612","","","68","","","","21","140","122","0","-1","73","61","samuele-errico-piccarini-JEBqFu2AOOA-unsplash.jpg","jeff-king-bJHWJeiHfHc-unsplash.jpg","2","1","140","122","","","","","","","","","","","","","","","","","","","","","","","","","","","",""
"","choice_confirmation","","html-keyboard-response","138","656313","0.0-77.0-2.0-0.0","0","0","NIX0X","Scenes","","null","","","null","","","","21","140","122","","","","","","","","","","","","","","","","","","","","","","","","","","","","","","","","","","","","","",""
"","fixation","","html-keyboard-response","139","657336","0.0-78.0-0.0","0","0","NIX0X","Scenes","","null","","","null","","","","","","","","","","","","","","","","","","","","","","","","","","","","","","","","","","","","","","","","","","","",""
"","deliberation","","html-keyboard-response","140","660398","0.0-78.0-1.0","0","0","NIX0X","Scenes","","3061","","","68","","","","22","133","123","1","1","65","72","mickey-o-neil-xL66l--msXU-unsplash.jpg","joel-jasmin-forestbird-efuwb5eBDrI-unsplash.jpg","2","1","133","123","","","","","","","","","","","","","","","","","","","","","","","","","","","",""
"","choice_confirmation","","html-keyboard-response","141","660907","0.0-78.0-2.0-0.0","0","0","NIX0X","Scenes","","null","","","null","","","","22","133","123","","","","","","","","","","","","","","","","","","","","","","","","","","","","","","","","","","","","","",""
"","explain_trial","","survey-text","142","680744","0.0-78.0-5.0-0.0","0","0","NIX0X","Scenes","","19834","{""Q0"":""It has more of an aesthetic appeal. The bright blue boat on a sand with the ocean in the background""}","","","","","","22","133","123","","","","","","","","","","","{""Q0"":""It has more of an aesthetic appeal. The bright blue boat on a sand with the ocean in the background""}","","","","","","","","","","","","","","","","","","","","","","","","","","",""
"","fixation","","html-keyboard-response","143","681766","0.0-79.0-0.0","0","0","NIX0X","Scenes","","null","","","null","","","","","","","","","","","","","","","","","","","","","","","","","","","","","","","","","","","","","","","","","","","",""
"","deliberation","","html-keyboard-response","144","683550","0.0-79.0-1.0","0","0","NIX0X","Scenes","","1782","","","75","","","","23","137","146","0","-1","67","71","olga-stalska-QaWRyEdlffY-unsplash.jpg","thomas-morse-cuKKa0vWZSY-unsplash.jpg","2","0","146","137","","","","","","","","","","","","","","","","","","","","","","","","","","","",""
"","choice_confirmation","","html-keyboard-response","145","684065","0.0-79.0-2.0-0.0","0","0","NIX0X","Scenes","","null","","","null","","","","23","137","146","","","","","","","","","","","","","","","","","","","","","","","","","","","","","","","","","","","","","",""
"","start_critical_deliberation_block","","html-keyboard-response","146","687032","0.0-79.0-7.0-0.0","0","0","NIX0X","Scenes","","2965","","","78","","","","","","","","","","","","","","","","","","","","","","","","","","","","","","","","","","","","","","","","","","","",""
"","fixation","","html-keyboard-response","147","688050","0.0-80.0-0.0","0","0","NIX0X","Scenes","","null","","","null","","","","","","","","","","","","","","","","","","","","","","","","","","","","","","","","","","","","","","","","","","","",""
"","deliberation","","html-keyboard-response","148","691579","0.0-80.0-1.0","0","0","NIX0X","Scenes","","3525","","","75","","","","24","148","106","0","-1","77","67","tom-gainor-ZqLeQDjY6fY-unsplash.jpg","ashim-d-silva-WeYamle9fDM-unsplash.jpg","3","0","106","148","","","","","","","","","","","","","","","","","","","","","","","","","","","",""
"","choice_confirmation","","html-keyboard-response","149","692090","0.0-80.0-2.0-0.0","0","0","NIX0X","Scenes","","null","","","null","","","","24","148","106","","","","","","","","","","","","","","","","","","","","","","","","","","","","","","","","","","","","","",""
"","fixation","","html-keyboard-response","150","693103","0.0-81.0-0.0","0","0","NIX0X","Scenes","","null","","","null","","","","","","","","","","","","","","","","","","","","","","","","","","","","","","","","","","","","","","","","","","","",""
"","deliberation","","html-keyboard-response","151","698862","0.0-81.0-1.0","0","0","NIX0X","Scenes","","5756","","","75","","","","25","144","139","0","1","70","71","solotravelgoals-7kLufxYoqWk-unsplash.jpg","samsommer-vddccTqwal8-unsplash.jpg","3","0","139","144","","","","","","","","","","","","","","","","","","","","","","","","","","","",""
"","choice_confirmation","","html-keyboard-response","152","699380","0.0-81.0-2.0-0.0","0","0","NIX0X","Scenes","","null","","","null","","","","25","144","139","","","","","","","","","","","","","","","","","","","","","","","","","","","","","","","","","","","","","",""
"","fixation","","html-keyboard-response","153","700399","0.0-82.0-0.0","0","0","NIX0X","Scenes","","null","","","null","","","","","","","","","","","","","","","","","","","","","","","","","","","","","","","","","","","","","","","","","","","",""
"","deliberation","","html-keyboard-response","154","701502","0.0-82.0-1.0","0","0","NIX0X","Scenes","","1101","","","75","","","","26","115","103","0","-1","62","67","darrell-cassell-hoCXpPUMCoE-unsplash.jpg","anton-darius-FBJugtbHsWU-unsplash.jpg","3","0","103","115","","","","","","","","","","","","","","","","","","","","","","","","","","","",""
"","choice_confirmation","","html-keyboard-response","155","702017","0.0-82.0-2.0-0.0","0","0","NIX0X","Scenes","","null","","","null","","","","26","115","103","","","","","","","","","","","","","","","","","","","","","","","","","","","","","","","","","","","","","",""
"","fixation","","html-keyboard-response","156","703035","0.0-83.0-0.0","0","0","NIX0X","Scenes","","null","","","null","","","","","","","","","","","","","","","","","","","","","","","","","","","","","","","","","","","","","","","","","","","",""
"","deliberation","","html-keyboard-response","157","706993","0.0-83.0-1.0","0","0","NIX0X","Scenes","","3954","","","75","","","","27","136","124","0","1","69","72","nicolas-jehly-LzVB84KkZOE-unsplash.jpg","johannes-plenio-sPt5RIjKfpk-unsplash.jpg","3","0","124","136","","","","","","","","","","","","","","","","","","","","","","","","","","","",""
"","choice_confirmation","","html-keyboard-response","158","707507","0.0-83.0-2.0-0.0","0","0","NIX0X","Scenes","","null","","","null","","","","27","136","124","","","","","","","","","","","","","","","","","","","","","","","","","","","","","","","","","","","","","",""
"","fixation","","html-keyboard-response","159","708519","0.0-84.0-0.0","0","0","NIX0X","Scenes","","null","","","null","","","","","","","","","","","","","","","","","","","","","","","","","","","","","","","","","","","","","","","","","","","",""
"","deliberation","","html-keyboard-response","160","709557","0.0-84.0-1.0","0","0","NIX0X","Scenes","","1036","","","68","","","","28","133","123","0","1","65","72","mickey-o-neil-xL66l--msXU-unsplash.jpg","joel-jasmin-forestbird-efuwb5eBDrI-unsplash.jpg","3","1","133","123","","","","","","","","","","","","","","","","","","","","","","","","","","","",""
"","choice_confirmation","","html-keyboard-response","161","710070","0.0-84.0-2.0-0.0","0","0","NIX0X","Scenes","","null","","","null","","","","28","133","123","","","","","","","","","","","","","","","","","","","","","","","","","","","","","","","","","","","","","",""
"","fixation","","html-keyboard-response","162","711079","0.0-85.0-0.0","0","0","NIX0X","Scenes","","null","","","null","","","","","","","","","","","","","","","","","","","","","","","","","","","","","","","","","","","","","","","","","","","",""
"","deliberation","","html-keyboard-response","163","711835","0.0-85.0-1.0","0","0","NIX0X","Scenes","","753","","","68","","","","29","135","132","0","1","76","72","mohammad-alizade-4wzRuAb-KWs-unsplash.jpg","meng-ji-8BH_M-53CyA-unsplash.jpg","3","1","135","132","","","","","","","","","","","","","","","","","","","","","","","","","","","",""
"","choice_confirmation","","html-keyboard-response","164","712340","0.0-85.0-2.0-0.0","0","0","NIX0X","Scenes","","null","","","null","","","","29","135","132","","","","","","","","","","","","","","","","","","","","","","","","","","","","","","","","","","","","","",""
"","fixation","","html-keyboard-response","165","713356","0.0-86.0-0.0","0","0","NIX0X","Scenes","","null","","","null","","","","","","","","","","","","","","","","","","","","","","","","","","","","","","","","","","","","","","","","","","","",""
"","deliberation","","html-keyboard-response","166","716883","0.0-86.0-1.0","0","0","NIX0X","Scenes","","3524","","","68","","","","30","126","149","0","1","77","65","jordan-mcqueen-PJCZOWuOxbU-unsplash.jpg","yuriy-bogdanov-W51VK3Obcj0-unsplash.jpg","3","1","126","149","","","","","","","","","","","","","","","","","","","","","","","","","","","",""
"","choice_confirmation","","html-keyboard-response","167","717397","0.0-86.0-2.0-0.0","0","0","NIX0X","Scenes","","null","","","null","","","","30","126","149","","","","","","","","","","","","","","","","","","","","","","","","","","","","","","","","","","","","","",""
"","fixation","","html-keyboard-response","168","718406","0.0-87.0-0.0","0","0","NIX0X","Scenes","","null","","","null","","","","","","","","","","","","","","","","","","","","","","","","","","","","","","","","","","","","","","","","","","","",""
"","deliberation","","html-keyboard-response","169","719308","0.0-87.0-1.0","0","0","NIX0X","Scenes","","900","","","75","","","","31","137","146","0","-1","67","71","olga-stalska-QaWRyEdlffY-unsplash.jpg","thomas-morse-cuKKa0vWZSY-unsplash.jpg","3","0","146","137","","","","","","","","","","","","","","","","","","","","","","","","","","","",""
"","choice_confirmation","","html-keyboard-response","170","719815","0.0-87.0-2.0-0.0","0","0","NIX0X","Scenes","","null","","","null","","","","31","137","146","","","","","","","","","","","","","","","","","","","","","","","","","","","","","","","","","","","","","",""
"","fixation","","html-keyboard-response","171","720825","0.0-88.0-0.0","0","0","NIX0X","Scenes","","null","","","null","","","","","","","","","","","","","","","","","","","","","","","","","","","","","","","","","","","","","","","","","","","",""
"","deliberation","","html-keyboard-response","172","721803","0.0-88.0-1.0","0","0","NIX0X","Scenes","","976","","","68","","","","32","140","122","0","-1","73","61","samuele-errico-piccarini-JEBqFu2AOOA-unsplash.jpg","jeff-king-bJHWJeiHfHc-unsplash.jpg","3","1","140","122","","","","","","","","","","","","","","","","","","","","","","","","","","","",""
"","choice_confirmation","","html-keyboard-response","173","722323","0.0-88.0-2.0-0.0","0","0","NIX0X","Scenes","","null","","","null","","","","32","140","122","","","","","","","","","","","","","","","","","","","","","","","","","","","","","","","","","","","","","",""
"","fixation","","html-keyboard-response","174","723337","0.0-89.0-0.0","0","0","NIX0X","Scenes","","null","","","null","","","","","","","","","","","","","","","","","","","","","","","","","","","","","","","","","","","","","","","","","","","",""
"","deliberation","","html-keyboard-response","175","724000","0.0-89.0-1.0","0","0","NIX0X","Scenes","","661","","","68","","","","33","120","125","0","-1","63","71","jarrett-kow-1ZOyYPOBn7I-unsplash.jpg","john-lee-oMneOBYhJxY-unsplash.jpg","3","1","120","125","","","","","","","","","","","","","","","","","","","","","","","","","","","",""
"","choice_confirmation","","html-keyboard-response","176","724516","0.0-89.0-2.0-0.0","0","0","NIX0X","Scenes","","null","","","null","","","","33","120","125","","","","","","","","","","","","","","","","","","","","","","","","","","","","","","","","","","","","","",""
"","fixation","","html-keyboard-response","177","725523","0.0-90.0-0.0","0","0","NIX0X","Scenes","","null","","","null","","","","","","","","","","","","","","","","","","","","","","","","","","","","","","","","","","","","","","","","","","","",""
"","deliberation","","html-keyboard-response","178","727113","0.0-90.0-1.0","0","0","NIX0X","Scenes","","1589","","","75","","","","34","130","111","0","1","71","61","lina-loos-04-C1NZk1hE-unsplash.jpg","claudio-testa-U3F2o6vz3bs-unsplash.jpg","3","0","111","130","","","","","","","","","","","","","","","","","","","","","","","","","","","",""
"","choice_confirmation","","html-keyboard-response","179","727625","0.0-90.0-2.0-0.0","0","0","NIX0X","Scenes","","null","","","null","","","","34","130","111","","","","","","","","","","","","","","","","","","","","","","","","","","","","","","","","","","","","","",""
"","fixation","","html-keyboard-response","180","728640","0.0-91.0-0.0","0","0","NIX0X","Scenes","","null","","","null","","","","","","","","","","","","","","","","","","","","","","","","","","","","","","","","","","","","","","","","","","","",""
"","deliberation","","html-keyboard-response","181","731623","0.0-91.0-1.0","0","0","NIX0X","Scenes","","2981","","","68","","","","35","142","102","0","-1","71","65","sergey-pesterev-y-b_FOmJXdg-unsplash.jpg","anisur-rahman-K2b7UDed6uQ-unsplash.jpg","3","1","142","102","","","","","","","","","","","","","","","","","","","","","","","","","","","",""
"","choice_confirmation","","html-keyboard-response","182","732139","0.0-91.0-2.0-0.0","0","0","NIX0X","Scenes","","null","","","null","","","","35","142","102","","","","","","","","","","","","","","","","","","","","","","","","","","","","","","","","","","","","","",""
"","reward_learning_instructions","","instructions","183","768748","0.0-92.0-0.0","0","0","NIX0X","Scenes","[{""page_index"":0,""viewing_time"":12318},{""page_index"":1,""viewing_time"":23176},{""page_index"":2,""viewing_time"":1107}]","36602","","","","","","","","","","","","","","","","","","","","","","","","","","","","","","","","","","","","","","","","","","","","","","",""
"","reward_comprehension_check","","survey-multi-choice","184","782081","0.0-92.0-1.0","0","0","NIX0X","Scenes","","13326","{""Q0"":""True"",""Q1"":""True"",""Q2"":""Press the space bar to see its outcome"",""Q3"":""Press the relevant key while the outcome is presented""}","0","","","","","","","","","","","","","","","","","","","","","","","","","","","","","","","","","","","","","","","","","","","","",""
"","start_phase","","html-keyboard-response","185","783882","0.0-93.0","0","0","NIX0X","Scenes","","1799","","","78","","","","","","","","","","","","","","","","","","","","","","","","","","","","","","","","","","","","","","","","","","","",""
"","fixation","","html-keyboard-response","186","784896","0.0-94.0","0","0","NIX0X","Scenes","","null","","","null","","","","","","","","","","","","","","","","","","","","","","","","","","","","","","","","","","","","","","","","","","","",""
"","see_reward","","html-keyboard-response","187","786729","0.0-95.0","0","0","NIX0X","Scenes","","1829","","","32","","135","","0","","","","1","","","","","1","","","","","153","1829","","","","","","","","","","","","","","","","","","","","","","","","",""
"","reward_outcome","","html-keyboard-response","188","788733","0.0-96.0","0","0","NIX0X","Scenes","","1819","","","38","","135","","0","","","","","","","","","","","","","","","","1","1819","","","","","","","","","","","","","","","","","","","","","","",""
"","fixation","","html-keyboard-response","189","789742","0.0-99.0","0","0","NIX0X","Scenes","","null","","","null","","","","","","","","","","","","","","","","","","","","","","","","","","","","","","","","","","","","","","","","","","","",""
"","see_reward","","html-keyboard-response","190","791545","0.0-100.0","0","0","NIX0X","Scenes","","1801","","","32","","142","","1","","","","-1","","","","","1","","","","","0","1801","","","","","","","","","","","","","","","","","","","","","","","","",""
"","reward_outcome","","html-keyboard-response","191","793570","0.0-101.0","0","0","NIX0X","Scenes","","1161","","","40","","142","","1","","","","","","","","","","","","","","","","-1","1161","","","","","","","","","","","","","","","","","","","","","","",""
"","fixation","","html-keyboard-response","192","794592","0.0-104.0","0","0","NIX0X","Scenes","","null","","","null","","","","","","","","","","","","","","","","","","","","","","","","","","","","","","","","","","","","","","","","","","","",""
"","see_reward","","html-keyboard-response","193","795865","0.0-105.0","0","0","NIX0X","Scenes","","1271","","","32","","146","","2","","","","-1","","","","","1","","","","","0","1271","","","","","","","","","","","","","","","","","","","","","","","","",""
"","reward_outcome","","html-keyboard-response","194","797878","0.0-106.0","0","0","NIX0X","Scenes","","1491","","","40","","146","","2","","","","","","","","","","","","","","","","-1","1491","","","","","","","","","","","","","","","","","","","","","","",""
"","fixation","","html-keyboard-response","195","798891","0.0-109.0","0","0","NIX0X","Scenes","","null","","","null","","","","","","","","","","","","","","","","","","","","","","","","","","","","","","","","","","","","","","","","","","","",""
"","see_reward","","html-keyboard-response","196","799927","0.0-110.0","0","0","NIX0X","Scenes","","1034","","","32","","124","","3","","","","1","","","","","1","","","","","149","1034","","","","","","","","","","","","","","","","","","","","","","","","",""
"","reward_outcome","","html-keyboard-response","197","801941","0.0-111.0","0","0","NIX0X","Scenes","","1313","","","38","","124","","3","","","","","","","","","","","","","","","","1","1313","","","","","","","","","","","","","","","","","","","","","","",""
"","fixation","","html-keyboard-response","198","802956","0.0-114.0","0","0","NIX0X","Scenes","","null","","","null","","","","","","","","","","","","","","","","","","","","","","","","","","","","","","","","","","","","","","","","","","","",""
"","see_reward","","html-keyboard-response","199","804183","0.0-115.0","0","0","NIX0X","Scenes","","1224","","","32","","103","","4","","","","-1","","","","","1","","","","","0","1224","","","","","","","","","","","","","","","","","","","","","","","","",""
"","reward_outcome","","html-keyboard-response","200","806200","0.0-116.0","0","0","NIX0X","Scenes","","904","","","40","","103","","4","","","","","","","","","","","","","","","","-1","904","","","","","","","","","","","","","","","","","","","","","","",""
"","fixation","","html-keyboard-response","201","807217","0.0-119.0","0","0","NIX0X","Scenes","","null","","","null","","","","","","","","","","","","","","","","","","","","","","","","","","","","","","","","","","","","","","","","","","","",""
"","see_reward","","html-keyboard-response","202","807809","0.0-120.0","0","0","NIX0X","Scenes","","589","","","32","","124","","5","","","","1","","","","","1","","","","","149","589","","","","","","","","","","","","","","","","","","","","","","","","",""
"","reward_outcome","","html-keyboard-response","203","809835","0.0-121.0","0","0","NIX0X","Scenes","","987","","","38","","124","","5","","","","","","","","","","","","","","","","1","987","","","","","","","","","","","","","","","","","","","","","","",""
"","fixation","","html-keyboard-response","204","810857","0.0-124.0","0","0","NIX0X","Scenes","","null","","","null","","","","","","","","","","","","","","","","","","","","","","","","","","","","","","","","","","","","","","","","","","","",""
"","see_reward","","html-keyboard-response","205","811709","0.0-125.0","0","0","NIX0X","Scenes","","849","","","32","","135","","6","","","","1","","","","","1","","","","","153","849","","","","","","","","","","","","","","","","","","","","","","","","",""
"","reward_outcome","","html-keyboard-response","206","813717","0.0-126.0","0","0","NIX0X","Scenes","","932","","","38","","135","","6","","","","","","","","","","","","","","","","1","932","","","","","","","","","","","","","","","","","","","","","","",""
"","fixation","","html-keyboard-response","207","814729","0.0-129.0","0","0","NIX0X","Scenes","","null","","","null","","","","","","","","","","","","","","","","","","","","","","","","","","","","","","","","","","","","","","","","","","","",""
"","see_reward","","html-keyboard-response","208","815297","0.0-130.0","0","0","NIX0X","Scenes","","566","","","32","","111","","7","","","","1","","","","","1","","","","","152","566","","","","","","","","","","","","","","","","","","","","","","","","",""
"","reward_outcome","","html-keyboard-response","209","817309","0.0-131.0","0","0","NIX0X","Scenes","","1103","","","38","","111","","7","","","","","","","","","","","","","","","","1","1103","","","","","","","","","","","","","","","","","","","","","","",""
"","fixation","","html-keyboard-response","210","818325","0.0-134.0","0","0","NIX0X","Scenes","","null","","","null","","","","","","","","","","","","","","","","","","","","","","","","","","","","","","","","","","","","","","","","","","","",""
"","see_reward","","html-keyboard-response","211","819005","0.0-135.0","0","0","NIX0X","Scenes","","678","","","32","","126","","8","","","","1","","","","","1","","","","","150","678","","","","","","","","","","","","","","","","","","","","","","","","",""
"","reward_outcome","","html-keyboard-response","212","821017","0.0-136.0","0","0","NIX0X","Scenes","","846","","","38","","126","","8","","","","","","","","","","","","","","","","1","846","","","","","","","","","","","","","","","","","","","","","","",""
"","fixation","","html-keyboard-response","213","822029","0.0-139.0","0","0","NIX0X","Scenes","","null","","","null","","","","","","","","","","","","","","","","","","","","","","","","","","","","","","","","","","","","","","","","","","","",""
"","see_reward","","html-keyboard-response","214","822690","0.0-140.0","0","0","NIX0X","Scenes","","660","","","32","","120","","9","","","","-1","","","","","1","","","","","0","660","","","","","","","","","","","","","","","","","","","","","","","","",""
"","reward_outcome","","html-keyboard-response","215","824709","0.0-141.0","0","0","NIX0X","Scenes","","896","","","40","","120","","9","","","","","","","","","","","","","","","","-1","896","","","","","","","","","","","","","","","","","","","","","","",""
"","fixation","","html-keyboard-response","216","825719","0.0-144.0","0","0","NIX0X","Scenes","","null","","","null","","","","","","","","","","","","","","","","","","","","","","","","","","","","","","","","","","","","","","","","","","","",""
"","see_reward","","html-keyboard-response","217","826367","0.0-145.0","0","0","NIX0X","Scenes","","646","","","32","","140","","10","","","","-1","","","","","1","","","","","0","646","","","","","","","","","","","","","","","","","","","","","","","","",""
"","reward_outcome","","html-keyboard-response","218","828374","0.0-146.0","0","0","NIX0X","Scenes","","891","","","40","","140","","10","","","","","","","","","","","","","","","","-1","891","","","","","","","","","","","","","","","","","","","","","","",""
"","fixation","","html-keyboard-response","219","829384","0.0-149.0","0","0","NIX0X","Scenes","","null","","","null","","","","","","","","","","","","","","","","","","","","","","","","","","","","","","","","","","","","","","","","","","","",""
"","see_reward","","html-keyboard-response","220","830054","0.0-150.0","0","0","NIX0X","Scenes","","667","","","32","","139","","11","","","","1","","","","","1","","","","","152","667","","","","","","","","","","","","","","","","","","","","","","","","",""
"","reward_outcome","","html-keyboard-response","221","832073","0.0-151.0","0","0","NIX0X","Scenes","","977","","","38","","139","","11","","","","","","","","","","","","","","","","1","977","","","","","","","","","","","","","","","","","","","","","","",""
"","fixation","","html-keyboard-response","222","833077","0.0-154.0","0","0","NIX0X","Scenes","","null","","","null","","","","","","","","","","","","","","","","","","","","","","","","","","","","","","","","","","","","","","","","","","","",""
"","see_reward","","html-keyboard-response","223","833864","0.0-155.0","0","0","NIX0X","Scenes","","785","","","32","","139","","12","","","","1","","","","","1","","","","","152","785","","","","","","","","","","","","","","","","","","","","","","","","",""
"","reward_outcome","","html-keyboard-response","224","835877","0.0-156.0","0","0","NIX0X","Scenes","","749","","","38","","139","","12","","","","","","","","","","","","","","","","1","749","","","","","","","","","","","","","","","","","","","","","","",""
"","fixation","","html-keyboard-response","225","836894","0.0-159.0","0","0","NIX0X","Scenes","","null","","","null","","","","","","","","","","","","","","","","","","","","","","","","","","","","","","","","","","","","","","","","","","","",""
"","see_reward","","html-keyboard-response","226","837604","0.0-160.0","0","0","NIX0X","Scenes","","707","","","32","","103","","13","","","","-1","","","","","1","","","","","0","707","","","","","","","","","","","","","","","","","","","","","","","","",""
"","reward_outcome","","html-keyboard-response","227","839618","0.0-161.0","0","0","NIX0X","Scenes","","891","","","40","","103","","13","","","","","","","","","","","","","","","","-1","891","","","","","","","","","","","","","","","","","","","","","","",""
"","fixation","","html-keyboard-response","228","840633","0.0-164.0","0","0","NIX0X","Scenes","","null","","","null","","","","","","","","","","","","","","","","","","","","","","","","","","","","","","","","","","","","","","","","","","","",""
"","see_reward","","html-keyboard-response","229","841148","0.0-165.0","0","0","NIX0X","Scenes","","513","","","32","","106","","14","","","","-1","","","","","1","","","","","0","513","","","","","","","","","","","","","","","","","","","","","","","","",""
"","reward_outcome","","html-keyboard-response","230","843161","0.0-166.0","0","0","NIX0X","Scenes","","803","","","40","","106","","14","","","","","","","","","","","","","","","","-1","803","","","","","","","","","","","","","","","","","","","","","","",""
"","fixation","","html-keyboard-response","231","844169","0.0-169.0","0","0","NIX0X","Scenes","","null","","","null","","","","","","","","","","","","","","","","","","","","","","","","","","","","","","","","","","","","","","","","","","","",""
"","see_reward","","html-keyboard-response","232","844648","0.0-170.0","0","0","NIX0X","Scenes","","477","","","32","","133","","15","","","","1","","","","","1","","","","","158","477","","","","","","","","","","","","","","","","","","","","","","","","",""
"","reward_outcome","","html-keyboard-response","233","846666","0.0-171.0","0","0","NIX0X","Scenes","","1101","","","38","","133","","15","","","","","","","","","","","","","","","","1","1101","","","","","","","","","","","","","","","","","","","","","","",""
"","fixation","","html-keyboard-response","234","847674","0.0-174.0","0","0","NIX0X","Scenes","","null","","","null","","","","","","","","","","","","","","","","","","","","","","","","","","","","","","","","","","","","","","","","","","","",""
"","see_reward","","html-keyboard-response","235","848243","0.0-175.0","0","0","NIX0X","Scenes","","566","","","32","","140","","16","","","","-1","","","","","1","","","","","0","566","","","","","","","","","","","","","","","","","","","","","","","","",""
"","reward_outcome","","html-keyboard-response","236","850266","0.0-176.0","0","0","NIX0X","Scenes","","771","","","40","","140","","16","","","","","","","","","","","","","","","","-1","771","","","","","","","","","","","","","","","","","","","","","","",""
"","fixation","","html-keyboard-response","237","851280","0.0-179.0","0","0","NIX0X","Scenes","","null","","","null","","","","","","","","","","","","","","","","","","","","","","","","","","","","","","","","","","","","","","","","","","","",""
"","see_reward","","html-keyboard-response","238","851759","0.0-180.0","0","0","NIX0X","Scenes","","477","","","32","","111","","17","","","","1","","","","","1","","","","","152","477","","","","","","","","","","","","","","","","","","","","","","","","",""
"","reward_outcome","","html-keyboard-response","239","853772","0.0-181.0","0","0","NIX0X","Scenes","","999","","","38","","111","","17","","","","","","","","","","","","","","","","1","999","","","","","","","","","","","","","","","","","","","","","","",""
"","fixation","","html-keyboard-response","240","854787","0.0-184.0","0","0","NIX0X","Scenes","","null","","","null","","","","","","","","","","","","","","","","","","","","","","","","","","","","","","","","","","","","","","","","","","","",""
"","see_reward","","html-keyboard-response","241","855437","0.0-185.0","0","0","NIX0X","Scenes","","647","","","32","","126","","18","","","","1","","","","","1","","","","","150","647","","","","","","","","","","","","","","","","","","","","","","","","",""
"","reward_outcome","","html-keyboard-response","242","857460","0.0-186.0","0","0","NIX0X","Scenes","","826","","","38","","126","","18","","","","","","","","","","","","","","","","1","826","","","","","","","","","","","","","","","","","","","","","","",""
"","fixation","","html-keyboard-response","243","858480","0.0-189.0","0","0","NIX0X","Scenes","","null","","","null","","","","","","","","","","","","","","","","","","","","","","","","","","","","","","","","","","","","","","","","","","","",""
"","see_reward","","html-keyboard-response","244","859423","0.0-190.0","0","0","NIX0X","Scenes","","940","","","32","","120","","19","","","","-1","","","","","1","","","","","0","940","","","","","","","","","","","","","","","","","","","","","","","","",""
"","reward_outcome","","html-keyboard-response","245","861440","0.0-191.0","0","0","NIX0X","Scenes","","676","","","40","","120","","19","","","","","","","","","","","","","","","","-1","676","","","","","","","","","","","","","","","","","","","","","","",""
"","fixation","","html-keyboard-response","246","862458","0.0-194.0","0","0","NIX0X","Scenes","","null","","","null","","","","","","","","","","","","","","","","","","","","","","","","","","","","","","","","","","","","","","","","","","","",""
"","see_reward","","html-keyboard-response","247","862741","0.0-195.0","0","0","NIX0X","Scenes","","281","","","32","","133","","20","","","","1","","","","","1","","","","","158","281","","","","","","","","","","","","","","","","","","","","","","","","",""
"","reward_outcome","","html-keyboard-response","248","864764","0.0-196.0","0","0","NIX0X","Scenes","","853","","","40","","133","","20","","","","","","","","","","","","","","","","-1","853","","","","","","","","","","","","","","","","","","","","","","",""
"","fixation","","html-keyboard-response","249","865778","0.0-199.0","0","0","NIX0X","Scenes","","null","","","null","","","","","","","","","","","","","","","","","","","","","","","","","","","","","","","","","","","","","","","","","","","",""
"","see_reward","","html-keyboard-response","250","866528","0.0-200.0","0","0","NIX0X","Scenes","","748","","","32","","142","","21","","","","-1","","","","","1","","","","","0","748","","","","","","","","","","","","","","","","","","","","","","","","",""
"","reward_outcome","","html-keyboard-response","251","868541","0.0-201.0","0","0","NIX0X","Scenes","","881","","","38","","142","","21","","","","","","","","","","","","","","","","1","881","","","","","","","","","","","","","","","","","","","","","","",""
"","fixation","","html-keyboard-response","252","869561","0.0-204.0","0","0","NIX0X","Scenes","","null","","","null","","","","","","","","","","","","","","","","","","","","","","","","","","","","","","","","","","","","","","","","","","","",""
"","see_reward","","html-keyboard-response","253","870032","0.0-205.0","0","0","NIX0X","Scenes","","469","","","32","","146","","22","","","","-1","","","","","1","","","","","0","469","","","","","","","","","","","","","","","","","","","","","","","","",""
"","reward_outcome","","html-keyboard-response","254","872039","0.0-206.0","0","0","NIX0X","Scenes","","763","","","40","","146","","22","","","","","","","","","","","","","","","","-1","763","","","","","","","","","","","","","","","","","","","","","","",""
"","fixation","","html-keyboard-response","255","873054","0.0-209.0","0","0","NIX0X","Scenes","","null","","","null","","","","","","","","","","","","","","","","","","","","","","","","","","","","","","","","","","","","","","","","","","","",""
"","see_reward","","html-keyboard-response","256","873443","0.0-210.0","0","0","NIX0X","Scenes","","387","","","32","","106","","23","","","","-1","","","","","1","","","","","0","387","","","","","","","","","","","","","","","","","","","","","","","","",""
"","reward_outcome","","html-keyboard-response","257","875451","0.0-211.0","0","0","NIX0X","Scenes","","809","","","40","","106","","23","","","","","","","","","","","","","","","","-1","809","","","","","","","","","","","","","","","","","","","","","","",""
"","block_over","","html-keyboard-response","258","877147","0.0-213.0-0.0","0","0","NIX0X","Scenes","","1694","","","78","","","","","","","","","","","","","","","","","","","","","","","","","","","","","","","","","","","","","","","","","","","",""
"","fixation","","html-keyboard-response","259","878165","0.0-214.0","0","0","NIX0X","Scenes","","null","","","null","","","","","","","","","","","","","","","","","","","","","","","","","","","","","","","","","","","","","","","","","","","",""
"","see_reward","","html-keyboard-response","260","878853","0.0-215.0","0","0","NIX0X","Scenes","","685","","","32","","126","","24","","","","1","","","","","2","","","","","150","685","","","","","","","","","","","","","","","","","","","","","","","","",""
"","reward_outcome","","html-keyboard-response","261","880863","0.0-216.0","0","0","NIX0X","Scenes","","983","","","38","","126","","24","","","","","","","","","","","","","","","","1","983","","","","","","","","","","","","","","","","","","","","","","",""
"","fixation","","html-keyboard-response","262","881880","0.0-219.0","0","0","NIX0X","Scenes","","null","","","null","","","","","","","","","","","","","","","","","","","","","","","","","","","","","","","","","","","","","","","","","","","",""
"","see_reward","","html-keyboard-response","263","882760","0.0-220.0","0","0","NIX0X","Scenes","","878","","","32","","106","","25","","","","-1","","","","","2","","","","","0","878","","","","","","","","","","","","","","","","","","","","","","","","",""
"","reward_outcome","","html-keyboard-response","264","884766","0.0-221.0","0","0","NIX0X","Scenes","","1026","","","40","","106","","25","","","","","","","","","","","","","","","","-1","1026","","","","","","","","","","","","","","","","","","","","","","",""
"","fixation","","html-keyboard-response","265","885776","0.0-224.0","0","0","NIX0X","Scenes","","null","","","null","","","","","","","","","","","","","","","","","","","","","","","","","","","","","","","","","","","","","","","","","","","",""
"","see_reward","","html-keyboard-response","266","886104","0.0-225.0","0","0","NIX0X","Scenes","","325","","","32","","140","","26","","","","-1","","","","","2","","","","","0","325","","","","","","","","","","","","","","","","","","","","","","","","",""
"","reward_outcome","","html-keyboard-response","267","888115","0.0-226.0","0","0","NIX0X","Scenes","","775","","","40","","140","","26","","","","","","","","","","","","","","","","-1","775","","","","","","","","","","","","","","","","","","","","","","",""
"","fixation","","html-keyboard-response","268","889125","0.0-229.0","0","0","NIX0X","Scenes","","null","","","null","","","","","","","","","","","","","","","","","","","","","","","","","","","","","","","","","","","","","","","","","","","",""
"","see_reward","","html-keyboard-response","269","889444","0.0-230.0","0","0","NIX0X","Scenes","","317","","","32","","146","","27","","","","-1","","","","","2","","","","","0","317","","","","","","","","","","","","","","","","","","","","","","","","",""
"","reward_outcome","","html-keyboard-response","270","891456","0.0-231.0","0","0","NIX0X","Scenes","","761","","","40","","146","","27","","","","","","","","","","","","","","","","-1","761","","","","","","","","","","","","","","","","","","","","","","",""
"","fixation","","html-keyboard-response","271","892472","0.0-234.0","0","0","NIX0X","Scenes","","null","","","null","","","","","","","","","","","","","","","","","","","","","","","","","","","","","","","","","","","","","","","","","","","",""
"","see_reward","","html-keyboard-response","272","893069","0.0-235.0","0","0","NIX0X","Scenes","","593","","","32","","124","","28","","","","1","","","","","2","","","","","149","593","","","","","","","","","","","","","","","","","","","","","","","","",""
"","reward_outcome","","html-keyboard-response","273","895106","0.0-236.0","0","0","NIX0X","Scenes","","901","","","38","","124","","28","","","","","","","","","","","","","","","","1","901","","","","","","","","","","","","","","","","","","","","","","",""
"","fixation","","html-keyboard-response","274","896126","0.0-239.0","0","0","NIX0X","Scenes","","null","","","null","","","","","","","","","","","","","","","","","","","","","","","","","","","","","","","","","","","","","","","","","","","",""
"","see_reward","","html-keyboard-response","275","896616","0.0-240.0","0","0","NIX0X","Scenes","","486","","","32","","133","","29","","","","1","","","","","2","","","","","158","486","","","","","","","","","","","","","","","","","","","","","","","","",""
"","reward_outcome","","html-keyboard-response","276","898624","0.0-241.0","0","0","NIX0X","Scenes","","828","","","38","","133","","29","","","","","","","","","","","","","","","","1","828","","","","","","","","","","","","","","","","","","","","","","",""
"","fixation","","html-keyboard-response","277","899635","0.0-244.0","0","0","NIX0X","Scenes","","null","","","null","","","","","","","","","","","","","","","","","","","","","","","","","","","","","","","","","","","","","","","","","","","",""
"","see_reward","","html-keyboard-response","278","899952","0.0-245.0","0","0","NIX0X","Scenes","","315","","","32","","139","","30","","","","1","","","","","2","","","","","152","315","","","","","","","","","","","","","","","","","","","","","","","","",""
"","reward_outcome","","html-keyboard-response","279","901960","0.0-246.0","0","0","NIX0X","Scenes","","712","","","38","","139","","30","","","","","","","","","","","","","","","","1","712","","","","","","","","","","","","","","","","","","","","","","",""
"","fixation","","html-keyboard-response","280","902979","0.0-249.0","0","0","NIX0X","Scenes","","null","","","null","","","","","","","","","","","","","","","","","","","","","","","","","","","","","","","","","","","","","","","","","","","",""
"","see_reward","","html-keyboard-response","281","903672","0.0-250.0","0","0","NIX0X","Scenes","","691","","","32","","103","","31","","","","-1","","","","","2","","","","","0","691","","","","","","","","","","","","","","","","","","","","","","","","",""
"","reward_outcome","","html-keyboard-response","282","905677","0.0-251.0","0","0","NIX0X","Scenes","","713","","","40","","103","","31","","","","","","","","","","","","","","","","-1","713","","","","","","","","","","","","","","","","","","","","","","",""
"","fixation","","html-keyboard-response","283","906697","0.0-254.0","0","0","NIX0X","Scenes","","null","","","null","","","","","","","","","","","","","","","","","","","","","","","","","","","","","","","","","","","","","","","","","","","",""
"","see_reward","","html-keyboard-response","284","907263","0.0-255.0","0","0","NIX0X","Scenes","","563","","","32","","135","","32","","","","1","","","","","2","","","","","153","563","","","","","","","","","","","","","","","","","","","","","","","","",""
"","reward_outcome","","html-keyboard-response","285","909276","0.0-256.0","0","0","NIX0X","Scenes","","666","","","38","","135","","32","","","","","","","","","","","","","","","","1","666","","","","","","","","","","","","","","","","","","","","","","",""
"","fixation","","html-keyboard-response","286","910300","0.0-259.0","0","0","NIX0X","Scenes","","null","","","null","","","","","","","","","","","","","","","","","","","","","","","","","","","","","","","","","","","","","","","","","","","",""
"","see_reward","","html-keyboard-response","287","910607","0.0-260.0","0","0","NIX0X","Scenes","","304","","","32","","140","","33","","","","-1","","","","","2","","","","","0","304","","","","","","","","","","","","","","","","","","","","","","","","",""
"","reward_outcome","","html-keyboard-response","288","912618","0.0-261.0","0","0","NIX0X","Scenes","","691","","","40","","140","","33","","","","","","","","","","","","","","","","-1","691","","","","","","","","","","","","","","","","","","","","","","",""
"","fixation","","html-keyboard-response","289","913634","0.0-264.0","0","0","NIX0X","Scenes","","null","","","null","","","","","","","","","","","","","","","","","","","","","","","","","","","","","","","","","","","","","","","","","","","",""
"","see_reward","","html-keyboard-response","290","914122","0.0-265.0","0","0","NIX0X","Scenes","","485","","","32","","120","","34","","","","-1","","","","","2","","","","","0","485","","","","","","","","","","","","","","","","","","","","","","","","",""
"","reward_outcome","","html-keyboard-response","291","916137","0.0-266.0","0","0","NIX0X","Scenes","","726","","","40","","120","","34","","","","","","","","","","","","","","","","-1","726","","","","","","","","","","","","","","","","","","","","","","",""
"","fixation","","html-keyboard-response","292","917147","0.0-269.0","0","0","NIX0X","Scenes","","null","","","null","","","","","","","","","","","","","","","","","","","","","","","","","","","","","","","","","","","","","","","","","","","",""
"","see_reward","","html-keyboard-response","293","918136","0.0-270.0","0","0","NIX0X","Scenes","","986","","","32","","103","","35","","","","-1","","","","","2","","","","","0","986","","","","","","","","","","","","","","","","","","","","","","","","",""
"","reward_outcome","","html-keyboard-response","294","920146","0.0-271.0","0","0","NIX0X","Scenes","","610","","","40","","103","","35","","","","","","","","","","","","","","","","-1","610","","","","","","","","","","","","","","","","","","","","","","",""
"","fixation","","html-keyboard-response","295","921157","0.0-274.0","0","0","NIX0X","Scenes","","null","","","null","","","","","","","","","","","","","","","","","","","","","","","","","","","","","","","","","","","","","","","","","","","",""
"","see_reward","","html-keyboard-response","296","921515","0.0-275.0","0","0","NIX0X","Scenes","","356","","","32","","146","","36","","","","-1","","","","","2","","","","","0","356","","","","","","","","","","","","","","","","","","","","","","","","",""
"","reward_outcome","","html-keyboard-response","297","923526","0.0-276.0","0","0","NIX0X","Scenes","","889","","","40","","146","","36","","","","","","","","","","","","","","","","-1","889","","","","","","","","","","","","","","","","","","","","","","",""
"","fixation","","html-keyboard-response","298","924539","0.0-279.0","0","0","NIX0X","Scenes","","null","","","null","","","","","","","","","","","","","","","","","","","","","","","","","","","","","","","","","","","","","","","","","","","",""
"","see_reward","","html-keyboard-response","299","924913","0.0-280.0","0","0","NIX0X","Scenes","","371","","","32","","133","","37","","","","1","","","","","2","","","","","158","371","","","","","","","","","","","","","","","","","","","","","","","","",""
"","reward_outcome","","html-keyboard-response","300","926946","0.0-281.0","0","0","NIX0X","Scenes","","874","","","38","","133","","37","","","","","","","","","","","","","","","","1","874","","","","","","","","","","","","","","","","","","","","","","",""
"","fixation","","html-keyboard-response","301","927959","0.0-284.0","0","0","NIX0X","Scenes","","null","","","null","","","","","","","","","","","","","","","","","","","","","","","","","","","","","","","","","","","","","","","","","","","",""
"","see_reward","","html-keyboard-response","302","928274","0.0-285.0","0","0","NIX0X","Scenes","","312","","","32","","111","","38","","","","1","","","","","2","","","","","152","312","","","","","","","","","","","","","","","","","","","","","","","","",""
"","reward_outcome","","html-keyboard-response","303","930297","0.0-286.0","0","0","NIX0X","Scenes","","843","","","38","","111","","38","","","","","","","","","","","","","","","","1","843","","","","","","","","","","","","","","","","","","","","","","",""
"","fixation","","html-keyboard-response","304","931309","0.0-289.0","0","0","NIX0X","Scenes","","null","","","null","","","","","","","","","","","","","","","","","","","","","","","","","","","","","","","","","","","","","","","","","","","",""
"","see_reward","","html-keyboard-response","305","931627","0.0-290.0","0","0","NIX0X","Scenes","","316","","","32","","135","","39","","","","1","","","","","2","","","","","153","316","","","","","","","","","","","","","","","","","","","","","","","","",""
"","reward_outcome","","html-keyboard-response","306","933638","0.0-291.0","0","0","NIX0X","Scenes","","766","","","38","","135","","39","","","","","","","","","","","","","","","","1","766","","","","","","","","","","","","","","","","","","","","","","",""
"","fixation","","html-keyboard-response","307","934651","0.0-294.0","0","0","NIX0X","Scenes","","null","","","null","","","","","","","","","","","","","","","","","","","","","","","","","","","","","","","","","","","","","","","","","","","",""
"","see_reward","","html-keyboard-response","308","934902","0.0-295.0","0","0","NIX0X","Scenes","","249","","","32","","126","","40","","","","1","","","","","2","","","","","150","249","","","","","","","","","","","","","","","","","","","","","","","","",""
"","reward_outcome","","html-keyboard-response","309","936915","0.0-296.0","0","0","NIX0X","Scenes","","837","","","38","","126","","40","","","","","","","","","","","","","","","","1","837","","","","","","","","","","","","","","","","","","","","","","",""
"","fixation","","html-keyboard-response","310","937934","0.0-299.0","0","0","NIX0X","Scenes","","null","","","null","","","","","","","","","","","","","","","","","","","","","","","","","","","","","","","","","","","","","","","","","","","",""
"","see_reward","","html-keyboard-response","311","938243","0.0-300.0","0","0","NIX0X","Scenes","","305","","","32","","106","","41","","","","-1","","","","","2","","","","","0","305","","","","","","","","","","","","","","","","","","","","","","","","",""
"","reward_outcome","","html-keyboard-response","312","940262","0.0-301.0","0","0","NIX0X","Scenes","","817","","","40","","106","","41","","","","","","","","","","","","","","","","-1","817","","","","","","","","","","","","","","","","","","","","","","",""
"","fixation","","html-keyboard-response","313","941272","0.0-304.0","0","0","NIX0X","Scenes","","null","","","null","","","","","","","","","","","","","","","","","","","","","","","","","","","","","","","","","","","","","","","","","","","",""
"","see_reward","","html-keyboard-response","314","941735","0.0-305.0","0","0","NIX0X","Scenes","","460","","","32","","142","","42","","","","-1","","","","","2","","","","","0","460","","","","","","","","","","","","","","","","","","","","","","","","",""
"","reward_outcome","","html-keyboard-response","315","943751","0.0-306.0","0","0","NIX0X","Scenes","","711","","","40","","142","","42","","","","","","","","","","","","","","","","-1","711","","","","","","","","","","","","","","","","","","","","","","",""
"","fixation","","html-keyboard-response","316","944768","0.0-309.0","0","0","NIX0X","Scenes","","null","","","null","","","","","","","","","","","","","","","","","","","","","","","","","","","","","","","","","","","","","","","","","","","",""
"","see_reward","","html-keyboard-response","317","945124","0.0-310.0","0","0","NIX0X","Scenes","","353","","","32","","124","","43","","","","1","","","","","2","","","","","149","353","","","","","","","","","","","","","","","","","","","","","","","","",""
"","reward_outcome","","html-keyboard-response","318","947137","0.0-311.0","0","0","NIX0X","Scenes","","773","","","38","","124","","43","","","","","","","","","","","","","","","","1","773","","","","","","","","","","","","","","","","","","","","","","",""
"","fixation","","html-keyboard-response","319","948154","0.0-314.0","0","0","NIX0X","Scenes","","null","","","null","","","","","","","","","","","","","","","","","","","","","","","","","","","","","","","","","","","","","","","","","","","",""
"","see_reward","","html-keyboard-response","320","948692","0.0-315.0","0","0","NIX0X","Scenes","","536","","","32","","139","","44","","","","1","","","","","2","","","","","152","536","","","","","","","","","","","","","","","","","","","","","","","","",""
"","reward_outcome","","html-keyboard-response","321","950716","0.0-316.0","0","0","NIX0X","Scenes","","700","","","38","","139","","44","","","","","","","","","","","","","","","","1","700","","","","","","","","","","","","","","","","","","","","","","",""
"","fixation","","html-keyboard-response","322","951731","0.0-319.0","0","0","NIX0X","Scenes","","null","","","null","","","","","","","","","","","","","","","","","","","","","","","","","","","","","","","","","","","","","","","","","","","",""
"","see_reward","","html-keyboard-response","323","952143","0.0-320.0","0","0","NIX0X","Scenes","","410","","","32","","120","","45","","","","-1","","","","","2","","","","","0","410","","","","","","","","","","","","","","","","","","","","","","","","",""
"","reward_outcome","","html-keyboard-response","324","954163","0.0-321.0","0","0","NIX0X","Scenes","","782","","","40","","120","","45","","","","","","","","","","","","","","","","-1","782","","","","","","","","","","","","","","","","","","","","","","",""
"","fixation","","html-keyboard-response","325","955175","0.0-324.0","0","0","NIX0X","Scenes","","null","","","null","","","","","","","","","","","","","","","","","","","","","","","","","","","","","","","","","","","","","","","","","","","",""
"","see_reward","","html-keyboard-response","326","955481","0.0-325.0","0","0","NIX0X","Scenes","","304","","","32","","111","","46","","","","1","","","","","2","","","","","152","304","","","","","","","","","","","","","","","","","","","","","","","","",""
"","reward_outcome","","html-keyboard-response","327","957490","0.0-326.0","0","0","NIX0X","Scenes","","731","","","38","","111","","46","","","","","","","","","","","","","","","","1","731","","","","","","","","","","","","","","","","","","","","","","",""
"","fixation","","html-keyboard-response","328","958512","0.0-329.0","0","0","NIX0X","Scenes","","null","","","null","","","","","","","","","","","","","","","","","","","","","","","","","","","","","","","","","","","","","","","","","","","",""
"","see_reward","","html-keyboard-response","329","958856","0.0-330.0","0","0","NIX0X","Scenes","","341","","","32","","142","","47","","","","-1","","","","","2","","","","","0","341","","","","","","","","","","","","","","","","","","","","","","","","",""
"","reward_outcome","","html-keyboard-response","330","960866","0.0-331.0","0","0","NIX0X","Scenes","","619","","","40","","142","","47","","","","","","","","","","","","","","","","-1","619","","","","","","","","","","","","","","","","","","","","","","",""
"","block_over","","html-keyboard-response","331","962413","0.0-333.0-0.0","0","0","NIX0X","Scenes","","1546","","","78","","","","","","","","","","","","","","","","","","","","","","","","","","","","","","","","","","","","","","","","","","","",""
"","fixation","","html-keyboard-response","332","963434","0.0-334.0","0","0","NIX0X","Scenes","","null","","","null","","","","","","","","","","","","","","","","","","","","","","","","","","","","","","","","","","","","","","","","","","","",""
"","see_reward","","html-keyboard-response","333","965145","0.0-335.0","0","0","NIX0X","Scenes","","1709","","","32","","133","","48","","","","1","","","","","3","","","","","158","1709","","","","","","","","","","","","","","","","","","","","","","","","",""
"","reward_outcome","","html-keyboard-response","334","967162","0.0-336.0","0","0","NIX0X","Scenes","","977","","","38","","133","","48","","","","","","","","","","","","","","","","1","977","","","","","","","","","","","","","","","","","","","","","","",""
"","fixation","","html-keyboard-response","335","968180","0.0-339.0","0","0","NIX0X","Scenes","","null","","","null","","","","","","","","","","","","","","","","","","","","","","","","","","","","","","","","","","","","","","","","","","","",""
"","see_reward","","html-keyboard-response","336","968631","0.0-340.0","0","0","NIX0X","Scenes","","449","","","32","","111","","49","","","","1","","","","","3","","","","","152","449","","","","","","","","","","","","","","","","","","","","","","","","",""
"","reward_outcome","","html-keyboard-response","337","970642","0.0-341.0","0","0","NIX0X","Scenes","","735","","","38","","111","","49","","","","","","","","","","","","","","","","1","735","","","","","","","","","","","","","","","","","","","","","","",""
"","fixation","","html-keyboard-response","338","971661","0.0-344.0","0","0","NIX0X","Scenes","","null","","","null","","","","","","","","","","","","","","","","","","","","","","","","","","","","","","","","","","","","","","","","","","","",""
"","see_reward","","html-keyboard-response","339","972132","0.0-345.0","0","0","NIX0X","Scenes","","468","","","32","","139","","50","","","","1","","","","","3","","","","","152","468","","","","","","","","","","","","","","","","","","","","","","","","",""
"","reward_outcome","","html-keyboard-response","340","974150","0.0-346.0","0","0","NIX0X","Scenes","","628","","","38","","139","","50","","","","","","","","","","","","","","","","1","628","","","","","","","","","","","","","","","","","","","","","","",""
"","fixation","","html-keyboard-response","341","975163","0.0-349.0","0","0","NIX0X","Scenes","","null","","","null","","","","","","","","","","","","","","","","","","","","","","","","","","","","","","","","","","","","","","","","","","","",""
"","see_reward","","html-keyboard-response","342","975704","0.0-350.0","0","0","NIX0X","Scenes","","539","","","32","","146","","51","","","","-1","","","","","3","","","","","0","539","","","","","","","","","","","","","","","","","","","","","","","","",""
"","reward_outcome","","html-keyboard-response","343","977723","0.0-351.0","0","0","NIX0X","Scenes","","713","","","40","","146","","51","","","","","","","","","","","","","","","","-1","713","","","","","","","","","","","","","","","","","","","","","","",""
"","fixation","","html-keyboard-response","344","978737","0.0-354.0","0","0","NIX0X","Scenes","","null","","","null","","","","","","","","","","","","","","","","","","","","","","","","","","","","","","","","","","","","","","","","","","","",""
"","see_reward","","html-keyboard-response","345","978980","0.0-355.0","0","0","NIX0X","Scenes","","241","","","32","","140","","52","","","","-1","","","","","3","","","","","0","241","","","","","","","","","","","","","","","","","","","","","","","","",""
"","reward_outcome","","html-keyboard-response","346","981003","0.0-356.0","0","0","NIX0X","Scenes","","796","","","40","","140","","52","","","","","","","","","","","","","","","","-1","796","","","","","","","","","","","","","","","","","","","","","","",""
"","fixation","","html-keyboard-response","347","982020","0.0-359.0","0","0","NIX0X","Scenes","","null","","","null","","","","","","","","","","","","","","","","","","","","","","","","","","","","","","","","","","","","","","","","","","","",""
"","see_reward","","html-keyboard-response","348","982415","0.0-360.0","0","0","NIX0X","Scenes","","393","","","32","","139","","53","","","","1","","","","","3","","","","","152","393","","","","","","","","","","","","","","","","","","","","","","","","",""
"","reward_outcome","","html-keyboard-response","349","984433","0.0-361.0","0","0","NIX0X","Scenes","","790","","","38","","139","","53","","","","","","","","","","","","","","","","1","790","","","","","","","","","","","","","","","","","","","","","","",""
"","fixation","","html-keyboard-response","350","985437","0.0-364.0","0","0","NIX0X","Scenes","","null","","","null","","","","","","","","","","","","","","","","","","","","","","","","","","","","","","","","","","","","","","","","","","","",""
"","see_reward","","html-keyboard-response","351","985708","0.0-365.0","0","0","NIX0X","Scenes","","268","","","32","","124","","54","","","","1","","","","","3","","","","","149","268","","","","","","","","","","","","","","","","","","","","","","","","",""
"","reward_outcome","","html-keyboard-response","352","987721","0.0-366.0","0","0","NIX0X","Scenes","","763","","","38","","124","","54","","","","","","","","","","","","","","","","1","763","","","","","","","","","","","","","","","","","","","","","","",""
