"success","ttype","start_time","trial_type","trial_index","time_elapsed","internal_node_id","warning","missed_checkup","PID","stim_type","view_history","rt","responses","repeat_instructions","key_press","response","stimulus_id","painting","index","stimulus_left","stimulus_right","explain_trial","reward_type","rating_left","rating_right","painting_left","painting_right","block","left_chosen","chosen_obj","unchosen_obj","explain_response","reward_amount","see_reward_rt","register_reward_response","register_reward_rt","deliberation_reward_tally","stimulus_left_deliberation_ind","stimulus_right_deliberation_ind","chosen_trial","gain_left","higher_outcome_chosen","old_pair","chosen_object","rt_pairs","left_object_chosen","rt_object","old_response","new_rating","deliberated_stim","initial_rating","outcome_eval_rt","outcome_eval_response","outcome_eval_gain","outcome_eval_acc","preamble","outcome_eval_confidence","outcome_eval_confidence_rt","total_reward_tally"
"true","full_screen","d01192023hr2116","fullscreen","0","154308","0.0-0.0","0","0","AdUnY","Scenes","","","","","","","","","","","","","","","","","","","","","","","","","","","","","","","","","","","","","","","","","","","","","","","","",""
"","rating_instructions","","instructions","1","172548","0.0-1.0-0.0","0","0","AdUnY","Scenes","[{""page_index"":0,""viewing_time"":16267},{""page_index"":1,""viewing_time"":1966}]","18233","","","","","","","","","","","","","","","","","","","","","","","","","","","","","","","","","","","","","","","","","","","","","","",""
"","rating_comprehension_check","","survey-multi-choice","2","179749","0.0-1.0-1.0","0","0","AdUnY","Scenes","","7197","{""Q0"":""True"",""Q1"":""Mouse""}","0","","","","","","","","","","","","","","","","","","","","","","","","","","","","","","","","","","","","","","","","","","","","",""
"","start_phase","","html-keyboard-response","3","182727","0.0-2.0","0","0","AdUnY","Scenes","","2976","","","78","","","","","","","","","","","","","","","","","","","","","","","","","","","","","","","","","","","","","","","","","","","",""
"","rating","","html-slider-response","4","186302","0.0-3.0","0","0","AdUnY","Scenes","","3572","","","","100","118","henry-be-NLF6hTe4PAg-unsplash.jpg","0","","","","","","","","","","","","","","","","","","","","","","","","","","","","","","","","","","","","","","","",""
"","rating","","html-slider-response","5","188686","0.0-4.0","0","0","AdUnY","Scenes","","2383","","","","100","101","aniket-deole-T-tOgjWZ0fQ-unsplash.jpg","1","","","","","","","","","","","","","","","","","","","","","","","","","","","","","","","","","","","","","","","",""
"","rating","","html-slider-response","6","190970","0.0-5.0","0","0","AdUnY","Scenes","","2282","","","","100","147","tobias-keller-73F4pKoUkM0-unsplash.jpg","2","","","","","","","","","","","","","","","","","","","","","","","","","","","","","","","","","","","","","","","",""
"","rating","","html-slider-response","7","193461","0.0-6.0","0","0","AdUnY","Scenes","","2489","","","","99","126","jordan-mcqueen-PJCZOWuOxbU-unsplash.jpg","3","","","","","","","","","","","","","","","","","","","","","","","","","","","","","","","","","","","","","","","",""
"","rating","","html-slider-response","8","195930","0.0-7.0","0","0","AdUnY","Scenes","","2467","","","","100","117","frank-mckenna-OD9EOzfSOh0-unsplash.jpg","4","","","","","","","","","","","","","","","","","","","","","","","","","","","","","","","","","","","","","","","",""
"","rating","","html-slider-response","9","198382","0.0-8.0","0","0","AdUnY","Scenes","","2441","","","","100","122","jeff-king-bJHWJeiHfHc-unsplash.jpg","5","","","","","","","","","","","","","","","","","","","","","","","","","","","","","","","","","","","","","","","",""
"","rating","","html-slider-response","10","200984","0.0-9.0","0","0","AdUnY","Scenes","","2599","","","","100","131","luca-bravo-hFzIoD0F_i8-unsplash.jpg","6","","","","","","","","","","","","","","","","","","","","","","","","","","","","","","","","","","","","","","","",""
"","rating","","html-slider-response","11","203566","0.0-10.0","0","0","AdUnY","Scenes","","2581","","","","100","104","artem-sapegin-XGDBdSQ70O0-unsplash.jpg","7","","","","","","","","","","","","","","","","","","","","","","","","","","","","","","","","","","","","","","","",""
"","rating","","html-slider-response","12","206400","0.0-11.0","0","0","AdUnY","Scenes","","2832","","","","100","146","thomas-morse-cuKKa0vWZSY-unsplash.jpg","8","","","","","","","","","","","","","","","","","","","","","","","","","","","","","","","","","","","","","","","",""
"","rating","","html-slider-response","13","226548","0.0-12.0","0","0","AdUnY","Scenes","","20146","","","","100","141","sebastian-unrau-v4e3JI7DDHI-unsplash.jpg","9","","","","","","","","","","","","","","","","","","","","","","","","","","","","","","","","","","","","","","","",""
"","rating","","html-slider-response","14","229447","0.0-13.0","0","0","AdUnY","Scenes","","2897","","","","100","128","karsten-wurth-jS0zC2PJ17A-unsplash.jpg","10","","","","","","","","","","","","","","","","","","","","","","","","","","","","","","","","","","","","","","","",""
"","rating","","html-slider-response","15","233862","0.0-14.0","0","0","AdUnY","Scenes","","4413","","","","100","125","john-lee-oMneOBYhJxY-unsplash.jpg","11","","","","","","","","","","","","","","","","","","","","","","","","","","","","","","","","","","","","","","","",""
"","rating","","html-slider-response","16","235970","0.0-15.0","0","0","AdUnY","Scenes","","2107","","","","100","111","claudio-testa-U3F2o6vz3bs-unsplash.jpg","12","","","","","","","","","","","","","","","","","","","","","","","","","","","","","","","","","","","","","","","",""
"","rating","","html-slider-response","17","241382","0.0-16.0","0","0","AdUnY","Scenes","","5403","","","","100","134","milada-vigerova-pQMM63GE7fo-unsplash.jpg","13","","","","","","","","","","","","","","","","","","","","","","","","","","","","","","","","","","","","","","","",""
"","rating","","html-slider-response","18","243888","0.0-17.0","0","0","AdUnY","Scenes","","2504","","","","100","127","kace-rodriguez-p3OzJuT_Dks-unsplash.jpg","14","","","","","","","","","","","","","","","","","","","","","","","","","","","","","","","","","","","","","","","",""
"","rating","","html-slider-response","19","248942","0.0-18.0","0","0","AdUnY","Scenes","","5052","","","","100","142","sergey-pesterev-y-b_FOmJXdg-unsplash.jpg","15","","","","","","","","","","","","","","","","","","","","","","","","","","","","","","","","","","","","","","","",""
"","rating","","html-slider-response","20","251635","0.0-19.0","0","0","AdUnY","Scenes","","2691","","","","100","123","joel-jasmin-forestbird-efuwb5eBDrI-unsplash.jpg","16","","","","","","","","","","","","","","","","","","","","","","","","","","","","","","","","","","","","","","","",""
"","rating","","html-slider-response","21","252491","0.0-20.0","0","0","AdUnY","Scenes","","854","","","","50","144","solotravelgoals-7kLufxYoqWk-unsplash.jpg","17","","","","","","","","","","","","","","","","","","","","","","","","","","","","","","","","","","","","","","","",""
"","rating","","html-slider-response","22","255628","0.0-21.0","0","0","AdUnY","Scenes","","3135","","","","100","100","aleksandra-boguslawska-MS7KD9Ti7FQ-unsplash.jpg","18","","","","","","","","","","","","","","","","","","","","","","","","","","","","","","","","","","","","","","","",""
"","rating","","html-slider-response","23","258677","0.0-22.0","0","0","AdUnY","Scenes","","3048","","","","100","106","ashim-d-silva-WeYamle9fDM-unsplash.jpg","19","","","","","","","","","","","","","","","","","","","","","","","","","","","","","","","","","","","","","","","",""
"","rating","","html-slider-response","24","264261","0.0-23.0","0","0","AdUnY","Scenes","","5583","","","","100","108","benjamin-voros-phIFdC6lA4E-unsplash.jpg","20","","","","","","","","","","","","","","","","","","","","","","","","","","","","","","","","","","","","","","","",""
"","rating","","html-slider-response","25","272046","0.0-24.0","0","0","AdUnY","Scenes","","7784","","","","75","105","ashim-d-silva-S2Q5mdOrrVc-unsplash.jpg","21","","","","","","","","","","","","","","","","","","","","","","","","","","","","","","","","","","","","","","","",""
"","rating","","html-slider-response","26","277890","0.0-25.0","0","0","AdUnY","Scenes","","5842","","","","100","115","darrell-cassell-hoCXpPUMCoE-unsplash.jpg","22","","","","","","","","","","","","","","","","","","","","","","","","","","","","","","","","","","","","","","","",""
"","rating","","html-slider-response","27","286660","0.0-26.0","0","0","AdUnY","Scenes","","8768","","","","100","139","samsommer-vddccTqwal8-unsplash.jpg","23","","","","","","","","","","","","","","","","","","","","","","","","","","","","","","","","","","","","","","","",""
"","rating","","html-slider-response","28","289409","0.0-27.0","0","0","AdUnY","Scenes","","2746","","","","100","143","sigurdur-fjalar-jonsson-1KxBabIntpE-unsplash.jpg","24","","","","","","","","","","","","","","","","","","","","","","","","","","","","","","","","","","","","","","","",""
"","rating","","html-slider-response","29","292424","0.0-28.0","0","0","AdUnY","Scenes","","3012","","","","100","138","petr-vysohlid-9fqwGqGLUxc-unsplash.jpg","25","","","","","","","","","","","","","","","","","","","","","","","","","","","","","","","","","","","","","","","",""
"","rating","","html-slider-response","30","295261","0.0-29.0","0","0","AdUnY","Scenes","","2835","","","","100","103","anton-darius-FBJugtbHsWU-unsplash.jpg","26","","","","","","","","","","","","","","","","","","","","","","","","","","","","","","","","","","","","","","","",""
"","rating","","html-slider-response","31","299996","0.0-30.0","0","0","AdUnY","Scenes","","4732","","","","100","116","david-marcu-W5MhJ6cy1So-unsplash.jpg","27","","","","","","","","","","","","","","","","","","","","","","","","","","","","","","","","","","","","","","","",""
"","rating","","html-slider-response","32","301591","0.0-31.0","0","0","AdUnY","Scenes","","1593","","","","50","135","mohammad-alizade-4wzRuAb-KWs-unsplash.jpg","28","","","","","","","","","","","","","","","","","","","","","","","","","","","","","","","","","","","","","","","",""
"","rating","","html-slider-response","33","305905","0.0-32.0","0","0","AdUnY","Scenes","","4313","","","","93","113","damian-denis-D8R_txR_0PE-unsplash.jpg","29","","","","","","","","","","","","","","","","","","","","","","","","","","","","","","","","","","","","","","","",""
"","rating","","html-slider-response","34","309356","0.0-33.0","0","0","AdUnY","Scenes","","3449","","","","97","133","mickey-o-neil-xL66l--msXU-unsplash.jpg","30","","","","","","","","","","","","","","","","","","","","","","","","","","","","","","","","","","","","","","","",""
"","rating","","html-slider-response","35","312266","0.0-34.0","0","0","AdUnY","Scenes","","2909","","","","100","137","olga-stalska-QaWRyEdlffY-unsplash.jpg","31","","","","","","","","","","","","","","","","","","","","","","","","","","","","","","","","","","","","","","","",""
"","rating","","html-slider-response","36","348783","0.0-35.0","0","0","AdUnY","Scenes","","36515","","","","100","121","jean-pierre-brungs-qxCqkbF7tUc-unsplash.jpg","32","","","","","","","","","","","","","","","","","","","","","","","","","","","","","","","","","","","","","","","",""
"","rating","","html-slider-response","37","354807","0.0-36.0","0","0","AdUnY","Scenes","","6022","","","","99","107","benjamin-davies-Zm2n2O7Fph4-unsplash.jpg","33","","","","","","","","","","","","","","","","","","","","","","","","","","","","","","","","","","","","","","","",""
"","rating","","html-slider-response","38","361227","0.0-37.0","0","0","AdUnY","Scenes","","6417","","","","100","102","anisur-rahman-K2b7UDed6uQ-unsplash.jpg","34","","","","","","","","","","","","","","","","","","","","","","","","","","","","","","","","","","","","","","","",""
"","rating","","html-slider-response","39","366766","0.0-38.0","0","0","AdUnY","Scenes","","5537","","","","100","129","kurt-cotoaga-cqbLg3lZEpk-unsplash.jpg","35","","","","","","","","","","","","","","","","","","","","","","","","","","","","","","","","","","","","","","","",""
"","rating","","html-slider-response","40","371813","0.0-39.0","0","0","AdUnY","Scenes","","5045","","","","100","112","cosmic-timetraveler-pYyOZ8q7AII-unsplash.jpg","36","","","","","","","","","","","","","","","","","","","","","","","","","","","","","","","","","","","","","","","",""
"","rating","","html-slider-response","41","374142","0.0-40.0","0","0","AdUnY","Scenes","","2327","","","","100","124","johannes-plenio-sPt5RIjKfpk-unsplash.jpg","37","","","","","","","","","","","","","","","","","","","","","","","","","","","","","","","","","","","","","","","",""
"","rating","","html-slider-response","42","378906","0.0-41.0","0","0","AdUnY","Scenes","","4761","","","","100","119","james-wheeler-AFC0XvICMgs-unsplash.jpg","38","","","","","","","","","","","","","","","","","","","","","","","","","","","","","","","","","","","","","","","",""
"","rating","","html-slider-response","43","383273","0.0-42.0","0","0","AdUnY","Scenes","","4365","","","","100","114","daniel-sessler-z_9VmsxR8hs-unsplash.jpg","39","","","","","","","","","","","","","","","","","","","","","","","","","","","","","","","","","","","","","","","",""
"","rating","","html-slider-response","44","477948","0.0-43.0","0","0","AdUnY","Scenes","","94672","","","","100","109","brigitta-schneiter-hXXRLtTxXCU-unsplash.jpg","40","","","","","","","","","","","","","","","","","","","","","","","","","","","","","","","","","","","","","","","",""
"","rating","","html-slider-response","45","481316","0.0-44.0","0","0","AdUnY","Scenes","","3366","","","","82","149","yuriy-bogdanov-W51VK3Obcj0-unsplash.jpg","41","","","","","","","","","","","","","","","","","","","","","","","","","","","","","","","","","","","","","","","",""
"","rating","","html-slider-response","46","483726","0.0-45.0","0","0","AdUnY","Scenes","","2408","","","","100","110","bruno-van-der-kraan-qez8mNJ3ilU-unsplash.jpg","42","","","","","","","","","","","","","","","","","","","","","","","","","","","","","","","","","","","","","","","",""
"","rating","","html-slider-response","47","580349","0.0-46.0","0","0","AdUnY","Scenes","","96622","","","","100","140","samuele-errico-piccarini-JEBqFu2AOOA-unsplash.jpg","43","","","","","","","","","","","","","","","","","","","","","","","","","","","","","","","","","","","","","","","",""
"","rating","","html-slider-response","48","583980","0.0-47.0","0","0","AdUnY","Scenes","","3630","","","","100","130","lina-loos-04-C1NZk1hE-unsplash.jpg","44","","","","","","","","","","","","","","","","","","","","","","","","","","","","","","","","","","","","","","","",""
"","rating","","html-slider-response","49","588622","0.0-48.0","0","0","AdUnY","Scenes","","4640","","","","100","120","jarrett-kow-1ZOyYPOBn7I-unsplash.jpg","45","","","","","","","","","","","","","","","","","","","","","","","","","","","","","","","","","","","","","","","",""
"","rating","","html-slider-response","50","591368","0.0-49.0","0","0","AdUnY","Scenes","","2744","","","","100","132","meng-ji-8BH_M-53CyA-unsplash.jpg","46","","","","","","","","","","","","","","","","","","","","","","","","","","","","","","","","","","","","","","","",""
"","rating","","html-slider-response","51","594225","0.0-50.0","0","0","AdUnY","Scenes","","2853","","","","100","148","tom-gainor-ZqLeQDjY6fY-unsplash.jpg","47","","","","","","","","","","","","","","","","","","","","","","","","","","","","","","","","","","","","","","","",""
"","rating","","html-slider-response","52","596755","0.0-51.0","0","0","AdUnY","Scenes","","2528","","","","94","136","nicolas-jehly-LzVB84KkZOE-unsplash.jpg","48","","","","","","","","","","","","","","","","","","","","","","","","","","","","","","","","","","","","","","","",""
"","rating","","html-slider-response","53","599477","0.0-52.0","0","0","AdUnY","Scenes","","2719","","","","89","145","stephen-leonardi-gyIRjKPXupE-unsplash.jpg","49","","","","","","","","","","","","","","","","","","","","","","","","","","","","","","","","","","","","","","","",""
"","deliberation_instructions","","instructions","54","674862","0.0-53.0-0.0","0","0","AdUnY","Scenes","[{""page_index"":0,""viewing_time"":9839},{""page_index"":1,""viewing_time"":9747},{""page_index"":2,""viewing_time"":31741},{""page_index"":3,""viewing_time"":21790},{""page_index"":4,""viewing_time"":2261}]","75382","","","","","","","","","","","","","","","","","","","","","","","","","","","","","","","","","","","","","","","","","","","","","","",""
"","deliberation_comprehension_check","","survey-multi-choice","55","719225","0.0-53.0-1.0","0","0","AdUnY","Scenes","","44356","{""Q0"":""True"",""Q1"":""False"",""Q2"":""Consider carefully and take your time (up to 10 seconds)"",""Q3"":"""",""Q4"":""D""}","1","","","","","","","","","","","","","","","","","","","","","","","","","","","","","","","","","","","","","","","","","","","","",""
"","missed_instruction_checkup","","html-keyboard-response","56","722661","0.0-53.0-2.0-0.0","0","1","AdUnY","Scenes","","3435","","","78","","","","","","","","","","","","","","","","","","","","","","","","","","","","","","","","","","","","","","","","","","","",""
"","deliberation_instructions","","instructions","57","782274","0.0-53.1-0.1","0","0","AdUnY","Scenes","[{""page_index"":0,""viewing_time"":7133},{""page_index"":1,""viewing_time"":8246},{""page_index"":2,""viewing_time"":26460},{""page_index"":3,""viewing_time"":16176},{""page_index"":4,""viewing_time"":1596}]","59611","","","","","","","","","","","","","","","","","","","","","","","","","","","","","","","","","","","","","","","","","","","","","","",""
"","deliberation_comprehension_check","","survey-multi-choice","58","797432","0.0-53.1-1.1","0","0","AdUnY","Scenes","","15152","{""Q0"":""True"",""Q1"":""True"",""Q2"":""Consider carefully and take your time (up to 10 seconds)"",""Q3"":""True"",""Q4"":""D""}","0","","","","","","","","","","","","","","","","","","","","","","","","","","","","","","","","","","","","","","","","","","","","",""
"","start_phase","","html-keyboard-response","59","800556","0.0-54.0","0","0","AdUnY","Scenes","","3123","","","78","","","","","","","","","","","","","","","","","","","","","","","","","","","","","","","","","","","","","","","","","","","",""
"","first_deliberation_block","","html-keyboard-response","60","806344","0.0-55.0","0","0","AdUnY","Scenes","","5776","","","78","","","","","","","","","","","","","","","","","","","","","","","","","","","","","","","","","","","","","","","","","","","",""
"","fixation","","html-keyboard-response","61","807350","0.0-56.0-0.0","0","0","AdUnY","Scenes","","null","","","null","","","","","","","","","","","","","","","","","","","","","","","","","","","","","","","","","","","","","","","","","","","",""
"","deliberation","","html-keyboard-response","62","810677","0.0-56.0-1.0","0","0","AdUnY","Scenes","","3322","","","75","","","","0","121","141","0","1","100","100","jean-pierre-brungs-qxCqkbF7tUc-unsplash.jpg","sebastian-unrau-v4e3JI7DDHI-unsplash.jpg","1","0","141","121","","","","","","","","","","","","","","","","","","","","","","","","","","","",""
"","choice_confirmation","","html-keyboard-response","63","811193","0.0-56.0-2.0-0.0","0","0","AdUnY","Scenes","","null","","","null","","","","0","121","141","","","","","","","","","","","","","","","","","","","","","","","","","","","","","","","","","","","","","",""
"","fixation","","html-keyboard-response","64","812210","0.0-57.0-0.0","0","0","AdUnY","Scenes","","null","","","null","","","","","","","","","","","","","","","","","","","","","","","","","","","","","","","","","","","","","","","","","","","",""
"","deliberation","","html-keyboard-response","65","814345","0.0-57.0-1.0","0","0","AdUnY","Scenes","","2129","","","75","","","","1","117","123","0","-1","100","100","frank-mckenna-OD9EOzfSOh0-unsplash.jpg","joel-jasmin-forestbird-efuwb5eBDrI-unsplash.jpg","1","0","123","117","","","","","","","","","","","","","","","","","","","","","","","","","","","",""
"","choice_confirmation","","html-keyboard-response","66","814851","0.0-57.0-2.0-0.0","0","0","AdUnY","Scenes","","null","","","null","","","","1","117","123","","","","","","","","","","","","","","","","","","","","","","","","","","","","","","","","","","","","","",""
"","fixation","","html-keyboard-response","67","815869","0.0-58.0-0.0","0","0","AdUnY","Scenes","","null","","","null","","","","","","","","","","","","","","","","","","","","","","","","","","","","","","","","","","","","","","","","","","","",""
"","deliberation","","html-keyboard-response","68","817267","0.0-58.0-1.0","0","0","AdUnY","Scenes","","1395","","","75","","","","2","139","134","0","-1","100","100","samsommer-vddccTqwal8-unsplash.jpg","milada-vigerova-pQMM63GE7fo-unsplash.jpg","1","0","134","139","","","","","","","","","","","","","","","","","","","","","","","","","","","",""
"","choice_confirmation","","html-keyboard-response","69","817779","0.0-58.0-2.0-0.0","0","0","AdUnY","Scenes","","null","","","null","","","","2","139","134","","","","","","","","","","","","","","","","","","","","","","","","","","","","","","","","","","","","","",""
"","fixation","","html-keyboard-response","70","818794","0.0-59.0-0.0","0","0","AdUnY","Scenes","","null","","","null","","","","","","","","","","","","","","","","","","","","","","","","","","","","","","","","","","","","","","","","","","","",""
"","deliberation","","html-keyboard-response","71","820481","0.0-59.0-1.0","0","0","AdUnY","Scenes","","1673","","","68","","","","3","125","103","1","-1","100","100","john-lee-oMneOBYhJxY-unsplash.jpg","anton-darius-FBJugtbHsWU-unsplash.jpg","1","1","125","103","","","","","","","","","","","","","","","","","","","","","","","","","","","",""
"","choice_confirmation","","html-keyboard-response","72","820992","0.0-59.0-2.0-0.0","0","0","AdUnY","Scenes","","null","","","null","","","","3","125","103","","","","","","","","","","","","","","","","","","","","","","","","","","","","","","","","","","","","","",""
"","explain_trial","","survey-text","73","848262","0.0-59.0-5.0-0.0","0","0","AdUnY","Scenes","","27261","{""Q0"":""The reflection on the mountain looks attractive.""}","","","","","","3","125","103","","","","","","","","","","","{""Q0"":""The reflection on the mountain looks attractive.""}","","","","","","","","","","","","","","","","","","","","","","","","","","",""
"","fixation","","html-keyboard-response","74","849268","0.0-60.0-0.0","0","0","AdUnY","Scenes","","null","","","null","","","","","","","","","","","","","","","","","","","","","","","","","","","","","","","","","","","","","","","","","","","",""
"","deliberation","","html-keyboard-response","75","851748","0.0-60.0-1.0","0","0","AdUnY","Scenes","","2478","","","68","","","","4","142","127","1","1","100","100","sergey-pesterev-y-b_FOmJXdg-unsplash.jpg","kace-rodriguez-p3OzJuT_Dks-unsplash.jpg","1","1","142","127","","","","","","","","","","","","","","","","","","","","","","","","","","","",""
"","choice_confirmation","","html-keyboard-response","76","852260","0.0-60.0-2.0-0.0","0","0","AdUnY","Scenes","","null","","","null","","","","4","142","127","","","","","","","","","","","","","","","","","","","","","","","","","","","","","","","","","","","","","",""
"","explain_trial","","survey-text","77","872542","0.0-60.0-5.0-0.0","0","0","AdUnY","Scenes","","20268","{""Q0"":""There is something special in the image.""}","","","","","","4","142","127","","","","","","","","","","","{""Q0"":""There is something special in the image.""}","","","","","","","","","","","","","","","","","","","","","","","","","","",""
"","fixation","","html-keyboard-response","78","873563","0.0-61.0-0.0","0","0","AdUnY","Scenes","","null","","","null","","","","","","","","","","","","","","","","","","","","","","","","","","","","","","","","","","","","","","","","","","","",""
"","deliberation","","html-keyboard-response","79","875386","0.0-61.0-1.0","0","0","AdUnY","Scenes","","1821","","","68","","","","5","146","122","1","1","100","100","thomas-morse-cuKKa0vWZSY-unsplash.jpg","jeff-king-bJHWJeiHfHc-unsplash.jpg","1","1","146","122","","","","","","","","","","","","","","","","","","","","","","","","","","","",""
"","choice_confirmation","","html-keyboard-response","80","875897","0.0-61.0-2.0-0.0","0","0","AdUnY","Scenes","","null","","","null","","","","5","146","122","","","","","","","","","","","","","","","","","","","","","","","","","","","","","","","","","","","","","",""
"","explain_trial","","survey-text","81","888421","0.0-61.0-5.0-0.0","0","0","AdUnY","Scenes","","12522","{""Q0"":""I can see more nature.""}","","","","","","5","146","122","","","","","","","","","","","{""Q0"":""I can see more nature.""}","","","","","","","","","","","","","","","","","","","","","","","","","","",""
"","fixation","","html-keyboard-response","82","889430","0.0-62.0-0.0","0","0","AdUnY","Scenes","","null","","","null","","","","","","","","","","","","","","","","","","","","","","","","","","","","","","","","","","","","","","","","","","","",""
"","deliberation","","html-keyboard-response","83","891221","0.0-62.0-1.0","0","0","AdUnY","Scenes","","1781","","","68","","","","6","111","100","1","1","100","100","claudio-testa-U3F2o6vz3bs-unsplash.jpg","aleksandra-boguslawska-MS7KD9Ti7FQ-unsplash.jpg","1","1","111","100","","","","","","","","","","","","","","","","","","","","","","","","","","","",""
"","choice_confirmation","","html-keyboard-response","84","891724","0.0-62.0-2.0-0.0","0","0","AdUnY","Scenes","","null","","","null","","","","6","111","100","","","","","","","","","","","","","","","","","","","","","","","","","","","","","","","","","","","","","",""
"","explain_trial","","survey-text","85","906116","0.0-62.0-5.0-0.0","0","0","AdUnY","Scenes","","14390","{""Q0"":""The nature is too good.""}","","","","","","6","111","100","","","","","","","","","","","{""Q0"":""The nature is too good.""}","","","","","","","","","","","","","","","","","","","","","","","","","","",""
"","fixation","","html-keyboard-response","86","907124","0.0-63.0-0.0","0","0","AdUnY","Scenes","","null","","","null","","","","","","","","","","","","","","","","","","","","","","","","","","","","","","","","","","","","","","","","","","","",""
"","deliberation","","html-keyboard-response","87","909437","0.0-63.0-1.0","0","0","AdUnY","Scenes","","2312","","","75","","","","7","131","137","1","-1","100","100","luca-bravo-hFzIoD0F_i8-unsplash.jpg","olga-stalska-QaWRyEdlffY-unsplash.jpg","1","0","137","131","","","","","","","","","","","","","","","","","","","","","","","","","","","",""
"","choice_confirmation","","html-keyboard-response","88","909941","0.0-63.0-2.0-0.0","0","0","AdUnY","Scenes","","null","","","null","","","","7","131","137","","","","","","","","","","","","","","","","","","","","","","","","","","","","","","","","","","","","","",""
"","explain_trial","","survey-text","89","931517","0.0-63.0-5.0-0.0","0","0","AdUnY","Scenes","","21575","{""Q0"":""Mountain with white cloud is amazing.""}","","","","","","7","131","137","","","","","","","","","","","{""Q0"":""Mountain with white cloud is amazing.""}","","","","","","","","","","","","","","","","","","","","","","","","","","",""
"","fixation","","html-keyboard-response","90","932533","0.0-64.0-0.0","0","0","AdUnY","Scenes","","null","","","null","","","","","","","","","","","","","","","","","","","","","","","","","","","","","","","","","","","","","","","","","","","",""
"","deliberation","","html-keyboard-response","91","936405","0.0-64.0-1.0","0","0","AdUnY","Scenes","","3866","","","68","","","","8","143","138","1","-1","100","100","sigurdur-fjalar-jonsson-1KxBabIntpE-unsplash.jpg","petr-vysohlid-9fqwGqGLUxc-unsplash.jpg","1","1","143","138","","","","","","","","","","","","","","","","","","","","","","","","","","","",""
"","choice_confirmation","","html-keyboard-response","92","936910","0.0-64.0-2.0-0.0","0","0","AdUnY","Scenes","","null","","","null","","","","8","143","138","","","","","","","","","","","","","","","","","","","","","","","","","","","","","","","","","","","","","",""
"","explain_trial","","survey-text","93","1081905","0.0-64.0-5.0-0.0","0","0","AdUnY","Scenes","","144993","{""Q0"":""The river and mountain looks pleasant.""}","","","","","","8","143","138","","","","","","","","","","","{""Q0"":""The river and mountain looks pleasant.""}","","","","","","","","","","","","","","","","","","","","","","","","","","",""
"","fixation","","html-keyboard-response","94","1082907","0.0-65.0-0.0","0","0","AdUnY","Scenes","","null","","","null","","","","","","","","","","","","","","","","","","","","","","","","","","","","","","","","","","","","","","","","","","","",""
"","deliberation","","html-keyboard-response","95","1086983","0.0-65.0-1.0","0","0","AdUnY","Scenes","","4073","","","75","","","","9","128","108","0","1","100","100","karsten-wurth-jS0zC2PJ17A-unsplash.jpg","benjamin-voros-phIFdC6lA4E-unsplash.jpg","1","0","108","128","","","","","","","","","","","","","","","","","","","","","","","","","","","",""
"","choice_confirmation","","html-keyboard-response","96","1087492","0.0-65.0-2.0-0.0","0","0","AdUnY","Scenes","","null","","","null","","","","9","128","108","","","","","","","","","","","","","","","","","","","","","","","","","","","","","","","","","","","","","",""
"","fixation","","html-keyboard-response","97","1088500","0.0-66.0-0.0","0","0","AdUnY","Scenes","","null","","","null","","","","","","","","","","","","","","","","","","","","","","","","","","","","","","","","","","","","","","","","","","","",""
"","deliberation","","html-keyboard-response","98","1091022","0.0-66.0-1.0","0","0","AdUnY","Scenes","","2514","","","75","","","","10","104","116","0","1","100","100","artem-sapegin-XGDBdSQ70O0-unsplash.jpg","david-marcu-W5MhJ6cy1So-unsplash.jpg","1","0","116","104","","","","","","","","","","","","","","","","","","","","","","","","","","","",""
"","choice_confirmation","","html-keyboard-response","99","1091527","0.0-66.0-2.0-0.0","0","0","AdUnY","Scenes","","null","","","null","","","","10","104","116","","","","","","","","","","","","","","","","","","","","","","","","","","","","","","","","","","","","","",""
"","fixation","","html-keyboard-response","100","1092538","0.0-67.0-0.0","0","0","AdUnY","Scenes","","null","","","null","","","","","","","","","","","","","","","","","","","","","","","","","","","","","","","","","","","","","","","","","","","",""
"","deliberation","","html-keyboard-response","101","1094476","0.0-67.0-1.0","0","0","AdUnY","Scenes","","1934","","","68","","","","11","115","106","0","-1","100","100","darrell-cassell-hoCXpPUMCoE-unsplash.jpg","ashim-d-silva-WeYamle9fDM-unsplash.jpg","1","1","115","106","","","","","","","","","","","","","","","","","","","","","","","","","","","",""
"","choice_confirmation","","html-keyboard-response","102","1094990","0.0-67.0-2.0-0.0","0","0","AdUnY","Scenes","","null","","","null","","","","11","115","106","","","","","","","","","","","","","","","","","","","","","","","","","","","","","","","","","","","","","",""
"","practice_deliberation_again","","html-keyboard-response","103","1099797","0.0-67.0-6.0-0.0","0","0","AdUnY","Scenes","","4806","","","78","","","","","","","","","","","","","","","","","","","","","","","","","","","","","","","","","","","","","","","","","","","",""
"","fixation","","html-keyboard-response","104","1100804","0.0-68.0-0.0","0","0","AdUnY","Scenes","","null","","","null","","","","","","","","","","","","","","","","","","","","","","","","","","","","","","","","","","","","","","","","","","","",""
"","deliberation","","html-keyboard-response","105","1102006","0.0-68.0-1.0","0","0","AdUnY","Scenes","","1195","","","68","","","","12","111","100","0","1","100","100","claudio-testa-U3F2o6vz3bs-unsplash.jpg","aleksandra-boguslawska-MS7KD9Ti7FQ-unsplash.jpg","2","1","111","100","","","","","","","","","","","","","","","","","","","","","","","","","","","",""
"","choice_confirmation","","html-keyboard-response","106","1102525","0.0-68.0-2.0-0.0","0","0","AdUnY","Scenes","","null","","","null","","","","12","111","100","","","","","","","","","","","","","","","","","","","","","","","","","","","","","","","","","","","","","",""
"","fixation","","html-keyboard-response","107","1103533","0.0-69.0-0.0","0","0","AdUnY","Scenes","","null","","","null","","","","","","","","","","","","","","","","","","","","","","","","","","","","","","","","","","","","","","","","","","","",""
"","deliberation","","html-keyboard-response","108","1104985","0.0-69.0-1.0","0","0","AdUnY","Scenes","","1450","","","75","","","","13","131","137","0","-1","100","100","luca-bravo-hFzIoD0F_i8-unsplash.jpg","olga-stalska-QaWRyEdlffY-unsplash.jpg","2","0","137","131","","","","","","","","","","","","","","","","","","","","","","","","","","","",""
"","choice_confirmation","","html-keyboard-response","109","1105499","0.0-69.0-2.0-0.0","0","0","AdUnY","Scenes","","null","","","null","","","","13","131","137","","","","","","","","","","","","","","","","","","","","","","","","","","","","","","","","","","","","","",""
"","fixation","","html-keyboard-response","110","1106510","0.0-70.0-0.0","0","0","AdUnY","Scenes","","null","","","null","","","","","","","","","","","","","","","","","","","","","","","","","","","","","","","","","","","","","","","","","","","",""
"","deliberation","","html-keyboard-response","111","1107518","0.0-70.0-1.0","0","0","AdUnY","Scenes","","998","","","68","","","","14","143","138","0","-1","100","100","sigurdur-fjalar-jonsson-1KxBabIntpE-unsplash.jpg","petr-vysohlid-9fqwGqGLUxc-unsplash.jpg","2","1","143","138","","","","","","","","","","","","","","","","","","","","","","","","","","","",""
"","choice_confirmation","","html-keyboard-response","112","1108033","0.0-70.0-2.0-0.0","0","0","AdUnY","Scenes","","null","","","null","","","","14","143","138","","","","","","","","","","","","","","","","","","","","","","","","","","","","","","","","","","","","","",""
"","fixation","","html-keyboard-response","113","1109049","0.0-71.0-0.0","0","0","AdUnY","Scenes","","null","","","null","","","","","","","","","","","","","","","","","","","","","","","","","","","","","","","","","","","","","","","","","","","",""
"","deliberation","","html-keyboard-response","114","1110661","0.0-71.0-1.0","0","0","AdUnY","Scenes","","1610","","","68","","","","15","146","122","0","1","100","100","thomas-morse-cuKKa0vWZSY-unsplash.jpg","jeff-king-bJHWJeiHfHc-unsplash.jpg","2","1","146","122","","","","","","","","","","","","","","","","","","","","","","","","","","","",""
"","choice_confirmation","","html-keyboard-response","115","1111166","0.0-71.0-2.0-0.0","0","0","AdUnY","Scenes","","null","","","null","","","","15","146","122","","","","","","","","","","","","","","","","","","","","","","","","","","","","","","","","","","","","","",""
"","fixation","","html-keyboard-response","116","1112180","0.0-72.0-0.0","0","0","AdUnY","Scenes","","null","","","null","","","","","","","","","","","","","","","","","","","","","","","","","","","","","","","","","","","","","","","","","","","",""
"","deliberation","","html-keyboard-response","117","1113381","0.0-72.0-1.0","0","0","AdUnY","Scenes","","1199","","","68","","","","16","125","103","0","-1","100","100","john-lee-oMneOBYhJxY-unsplash.jpg","anton-darius-FBJugtbHsWU-unsplash.jpg","2","1","125","103","","","","","","","","","","","","","","","","","","","","","","","","","","","",""
"","choice_confirmation","","html-keyboard-response","118","1113889","0.0-72.0-2.0-0.0","0","0","AdUnY","Scenes","","null","","","null","","","","16","125","103","","","","","","","","","","","","","","","","","","","","","","","","","","","","","","","","","","","","","",""
"","fixation","","html-keyboard-response","119","1114905","0.0-73.0-0.0","0","0","AdUnY","Scenes","","null","","","null","","","","","","","","","","","","","","","","","","","","","","","","","","","","","","","","","","","","","","","","","","","",""
"","deliberation","","html-keyboard-response","120","1116350","0.0-73.0-1.0","0","0","AdUnY","Scenes","","1444","","","75","","","","17","139","134","1","-1","100","100","samsommer-vddccTqwal8-unsplash.jpg","milada-vigerova-pQMM63GE7fo-unsplash.jpg","2","0","134","139","","","","","","","","","","","","","","","","","","","","","","","","","","","",""
"","choice_confirmation","","html-keyboard-response","121","1116851","0.0-73.0-2.0-0.0","0","0","AdUnY","Scenes","","null","","","null","","","","17","139","134","","","","","","","","","","","","","","","","","","","","","","","","","","","","","","","","","","","","","",""
"","explain_trial","","survey-text","122","1143346","0.0-73.0-5.0-0.0","0","0","AdUnY","Scenes","","26492","{""Q0"":""The water falls looks attractive.""}","","","","","","17","139","134","","","","","","","","","","","{""Q0"":""The water falls looks attractive.""}","","","","","","","","","","","","","","","","","","","","","","","","","","",""
"","fixation","","html-keyboard-response","123","1144348","0.0-74.0-0.0","0","0","AdUnY","Scenes","","null","","","null","","","","","","","","","","","","","","","","","","","","","","","","","","","","","","","","","","","","","","","","","","","",""
"","deliberation","","html-keyboard-response","124","1146187","0.0-74.0-1.0","0","0","AdUnY","Scenes","","1837","","","75","","","","18","104","116","1","1","100","100","artem-sapegin-XGDBdSQ70O0-unsplash.jpg","david-marcu-W5MhJ6cy1So-unsplash.jpg","2","0","116","104","","","","","","","","","","","","","","","","","","","","","","","","","","","",""
"","choice_confirmation","","html-keyboard-response","125","1146700","0.0-74.0-2.0-0.0","0","0","AdUnY","Scenes","","null","","","null","","","","18","104","116","","","","","","","","","","","","","","","","","","","","","","","","","","","","","","","","","","","","","",""
"","explain_trial","","survey-text","126","1196263","0.0-74.0-5.0-0.0","0","0","AdUnY","Scenes","","49560","{""Q0"":""The reflection of the trees looks attractive.""}","","","","","","18","104","116","","","","","","","","","","","{""Q0"":""The reflection of the trees looks attractive.""}","","","","","","","","","","","","","","","","","","","","","","","","","","",""
"","fixation","","html-keyboard-response","127","1197286","0.0-75.0-0.0","0","0","AdUnY","Scenes","","null","","","null","","","","","","","","","","","","","","","","","","","","","","","","","","","","","","","","","","","","","","","","","","","",""
"","deliberation","","html-keyboard-response","128","1200166","0.0-75.0-1.0","0","0","AdUnY","Scenes","","2869","","","75","","","","19","117","123","1","-1","100","100","frank-mckenna-OD9EOzfSOh0-unsplash.jpg","joel-jasmin-forestbird-efuwb5eBDrI-unsplash.jpg","2","0","123","117","","","","","","","","","","","","","","","","","","","","","","","","","","","",""
"","choice_confirmation","","html-keyboard-response","129","1200672","0.0-75.0-2.0-0.0","0","0","AdUnY","Scenes","","null","","","null","","","","19","117","123","","","","","","","","","","","","","","","","","","","","","","","","","","","","","","","","","","","","","",""
"","explain_trial","","survey-text","130","1221365","0.0-75.0-5.0-0.0","0","0","AdUnY","Scenes","","20691","{""Q0"":""The snow over the trees and mountain looks pleasant.""}","","","","","","19","117","123","","","","","","","","","","","{""Q0"":""The snow over the trees and mountain looks pleasant.""}","","","","","","","","","","","","","","","","","","","","","","","","","","",""
"","fixation","","html-keyboard-response","131","1222372","0.0-76.0-0.0","0","0","AdUnY","Scenes","","null","","","null","","","","","","","","","","","","","","","","","","","","","","","","","","","","","","","","","","","","","","","","","","","",""
"","deliberation","","html-keyboard-response","132","1225069","0.0-76.0-1.0","0","0","AdUnY","Scenes","","2695","","","75","","","","20","128","108","1","1","100","100","karsten-wurth-jS0zC2PJ17A-unsplash.jpg","benjamin-voros-phIFdC6lA4E-unsplash.jpg","2","0","108","128","","","","","","","","","","","","","","","","","","","","","","","","","","","",""
"","choice_confirmation","","html-keyboard-response","133","1225574","0.0-76.0-2.0-0.0","0","0","AdUnY","Scenes","","null","","","null","","","","20","128","108","","","","","","","","","","","","","","","","","","","","","","","","","","","","","","","","","","","","","",""
"","explain_trial","","survey-text","134","1246586","0.0-76.0-5.0-0.0","0","0","AdUnY","Scenes","","21011","{""Q0"":""The stars and white snow mountain is good.""}","","","","","","20","128","108","","","","","","","","","","","{""Q0"":""The stars and white snow mountain is good.""}","","","","","","","","","","","","","","","","","","","","","","","","","","",""
"","fixation","","html-keyboard-response","135","1247594","0.0-77.0-0.0","0","0","AdUnY","Scenes","","null","","","null","","","","","","","","","","","","","","","","","","","","","","","","","","","","","","","","","","","","","","","","","","","",""
"","deliberation","","html-keyboard-response","136","1249423","0.0-77.0-1.0","0","0","AdUnY","Scenes","","1820","","","75","","","","21","121","141","1","1","100","100","jean-pierre-brungs-qxCqkbF7tUc-unsplash.jpg","sebastian-unrau-v4e3JI7DDHI-unsplash.jpg","2","0","141","121","","","","","","","","","","","","","","","","","","","","","","","","","","","",""
"","choice_confirmation","","html-keyboard-response","137","1249930","0.0-77.0-2.0-0.0","0","0","AdUnY","Scenes","","null","","","null","","","","21","121","141","","","","","","","","","","","","","","","","","","","","","","","","","","","","","","","","","","","","","",""
"","explain_trial","","survey-text","138","1265045","0.0-77.0-5.0-0.0","0","0","AdUnY","Scenes","","15113","{""Q0"":""A very good place to walk.""}","","","","","","21","121","141","","","","","","","","","","","{""Q0"":""A very good place to walk.""}","","","","","","","","","","","","","","","","","","","","","","","","","","",""
"","fixation","","html-keyboard-response","139","1266066","0.0-78.0-0.0","0","0","AdUnY","Scenes","","null","","","null","","","","","","","","","","","","","","","","","","","","","","","","","","","","","","","","","","","","","","","","","","","",""
"","deliberation","","html-keyboard-response","140","1269332","0.0-78.0-1.0","0","0","AdUnY","Scenes","","3263","","","68","","","","22","142","127","0","1","100","100","sergey-pesterev-y-b_FOmJXdg-unsplash.jpg","kace-rodriguez-p3OzJuT_Dks-unsplash.jpg","2","1","142","127","","","","","","","","","","","","","","","","","","","","","","","","","","","",""
"","choice_confirmation","","html-keyboard-response","141","1269836","0.0-78.0-2.0-0.0","0","0","AdUnY","Scenes","","null","","","null","","","","22","142","127","","","","","","","","","","","","","","","","","","","","","","","","","","","","","","","","","","","","","",""
"","fixation","","html-keyboard-response","142","1270842","0.0-79.0-0.0","0","0","AdUnY","Scenes","","null","","","null","","","","","","","","","","","","","","","","","","","","","","","","","","","","","","","","","","","","","","","","","","","",""
"","deliberation","","html-keyboard-response","143","1272381","0.0-79.0-1.0","0","0","AdUnY","Scenes","","1530","","","68","","","","23","115","106","1","-1","100","100","darrell-cassell-hoCXpPUMCoE-unsplash.jpg","ashim-d-silva-WeYamle9fDM-unsplash.jpg","2","1","115","106","","","","","","","","","","","","","","","","","","","","","","","","","","","",""
"","choice_confirmation","","html-keyboard-response","144","1272889","0.0-79.0-2.0-0.0","0","0","AdUnY","Scenes","","null","","","null","","","","23","115","106","","","","","","","","","","","","","","","","","","","","","","","","","","","","","","","","","","","","","",""
"","explain_trial","","survey-text","145","1291527","0.0-79.0-5.0-0.0","0","0","AdUnY","Scenes","","18636","{""Q0"":""The view of the sea really amazing.""}","","","","","","23","115","106","","","","","","","","","","","{""Q0"":""The view of the sea really amazing.""}","","","","","","","","","","","","","","","","","","","","","","","","","","",""
"","start_critical_deliberation_block","","html-keyboard-response","146","1306241","0.0-79.0-7.0-0.0","0","0","AdUnY","Scenes","","14707","","","78","","","","","","","","","","","","","","","","","","","","","","","","","","","","","","","","","","","","","","","","","","","",""
"","fixation","","html-keyboard-response","147","1307252","0.0-80.0-0.0","0","0","AdUnY","Scenes","","null","","","null","","","","","","","","","","","","","","","","","","","","","","","","","","","","","","","","","","","","","","","","","","","",""
"","deliberation","","html-keyboard-response","148","1309141","0.0-80.0-1.0","0","0","AdUnY","Scenes","","1887","","","68","","","","24","143","138","0","-1","100","100","sigurdur-fjalar-jonsson-1KxBabIntpE-unsplash.jpg","petr-vysohlid-9fqwGqGLUxc-unsplash.jpg","3","1","143","138","","","","","","","","","","","","","","","","","","","","","","","","","","","",""
"","choice_confirmation","","html-keyboard-response","149","1309644","0.0-80.0-2.0-0.0","0","0","AdUnY","Scenes","","null","","","null","","","","24","143","138","","","","","","","","","","","","","","","","","","","","","","","","","","","","","","","","","","","","","",""
"","fixation","","html-keyboard-response","150","1310663","0.0-81.0-0.0","0","0","AdUnY","Scenes","","null","","","null","","","","","","","","","","","","","","","","","","","","","","","","","","","","","","","","","","","","","","","","","","","",""
"","deliberation","","html-keyboard-response","151","1312678","0.0-81.0-1.0","0","0","AdUnY","Scenes","","1997","","","75","","","","25","131","137","0","-1","100","100","luca-bravo-hFzIoD0F_i8-unsplash.jpg","olga-stalska-QaWRyEdlffY-unsplash.jpg","3","0","137","131","","","","","","","","","","","","","","","","","","","","","","","","","","","",""
"","choice_confirmation","","html-keyboard-response","152","1313186","0.0-81.0-2.0-0.0","0","0","AdUnY","Scenes","","null","","","null","","","","25","131","137","","","","","","","","","","","","","","","","","","","","","","","","","","","","","","","","","","","","","",""
"","fixation","","html-keyboard-response","153","1314202","0.0-82.0-0.0","0","0","AdUnY","Scenes","","null","","","null","","","","","","","","","","","","","","","","","","","","","","","","","","","","","","","","","","","","","","","","","","","",""
"","deliberation","","html-keyboard-response","154","1315392","0.0-82.0-1.0","0","0","AdUnY","Scenes","","1177","","","75","","","","26","121","141","0","1","100","100","jean-pierre-brungs-qxCqkbF7tUc-unsplash.jpg","sebastian-unrau-v4e3JI7DDHI-unsplash.jpg","3","0","141","121","","","","","","","","","","","","","","","","","","","","","","","","","","","",""
"","choice_confirmation","","html-keyboard-response","155","1315906","0.0-82.0-2.0-0.0","0","0","AdUnY","Scenes","","null","","","null","","","","26","121","141","","","","","","","","","","","","","","","","","","","","","","","","","","","","","","","","","","","","","",""
"","fixation","","html-keyboard-response","156","1316922","0.0-83.0-0.0","0","0","AdUnY","Scenes","","null","","","null","","","","","","","","","","","","","","","","","","","","","","","","","","","","","","","","","","","","","","","","","","","",""
"","deliberation","","html-keyboard-response","157","1318145","0.0-83.0-1.0","0","0","AdUnY","Scenes","","1221","","","68","","","","27","142","127","0","1","100","100","sergey-pesterev-y-b_FOmJXdg-unsplash.jpg","kace-rodriguez-p3OzJuT_Dks-unsplash.jpg","3","1","142","127","","","","","","","","","","","","","","","","","","","","","","","","","","","",""
"","choice_confirmation","","html-keyboard-response","158","1318672","0.0-83.0-2.0-0.0","0","0","AdUnY","Scenes","","null","","","null","","","","27","142","127","","","","","","","","","","","","","","","","","","","","","","","","","","","","","","","","","","","","","",""
"","fixation","","html-keyboard-response","159","1319684","0.0-84.0-0.0","0","0","AdUnY","Scenes","","null","","","null","","","","","","","","","","","","","","","","","","","","","","","","","","","","","","","","","","","","","","","","","","","",""
"","deliberation","","html-keyboard-response","160","1320700","0.0-84.0-1.0","0","0","AdUnY","Scenes","","1001","","","75","","","","28","104","116","0","1","100","100","artem-sapegin-XGDBdSQ70O0-unsplash.jpg","david-marcu-W5MhJ6cy1So-unsplash.jpg","3","0","116","104","","","","","","","","","","","","","","","","","","","","","","","","","","","",""
"","choice_confirmation","","html-keyboard-response","161","1321214","0.0-84.0-2.0-0.0","0","0","AdUnY","Scenes","","null","","","null","","","","28","104","116","","","","","","","","","","","","","","","","","","","","","","","","","","","","","","","","","","","","","",""
"","fixation","","html-keyboard-response","162","1322233","0.0-85.0-0.0","0","0","AdUnY","Scenes","","null","","","null","","","","","","","","","","","","","","","","","","","","","","","","","","","","","","","","","","","","","","","","","","","",""
"","deliberation","","html-keyboard-response","163","1323501","0.0-85.0-1.0","0","0","AdUnY","Scenes","","1263","","","75","","","","29","139","134","0","-1","100","100","samsommer-vddccTqwal8-unsplash.jpg","milada-vigerova-pQMM63GE7fo-unsplash.jpg","3","0","134","139","","","","","","","","","","","","","","","","","","","","","","","","","","","",""
"","choice_confirmation","","html-keyboard-response","164","1324008","0.0-85.0-2.0-0.0","0","0","AdUnY","Scenes","","null","","","null","","","","29","139","134","","","","","","","","","","","","","","","","","","","","","","","","","","","","","","","","","","","","","",""
"","fixation","","html-keyboard-response","165","1325016","0.0-86.0-0.0","0","0","AdUnY","Scenes","","null","","","null","","","","","","","","","","","","","","","","","","","","","","","","","","","","","","","","","","","","","","","","","","","",""
"","deliberation","","html-keyboard-response","166","1326197","0.0-86.0-1.0","0","0","AdUnY","Scenes","","1169","","","75","","","","30","117","123","0","-1","100","100","frank-mckenna-OD9EOzfSOh0-unsplash.jpg","joel-jasmin-forestbird-efuwb5eBDrI-unsplash.jpg","3","0","123","117","","","","","","","","","","","","","","","","","","","","","","","","","","","",""
"","choice_confirmation","","html-keyboard-response","167","1326708","0.0-86.0-2.0-0.0","0","0","AdUnY","Scenes","","null","","","null","","","","30","117","123","","","","","","","","","","","","","","","","","","","","","","","","","","","","","","","","","","","","","",""
"","fixation","","html-keyboard-response","168","1327731","0.0-87.0-0.0","0","0","AdUnY","Scenes","","null","","","null","","","","","","","","","","","","","","","","","","","","","","","","","","","","","","","","","","","","","","","","","","","",""
"","deliberation","","html-keyboard-response","169","1328875","0.0-87.0-1.0","0","0","AdUnY","Scenes","","1130","","","68","","","","31","115","106","0","-1","100","100","darrell-cassell-hoCXpPUMCoE-unsplash.jpg","ashim-d-silva-WeYamle9fDM-unsplash.jpg","3","1","115","106","","","","","","","","","","","","","","","","","","","","","","","","","","","",""
"","choice_confirmation","","html-keyboard-response","170","1329385","0.0-87.0-2.0-0.0","0","0","AdUnY","Scenes","","null","","","null","","","","31","115","106","","","","","","","","","","","","","","","","","","","","","","","","","","","","","","","","","","","","","",""
"","fixation","","html-keyboard-response","171","1330392","0.0-88.0-0.0","0","0","AdUnY","Scenes","","null","","","null","","","","","","","","","","","","","","","","","","","","","","","","","","","","","","","","","","","","","","","","","","","",""
"","deliberation","","html-keyboard-response","172","1331485","0.0-88.0-1.0","0","0","AdUnY","Scenes","","1092","","","68","","","","32","111","100","0","1","100","100","claudio-testa-U3F2o6vz3bs-unsplash.jpg","aleksandra-boguslawska-MS7KD9Ti7FQ-unsplash.jpg","3","1","111","100","","","","","","","","","","","","","","","","","","","","","","","","","","","",""
"","choice_confirmation","","html-keyboard-response","173","1331990","0.0-88.0-2.0-0.0","0","0","AdUnY","Scenes","","null","","","null","","","","32","111","100","","","","","","","","","","","","","","","","","","","","","","","","","","","","","","","","","","","","","",""
"","fixation","","html-keyboard-response","174","1333005","0.0-89.0-0.0","0","0","AdUnY","Scenes","","null","","","null","","","","","","","","","","","","","","","","","","","","","","","","","","","","","","","","","","","","","","","","","","","",""
"","deliberation","","html-keyboard-response","175","1334103","0.0-89.0-1.0","0","0","AdUnY","Scenes","","1091","","","75","","","","33","128","108","0","1","100","100","karsten-wurth-jS0zC2PJ17A-unsplash.jpg","benjamin-voros-phIFdC6lA4E-unsplash.jpg","3","0","108","128","","","","","","","","","","","","","","","","","","","","","","","","","","","",""
"","choice_confirmation","","html-keyboard-response","176","1334614","0.0-89.0-2.0-0.0","0","0","AdUnY","Scenes","","null","","","null","","","","33","128","108","","","","","","","","","","","","","","","","","","","","","","","","","","","","","","","","","","","","","",""
"","fixation","","html-keyboard-response","177","1335636","0.0-90.0-0.0","0","0","AdUnY","Scenes","","null","","","null","","","","","","","","","","","","","","","","","","","","","","","","","","","","","","","","","","","","","","","","","","","",""
"","deliberation","","html-keyboard-response","178","1336902","0.0-90.0-1.0","0","0","AdUnY","Scenes","","1263","","","68","","","","34","146","122","0","1","100","100","thomas-morse-cuKKa0vWZSY-unsplash.jpg","jeff-king-bJHWJeiHfHc-unsplash.jpg","3","1","146","122","","","","","","","","","","","","","","","","","","","","","","","","","","","",""
"","choice_confirmation","","html-keyboard-response","179","1337413","0.0-90.0-2.0-0.0","0","0","AdUnY","Scenes","","null","","","null","","","","34","146","122","","","","","","","","","","","","","","","","","","","","","","","","","","","","","","","","","","","","","",""
"","fixation","","html-keyboard-response","180","1338425","0.0-91.0-0.0","0","0","AdUnY","Scenes","","null","","","null","","","","","","","","","","","","","","","","","","","","","","","","","","","","","","","","","","","","","","","","","","","",""
"","deliberation","","html-keyboard-response","181","1339636","0.0-91.0-1.0","0","0","AdUnY","Scenes","","1195","","","68","","","","35","125","103","0","-1","100","100","john-lee-oMneOBYhJxY-unsplash.jpg","anton-darius-FBJugtbHsWU-unsplash.jpg","3","1","125","103","","","","","","","","","","","","","","","","","","","","","","","","","","","",""
"","choice_confirmation","","html-keyboard-response","182","1340151","0.0-91.0-2.0-0.0","0","0","AdUnY","Scenes","","null","","","null","","","","35","125","103","","","","","","","","","","","","","","","","","","","","","","","","","","","","","","","","","","","","","",""
"","reward_learning_instructions","","instructions","183","1624025","0.0-92.0-0.0","0","0","AdUnY","Scenes","[{""page_index"":0,""viewing_time"":11886},{""page_index"":1,""viewing_time"":269819},{""page_index"":2,""viewing_time"":2168}]","283873","","","","","","","","","","","","","","","","","","","","","","","","","","","","","","","","","","","","","","","","","","","","","","",""
"","reward_comprehension_check","","survey-multi-choice","184","1640435","0.0-92.0-1.0","0","0","AdUnY","Scenes","","16407","{""Q0"":""True"",""Q1"":""True"",""Q2"":""Press the space bar to see its outcome"",""Q3"":""Press the relevant key while the outcome is presented""}","0","","","","","","","","","","","","","","","","","","","","","","","","","","","","","","","","","","","","","","","","","","","","",""
"","start_phase","","html-keyboard-response","185","1643405","0.0-93.0","0","0","AdUnY","Scenes","","2968","","","78","","","","","","","","","","","","","","","","","","","","","","","","","","","","","","","","","","","","","","","","","","","",""
"","fixation","","html-keyboard-response","186","1644422","0.0-94.0","0","0","AdUnY","Scenes","","null","","","null","","","","","","","","","","","","","","","","","","","","","","","","","","","","","","","","","","","","","","","","","","","",""
"","see_reward","","html-keyboard-response","187","1645545","0.0-95.0","0","0","AdUnY","Scenes","","1117","","","32","","108","","0","","","","1","","","","","1","","","","","155","1117","","","","","","","","","","","","","","","","","","","","","","","","",""
"","reward_outcome","","html-keyboard-response","188","1647556","0.0-96.0","0","0","AdUnY","Scenes","","1720","","","38","","108","","0","","","","","","","","","","","","","","","","1","1720","","","","","","","","","","","","","","","","","","","","","","",""
"","fixation","","html-keyboard-response","189","1648570","0.0-99.0","0","0","AdUnY","Scenes","","null","","","null","","","","","","","","","","","","","","","","","","","","","","","","","","","","","","","","","","","","","","","","","","","",""
"","see_reward","","html-keyboard-response","190","1649866","0.0-100.0","0","0","AdUnY","Scenes","","1295","","","32","","111","","1","","","","1","","","","","1","","","","","142","1295","","","","","","","","","","","","","","","","","","","","","","","","",""
"","reward_outcome","","html-keyboard-response","191","1651873","0.0-101.0","0","0","AdUnY","Scenes","","1597","","","38","","111","","1","","","","","","","","","","","","","","","","1","1597","","","","","","","","","","","","","","","","","","","","","","",""
"","fixation","","html-keyboard-response","192","1652886","0.0-104.0","0","0","AdUnY","Scenes","","null","","","null","","","","","","","","","","","","","","","","","","","","","","","","","","","","","","","","","","","","","","","","","","","",""
"","see_reward","","html-keyboard-response","193","1653915","0.0-105.0","0","0","AdUnY","Scenes","","1027","","","32","","134","","2","","","","-1","","","","","1","","","","","0","1027","","","","","","","","","","","","","","","","","","","","","","","","",""
"","reward_outcome","","html-keyboard-response","194","1655935","0.0-106.0","0","0","AdUnY","Scenes","","990","","","40","","134","","2","","","","","","","","","","","","","","","","-1","990","","","","","","","","","","","","","","","","","","","","","","",""
"","fixation","","html-keyboard-response","195","1656958","0.0-109.0","0","0","AdUnY","Scenes","","null","","","null","","","","","","","","","","","","","","","","","","","","","","","","","","","","","","","","","","","","","","","","","","","",""
"","see_reward","","html-keyboard-response","196","1658036","0.0-110.0","0","0","AdUnY","Scenes","","1074","","","32","","141","","3","","","","1","","","","","1","","","","","150","1074","","","","","","","","","","","","","","","","","","","","","","","","",""
"","reward_outcome","","html-keyboard-response","197","1660056","0.0-111.0","0","0","AdUnY","Scenes","","1093","","","38","","141","","3","","","","","","","","","","","","","","","","1","1093","","","","","","","","","","","","","","","","","","","","","","",""
"","fixation","","html-keyboard-response","198","1661063","0.0-114.0","0","0","AdUnY","Scenes","","null","","","null","","","","","","","","","","","","","","","","","","","","","","","","","","","","","","","","","","","","","","","","","","","",""
"","see_reward","","html-keyboard-response","199","1661916","0.0-115.0","0","0","AdUnY","Scenes","","847","","","32","","108","","4","","","","1","","","","","1","","","","","155","847","","","","","","","","","","","","","","","","","","","","","","","","",""
"","reward_outcome","","html-keyboard-response","200","1663932","0.0-116.0","0","0","AdUnY","Scenes","","1002","","","38","","108","","4","","","","","","","","","","","","","","","","1","1002","","","","","","","","","","","","","","","","","","","","","","",""
"","fixation","","html-keyboard-response","201","1664942","0.0-119.0","0","0","AdUnY","Scenes","","null","","","null","","","","","","","","","","","","","","","","","","","","","","","","","","","","","","","","","","","","","","","","","","","",""
"","see_reward","","html-keyboard-response","202","1666515","0.0-120.0","0","0","AdUnY","Scenes","","1571","","","32","","142","","5","","","","1","","","","","1","","","","","151","1571","","","","","","","","","","","","","","","","","","","","","","","","",""
"","reward_outcome","","html-keyboard-response","203","1668525","0.0-121.0","0","0","AdUnY","Scenes","","1109","","","38","","142","","5","","","","","","","","","","","","","","","","1","1109","","","","","","","","","","","","","","","","","","","","","","",""
"","fixation","","html-keyboard-response","204","1669549","0.0-124.0","0","0","AdUnY","Scenes","","null","","","null","","","","","","","","","","","","","","","","","","","","","","","","","","","","","","","","","","","","","","","","","","","",""
"","see_reward","","html-keyboard-response","205","1670796","0.0-125.0","0","0","AdUnY","Scenes","","1234","","","32","","137","","6","","","","-1","","","","","1","","","","","0","1234","","","","","","","","","","","","","","","","","","","","","","","","",""
"","reward_outcome","","html-keyboard-response","206","1672823","0.0-126.0","0","0","AdUnY","Scenes","","1287","","","40","","137","","6","","","","","","","","","","","","","","","","-1","1287","","","","","","","","","","","","","","","","","","","","","","",""
"","fixation","","html-keyboard-response","207","1673843","0.0-129.0","0","0","AdUnY","Scenes","","null","","","null","","","","","","","","","","","","","","","","","","","","","","","","","","","","","","","","","","","","","","","","","","","",""
"","see_reward","","html-keyboard-response","208","1674706","0.0-130.0","0","0","AdUnY","Scenes","","860","","","32","","141","","7","","","","1","","","","","1","","","","","150","860","","","","","","","","","","","","","","","","","","","","","","","","",""
"","reward_outcome","","html-keyboard-response","209","1676708","0.0-131.0","0","0","AdUnY","Scenes","","1078","","","38","","141","","7","","","","","","","","","","","","","","","","1","1078","","","","","","","","","","","","","","","","","","","","","","",""
"","fixation","","html-keyboard-response","210","1677718","0.0-134.0","0","0","AdUnY","Scenes","","null","","","null","","","","","","","","","","","","","","","","","","","","","","","","","","","","","","","","","","","","","","","","","","","",""
"","see_reward","","html-keyboard-response","211","1678755","0.0-135.0","0","0","AdUnY","Scenes","","1031","","","32","","125","","8","","","","-1","","","","","1","","","","","0","1031","","","","","","","","","","","","","","","","","","","","","","","","",""
"","reward_outcome","","html-keyboard-response","212","1680767","0.0-136.0","0","0","AdUnY","Scenes","","1008","","","40","","125","","8","","","","","","","","","","","","","","","","-1","1008","","","","","","","","","","","","","","","","","","","","","","",""
"","fixation","","html-keyboard-response","213","1681775","0.0-139.0","0","0","AdUnY","Scenes","","null","","","null","","","","","","","","","","","","","","","","","","","","","","","","","","","","","","","","","","","","","","","","","","","",""
"","see_reward","","html-keyboard-response","214","1682546","0.0-140.0","0","0","AdUnY","Scenes","","755","","","32","","146","","9","","","","1","","","","","1","","","","","157","755","","","","","","","","","","","","","","","","","","","","","","","","",""
"","reward_outcome","","html-keyboard-response","215","1684565","0.0-141.0","0","0","AdUnY","Scenes","","757","","","38","","146","","9","","","","","","","","","","","","","","","","1","757","","","","","","","","","","","","","","","","","","","","","","",""
"","fixation","","html-keyboard-response","216","1685572","0.0-144.0","0","0","AdUnY","Scenes","","null","","","null","","","","","","","","","","","","","","","","","","","","","","","","","","","","","","","","","","","","","","","","","","","",""
"","see_reward","","html-keyboard-response","217","1687138","0.0-145.0","0","0","AdUnY","Scenes","","1565","","","32","","116","","10","","","","1","","","","","1","","","","","143","1565","","","","","","","","","","","","","","","","","","","","","","","","",""
"","reward_outcome","","html-keyboard-response","218","1689144","0.0-146.0","0","0","AdUnY","Scenes","","1205","","","38","","116","","10","","","","","","","","","","","","","","","","1","1205","","","","","","","","","","","","","","","","","","","","","","",""
"","fixation","","html-keyboard-response","219","1690165","0.0-149.0","0","0","AdUnY","Scenes","","null","","","null","","","","","","","","","","","","","","","","","","","","","","","","","","","","","","","","","","","","","","","","","","","",""
"","see_reward","","html-keyboard-response","220","1691116","0.0-150.0","0","0","AdUnY","Scenes","","946","","","32","","115","","11","","","","-1","","","","","1","","","","","0","946","","","","","","","","","","","","","","","","","","","","","","","","",""
"","reward_outcome","","html-keyboard-response","221","1693136","0.0-151.0","0","0","AdUnY","Scenes","","785","","","40","","115","","11","","","","","","","","","","","","","","","","-1","785","","","","","","","","","","","","","","","","","","","","","","",""
"","fixation","","html-keyboard-response","222","1694153","0.0-154.0","0","0","AdUnY","Scenes","","null","","","null","","","","","","","","","","","","","","","","","","","","","","","","","","","","","","","","","","","","","","","","","","","",""
"","see_reward","","html-keyboard-response","223","1695077","0.0-155.0","0","0","AdUnY","Scenes","","916","","","32","","123","","12","","","","-1","","","","","1","","","","","0","916","","","","","","","","","","","","","","","","","","","","","","","","",""
"","reward_outcome","","html-keyboard-response","224","1697100","0.0-156.0","0","0","AdUnY","Scenes","","1084","","","40","","123","","12","","","","","","","","","","","","","","","","-1","1084","","","","","","","","","","","","","","","","","","","","","","",""
"","fixation","","html-keyboard-response","225","1698111","0.0-159.0","0","0","AdUnY","Scenes","","null","","","null","","","","","","","","","","","","","","","","","","","","","","","","","","","","","","","","","","","","","","","","","","","",""
"","see_reward","","html-keyboard-response","226","1698765","0.0-160.0","0","0","AdUnY","Scenes","","653","","","32","","115","","13","","","","-1","","","","","1","","","","","0","653","","","","","","","","","","","","","","","","","","","","","","","","",""
"","reward_outcome","","html-keyboard-response","227","1700775","0.0-161.0","0","0","AdUnY","Scenes","","838","","","40","","115","","13","","","","","","","","","","","","","","","","-1","838","","","","","","","","","","","","","","","","","","","","","","",""
"","fixation","","html-keyboard-response","228","1701789","0.0-164.0","0","0","AdUnY","Scenes","","null","","","null","","","","","","","","","","","","","","","","","","","","","","","","","","","","","","","","","","","","","","","","","","","",""
"","see_reward","","html-keyboard-response","229","1702635","0.0-165.0","0","0","AdUnY","Scenes","","831","","","32","","125","","14","","","","-1","","","","","1","","","","","0","831","","","","","","","","","","","","","","","","","","","","","","","","",""
"","reward_outcome","","html-keyboard-response","230","1704655","0.0-166.0","0","0","AdUnY","Scenes","","890","","","40","","125","","14","","","","","","","","","","","","","","","","-1","890","","","","","","","","","","","","","","","","","","","","","","",""
"","fixation","","html-keyboard-response","231","1705675","0.0-169.0","0","0","AdUnY","Scenes","","null","","","null","","","","","","","","","","","","","","","","","","","","","","","","","","","","","","","","","","","","","","","","","","","",""
"","see_reward","","html-keyboard-response","232","1706525","0.0-170.0","0","0","AdUnY","Scenes","","844","","","32","","111","","15","","","","1","","","","","1","","","","","142","844","","","","","","","","","","","","","","","","","","","","","","","","",""
"","reward_outcome","","html-keyboard-response","233","1708548","0.0-171.0","0","0","AdUnY","Scenes","","663","","","38","","111","","15","","","","","","","","","","","","","","","","1","663","","","","","","","","","","","","","","","","","","","","","","",""
"","fixation","","html-keyboard-response","234","1709556","0.0-174.0","0","0","AdUnY","Scenes","","null","","","null","","","","","","","","","","","","","","","","","","","","","","","","","","","","","","","","","","","","","","","","","","","",""
"","see_reward","","html-keyboard-response","235","1710455","0.0-175.0","0","0","AdUnY","Scenes","","891","","","32","","143","","16","","","","-1","","","","","1","","","","","0","891","","","","","","","","","","","","","","","","","","","","","","","","",""
"","reward_outcome","","html-keyboard-response","236","1712473","0.0-176.0","0","0","AdUnY","Scenes","","1009","","","40","","143","","16","","","","","","","","","","","","","","","","-1","1009","","","","","","","","","","","","","","","","","","","","","","",""
"","fixation","","html-keyboard-response","237","1713491","0.0-179.0","0","0","AdUnY","Scenes","","null","","","null","","","","","","","","","","","","","","","","","","","","","","","","","","","","","","","","","","","","","","","","","","","",""
"","see_reward","","html-keyboard-response","238","1714498","0.0-180.0","0","0","AdUnY","Scenes","","998","","","32","","123","","17","","","","-1","","","","","1","","","","","0","998","","","","","","","","","","","","","","","","","","","","","","","","",""
"","reward_outcome","","html-keyboard-response","239","1716503","0.0-181.0","0","0","AdUnY","Scenes","","625","","","40","","123","","17","","","","","","","","","","","","","","","","-1","625","","","","","","","","","","","","","","","","","","","","","","",""
"","fixation","","html-keyboard-response","240","1717521","0.0-184.0","0","0","AdUnY","Scenes","","null","","","null","","","","","","","","","","","","","","","","","","","","","","","","","","","","","","","","","","","","","","","","","","","",""
"","see_reward","","html-keyboard-response","241","1718496","0.0-185.0","0","0","AdUnY","Scenes","","959","","","32","","137","","18","","","","-1","","","","","1","","","","","0","959","","","","","","","","","","","","","","","","","","","","","","","","",""
"","reward_outcome","","html-keyboard-response","242","1720505","0.0-186.0","0","0","AdUnY","Scenes","","706","","","38","","137","","18","","","","","","","","","","","","","","","","1","706","","","","","","","","","","","","","","","","","","","","","","",""
"","fixation","","html-keyboard-response","243","1721514","0.0-189.0","0","0","AdUnY","Scenes","","null","","","null","","","","","","","","","","","","","","","","","","","","","","","","","","","","","","","","","","","","","","","","","","","",""
"","see_reward","","html-keyboard-response","244","1722505","0.0-190.0","0","0","AdUnY","Scenes","","986","","","32","","142","","19","","","","1","","","","","1","","","","","151","986","","","","","","","","","","","","","","","","","","","","","","","","",""
"","reward_outcome","","html-keyboard-response","245","1724522","0.0-191.0","0","0","AdUnY","Scenes","","853","","","38","","142","","19","","","","","","","","","","","","","","","","1","853","","","","","","","","","","","","","","","","","","","","","","",""
"","fixation","","html-keyboard-response","246","1725538","0.0-194.0","0","0","AdUnY","Scenes","","null","","","null","","","","","","","","","","","","","","","","","","","","","","","","","","","","","","","","","","","","","","","","","","","",""
"","see_reward","","html-keyboard-response","247","1726716","0.0-195.0","0","0","AdUnY","Scenes","","1172","","","32","","143","","20","","","","-1","","","","","1","","","","","0","1172","","","","","","","","","","","","","","","","","","","","","","","","",""
"","reward_outcome","","html-keyboard-response","248","1728728","0.0-196.0","0","0","AdUnY","Scenes","","850","","","40","","143","","20","","","","","","","","","","","","","","","","-1","850","","","","","","","","","","","","","","","","","","","","","","",""
"","fixation","","html-keyboard-response","249","1729738","0.0-199.0","0","0","AdUnY","Scenes","","null","","","null","","","","","","","","","","","","","","","","","","","","","","","","","","","","","","","","","","","","","","","","","","","",""
"","see_reward","","html-keyboard-response","250","1730495","0.0-200.0","0","0","AdUnY","Scenes","","749","","","32","","146","","21","","","","1","","","","","1","","","","","157","749","","","","","","","","","","","","","","","","","","","","","","","","",""
"","reward_outcome","","html-keyboard-response","251","1732502","0.0-201.0","0","0","AdUnY","Scenes","","699","","","38","","146","","21","","","","","","","","","","","","","","","","1","699","","","","","","","","","","","","","","","","","","","","","","",""
"","fixation","","html-keyboard-response","252","1733518","0.0-204.0","0","0","AdUnY","Scenes","","null","","","null","","","","","","","","","","","","","","","","","","","","","","","","","","","","","","","","","","","","","","","","","","","",""
"","see_reward","","html-keyboard-response","253","1734316","0.0-205.0","0","0","AdUnY","Scenes","","789","","","32","","116","","22","","","","1","","","","","1","","","","","143","789","","","","","","","","","","","","","","","","","","","","","","","","",""
"","reward_outcome","","html-keyboard-response","254","1736334","0.0-206.0","0","0","AdUnY","Scenes","","703","","","38","","116","","22","","","","","","","","","","","","","","","","1","703","","","","","","","","","","","","","","","","","","","","","","",""
"","fixation","","html-keyboard-response","255","1737357","0.0-209.0","0","0","AdUnY","Scenes","","null","","","null","","","","","","","","","","","","","","","","","","","","","","","","","","","","","","","","","","","","","","","","","","","",""
"","see_reward","","html-keyboard-response","256","1738065","0.0-210.0","0","0","AdUnY","Scenes","","693","","","32","","134","","23","","","","-1","","","","","1","","","","","0","693","","","","","","","","","","","","","","","","","","","","","","","","",""
"","reward_outcome","","html-keyboard-response","257","1740072","0.0-211.0","0","0","AdUnY","Scenes","","903","","","40","","134","","23","","","","","","","","","","","","","","","","-1","903","","","","","","","","","","","","","","","","","","","","","","",""
"","block_over","","html-keyboard-response","258","1743154","0.0-213.0-0.0","0","0","AdUnY","Scenes","","3081","","","78","","","","","","","","","","","","","","","","","","","","","","","","","","","","","","","","","","","","","","","","","","","",""
"","fixation","","html-keyboard-response","259","1744172","0.0-214.0","0","0","AdUnY","Scenes","","null","","","null","","","","","","","","","","","","","","","","","","","","","","","","","","","","","","","","","","","","","","","","","","","",""
"","see_reward","","html-keyboard-response","260","1745587","0.0-215.0","0","0","AdUnY","Scenes","","1406","","","32","","142","","24","","","","1","","","","","2","","","","","151","1406","","","","","","","","","","","","","","","","","","","","","","","","",""
"","reward_outcome","","html-keyboard-response","261","1747601","0.0-216.0","0","0","AdUnY","Scenes","","1034","","","38","","142","","24","","","","","","","","","","","","","","","","1","1034","","","","","","","","","","","","","","","","","","","","","","",""
"","fixation","","html-keyboard-response","262","1748609","0.0-219.0","0","0","AdUnY","Scenes","","null","","","null","","","","","","","","","","","","","","","","","","","","","","","","","","","","","","","","","","","","","","","","","","","",""
"","see_reward","","html-keyboard-response","263","1749355","0.0-220.0","0","0","AdUnY","Scenes","","743","","","32","","116","","25","","","","1","","","","","2","","","","","143","743","","","","","","","","","","","","","","","","","","","","","","","","",""
"","reward_outcome","","html-keyboard-response","264","1751366","0.0-221.0","0","0","AdUnY","Scenes","","785","","","38","","116","","25","","","","","","","","","","","","","","","","1","785","","","","","","","","","","","","","","","","","","","","","","",""
"","fixation","","html-keyboard-response","265","1752379","0.0-224.0","0","0","AdUnY","Scenes","","null","","","null","","","","","","","","","","","","","","","","","","","","","","","","","","","","","","","","","","","","","","","","","","","",""
"","see_reward","","html-keyboard-response","266","1753218","0.0-225.0","0","0","AdUnY","Scenes","","838","","","32","","108","","26","","","","1","","","","","2","","","","","155","838","","","","","","","","","","","","","","","","","","","","","","","","",""
"","reward_outcome","","html-keyboard-response","267","1755230","0.0-226.0","0","0","AdUnY","Scenes","","919","","","38","","108","","26","","","","","","","","","","","","","","","","1","919","","","","","","","","","","","","","","","","","","","","","","",""
"","fixation","","html-keyboard-response","268","1756241","0.0-229.0","0","0","AdUnY","Scenes","","null","","","null","","","","","","","","","","","","","","","","","","","","","","","","","","","","","","","","","","","","","","","","","","","",""
"","see_reward","","html-keyboard-response","269","1757217","0.0-230.0","0","0","AdUnY","Scenes","","973","","","32","","137","","27","","","","-1","","","","","2","","","","","0","973","","","","","","","","","","","","","","","","","","","","","","","","",""
"","reward_outcome","","html-keyboard-response","270","1759222","0.0-231.0","0","0","AdUnY","Scenes","","966","","","40","","137","","27","","","","","","","","","","","","","","","","-1","966","","","","","","","","","","","","","","","","","","","","","","",""
"","fixation","","html-keyboard-response","271","1760240","0.0-234.0","0","0","AdUnY","Scenes","","null","","","null","","","","","","","","","","","","","","","","","","","","","","","","","","","","","","","","","","","","","","","","","","","",""
"","see_reward","","html-keyboard-response","272","1761280","0.0-235.0","0","0","AdUnY","Scenes","","1036","","","32","","116","","28","","","","1","","","","","2","","","","","143","1036","","","","","","","","","","","","","","","","","","","","","","","","",""
"","reward_outcome","","html-keyboard-response","273","1763301","0.0-236.0","0","0","AdUnY","Scenes","","674","","","38","","116","","28","","","","","","","","","","","","","","","","1","674","","","","","","","","","","","","","","","","","","","","","","",""
"","fixation","","html-keyboard-response","274","1764352","0.0-239.0","0","0","AdUnY","Scenes","","null","","","null","","","","","","","","","","","","","","","","","","","","","","","","","","","","","","","","","","","","","","","","","","","",""
"","see_reward","","html-keyboard-response","275","1765307","0.0-240.0","0","0","AdUnY","Scenes","","953","","","32","","123","","29","","","","-1","","","","","2","","","","","0","953","","","","","","","","","","","","","","","","","","","","","","","","",""
"","reward_outcome","","html-keyboard-response","276","1767319","0.0-241.0","0","0","AdUnY","Scenes","","630","","","40","","123","","29","","","","","","","","","","","","","","","","-1","630","","","","","","","","","","","","","","","","","","","","","","",""
"","fixation","","html-keyboard-response","277","1768339","0.0-244.0","0","0","AdUnY","Scenes","","null","","","null","","","","","","","","","","","","","","","","","","","","","","","","","","","","","","","","","","","","","","","","","","","",""
"","see_reward","","html-keyboard-response","278","1769108","0.0-245.0","0","0","AdUnY","Scenes","","766","","","32","","125","","30","","","","-1","","","","","2","","","","","0","766","","","","","","","","","","","","","","","","","","","","","","","","",""
"","reward_outcome","","html-keyboard-response","279","1771125","0.0-246.0","0","0","AdUnY","Scenes","","952","","","40","","125","","30","","","","","","","","","","","","","","","","-1","952","","","","","","","","","","","","","","","","","","","","","","",""
"","fixation","","html-keyboard-response","280","1772139","0.0-249.0","0","0","AdUnY","Scenes","","null","","","null","","","","","","","","","","","","","","","","","","","","","","","","","","","","","","","","","","","","","","","","","","","",""
"","see_reward","","html-keyboard-response","281","1772838","0.0-250.0","0","0","AdUnY","Scenes","","681","","","32","","111","","31","","","","1","","","","","2","","","","","142","681","","","","","","","","","","","","","","","","","","","","","","","","",""
"","reward_outcome","","html-keyboard-response","282","1774852","0.0-251.0","0","0","AdUnY","Scenes","","654","","","38","","111","","31","","","","","","","","","","","","","","","","1","654","","","","","","","","","","","","","","","","","","","","","","",""
"","fixation","","html-keyboard-response","283","1775861","0.0-254.0","0","0","AdUnY","Scenes","","null","","","null","","","","","","","","","","","","","","","","","","","","","","","","","","","","","","","","","","","","","","","","","","","",""
"","see_reward","","html-keyboard-response","284","1776776","0.0-255.0","0","0","AdUnY","Scenes","","903","","","32","","142","","32","","","","1","","","","","2","","","","","151","903","","","","","","","","","","","","","","","","","","","","","","","","",""
"","reward_outcome","","html-keyboard-response","285","1778784","0.0-256.0","0","0","AdUnY","Scenes","","687","","","38","","142","","32","","","","","","","","","","","","","","","","1","687","","","","","","","","","","","","","","","","","","","","","","",""
"","fixation","","html-keyboard-response","286","1779803","0.0-259.0","0","0","AdUnY","Scenes","","null","","","null","","","","","","","","","","","","","","","","","","","","","","","","","","","","","","","","","","","","","","","","","","","",""
"","see_reward","","html-keyboard-response","287","1780515","0.0-260.0","0","0","AdUnY","Scenes","","707","","","32","","111","","33","","","","1","","","","","2","","","","","142","707","","","","","","","","","","","","","","","","","","","","","","","","",""
"","reward_outcome","","html-keyboard-response","288","1782525","0.0-261.0","0","0","AdUnY","Scenes","","631","","","38","","111","","33","","","","","","","","","","","","","","","","1","631","","","","","","","","","","","","","","","","","","","","","","",""
"","fixation","","html-keyboard-response","289","1783540","0.0-264.0","0","0","AdUnY","Scenes","","null","","","null","","","","","","","","","","","","","","","","","","","","","","","","","","","","","","","","","","","","","","","","","","","",""
"","see_reward","","html-keyboard-response","290","1784457","0.0-265.0","0","0","AdUnY","Scenes","","911","","","32","","137","","34","","","","-1","","","","","2","","","","","0","911","","","","","","","","","","","","","","","","","","","","","","","","",""
"","reward_outcome","","html-keyboard-response","291","1786462","0.0-266.0","0","0","AdUnY","Scenes","","850","","","40","","137","","34","","","","","","","","","","","","","","","","-1","850","","","","","","","","","","","","","","","","","","","","","","",""
"","fixation","","html-keyboard-response","292","1787469","0.0-269.0","0","0","AdUnY","Scenes","","null","","","null","","","","","","","","","","","","","","","","","","","","","","","","","","","","","","","","","","","","","","","","","","","",""
"","see_reward","","html-keyboard-response","293","1788262","0.0-270.0","0","0","AdUnY","Scenes","","790","","","32","","146","","35","","","","1","","","","","2","","","","","157","790","","","","","","","","","","","","","","","","","","","","","","","","",""
"","reward_outcome","","html-keyboard-response","294","1790270","0.0-271.0","0","0","AdUnY","Scenes","","649","","","38","","146","","35","","","","","","","","","","","","","","","","1","649","","","","","","","","","","","","","","","","","","","","","","",""
"","fixation","","html-keyboard-response","295","1791276","0.0-274.0","0","0","AdUnY","Scenes","","null","","","null","","","","","","","","","","","","","","","","","","","","","","","","","","","","","","","","","","","","","","","","","","","",""
"","see_reward","","html-keyboard-response","296","1792177","0.0-275.0","0","0","AdUnY","Scenes","","899","","","32","","134","","36","","","","-1","","","","","2","","","","","0","899","","","","","","","","","","","","","","","","","","","","","","","","",""
"","reward_outcome","","html-keyboard-response","297","1794184","0.0-276.0","0","0","AdUnY","Scenes","","530","","","40","","134","","36","","","","","","","","","","","","","","","","-1","530","","","","","","","","","","","","","","","","","","","","","","",""
"","fixation","","html-keyboard-response","298","1795188","0.0-279.0","0","0","AdUnY","Scenes","","null","","","null","","","","","","","","","","","","","","","","","","","","","","","","","","","","","","","","","","","","","","","","","","","",""
"","see_reward","","html-keyboard-response","299","1795795","0.0-280.0","0","0","AdUnY","Scenes","","601","","","32","","115","","37","","","","-1","","","","","2","","","","","0","601","","","","","","","","","","","","","","","","","","","","","","","","",""
"","reward_outcome","","html-keyboard-response","300","1797808","0.0-281.0","0","0","AdUnY","Scenes","","1012","","","40","","115","","37","","","","","","","","","","","","","","","","-1","1012","","","","","","","","","","","","","","","","","","","","","","",""
"","fixation","","html-keyboard-response","301","1798821","0.0-284.0","0","0","AdUnY","Scenes","","null","","","null","","","","","","","","","","","","","","","","","","","","","","","","","","","","","","","","","","","","","","","","","","","",""
"","see_reward","","html-keyboard-response","302","1799505","0.0-285.0","0","0","AdUnY","Scenes","","676","","","32","","108","","38","","","","1","","","","","2","","","","","155","676","","","","","","","","","","","","","","","","","","","","","","","","",""
"","reward_outcome","","html-keyboard-response","303","1801517","0.0-286.0","0","0","AdUnY","Scenes","","639","","","38","","108","","38","","","","","","","","","","","","","","","","1","639","","","","","","","","","","","","","","","","","","","","","","",""
"","fixation","","html-keyboard-response","304","1802527","0.0-289.0","0","0","AdUnY","Scenes","","null","","","null","","","","","","","","","","","","","","","","","","","","","","","","","","","","","","","","","","","","","","","","","","","",""
"","see_reward","","html-keyboard-response","305","1803158","0.0-290.0","0","0","AdUnY","Scenes","","628","","","32","","141","","39","","","","1","","","","","2","","","","","150","628","","","","","","","","","","","","","","","","","","","","","","","","",""
"","reward_outcome","","html-keyboard-response","306","1805168","0.0-291.0","0","0","AdUnY","Scenes","","653","","","38","","141","","39","","","","","","","","","","","","","","","","1","653","","","","","","","","","","","","","","","","","","","","","","",""
"","fixation","","html-keyboard-response","307","1806172","0.0-294.0","0","0","AdUnY","Scenes","","null","","","null","","","","","","","","","","","","","","","","","","","","","","","","","","","","","","","","","","","","","","","","","","","",""
"","see_reward","","html-keyboard-response","308","1807036","0.0-295.0","0","0","AdUnY","Scenes","","857","","","32","","143","","40","","","","-1","","","","","2","","","","","0","857","","","","","","","","","","","","","","","","","","","","","","","","",""
"","reward_outcome","","html-keyboard-response","309","1809045","0.0-296.0","0","0","AdUnY","Scenes","","538","","","40","","143","","40","","","","","","","","","","","","","","","","-1","538","","","","","","","","","","","","","","","","","","","","","","",""
"","fixation","","html-keyboard-response","310","1810055","0.0-299.0","0","0","AdUnY","Scenes","","null","","","null","","","","","","","","","","","","","","","","","","","","","","","","","","","","","","","","","","","","","","","","","","","",""
"","see_reward","","html-keyboard-response","311","1810680","0.0-300.0","0","0","AdUnY","Scenes","","622","","","32","","123","","41","","","","-1","","","","","2","","","","","0","622","","","","","","","","","","","","","","","","","","","","","","","","",""
"","reward_outcome","","html-keyboard-response","312","1812691","0.0-301.0","0","0","AdUnY","Scenes","","618","","","40","","123","","41","","","","","","","","","","","","","","","","-1","618","","","","","","","","","","","","","","","","","","","","","","",""
"","fixation","","html-keyboard-response","313","1813711","0.0-304.0","0","0","AdUnY","Scenes","","null","","","null","","","","","","","","","","","","","","","","","","","","","","","","","","","","","","","","","","","","","","","","","","","",""
"","see_reward","","html-keyboard-response","314","1814440","0.0-305.0","0","0","AdUnY","Scenes","","721","","","32","","115","","42","","","","-1","","","","","2","","","","","0","721","","","","","","","","","","","","","","","","","","","","","","","","",""
"","reward_outcome","","html-keyboard-response","315","1816458","0.0-306.0","0","0","AdUnY","Scenes","","682","","","40","","115","","42","","","","","","","","","","","","","","","","-1","682","","","","","","","","","","","","","","","","","","","","","","",""
"","fixation","","html-keyboard-response","316","1817480","0.0-309.0","0","0","AdUnY","Scenes","","null","","","null","","","","","","","","","","","","","","","","","","","","","","","","","","","","","","","","","","","","","","","","","","","",""
"","see_reward","","html-keyboard-response","317","1818197","0.0-310.0","0","0","AdUnY","Scenes","","705","","","32","","134","","43","","","","-1","","","","","2","","","","","0","705","","","","","","","","","","","","","","","","","","","","","","","","",""
"","reward_outcome","","html-keyboard-response","318","1820205","0.0-311.0","0","0","AdUnY","Scenes","","517","","","40","","134","","43","","","","","","","","","","","","","","","","-1","517","","","","","","","","","","","","","","","","","","","","","","",""
"","fixation","","html-keyboard-response","319","1821221","0.0-314.0","0","0","AdUnY","Scenes","","null","","","null","","","","","","","","","","","","","","","","","","","","","","","","","","","","","","","","","","","","","","","","","","","",""
"","see_reward","","html-keyboard-response","320","1822057","0.0-315.0","0","0","AdUnY","Scenes","","834","","","32","","141","","44","","","","1","","","","","2","","","","","150","834","","","","","","","","","","","","","","","","","","","","","","","","",""
"","reward_outcome","","html-keyboard-response","321","1824061","0.0-316.0","0","0","AdUnY","Scenes","","574","","","38","","141","","44","","","","","","","","","","","","","","","","1","574","","","","","","","","","","","","","","","","","","","","","","",""
"","fixation","","html-keyboard-response","322","1825074","0.0-319.0","0","0","AdUnY","Scenes","","null","","","null","","","","","","","","","","","","","","","","","","","","","","","","","","","","","","","","","","","","","","","","","","","",""
"","see_reward","","html-keyboard-response","323","1826025","0.0-320.0","0","0","AdUnY","Scenes","","948","","","32","","143","","45","","","","-1","","","","","2","","","","","0","948","","","","","","","","","","","","","","","","","","","","","","","","",""
"","reward_outcome","","html-keyboard-response","324","1828028","0.0-321.0","0","0","AdUnY","Scenes","","344","","","40","","143","","45","","","","","","","","","","","","","","","","-1","344","","","","","","","","","","","","","","","","","","","","","","",""
"","fixation","","html-keyboard-response","325","1829050","0.0-324.0","0","0","AdUnY","Scenes","","null","","","null","","","","","","","","","","","","","","","","","","","","","","","","","","","","","","","","","","","","","","","","","","","",""
"","see_reward","","html-keyboard-response","326","1829746","0.0-325.0","0","0","AdUnY","Scenes","","694","","","32","","125","","46","","","","-1","","","","","2","","","","","0","694","","","","","","","","","","","","","","","","","","","","","","","","",""
"","reward_outcome","","html-keyboard-response","327","1831751","0.0-326.0","0","0","AdUnY","Scenes","","603","","","40","","125","","46","","","","","","","","","","","","","","","","-1","603","","","","","","","","","","","","","","","","","","","","","","",""
"","fixation","","html-keyboard-response","328","1832757","0.0-329.0","0","0","AdUnY","Scenes","","null","","","null","","","","","","","","","","","","","","","","","","","","","","","","","","","","","","","","","","","","","","","","","","","",""
"","see_reward","","html-keyboard-response","329","1833514","0.0-330.0","0","0","AdUnY","Scenes","","746","","","32","","146","","47","","","","1","","","","","2","","","","","157","746","","","","","","","","","","","","","","","","","","","","","","","","",""
"","reward_outcome","","html-keyboard-response","330","1835528","0.0-331.0","0","0","AdUnY","Scenes","","597","","","38","","146","","47","","","","","","","","","","","","","","","","1","597","","","","","","","","","","","","","","","","","","","","","","",""
"","block_over","","html-keyboard-response","331","1838114","0.0-333.0-0.0","0","0","AdUnY","Scenes","","2580","","","78","","","","","","","","","","","","","","","","","","","","","","","","","","","","","","","","","","","","","","","","","","","",""
"","fixation","","html-keyboard-response","332","1839128","0.0-334.0","0","0","AdUnY","Scenes","","null","","","null","","","","","","","","","","","","","","","","","","","","","","","","","","","","","","","","","","","","","","","","","","","",""
"","see_reward","","html-keyboard-response","333","1840067","0.0-335.0","0","0","AdUnY","Scenes","","930","","","32","","123","","48","","","","-1","","","","","3","","","","","0","930","","","","","","","","","","","","","","","","","","","","","","","","",""
"","reward_outcome","","html-keyboard-response","334","1842080","0.0-336.0","0","0","AdUnY","Scenes","","647","","","40","","123","","48","","","","","","","","","","","","","","","","-1","647","","","","","","","","","","","","","","","","","","","","","","",""
"","fixation","","html-keyboard-response","335","1843084","0.0-339.0","0","0","AdUnY","Scenes","","null","","","null","","","","","","","","","","","","","","","","","","","","","","","","","","","","","","","","","","","","","","","","","","","",""
"","see_reward","","html-keyboard-response","336","1843784","0.0-340.0","0","0","AdUnY","Scenes","","697","","","32","","115","","49","","","","-1","","","","","3","","","","","0","697","","","","","","","","","","","","","","","","","","","","","","","","",""
"","reward_outcome","","html-keyboard-response","337","1845799","0.0-341.0","0","0","AdUnY","Scenes","","594","","","40","","115","","49","","","","","","","","","","","","","","","","-1","594","","","","","","","","","","","","","","","","","","","","","","",""
"","fixation","","html-keyboard-response","338","1846818","0.0-344.0","0","0","AdUnY","Scenes","","null","","","null","","","","","","","","","","","","","","","","","","","","","","","","","","","","","","","","","","","","","","","","","","","",""
"","see_reward","","html-keyboard-response","339","1847223","0.0-345.0","0","0","AdUnY","Scenes","","398","","","32","","137","","50","","","","-1","","","","","3","","","","","0","398","","","","","","","","","","","","","","","","","","","","","","","","",""
"","reward_outcome","","html-keyboard-response","340","1849238","0.0-346.0","0","0","AdUnY","Scenes","","745","","","40","","137","","50","","","","","","","","","","","","","","","","-1","745","","","","","","","","","","","","","","","","","","","","","","",""
"","fixation","","html-keyboard-response","341","1850245","0.0-349.0","0","0","AdUnY","Scenes","","null","","","null","","","","","","","","","","","","","","","","","","","","","","","","","","","","","","","","","","","","","","","","","","","",""
"","see_reward","","html-keyboard-response","342","1850976","0.0-350.0","0","0","AdUnY","Scenes","","719","","","32","","143","","51","","","","-1","","","","","3","","","","","0","719","","","","","","","","","","","","","","","","","","","","","","","","",""
"","reward_outcome","","html-keyboard-response","343","1852984","0.0-351.0","0","0","AdUnY","Scenes","","561","","","40","","143","","51","","","","","","","","","","","","","","","","-1","561","","","","","","","","","","","","","","","","","","","","","","",""
"","fixation","","html-keyboard-response","344","1854002","0.0-354.0","0","0","AdUnY","Scenes","","null","","","null","","","","","","","","","","","","","","","","","","","","","","","","","","","","","","","","","","","","","","","","","","","",""
"","see_reward","","html-keyboard-response","345","1854697","0.0-355.0","0","0","AdUnY","Scenes","","689","","","32","","146","","52","","","","1","","","","","3","","","","","157","689","","","","","","","","","","","","","","","","","","","","","","","","",""
"","reward_outcome","","html-keyboard-response","346","1856715","0.0-356.0","0","0","AdUnY","Scenes","","489","","","38","","146","","52","","","","","","","","","","","","","","","","1","489","","","","","","","","","","","","","","","","","","","","","","",""
"","fixation","","html-keyboard-response","347","1857722","0.0-359.0","0","0","AdUnY","Scenes","","null","","","null","","","","","","","","","","","","","","","","","","","","","","","","","","","","","","","","","","","","","","","","","","","",""
"","see_reward","","html-keyboard-response","348","1858736","0.0-360.0","0","0","AdUnY","Scenes","","1000","","","32","","108","","53","","","","1","","","","","3","","","","","155","1000","","","","","","","","","","","","","","","","","","","","","","","","",""
"","reward_outcome","","html-keyboard-response","349","1860745","0.0-361.0","0","0","AdUnY","Scenes","","643","","","38","","108","","53","","","","","","","","","","","","","","","","1","643","","","","","","","","","","","","","","","","","","","","","","",""
"","fixation","","html-keyboard-response","350","1861757","0.0-364.0","0","0","AdUnY","Scenes","","null","","","null","","","","","","","","","","","","","","","","","","","","","","","","","","","","","","","","","","","","","","","","","","","",""
"","see_reward","","html-keyboard-response","351","1862867","0.0-365.0","0","0","AdUnY","Scenes","","1095","","","32","","142","","54","","","","1","","","","","3","","","","","151","1095","","","","","","","","","","","","","","","","","","","","","","","","",""
"","reward_outcome","","html-keyboard-response","352","1864884","0.0-366.0","0","0","AdUnY","Scenes","","991","","","38","","142","","54","","","","","","","","","","","","","","","","1","991","","","","","","","","","","","","","","","","","","","","","","",""
