"success","ttype","start_time","trial_type","trial_index","time_elapsed","internal_node_id","warning","missed_checkup","PID","stim_type","view_history","rt","responses","category","repeat_instructions","key_press","response","stimulus_id","painting","index","stimulus_left","stimulus_right","explain_trial","reward_type","rating_left","rating_right","painting_left","painting_right","block","left_chosen","chosen_obj","unchosen_obj","explain_response","reward_amount","see_reward_rt","register_reward_response","register_reward_rt","deliberation_reward_tally","stimulus_left_deliberation_ind","stimulus_right_deliberation_ind","chosen_trial","gain_left","higher_outcome_chosen","old_pair","chosen_object","rt_pairs","left_object_chosen","rt_object","old_response","new_rating","deliberated_stim","initial_rating","outcome_eval_rt","outcome_eval_response","outcome_eval_gain","outcome_eval_acc","preamble","outcome_eval_confidence","outcome_eval_confidence_rt","total_reward_tally"
"true","full_screen","d01182023hr1402","fullscreen","0","50355","0.0-0.0","0","0","rHMtE","People","","","","","","","","","","","","","","","","","","","","","","","","","","","","","","","","","","","","","","","","","","","","","","","","","",""
"","rating_instructions","","instructions","1","1265287","0.0-1.0-0.0","0","0","rHMtE","People","[{""page_index"":0,""viewing_time"":2824},{""page_index"":1,""viewing_time"":3320},{""page_index"":0,""viewing_time"":1206951},{""page_index"":1,""viewing_time"":1830}]","1214926","","","","","","","","","","","","","","","","","","","","","","","","","","","","","","","","","","","","","","","","","","","","","","","",""
"","","","survey-multi-choice","2","1270757","0.0-1.0-1.0","0","0","rHMtE","People","","5462","{""Q0"":""True"",""Q1"":""Mouse""}","rating_comprehension_check","0","","","","","","","","","","","","","","","","","","","","","","","","","","","","","","","","","","","","","","","","","","","","",""
"","start_phase","","html-keyboard-response","3","1337298","0.0-2.0","0","0","rHMtE","People","","66536","","","","78","","","","","","","","","","","","","","","","","","","","","","","","","","","","","","","","","","","","","","","","","","","",""
"","rating","","html-slider-response","4","1341520","0.0-3.0","0","0","rHMtE","People","","4217","","","","","83","21","jessica-felicio-_cvwXhGqG-o-unsplash.jpg","0","","","","","","","","","","","","","","","","","","","","","","","","","","","","","","","","","","","","","","","",""
"","rating","","html-slider-response","5","1345308","0.0-4.0","0","0","rHMtE","People","","3782","","","","","84","25","joseph-gonzalez-iFgRcqHznqg-unsplash.jpg","1","","","","","","","","","","","","","","","","","","","","","","","","","","","","","","","","","","","","","","","",""
"","rating","","html-slider-response","6","1347857","0.0-5.0","0","0","rHMtE","People","","2545","","","","","71","15","gabriel-silverio-u3WmDyKGsrY-unsplash.jpg","2","","","","","","","","","","","","","","","","","","","","","","","","","","","","","","","","","","","","","","","",""
"","rating","","html-slider-response","7","1350327","0.0-6.0","0","0","rHMtE","People","","2467","","","","","69","27","jurica-koletic-7YVZYZeITc8-unsplash.jpg","3","","","","","","","","","","","","","","","","","","","","","","","","","","","","","","","","","","","","","","","",""
"","rating","","html-slider-response","8","1353527","0.0-7.0","0","0","rHMtE","People","","3198","","","","","39","42","prince-akachi-l3IHXOdMyHQ-unsplash.jpg","4","","","","","","","","","","","","","","","","","","","","","","","","","","","","","","","","","","","","","","","",""
"","rating","","html-slider-response","9","1357097","0.0-8.0","0","0","rHMtE","People","","3567","","","","","31","22","jessica-radanavong-mrYkTuAesKE-unsplash.jpg","5","","","","","","","","","","","","","","","","","","","","","","","","","","","","","","","","","","","","","","","",""
"","rating","","html-slider-response","10","1361139","0.0-9.0","0","0","rHMtE","People","","4039","","","","","46","18","good-faces-xmSWVeGEnJw-unsplash.jpg","6","","","","","","","","","","","","","","","","","","","","","","","","","","","","","","","","","","","","","","","",""
"","rating","","html-slider-response","11","1364378","0.0-10.0","0","0","rHMtE","People","","3234","","","","","59","13","erik-lucatero-d2MSDujJl2g-unsplash.jpg","7","","","","","","","","","","","","","","","","","","","","","","","","","","","","","","","","","","","","","","","",""
"","rating","","html-slider-response","12","1367526","0.0-11.0","0","0","rHMtE","People","","3143","","","","","43","39","philip-martin-5aGUyCW_PJw-unsplash.jpg","8","","","","","","","","","","","","","","","","","","","","","","","","","","","","","","","","","","","","","","","",""
"","rating","","html-slider-response","13","1371139","0.0-12.0","0","0","rHMtE","People","","3608","","","","","60","36","ospan-ali-mGdA2fzjWLo-unsplash.jpg","9","","","","","","","","","","","","","","","","","","","","","","","","","","","","","","","","","","","","","","","",""
"","rating","","html-slider-response","14","1374346","0.0-13.0","0","0","rHMtE","People","","3201","","","","","68","30","matheus-ferrero-pg_WCHWSdT8-unsplash.jpg","10","","","","","","","","","","","","","","","","","","","","","","","","","","","","","","","","","","","","","","","",""
"","rating","","html-slider-response","15","1377387","0.0-14.0","0","0","rHMtE","People","","3034","","","","","74","43","raamin-ka-0qJBEzudn5E-unsplash.jpg","11","","","","","","","","","","","","","","","","","","","","","","","","","","","","","","","","","","","","","","","",""
"","rating","","html-slider-response","16","1385276","0.0-15.0","0","0","rHMtE","People","","7885","","","","","62","44","rikonavt-HQjfrvdTfak-unsplash.jpg","12","","","","","","","","","","","","","","","","","","","","","","","","","","","","","","","","","","","","","","","",""
"","rating","","html-slider-response","17","1394646","0.0-16.0","0","0","rHMtE","People","","9367","","","","","73","47","tyler-nix-ZGa9d1a_4tA-unsplash.jpg","13","","","","","","","","","","","","","","","","","","","","","","","","","","","","","","","","","","","","","","","",""
"","rating","","html-slider-response","18","1397576","0.0-17.0","0","0","rHMtE","People","","2927","","","","","58","48","velizar-ivanov-7ktP9yZA1g4-unsplash.jpg","14","","","","","","","","","","","","","","","","","","","","","","","","","","","","","","","","","","","","","","","",""
"","rating","","html-slider-response","19","1400168","0.0-18.0","0","0","rHMtE","People","","2587","","","","","56","1","aiony-haust-jmATI5Q_YgY-unsplash.jpg","15","","","","","","","","","","","","","","","","","","","","","","","","","","","","","","","","","","","","","","","",""
"","rating","","html-slider-response","20","1403496","0.0-19.0","0","0","rHMtE","People","","3325","","","","","43","6","ben-o-bro-C5XyLljkMrY-unsplash.jpg","16","","","","","","","","","","","","","","","","","","","","","","","","","","","","","","","","","","","","","","","",""
"","rating","","html-slider-response","21","1413591","0.0-20.0","0","0","rHMtE","People","","10093","","","","","68","20","houcine-ncib-B4TjXnI0Y2c-unsplash.jpg","17","","","","","","","","","","","","","","","","","","","","","","","","","","","","","","","","","","","","","","","",""
"","rating","","html-slider-response","22","1419066","0.0-21.0","0","0","rHMtE","People","","5473","","","","","84","5","batel-studio-ttSRjiYG_WM-unsplash.jpg","18","","","","","","","","","","","","","","","","","","","","","","","","","","","","","","","","","","","","","","","",""
"","rating","","html-slider-response","23","1422395","0.0-22.0","0","0","rHMtE","People","","3327","","","","","69","35","oliver-ragfelt-khV4fTy6-D8-unsplash.jpg","19","","","","","","","","","","","","","","","","","","","","","","","","","","","","","","","","","","","","","","","",""
"","rating","","html-slider-response","24","1428859","0.0-23.0","0","0","rHMtE","People","","6462","","","","","55","31","mathilda-khoo-vLR0YP_otCo-unsplash.jpg","20","","","","","","","","","","","","","","","","","","","","","","","","","","","","","","","","","","","","","","","",""
"","rating","","html-slider-response","25","1431487","0.0-24.0","0","0","rHMtE","People","","2623","","","","","55","34","oliver-johnson-1TUIcKob7Zs-unsplash.jpg","21","","","","","","","","","","","","","","","","","","","","","","","","","","","","","","","","","","","","","","","",""
"","rating","","html-slider-response","26","1434796","0.0-25.0","0","0","rHMtE","People","","3306","","","","","66","45","sarah-noltner-pL5ZzPp1zqg-unsplash.jpg","22","","","","","","","","","","","","","","","","","","","","","","","","","","","","","","","","","","","","","","","",""
"","rating","","html-slider-response","27","1438466","0.0-26.0","0","0","rHMtE","People","","3667","","","","","34","14","freddy-kearney-o-ioeoATbIM-unsplash.jpg","23","","","","","","","","","","","","","","","","","","","","","","","","","","","","","","","","","","","","","","","",""
"","rating","","html-slider-response","28","1442416","0.0-27.0","0","0","rHMtE","People","","3948","","","","","61","49","vicky-hladynets-_gDoyVv5F4c-unsplash.jpg","24","","","","","","","","","","","","","","","","","","","","","","","","","","","","","","","","","","","","","","","",""
"","rating","","html-slider-response","29","1445267","0.0-28.0","0","0","rHMtE","People","","2848","","","","","56","26","juri-gianfrancesco-9EZadYaMzk4-unsplash.jpg","25","","","","","","","","","","","","","","","","","","","","","","","","","","","","","","","","","","","","","","","",""
"","rating","","html-slider-response","30","1450836","0.0-29.0","0","0","rHMtE","People","","5566","","","","","56","28","justin-chen-J7Cf1Gch49E-unsplash.jpg","26","","","","","","","","","","","","","","","","","","","","","","","","","","","","","","","","","","","","","","","",""
"","rating","","html-slider-response","31","1458112","0.0-30.0","0","0","rHMtE","People","","7273","","","","","42","3","art-hauntington-jzY0KRJopEI-unsplash.jpg","27","","","","","","","","","","","","","","","","","","","","","","","","","","","","","","","","","","","","","","","",""
"","rating","","html-slider-response","32","1462336","0.0-31.0","0","0","rHMtE","People","","4223","","","","","43","33","olena-sergienko-0TSd6uCKTKc-unsplash.jpg","28","","","","","","","","","","","","","","","","","","","","","","","","","","","","","","","","","","","","","","","",""
"","rating","","html-slider-response","33","1465358","0.0-32.0","0","0","rHMtE","People","","3017","","","","","58","9","carlos-andres-gomez-vJuk8Y86mRw-unsplash.jpg","29","","","","","","","","","","","","","","","","","","","","","","","","","","","","","","","","","","","","","","","",""
"","rating","","html-slider-response","34","1470656","0.0-33.0","0","0","rHMtE","People","","5295","","","","","69","16","giano-currie-5-9YOsmf8IQ-unsplash.jpg","30","","","","","","","","","","","","","","","","","","","","","","","","","","","","","","","","","","","","","","","",""
"","rating","","html-slider-response","35","1475347","0.0-34.0","0","0","rHMtE","People","","4686","","","","","28","32","nathan-dumlao-ger61_TX6oI-unsplash.jpg","31","","","","","","","","","","","","","","","","","","","","","","","","","","","","","","","","","","","","","","","",""
"","rating","","html-slider-response","36","1479746","0.0-35.0","0","0","rHMtE","People","","4396","","","","","36","4","barna-bartis-2x3vfVxwR7o-unsplash.jpg","32","","","","","","","","","","","","","","","","","","","","","","","","","","","","","","","","","","","","","","","",""
"","rating","","html-slider-response","37","1483407","0.0-36.0","0","0","rHMtE","People","","3657","","","","","55","7","brooke-cagle-HRZUzoX1e6w-unsplash.jpg","33","","","","","","","","","","","","","","","","","","","","","","","","","","","","","","","","","","","","","","","",""
"","rating","","html-slider-response","38","1487277","0.0-37.0","0","0","rHMtE","People","","3866","","","","","74","24","joel-mott-LaK153ghdig-unsplash.jpg","34","","","","","","","","","","","","","","","","","","","","","","","","","","","","","","","","","","","","","","","",""
"","rating","","html-slider-response","39","1490930","0.0-38.0","0","0","rHMtE","People","","3650","","","","","82","8","bruce-dixon-3M9WJQVHzog-unsplash.jpg","35","","","","","","","","","","","","","","","","","","","","","","","","","","","","","","","","","","","","","","","",""
"","rating","","html-slider-response","40","1493885","0.0-39.0","0","0","rHMtE","People","","2954","","","","","69","23","joanna-nix-walkup-H4fEMshfwTE-unsplash.jpg","36","","","","","","","","","","","","","","","","","","","","","","","","","","","","","","","","","","","","","","","",""
"","rating","","html-slider-response","41","1498176","0.0-40.0","0","0","rHMtE","People","","4289","","","","","90","29","leilani-angel-K84vnnzxmTQ-unsplash.jpg","37","","","","","","","","","","","","","","","","","","","","","","","","","","","","","","","","","","","","","","","",""
"","rating","","html-slider-response","42","1500899","0.0-41.0","0","0","rHMtE","People","","2720","","","","","62","17","gleb-lukomets-paBzWCPN23k-unsplash.jpg","38","","","","","","","","","","","","","","","","","","","","","","","","","","","","","","","","","","","","","","","",""
"","rating","","html-slider-response","43","1503898","0.0-42.0","0","0","rHMtE","People","","2997","","","","","42","41","prince-akachi-i2hoD-C2RUA-unsplash.jpg","39","","","","","","","","","","","","","","","","","","","","","","","","","","","","","","","","","","","","","","","",""
"","rating","","html-slider-response","44","1510908","0.0-43.0","0","0","rHMtE","People","","7004","","","","","34","2","arjunsyah-TBUA5KHJn6k-unsplash.jpg","40","","","","","","","","","","","","","","","","","","","","","","","","","","","","","","","","","","","","","","","",""
"","rating","","html-slider-response","45","1523566","0.0-44.0","0","0","rHMtE","People","","12654","","","","","36","37","pavel-anoshin-d0peGya6R5Y-unsplash.jpg","41","","","","","","","","","","","","","","","","","","","","","","","","","","","","","","","","","","","","","","","",""
"","rating","","html-slider-response","46","1549825","0.0-45.0","0","0","rHMtE","People","","26257","","","","","79","46","stefan-stefancik-QXevDflbl8A-unsplash.jpg","42","","","","","","","","","","","","","","","","","","","","","","","","","","","","","","","","","","","","","","","",""
"","rating","","html-slider-response","47","1555154","0.0-46.0","0","0","rHMtE","People","","5326","","","","","67","12","daniel-rigdon-dXmXKPP2L4E-unsplash.jpg","43","","","","","","","","","","","","","","","","","","","","","","","","","","","","","","","","","","","","","","","",""
"","rating","","html-slider-response","48","1564337","0.0-47.0","0","0","rHMtE","People","","9177","","","","","35","0","abstral-official-cyOKLSgkgCE-unsplash.jpg","44","","","","","","","","","","","","","","","","","","","","","","","","","","","","","","","","","","","","","","","",""
"","rating","","html-slider-response","49","1586425","0.0-48.0","0","0","rHMtE","People","","22084","","","","","63","40","prince-akachi-4Yv84VgQkRM-unsplash.jpg","45","","","","","","","","","","","","","","","","","","","","","","","","","","","","","","","","","","","","","","","",""
"","rating","","html-slider-response","50","1597505","0.0-49.0","0","0","rHMtE","People","","11077","","","","","74","19","ha-nguy-n-OFSQ6bHjFjs-unsplash.jpg","46","","","","","","","","","","","","","","","","","","","","","","","","","","","","","","","","","","","","","","","",""
"","rating","","html-slider-response","51","1602759","0.0-50.0","0","0","rHMtE","People","","5250","","","","","63","38","petr-sevcovic-HzDF-rxlSeM-unsplash.jpg","47","","","","","","","","","","","","","","","","","","","","","","","","","","","","","","","","","","","","","","","",""
"","rating","","html-slider-response","52","1608976","0.0-51.0","0","0","rHMtE","People","","6212","","","","","64","11","christian-ferrer-8vT-DgHZDG4-unsplash.jpg","48","","","","","","","","","","","","","","","","","","","","","","","","","","","","","","","","","","","","","","","",""
"","rating","","html-slider-response","53","1612036","0.0-52.0","0","0","rHMtE","People","","3058","","","","","78","10","charles-etoroma-95UF6LXe-Lo-unsplash.jpg","49","","","","","","","","","","","","","","","","","","","","","","","","","","","","","","","","","","","","","","","",""
"","deliberation_instructions","","instructions","54","1694688","0.0-53.0-0.0","0","0","rHMtE","People","[{""page_index"":0,""viewing_time"":2395},{""page_index"":1,""viewing_time"":2520},{""page_index"":2,""viewing_time"":5933},{""page_index"":3,""viewing_time"":69887},{""page_index"":4,""viewing_time"":1911}]","82648","","","","","","","","","","","","","","","","","","","","","","","","","","","","","","","","","","","","","","","","","","","","","","","",""
"","","","survey-multi-choice","55","1709789","0.0-53.0-1.0","0","0","rHMtE","People","","15093","{""Q0"":""True"",""Q1"":""True"",""Q2"":""Consider carefully and take your time (up to 10 seconds)"",""Q3"":""True"",""Q4"":""D""}","deliberation_comprehension_check","0","","","","","","","","","","","","","","","","","","","","","","","","","","","","","","","","","","","","","","","","","","","","",""
"","start_phase","","html-keyboard-response","56","1713117","0.0-54.0","0","0","rHMtE","People","","3321","","","","78","","","","","","","","","","","","","","","","","","","","","","","","","","","","","","","","","","","","","","","","","","","",""
"","first_deliberation_block","","html-keyboard-response","57","1714976","0.0-55.0","0","0","rHMtE","People","","1858","","","","78","","","","","","","","","","","","","","","","","","","","","","","","","","","","","","","","","","","","","","","","","","","",""
"","fixation","","html-keyboard-response","58","1715979","0.0-56.0-0.0","0","0","rHMtE","People","","null","","","","null","","","","","","","","","","","","","","","","","","","","","","","","","","","","","","","","","","","","","","","","","","","",""
"","deliberation","","html-keyboard-response","59","1717585","0.0-56.0-1.0","0","0","rHMtE","People","","1604","","","","68","","","","0","20","36","0","-1","68","60","houcine-ncib-B4TjXnI0Y2c-unsplash.jpg","ospan-ali-mGdA2fzjWLo-unsplash.jpg","1","1","20","36","","","","","","","","","","","","","","","","","","","","","","","","","","","",""
"","choice_confirmation","","html-keyboard-response","60","1718090","0.0-56.0-2.0-0.0","0","0","rHMtE","People","","null","","","","null","","","","0","20","36","","","","","","","","","","","","","","","","","","","","","","","","","","","","","","","","","","","","","",""
"","fixation","","html-keyboard-response","61","1719099","0.0-57.0-0.0","0","0","rHMtE","People","","null","","","","null","","","","","","","","","","","","","","","","","","","","","","","","","","","","","","","","","","","","","","","","","","","",""
"","deliberation","","html-keyboard-response","62","1720616","0.0-57.0-1.0","0","0","rHMtE","People","","1516","","","","68","","","","1","30","44","1","1","68","62","matheus-ferrero-pg_WCHWSdT8-unsplash.jpg","rikonavt-HQjfrvdTfak-unsplash.jpg","1","1","30","44","","","","","","","","","","","","","","","","","","","","","","","","","","","",""
"","choice_confirmation","","html-keyboard-response","63","1721122","0.0-57.0-2.0-0.0","0","0","rHMtE","People","","null","","","","null","","","","1","30","44","","","","","","","","","","","","","","","","","","","","","","","","","","","","","","","","","","","","","",""
"","explain_trial","","survey-text","64","1742538","0.0-57.0-5.0-0.0","0","0","rHMtE","People","","21413","{""Q0"":""Because I liked it.""}","","","","","","","1","30","44","","","","","","","","","","","{""Q0"":""Because I liked it.""}","","","","","","","","","","","","","","","","","","","","","","","","","","",""
"","fixation","","html-keyboard-response","65","1743551","0.0-58.0-0.0","0","0","rHMtE","People","","null","","","","null","","","","","","","","","","","","","","","","","","","","","","","","","","","","","","","","","","","","","","","","","","","",""
"","deliberation","","html-keyboard-response","66","1746095","0.0-58.0-1.0","0","0","rHMtE","People","","2543","","","","75","","","","2","7","35","0","1","55","69","brooke-cagle-HRZUzoX1e6w-unsplash.jpg","oliver-ragfelt-khV4fTy6-D8-unsplash.jpg","1","0","35","7","","","","","","","","","","","","","","","","","","","","","","","","","","","",""
"","choice_confirmation","","html-keyboard-response","67","1746604","0.0-58.0-2.0-0.0","0","0","rHMtE","People","","null","","","","null","","","","2","7","35","","","","","","","","","","","","","","","","","","","","","","","","","","","","","","","","","","","","","",""
"","fixation","","html-keyboard-response","68","1747612","0.0-59.0-0.0","0","0","rHMtE","People","","null","","","","null","","","","","","","","","","","","","","","","","","","","","","","","","","","","","","","","","","","","","","","","","","","",""
"","deliberation","","html-keyboard-response","69","1749975","0.0-59.0-1.0","0","0","rHMtE","People","","2350","","","","68","","","","3","12","48","0","-1","67","58","daniel-rigdon-dXmXKPP2L4E-unsplash.jpg","velizar-ivanov-7ktP9yZA1g4-unsplash.jpg","1","1","12","48","","","","","","","","","","","","","","","","","","","","","","","","","","","",""
"","choice_confirmation","","html-keyboard-response","70","1750488","0.0-59.0-2.0-0.0","0","0","rHMtE","People","","null","","","","null","","","","3","12","48","","","","","","","","","","","","","","","","","","","","","","","","","","","","","","","","","","","","","",""
"","fixation","","html-keyboard-response","71","1751492","0.0-60.0-0.0","0","0","rHMtE","People","","null","","","","null","","","","","","","","","","","","","","","","","","","","","","","","","","","","","","","","","","","","","","","","","","","",""
"","deliberation","","html-keyboard-response","72","1753846","0.0-60.0-1.0","0","0","rHMtE","People","","2351","","","","75","","","","4","11","40","0","-1","64","63","christian-ferrer-8vT-DgHZDG4-unsplash.jpg","prince-akachi-4Yv84VgQkRM-unsplash.jpg","1","0","40","11","","","","","","","","","","","","","","","","","","","","","","","","","","","",""
"","choice_confirmation","","html-keyboard-response","73","1754365","0.0-60.0-2.0-0.0","0","0","rHMtE","People","","null","","","","null","","","","4","11","40","","","","","","","","","","","","","","","","","","","","","","","","","","","","","","","","","","","","","",""
"","fixation","","html-keyboard-response","74","1755372","0.0-61.0-0.0","0","0","rHMtE","People","","null","","","","null","","","","","","","","","","","","","","","","","","","","","","","","","","","","","","","","","","","","","","","","","","","",""
"","deliberation","","html-keyboard-response","75","1757358","0.0-61.0-1.0","0","0","rHMtE","People","","1984","","","","75","","","","5","17","26","1","1","62","56","gleb-lukomets-paBzWCPN23k-unsplash.jpg","juri-gianfrancesco-9EZadYaMzk4-unsplash.jpg","1","0","26","17","","","","","","","","","","","","","","","","","","","","","","","","","","","",""
"","choice_confirmation","","html-keyboard-response","76","1757905","0.0-61.0-2.0-0.0","0","0","rHMtE","People","","null","","","","null","","","","5","17","26","","","","","","","","","","","","","","","","","","","","","","","","","","","","","","","","","","","","","",""
"","explain_trial","","survey-text","77","1856228","0.0-61.0-5.0-0.0","0","0","rHMtE","People","","98321","{""Q0"":""It was my opinion.""}","","","","","","","5","17","26","","","","","","","","","","","{""Q0"":""It was my opinion.""}","","","","","","","","","","","","","","","","","","","","","","","","","","",""
"","fixation","","html-keyboard-response","78","1857289","0.0-62.0-0.0","0","0","rHMtE","People","","null","","","","null","","","","","","","","","","","","","","","","","","","","","","","","","","","","","","","","","","","","","","","","","","","",""
"","deliberation","","html-keyboard-response","79","1859458","0.0-62.0-1.0","0","0","rHMtE","People","","2081","","","","75","","","","6","16","27","0","-1","69","69","giano-currie-5-9YOsmf8IQ-unsplash.jpg","jurica-koletic-7YVZYZeITc8-unsplash.jpg","1","0","27","16","","","","","","","","","","","","","","","","","","","","","","","","","","","",""
"","choice_confirmation","","html-keyboard-response","80","1859989","0.0-62.0-2.0-0.0","0","0","rHMtE","People","","null","","","","null","","","","6","16","27","","","","","","","","","","","","","","","","","","","","","","","","","","","","","","","","","","","","","",""
"","fixation","","html-keyboard-response","81","1860997","0.0-63.0-0.0","0","0","rHMtE","People","","null","","","","null","","","","","","","","","","","","","","","","","","","","","","","","","","","","","","","","","","","","","","","","","","","",""
"","deliberation","","html-keyboard-response","82","1863150","0.0-63.0-1.0","0","0","rHMtE","People","","2142","","","","68","","","","7","1","9","1","1","56","58","aiony-haust-jmATI5Q_YgY-unsplash.jpg","carlos-andres-gomez-vJuk8Y86mRw-unsplash.jpg","1","1","1","9","","","","","","","","","","","","","","","","","","","","","","","","","","","",""
"","choice_confirmation","","html-keyboard-response","83","1863667","0.0-63.0-2.0-0.0","0","0","rHMtE","People","","null","","","","null","","","","7","1","9","","","","","","","","","","","","","","","","","","","","","","","","","","","","","","","","","","","","","",""
"","explain_trial","","survey-text","84","1874726","0.0-63.0-5.0-0.0","0","0","rHMtE","People","","11043","{""Q0"":""Looks so good.""}","","","","","","","7","1","9","","","","","","","","","","","{""Q0"":""Looks so good.""}","","","","","","","","","","","","","","","","","","","","","","","","","","",""
"","fixation","","html-keyboard-response","85","1875734","0.0-64.0-0.0","0","0","rHMtE","People","","null","","","","null","","","","","","","","","","","","","","","","","","","","","","","","","","","","","","","","","","","","","","","","","","","",""
"","deliberation","","html-keyboard-response","86","1876146","0.0-64.0-1.0","0","0","rHMtE","People","","400","","","","68","","","","8","18","45","1","-1","46","66","good-faces-xmSWVeGEnJw-unsplash.jpg","sarah-noltner-pL5ZzPp1zqg-unsplash.jpg","1","1","18","45","","","","","","","","","","","","","","","","","","","","","","","","","","","",""
"","choice_confirmation","","html-keyboard-response","87","1876652","0.0-64.0-2.0-0.0","0","0","rHMtE","People","","null","","","","null","","","","8","18","45","","","","","","","","","","","","","","","","","","","","","","","","","","","","","","","","","","","","","",""
"","explain_trial","","survey-text","88","1892106","0.0-64.0-5.0-0.0","0","0","rHMtE","People","","15451","{""Q0"":""Looks attractive.""}","","","","","","","8","18","45","","","","","","","","","","","{""Q0"":""Looks attractive.""}","","","","","","","","","","","","","","","","","","","","","","","","","","",""
"","fixation","","html-keyboard-response","89","1893161","0.0-65.0-0.0","0","0","rHMtE","People","","null","","","","null","","","","","","","","","","","","","","","","","","","","","","","","","","","","","","","","","","","","","","","","","","","",""
"","deliberation","","html-keyboard-response","90","1894974","0.0-65.0-1.0","0","0","rHMtE","People","","1798","","","","75","","","","9","13","49","1","-1","59","61","erik-lucatero-d2MSDujJl2g-unsplash.jpg","vicky-hladynets-_gDoyVv5F4c-unsplash.jpg","1","0","49","13","","","","","","","","","","","","","","","","","","","","","","","","","","","",""
"","choice_confirmation","","html-keyboard-response","91","1895493","0.0-65.0-2.0-0.0","0","0","rHMtE","People","","null","","","","null","","","","9","13","49","","","","","","","","","","","","","","","","","","","","","","","","","","","","","","","","","","","","","",""
"","explain_trial","","survey-text","92","1908158","0.0-65.0-5.0-0.0","0","0","rHMtE","People","","12655","{""Q0"":""Simply I liked it.""}","","","","","","","9","13","49","","","","","","","","","","","{""Q0"":""Simply I liked it.""}","","","","","","","","","","","","","","","","","","","","","","","","","","",""
"","fixation","","html-keyboard-response","93","1909172","0.0-66.0-0.0","0","0","rHMtE","People","","null","","","","null","","","","","","","","","","","","","","","","","","","","","","","","","","","","","","","","","","","","","","","","","","","",""
"","deliberation","","html-keyboard-response","94","1911466","0.0-66.0-1.0","0","0","rHMtE","People","","2277","","","","68","","","","10","38","31","1","1","63","55","petr-sevcovic-HzDF-rxlSeM-unsplash.jpg","mathilda-khoo-vLR0YP_otCo-unsplash.jpg","1","1","38","31","","","","","","","","","","","","","","","","","","","","","","","","","","","",""
"","choice_confirmation","","html-keyboard-response","95","1911980","0.0-66.0-2.0-0.0","0","0","rHMtE","People","","null","","","","null","","","","10","38","31","","","","","","","","","","","","","","","","","","","","","","","","","","","","","","","","","","","","","",""
"","explain_trial","","survey-text","96","1923347","0.0-66.0-5.0-0.0","0","0","rHMtE","People","","11353","{""Q0"":""I liked it.""}","","","","","","","10","38","31","","","","","","","","","","","{""Q0"":""I liked it.""}","","","","","","","","","","","","","","","","","","","","","","","","","","",""
"","fixation","","html-keyboard-response","97","1924357","0.0-67.0-0.0","0","0","rHMtE","People","","null","","","","null","","","","","","","","","","","","","","","","","","","","","","","","","","","","","","","","","","","","","","","","","","","",""
"","deliberation","","html-keyboard-response","98","1926267","0.0-67.0-1.0","0","0","rHMtE","People","","1900","","","","75","","","","11","34","28","0","1","55","56","oliver-johnson-1TUIcKob7Zs-unsplash.jpg","justin-chen-J7Cf1Gch49E-unsplash.jpg","1","0","28","34","","","","","","","","","","","","","","","","","","","","","","","","","","","",""
"","choice_confirmation","","html-keyboard-response","99","1926781","0.0-67.0-2.0-0.0","0","0","rHMtE","People","","null","","","","null","","","","11","34","28","","","","","","","","","","","","","","","","","","","","","","","","","","","","","","","","","","","","","",""
"","practice_deliberation_again","","html-keyboard-response","100","1929556","0.0-67.0-6.0-0.0","0","0","rHMtE","People","","2771","","","","78","","","","","","","","","","","","","","","","","","","","","","","","","","","","","","","","","","","","","","","","","","","",""
"","fixation","","html-keyboard-response","101","1930574","0.0-68.0-0.0","0","0","rHMtE","People","","null","","","","null","","","","","","","","","","","","","","","","","","","","","","","","","","","","","","","","","","","","","","","","","","","",""
"","deliberation","","html-keyboard-response","102","1932686","0.0-68.0-1.0","0","0","rHMtE","People","","2105","","","","68","","","","12","7","35","1","1","55","69","brooke-cagle-HRZUzoX1e6w-unsplash.jpg","oliver-ragfelt-khV4fTy6-D8-unsplash.jpg","2","1","7","35","","","","","","","","","","","","","","","","","","","","","","","","","","","",""
"","choice_confirmation","","html-keyboard-response","103","1933204","0.0-68.0-2.0-0.0","0","0","rHMtE","People","","null","","","","null","","","","12","7","35","","","","","","","","","","","","","","","","","","","","","","","","","","","","","","","","","","","","","",""
"","explain_trial","","survey-text","104","1938651","0.0-68.0-5.0-0.0","0","0","rHMtE","People","","5444","{""Q0"":""I liked it.""}","","","","","","","12","7","35","","","","","","","","","","","{""Q0"":""I liked it.""}","","","","","","","","","","","","","","","","","","","","","","","","","","",""
"","fixation","","html-keyboard-response","105","1939660","0.0-69.0-0.0","0","0","rHMtE","People","","null","","","","null","","","","","","","","","","","","","","","","","","","","","","","","","","","","","","","","","","","","","","","","","","","",""
"","deliberation","","html-keyboard-response","106","1941467","0.0-69.0-1.0","0","0","rHMtE","People","","1805","","","","68","","","","13","1","9","0","1","56","58","aiony-haust-jmATI5Q_YgY-unsplash.jpg","carlos-andres-gomez-vJuk8Y86mRw-unsplash.jpg","2","1","1","9","","","","","","","","","","","","","","","","","","","","","","","","","","","",""
"","choice_confirmation","","html-keyboard-response","107","1941971","0.0-69.0-2.0-0.0","0","0","rHMtE","People","","null","","","","null","","","","13","1","9","","","","","","","","","","","","","","","","","","","","","","","","","","","","","","","","","","","","","",""
"","fixation","","html-keyboard-response","108","1942978","0.0-70.0-0.0","0","0","rHMtE","People","","null","","","","null","","","","","","","","","","","","","","","","","","","","","","","","","","","","","","","","","","","","","","","","","","","",""
"","deliberation","","html-keyboard-response","109","1944416","0.0-70.0-1.0","0","0","rHMtE","People","","1436","","","","75","","","","14","34","28","1","1","55","56","oliver-johnson-1TUIcKob7Zs-unsplash.jpg","justin-chen-J7Cf1Gch49E-unsplash.jpg","2","0","28","34","","","","","","","","","","","","","","","","","","","","","","","","","","","",""
"","choice_confirmation","","html-keyboard-response","110","1944924","0.0-70.0-2.0-0.0","0","0","rHMtE","People","","null","","","","null","","","","14","34","28","","","","","","","","","","","","","","","","","","","","","","","","","","","","","","","","","","","","","",""
"","explain_trial","","survey-text","111","1951547","0.0-70.0-5.0-0.0","0","0","rHMtE","People","","6622","{""Q0"":""I liked it.""}","","","","","","","14","34","28","","","","","","","","","","","{""Q0"":""I liked it.""}","","","","","","","","","","","","","","","","","","","","","","","","","","",""
"","fixation","","html-keyboard-response","112","1952610","0.0-71.0-0.0","0","0","rHMtE","People","","null","","","","null","","","","","","","","","","","","","","","","","","","","","","","","","","","","","","","","","","","","","","","","","","","",""
"","deliberation","","html-keyboard-response","113","1955616","0.0-71.0-1.0","0","0","rHMtE","People","","3005","","","","75","","","","15","13","49","0","-1","59","61","erik-lucatero-d2MSDujJl2g-unsplash.jpg","vicky-hladynets-_gDoyVv5F4c-unsplash.jpg","2","0","49","13","","","","","","","","","","","","","","","","","","","","","","","","","","","",""
"","choice_confirmation","","html-keyboard-response","114","1956135","0.0-71.0-2.0-0.0","0","0","rHMtE","People","","null","","","","null","","","","15","13","49","","","","","","","","","","","","","","","","","","","","","","","","","","","","","","","","","","","","","",""
"","fixation","","html-keyboard-response","115","1957149","0.0-72.0-0.0","0","0","rHMtE","People","","null","","","","null","","","","","","","","","","","","","","","","","","","","","","","","","","","","","","","","","","","","","","","","","","","",""
"","deliberation","","html-keyboard-response","116","1958498","0.0-72.0-1.0","0","0","rHMtE","People","","1341","","","","75","","","","16","16","27","1","-1","69","69","giano-currie-5-9YOsmf8IQ-unsplash.jpg","jurica-koletic-7YVZYZeITc8-unsplash.jpg","2","0","27","16","","","","","","","","","","","","","","","","","","","","","","","","","","","",""
"","choice_confirmation","","html-keyboard-response","117","1958998","0.0-72.0-2.0-0.0","0","0","rHMtE","People","","null","","","","null","","","","16","16","27","","","","","","","","","","","","","","","","","","","","","","","","","","","","","","","","","","","","","",""
"","explain_trial","","survey-text","118","1966728","0.0-72.0-5.0-0.0","0","0","rHMtE","People","","7708","{""Q0"":""Simply I liked it.""}","","","","","","","16","16","27","","","","","","","","","","","{""Q0"":""Simply I liked it.""}","","","","","","","","","","","","","","","","","","","","","","","","","","",""
"","fixation","","html-keyboard-response","119","1967742","0.0-73.0-0.0","0","0","rHMtE","People","","null","","","","null","","","","","","","","","","","","","","","","","","","","","","","","","","","","","","","","","","","","","","","","","","","",""
"","deliberation","","html-keyboard-response","120","1970019","0.0-73.0-1.0","0","0","rHMtE","People","","2276","","","","68","","","","17","30","44","0","1","68","62","matheus-ferrero-pg_WCHWSdT8-unsplash.jpg","rikonavt-HQjfrvdTfak-unsplash.jpg","2","1","30","44","","","","","","","","","","","","","","","","","","","","","","","","","","","",""
"","choice_confirmation","","html-keyboard-response","121","1970525","0.0-73.0-2.0-0.0","0","0","rHMtE","People","","null","","","","null","","","","17","30","44","","","","","","","","","","","","","","","","","","","","","","","","","","","","","","","","","","","","","",""
"","fixation","","html-keyboard-response","122","1971542","0.0-74.0-0.0","0","0","rHMtE","People","","null","","","","null","","","","","","","","","","","","","","","","","","","","","","","","","","","","","","","","","","","","","","","","","","","",""
"","deliberation","","html-keyboard-response","123","1973366","0.0-74.0-1.0","0","0","rHMtE","People","","1815","","","","68","","","","18","11","40","1","-1","64","63","christian-ferrer-8vT-DgHZDG4-unsplash.jpg","prince-akachi-4Yv84VgQkRM-unsplash.jpg","2","1","11","40","","","","","","","","","","","","","","","","","","","","","","","","","","","",""
"","choice_confirmation","","html-keyboard-response","124","1973869","0.0-74.0-2.0-0.0","0","0","rHMtE","People","","null","","","","null","","","","18","11","40","","","","","","","","","","","","","","","","","","","","","","","","","","","","","","","","","","","","","",""
"","explain_trial","","survey-text","125","1977966","0.0-74.0-5.0-0.0","0","0","rHMtE","People","","4094","{""Q0"":""I liked it.""}","","","","","","","18","11","40","","","","","","","","","","","{""Q0"":""I liked it.""}","","","","","","","","","","","","","","","","","","","","","","","","","","",""
"","fixation","","html-keyboard-response","126","1978980","0.0-75.0-0.0","0","0","rHMtE","People","","null","","","","null","","","","","","","","","","","","","","","","","","","","","","","","","","","","","","","","","","","","","","","","","","","",""
"","deliberation","","html-keyboard-response","127","1981395","0.0-75.0-1.0","0","0","rHMtE","People","","2413","","","","75","","","","19","18","45","0","-1","46","66","good-faces-xmSWVeGEnJw-unsplash.jpg","sarah-noltner-pL5ZzPp1zqg-unsplash.jpg","2","0","45","18","","","","","","","","","","","","","","","","","","","","","","","","","","","",""
"","choice_confirmation","","html-keyboard-response","128","1981898","0.0-75.0-2.0-0.0","0","0","rHMtE","People","","null","","","","null","","","","19","18","45","","","","","","","","","","","","","","","","","","","","","","","","","","","","","","","","","","","","","",""
"","fixation","","html-keyboard-response","129","1982909","0.0-76.0-0.0","0","0","rHMtE","People","","null","","","","null","","","","","","","","","","","","","","","","","","","","","","","","","","","","","","","","","","","","","","","","","","","",""
"","deliberation","","html-keyboard-response","130","1985356","0.0-76.0-1.0","0","0","rHMtE","People","","2446","","","","68","","","","20","38","31","0","1","63","55","petr-sevcovic-HzDF-rxlSeM-unsplash.jpg","mathilda-khoo-vLR0YP_otCo-unsplash.jpg","2","1","38","31","","","","","","","","","","","","","","","","","","","","","","","","","","","",""
"","choice_confirmation","","html-keyboard-response","131","1985857","0.0-76.0-2.0-0.0","0","0","rHMtE","People","","null","","","","null","","","","20","38","31","","","","","","","","","","","","","","","","","","","","","","","","","","","","","","","","","","","","","",""
"","fixation","","html-keyboard-response","132","1986871","0.0-77.0-0.0","0","0","rHMtE","People","","null","","","","null","","","","","","","","","","","","","","","","","","","","","","","","","","","","","","","","","","","","","","","","","","","",""
"","deliberation","","html-keyboard-response","133","1992176","0.0-77.0-1.0","0","0","rHMtE","People","","5290","","","","68","","","","21","12","48","1","-1","67","58","daniel-rigdon-dXmXKPP2L4E-unsplash.jpg","velizar-ivanov-7ktP9yZA1g4-unsplash.jpg","2","1","12","48","","","","","","","","","","","","","","","","","","","","","","","","","","","",""
"","choice_confirmation","","html-keyboard-response","134","1992683","0.0-77.0-2.0-0.0","0","0","rHMtE","People","","null","","","","null","","","","21","12","48","","","","","","","","","","","","","","","","","","","","","","","","","","","","","","","","","","","","","",""
"","explain_trial","","survey-text","135","1998186","0.0-77.0-5.0-0.0","0","0","rHMtE","People","","5499","{""Q0"":""I liked it.""}","","","","","","","21","12","48","","","","","","","","","","","{""Q0"":""I liked it.""}","","","","","","","","","","","","","","","","","","","","","","","","","","",""
"","fixation","","html-keyboard-response","136","1999210","0.0-78.0-0.0","0","0","rHMtE","People","","null","","","","null","","","","","","","","","","","","","","","","","","","","","","","","","","","","","","","","","","","","","","","","","","","",""
"","deliberation","","html-keyboard-response","137","2002747","0.0-78.0-1.0","0","0","rHMtE","People","","3535","","","","68","","","","22","17","26","0","1","62","56","gleb-lukomets-paBzWCPN23k-unsplash.jpg","juri-gianfrancesco-9EZadYaMzk4-unsplash.jpg","2","1","17","26","","","","","","","","","","","","","","","","","","","","","","","","","","","",""
"","choice_confirmation","","html-keyboard-response","138","2003261","0.0-78.0-2.0-0.0","0","0","rHMtE","People","","null","","","","null","","","","22","17","26","","","","","","","","","","","","","","","","","","","","","","","","","","","","","","","","","","","","","",""
"","fixation","","html-keyboard-response","139","2004271","0.0-79.0-0.0","0","0","rHMtE","People","","null","","","","null","","","","","","","","","","","","","","","","","","","","","","","","","","","","","","","","","","","","","","","","","","","",""
"","deliberation","","html-keyboard-response","140","2005975","0.0-79.0-1.0","0","0","rHMtE","People","","1691","","","","68","","","","23","20","36","1","-1","68","60","houcine-ncib-B4TjXnI0Y2c-unsplash.jpg","ospan-ali-mGdA2fzjWLo-unsplash.jpg","2","1","20","36","","","","","","","","","","","","","","","","","","","","","","","","","","","",""
"","choice_confirmation","","html-keyboard-response","141","2006491","0.0-79.0-2.0-0.0","0","0","rHMtE","People","","null","","","","null","","","","23","20","36","","","","","","","","","","","","","","","","","","","","","","","","","","","","","","","","","","","","","",""
"","explain_trial","","survey-text","142","2010506","0.0-79.0-5.0-0.0","0","0","rHMtE","People","","4012","{""Q0"":""I liked it.""}","","","","","","","23","20","36","","","","","","","","","","","{""Q0"":""I liked it.""}","","","","","","","","","","","","","","","","","","","","","","","","","","",""
"","start_critical_deliberation_block","","html-keyboard-response","143","2013895","0.0-79.0-7.0-0.0","0","0","rHMtE","People","","3373","","","","78","","","","","","","","","","","","","","","","","","","","","","","","","","","","","","","","","","","","","","","","","","","",""
"","fixation","","html-keyboard-response","144","2014902","0.0-80.0-0.0","0","0","rHMtE","People","","null","","","","null","","","","","","","","","","","","","","","","","","","","","","","","","","","","","","","","","","","","","","","","","","","",""
"","deliberation","","html-keyboard-response","145","2024917","0.0-80.0-1.0","0","0","rHMtE","People","","null","","","","null","","","","24","34","28","0","1","55","56","oliver-johnson-1TUIcKob7Zs-unsplash.jpg","justin-chen-J7Cf1Gch49E-unsplash.jpg","3","","","","","","","","","","","","","","","","","","","","","","","","","","","","","","",""
"","deliberation_too_slow","","html-keyboard-response","146","2026429","0.0-80.0-4.0-0.0","1","0","rHMtE","People","","null","","","","null","","","","24","","","","","","","","","","","","","","","","","","","","","","","","","","","","","","","","","","","","","","","",""
"","fixation","","html-keyboard-response","147","2027445","0.0-80.1-0.1","0","0","rHMtE","People","","null","","","","null","","","","","","","","","","","","","","","","","","","","","","","","","","","","","","","","","","","","","","","","","","","",""
"","deliberation","","html-keyboard-response","148","2028436","0.0-80.1-1.1","0","0","rHMtE","People","","988","","","","68","","","","24","34","28","0","1","55","56","oliver-johnson-1TUIcKob7Zs-unsplash.jpg","justin-chen-J7Cf1Gch49E-unsplash.jpg","3","1","34","28","","","","","","","","","","","","","","","","","","","","","","","","","","","",""
"","choice_confirmation","","html-keyboard-response","149","2028945","0.0-80.1-2.1-0.1","0","0","rHMtE","People","","null","","","","null","","","","24","34","28","","","","","","","","","","","","","","","","","","","","","","","","","","","","","","","","","","","","","",""
"","fixation","","html-keyboard-response","150","2029954","0.0-81.0-0.0","0","0","rHMtE","People","","null","","","","null","","","","","","","","","","","","","","","","","","","","","","","","","","","","","","","","","","","","","","","","","","","",""
"","deliberation","","html-keyboard-response","151","2031215","0.0-81.0-1.0","0","0","rHMtE","People","","1257","","","","75","","","","25","16","27","0","-1","69","69","giano-currie-5-9YOsmf8IQ-unsplash.jpg","jurica-koletic-7YVZYZeITc8-unsplash.jpg","3","0","27","16","","","","","","","","","","","","","","","","","","","","","","","","","","","",""
"","choice_confirmation","","html-keyboard-response","152","2031731","0.0-81.0-2.0-0.0","0","0","rHMtE","People","","null","","","","null","","","","25","16","27","","","","","","","","","","","","","","","","","","","","","","","","","","","","","","","","","","","","","",""
"","fixation","","html-keyboard-response","153","2032740","0.0-82.0-0.0","0","0","rHMtE","People","","null","","","","null","","","","","","","","","","","","","","","","","","","","","","","","","","","","","","","","","","","","","","","","","","","",""
"","deliberation","","html-keyboard-response","154","2034395","0.0-82.0-1.0","0","0","rHMtE","People","","1644","","","","68","","","","26","17","26","0","1","62","56","gleb-lukomets-paBzWCPN23k-unsplash.jpg","juri-gianfrancesco-9EZadYaMzk4-unsplash.jpg","3","1","17","26","","","","","","","","","","","","","","","","","","","","","","","","","","","",""
"","choice_confirmation","","html-keyboard-response","155","2034897","0.0-82.0-2.0-0.0","0","0","rHMtE","People","","null","","","","null","","","","26","17","26","","","","","","","","","","","","","","","","","","","","","","","","","","","","","","","","","","","","","",""
"","fixation","","html-keyboard-response","156","2035917","0.0-83.0-0.0","0","0","rHMtE","People","","null","","","","null","","","","","","","","","","","","","","","","","","","","","","","","","","","","","","","","","","","","","","","","","","","",""
"","deliberation","","html-keyboard-response","157","2036982","0.0-83.0-1.0","0","0","rHMtE","People","","1060","","","","75","","","","27","18","45","0","-1","46","66","good-faces-xmSWVeGEnJw-unsplash.jpg","sarah-noltner-pL5ZzPp1zqg-unsplash.jpg","3","0","45","18","","","","","","","","","","","","","","","","","","","","","","","","","","","",""
"","choice_confirmation","","html-keyboard-response","158","2037488","0.0-83.0-2.0-0.0","0","0","rHMtE","People","","null","","","","null","","","","27","18","45","","","","","","","","","","","","","","","","","","","","","","","","","","","","","","","","","","","","","",""
"","fixation","","html-keyboard-response","159","2038508","0.0-84.0-0.0","0","0","rHMtE","People","","null","","","","null","","","","","","","","","","","","","","","","","","","","","","","","","","","","","","","","","","","","","","","","","","","",""
"","deliberation","","html-keyboard-response","160","2042764","0.0-84.0-1.0","0","0","rHMtE","People","","4247","","","","68","","","","28","38","31","0","1","63","55","petr-sevcovic-HzDF-rxlSeM-unsplash.jpg","mathilda-khoo-vLR0YP_otCo-unsplash.jpg","3","1","38","31","","","","","","","","","","","","","","","","","","","","","","","","","","","",""
"","choice_confirmation","","html-keyboard-response","161","2043275","0.0-84.0-2.0-0.0","0","0","rHMtE","People","","null","","","","null","","","","28","38","31","","","","","","","","","","","","","","","","","","","","","","","","","","","","","","","","","","","","","",""
"","fixation","","html-keyboard-response","162","2044293","0.0-85.0-0.0","0","0","rHMtE","People","","null","","","","null","","","","","","","","","","","","","","","","","","","","","","","","","","","","","","","","","","","","","","","","","","","",""
"","deliberation","","html-keyboard-response","163","2046475","0.0-85.0-1.0","0","0","rHMtE","People","","2180","","","","68","","","","29","12","48","0","-1","67","58","daniel-rigdon-dXmXKPP2L4E-unsplash.jpg","velizar-ivanov-7ktP9yZA1g4-unsplash.jpg","3","1","12","48","","","","","","","","","","","","","","","","","","","","","","","","","","","",""
"","choice_confirmation","","html-keyboard-response","164","2046979","0.0-85.0-2.0-0.0","0","0","rHMtE","People","","null","","","","null","","","","29","12","48","","","","","","","","","","","","","","","","","","","","","","","","","","","","","","","","","","","","","",""
"","fixation","","html-keyboard-response","165","2047988","0.0-86.0-0.0","0","0","rHMtE","People","","null","","","","null","","","","","","","","","","","","","","","","","","","","","","","","","","","","","","","","","","","","","","","","","","","",""
"","deliberation","","html-keyboard-response","166","2049454","0.0-86.0-1.0","0","0","rHMtE","People","","1456","","","","68","","","","30","1","9","0","1","56","58","aiony-haust-jmATI5Q_YgY-unsplash.jpg","carlos-andres-gomez-vJuk8Y86mRw-unsplash.jpg","3","1","1","9","","","","","","","","","","","","","","","","","","","","","","","","","","","",""
"","choice_confirmation","","html-keyboard-response","167","2049963","0.0-86.0-2.0-0.0","0","0","rHMtE","People","","null","","","","null","","","","30","1","9","","","","","","","","","","","","","","","","","","","","","","","","","","","","","","","","","","","","","",""
"","fixation","","html-keyboard-response","168","2050972","0.0-87.0-0.0","0","0","rHMtE","People","","null","","","","null","","","","","","","","","","","","","","","","","","","","","","","","","","","","","","","","","","","","","","","","","","","",""
"","deliberation","","html-keyboard-response","169","2052586","0.0-87.0-1.0","0","0","rHMtE","People","","1612","","","","68","","","","31","11","40","0","-1","64","63","christian-ferrer-8vT-DgHZDG4-unsplash.jpg","prince-akachi-4Yv84VgQkRM-unsplash.jpg","3","1","11","40","","","","","","","","","","","","","","","","","","","","","","","","","","","",""
"","choice_confirmation","","html-keyboard-response","170","2053090","0.0-87.0-2.0-0.0","0","0","rHMtE","People","","null","","","","null","","","","31","11","40","","","","","","","","","","","","","","","","","","","","","","","","","","","","","","","","","","","","","",""
"","fixation","","html-keyboard-response","171","2054117","0.0-88.0-0.0","0","0","rHMtE","People","","null","","","","null","","","","","","","","","","","","","","","","","","","","","","","","","","","","","","","","","","","","","","","","","","","",""
"","deliberation","","html-keyboard-response","172","2057166","0.0-88.0-1.0","0","0","rHMtE","People","","3044","","","","75","","","","32","20","36","0","-1","68","60","houcine-ncib-B4TjXnI0Y2c-unsplash.jpg","ospan-ali-mGdA2fzjWLo-unsplash.jpg","3","0","36","20","","","","","","","","","","","","","","","","","","","","","","","","","","","",""
"","choice_confirmation","","html-keyboard-response","173","2057682","0.0-88.0-2.0-0.0","0","0","rHMtE","People","","null","","","","null","","","","32","20","36","","","","","","","","","","","","","","","","","","","","","","","","","","","","","","","","","","","","","",""
"","fixation","","html-keyboard-response","174","2058690","0.0-89.0-0.0","0","0","rHMtE","People","","null","","","","null","","","","","","","","","","","","","","","","","","","","","","","","","","","","","","","","","","","","","","","","","","","",""
"","deliberation","","html-keyboard-response","175","2060005","0.0-89.0-1.0","0","0","rHMtE","People","","1306","","","","68","","","","33","30","44","0","1","68","62","matheus-ferrero-pg_WCHWSdT8-unsplash.jpg","rikonavt-HQjfrvdTfak-unsplash.jpg","3","1","30","44","","","","","","","","","","","","","","","","","","","","","","","","","","","",""
"","choice_confirmation","","html-keyboard-response","176","2060511","0.0-89.0-2.0-0.0","0","0","rHMtE","People","","null","","","","null","","","","33","30","44","","","","","","","","","","","","","","","","","","","","","","","","","","","","","","","","","","","","","",""
"","fixation","","html-keyboard-response","177","2061517","0.0-90.0-0.0","0","0","rHMtE","People","","null","","","","null","","","","","","","","","","","","","","","","","","","","","","","","","","","","","","","","","","","","","","","","","","","",""
"","deliberation","","html-keyboard-response","178","2063275","0.0-90.0-1.0","0","0","rHMtE","People","","1745","","","","75","","","","34","13","49","0","-1","59","61","erik-lucatero-d2MSDujJl2g-unsplash.jpg","vicky-hladynets-_gDoyVv5F4c-unsplash.jpg","3","0","49","13","","","","","","","","","","","","","","","","","","","","","","","","","","","",""
"","choice_confirmation","","html-keyboard-response","179","2063796","0.0-90.0-2.0-0.0","0","0","rHMtE","People","","null","","","","null","","","","34","13","49","","","","","","","","","","","","","","","","","","","","","","","","","","","","","","","","","","","","","",""
"","fixation","","html-keyboard-response","180","2064807","0.0-91.0-0.0","0","0","rHMtE","People","","null","","","","null","","","","","","","","","","","","","","","","","","","","","","","","","","","","","","","","","","","","","","","","","","","",""
"","deliberation","","html-keyboard-response","181","2067394","0.0-91.0-1.0","0","0","rHMtE","People","","2573","","","","68","","","","35","7","35","0","1","55","69","brooke-cagle-HRZUzoX1e6w-unsplash.jpg","oliver-ragfelt-khV4fTy6-D8-unsplash.jpg","3","1","7","35","","","","","","","","","","","","","","","","","","","","","","","","","","","",""
"","choice_confirmation","","html-keyboard-response","182","2067917","0.0-91.0-2.0-0.0","0","0","rHMtE","People","","null","","","","null","","","","35","7","35","","","","","","","","","","","","","","","","","","","","","","","","","","","","","","","","","","","","","",""
"","reward_learning_instructions","","instructions","183","2115778","0.0-92.0-0.0","0","0","rHMtE","People","[{""page_index"":0,""viewing_time"":7078},{""page_index"":1,""viewing_time"":38209},{""page_index"":2,""viewing_time"":2570}]","47858","","","","","","","","","","","","","","","","","","","","","","","","","","","","","","","","","","","","","","","","","","","","","","","",""
"","","","survey-multi-choice","184","2124079","0.0-92.0-1.0","0","0","rHMtE","People","","8294","{""Q0"":""True"",""Q1"":""True"",""Q2"":""Press the space bar to see its outcome"",""Q3"":""Press the relevant key while the outcome is presented""}","reward_comprehension_check","0","","","","","","","","","","","","","","","","","","","","","","","","","","","","","","","","","","","","","","","","","","","","",""
"","start_phase","","html-keyboard-response","185","2126447","0.0-93.0","0","0","rHMtE","People","","2364","","","","78","","","","","","","","","","","","","","","","","","","","","","","","","","","","","","","","","","","","","","","","","","","",""
"","fixation","","html-keyboard-response","186","2127461","0.0-94.0","0","0","rHMtE","People","","null","","","","null","","","","","","","","","","","","","","","","","","","","","","","","","","","","","","","","","","","","","","","","","","","",""
"","see_reward","","html-keyboard-response","187","2129128","0.0-95.0","0","0","rHMtE","People","","1654","","","","32","","27","","0","","","","-1","","","","","1","","","","","0","1654","","","","","","","","","","","","","","","","","","","","","","","","",""
"","reward_outcome","","html-keyboard-response","188","2131143","0.0-96.0","0","0","rHMtE","People","","1315","","","","38","","27","","0","","","","","","","","","","","","","","","","1","1315","","","","","","","","","","","","","","","","","","","","","","",""
"","fixation","","html-keyboard-response","189","2132159","0.0-99.0","0","0","rHMtE","People","","null","","","","null","","","","","","","","","","","","","","","","","","","","","","","","","","","","","","","","","","","","","","","","","","","",""
"","see_reward","","html-keyboard-response","190","2133126","0.0-100.0","0","0","rHMtE","People","","957","","","","32","","45","","1","","","","-1","","","","","1","","","","","0","957","","","","","","","","","","","","","","","","","","","","","","","","",""
"","reward_outcome","","html-keyboard-response","191","2135133","0.0-101.0","0","0","rHMtE","People","","242","","","","38","","45","","1","","","","","","","","","","","","","","","","1","242","","","","","","","","","","","","","","","","","","","","","","",""
"","fixation","","html-keyboard-response","192","2136200","0.0-104.0","0","0","rHMtE","People","","null","","","","null","","","","","","","","","","","","","","","","","","","","","","","","","","","","","","","","","","","","","","","","","","","",""
"","see_reward","","html-keyboard-response","193","2136406","0.0-105.0","0","0","rHMtE","People","","198","","","","32","","17","","2","","","","1","","","","","1","","","","","144","198","","","","","","","","","","","","","","","","","","","","","","","","",""
"","reward_outcome","","html-keyboard-response","194","2138411","0.0-106.0","0","0","rHMtE","People","","9","","","","38","","17","","2","","","","","","","","","","","","","","","","1","9","","","","","","","","","","","","","","","","","","","","","","",""
"","fixation","","html-keyboard-response","195","2139428","0.0-109.0","0","0","rHMtE","People","","null","","","","null","","","","","","","","","","","","","","","","","","","","","","","","","","","","","","","","","","","","","","","","","","","",""
"","see_reward","","html-keyboard-response","196","2139831","0.0-110.0","0","0","rHMtE","People","","394","","","","32","","36","","3","","","","-1","","","","","1","","","","","0","394","","","","","","","","","","","","","","","","","","","","","","","","",""
"","reward_outcome","","html-keyboard-response","197","2141844","0.0-111.0","0","0","rHMtE","People","","215","","","","38","","36","","3","","","","","","","","","","","","","","","","1","215","","","","","","","","","","","","","","","","","","","","","","",""
"","fixation","","html-keyboard-response","198","2142858","0.0-114.0","0","0","rHMtE","People","","null","","","","null","","","","","","","","","","","","","","","","","","","","","","","","","","","","","","","","","","","","","","","","","","","",""
"","see_reward","","html-keyboard-response","199","2143787","0.0-115.0","0","0","rHMtE","People","","918","","","","32","","7","","4","","","","1","","","","","1","","","","","142","918","","","","","","","","","","","","","","","","","","","","","","","","",""
"","reward_outcome","","html-keyboard-response","200","2145805","0.0-116.0","0","0","rHMtE","People","","102","","","","38","","7","","4","","","","","","","","","","","","","","","","1","102","","","","","","","","","","","","","","","","","","","","","","",""
"","fixation","","html-keyboard-response","201","2146814","0.0-119.0","0","0","rHMtE","People","","null","","","","null","","","","","","","","","","","","","","","","","","","","","","","","","","","","","","","","","","","","","","","","","","","",""
"","see_reward","","html-keyboard-response","202","2146977","0.0-120.0","0","0","rHMtE","People","","152","","","","32","","34","","5","","","","1","","","","","1","","","","","150","152","","","","","","","","","","","","","","","","","","","","","","","","",""
"","reward_outcome","","html-keyboard-response","203","2148986","0.0-121.0","0","0","rHMtE","People","","77","","","","38","","34","","5","","","","","","","","","","","","","","","","1","77","","","","","","","","","","","","","","","","","","","","","","",""
"","fixation","","html-keyboard-response","204","2149996","0.0-124.0","0","0","rHMtE","People","","null","","","","null","","","","","","","","","","","","","","","","","","","","","","","","","","","","","","","","","","","","","","","","","","","",""
"","see_reward","","html-keyboard-response","205","2150159","0.0-125.0","0","0","rHMtE","People","","150","","","","32","","36","","6","","","","-1","","","","","1","","","","","0","150","","","","","","","","","","","","","","","","","","","","","","","","",""
"","reward_outcome","","html-keyboard-response","206","2152170","0.0-126.0","0","0","rHMtE","People","","13","","","","38","","36","","6","","","","","","","","","","","","","","","","1","13","","","","","","","","","","","","","","","","","","","","","","",""
"","fixation","","html-keyboard-response","207","2153187","0.0-129.0","0","0","rHMtE","People","","null","","","","null","","","","","","","","","","","","","","","","","","","","","","","","","","","","","","","","","","","","","","","","","","","",""
"","see_reward","","html-keyboard-response","208","2153306","0.0-130.0","0","0","rHMtE","People","","110","","","","32","","17","","7","","","","1","","","","","1","","","","","144","110","","","","","","","","","","","","","","","","","","","","","","","","",""
"","reward_outcome","","html-keyboard-response","209","2155323","0.0-131.0","0","0","rHMtE","People","","150","","","","40","","17","","7","","","","","","","","","","","","","","","","-1","150","","","","","","","","","","","","","","","","","","","","","","",""
"","fixation","","html-keyboard-response","210","2156329","0.0-134.0","0","0","rHMtE","People","","null","","","","null","","","","","","","","","","","","","","","","","","","","","","","","","","","","","","","","","","","","","","","","","","","",""
"","see_reward","","html-keyboard-response","211","2156445","0.0-135.0","0","0","rHMtE","People","","114","","","","32","","1","","8","","","","1","","","","","1","","","","","154","114","","","","","","","","","","","","","","","","","","","","","","","","",""
"","reward_outcome","","html-keyboard-response","212","2158449","0.0-136.0","0","0","rHMtE","People","","243","","","","40","","1","","8","","","","","","","","","","","","","","","","-1","243","","","","","","","","","","","","","","","","","","","","","","",""
"","fixation","","html-keyboard-response","213","2159467","0.0-139.0","0","0","rHMtE","People","","null","","","","null","","","","","","","","","","","","","","","","","","","","","","","","","","","","","","","","","","","","","","","","","","","",""
"","see_reward","","html-keyboard-response","214","2159555","0.0-140.0","0","0","rHMtE","People","","87","","","","32","","30","","9","","","","1","","","","","1","","","","","153","87","","","","","","","","","","","","","","","","","","","","","","","","",""
"","reward_outcome","","html-keyboard-response","215","2161560","0.0-141.0","0","0","rHMtE","People","","18","","","","40","","30","","9","","","","","","","","","","","","","","","","-1","18","","","","","","","","","","","","","","","","","","","","","","",""
"","fixation","","html-keyboard-response","216","2162574","0.0-144.0","0","0","rHMtE","People","","null","","","","null","","","","","","","","","","","","","","","","","","","","","","","","","","","","","","","","","","","","","","","","","","","",""
"","see_reward","","html-keyboard-response","217","2162621","0.0-145.0","0","0","rHMtE","People","","45","","","","32","","30","","10","","","","1","","","","","1","","","","","153","45","","","","","","","","","","","","","","","","","","","","","","","","",""
"","reward_outcome","","html-keyboard-response","218","2164640","0.0-146.0","0","0","rHMtE","People","","0","","","","40","","30","","10","","","","","","","","","","","","","","","","-1","0","","","","","","","","","","","","","","","","","","","","","","",""
"","fixation","","html-keyboard-response","219","2165643","0.0-149.0","0","0","rHMtE","People","","null","","","","null","","","","","","","","","","","","","","","","","","","","","","","","","","","","","","","","","","","","","","","","","","","",""
"","see_reward","","html-keyboard-response","220","2165674","0.0-150.0","0","0","rHMtE","People","","30","","","","32","","11","","11","","","","-1","","","","","1","","","","","0","30","","","","","","","","","","","","","","","","","","","","","","","","",""
"","reward_outcome","","html-keyboard-response","221","2167682","0.0-151.0","0","0","rHMtE","People","","273","","","","40","","11","","11","","","","","","","","","","","","","","","","-1","273","","","","","","","","","","","","","","","","","","","","","","",""
"","fixation","","html-keyboard-response","222","2168684","0.0-154.0","0","0","rHMtE","People","","null","","","","null","","","","","","","","","","","","","","","","","","","","","","","","","","","","","","","","","","","","","","","","","","","",""
"","see_reward","","html-keyboard-response","223","2168805","0.0-155.0","0","0","rHMtE","People","","110","","","","32","","1","","12","","","","1","","","","","1","","","","","154","110","","","","","","","","","","","","","","","","","","","","","","","","",""
"","reward_outcome","","html-keyboard-response","224","2170818","0.0-156.0","0","0","rHMtE","People","","20","","","","40","","1","","12","","","","","","","","","","","","","","","","-1","20","","","","","","","","","","","","","","","","","","","","","","",""
"","fixation","","html-keyboard-response","225","2171830","0.0-159.0","0","0","rHMtE","People","","null","","","","null","","","","","","","","","","","","","","","","","","","","","","","","","","","","","","","","","","","","","","","","","","","",""
"","see_reward","","html-keyboard-response","226","2172037","0.0-160.0","0","0","rHMtE","People","","204","","","","32","","27","","13","","","","-1","","","","","1","","","","","0","204","","","","","","","","","","","","","","","","","","","","","","","","",""
"","reward_outcome","","html-keyboard-response","227","2174044","0.0-161.0","0","0","rHMtE","People","","93","","","","40","","27","","13","","","","","","","","","","","","","","","","-1","93","","","","","","","","","","","","","","","","","","","","","","",""
"","fixation","","html-keyboard-response","228","2175061","0.0-164.0","0","0","rHMtE","People","","null","","","","null","","","","","","","","","","","","","","","","","","","","","","","","","","","","","","","","","","","","","","","","","","","",""
"","see_reward","","html-keyboard-response","229","2175124","0.0-165.0","0","0","rHMtE","People","","63","","","","32","","45","","14","","","","-1","","","","","1","","","","","0","63","","","","","","","","","","","","","","","","","","","","","","","","",""
"","reward_outcome","","html-keyboard-response","230","2177127","0.0-166.0","0","0","rHMtE","People","","89","","","","38","","45","","14","","","","","","","","","","","","","","","","1","89","","","","","","","","","","","","","","","","","","","","","","",""
"","fixation","","html-keyboard-response","231","2178158","0.0-169.0","0","0","rHMtE","People","","null","","","","null","","","","","","","","","","","","","","","","","","","","","","","","","","","","","","","","","","","","","","","","","","","",""
"","see_reward","","html-keyboard-response","232","2178246","0.0-170.0","0","0","rHMtE","People","","86","","","","32","","49","","15","","","","-1","","","","","1","","","","","0","86","","","","","","","","","","","","","","","","","","","","","","","","",""
"","reward_outcome","","html-keyboard-response","233","2180257","0.0-171.0","0","0","rHMtE","People","","358","","","","38","","49","","15","","","","","","","","","","","","","","","","1","358","","","","","","","","","","","","","","","","","","","","","","",""
"","fixation","","html-keyboard-response","234","2181270","0.0-174.0","0","0","rHMtE","People","","null","","","","null","","","","","","","","","","","","","","","","","","","","","","","","","","","","","","","","","","","","","","","","","","","",""
"","see_reward","","html-keyboard-response","235","2181487","0.0-175.0","0","0","rHMtE","People","","209","","","","32","","38","","16","","","","1","","","","","1","","","","","151","209","","","","","","","","","","","","","","","","","","","","","","","","",""
"","reward_outcome","","html-keyboard-response","236","2183492","0.0-176.0","0","0","rHMtE","People","","272","","","","38","","38","","16","","","","","","","","","","","","","","","","1","272","","","","","","","","","","","","","","","","","","","","","","",""
"","fixation","","html-keyboard-response","237","2184505","0.0-179.0","0","0","rHMtE","People","","null","","","","null","","","","","","","","","","","","","","","","","","","","","","","","","","","","","","","","","","","","","","","","","","","",""
"","see_reward","","html-keyboard-response","238","2184576","0.0-180.0","0","0","rHMtE","People","","69","","","","32","","49","","17","","","","-1","","","","","1","","","","","0","69","","","","","","","","","","","","","","","","","","","","","","","","",""
"","reward_outcome","","html-keyboard-response","239","2186588","0.0-181.0","0","0","rHMtE","People","","197","","","","38","","49","","17","","","","","","","","","","","","","","","","1","197","","","","","","","","","","","","","","","","","","","","","","",""
"","fixation","","html-keyboard-response","240","2187601","0.0-184.0","0","0","rHMtE","People","","null","","","","null","","","","","","","","","","","","","","","","","","","","","","","","","","","","","","","","","","","","","","","","","","","",""
"","see_reward","","html-keyboard-response","241","2187624","0.0-185.0","0","0","rHMtE","People","","22","","","","32","","12","","18","","","","-1","","","","","1","","","","","0","22","","","","","","","","","","","","","","","","","","","","","","","","",""
"","reward_outcome","","html-keyboard-response","242","2189636","0.0-186.0","0","0","rHMtE","People","","259","","","","38","","12","","18","","","","","","","","","","","","","","","","1","259","","","","","","","","","","","","","","","","","","","","","","",""
"","fixation","","html-keyboard-response","243","2190652","0.0-189.0","0","0","rHMtE","People","","null","","","","null","","","","","","","","","","","","","","","","","","","","","","","","","","","","","","","","","","","","","","","","","","","",""
"","see_reward","","html-keyboard-response","244","2190725","0.0-190.0","0","0","rHMtE","People","","71","","","","32","","7","","19","","","","1","","","","","1","","","","","142","71","","","","","","","","","","","","","","","","","","","","","","","","",""
"","reward_outcome","","html-keyboard-response","245","2192737","0.0-191.0","0","0","rHMtE","People","","19","","","","38","","7","","19","","","","","","","","","","","","","","","","1","19","","","","","","","","","","","","","","","","","","","","","","",""
"","fixation","","html-keyboard-response","246","2193750","0.0-194.0","0","0","rHMtE","People","","null","","","","null","","","","","","","","","","","","","","","","","","","","","","","","","","","","","","","","","","","","","","","","","","","",""
"","see_reward","","html-keyboard-response","247","2193764","0.0-195.0","0","0","rHMtE","People","","13","","","","32","","34","","20","","","","1","","","","","1","","","","","150","13","","","","","","","","","","","","","","","","","","","","","","","","",""
"","reward_outcome","","html-keyboard-response","248","2195781","0.0-196.0","0","0","rHMtE","People","","210","","","","38","","34","","20","","","","","","","","","","","","","","","","1","210","","","","","","","","","","","","","","","","","","","","","","",""
"","fixation","","html-keyboard-response","249","2196785","0.0-199.0","0","0","rHMtE","People","","null","","","","null","","","","","","","","","","","","","","","","","","","","","","","","","","","","","","","","","","","","","","","","","","","",""
"","see_reward","","html-keyboard-response","250","2197047","0.0-200.0","0","0","rHMtE","People","","259","","","","32","","38","","21","","","","1","","","","","1","","","","","151","259","","","","","","","","","","","","","","","","","","","","","","","","",""
"","reward_outcome","","html-keyboard-response","251","2199049","0.0-201.0","0","0","rHMtE","People","","212","","","","38","","38","","21","","","","","","","","","","","","","","","","1","212","","","","","","","","","","","","","","","","","","","","","","",""
"","fixation","","html-keyboard-response","252","2200058","0.0-204.0","0","0","rHMtE","People","","null","","","","null","","","","","","","","","","","","","","","","","","","","","","","","","","","","","","","","","","","","","","","","","","","",""
"","see_reward","","html-keyboard-response","253","2200153","0.0-205.0","0","0","rHMtE","People","","95","","","","32","","11","","22","","","","-1","","","","","1","","","","","0","95","","","","","","","","","","","","","","","","","","","","","","","","",""
"","reward_outcome","","html-keyboard-response","254","2202168","0.0-206.0","0","0","rHMtE","People","","179","","","","38","","11","","22","","","","","","","","","","","","","","","","1","179","","","","","","","","","","","","","","","","","","","","","","",""
"","fixation","","html-keyboard-response","255","2203176","0.0-209.0","0","0","rHMtE","People","","null","","","","null","","","","","","","","","","","","","","","","","","","","","","","","","","","","","","","","","","","","","","","","","","","",""
"","see_reward","","html-keyboard-response","256","2203546","0.0-210.0","0","0","rHMtE","People","","364","","","","32","","12","","23","","","","-1","","","","","1","","","","","0","364","","","","","","","","","","","","","","","","","","","","","","","","",""
"","reward_outcome","","html-keyboard-response","257","2205557","0.0-211.0","0","0","rHMtE","People","","213","","","","40","","12","","23","","","","","","","","","","","","","","","","-1","213","","","","","","","","","","","","","","","","","","","","","","",""
"","block_over","","html-keyboard-response","258","2208525","0.0-213.0-0.0","0","0","rHMtE","People","","2964","","","","78","","","","","","","","","","","","","","","","","","","","","","","","","","","","","","","","","","","","","","","","","","","",""
"","fixation","","html-keyboard-response","259","2209539","0.0-214.0","0","0","rHMtE","People","","null","","","","null","","","","","","","","","","","","","","","","","","","","","","","","","","","","","","","","","","","","","","","","","","","",""
"","see_reward","","html-keyboard-response","260","2209584","0.0-215.0","0","0","rHMtE","People","","44","","","","32","","7","","24","","","","1","","","","","2","","","","","142","44","","","","","","","","","","","","","","","","","","","","","","","","",""
"","reward_outcome","","html-keyboard-response","261","2211592","0.0-216.0","0","0","rHMtE","People","","252","","","","40","","7","","24","","","","","","","","","","","","","","","","-1","252","","","","","","","","","","","","","","","","","","","","","","",""
"","fixation","","html-keyboard-response","262","2212597","0.0-219.0","0","0","rHMtE","People","","null","","","","null","","","","","","","","","","","","","","","","","","","","","","","","","","","","","","","","","","","","","","","","","","","",""
"","see_reward","","html-keyboard-response","263","2212675","0.0-220.0","0","0","rHMtE","People","","76","","","","32","","17","","25","","","","1","","","","","2","","","","","144","76","","","","","","","","","","","","","","","","","","","","","","","","",""
"","reward_outcome","","html-keyboard-response","264","2214687","0.0-221.0","0","0","rHMtE","People","","240","","","","40","","17","","25","","","","","","","","","","","","","","","","-1","240","","","","","","","","","","","","","","","","","","","","","","",""
"","fixation","","html-keyboard-response","265","2215722","0.0-224.0","0","0","rHMtE","People","","null","","","","null","","","","","","","","","","","","","","","","","","","","","","","","","","","","","","","","","","","","","","","","","","","",""
"","see_reward","","html-keyboard-response","266","2215804","0.0-225.0","0","0","rHMtE","People","","81","","","","32","","12","","26","","","","-1","","","","","2","","","","","0","81","","","","","","","","","","","","","","","","","","","","","","","","",""
"","reward_outcome","","html-keyboard-response","267","2217815","0.0-226.0","0","0","rHMtE","People","","240","","","","40","","12","","26","","","","","","","","","","","","","","","","-1","240","","","","","","","","","","","","","","","","","","","","","","",""
"","fixation","","html-keyboard-response","268","2218820","0.0-229.0","0","0","rHMtE","People","","null","","","","null","","","","","","","","","","","","","","","","","","","","","","","","","","","","","","","","","","","","","","","","","","","",""
"","see_reward","","html-keyboard-response","269","2218999","0.0-230.0","0","0","rHMtE","People","","170","","","","32","","38","","27","","","","1","","","","","2","","","","","151","170","","","","","","","","","","","","","","","","","","","","","","","","",""
"","reward_outcome","","html-keyboard-response","270","2221011","0.0-231.0","0","0","rHMtE","People","","338","","","","40","","38","","27","","","","","","","","","","","","","","","","-1","338","","","","","","","","","","","","","","","","","","","","","","",""
"","fixation","","html-keyboard-response","271","2222017","0.0-234.0","0","0","rHMtE","People","","null","","","","null","","","","","","","","","","","","","","","","","","","","","","","","","","","","","","","","","","","","","","","","","","","",""
"","see_reward","","html-keyboard-response","272","2222085","0.0-235.0","0","0","rHMtE","People","","66","","","","32","","34","","28","","","","1","","","","","2","","","","","150","66","","","","","","","","","","","","","","","","","","","","","","","","",""
"","reward_outcome","","html-keyboard-response","273","2224091","0.0-236.0","0","0","rHMtE","People","","294","","","","40","","34","","28","","","","","","","","","","","","","","","","-1","294","","","","","","","","","","","","","","","","","","","","","","",""
"","fixation","","html-keyboard-response","274","2225096","0.0-239.0","0","0","rHMtE","People","","null","","","","null","","","","","","","","","","","","","","","","","","","","","","","","","","","","","","","","","","","","","","","","","","","",""
"","see_reward","","html-keyboard-response","275","2225114","0.0-240.0","0","0","rHMtE","People","","17","","","","32","","1","","29","","","","1","","","","","2","","","","","154","17","","","","","","","","","","","","","","","","","","","","","","","","",""
"","reward_outcome","","html-keyboard-response","276","2227122","0.0-241.0","0","0","rHMtE","People","","354","","","","40","","1","","29","","","","","","","","","","","","","","","","-1","354","","","","","","","","","","","","","","","","","","","","","","",""
"","fixation","","html-keyboard-response","277","2228134","0.0-244.0","0","0","rHMtE","People","","null","","","","null","","","","","","","","","","","","","","","","","","","","","","","","","","","","","","","","","","","","","","","","","","","",""
"","see_reward","","html-keyboard-response","278","2228367","0.0-245.0","0","0","rHMtE","People","","225","","","","32","","36","","30","","","","-1","","","","","2","","","","","0","225","","","","","","","","","","","","","","","","","","","","","","","","",""
"","reward_outcome","","html-keyboard-response","279","2230385","0.0-246.0","0","0","rHMtE","People","","236","","","","40","","36","","30","","","","","","","","","","","","","","","","-1","236","","","","","","","","","","","","","","","","","","","","","","",""
"","fixation","","html-keyboard-response","280","2231397","0.0-249.0","0","0","rHMtE","People","","null","","","","null","","","","","","","","","","","","","","","","","","","","","","","","","","","","","","","","","","","","","","","","","","","",""
"","see_reward","","html-keyboard-response","281","2231495","0.0-250.0","0","0","rHMtE","People","","96","","","","32","","1","","31","","","","1","","","","","2","","","","","154","96","","","","","","","","","","","","","","","","","","","","","","","","",""
"","reward_outcome","","html-keyboard-response","282","2233511","0.0-251.0","0","0","rHMtE","People","","153","","","","40","","1","","31","","","","","","","","","","","","","","","","-1","153","","","","","","","","","","","","","","","","","","","","","","",""
"","fixation","","html-keyboard-response","283","2234528","0.0-254.0","0","0","rHMtE","People","","null","","","","null","","","","","","","","","","","","","","","","","","","","","","","","","","","","","","","","","","","","","","","","","","","",""
"","see_reward","","html-keyboard-response","284","2234725","0.0-255.0","0","0","rHMtE","People","","187","","","","32","","38","","32","","","","1","","","","","2","","","","","151","187","","","","","","","","","","","","","","","","","","","","","","","","",""
"","reward_outcome","","html-keyboard-response","285","2236733","0.0-256.0","0","0","rHMtE","People","","229","","","","40","","38","","32","","","","","","","","","","","","","","","","-1","229","","","","","","","","","","","","","","","","","","","","","","",""
"","fixation","","html-keyboard-response","286","2237738","0.0-259.0","0","0","rHMtE","People","","null","","","","null","","","","","","","","","","","","","","","","","","","","","","","","","","","","","","","","","","","","","","","","","","","",""
"","see_reward","","html-keyboard-response","287","2237945","0.0-260.0","0","0","rHMtE","People","","205","","","","32","","27","","33","","","","-1","","","","","2","","","","","0","205","","","","","","","","","","","","","","","","","","","","","","","","",""
"","reward_outcome","","html-keyboard-response","288","2239961","0.0-261.0","0","0","rHMtE","People","","258","","","","40","","27","","33","","","","","","","","","","","","","","","","-1","258","","","","","","","","","","","","","","","","","","","","","","",""
"","fixation","","html-keyboard-response","289","2240970","0.0-264.0","0","0","rHMtE","People","","null","","","","null","","","","","","","","","","","","","","","","","","","","","","","","","","","","","","","","","","","","","","","","","","","",""
"","see_reward","","html-keyboard-response","290","2241637","0.0-265.0","0","0","rHMtE","People","","665","","","","32","","30","","34","","","","1","","","","","2","","","","","153","665","","","","","","","","","","","","","","","","","","","","","","","","",""
"","reward_outcome","","html-keyboard-response","291","2243643","0.0-266.0","0","0","rHMtE","People","","266","","","","40","","30","","34","","","","","","","","","","","","","","","","-1","266","","","","","","","","","","","","","","","","","","","","","","",""
"","fixation","","html-keyboard-response","292","2244650","0.0-269.0","0","0","rHMtE","People","","null","","","","null","","","","","","","","","","","","","","","","","","","","","","","","","","","","","","","","","","","","","","","","","","","",""
"","see_reward","","html-keyboard-response","293","2244946","0.0-270.0","0","0","rHMtE","People","","294","","","","32","","30","","35","","","","1","","","","","2","","","","","153","294","","","","","","","","","","","","","","","","","","","","","","","","",""
"","reward_outcome","","html-keyboard-response","294","2246961","0.0-271.0","0","0","rHMtE","People","","279","","","","40","","30","","35","","","","","","","","","","","","","","","","-1","279","","","","","","","","","","","","","","","","","","","","","","",""
"","fixation","","html-keyboard-response","295","2247972","0.0-274.0","0","0","rHMtE","People","","null","","","","null","","","","","","","","","","","","","","","","","","","","","","","","","","","","","","","","","","","","","","","","","","","",""
"","see_reward","","html-keyboard-response","296","2248024","0.0-275.0","0","0","rHMtE","People","","50","","","","32","","27","","36","","","","-1","","","","","2","","","","","0","50","","","","","","","","","","","","","","","","","","","","","","","","",""
"","reward_outcome","","html-keyboard-response","297","2250026","0.0-276.0","0","0","rHMtE","People","","174","","","","40","","27","","36","","","","","","","","","","","","","","","","-1","174","","","","","","","","","","","","","","","","","","","","","","",""
"","fixation","","html-keyboard-response","298","2251035","0.0-279.0","0","0","rHMtE","People","","null","","","","null","","","","","","","","","","","","","","","","","","","","","","","","","","","","","","","","","","","","","","","","","","","",""
"","see_reward","","html-keyboard-response","299","2251295","0.0-280.0","0","0","rHMtE","People","","256","","","","32","","12","","37","","","","-1","","","","","2","","","","","0","256","","","","","","","","","","","","","","","","","","","","","","","","",""
"","reward_outcome","","html-keyboard-response","300","2253312","0.0-281.0","0","0","rHMtE","People","","28","","","","40","","12","","37","","","","","","","","","","","","","","","","-1","28","","","","","","","","","","","","","","","","","","","","","","",""
"","fixation","","html-keyboard-response","301","2254316","0.0-284.0","0","0","rHMtE","People","","null","","","","null","","","","","","","","","","","","","","","","","","","","","","","","","","","","","","","","","","","","","","","","","","","",""
"","see_reward","","html-keyboard-response","302","2254333","0.0-285.0","0","0","rHMtE","People","","15","","","","32","","11","","38","","","","-1","","","","","2","","","","","0","15","","","","","","","","","","","","","","","","","","","","","","","","",""
"","reward_outcome","","html-keyboard-response","303","2256338","0.0-286.0","0","0","rHMtE","People","","396","","","","40","","11","","38","","","","","","","","","","","","","","","","-1","396","","","","","","","","","","","","","","","","","","","","","","",""
"","fixation","","html-keyboard-response","304","2257355","0.0-289.0","0","0","rHMtE","People","","null","","","","null","","","","","","","","","","","","","","","","","","","","","","","","","","","","","","","","","","","","","","","","","","","",""
"","see_reward","","html-keyboard-response","305","2257625","0.0-290.0","0","0","rHMtE","People","","269","","","","32","","7","","39","","","","1","","","","","2","","","","","142","269","","","","","","","","","","","","","","","","","","","","","","","","",""
"","reward_outcome","","html-keyboard-response","306","2259649","0.0-291.0","0","0","rHMtE","People","","126","","","","40","","7","","39","","","","","","","","","","","","","","","","-1","126","","","","","","","","","","","","","","","","","","","","","","",""
"","fixation","","html-keyboard-response","307","2260664","0.0-294.0","0","0","rHMtE","People","","null","","","","null","","","","","","","","","","","","","","","","","","","","","","","","","","","","","","","","","","","","","","","","","","","",""
"","see_reward","","html-keyboard-response","308","2260867","0.0-295.0","0","0","rHMtE","People","","190","","","","32","","34","","40","","","","1","","","","","2","","","","","150","190","","","","","","","","","","","","","","","","","","","","","","","","",""
"","reward_outcome","","html-keyboard-response","309","2262886","0.0-296.0","0","0","rHMtE","People","","16","","","","40","","34","","40","","","","","","","","","","","","","","","","-1","16","","","","","","","","","","","","","","","","","","","","","","",""
"","fixation","","html-keyboard-response","310","2263918","0.0-299.0","0","0","rHMtE","People","","null","","","","null","","","","","","","","","","","","","","","","","","","","","","","","","","","","","","","","","","","","","","","","","","","",""
"","see_reward","","html-keyboard-response","311","2263935","0.0-300.0","0","0","rHMtE","People","","15","","","","32","","49","","41","","","","-1","","","","","2","","","","","0","15","","","","","","","","","","","","","","","","","","","","","","","","",""
"","reward_outcome","","html-keyboard-response","312","2265947","0.0-301.0","0","0","rHMtE","People","","97","","","","40","","49","","41","","","","","","","","","","","","","","","","-1","97","","","","","","","","","","","","","","","","","","","","","","",""
"","fixation","","html-keyboard-response","313","2266966","0.0-304.0","0","0","rHMtE","People","","null","","","","null","","","","","","","","","","","","","","","","","","","","","","","","","","","","","","","","","","","","","","","","","","","",""
"","see_reward","","html-keyboard-response","314","2267295","0.0-305.0","0","0","rHMtE","People","","322","","","","32","","11","","42","","","","-1","","","","","2","","","","","0","322","","","","","","","","","","","","","","","","","","","","","","","","",""
"","reward_outcome","","html-keyboard-response","315","2269303","0.0-306.0","0","0","rHMtE","People","","97","","","","40","","11","","42","","","","","","","","","","","","","","","","-1","97","","","","","","","","","","","","","","","","","","","","","","",""
"","fixation","","html-keyboard-response","316","2270321","0.0-309.0","0","0","rHMtE","People","","null","","","","null","","","","","","","","","","","","","","","","","","","","","","","","","","","","","","","","","","","","","","","","","","","",""
"","see_reward","","html-keyboard-response","317","2270554","0.0-310.0","0","0","rHMtE","People","","232","","","","32","","45","","43","","","","-1","","","","","2","","","","","0","232","","","","","","","","","","","","","","","","","","","","","","","","",""
"","reward_outcome","","html-keyboard-response","318","2272570","0.0-311.0","0","0","rHMtE","People","","220","","","","40","","45","","43","","","","","","","","","","","","","","","","-1","220","","","","","","","","","","","","","","","","","","","","","","",""
"","fixation","","html-keyboard-response","319","2273581","0.0-314.0","0","0","rHMtE","People","","null","","","","null","","","","","","","","","","","","","","","","","","","","","","","","","","","","","","","","","","","","","","","","","","","",""
"","see_reward","","html-keyboard-response","320","2273675","0.0-315.0","0","0","rHMtE","People","","84","","","","32","","45","","44","","","","-1","","","","","2","","","","","0","84","","","","","","","","","","","","","","","","","","","","","","","","",""
"","reward_outcome","","html-keyboard-response","321","2275696","0.0-316.0","0","0","rHMtE","People","","398","","","","38","","45","","44","","","","","","","","","","","","","","","","1","398","","","","","","","","","","","","","","","","","","","","","","",""
"","fixation","","html-keyboard-response","322","2276714","0.0-319.0","0","0","rHMtE","People","","null","","","","null","","","","","","","","","","","","","","","","","","","","","","","","","","","","","","","","","","","","","","","","","","","",""
"","see_reward","","html-keyboard-response","323","2276826","0.0-320.0","0","0","rHMtE","People","","110","","","","32","","17","","45","","","","1","","","","","2","","","","","144","110","","","","","","","","","","","","","","","","","","","","","","","","",""
"","reward_outcome","","html-keyboard-response","324","2278842","0.0-321.0","0","0","rHMtE","People","","40","","","","38","","17","","45","","","","","","","","","","","","","","","","1","40","","","","","","","","","","","","","","","","","","","","","","",""
"","fixation","","html-keyboard-response","325","2279866","0.0-324.0","0","0","rHMtE","People","","null","","","","null","","","","","","","","","","","","","","","","","","","","","","","","","","","","","","","","","","","","","","","","","","","",""
"","see_reward","","html-keyboard-response","326","2279919","0.0-325.0","0","0","rHMtE","People","","51","","","","32","","36","","46","","","","-1","","","","","2","","","","","0","51","","","","","","","","","","","","","","","","","","","","","","","","",""
"","reward_outcome","","html-keyboard-response","327","2281925","0.0-326.0","0","0","rHMtE","People","","216","","","","38","","36","","46","","","","","","","","","","","","","","","","1","216","","","","","","","","","","","","","","","","","","","","","","",""
"","fixation","","html-keyboard-response","328","2282934","0.0-329.0","0","0","rHMtE","People","","null","","","","null","","","","","","","","","","","","","","","","","","","","","","","","","","","","","","","","","","","","","","","","","","","",""
"","see_reward","","html-keyboard-response","329","2283117","0.0-330.0","0","0","rHMtE","People","","173","","","","32","","49","","47","","","","-1","","","","","2","","","","","0","173","","","","","","","","","","","","","","","","","","","","","","","","",""
"","reward_outcome","","html-keyboard-response","330","2285130","0.0-331.0","0","0","rHMtE","People","","261","","","","38","","49","","47","","","","","","","","","","","","","","","","1","261","","","","","","","","","","","","","","","","","","","","","","",""
"","block_over","","html-keyboard-response","331","2287046","0.0-333.0-0.0","0","0","rHMtE","People","","1912","","","","78","","","","","","","","","","","","","","","","","","","","","","","","","","","","","","","","","","","","","","","","","","","",""
"","fixation","","html-keyboard-response","332","2288051","0.0-334.0","0","0","rHMtE","People","","null","","","","null","","","","","","","","","","","","","","","","","","","","","","","","","","","","","","","","","","","","","","","","","","","",""
"","see_reward","","html-keyboard-response","333","2288273","0.0-335.0","0","0","rHMtE","People","","209","","","","32","","49","","48","","","","-1","","","","","3","","","","","0","209","","","","","","","","","","","","","","","","","","","","","","","","",""
"","reward_outcome","","html-keyboard-response","334","2290286","0.0-336.0","0","0","rHMtE","People","","378","","","","38","","49","","48","","","","","","","","","","","","","","","","1","378","","","","","","","","","","","","","","","","","","","","","","",""
"","fixation","","html-keyboard-response","335","2291291","0.0-339.0","0","0","rHMtE","People","","null","","","","null","","","","","","","","","","","","","","","","","","","","","","","","","","","","","","","","","","","","","","","","","","","",""
"","see_reward","","html-keyboard-response","336","2291435","0.0-340.0","0","0","rHMtE","People","","142","","","","32","","12","","49","","","","-1","","","","","3","","","","","0","142","","","","","","","","","","","","","","","","","","","","","","","","",""
"","reward_outcome","","html-keyboard-response","337","2293451","0.0-341.0","0","0","rHMtE","People","","1","","","","38","","12","","49","","","","","","","","","","","","","","","","1","1","","","","","","","","","","","","","","","","","","","","","","",""
"","fixation","","html-keyboard-response","338","2294468","0.0-344.0","0","0","rHMtE","People","","null","","","","null","","","","","","","","","","","","","","","","","","","","","","","","","","","","","","","","","","","","","","","","","","","",""
"","see_reward","","html-keyboard-response","339","2294806","0.0-345.0","0","0","rHMtE","People","","335","","","","32","","11","","50","","","","-1","","","","","3","","","","","0","335","","","","","","","","","","","","","","","","","","","","","","","","",""
"","reward_outcome","","html-keyboard-response","340","2296812","0.0-346.0","0","0","rHMtE","People","","218","","","","38","","11","","50","","","","","","","","","","","","","","","","1","218","","","","","","","","","","","","","","","","","","","","","","",""
"","fixation","","html-keyboard-response","341","2297831","0.0-349.0","0","0","rHMtE","People","","null","","","","null","","","","","","","","","","","","","","","","","","","","","","","","","","","","","","","","","","","","","","","","","","","",""
"","see_reward","","html-keyboard-response","342","2298576","0.0-350.0","0","0","rHMtE","People","","742","","","","32","","36","","51","","","","-1","","","","","3","","","","","0","742","","","","","","","","","","","","","","","","","","","","","","","","",""
"","reward_outcome","","html-keyboard-response","343","2300592","0.0-351.0","0","0","rHMtE","People","","434","","","","38","","36","","51","","","","","","","","","","","","","","","","1","434","","","","","","","","","","","","","","","","","","","","","","",""
"","fixation","","html-keyboard-response","344","2301607","0.0-354.0","0","0","rHMtE","People","","null","","","","null","","","","","","","","","","","","","","","","","","","","","","","","","","","","","","","","","","","","","","","","","","","",""
"","see_reward","","html-keyboard-response","345","2301707","0.0-355.0","0","0","rHMtE","People","","97","","","","32","","38","","52","","","","1","","","","","3","","","","","151","97","","","","","","","","","","","","","","","","","","","","","","","","",""
"","reward_outcome","","html-keyboard-response","346","2303728","0.0-356.0","0","0","rHMtE","People","","105","","","","40","","38","","52","","","","","","","","","","","","","","","","-1","105","","","","","","","","","","","","","","","","","","","","","","",""
"","fixation","","html-keyboard-response","347","2304732","0.0-359.0","0","0","rHMtE","People","","null","","","","null","","","","","","","","","","","","","","","","","","","","","","","","","","","","","","","","","","","","","","","","","","","",""
"","see_reward","","html-keyboard-response","348","2305016","0.0-360.0","0","0","rHMtE","People","","282","","","","32","","11","","53","","","","-1","","","","","3","","","","","0","282","","","","","","","","","","","","","","","","","","","","","","","","",""
"","reward_outcome","","html-keyboard-response","349","2307024","0.0-361.0","0","0","rHMtE","People","","289","","","","40","","11","","53","","","","","","","","","","","","","","","","-1","289","","","","","","","","","","","","","","","","","","","","","","",""
"","fixation","","html-keyboard-response","350","2308028","0.0-364.0","0","0","rHMtE","People","","null","","","","null","","","","","","","","","","","","","","","","","","","","","","","","","","","","","","","","","","","","","","","","","","","",""
"","see_reward","","html-keyboard-response","351","2308187","0.0-365.0","0","0","rHMtE","People","","156","","","","32","","36","","54","","","","-1","","","","","3","","","","","0","156","","","","","","","","","","","","","","","","","","","","","","","","",""
"","reward_outcome","","html-keyboard-response","352","2310201","0.0-366.0","0","0","rHMtE","People","","7","","","","40","","36","","54","","","","","","","","","","","","","","","","-1","7","","","","","","","","","","","","","","","","","","","","","","",""
"","fixation","","html-keyboard-response","353","2311205","0.0-369.0","0","0","rHMtE","People","","null","","","","null","","","","","","","","","","","","","","","","","","","","","","","","","","","","","","","","","","","","","","","","","","","",""
