"success","ttype","start_time","trial_type","trial_index","time_elapsed","internal_node_id","warning","missed_checkup","PID","stim_type","view_history","rt","responses","repeat_instructions","key_press","response","stimulus_id","painting","index","stimulus_left","stimulus_right","explain_trial","reward_type","rating_left","rating_right","painting_left","painting_right","block","left_chosen","chosen_obj","unchosen_obj","explain_response","reward_amount","see_reward_rt","register_reward_response","register_reward_rt","deliberation_reward_tally","stimulus_left_deliberation_ind","stimulus_right_deliberation_ind","chosen_trial","gain_left","higher_outcome_chosen","old_pair","chosen_object","rt_pairs","left_object_chosen","rt_object","old_response","new_rating","deliberated_stim","initial_rating","outcome_eval_rt","outcome_eval_response","outcome_eval_gain","outcome_eval_acc","preamble","outcome_eval_confidence","outcome_eval_confidence_rt","total_reward_tally"
"true","full_screen","d01192023hr2047","fullscreen","0","28065","0.0-0.0","0","0","8Mzwz","Scenes","","","","","","","","","","","","","","","","","","","","","","","","","","","","","","","","","","","","","","","","","","","","","","","","",""
"","rating_instructions","","instructions","1","41493","0.0-1.0-0.0","0","0","8Mzwz","Scenes","[{""page_index"":0,""viewing_time"":9657},{""page_index"":1,""viewing_time"":3765}]","13423","","","","","","","","","","","","","","","","","","","","","","","","","","","","","","","","","","","","","","","","","","","","","","",""
"","rating_comprehension_check","","survey-multi-choice","2","49028","0.0-1.0-1.0","0","0","8Mzwz","Scenes","","7531","{""Q0"":""True"",""Q1"":""Mouse""}","0","","","","","","","","","","","","","","","","","","","","","","","","","","","","","","","","","","","","","","","","","","","","",""
"","start_phase","","html-keyboard-response","3","52170","0.0-2.0","0","0","8Mzwz","Scenes","","3137","","","78","","","","","","","","","","","","","","","","","","","","","","","","","","","","","","","","","","","","","","","","","","","",""
"","rating","","html-slider-response","4","57267","0.0-3.0","0","0","8Mzwz","Scenes","","5091","","","","78","143","sigurdur-fjalar-jonsson-1KxBabIntpE-unsplash.jpg","0","","","","","","","","","","","","","","","","","","","","","","","","","","","","","","","","","","","","","","","",""
"","rating","","html-slider-response","5","60867","0.0-4.0","0","0","8Mzwz","Scenes","","3597","","","","85","120","jarrett-kow-1ZOyYPOBn7I-unsplash.jpg","1","","","","","","","","","","","","","","","","","","","","","","","","","","","","","","","","","","","","","","","",""
"","rating","","html-slider-response","6","77298","0.0-5.0","0","0","8Mzwz","Scenes","","16428","","","","62","133","mickey-o-neil-xL66l--msXU-unsplash.jpg","2","","","","","","","","","","","","","","","","","","","","","","","","","","","","","","","","","","","","","","","",""
"","rating","","html-slider-response","7","81738","0.0-6.0","0","0","8Mzwz","Scenes","","4438","","","","72","142","sergey-pesterev-y-b_FOmJXdg-unsplash.jpg","3","","","","","","","","","","","","","","","","","","","","","","","","","","","","","","","","","","","","","","","",""
"","rating","","html-slider-response","8","85618","0.0-7.0","0","0","8Mzwz","Scenes","","3877","","","","34","105","ashim-d-silva-S2Q5mdOrrVc-unsplash.jpg","4","","","","","","","","","","","","","","","","","","","","","","","","","","","","","","","","","","","","","","","",""
"","rating","","html-slider-response","9","89562","0.0-8.0","0","0","8Mzwz","Scenes","","3942","","","","74","100","aleksandra-boguslawska-MS7KD9Ti7FQ-unsplash.jpg","5","","","","","","","","","","","","","","","","","","","","","","","","","","","","","","","","","","","","","","","",""
"","rating","","html-slider-response","10","92994","0.0-9.0","0","0","8Mzwz","Scenes","","3430","","","","87","104","artem-sapegin-XGDBdSQ70O0-unsplash.jpg","6","","","","","","","","","","","","","","","","","","","","","","","","","","","","","","","","","","","","","","","",""
"","rating","","html-slider-response","11","156408","0.0-10.0","0","0","8Mzwz","Scenes","","63411","","","","77","132","meng-ji-8BH_M-53CyA-unsplash.jpg","7","","","","","","","","","","","","","","","","","","","","","","","","","","","","","","","","","","","","","","","",""
"","rating","","html-slider-response","12","157833","0.0-11.0","0","0","8Mzwz","Scenes","","1422","","","","67","134","milada-vigerova-pQMM63GE7fo-unsplash.jpg","8","","","","","","","","","","","","","","","","","","","","","","","","","","","","","","","","","","","","","","","",""
"","rating","","html-slider-response","13","159175","0.0-12.0","0","0","8Mzwz","Scenes","","1340","","","","68","129","kurt-cotoaga-cqbLg3lZEpk-unsplash.jpg","9","","","","","","","","","","","","","","","","","","","","","","","","","","","","","","","","","","","","","","","",""
"","rating","","html-slider-response","14","160727","0.0-13.0","0","0","8Mzwz","Scenes","","1549","","","","79","123","joel-jasmin-forestbird-efuwb5eBDrI-unsplash.jpg","10","","","","","","","","","","","","","","","","","","","","","","","","","","","","","","","","","","","","","","","",""
"","rating","","html-slider-response","15","163823","0.0-14.0","0","0","8Mzwz","Scenes","","3094","","","","83","131","luca-bravo-hFzIoD0F_i8-unsplash.jpg","11","","","","","","","","","","","","","","","","","","","","","","","","","","","","","","","","","","","","","","","",""
"","rating","","html-slider-response","16","167743","0.0-15.0","0","0","8Mzwz","Scenes","","3918","","","","81","130","lina-loos-04-C1NZk1hE-unsplash.jpg","12","","","","","","","","","","","","","","","","","","","","","","","","","","","","","","","","","","","","","","","",""
"","rating","","html-slider-response","17","171687","0.0-16.0","0","0","8Mzwz","Scenes","","3942","","","","46","106","ashim-d-silva-WeYamle9fDM-unsplash.jpg","13","","","","","","","","","","","","","","","","","","","","","","","","","","","","","","","","","","","","","","","",""
"","rating","","html-slider-response","18","175007","0.0-17.0","0","0","8Mzwz","Scenes","","3318","","","","83","118","henry-be-NLF6hTe4PAg-unsplash.jpg","14","","","","","","","","","","","","","","","","","","","","","","","","","","","","","","","","","","","","","","","",""
"","rating","","html-slider-response","19","178054","0.0-18.0","0","0","8Mzwz","Scenes","","3045","","","","83","119","james-wheeler-AFC0XvICMgs-unsplash.jpg","15","","","","","","","","","","","","","","","","","","","","","","","","","","","","","","","","","","","","","","","",""
"","rating","","html-slider-response","20","181934","0.0-19.0","0","0","8Mzwz","Scenes","","3878","","","","73","145","stephen-leonardi-gyIRjKPXupE-unsplash.jpg","16","","","","","","","","","","","","","","","","","","","","","","","","","","","","","","","","","","","","","","","",""
"","rating","","html-slider-response","21","198950","0.0-20.0","0","0","8Mzwz","Scenes","","17013","","","","80","116","david-marcu-W5MhJ6cy1So-unsplash.jpg","17","","","","","","","","","","","","","","","","","","","","","","","","","","","","","","","","","","","","","","","",""
"","rating","","html-slider-response","22","202022","0.0-21.0","0","0","8Mzwz","Scenes","","3070","","","","79","101","aniket-deole-T-tOgjWZ0fQ-unsplash.jpg","18","","","","","","","","","","","","","","","","","","","","","","","","","","","","","","","","","","","","","","","",""
"","rating","","html-slider-response","23","203941","0.0-22.0","0","0","8Mzwz","Scenes","","1917","","","","75","136","nicolas-jehly-LzVB84KkZOE-unsplash.jpg","19","","","","","","","","","","","","","","","","","","","","","","","","","","","","","","","","","","","","","","","",""
"","rating","","html-slider-response","24","206670","0.0-23.0","0","0","8Mzwz","Scenes","","2726","","","","62","149","yuriy-bogdanov-W51VK3Obcj0-unsplash.jpg","20","","","","","","","","","","","","","","","","","","","","","","","","","","","","","","","","","","","","","","","",""
"","rating","","html-slider-response","25","209909","0.0-24.0","0","0","8Mzwz","Scenes","","3237","","","","47","139","samsommer-vddccTqwal8-unsplash.jpg","21","","","","","","","","","","","","","","","","","","","","","","","","","","","","","","","","","","","","","","","",""
"","rating","","html-slider-response","26","213301","0.0-25.0","0","0","8Mzwz","Scenes","","3389","","","","80","102","anisur-rahman-K2b7UDed6uQ-unsplash.jpg","22","","","","","","","","","","","","","","","","","","","","","","","","","","","","","","","","","","","","","","","",""
"","rating","","html-slider-response","27","216470","0.0-26.0","0","0","8Mzwz","Scenes","","3166","","","","76","127","kace-rodriguez-p3OzJuT_Dks-unsplash.jpg","23","","","","","","","","","","","","","","","","","","","","","","","","","","","","","","","","","","","","","","","",""
"","rating","","html-slider-response","28","219774","0.0-27.0","0","0","8Mzwz","Scenes","","3301","","","","75","138","petr-vysohlid-9fqwGqGLUxc-unsplash.jpg","24","","","","","","","","","","","","","","","","","","","","","","","","","","","","","","","","","","","","","","","",""
"","rating","","html-slider-response","29","226941","0.0-28.0","0","0","8Mzwz","Scenes","","7165","","","","80","147","tobias-keller-73F4pKoUkM0-unsplash.jpg","25","","","","","","","","","","","","","","","","","","","","","","","","","","","","","","","","","","","","","","","",""
"","rating","","html-slider-response","30","230149","0.0-29.0","0","0","8Mzwz","Scenes","","3206","","","","77","128","karsten-wurth-jS0zC2PJ17A-unsplash.jpg","26","","","","","","","","","","","","","","","","","","","","","","","","","","","","","","","","","","","","","","","",""
"","rating","","html-slider-response","31","232101","0.0-30.0","0","0","8Mzwz","Scenes","","1950","","","","75","121","jean-pierre-brungs-qxCqkbF7tUc-unsplash.jpg","27","","","","","","","","","","","","","","","","","","","","","","","","","","","","","","","","","","","","","","","",""
"","rating","","html-slider-response","32","235989","0.0-31.0","0","0","8Mzwz","Scenes","","3886","","","","79","114","daniel-sessler-z_9VmsxR8hs-unsplash.jpg","28","","","","","","","","","","","","","","","","","","","","","","","","","","","","","","","","","","","","","","","",""
"","rating","","html-slider-response","33","239061","0.0-32.0","0","0","8Mzwz","Scenes","","3070","","","","77","126","jordan-mcqueen-PJCZOWuOxbU-unsplash.jpg","29","","","","","","","","","","","","","","","","","","","","","","","","","","","","","","","","","","","","","","","",""
"","rating","","html-slider-response","34","245661","0.0-33.0","0","0","8Mzwz","Scenes","","6598","","","","78","122","jeff-king-bJHWJeiHfHc-unsplash.jpg","30","","","","","","","","","","","","","","","","","","","","","","","","","","","","","","","","","","","","","","","",""
"","rating","","html-slider-response","35","253796","0.0-34.0","0","0","8Mzwz","Scenes","","8133","","","","78","135","mohammad-alizade-4wzRuAb-KWs-unsplash.jpg","31","","","","","","","","","","","","","","","","","","","","","","","","","","","","","","","","","","","","","","","",""
"","rating","","html-slider-response","36","258596","0.0-35.0","0","0","8Mzwz","Scenes","","4797","","","","80","110","bruno-van-der-kraan-qez8mNJ3ilU-unsplash.jpg","32","","","","","","","","","","","","","","","","","","","","","","","","","","","","","","","","","","","","","","","",""
"","rating","","html-slider-response","37","260932","0.0-36.0","0","0","8Mzwz","Scenes","","2334","","","","77","146","thomas-morse-cuKKa0vWZSY-unsplash.jpg","33","","","","","","","","","","","","","","","","","","","","","","","","","","","","","","","","","","","","","","","",""
"","rating","","html-slider-response","38","265460","0.0-37.0","0","0","8Mzwz","Scenes","","4526","","","","73","111","claudio-testa-U3F2o6vz3bs-unsplash.jpg","34","","","","","","","","","","","","","","","","","","","","","","","","","","","","","","","","","","","","","","","",""
"","rating","","html-slider-response","39","269916","0.0-38.0","0","0","8Mzwz","Scenes","","4454","","","","94","112","cosmic-timetraveler-pYyOZ8q7AII-unsplash.jpg","35","","","","","","","","","","","","","","","","","","","","","","","","","","","","","","","","","","","","","","","",""
"","rating","","html-slider-response","40","274308","0.0-39.0","0","0","8Mzwz","Scenes","","4389","","","","77","125","john-lee-oMneOBYhJxY-unsplash.jpg","36","","","","","","","","","","","","","","","","","","","","","","","","","","","","","","","","","","","","","","","",""
"","rating","","html-slider-response","41","278795","0.0-40.0","0","0","8Mzwz","Scenes","","4485","","","","76","124","johannes-plenio-sPt5RIjKfpk-unsplash.jpg","37","","","","","","","","","","","","","","","","","","","","","","","","","","","","","","","","","","","","","","","",""
"","rating","","html-slider-response","42","281835","0.0-41.0","0","0","8Mzwz","Scenes","","3038","","","","78","103","anton-darius-FBJugtbHsWU-unsplash.jpg","38","","","","","","","","","","","","","","","","","","","","","","","","","","","","","","","","","","","","","","","",""
"","rating","","html-slider-response","43","284282","0.0-42.0","0","0","8Mzwz","Scenes","","2446","","","","77","148","tom-gainor-ZqLeQDjY6fY-unsplash.jpg","39","","","","","","","","","","","","","","","","","","","","","","","","","","","","","","","","","","","","","","","",""
"","rating","","html-slider-response","44","302506","0.0-43.0","0","0","8Mzwz","Scenes","","18222","","","","69","108","benjamin-voros-phIFdC6lA4E-unsplash.jpg","40","","","","","","","","","","","","","","","","","","","","","","","","","","","","","","","","","","","","","","","",""
"","rating","","html-slider-response","45","306010","0.0-44.0","0","0","8Mzwz","Scenes","","3502","","","","65","115","darrell-cassell-hoCXpPUMCoE-unsplash.jpg","41","","","","","","","","","","","","","","","","","","","","","","","","","","","","","","","","","","","","","","","",""
"","rating","","html-slider-response","46","309026","0.0-45.0","0","0","8Mzwz","Scenes","","3014","","","","66","144","solotravelgoals-7kLufxYoqWk-unsplash.jpg","42","","","","","","","","","","","","","","","","","","","","","","","","","","","","","","","","","","","","","","","",""
"","rating","","html-slider-response","47","329225","0.0-46.0","0","0","8Mzwz","Scenes","","20197","","","","63","113","damian-denis-D8R_txR_0PE-unsplash.jpg","43","","","","","","","","","","","","","","","","","","","","","","","","","","","","","","","","","","","","","","","",""
"","rating","","html-slider-response","48","331145","0.0-47.0","0","0","8Mzwz","Scenes","","1918","","","","69","109","brigitta-schneiter-hXXRLtTxXCU-unsplash.jpg","44","","","","","","","","","","","","","","","","","","","","","","","","","","","","","","","","","","","","","","","",""
"","rating","","html-slider-response","49","332953","0.0-48.0","0","0","8Mzwz","Scenes","","1806","","","","79","107","benjamin-davies-Zm2n2O7Fph4-unsplash.jpg","45","","","","","","","","","","","","","","","","","","","","","","","","","","","","","","","","","","","","","","","",""
"","rating","","html-slider-response","50","336242","0.0-49.0","0","0","8Mzwz","Scenes","","3286","","","","71","141","sebastian-unrau-v4e3JI7DDHI-unsplash.jpg","46","","","","","","","","","","","","","","","","","","","","","","","","","","","","","","","","","","","","","","","",""
"","rating","","html-slider-response","51","339241","0.0-50.0","0","0","8Mzwz","Scenes","","2997","","","","84","137","olga-stalska-QaWRyEdlffY-unsplash.jpg","47","","","","","","","","","","","","","","","","","","","","","","","","","","","","","","","","","","","","","","","",""
"","rating","","html-slider-response","52","344272","0.0-51.0","0","0","8Mzwz","Scenes","","5029","","","","69","117","frank-mckenna-OD9EOzfSOh0-unsplash.jpg","48","","","","","","","","","","","","","","","","","","","","","","","","","","","","","","","","","","","","","","","",""
"","rating","","html-slider-response","53","352760","0.0-52.0","0","0","8Mzwz","Scenes","","8486","","","","64","140","samuele-errico-piccarini-JEBqFu2AOOA-unsplash.jpg","49","","","","","","","","","","","","","","","","","","","","","","","","","","","","","","","","","","","","","","","",""
"","deliberation_instructions","","instructions","54","519124","0.0-53.0-0.0","0","0","8Mzwz","Scenes","[{""page_index"":0,""viewing_time"":26571},{""page_index"":1,""viewing_time"":16960},{""page_index"":2,""viewing_time"":87341},{""page_index"":3,""viewing_time"":31254},{""page_index"":4,""viewing_time"":4233}]","166360","","","","","","","","","","","","","","","","","","","","","","","","","","","","","","","","","","","","","","","","","","","","","","",""
"","deliberation_comprehension_check","","survey-multi-choice","55","553426","0.0-53.0-1.0","0","0","8Mzwz","Scenes","","34292","{""Q0"":""True"",""Q1"":""True"",""Q2"":""Consider carefully and take your time (up to 10 seconds)"",""Q3"":""True"",""Q4"":""D""}","0","","","","","","","","","","","","","","","","","","","","","","","","","","","","","","","","","","","","","","","","","","","","",""
"","start_phase","","html-keyboard-response","56","556861","0.0-54.0","0","0","8Mzwz","Scenes","","3430","","","78","","","","","","","","","","","","","","","","","","","","","","","","","","","","","","","","","","","","","","","","","","","",""
"","first_deliberation_block","","html-keyboard-response","57","560393","0.0-55.0","0","0","8Mzwz","Scenes","","3529","","","78","","","","","","","","","","","","","","","","","","","","","","","","","","","","","","","","","","","","","","","","","","","",""
"","fixation","","html-keyboard-response","58","561404","0.0-56.0-0.0","0","0","8Mzwz","Scenes","","null","","","null","","","","","","","","","","","","","","","","","","","","","","","","","","","","","","","","","","","","","","","","","","","",""
"","deliberation","","html-keyboard-response","59","563993","0.0-56.0-1.0","0","0","8Mzwz","Scenes","","2551","","","68","","","","0","117","122","1","1","69","78","frank-mckenna-OD9EOzfSOh0-unsplash.jpg","jeff-king-bJHWJeiHfHc-unsplash.jpg","1","1","117","122","","","","","","","","","","","","","","","","","","","","","","","","","","","",""
"","choice_confirmation","","html-keyboard-response","60","564499","0.0-56.0-2.0-0.0","0","0","8Mzwz","Scenes","","null","","","null","","","","0","117","122","","","","","","","","","","","","","","","","","","","","","","","","","","","","","","","","","","","","","",""
"","explain_trial","","survey-text","61","585225","0.0-56.0-5.0-0.0","0","0","8Mzwz","Scenes","","20720","{""Q0"":"" liked the beach""}","","","","","","0","117","122","","","","","","","","","","","{""Q0"":"" liked the beach""}","","","","","","","","","","","","","","","","","","","","","","","","","","",""
"","fixation","","html-keyboard-response","62","586240","0.0-57.0-0.0","0","0","8Mzwz","Scenes","","null","","","null","","","","","","","","","","","","","","","","","","","","","","","","","","","","","","","","","","","","","","","","","","","",""
"","deliberation","","html-keyboard-response","63","596255","0.0-57.0-1.0","0","0","8Mzwz","Scenes","","null","","","null","","","","1","121","125","1","-1","75","77","jean-pierre-brungs-qxCqkbF7tUc-unsplash.jpg","john-lee-oMneOBYhJxY-unsplash.jpg","1","","","","","","","","","","","","","","","","","","","","","","","","","","","","","","",""
"","deliberation_too_slow","","html-keyboard-response","64","597763","0.0-57.0-4.0-0.0","1","0","8Mzwz","Scenes","","null","","","null","","","","1","","","","","","","","","","","","","","","","","","","","","","","","","","","","","","","","","","","","","","","",""
"","fixation","","html-keyboard-response","65","598778","0.0-57.1-0.1","0","0","8Mzwz","Scenes","","null","","","null","","","","","","","","","","","","","","","","","","","","","","","","","","","","","","","","","","","","","","","","","","","",""
"","deliberation","","html-keyboard-response","66","604181","0.0-57.1-1.1","0","0","8Mzwz","Scenes","","5399","","","68","","","","1","121","125","1","-1","75","77","jean-pierre-brungs-qxCqkbF7tUc-unsplash.jpg","john-lee-oMneOBYhJxY-unsplash.jpg","1","1","121","125","","","","","","","","","","","","","","","","","","","","","","","","","","","",""
"","choice_confirmation","","html-keyboard-response","67","604686","0.0-57.1-2.1-0.1","0","0","8Mzwz","Scenes","","null","","","null","","","","1","121","125","","","","","","","","","","","","","","","","","","","","","","","","","","","","","","","","","","","","","",""
"","explain_trial","","survey-text","68","623143","0.0-57.1-5.1-0.1","0","0","8Mzwz","Scenes","","18453","{""Q0"":""The horizon was well captured""}","","","","","","1","121","125","","","","","","","","","","","{""Q0"":""The horizon was well captured""}","","","","","","","","","","","","","","","","","","","","","","","","","","",""
"","fixation","","html-keyboard-response","69","624146","0.0-58.0-0.0","0","0","8Mzwz","Scenes","","null","","","null","","","","","","","","","","","","","","","","","","","","","","","","","","","","","","","","","","","","","","","","","","","",""
"","deliberation","","html-keyboard-response","70","626338","0.0-58.0-1.0","0","0","8Mzwz","Scenes","","2189","","","75","","","","2","114","141","0","1","79","71","daniel-sessler-z_9VmsxR8hs-unsplash.jpg","sebastian-unrau-v4e3JI7DDHI-unsplash.jpg","1","0","141","114","","","","","","","","","","","","","","","","","","","","","","","","","","","",""
"","choice_confirmation","","html-keyboard-response","71","626845","0.0-58.0-2.0-0.0","0","0","8Mzwz","Scenes","","null","","","null","","","","2","114","141","","","","","","","","","","","","","","","","","","","","","","","","","","","","","","","","","","","","","",""
"","fixation","","html-keyboard-response","72","627851","0.0-59.0-0.0","0","0","8Mzwz","Scenes","","null","","","null","","","","","","","","","","","","","","","","","","","","","","","","","","","","","","","","","","","","","","","","","","","",""
"","deliberation","","html-keyboard-response","73","630417","0.0-59.0-1.0","0","0","8Mzwz","Scenes","","2562","","","68","","","","3","123","148","1","-1","79","77","joel-jasmin-forestbird-efuwb5eBDrI-unsplash.jpg","tom-gainor-ZqLeQDjY6fY-unsplash.jpg","1","1","123","148","","","","","","","","","","","","","","","","","","","","","","","","","","","",""
"","choice_confirmation","","html-keyboard-response","74","630935","0.0-59.0-2.0-0.0","0","0","8Mzwz","Scenes","","null","","","null","","","","3","123","148","","","","","","","","","","","","","","","","","","","","","","","","","","","","","","","","","","","","","",""
"","explain_trial","","survey-text","75","651686","0.0-59.0-5.0-0.0","0","0","8Mzwz","Scenes","","20747","{""Q0"":""It looks nice the trees covered by snow""}","","","","","","3","123","148","","","","","","","","","","","{""Q0"":""It looks nice the trees covered by snow""}","","","","","","","","","","","","","","","","","","","","","","","","","","",""
"","fixation","","html-keyboard-response","76","652704","0.0-60.0-0.0","0","0","8Mzwz","Scenes","","null","","","null","","","","","","","","","","","","","","","","","","","","","","","","","","","","","","","","","","","","","","","","","","","",""
"","deliberation","","html-keyboard-response","77","657196","0.0-60.0-1.0","0","0","8Mzwz","Scenes","","4485","","","68","","","","4","128","143","1","-1","77","78","karsten-wurth-jS0zC2PJ17A-unsplash.jpg","sigurdur-fjalar-jonsson-1KxBabIntpE-unsplash.jpg","1","1","128","143","","","","","","","","","","","","","","","","","","","","","","","","","","","",""
"","choice_confirmation","","html-keyboard-response","78","657705","0.0-60.0-2.0-0.0","0","0","8Mzwz","Scenes","","null","","","null","","","","4","128","143","","","","","","","","","","","","","","","","","","","","","","","","","","","","","","","","","","","","","",""
"","explain_trial","","survey-text","79","685620","0.0-60.0-5.0-0.0","0","0","8Mzwz","Scenes","","27913","{""Q0"":""The house standing alone reminded of the ancient times""}","","","","","","4","128","143","","","","","","","","","","","{""Q0"":""The house standing alone reminded of the ancient times""}","","","","","","","","","","","","","","","","","","","","","","","","","","",""
"","fixation","","html-keyboard-response","80","686628","0.0-61.0-0.0","0","0","8Mzwz","Scenes","","null","","","null","","","","","","","","","","","","","","","","","","","","","","","","","","","","","","","","","","","","","","","","","","","",""
"","deliberation","","html-keyboard-response","81","690026","0.0-61.0-1.0","0","0","8Mzwz","Scenes","","3394","","","75","","","","5","145","126","0","-1","73","77","stephen-leonardi-gyIRjKPXupE-unsplash.jpg","jordan-mcqueen-PJCZOWuOxbU-unsplash.jpg","1","0","126","145","","","","","","","","","","","","","","","","","","","","","","","","","","","",""
"","choice_confirmation","","html-keyboard-response","82","690536","0.0-61.0-2.0-0.0","0","0","8Mzwz","Scenes","","null","","","null","","","","5","145","126","","","","","","","","","","","","","","","","","","","","","","","","","","","","","","","","","","","","","",""
"","fixation","","html-keyboard-response","83","691557","0.0-62.0-0.0","0","0","8Mzwz","Scenes","","null","","","null","","","","","","","","","","","","","","","","","","","","","","","","","","","","","","","","","","","","","","","","","","","",""
"","deliberation","","html-keyboard-response","84","693770","0.0-62.0-1.0","0","0","8Mzwz","Scenes","","2209","","","75","","","","6","132","100","0","-1","77","74","meng-ji-8BH_M-53CyA-unsplash.jpg","aleksandra-boguslawska-MS7KD9Ti7FQ-unsplash.jpg","1","0","100","132","","","","","","","","","","","","","","","","","","","","","","","","","","","",""
"","choice_confirmation","","html-keyboard-response","85","694284","0.0-62.0-2.0-0.0","0","0","8Mzwz","Scenes","","null","","","null","","","","6","132","100","","","","","","","","","","","","","","","","","","","","","","","","","","","","","","","","","","","","","",""
"","fixation","","html-keyboard-response","86","695299","0.0-63.0-0.0","0","0","8Mzwz","Scenes","","null","","","null","","","","","","","","","","","","","","","","","","","","","","","","","","","","","","","","","","","","","","","","","","","",""
"","deliberation","","html-keyboard-response","87","697789","0.0-63.0-1.0","0","0","8Mzwz","Scenes","","2486","","","68","","","","7","101","103","1","1","79","78","aniket-deole-T-tOgjWZ0fQ-unsplash.jpg","anton-darius-FBJugtbHsWU-unsplash.jpg","1","1","101","103","","","","","","","","","","","","","","","","","","","","","","","","","","","",""
"","choice_confirmation","","html-keyboard-response","88","698294","0.0-63.0-2.0-0.0","0","0","8Mzwz","Scenes","","null","","","null","","","","7","101","103","","","","","","","","","","","","","","","","","","","","","","","","","","","","","","","","","","","","","",""
"","explain_trial","","survey-text","89","732243","0.0-63.0-5.0-0.0","0","0","8Mzwz","Scenes","","33947","{""Q0"":""The mountains standing side by side like they are having a conversation.""}","","","","","","7","101","103","","","","","","","","","","","{""Q0"":""The mountains standing side by side like they are having a conversation.""}","","","","","","","","","","","","","","","","","","","","","","","","","","",""
"","fixation","","html-keyboard-response","90","733262","0.0-64.0-0.0","0","0","8Mzwz","Scenes","","null","","","null","","","","","","","","","","","","","","","","","","","","","","","","","","","","","","","","","","","","","","","","","","","",""
"","deliberation","","html-keyboard-response","91","736878","0.0-64.0-1.0","0","0","8Mzwz","Scenes","","3613","","","68","","","","8","127","146","1","1","76","77","kace-rodriguez-p3OzJuT_Dks-unsplash.jpg","thomas-morse-cuKKa0vWZSY-unsplash.jpg","1","1","127","146","","","","","","","","","","","","","","","","","","","","","","","","","","","",""
"","choice_confirmation","","html-keyboard-response","92","737391","0.0-64.0-2.0-0.0","0","0","8Mzwz","Scenes","","null","","","null","","","","8","127","146","","","","","","","","","","","","","","","","","","","","","","","","","","","","","","","","","","","","","",""
"","explain_trial","","survey-text","93","940405","0.0-64.0-5.0-0.0","0","0","8Mzwz","Scenes","","203009","{""Q0"":""The to giant hills stands along the water like they drink it.""}","","","","","","8","127","146","","","","","","","","","","","{""Q0"":""The to giant hills stands along the water like they drink it.""}","","","","","","","","","","","","","","","","","","","","","","","","","","",""
"","fixation","","html-keyboard-response","94","941422","0.0-65.0-0.0","0","0","8Mzwz","Scenes","","null","","","null","","","","","","","","","","","","","","","","","","","","","","","","","","","","","","","","","","","","","","","","","","","",""
"","deliberation","","html-keyboard-response","95","947026","0.0-65.0-1.0","0","0","8Mzwz","Scenes","","5601","","","75","","","","9","124","136","0","1","76","75","johannes-plenio-sPt5RIjKfpk-unsplash.jpg","nicolas-jehly-LzVB84KkZOE-unsplash.jpg","1","0","136","124","","","","","","","","","","","","","","","","","","","","","","","","","","","",""
"","choice_confirmation","","html-keyboard-response","96","947531","0.0-65.0-2.0-0.0","0","0","8Mzwz","Scenes","","null","","","null","","","","9","124","136","","","","","","","","","","","","","","","","","","","","","","","","","","","","","","","","","","","","","",""
"","fixation","","html-keyboard-response","97","948540","0.0-66.0-0.0","0","0","8Mzwz","Scenes","","null","","","null","","","","","","","","","","","","","","","","","","","","","","","","","","","","","","","","","","","","","","","","","","","",""
"","deliberation","","html-keyboard-response","98","951977","0.0-66.0-1.0","0","0","8Mzwz","Scenes","","3433","","","75","","","","10","142","138","0","1","72","75","sergey-pesterev-y-b_FOmJXdg-unsplash.jpg","petr-vysohlid-9fqwGqGLUxc-unsplash.jpg","1","0","138","142","","","","","","","","","","","","","","","","","","","","","","","","","","","",""
"","choice_confirmation","","html-keyboard-response","99","952494","0.0-66.0-2.0-0.0","0","0","8Mzwz","Scenes","","null","","","null","","","","10","142","138","","","","","","","","","","","","","","","","","","","","","","","","","","","","","","","","","","","","","",""
"","fixation","","html-keyboard-response","100","953511","0.0-67.0-0.0","0","0","8Mzwz","Scenes","","null","","","null","","","","","","","","","","","","","","","","","","","","","","","","","","","","","","","","","","","","","","","","","","","",""
"","deliberation","","html-keyboard-response","101","955947","0.0-67.0-1.0","0","0","8Mzwz","Scenes","","2433","","","75","","","","11","135","111","0","-1","78","73","mohammad-alizade-4wzRuAb-KWs-unsplash.jpg","claudio-testa-U3F2o6vz3bs-unsplash.jpg","1","0","111","135","","","","","","","","","","","","","","","","","","","","","","","","","","","",""
"","choice_confirmation","","html-keyboard-response","102","956454","0.0-67.0-2.0-0.0","0","0","8Mzwz","Scenes","","null","","","null","","","","11","135","111","","","","","","","","","","","","","","","","","","","","","","","","","","","","","","","","","","","","","",""
"","practice_deliberation_again","","html-keyboard-response","103","959078","0.0-67.0-6.0-0.0","0","0","8Mzwz","Scenes","","2619","","","78","","","","","","","","","","","","","","","","","","","","","","","","","","","","","","","","","","","","","","","","","","","",""
"","fixation","","html-keyboard-response","104","960089","0.0-68.0-0.0","0","0","8Mzwz","Scenes","","null","","","null","","","","","","","","","","","","","","","","","","","","","","","","","","","","","","","","","","","","","","","","","","","",""
"","deliberation","","html-keyboard-response","105","963468","0.0-68.0-1.0","0","0","8Mzwz","Scenes","","3377","","","75","","","","12","128","143","0","-1","77","78","karsten-wurth-jS0zC2PJ17A-unsplash.jpg","sigurdur-fjalar-jonsson-1KxBabIntpE-unsplash.jpg","2","0","143","128","","","","","","","","","","","","","","","","","","","","","","","","","","","",""
"","choice_confirmation","","html-keyboard-response","106","963970","0.0-68.0-2.0-0.0","0","0","8Mzwz","Scenes","","null","","","null","","","","12","128","143","","","","","","","","","","","","","","","","","","","","","","","","","","","","","","","","","","","","","",""
"","fixation","","html-keyboard-response","107","964983","0.0-69.0-0.0","0","0","8Mzwz","Scenes","","null","","","null","","","","","","","","","","","","","","","","","","","","","","","","","","","","","","","","","","","","","","","","","","","",""
"","deliberation","","html-keyboard-response","108","966327","0.0-69.0-1.0","0","0","8Mzwz","Scenes","","1342","","","75","","","","13","127","146","0","1","76","77","kace-rodriguez-p3OzJuT_Dks-unsplash.jpg","thomas-morse-cuKKa0vWZSY-unsplash.jpg","2","0","146","127","","","","","","","","","","","","","","","","","","","","","","","","","","","",""
"","choice_confirmation","","html-keyboard-response","109","966845","0.0-69.0-2.0-0.0","0","0","8Mzwz","Scenes","","null","","","null","","","","13","127","146","","","","","","","","","","","","","","","","","","","","","","","","","","","","","","","","","","","","","",""
"","fixation","","html-keyboard-response","110","967865","0.0-70.0-0.0","0","0","8Mzwz","Scenes","","null","","","null","","","","","","","","","","","","","","","","","","","","","","","","","","","","","","","","","","","","","","","","","","","",""
"","deliberation","","html-keyboard-response","111","969207","0.0-70.0-1.0","0","0","8Mzwz","Scenes","","1339","","","75","","","","14","135","111","1","-1","78","73","mohammad-alizade-4wzRuAb-KWs-unsplash.jpg","claudio-testa-U3F2o6vz3bs-unsplash.jpg","2","0","111","135","","","","","","","","","","","","","","","","","","","","","","","","","","","",""
"","choice_confirmation","","html-keyboard-response","112","969726","0.0-70.0-2.0-0.0","0","0","8Mzwz","Scenes","","null","","","null","","","","14","135","111","","","","","","","","","","","","","","","","","","","","","","","","","","","","","","","","","","","","","",""
"","explain_trial","","survey-text","113","988466","0.0-70.0-5.0-0.0","0","0","8Mzwz","Scenes","","18736","{""Q0"":""The hillside is a fertile place""}","","","","","","14","135","111","","","","","","","","","","","{""Q0"":""The hillside is a fertile place""}","","","","","","","","","","","","","","","","","","","","","","","","","","",""
"","fixation","","html-keyboard-response","114","989490","0.0-71.0-0.0","0","0","8Mzwz","Scenes","","null","","","null","","","","","","","","","","","","","","","","","","","","","","","","","","","","","","","","","","","","","","","","","","","",""
"","deliberation","","html-keyboard-response","115","991643","0.0-71.0-1.0","0","0","8Mzwz","Scenes","","2149","","","68","","","","15","101","103","0","1","79","78","aniket-deole-T-tOgjWZ0fQ-unsplash.jpg","anton-darius-FBJugtbHsWU-unsplash.jpg","2","1","101","103","","","","","","","","","","","","","","","","","","","","","","","","","","","",""
"","choice_confirmation","","html-keyboard-response","116","992151","0.0-71.0-2.0-0.0","0","0","8Mzwz","Scenes","","null","","","null","","","","15","101","103","","","","","","","","","","","","","","","","","","","","","","","","","","","","","","","","","","","","","",""
"","fixation","","html-keyboard-response","117","993179","0.0-72.0-0.0","0","0","8Mzwz","Scenes","","null","","","null","","","","","","","","","","","","","","","","","","","","","","","","","","","","","","","","","","","","","","","","","","","",""
"","deliberation","","html-keyboard-response","118","994202","0.0-72.0-1.0","0","0","8Mzwz","Scenes","","1017","","","68","","","","16","117","122","0","1","69","78","frank-mckenna-OD9EOzfSOh0-unsplash.jpg","jeff-king-bJHWJeiHfHc-unsplash.jpg","2","1","117","122","","","","","","","","","","","","","","","","","","","","","","","","","","","",""
"","choice_confirmation","","html-keyboard-response","119","994722","0.0-72.0-2.0-0.0","0","0","8Mzwz","Scenes","","null","","","null","","","","16","117","122","","","","","","","","","","","","","","","","","","","","","","","","","","","","","","","","","","","","","",""
"","fixation","","html-keyboard-response","120","995738","0.0-73.0-0.0","0","0","8Mzwz","Scenes","","null","","","null","","","","","","","","","","","","","","","","","","","","","","","","","","","","","","","","","","","","","","","","","","","",""
"","deliberation","","html-keyboard-response","121","997103","0.0-73.0-1.0","0","0","8Mzwz","Scenes","","1360","","","68","","","","17","124","136","1","1","76","75","johannes-plenio-sPt5RIjKfpk-unsplash.jpg","nicolas-jehly-LzVB84KkZOE-unsplash.jpg","2","1","124","136","","","","","","","","","","","","","","","","","","","","","","","","","","","",""
"","choice_confirmation","","html-keyboard-response","122","997617","0.0-73.0-2.0-0.0","0","0","8Mzwz","Scenes","","null","","","null","","","","17","124","136","","","","","","","","","","","","","","","","","","","","","","","","","","","","","","","","","","","","","",""
"","explain_trial","","survey-text","123","1028008","0.0-73.0-5.0-0.0","0","0","8Mzwz","Scenes","","30389","{""Q0"":""I liked the trees and the walkway, it is exotic""}","","","","","","17","124","136","","","","","","","","","","","{""Q0"":""I liked the trees and the walkway, it is exotic""}","","","","","","","","","","","","","","","","","","","","","","","","","","",""
"","fixation","","html-keyboard-response","124","1029019","0.0-74.0-0.0","0","0","8Mzwz","Scenes","","null","","","null","","","","","","","","","","","","","","","","","","","","","","","","","","","","","","","","","","","","","","","","","","","",""
"","deliberation","","html-keyboard-response","125","1031159","0.0-74.0-1.0","0","0","8Mzwz","Scenes","","2135","","","75","","","","18","132","100","1","-1","77","74","meng-ji-8BH_M-53CyA-unsplash.jpg","aleksandra-boguslawska-MS7KD9Ti7FQ-unsplash.jpg","2","0","100","132","","","","","","","","","","","","","","","","","","","","","","","","","","","",""
"","choice_confirmation","","html-keyboard-response","126","1031673","0.0-74.0-2.0-0.0","0","0","8Mzwz","Scenes","","null","","","null","","","","18","132","100","","","","","","","","","","","","","","","","","","","","","","","","","","","","","","","","","","","","","",""
"","explain_trial","","survey-text","127","1043735","0.0-74.0-5.0-0.0","0","0","8Mzwz","Scenes","","12058","{""Q0"":""I like the beach ""}","","","","","","18","132","100","","","","","","","","","","","{""Q0"":""I like the beach ""}","","","","","","","","","","","","","","","","","","","","","","","","","","",""
"","fixation","","html-keyboard-response","128","1044738","0.0-75.0-0.0","0","0","8Mzwz","Scenes","","null","","","null","","","","","","","","","","","","","","","","","","","","","","","","","","","","","","","","","","","","","","","","","","","",""
"","deliberation","","html-keyboard-response","129","1047452","0.0-75.0-1.0","0","0","8Mzwz","Scenes","","2708","","","68","","","","19","123","148","0","-1","79","77","joel-jasmin-forestbird-efuwb5eBDrI-unsplash.jpg","tom-gainor-ZqLeQDjY6fY-unsplash.jpg","2","1","123","148","","","","","","","","","","","","","","","","","","","","","","","","","","","",""
"","choice_confirmation","","html-keyboard-response","130","1047972","0.0-75.0-2.0-0.0","0","0","8Mzwz","Scenes","","null","","","null","","","","19","123","148","","","","","","","","","","","","","","","","","","","","","","","","","","","","","","","","","","","","","",""
"","fixation","","html-keyboard-response","131","1048988","0.0-76.0-0.0","0","0","8Mzwz","Scenes","","null","","","null","","","","","","","","","","","","","","","","","","","","","","","","","","","","","","","","","","","","","","","","","","","",""
"","deliberation","","html-keyboard-response","132","1050525","0.0-76.0-1.0","0","0","8Mzwz","Scenes","","1534","","","68","","","","20","145","126","1","-1","73","77","stephen-leonardi-gyIRjKPXupE-unsplash.jpg","jordan-mcqueen-PJCZOWuOxbU-unsplash.jpg","2","1","145","126","","","","","","","","","","","","","","","","","","","","","","","","","","","",""
"","choice_confirmation","","html-keyboard-response","133","1051034","0.0-76.0-2.0-0.0","0","0","8Mzwz","Scenes","","null","","","null","","","","20","145","126","","","","","","","","","","","","","","","","","","","","","","","","","","","","","","","","","","","","","",""
"","explain_trial","","survey-text","134","1069927","0.0-76.0-5.0-0.0","0","0","8Mzwz","Scenes","","18890","{""Q0"":""I like the trees arrangement""}","","","","","","20","145","126","","","","","","","","","","","{""Q0"":""I like the trees arrangement""}","","","","","","","","","","","","","","","","","","","","","","","","","","",""
"","fixation","","html-keyboard-response","135","1070943","0.0-77.0-0.0","0","0","8Mzwz","Scenes","","null","","","null","","","","","","","","","","","","","","","","","","","","","","","","","","","","","","","","","","","","","","","","","","","",""
"","deliberation","","html-keyboard-response","136","1073022","0.0-77.0-1.0","0","0","8Mzwz","Scenes","","2075","","","75","","","","21","121","125","0","-1","75","77","jean-pierre-brungs-qxCqkbF7tUc-unsplash.jpg","john-lee-oMneOBYhJxY-unsplash.jpg","2","0","125","121","","","","","","","","","","","","","","","","","","","","","","","","","","","",""
"","choice_confirmation","","html-keyboard-response","137","1073536","0.0-77.0-2.0-0.0","0","0","8Mzwz","Scenes","","null","","","null","","","","21","121","125","","","","","","","","","","","","","","","","","","","","","","","","","","","","","","","","","","","","","",""
"","fixation","","html-keyboard-response","138","1074550","0.0-78.0-0.0","0","0","8Mzwz","Scenes","","null","","","null","","","","","","","","","","","","","","","","","","","","","","","","","","","","","","","","","","","","","","","","","","","",""
"","deliberation","","html-keyboard-response","139","1075570","0.0-78.0-1.0","0","0","8Mzwz","Scenes","","1018","","","75","","","","22","142","138","1","1","72","75","sergey-pesterev-y-b_FOmJXdg-unsplash.jpg","petr-vysohlid-9fqwGqGLUxc-unsplash.jpg","2","0","138","142","","","","","","","","","","","","","","","","","","","","","","","","","","","",""
"","choice_confirmation","","html-keyboard-response","140","1076076","0.0-78.0-2.0-0.0","0","0","8Mzwz","Scenes","","null","","","null","","","","22","142","138","","","","","","","","","","","","","","","","","","","","","","","","","","","","","","","","","","","","","",""
"","explain_trial","","survey-text","141","1083622","0.0-78.0-5.0-0.0","0","0","8Mzwz","Scenes","","7542","{""Q0"":""I like the sunset""}","","","","","","22","142","138","","","","","","","","","","","{""Q0"":""I like the sunset""}","","","","","","","","","","","","","","","","","","","","","","","","","","",""
"","fixation","","html-keyboard-response","142","1084627","0.0-79.0-0.0","0","0","8Mzwz","Scenes","","null","","","null","","","","","","","","","","","","","","","","","","","","","","","","","","","","","","","","","","","","","","","","","","","",""
"","deliberation","","html-keyboard-response","143","1087250","0.0-79.0-1.0","0","0","8Mzwz","Scenes","","2620","","","75","","","","23","114","141","1","1","79","71","daniel-sessler-z_9VmsxR8hs-unsplash.jpg","sebastian-unrau-v4e3JI7DDHI-unsplash.jpg","2","0","141","114","","","","","","","","","","","","","","","","","","","","","","","","","","","",""
"","choice_confirmation","","html-keyboard-response","144","1087760","0.0-79.0-2.0-0.0","0","0","8Mzwz","Scenes","","null","","","null","","","","23","114","141","","","","","","","","","","","","","","","","","","","","","","","","","","","","","","","","","","","","","",""
"","explain_trial","","survey-text","145","1115637","0.0-79.0-5.0-0.0","0","0","8Mzwz","Scenes","","27873","{""Q0"":""The path is a nice one to walk in the evening""}","","","","","","23","114","141","","","","","","","","","","","{""Q0"":""The path is a nice one to walk in the evening""}","","","","","","","","","","","","","","","","","","","","","","","","","","",""
"","start_critical_deliberation_block","","html-keyboard-response","146","1121229","0.0-79.0-7.0-0.0","0","0","8Mzwz","Scenes","","5590","","","78","","","","","","","","","","","","","","","","","","","","","","","","","","","","","","","","","","","","","","","","","","","",""
"","fixation","","html-keyboard-response","147","1122234","0.0-80.0-0.0","0","0","8Mzwz","Scenes","","null","","","null","","","","","","","","","","","","","","","","","","","","","","","","","","","","","","","","","","","","","","","","","","","",""
"","deliberation","","html-keyboard-response","148","1128726","0.0-80.0-1.0","0","0","8Mzwz","Scenes","","6487","","","75","","","","24","121","125","0","-1","75","77","jean-pierre-brungs-qxCqkbF7tUc-unsplash.jpg","john-lee-oMneOBYhJxY-unsplash.jpg","3","0","125","121","","","","","","","","","","","","","","","","","","","","","","","","","","","",""
"","choice_confirmation","","html-keyboard-response","149","1129236","0.0-80.0-2.0-0.0","0","0","8Mzwz","Scenes","","null","","","null","","","","24","121","125","","","","","","","","","","","","","","","","","","","","","","","","","","","","","","","","","","","","","",""
"","fixation","","html-keyboard-response","150","1130243","0.0-81.0-0.0","0","0","8Mzwz","Scenes","","null","","","null","","","","","","","","","","","","","","","","","","","","","","","","","","","","","","","","","","","","","","","","","","","",""
"","deliberation","","html-keyboard-response","151","1132034","0.0-81.0-1.0","0","0","8Mzwz","Scenes","","1787","","","68","","","","25","124","136","0","1","76","75","johannes-plenio-sPt5RIjKfpk-unsplash.jpg","nicolas-jehly-LzVB84KkZOE-unsplash.jpg","3","1","124","136","","","","","","","","","","","","","","","","","","","","","","","","","","","",""
"","choice_confirmation","","html-keyboard-response","152","1132543","0.0-81.0-2.0-0.0","0","0","8Mzwz","Scenes","","null","","","null","","","","25","124","136","","","","","","","","","","","","","","","","","","","","","","","","","","","","","","","","","","","","","",""
"","fixation","","html-keyboard-response","153","1133550","0.0-82.0-0.0","0","0","8Mzwz","Scenes","","null","","","null","","","","","","","","","","","","","","","","","","","","","","","","","","","","","","","","","","","","","","","","","","","",""
"","deliberation","","html-keyboard-response","154","1137024","0.0-82.0-1.0","0","0","8Mzwz","Scenes","","3470","","","68","","","","26","101","103","0","1","79","78","aniket-deole-T-tOgjWZ0fQ-unsplash.jpg","anton-darius-FBJugtbHsWU-unsplash.jpg","3","1","101","103","","","","","","","","","","","","","","","","","","","","","","","","","","","",""
"","choice_confirmation","","html-keyboard-response","155","1137547","0.0-82.0-2.0-0.0","0","0","8Mzwz","Scenes","","null","","","null","","","","26","101","103","","","","","","","","","","","","","","","","","","","","","","","","","","","","","","","","","","","","","",""
"","fixation","","html-keyboard-response","156","1138557","0.0-83.0-0.0","0","0","8Mzwz","Scenes","","null","","","null","","","","","","","","","","","","","","","","","","","","","","","","","","","","","","","","","","","","","","","","","","","",""
"","deliberation","","html-keyboard-response","157","1140259","0.0-83.0-1.0","0","0","8Mzwz","Scenes","","1699","","","68","","","","27","127","146","0","1","76","77","kace-rodriguez-p3OzJuT_Dks-unsplash.jpg","thomas-morse-cuKKa0vWZSY-unsplash.jpg","3","1","127","146","","","","","","","","","","","","","","","","","","","","","","","","","","","",""
"","choice_confirmation","","html-keyboard-response","158","1140776","0.0-83.0-2.0-0.0","0","0","8Mzwz","Scenes","","null","","","null","","","","27","127","146","","","","","","","","","","","","","","","","","","","","","","","","","","","","","","","","","","","","","",""
"","fixation","","html-keyboard-response","159","1141791","0.0-84.0-0.0","0","0","8Mzwz","Scenes","","null","","","null","","","","","","","","","","","","","","","","","","","","","","","","","","","","","","","","","","","","","","","","","","","",""
"","deliberation","","html-keyboard-response","160","1143257","0.0-84.0-1.0","0","0","8Mzwz","Scenes","","1462","","","75","","","","28","114","141","0","1","79","71","daniel-sessler-z_9VmsxR8hs-unsplash.jpg","sebastian-unrau-v4e3JI7DDHI-unsplash.jpg","3","0","141","114","","","","","","","","","","","","","","","","","","","","","","","","","","","",""
"","choice_confirmation","","html-keyboard-response","161","1143777","0.0-84.0-2.0-0.0","0","0","8Mzwz","Scenes","","null","","","null","","","","28","114","141","","","","","","","","","","","","","","","","","","","","","","","","","","","","","","","","","","","","","",""
"","fixation","","html-keyboard-response","162","1144793","0.0-85.0-0.0","0","0","8Mzwz","Scenes","","null","","","null","","","","","","","","","","","","","","","","","","","","","","","","","","","","","","","","","","","","","","","","","","","",""
"","deliberation","","html-keyboard-response","163","1146952","0.0-85.0-1.0","0","0","8Mzwz","Scenes","","2156","","","68","","","","29","145","126","0","-1","73","77","stephen-leonardi-gyIRjKPXupE-unsplash.jpg","jordan-mcqueen-PJCZOWuOxbU-unsplash.jpg","3","1","145","126","","","","","","","","","","","","","","","","","","","","","","","","","","","",""
"","choice_confirmation","","html-keyboard-response","164","1147459","0.0-85.0-2.0-0.0","0","0","8Mzwz","Scenes","","null","","","null","","","","29","145","126","","","","","","","","","","","","","","","","","","","","","","","","","","","","","","","","","","","","","",""
"","fixation","","html-keyboard-response","165","1148469","0.0-86.0-0.0","0","0","8Mzwz","Scenes","","null","","","null","","","","","","","","","","","","","","","","","","","","","","","","","","","","","","","","","","","","","","","","","","","",""
"","deliberation","","html-keyboard-response","166","1150437","0.0-86.0-1.0","0","0","8Mzwz","Scenes","","1963","","","68","","","","30","128","143","0","-1","77","78","karsten-wurth-jS0zC2PJ17A-unsplash.jpg","sigurdur-fjalar-jonsson-1KxBabIntpE-unsplash.jpg","3","1","128","143","","","","","","","","","","","","","","","","","","","","","","","","","","","",""
"","choice_confirmation","","html-keyboard-response","167","1150948","0.0-86.0-2.0-0.0","0","0","8Mzwz","Scenes","","null","","","null","","","","30","128","143","","","","","","","","","","","","","","","","","","","","","","","","","","","","","","","","","","","","","",""
"","fixation","","html-keyboard-response","168","1151963","0.0-87.0-0.0","0","0","8Mzwz","Scenes","","null","","","null","","","","","","","","","","","","","","","","","","","","","","","","","","","","","","","","","","","","","","","","","","","",""
"","deliberation","","html-keyboard-response","169","1153888","0.0-87.0-1.0","0","0","8Mzwz","Scenes","","1919","","","75","","","","31","142","138","0","1","72","75","sergey-pesterev-y-b_FOmJXdg-unsplash.jpg","petr-vysohlid-9fqwGqGLUxc-unsplash.jpg","3","0","138","142","","","","","","","","","","","","","","","","","","","","","","","","","","","",""
"","choice_confirmation","","html-keyboard-response","170","1154395","0.0-87.0-2.0-0.0","0","0","8Mzwz","Scenes","","null","","","null","","","","31","142","138","","","","","","","","","","","","","","","","","","","","","","","","","","","","","","","","","","","","","",""
"","fixation","","html-keyboard-response","171","1155417","0.0-88.0-0.0","0","0","8Mzwz","Scenes","","null","","","null","","","","","","","","","","","","","","","","","","","","","","","","","","","","","","","","","","","","","","","","","","","",""
"","deliberation","","html-keyboard-response","172","1157744","0.0-88.0-1.0","0","0","8Mzwz","Scenes","","2324","","","75","","","","32","132","100","0","-1","77","74","meng-ji-8BH_M-53CyA-unsplash.jpg","aleksandra-boguslawska-MS7KD9Ti7FQ-unsplash.jpg","3","0","100","132","","","","","","","","","","","","","","","","","","","","","","","","","","","",""
"","choice_confirmation","","html-keyboard-response","173","1158265","0.0-88.0-2.0-0.0","0","0","8Mzwz","Scenes","","null","","","null","","","","32","132","100","","","","","","","","","","","","","","","","","","","","","","","","","","","","","","","","","","","","","",""
"","fixation","","html-keyboard-response","174","1159276","0.0-89.0-0.0","0","0","8Mzwz","Scenes","","null","","","null","","","","","","","","","","","","","","","","","","","","","","","","","","","","","","","","","","","","","","","","","","","",""
"","deliberation","","html-keyboard-response","175","1160722","0.0-89.0-1.0","0","0","8Mzwz","Scenes","","1443","","","75","","","","33","135","111","0","-1","78","73","mohammad-alizade-4wzRuAb-KWs-unsplash.jpg","claudio-testa-U3F2o6vz3bs-unsplash.jpg","3","0","111","135","","","","","","","","","","","","","","","","","","","","","","","","","","","",""
"","choice_confirmation","","html-keyboard-response","176","1161226","0.0-89.0-2.0-0.0","0","0","8Mzwz","Scenes","","null","","","null","","","","33","135","111","","","","","","","","","","","","","","","","","","","","","","","","","","","","","","","","","","","","","",""
"","fixation","","html-keyboard-response","177","1162236","0.0-90.0-0.0","0","0","8Mzwz","Scenes","","null","","","null","","","","","","","","","","","","","","","","","","","","","","","","","","","","","","","","","","","","","","","","","","","",""
"","deliberation","","html-keyboard-response","178","1163741","0.0-90.0-1.0","0","0","8Mzwz","Scenes","","1501","","","68","","","","34","117","122","0","1","69","78","frank-mckenna-OD9EOzfSOh0-unsplash.jpg","jeff-king-bJHWJeiHfHc-unsplash.jpg","3","1","117","122","","","","","","","","","","","","","","","","","","","","","","","","","","","",""
"","choice_confirmation","","html-keyboard-response","179","1164249","0.0-90.0-2.0-0.0","0","0","8Mzwz","Scenes","","null","","","null","","","","34","117","122","","","","","","","","","","","","","","","","","","","","","","","","","","","","","","","","","","","","","",""
"","fixation","","html-keyboard-response","180","1165261","0.0-91.0-0.0","0","0","8Mzwz","Scenes","","null","","","null","","","","","","","","","","","","","","","","","","","","","","","","","","","","","","","","","","","","","","","","","","","",""
"","deliberation","","html-keyboard-response","181","1166487","0.0-91.0-1.0","0","0","8Mzwz","Scenes","","1223","","","68","","","","35","123","148","0","-1","79","77","joel-jasmin-forestbird-efuwb5eBDrI-unsplash.jpg","tom-gainor-ZqLeQDjY6fY-unsplash.jpg","3","1","123","148","","","","","","","","","","","","","","","","","","","","","","","","","","","",""
"","choice_confirmation","","html-keyboard-response","182","1167020","0.0-91.0-2.0-0.0","0","0","8Mzwz","Scenes","","null","","","null","","","","35","123","148","","","","","","","","","","","","","","","","","","","","","","","","","","","","","","","","","","","","","",""
"","reward_learning_instructions","","instructions","183","1239233","0.0-92.0-0.0","0","0","8Mzwz","Scenes","[{""page_index"":0,""viewing_time"":43745},{""page_index"":1,""viewing_time"":24391},{""page_index"":2,""viewing_time"":4072}]","72208","","","","","","","","","","","","","","","","","","","","","","","","","","","","","","","","","","","","","","","","","","","","","","",""
"","reward_comprehension_check","","survey-multi-choice","184","1346078","0.0-92.0-1.0","0","0","8Mzwz","Scenes","","106840","{""Q0"":""True"",""Q1"":""True"",""Q2"":""Press the space bar to see its outcome"",""Q3"":""Press the relevant key while the outcome is presented""}","0","","","","","","","","","","","","","","","","","","","","","","","","","","","","","","","","","","","","","","","","","","","","",""
"","start_phase","","html-keyboard-response","185","1348339","0.0-93.0","0","0","8Mzwz","Scenes","","2257","","","78","","","","","","","","","","","","","","","","","","","","","","","","","","","","","","","","","","","","","","","","","","","",""
"","fixation","","html-keyboard-response","186","1349358","0.0-94.0","0","0","8Mzwz","Scenes","","null","","","null","","","","","","","","","","","","","","","","","","","","","","","","","","","","","","","","","","","","","","","","","","","",""
"","see_reward","","html-keyboard-response","187","1349877","0.0-95.0","0","0","8Mzwz","Scenes","","514","","","32","","123","","0","","","","-1","","","","","1","","","","","0","514","","","","","","","","","","","","","","","","","","","","","","","","",""
"","reward_outcome","","html-keyboard-response","188","1351891","0.0-96.0","0","0","8Mzwz","Scenes","","790","","","40","","123","","0","","","","","","","","","","","","","","","","-1","790","","","","","","","","","","","","","","","","","","","","","","",""
"","fixation","","html-keyboard-response","189","1352903","0.0-99.0","0","0","8Mzwz","Scenes","","null","","","null","","","","","","","","","","","","","","","","","","","","","","","","","","","","","","","","","","","","","","","","","","","",""
"","see_reward","","html-keyboard-response","190","1353427","0.0-100.0","0","0","8Mzwz","Scenes","","521","","","32","","145","","1","","","","-1","","","","","1","","","","","0","521","","","","","","","","","","","","","","","","","","","","","","","","",""
"","reward_outcome","","html-keyboard-response","191","1355448","0.0-101.0","0","0","8Mzwz","Scenes","","624","","","40","","145","","1","","","","","","","","","","","","","","","","-1","624","","","","","","","","","","","","","","","","","","","","","","",""
"","fixation","","html-keyboard-response","192","1356463","0.0-104.0","0","0","8Mzwz","Scenes","","null","","","null","","","","","","","","","","","","","","","","","","","","","","","","","","","","","","","","","","","","","","","","","","","",""
"","see_reward","","html-keyboard-response","193","1356863","0.0-105.0","0","0","8Mzwz","Scenes","","396","","","32","","100","","2","","","","-1","","","","","1","","","","","0","396","","","","","","","","","","","","","","","","","","","","","","","","",""
"","reward_outcome","","html-keyboard-response","194","1358881","0.0-106.0","0","0","8Mzwz","Scenes","","578","","","40","","100","","2","","","","","","","","","","","","","","","","-1","578","","","","","","","","","","","","","","","","","","","","","","",""
"","fixation","","html-keyboard-response","195","1359895","0.0-109.0","0","0","8Mzwz","Scenes","","null","","","null","","","","","","","","","","","","","","","","","","","","","","","","","","","","","","","","","","","","","","","","","","","",""
"","see_reward","","html-keyboard-response","196","1360207","0.0-110.0","0","0","8Mzwz","Scenes","","305","","","32","","111","","3","","","","-1","","","","","1","","","","","0","305","","","","","","","","","","","","","","","","","","","","","","","","",""
"","reward_outcome","","html-keyboard-response","197","1362230","0.0-111.0","0","0","8Mzwz","Scenes","","606","","","40","","111","","3","","","","","","","","","","","","","","","","-1","606","","","","","","","","","","","","","","","","","","","","","","",""
"","fixation","","html-keyboard-response","198","1363242","0.0-114.0","0","0","8Mzwz","Scenes","","null","","","null","","","","","","","","","","","","","","","","","","","","","","","","","","","","","","","","","","","","","","","","","","","",""
"","see_reward","","html-keyboard-response","199","1363583","0.0-115.0","0","0","8Mzwz","Scenes","","338","","","32","","117","","4","","","","1","","","","","1","","","","","147","338","","","","","","","","","","","","","","","","","","","","","","","","",""
"","reward_outcome","","html-keyboard-response","200","1365606","0.0-116.0","0","0","8Mzwz","Scenes","","773","","","38","","117","","4","","","","","","","","","","","","","","","","1","773","","","","","","","","","","","","","","","","","","","","","","",""
"","fixation","","html-keyboard-response","201","1366617","0.0-119.0","0","0","8Mzwz","Scenes","","null","","","null","","","","","","","","","","","","","","","","","","","","","","","","","","","","","","","","","","","","","","","","","","","",""
"","see_reward","","html-keyboard-response","202","1367225","0.0-120.0","0","0","8Mzwz","Scenes","","604","","","32","","128","","5","","","","-1","","","","","1","","","","","0","604","","","","","","","","","","","","","","","","","","","","","","","","",""
"","reward_outcome","","html-keyboard-response","203","1369239","0.0-121.0","0","0","8Mzwz","Scenes","","611","","","40","","128","","5","","","","","","","","","","","","","","","","-1","611","","","","","","","","","","","","","","","","","","","","","","",""
"","fixation","","html-keyboard-response","204","1370251","0.0-124.0","0","0","8Mzwz","Scenes","","null","","","null","","","","","","","","","","","","","","","","","","","","","","","","","","","","","","","","","","","","","","","","","","","",""
"","see_reward","","html-keyboard-response","205","1370704","0.0-125.0","0","0","8Mzwz","Scenes","","449","","","32","","141","","6","","","","1","","","","","1","","","","","155","449","","","","","","","","","","","","","","","","","","","","","","","","",""
"","reward_outcome","","html-keyboard-response","206","1372720","0.0-126.0","0","0","8Mzwz","Scenes","","592","","","38","","141","","6","","","","","","","","","","","","","","","","1","592","","","","","","","","","","","","","","","","","","","","","","",""
"","fixation","","html-keyboard-response","207","1373732","0.0-129.0","0","0","8Mzwz","Scenes","","null","","","null","","","","","","","","","","","","","","","","","","","","","","","","","","","","","","","","","","","","","","","","","","","",""
"","see_reward","","html-keyboard-response","208","1374167","0.0-130.0","0","0","8Mzwz","Scenes","","432","","","32","","124","","7","","","","1","","","","","1","","","","","150","432","","","","","","","","","","","","","","","","","","","","","","","","",""
"","reward_outcome","","html-keyboard-response","209","1376183","0.0-131.0","0","0","8Mzwz","Scenes","","671","","","38","","124","","7","","","","","","","","","","","","","","","","1","671","","","","","","","","","","","","","","","","","","","","","","",""
"","fixation","","html-keyboard-response","210","1377214","0.0-134.0","0","0","8Mzwz","Scenes","","null","","","null","","","","","","","","","","","","","","","","","","","","","","","","","","","","","","","","","","","","","","","","","","","",""
"","see_reward","","html-keyboard-response","211","1378250","0.0-135.0","0","0","8Mzwz","Scenes","","1033","","","32","","138","","8","","","","1","","","","","1","","","","","141","1033","","","","","","","","","","","","","","","","","","","","","","","","",""
"","reward_outcome","","html-keyboard-response","212","1380259","0.0-136.0","0","0","8Mzwz","Scenes","","479","","","38","","138","","8","","","","","","","","","","","","","","","","1","479","","","","","","","","","","","","","","","","","","","","","","",""
"","fixation","","html-keyboard-response","213","1381271","0.0-139.0","0","0","8Mzwz","Scenes","","null","","","null","","","","","","","","","","","","","","","","","","","","","","","","","","","","","","","","","","","","","","","","","","","",""
"","see_reward","","html-keyboard-response","214","1381862","0.0-140.0","0","0","8Mzwz","Scenes","","588","","","32","","145","","9","","","","-1","","","","","1","","","","","0","588","","","","","","","","","","","","","","","","","","","","","","","","",""
"","reward_outcome","","html-keyboard-response","215","1383879","0.0-141.0","0","0","8Mzwz","Scenes","","567","","","40","","145","","9","","","","","","","","","","","","","","","","-1","567","","","","","","","","","","","","","","","","","","","","","","",""
"","fixation","","html-keyboard-response","216","1384904","0.0-144.0","0","0","8Mzwz","Scenes","","null","","","null","","","","","","","","","","","","","","","","","","","","","","","","","","","","","","","","","","","","","","","","","","","",""
"","see_reward","","html-keyboard-response","217","1385584","0.0-145.0","0","0","8Mzwz","Scenes","","676","","","32","","138","","10","","","","1","","","","","1","","","","","141","676","","","","","","","","","","","","","","","","","","","","","","","","",""
"","reward_outcome","","html-keyboard-response","218","1387596","0.0-146.0","0","0","8Mzwz","Scenes","","583","","","38","","138","","10","","","","","","","","","","","","","","","","1","583","","","","","","","","","","","","","","","","","","","","","","",""
"","fixation","","html-keyboard-response","219","1388609","0.0-149.0","0","0","8Mzwz","Scenes","","null","","","null","","","","","","","","","","","","","","","","","","","","","","","","","","","","","","","","","","","","","","","","","","","",""
"","see_reward","","html-keyboard-response","220","1389224","0.0-150.0","0","0","8Mzwz","Scenes","","612","","","32","","141","","11","","","","1","","","","","1","","","","","155","612","","","","","","","","","","","","","","","","","","","","","","","","",""
"","reward_outcome","","html-keyboard-response","221","1391240","0.0-151.0","0","0","8Mzwz","Scenes","","574","","","38","","141","","11","","","","","","","","","","","","","","","","1","574","","","","","","","","","","","","","","","","","","","","","","",""
"","fixation","","html-keyboard-response","222","1392252","0.0-154.0","0","0","8Mzwz","Scenes","","null","","","null","","","","","","","","","","","","","","","","","","","","","","","","","","","","","","","","","","","","","","","","","","","",""
"","see_reward","","html-keyboard-response","223","1392744","0.0-155.0","0","0","8Mzwz","Scenes","","488","","","32","","101","","12","","","","1","","","","","1","","","","","158","488","","","","","","","","","","","","","","","","","","","","","","","","",""
"","reward_outcome","","html-keyboard-response","224","1394762","0.0-156.0","0","0","8Mzwz","Scenes","","521","","","38","","101","","12","","","","","","","","","","","","","","","","1","521","","","","","","","","","","","","","","","","","","","","","","",""
"","fixation","","html-keyboard-response","225","1395777","0.0-159.0","0","0","8Mzwz","Scenes","","null","","","null","","","","","","","","","","","","","","","","","","","","","","","","","","","","","","","","","","","","","","","","","","","",""
"","see_reward","","html-keyboard-response","226","1396799","0.0-160.0","0","0","8Mzwz","Scenes","","1019","","","32","","100","","13","","","","-1","","","","","1","","","","","0","1019","","","","","","","","","","","","","","","","","","","","","","","","",""
"","reward_outcome","","html-keyboard-response","227","1398823","0.0-161.0","0","0","8Mzwz","Scenes","","613","","","38","","100","","13","","","","","","","","","","","","","","","","1","613","","","","","","","","","","","","","","","","","","","","","","",""
"","fixation","","html-keyboard-response","228","1399838","0.0-164.0","0","0","8Mzwz","Scenes","","null","","","null","","","","","","","","","","","","","","","","","","","","","","","","","","","","","","","","","","","","","","","","","","","",""
"","see_reward","","html-keyboard-response","229","1400512","0.0-165.0","0","0","8Mzwz","Scenes","","667","","","32","","124","","14","","","","1","","","","","1","","","","","150","667","","","","","","","","","","","","","","","","","","","","","","","","",""
"","reward_outcome","","html-keyboard-response","230","1402524","0.0-166.0","0","0","8Mzwz","Scenes","","679","","","40","","124","","14","","","","","","","","","","","","","","","","-1","679","","","","","","","","","","","","","","","","","","","","","","",""
"","fixation","","html-keyboard-response","231","1403541","0.0-169.0","0","0","8Mzwz","Scenes","","null","","","null","","","","","","","","","","","","","","","","","","","","","","","","","","","","","","","","","","","","","","","","","","","",""
"","see_reward","","html-keyboard-response","232","1404208","0.0-170.0","0","0","8Mzwz","Scenes","","664","","","32","","123","","15","","","","-1","","","","","1","","","","","0","664","","","","","","","","","","","","","","","","","","","","","","","","",""
"","reward_outcome","","html-keyboard-response","233","1406234","0.0-171.0","0","0","8Mzwz","Scenes","","582","","","40","","123","","15","","","","","","","","","","","","","","","","-1","582","","","","","","","","","","","","","","","","","","","","","","",""
"","fixation","","html-keyboard-response","234","1407248","0.0-174.0","0","0","8Mzwz","Scenes","","null","","","null","","","","","","","","","","","","","","","","","","","","","","","","","","","","","","","","","","","","","","","","","","","",""
"","see_reward","","html-keyboard-response","235","1408103","0.0-175.0","0","0","8Mzwz","Scenes","","851","","","32","","101","","16","","","","1","","","","","1","","","","","158","851","","","","","","","","","","","","","","","","","","","","","","","","",""
"","reward_outcome","","html-keyboard-response","236","1410127","0.0-176.0","0","0","8Mzwz","Scenes","","674","","","38","","101","","16","","","","","","","","","","","","","","","","1","674","","","","","","","","","","","","","","","","","","","","","","",""
"","fixation","","html-keyboard-response","237","1411137","0.0-179.0","0","0","8Mzwz","Scenes","","null","","","null","","","","","","","","","","","","","","","","","","","","","","","","","","","","","","","","","","","","","","","","","","","",""
"","see_reward","","html-keyboard-response","238","1411697","0.0-180.0","0","0","8Mzwz","Scenes","","556","","","32","","125","","17","","","","-1","","","","","1","","","","","0","556","","","","","","","","","","","","","","","","","","","","","","","","",""
"","reward_outcome","","html-keyboard-response","239","1413719","0.0-181.0","0","0","8Mzwz","Scenes","","550","","","40","","125","","17","","","","","","","","","","","","","","","","-1","550","","","","","","","","","","","","","","","","","","","","","","",""
"","fixation","","html-keyboard-response","240","1414731","0.0-184.0","0","0","8Mzwz","Scenes","","null","","","null","","","","","","","","","","","","","","","","","","","","","","","","","","","","","","","","","","","","","","","","","","","",""
"","see_reward","","html-keyboard-response","241","1415192","0.0-185.0","0","0","8Mzwz","Scenes","","458","","","32","","127","","18","","","","1","","","","","1","","","","","155","458","","","","","","","","","","","","","","","","","","","","","","","","",""
"","reward_outcome","","html-keyboard-response","242","1417208","0.0-186.0","0","0","8Mzwz","Scenes","","695","","","38","","127","","18","","","","","","","","","","","","","","","","1","695","","","","","","","","","","","","","","","","","","","","","","",""
"","fixation","","html-keyboard-response","243","1418225","0.0-189.0","0","0","8Mzwz","Scenes","","null","","","null","","","","","","","","","","","","","","","","","","","","","","","","","","","","","","","","","","","","","","","","","","","",""
"","see_reward","","html-keyboard-response","244","1418712","0.0-190.0","0","0","8Mzwz","Scenes","","484","","","32","","127","","19","","","","1","","","","","1","","","","","155","484","","","","","","","","","","","","","","","","","","","","","","","","",""
"","reward_outcome","","html-keyboard-response","245","1420736","0.0-191.0","0","0","8Mzwz","Scenes","","605","","","38","","127","","19","","","","","","","","","","","","","","","","1","605","","","","","","","","","","","","","","","","","","","","","","",""
"","fixation","","html-keyboard-response","246","1421745","0.0-194.0","0","0","8Mzwz","Scenes","","null","","","null","","","","","","","","","","","","","","","","","","","","","","","","","","","","","","","","","","","","","","","","","","","",""
"","see_reward","","html-keyboard-response","247","1422238","0.0-195.0","0","0","8Mzwz","Scenes","","490","","","32","","117","","20","","","","1","","","","","1","","","","","147","490","","","","","","","","","","","","","","","","","","","","","","","","",""
"","reward_outcome","","html-keyboard-response","248","1424243","0.0-196.0","0","0","8Mzwz","Scenes","","570","","","38","","117","","20","","","","","","","","","","","","","","","","1","570","","","","","","","","","","","","","","","","","","","","","","",""
"","fixation","","html-keyboard-response","249","1425256","0.0-199.0","0","0","8Mzwz","Scenes","","null","","","null","","","","","","","","","","","","","","","","","","","","","","","","","","","","","","","","","","","","","","","","","","","",""
"","see_reward","","html-keyboard-response","250","1426002","0.0-200.0","0","0","8Mzwz","Scenes","","743","","","32","","111","","21","","","","-1","","","","","1","","","","","0","743","","","","","","","","","","","","","","","","","","","","","","","","",""
"","reward_outcome","","html-keyboard-response","251","1428016","0.0-201.0","0","0","8Mzwz","Scenes","","581","","","40","","111","","21","","","","","","","","","","","","","","","","-1","581","","","","","","","","","","","","","","","","","","","","","","",""
"","fixation","","html-keyboard-response","252","1429028","0.0-204.0","0","0","8Mzwz","Scenes","","null","","","null","","","","","","","","","","","","","","","","","","","","","","","","","","","","","","","","","","","","","","","","","","","",""
"","see_reward","","html-keyboard-response","253","1429751","0.0-205.0","0","0","8Mzwz","Scenes","","718","","","32","","125","","22","","","","-1","","","","","1","","","","","0","718","","","","","","","","","","","","","","","","","","","","","","","","",""
"","reward_outcome","","html-keyboard-response","254","1431777","0.0-206.0","0","0","8Mzwz","Scenes","","502","","","40","","125","","22","","","","","","","","","","","","","","","","-1","502","","","","","","","","","","","","","","","","","","","","","","",""
"","fixation","","html-keyboard-response","255","1432802","0.0-209.0","0","0","8Mzwz","Scenes","","null","","","null","","","","","","","","","","","","","","","","","","","","","","","","","","","","","","","","","","","","","","","","","","","",""
"","see_reward","","html-keyboard-response","256","1433445","0.0-210.0","0","0","8Mzwz","Scenes","","638","","","32","","128","","23","","","","-1","","","","","1","","","","","0","638","","","","","","","","","","","","","","","","","","","","","","","","",""
"","reward_outcome","","html-keyboard-response","257","1435465","0.0-211.0","0","0","8Mzwz","Scenes","","519","","","40","","128","","23","","","","","","","","","","","","","","","","-1","519","","","","","","","","","","","","","","","","","","","","","","",""
"","block_over","","html-keyboard-response","258","1524582","0.0-213.0-0.0","0","0","8Mzwz","Scenes","","89115","","","78","","","","","","","","","","","","","","","","","","","","","","","","","","","","","","","","","","","","","","","","","","","",""
"","fixation","","html-keyboard-response","259","1525599","0.0-214.0","0","0","8Mzwz","Scenes","","null","","","null","","","","","","","","","","","","","","","","","","","","","","","","","","","","","","","","","","","","","","","","","","","",""
"","see_reward","","html-keyboard-response","260","1526265","0.0-215.0","0","0","8Mzwz","Scenes","","664","","","32","","100","","24","","","","-1","","","","","2","","","","","0","664","","","","","","","","","","","","","","","","","","","","","","","","",""
"","reward_outcome","","html-keyboard-response","261","1528281","0.0-216.0","0","0","8Mzwz","Scenes","","745","","","40","","100","","24","","","","","","","","","","","","","","","","-1","745","","","","","","","","","","","","","","","","","","","","","","",""
"","fixation","","html-keyboard-response","262","1529295","0.0-219.0","0","0","8Mzwz","Scenes","","null","","","null","","","","","","","","","","","","","","","","","","","","","","","","","","","","","","","","","","","","","","","","","","","",""
"","see_reward","","html-keyboard-response","263","1529697","0.0-220.0","0","0","8Mzwz","Scenes","","398","","","32","","128","","25","","","","-1","","","","","2","","","","","0","398","","","","","","","","","","","","","","","","","","","","","","","","",""
"","reward_outcome","","html-keyboard-response","264","1531723","0.0-221.0","0","0","8Mzwz","Scenes","","532","","","40","","128","","25","","","","","","","","","","","","","","","","-1","532","","","","","","","","","","","","","","","","","","","","","","",""
"","fixation","","html-keyboard-response","265","1532735","0.0-224.0","0","0","8Mzwz","Scenes","","null","","","null","","","","","","","","","","","","","","","","","","","","","","","","","","","","","","","","","","","","","","","","","","","",""
"","see_reward","","html-keyboard-response","266","1533138","0.0-225.0","0","0","8Mzwz","Scenes","","398","","","32","","125","","26","","","","-1","","","","","2","","","","","0","398","","","","","","","","","","","","","","","","","","","","","","","","",""
"","reward_outcome","","html-keyboard-response","267","1535161","0.0-226.0","0","0","8Mzwz","Scenes","","422","","","40","","125","","26","","","","","","","","","","","","","","","","-1","422","","","","","","","","","","","","","","","","","","","","","","",""
"","fixation","","html-keyboard-response","268","1536173","0.0-229.0","0","0","8Mzwz","Scenes","","null","","","null","","","","","","","","","","","","","","","","","","","","","","","","","","","","","","","","","","","","","","","","","","","",""
"","see_reward","","html-keyboard-response","269","1536787","0.0-230.0","0","0","8Mzwz","Scenes","","610","","","32","","145","","27","","","","-1","","","","","2","","","","","0","610","","","","","","","","","","","","","","","","","","","","","","","","",""
"","reward_outcome","","html-keyboard-response","270","1538802","0.0-231.0","0","0","8Mzwz","Scenes","","660","","","40","","145","","27","","","","","","","","","","","","","","","","-1","660","","","","","","","","","","","","","","","","","","","","","","",""
"","fixation","","html-keyboard-response","271","1539816","0.0-234.0","0","0","8Mzwz","Scenes","","null","","","null","","","","","","","","","","","","","","","","","","","","","","","","","","","","","","","","","","","","","","","","","","","",""
"","see_reward","","html-keyboard-response","272","1540202","0.0-235.0","0","0","8Mzwz","Scenes","","381","","","32","","127","","28","","","","1","","","","","2","","","","","155","381","","","","","","","","","","","","","","","","","","","","","","","","",""
"","reward_outcome","","html-keyboard-response","273","1542211","0.0-236.0","0","0","8Mzwz","Scenes","","485","","","38","","127","","28","","","","","","","","","","","","","","","","1","485","","","","","","","","","","","","","","","","","","","","","","",""
"","fixation","","html-keyboard-response","274","1543227","0.0-239.0","0","0","8Mzwz","Scenes","","null","","","null","","","","","","","","","","","","","","","","","","","","","","","","","","","","","","","","","","","","","","","","","","","",""
"","see_reward","","html-keyboard-response","275","1543573","0.0-240.0","0","0","8Mzwz","Scenes","","344","","","32","","124","","29","","","","1","","","","","2","","","","","150","344","","","","","","","","","","","","","","","","","","","","","","","","",""
"","reward_outcome","","html-keyboard-response","276","1545592","0.0-241.0","0","0","8Mzwz","Scenes","","517","","","38","","124","","29","","","","","","","","","","","","","","","","1","517","","","","","","","","","","","","","","","","","","","","","","",""
"","fixation","","html-keyboard-response","277","1546605","0.0-244.0","0","0","8Mzwz","Scenes","","null","","","null","","","","","","","","","","","","","","","","","","","","","","","","","","","","","","","","","","","","","","","","","","","",""
"","see_reward","","html-keyboard-response","278","1546999","0.0-245.0","0","0","8Mzwz","Scenes","","390","","","32","","117","","30","","","","1","","","","","2","","","","","147","390","","","","","","","","","","","","","","","","","","","","","","","","",""
"","reward_outcome","","html-keyboard-response","279","1549024","0.0-246.0","0","0","8Mzwz","Scenes","","520","","","38","","117","","30","","","","","","","","","","","","","","","","1","520","","","","","","","","","","","","","","","","","","","","","","",""
"","fixation","","html-keyboard-response","280","1550049","0.0-249.0","0","0","8Mzwz","Scenes","","null","","","null","","","","","","","","","","","","","","","","","","","","","","","","","","","","","","","","","","","","","","","","","","","",""
"","see_reward","","html-keyboard-response","281","1550495","0.0-250.0","0","0","8Mzwz","Scenes","","441","","","32","","125","","31","","","","-1","","","","","2","","","","","0","441","","","","","","","","","","","","","","","","","","","","","","","","",""
"","reward_outcome","","html-keyboard-response","282","1552518","0.0-251.0","0","0","8Mzwz","Scenes","","732","","","40","","125","","31","","","","","","","","","","","","","","","","-1","732","","","","","","","","","","","","","","","","","","","","","","",""
"","fixation","","html-keyboard-response","283","1553532","0.0-254.0","0","0","8Mzwz","Scenes","","null","","","null","","","","","","","","","","","","","","","","","","","","","","","","","","","","","","","","","","","","","","","","","","","",""
"","see_reward","","html-keyboard-response","284","1553984","0.0-255.0","0","0","8Mzwz","Scenes","","448","","","32","","128","","32","","","","-1","","","","","2","","","","","0","448","","","","","","","","","","","","","","","","","","","","","","","","",""
"","reward_outcome","","html-keyboard-response","285","1555994","0.0-256.0","0","0","8Mzwz","Scenes","","681","","","40","","128","","32","","","","","","","","","","","","","","","","-1","681","","","","","","","","","","","","","","","","","","","","","","",""
"","fixation","","html-keyboard-response","286","1557008","0.0-259.0","0","0","8Mzwz","Scenes","","null","","","null","","","","","","","","","","","","","","","","","","","","","","","","","","","","","","","","","","","","","","","","","","","",""
"","see_reward","","html-keyboard-response","287","1558183","0.0-260.0","0","0","8Mzwz","Scenes","","1172","","","32","","100","","33","","","","-1","","","","","2","","","","","0","1172","","","","","","","","","","","","","","","","","","","","","","","","",""
"","reward_outcome","","html-keyboard-response","288","1560202","0.0-261.0","0","0","8Mzwz","Scenes","","696","","","40","","100","","33","","","","","","","","","","","","","","","","-1","696","","","","","","","","","","","","","","","","","","","","","","",""
"","fixation","","html-keyboard-response","289","1561215","0.0-264.0","0","0","8Mzwz","Scenes","","null","","","null","","","","","","","","","","","","","","","","","","","","","","","","","","","","","","","","","","","","","","","","","","","",""
"","see_reward","","html-keyboard-response","290","1561847","0.0-265.0","0","0","8Mzwz","Scenes","","627","","","32","","111","","34","","","","-1","","","","","2","","","","","0","627","","","","","","","","","","","","","","","","","","","","","","","","",""
"","reward_outcome","","html-keyboard-response","291","1563871","0.0-266.0","0","0","8Mzwz","Scenes","","808","","","40","","111","","34","","","","","","","","","","","","","","","","-1","808","","","","","","","","","","","","","","","","","","","","","","",""
"","fixation","","html-keyboard-response","292","1564896","0.0-269.0","0","0","8Mzwz","Scenes","","null","","","null","","","","","","","","","","","","","","","","","","","","","","","","","","","","","","","","","","","","","","","","","","","",""
"","see_reward","","html-keyboard-response","293","1566202","0.0-270.0","0","0","8Mzwz","Scenes","","1303","","","32","","138","","35","","","","1","","","","","2","","","","","141","1303","","","","","","","","","","","","","","","","","","","","","","","","",""
"","reward_outcome","","html-keyboard-response","294","1568215","0.0-271.0","0","0","8Mzwz","Scenes","","548","","","38","","138","","35","","","","","","","","","","","","","","","","1","548","","","","","","","","","","","","","","","","","","","","","","",""
"","fixation","","html-keyboard-response","295","1569222","0.0-274.0","0","0","8Mzwz","Scenes","","null","","","null","","","","","","","","","","","","","","","","","","","","","","","","","","","","","","","","","","","","","","","","","","","",""
"","see_reward","","html-keyboard-response","296","1570098","0.0-275.0","0","0","8Mzwz","Scenes","","871","","","32","","145","","36","","","","-1","","","","","2","","","","","0","871","","","","","","","","","","","","","","","","","","","","","","","","",""
"","reward_outcome","","html-keyboard-response","297","1572113","0.0-276.0","0","0","8Mzwz","Scenes","","695","","","40","","145","","36","","","","","","","","","","","","","","","","-1","695","","","","","","","","","","","","","","","","","","","","","","",""
"","fixation","","html-keyboard-response","298","1573126","0.0-279.0","0","0","8Mzwz","Scenes","","null","","","null","","","","","","","","","","","","","","","","","","","","","","","","","","","","","","","","","","","","","","","","","","","",""
"","see_reward","","html-keyboard-response","299","1573849","0.0-280.0","0","0","8Mzwz","Scenes","","719","","","32","","127","","37","","","","1","","","","","2","","","","","155","719","","","","","","","","","","","","","","","","","","","","","","","","",""
"","reward_outcome","","html-keyboard-response","300","1575870","0.0-281.0","0","0","8Mzwz","Scenes","","679","","","38","","127","","37","","","","","","","","","","","","","","","","1","679","","","","","","","","","","","","","","","","","","","","","","",""
"","fixation","","html-keyboard-response","301","1576883","0.0-284.0","0","0","8Mzwz","Scenes","","null","","","null","","","","","","","","","","","","","","","","","","","","","","","","","","","","","","","","","","","","","","","","","","","",""
"","see_reward","","html-keyboard-response","302","1578436","0.0-285.0","0","0","8Mzwz","Scenes","","1549","","","32","","117","","38","","","","1","","","","","2","","","","","147","1549","","","","","","","","","","","","","","","","","","","","","","","","",""
"","reward_outcome","","html-keyboard-response","303","1580457","0.0-286.0","0","0","8Mzwz","Scenes","","1178","","","38","","117","","38","","","","","","","","","","","","","","","","1","1178","","","","","","","","","","","","","","","","","","","","","","",""
"","fixation","","html-keyboard-response","304","1581474","0.0-289.0","0","0","8Mzwz","Scenes","","null","","","null","","","","","","","","","","","","","","","","","","","","","","","","","","","","","","","","","","","","","","","","","","","",""
"","see_reward","","html-keyboard-response","305","1582239","0.0-290.0","0","0","8Mzwz","Scenes","","760","","","32","","123","","39","","","","-1","","","","","2","","","","","0","760","","","","","","","","","","","","","","","","","","","","","","","","",""
"","reward_outcome","","html-keyboard-response","306","1584259","0.0-291.0","0","0","8Mzwz","Scenes","","677","","","40","","123","","39","","","","","","","","","","","","","","","","-1","677","","","","","","","","","","","","","","","","","","","","","","",""
"","fixation","","html-keyboard-response","307","1585279","0.0-294.0","0","0","8Mzwz","Scenes","","null","","","null","","","","","","","","","","","","","","","","","","","","","","","","","","","","","","","","","","","","","","","","","","","",""
"","see_reward","","html-keyboard-response","308","1586178","0.0-295.0","0","0","8Mzwz","Scenes","","895","","","32","","141","","40","","","","1","","","","","2","","","","","155","895","","","","","","","","","","","","","","","","","","","","","","","","",""
"","reward_outcome","","html-keyboard-response","309","1588199","0.0-296.0","0","0","8Mzwz","Scenes","","553","","","38","","141","","40","","","","","","","","","","","","","","","","1","553","","","","","","","","","","","","","","","","","","","","","","",""
"","fixation","","html-keyboard-response","310","1589236","0.0-299.0","0","0","8Mzwz","Scenes","","null","","","null","","","","","","","","","","","","","","","","","","","","","","","","","","","","","","","","","","","","","","","","","","","",""
"","see_reward","","html-keyboard-response","311","1589630","0.0-300.0","0","0","8Mzwz","Scenes","","391","","","32","","124","","41","","","","1","","","","","2","","","","","150","391","","","","","","","","","","","","","","","","","","","","","","","","",""
"","reward_outcome","","html-keyboard-response","312","1591643","0.0-301.0","0","0","8Mzwz","Scenes","","720","","","38","","124","","41","","","","","","","","","","","","","","","","1","720","","","","","","","","","","","","","","","","","","","","","","",""
"","fixation","","html-keyboard-response","313","1592658","0.0-304.0","0","0","8Mzwz","Scenes","","null","","","null","","","","","","","","","","","","","","","","","","","","","","","","","","","","","","","","","","","","","","","","","","","",""
"","see_reward","","html-keyboard-response","314","1594034","0.0-305.0","0","0","8Mzwz","Scenes","","1373","","","32","","101","","42","","","","1","","","","","2","","","","","158","1373","","","","","","","","","","","","","","","","","","","","","","","","",""
"","reward_outcome","","html-keyboard-response","315","1596043","0.0-306.0","0","0","8Mzwz","Scenes","","628","","","38","","101","","42","","","","","","","","","","","","","","","","1","628","","","","","","","","","","","","","","","","","","","","","","",""
"","fixation","","html-keyboard-response","316","1597056","0.0-309.0","0","0","8Mzwz","Scenes","","null","","","null","","","","","","","","","","","","","","","","","","","","","","","","","","","","","","","","","","","","","","","","","","","",""
"","see_reward","","html-keyboard-response","317","1598035","0.0-310.0","0","0","8Mzwz","Scenes","","975","","","32","","123","","43","","","","-1","","","","","2","","","","","0","975","","","","","","","","","","","","","","","","","","","","","","","","",""
"","reward_outcome","","html-keyboard-response","318","1600049","0.0-311.0","0","0","8Mzwz","Scenes","","760","","","40","","123","","43","","","","","","","","","","","","","","","","-1","760","","","","","","","","","","","","","","","","","","","","","","",""
"","fixation","","html-keyboard-response","319","1601062","0.0-314.0","0","0","8Mzwz","Scenes","","null","","","null","","","","","","","","","","","","","","","","","","","","","","","","","","","","","","","","","","","","","","","","","","","",""
"","see_reward","","html-keyboard-response","320","1601605","0.0-315.0","0","0","8Mzwz","Scenes","","540","","","32","","141","","44","","","","1","","","","","2","","","","","155","540","","","","","","","","","","","","","","","","","","","","","","","","",""
"","reward_outcome","","html-keyboard-response","321","1603616","0.0-316.0","0","0","8Mzwz","Scenes","","591","","","38","","141","","44","","","","","","","","","","","","","","","","1","591","","","","","","","","","","","","","","","","","","","","","","",""
"","fixation","","html-keyboard-response","322","1604630","0.0-319.0","0","0","8Mzwz","Scenes","","null","","","null","","","","","","","","","","","","","","","","","","","","","","","","","","","","","","","","","","","","","","","","","","","",""
"","see_reward","","html-keyboard-response","323","1605114","0.0-320.0","0","0","8Mzwz","Scenes","","480","","","32","","138","","45","","","","1","","","","","2","","","","","141","480","","","","","","","","","","","","","","","","","","","","","","","","",""
"","reward_outcome","","html-keyboard-response","324","1607125","0.0-321.0","0","0","8Mzwz","Scenes","","511","","","38","","138","","45","","","","","","","","","","","","","","","","1","511","","","","","","","","","","","","","","","","","","","","","","",""
"","fixation","","html-keyboard-response","325","1608141","0.0-324.0","0","0","8Mzwz","Scenes","","null","","","null","","","","","","","","","","","","","","","","","","","","","","","","","","","","","","","","","","","","","","","","","","","",""
"","see_reward","","html-keyboard-response","326","1608797","0.0-325.0","0","0","8Mzwz","Scenes","","652","","","32","","111","","46","","","","-1","","","","","2","","","","","0","652","","","","","","","","","","","","","","","","","","","","","","","","",""
"","reward_outcome","","html-keyboard-response","327","1610818","0.0-326.0","0","0","8Mzwz","Scenes","","1140","","","40","","111","","46","","","","","","","","","","","","","","","","-1","1140","","","","","","","","","","","","","","","","","","","","","","",""
"","fixation","","html-keyboard-response","328","1611826","0.0-329.0","0","0","8Mzwz","Scenes","","null","","","null","","","","","","","","","","","","","","","","","","","","","","","","","","","","","","","","","","","","","","","","","","","",""
"","see_reward","","html-keyboard-response","329","1612614","0.0-330.0","0","0","8Mzwz","Scenes","","785","","","32","","101","","47","","","","1","","","","","2","","","","","158","785","","","","","","","","","","","","","","","","","","","","","","","","",""
"","reward_outcome","","html-keyboard-response","330","1614626","0.0-331.0","0","0","8Mzwz","Scenes","","1129","","","38","","101","","47","","","","","","","","","","","","","","","","1","1129","","","","","","","","","","","","","","","","","","","","","","",""
"","block_over","","html-keyboard-response","331","1618041","0.0-333.0-0.0","0","0","8Mzwz","Scenes","","3411","","","78","","","","","","","","","","","","","","","","","","","","","","","","","","","","","","","","","","","","","","","","","","","",""
"","fixation","","html-keyboard-response","332","1619054","0.0-334.0","0","0","8Mzwz","Scenes","","null","","","null","","","","","","","","","","","","","","","","","","","","","","","","","","","","","","","","","","","","","","","","","","","",""
"","see_reward","","html-keyboard-response","333","1619651","0.0-335.0","0","0","8Mzwz","Scenes","","593","","","32","","138","","48","","","","1","","","","","3","","","","","141","593","","","","","","","","","","","","","","","","","","","","","","","","",""
"","reward_outcome","","html-keyboard-response","334","1621676","0.0-336.0","0","0","8Mzwz","Scenes","","475","","","38","","138","","48","","","","","","","","","","","","","","","","1","475","","","","","","","","","","","","","","","","","","","","","","",""
"","fixation","","html-keyboard-response","335","1622689","0.0-339.0","0","0","8Mzwz","Scenes","","null","","","null","","","","","","","","","","","","","","","","","","","","","","","","","","","","","","","","","","","","","","","","","","","",""
"","see_reward","","html-keyboard-response","336","1622884","0.0-340.0","0","0","8Mzwz","Scenes","","192","","","32","","111","","49","","","","-1","","","","","3","","","","","0","192","","","","","","","","","","","","","","","","","","","","","","","","",""
"","reward_outcome","","html-keyboard-response","337","1624898","0.0-341.0","0","0","8Mzwz","Scenes","","743","","","40","","111","","49","","","","","","","","","","","","","","","","-1","743","","","","","","","","","","","","","","","","","","","","","","",""
"","fixation","","html-keyboard-response","338","1625919","0.0-344.0","0","0","8Mzwz","Scenes","","null","","","null","","","","","","","","","","","","","","","","","","","","","","","","","","","","","","","","","","","","","","","","","","","",""
"","see_reward","","html-keyboard-response","339","1626416","0.0-345.0","0","0","8Mzwz","Scenes","","493","","","32","","128","","50","","","","-1","","","","","3","","","","","0","493","","","","","","","","","","","","","","","","","","","","","","","","",""
"","reward_outcome","","html-keyboard-response","340","1628426","0.0-346.0","0","0","8Mzwz","Scenes","","799","","","40","","128","","50","","","","","","","","","","","","","","","","-1","799","","","","","","","","","","","","","","","","","","","","","","",""
"","fixation","","html-keyboard-response","341","1629440","0.0-349.0","0","0","8Mzwz","Scenes","","null","","","null","","","","","","","","","","","","","","","","","","","","","","","","","","","","","","","","","","","","","","","","","","","",""
"","see_reward","","html-keyboard-response","342","1629967","0.0-350.0","0","0","8Mzwz","Scenes","","523","","","32","","145","","51","","","","-1","","","","","3","","","","","0","523","","","","","","","","","","","","","","","","","","","","","","","","",""
"","reward_outcome","","html-keyboard-response","343","1631993","0.0-351.0","0","0","8Mzwz","Scenes","","597","","","40","","145","","51","","","","","","","","","","","","","","","","-1","597","","","","","","","","","","","","","","","","","","","","","","",""
"","fixation","","html-keyboard-response","344","1633006","0.0-354.0","0","0","8Mzwz","Scenes","","null","","","null","","","","","","","","","","","","","","","","","","","","","","","","","","","","","","","","","","","","","","","","","","","",""
"","see_reward","","html-keyboard-response","345","1633578","0.0-355.0","0","0","8Mzwz","Scenes","","569","","","32","","101","","52","","","","1","","","","","3","","","","","158","569","","","","","","","","","","","","","","","","","","","","","","","","",""
"","reward_outcome","","html-keyboard-response","346","1635590","0.0-356.0","0","0","8Mzwz","Scenes","","507","","","38","","101","","52","","","","","","","","","","","","","","","","1","507","","","","","","","","","","","","","","","","","","","","","","",""
"","fixation","","html-keyboard-response","347","1636600","0.0-359.0","0","0","8Mzwz","Scenes","","null","","","null","","","","","","","","","","","","","","","","","","","","","","","","","","","","","","","","","","","","","","","","","","","",""
"","see_reward","","html-keyboard-response","348","1637011","0.0-360.0","0","0","8Mzwz","Scenes","","407","","","32","","127","","53","","","","1","","","","","3","","","","","155","407","","","","","","","","","","","","","","","","","","","","","","","","",""
"","reward_outcome","","html-keyboard-response","349","1639031","0.0-361.0","0","0","8Mzwz","Scenes","","642","","","38","","127","","53","","","","","","","","","","","","","","","","1","642","","","","","","","","","","","","","","","","","","","","","","",""
"","fixation","","html-keyboard-response","350","1640046","0.0-364.0","0","0","8Mzwz","Scenes","","null","","","null","","","","","","","","","","","","","","","","","","","","","","","","","","","","","","","","","","","","","","","","","","","",""
"","see_reward","","html-keyboard-response","351","1640615","0.0-365.0","0","0","8Mzwz","Scenes","","566","","","32","","125","","54","","","","-1","","","","","3","","","","","0","566","","","","","","","","","","","","","","","","","","","","","","","","",""
"","reward_outcome","","html-keyboard-response","352","1642619","0.0-366.0","0","0","8Mzwz","Scenes","","637","","","40","","125","","54","","","","","","","","","","","","","","","","-1","637","","","","","","","","","","","","","","","","","","","","","","",""
"","fixation","","html-keyboard-response","353","1643635","0.0-369.0","0","0","8Mzwz","Scenes","","null","","","null","","","","","","","","","","","","","","","","","","","","","","","","","","","","","","","","","","","","","","","","","","","",""
