"success","ttype","start_time","trial_type","trial_index","time_elapsed","internal_node_id","warning","missed_checkup","PID","stim_type","view_history","rt","responses","repeat_instructions","key_press","response","stimulus_id","painting","index","stimulus_left","stimulus_right","explain_trial","reward_type","rating_left","rating_right","painting_left","painting_right","block","left_chosen","chosen_obj","unchosen_obj","explain_response","reward_amount","see_reward_rt","register_reward_response","register_reward_rt","deliberation_reward_tally","stimulus_left_deliberation_ind","stimulus_right_deliberation_ind","chosen_trial","gain_left","higher_outcome_chosen","old_pair","chosen_object","rt_pairs","left_object_chosen","rt_object","old_response","new_rating","deliberated_stim","initial_rating","outcome_eval_rt","outcome_eval_response","outcome_eval_gain","outcome_eval_acc","preamble","outcome_eval_confidence","outcome_eval_confidence_rt","total_reward_tally"
"true","full_screen","d01202023hr0247","fullscreen","0","45201","0.0-0.0","0","0","JGdx6","Scenes","","","","","","","","","","","","","","","","","","","","","","","","","","","","","","","","","","","","","","","","","","","","","","","","",""
"","rating_instructions","","instructions","1","56830","0.0-1.0-0.0","0","0","JGdx6","Scenes","[{""page_index"":0,""viewing_time"":8584},{""page_index"":1,""viewing_time"":3043}]","11627","","","","","","","","","","","","","","","","","","","","","","","","","","","","","","","","","","","","","","","","","","","","","","",""
"","rating_comprehension_check","","survey-multi-choice","2","62836","0.0-1.0-1.0","0","0","JGdx6","Scenes","","6002","{""Q0"":""True"",""Q1"":""Mouse""}","0","","","","","","","","","","","","","","","","","","","","","","","","","","","","","","","","","","","","","","","","","","","","",""
"","start_phase","","html-keyboard-response","3","65923","0.0-2.0","0","0","JGdx6","Scenes","","3082","","","78","","","","","","","","","","","","","","","","","","","","","","","","","","","","","","","","","","","","","","","","","","","",""
"","rating","","html-slider-response","4","68916","0.0-3.0","0","0","JGdx6","Scenes","","2990","","","","91","128","karsten-wurth-jS0zC2PJ17A-unsplash.jpg","0","","","","","","","","","","","","","","","","","","","","","","","","","","","","","","","","","","","","","","","",""
"","rating","","html-slider-response","5","70846","0.0-4.0","0","0","JGdx6","Scenes","","1928","","","","72","144","solotravelgoals-7kLufxYoqWk-unsplash.jpg","1","","","","","","","","","","","","","","","","","","","","","","","","","","","","","","","","","","","","","","","",""
"","rating","","html-slider-response","6","73201","0.0-5.0","0","0","JGdx6","Scenes","","2353","","","","37","122","jeff-king-bJHWJeiHfHc-unsplash.jpg","2","","","","","","","","","","","","","","","","","","","","","","","","","","","","","","","","","","","","","","","",""
"","rating","","html-slider-response","7","75284","0.0-6.0","0","0","JGdx6","Scenes","","2081","","","","80","108","benjamin-voros-phIFdC6lA4E-unsplash.jpg","3","","","","","","","","","","","","","","","","","","","","","","","","","","","","","","","","","","","","","","","",""
"","rating","","html-slider-response","8","78847","0.0-7.0","0","0","JGdx6","Scenes","","3561","","","","26","121","jean-pierre-brungs-qxCqkbF7tUc-unsplash.jpg","4","","","","","","","","","","","","","","","","","","","","","","","","","","","","","","","","","","","","","","","",""
"","rating","","html-slider-response","9","81180","0.0-8.0","0","0","JGdx6","Scenes","","2330","","","","91","114","daniel-sessler-z_9VmsxR8hs-unsplash.jpg","5","","","","","","","","","","","","","","","","","","","","","","","","","","","","","","","","","","","","","","","",""
"","rating","","html-slider-response","10","83228","0.0-9.0","0","0","JGdx6","Scenes","","2045","","","","77","120","jarrett-kow-1ZOyYPOBn7I-unsplash.jpg","6","","","","","","","","","","","","","","","","","","","","","","","","","","","","","","","","","","","","","","","",""
"","rating","","html-slider-response","11","85431","0.0-10.0","0","0","JGdx6","Scenes","","2200","","","","43","111","claudio-testa-U3F2o6vz3bs-unsplash.jpg","7","","","","","","","","","","","","","","","","","","","","","","","","","","","","","","","","","","","","","","","",""
"","rating","","html-slider-response","12","87332","0.0-11.0","0","0","JGdx6","Scenes","","1898","","","","61","117","frank-mckenna-OD9EOzfSOh0-unsplash.jpg","8","","","","","","","","","","","","","","","","","","","","","","","","","","","","","","","","","","","","","","","",""
"","rating","","html-slider-response","13","89312","0.0-12.0","0","0","JGdx6","Scenes","","1978","","","","94","137","olga-stalska-QaWRyEdlffY-unsplash.jpg","9","","","","","","","","","","","","","","","","","","","","","","","","","","","","","","","","","","","","","","","",""
"","rating","","html-slider-response","14","91092","0.0-13.0","0","0","JGdx6","Scenes","","1778","","","","28","106","ashim-d-silva-WeYamle9fDM-unsplash.jpg","10","","","","","","","","","","","","","","","","","","","","","","","","","","","","","","","","","","","","","","","",""
"","rating","","html-slider-response","15","94769","0.0-14.0","0","0","JGdx6","Scenes","","3675","","","","12","113","damian-denis-D8R_txR_0PE-unsplash.jpg","11","","","","","","","","","","","","","","","","","","","","","","","","","","","","","","","","","","","","","","","",""
"","rating","","html-slider-response","16","96872","0.0-15.0","0","0","JGdx6","Scenes","","2100","","","","7","126","jordan-mcqueen-PJCZOWuOxbU-unsplash.jpg","12","","","","","","","","","","","","","","","","","","","","","","","","","","","","","","","","","","","","","","","",""
"","rating","","html-slider-response","17","99036","0.0-16.0","0","0","JGdx6","Scenes","","2162","","","","62","147","tobias-keller-73F4pKoUkM0-unsplash.jpg","13","","","","","","","","","","","","","","","","","","","","","","","","","","","","","","","","","","","","","","","",""
"","rating","","html-slider-response","18","104205","0.0-17.0","0","0","JGdx6","Scenes","","5166","","","","81","143","sigurdur-fjalar-jonsson-1KxBabIntpE-unsplash.jpg","14","","","","","","","","","","","","","","","","","","","","","","","","","","","","","","","","","","","","","","","",""
"","rating","","html-slider-response","19","106563","0.0-18.0","0","0","JGdx6","Scenes","","2356","","","","69","146","thomas-morse-cuKKa0vWZSY-unsplash.jpg","15","","","","","","","","","","","","","","","","","","","","","","","","","","","","","","","","","","","","","","","",""
"","rating","","html-slider-response","20","108962","0.0-19.0","0","0","JGdx6","Scenes","","2396","","","","9","105","ashim-d-silva-S2Q5mdOrrVc-unsplash.jpg","16","","","","","","","","","","","","","","","","","","","","","","","","","","","","","","","","","","","","","","","",""
"","rating","","html-slider-response","21","112312","0.0-20.0","0","0","JGdx6","Scenes","","3349","","","","98","104","artem-sapegin-XGDBdSQ70O0-unsplash.jpg","17","","","","","","","","","","","","","","","","","","","","","","","","","","","","","","","","","","","","","","","",""
"","rating","","html-slider-response","22","115021","0.0-21.0","0","0","JGdx6","Scenes","","2706","","","","29","107","benjamin-davies-Zm2n2O7Fph4-unsplash.jpg","18","","","","","","","","","","","","","","","","","","","","","","","","","","","","","","","","","","","","","","","",""
"","rating","","html-slider-response","23","117542","0.0-22.0","0","0","JGdx6","Scenes","","2518","","","","88","103","anton-darius-FBJugtbHsWU-unsplash.jpg","19","","","","","","","","","","","","","","","","","","","","","","","","","","","","","","","","","","","","","","","",""
"","rating","","html-slider-response","24","119964","0.0-23.0","0","0","JGdx6","Scenes","","2421","","","","88","125","john-lee-oMneOBYhJxY-unsplash.jpg","20","","","","","","","","","","","","","","","","","","","","","","","","","","","","","","","","","","","","","","","",""
"","rating","","html-slider-response","25","122967","0.0-24.0","0","0","JGdx6","Scenes","","3001","","","","25","118","henry-be-NLF6hTe4PAg-unsplash.jpg","21","","","","","","","","","","","","","","","","","","","","","","","","","","","","","","","","","","","","","","","",""
"","rating","","html-slider-response","26","125170","0.0-25.0","0","0","JGdx6","Scenes","","2201","","","","88","130","lina-loos-04-C1NZk1hE-unsplash.jpg","22","","","","","","","","","","","","","","","","","","","","","","","","","","","","","","","","","","","","","","","",""
"","rating","","html-slider-response","27","127815","0.0-26.0","0","0","JGdx6","Scenes","","2642","","","","5","136","nicolas-jehly-LzVB84KkZOE-unsplash.jpg","23","","","","","","","","","","","","","","","","","","","","","","","","","","","","","","","","","","","","","","","",""
"","rating","","html-slider-response","28","130102","0.0-27.0","0","0","JGdx6","Scenes","","2284","","","","1","149","yuriy-bogdanov-W51VK3Obcj0-unsplash.jpg","24","","","","","","","","","","","","","","","","","","","","","","","","","","","","","","","","","","","","","","","",""
"","rating","","html-slider-response","29","133571","0.0-28.0","0","0","JGdx6","Scenes","","3467","","","","77","109","brigitta-schneiter-hXXRLtTxXCU-unsplash.jpg","25","","","","","","","","","","","","","","","","","","","","","","","","","","","","","","","","","","","","","","","",""
"","rating","","html-slider-response","30","136552","0.0-29.0","0","0","JGdx6","Scenes","","2978","","","","89","112","cosmic-timetraveler-pYyOZ8q7AII-unsplash.jpg","26","","","","","","","","","","","","","","","","","","","","","","","","","","","","","","","","","","","","","","","",""
"","rating","","html-slider-response","31","138913","0.0-30.0","0","0","JGdx6","Scenes","","2359","","","","88","140","samuele-errico-piccarini-JEBqFu2AOOA-unsplash.jpg","27","","","","","","","","","","","","","","","","","","","","","","","","","","","","","","","","","","","","","","","",""
"","rating","","html-slider-response","32","141429","0.0-31.0","0","0","JGdx6","Scenes","","2514","","","","91","148","tom-gainor-ZqLeQDjY6fY-unsplash.jpg","28","","","","","","","","","","","","","","","","","","","","","","","","","","","","","","","","","","","","","","","",""
"","rating","","html-slider-response","33","143736","0.0-32.0","0","0","JGdx6","Scenes","","2305","","","","25","141","sebastian-unrau-v4e3JI7DDHI-unsplash.jpg","29","","","","","","","","","","","","","","","","","","","","","","","","","","","","","","","","","","","","","","","",""
"","rating","","html-slider-response","34","146513","0.0-33.0","0","0","JGdx6","Scenes","","2775","","","","42","124","johannes-plenio-sPt5RIjKfpk-unsplash.jpg","30","","","","","","","","","","","","","","","","","","","","","","","","","","","","","","","","","","","","","","","",""
"","rating","","html-slider-response","35","148890","0.0-34.0","0","0","JGdx6","Scenes","","2375","","","","18","129","kurt-cotoaga-cqbLg3lZEpk-unsplash.jpg","31","","","","","","","","","","","","","","","","","","","","","","","","","","","","","","","","","","","","","","","",""
"","rating","","html-slider-response","36","151010","0.0-35.0","0","0","JGdx6","Scenes","","2117","","","","32","145","stephen-leonardi-gyIRjKPXupE-unsplash.jpg","32","","","","","","","","","","","","","","","","","","","","","","","","","","","","","","","","","","","","","","","",""
"","rating","","html-slider-response","37","154851","0.0-36.0","0","0","JGdx6","Scenes","","3839","","","","80","115","darrell-cassell-hoCXpPUMCoE-unsplash.jpg","33","","","","","","","","","","","","","","","","","","","","","","","","","","","","","","","","","","","","","","","",""
"","rating","","html-slider-response","38","156865","0.0-37.0","0","0","JGdx6","Scenes","","2011","","","","79","139","samsommer-vddccTqwal8-unsplash.jpg","34","","","","","","","","","","","","","","","","","","","","","","","","","","","","","","","","","","","","","","","",""
"","rating","","html-slider-response","39","158619","0.0-38.0","0","0","JGdx6","Scenes","","1752","","","","33","135","mohammad-alizade-4wzRuAb-KWs-unsplash.jpg","35","","","","","","","","","","","","","","","","","","","","","","","","","","","","","","","","","","","","","","","",""
"","rating","","html-slider-response","40","161253","0.0-39.0","0","0","JGdx6","Scenes","","2632","","","","90","134","milada-vigerova-pQMM63GE7fo-unsplash.jpg","36","","","","","","","","","","","","","","","","","","","","","","","","","","","","","","","","","","","","","","","",""
"","rating","","html-slider-response","41","163359","0.0-40.0","0","0","JGdx6","Scenes","","2104","","","","95","131","luca-bravo-hFzIoD0F_i8-unsplash.jpg","37","","","","","","","","","","","","","","","","","","","","","","","","","","","","","","","","","","","","","","","",""
"","rating","","html-slider-response","42","165458","0.0-41.0","0","0","JGdx6","Scenes","","2097","","","","96","132","meng-ji-8BH_M-53CyA-unsplash.jpg","38","","","","","","","","","","","","","","","","","","","","","","","","","","","","","","","","","","","","","","","",""
"","rating","","html-slider-response","43","168230","0.0-42.0","0","0","JGdx6","Scenes","","2770","","","","91","101","aniket-deole-T-tOgjWZ0fQ-unsplash.jpg","39","","","","","","","","","","","","","","","","","","","","","","","","","","","","","","","","","","","","","","","",""
"","rating","","html-slider-response","44","169947","0.0-43.0","0","0","JGdx6","Scenes","","1715","","","","74","110","bruno-van-der-kraan-qez8mNJ3ilU-unsplash.jpg","40","","","","","","","","","","","","","","","","","","","","","","","","","","","","","","","","","","","","","","","",""
"","rating","","html-slider-response","45","171837","0.0-44.0","0","0","JGdx6","Scenes","","1887","","","","39","123","joel-jasmin-forestbird-efuwb5eBDrI-unsplash.jpg","41","","","","","","","","","","","","","","","","","","","","","","","","","","","","","","","","","","","","","","","",""
"","rating","","html-slider-response","46","174286","0.0-45.0","0","0","JGdx6","Scenes","","2447","","","","89","119","james-wheeler-AFC0XvICMgs-unsplash.jpg","42","","","","","","","","","","","","","","","","","","","","","","","","","","","","","","","","","","","","","","","",""
"","rating","","html-slider-response","47","176650","0.0-46.0","0","0","JGdx6","Scenes","","2362","","","","80","100","aleksandra-boguslawska-MS7KD9Ti7FQ-unsplash.jpg","43","","","","","","","","","","","","","","","","","","","","","","","","","","","","","","","","","","","","","","","",""
"","rating","","html-slider-response","48","180784","0.0-47.0","0","0","JGdx6","Scenes","","4132","","","","17","138","petr-vysohlid-9fqwGqGLUxc-unsplash.jpg","44","","","","","","","","","","","","","","","","","","","","","","","","","","","","","","","","","","","","","","","",""
"","rating","","html-slider-response","49","182752","0.0-48.0","0","0","JGdx6","Scenes","","1965","","","","20","102","anisur-rahman-K2b7UDed6uQ-unsplash.jpg","45","","","","","","","","","","","","","","","","","","","","","","","","","","","","","","","","","","","","","","","",""
"","rating","","html-slider-response","50","184809","0.0-49.0","0","0","JGdx6","Scenes","","2056","","","","38","116","david-marcu-W5MhJ6cy1So-unsplash.jpg","46","","","","","","","","","","","","","","","","","","","","","","","","","","","","","","","","","","","","","","","",""
"","rating","","html-slider-response","51","187489","0.0-50.0","0","0","JGdx6","Scenes","","2678","","","","61","127","kace-rodriguez-p3OzJuT_Dks-unsplash.jpg","47","","","","","","","","","","","","","","","","","","","","","","","","","","","","","","","","","","","","","","","",""
"","rating","","html-slider-response","52","190540","0.0-51.0","0","0","JGdx6","Scenes","","3047","","","","36","133","mickey-o-neil-xL66l--msXU-unsplash.jpg","48","","","","","","","","","","","","","","","","","","","","","","","","","","","","","","","","","","","","","","","",""
"","rating","","html-slider-response","53","194406","0.0-52.0","0","0","JGdx6","Scenes","","3864","","","","23","142","sergey-pesterev-y-b_FOmJXdg-unsplash.jpg","49","","","","","","","","","","","","","","","","","","","","","","","","","","","","","","","","","","","","","","","",""
"","deliberation_instructions","","instructions","54","279988","0.0-53.0-0.0","0","0","JGdx6","Scenes","[{""page_index"":0,""viewing_time"":49094},{""page_index"":1,""viewing_time"":13358},{""page_index"":2,""viewing_time"":15046},{""page_index"":3,""viewing_time"":6692},{""page_index"":4,""viewing_time"":1388}]","85578","","","","","","","","","","","","","","","","","","","","","","","","","","","","","","","","","","","","","","","","","","","","","","",""
"","deliberation_comprehension_check","","survey-multi-choice","55","300512","0.0-53.0-1.0","0","0","JGdx6","Scenes","","20518","{""Q0"":""True"",""Q1"":""True"",""Q2"":""Consider carefully and take your time (up to 10 seconds)"",""Q3"":""True"",""Q4"":""D""}","0","","","","","","","","","","","","","","","","","","","","","","","","","","","","","","","","","","","","","","","","","","","","",""
"","start_phase","","html-keyboard-response","56","302376","0.0-54.0","0","0","JGdx6","Scenes","","1860","","","78","","","","","","","","","","","","","","","","","","","","","","","","","","","","","","","","","","","","","","","","","","","",""
"","first_deliberation_block","","html-keyboard-response","57","304222","0.0-55.0","0","0","JGdx6","Scenes","","1844","","","78","","","","","","","","","","","","","","","","","","","","","","","","","","","","","","","","","","","","","","","","","","","",""
"","fixation","","html-keyboard-response","58","305226","0.0-56.0-0.0","0","0","JGdx6","Scenes","","null","","","null","","","","","","","","","","","","","","","","","","","","","","","","","","","","","","","","","","","","","","","","","","","",""
"","deliberation","","html-keyboard-response","59","307185","0.0-56.0-1.0","0","0","JGdx6","Scenes","","1955","","","68","","","","0","110","100","0","1","74","80","bruno-van-der-kraan-qez8mNJ3ilU-unsplash.jpg","aleksandra-boguslawska-MS7KD9Ti7FQ-unsplash.jpg","1","1","110","100","","","","","","","","","","","","","","","","","","","","","","","","","","","",""
"","choice_confirmation","","html-keyboard-response","60","307688","0.0-56.0-2.0-0.0","0","0","JGdx6","Scenes","","null","","","null","","","","0","110","100","","","","","","","","","","","","","","","","","","","","","","","","","","","","","","","","","","","","","",""
"","fixation","","html-keyboard-response","61","308694","0.0-57.0-0.0","0","0","JGdx6","Scenes","","null","","","null","","","","","","","","","","","","","","","","","","","","","","","","","","","","","","","","","","","","","","","","","","","",""
"","deliberation","","html-keyboard-response","62","310714","0.0-57.0-1.0","0","0","JGdx6","Scenes","","2019","","","68","","","","1","147","103","1","-1","62","88","tobias-keller-73F4pKoUkM0-unsplash.jpg","anton-darius-FBJugtbHsWU-unsplash.jpg","1","1","147","103","","","","","","","","","","","","","","","","","","","","","","","","","","","",""
"","choice_confirmation","","html-keyboard-response","63","311220","0.0-57.0-2.0-0.0","0","0","JGdx6","Scenes","","null","","","null","","","","1","147","103","","","","","","","","","","","","","","","","","","","","","","","","","","","","","","","","","","","","","",""
"","explain_trial","","survey-text","64","333183","0.0-57.0-5.0-0.0","0","0","JGdx6","Scenes","","21960","{""Q0"":""the colors of the sky are beautiful over the reflection of the water""}","","","","","","1","147","103","","","","","","","","","","","{""Q0"":""the colors of the sky are beautiful over the reflection of the water""}","","","","","","","","","","","","","","","","","","","","","","","","","","",""
"","fixation","","html-keyboard-response","65","334192","0.0-58.0-0.0","0","0","JGdx6","Scenes","","null","","","null","","","","","","","","","","","","","","","","","","","","","","","","","","","","","","","","","","","","","","","","","","","",""
"","deliberation","","html-keyboard-response","66","335378","0.0-58.0-1.0","0","0","JGdx6","Scenes","","1184","","","75","","","","2","111","125","1","-1","43","88","claudio-testa-U3F2o6vz3bs-unsplash.jpg","john-lee-oMneOBYhJxY-unsplash.jpg","1","0","125","111","","","","","","","","","","","","","","","","","","","","","","","","","","","",""
"","choice_confirmation","","html-keyboard-response","67","335883","0.0-58.0-2.0-0.0","0","0","JGdx6","Scenes","","null","","","null","","","","2","111","125","","","","","","","","","","","","","","","","","","","","","","","","","","","","","","","","","","","","","",""
"","explain_trial","","survey-text","68","346777","0.0-58.0-5.0-0.0","0","0","JGdx6","Scenes","","10892","{""Q0"":""I like water and mountains more than grasslands""}","","","","","","2","111","125","","","","","","","","","","","{""Q0"":""I like water and mountains more than grasslands""}","","","","","","","","","","","","","","","","","","","","","","","","","","",""
"","fixation","","html-keyboard-response","69","347782","0.0-59.0-0.0","0","0","JGdx6","Scenes","","null","","","null","","","","","","","","","","","","","","","","","","","","","","","","","","","","","","","","","","","","","","","","","","","",""
"","deliberation","","html-keyboard-response","70","349947","0.0-59.0-1.0","0","0","JGdx6","Scenes","","2163","","","75","","","","3","144","115","0","-1","72","80","solotravelgoals-7kLufxYoqWk-unsplash.jpg","darrell-cassell-hoCXpPUMCoE-unsplash.jpg","1","0","115","144","","","","","","","","","","","","","","","","","","","","","","","","","","","",""
"","choice_confirmation","","html-keyboard-response","71","350452","0.0-59.0-2.0-0.0","0","0","JGdx6","Scenes","","null","","","null","","","","3","144","115","","","","","","","","","","","","","","","","","","","","","","","","","","","","","","","","","","","","","",""
"","fixation","","html-keyboard-response","72","351457","0.0-60.0-0.0","0","0","JGdx6","Scenes","","null","","","null","","","","","","","","","","","","","","","","","","","","","","","","","","","","","","","","","","","","","","","","","","","",""
"","deliberation","","html-keyboard-response","73","353357","0.0-60.0-1.0","0","0","JGdx6","Scenes","","1898","","","75","","","","4","116","123","0","1","38","39","david-marcu-W5MhJ6cy1So-unsplash.jpg","joel-jasmin-forestbird-efuwb5eBDrI-unsplash.jpg","1","0","123","116","","","","","","","","","","","","","","","","","","","","","","","","","","","",""
"","choice_confirmation","","html-keyboard-response","74","353862","0.0-60.0-2.0-0.0","0","0","JGdx6","Scenes","","null","","","null","","","","4","116","123","","","","","","","","","","","","","","","","","","","","","","","","","","","","","","","","","","","","","",""
"","fixation","","html-keyboard-response","75","354868","0.0-61.0-0.0","0","0","JGdx6","Scenes","","null","","","null","","","","","","","","","","","","","","","","","","","","","","","","","","","","","","","","","","","","","","","","","","","",""
"","deliberation","","html-keyboard-response","76","356411","0.0-61.0-1.0","0","0","JGdx6","Scenes","","1541","","","75","","","","5","143","146","1","1","81","69","sigurdur-fjalar-jonsson-1KxBabIntpE-unsplash.jpg","thomas-morse-cuKKa0vWZSY-unsplash.jpg","1","0","146","143","","","","","","","","","","","","","","","","","","","","","","","","","","","",""
"","choice_confirmation","","html-keyboard-response","77","356916","0.0-61.0-2.0-0.0","0","0","JGdx6","Scenes","","null","","","null","","","","5","143","146","","","","","","","","","","","","","","","","","","","","","","","","","","","","","","","","","","","","","",""
"","explain_trial","","survey-text","78","372933","0.0-61.0-5.0-0.0","0","0","JGdx6","Scenes","","16015","{""Q0"":""The mountains and the now along with the different color trees makes it a beautiful photo""}","","","","","","5","143","146","","","","","","","","","","","{""Q0"":""The mountains and the now along with the different color trees makes it a beautiful photo""}","","","","","","","","","","","","","","","","","","","","","","","","","","",""
"","fixation","","html-keyboard-response","79","373936","0.0-62.0-0.0","0","0","JGdx6","Scenes","","null","","","null","","","","","","","","","","","","","","","","","","","","","","","","","","","","","","","","","","","","","","","","","","","",""
"","deliberation","","html-keyboard-response","80","376024","0.0-62.0-1.0","0","0","JGdx6","Scenes","","2086","","","68","","","","6","124","133","0","-1","42","36","johannes-plenio-sPt5RIjKfpk-unsplash.jpg","mickey-o-neil-xL66l--msXU-unsplash.jpg","1","1","124","133","","","","","","","","","","","","","","","","","","","","","","","","","","","",""
"","choice_confirmation","","html-keyboard-response","81","376528","0.0-62.0-2.0-0.0","0","0","JGdx6","Scenes","","null","","","null","","","","6","124","133","","","","","","","","","","","","","","","","","","","","","","","","","","","","","","","","","","","","","",""
"","fixation","","html-keyboard-response","82","377535","0.0-63.0-0.0","0","0","JGdx6","Scenes","","null","","","null","","","","","","","","","","","","","","","","","","","","","","","","","","","","","","","","","","","","","","","","","","","",""
"","deliberation","","html-keyboard-response","83","378554","0.0-63.0-1.0","0","0","JGdx6","Scenes","","1017","","","75","","","","7","145","120","1","1","32","77","stephen-leonardi-gyIRjKPXupE-unsplash.jpg","jarrett-kow-1ZOyYPOBn7I-unsplash.jpg","1","0","120","145","","","","","","","","","","","","","","","","","","","","","","","","","","","",""
"","choice_confirmation","","html-keyboard-response","84","379057","0.0-63.0-2.0-0.0","0","0","JGdx6","Scenes","","null","","","null","","","","7","145","120","","","","","","","","","","","","","","","","","","","","","","","","","","","","","","","","","","","","","",""
"","explain_trial","","survey-text","85","391820","0.0-63.0-5.0-0.0","0","0","JGdx6","Scenes","","12760","{""Q0"":""the trees are red and the water is a beautiful blue""}","","","","","","7","145","120","","","","","","","","","","","{""Q0"":""the trees are red and the water is a beautiful blue""}","","","","","","","","","","","","","","","","","","","","","","","","","","",""
"","fixation","","html-keyboard-response","86","392826","0.0-64.0-0.0","0","0","JGdx6","Scenes","","null","","","null","","","","","","","","","","","","","","","","","","","","","","","","","","","","","","","","","","","","","","","","","","","",""
"","deliberation","","html-keyboard-response","87","394370","0.0-64.0-1.0","0","0","JGdx6","Scenes","","1542","","","68","","","","8","117","107","1","1","61","29","frank-mckenna-OD9EOzfSOh0-unsplash.jpg","benjamin-davies-Zm2n2O7Fph4-unsplash.jpg","1","1","117","107","","","","","","","","","","","","","","","","","","","","","","","","","","","",""
"","choice_confirmation","","html-keyboard-response","88","394874","0.0-64.0-2.0-0.0","0","0","JGdx6","Scenes","","null","","","null","","","","8","117","107","","","","","","","","","","","","","","","","","","","","","","","","","","","","","","","","","","","","","",""
"","explain_trial","","survey-text","89","404797","0.0-64.0-5.0-0.0","0","0","JGdx6","Scenes","","9921","{""Q0"":""the birds and the lighting""}","","","","","","8","117","107","","","","","","","","","","","{""Q0"":""the birds and the lighting""}","","","","","","","","","","","","","","","","","","","","","","","","","","",""
"","fixation","","html-keyboard-response","90","405804","0.0-65.0-0.0","0","0","JGdx6","Scenes","","null","","","null","","","","","","","","","","","","","","","","","","","","","","","","","","","","","","","","","","","","","","","","","","","",""
"","deliberation","","html-keyboard-response","91","408379","0.0-65.0-1.0","0","0","JGdx6","Scenes","","2573","","","75","","","","9","109","122","0","1","77","37","brigitta-schneiter-hXXRLtTxXCU-unsplash.jpg","jeff-king-bJHWJeiHfHc-unsplash.jpg","1","0","122","109","","","","","","","","","","","","","","","","","","","","","","","","","","","",""
"","choice_confirmation","","html-keyboard-response","92","408884","0.0-65.0-2.0-0.0","0","0","JGdx6","Scenes","","null","","","null","","","","9","109","122","","","","","","","","","","","","","","","","","","","","","","","","","","","","","","","","","","","","","",""
"","fixation","","html-keyboard-response","93","409890","0.0-66.0-0.0","0","0","JGdx6","Scenes","","null","","","null","","","","","","","","","","","","","","","","","","","","","","","","","","","","","","","","","","","","","","","","","","","",""
"","deliberation","","html-keyboard-response","94","411107","0.0-66.0-1.0","0","0","JGdx6","Scenes","","1215","","","68","","","","10","139","127","0","-1","79","61","samsommer-vddccTqwal8-unsplash.jpg","kace-rodriguez-p3OzJuT_Dks-unsplash.jpg","1","1","139","127","","","","","","","","","","","","","","","","","","","","","","","","","","","",""
"","choice_confirmation","","html-keyboard-response","95","411611","0.0-66.0-2.0-0.0","0","0","JGdx6","Scenes","","null","","","null","","","","10","139","127","","","","","","","","","","","","","","","","","","","","","","","","","","","","","","","","","","","","","",""
"","fixation","","html-keyboard-response","96","412616","0.0-67.0-0.0","0","0","JGdx6","Scenes","","null","","","null","","","","","","","","","","","","","","","","","","","","","","","","","","","","","","","","","","","","","","","","","","","",""
"","deliberation","","html-keyboard-response","97","413366","0.0-67.0-1.0","0","0","JGdx6","Scenes","","748","","","68","","","","11","108","135","1","-1","80","33","benjamin-voros-phIFdC6lA4E-unsplash.jpg","mohammad-alizade-4wzRuAb-KWs-unsplash.jpg","1","1","108","135","","","","","","","","","","","","","","","","","","","","","","","","","","","",""
"","choice_confirmation","","html-keyboard-response","98","413869","0.0-67.0-2.0-0.0","0","0","JGdx6","Scenes","","null","","","null","","","","11","108","135","","","","","","","","","","","","","","","","","","","","","","","","","","","","","","","","","","","","","",""
"","explain_trial","","survey-text","99","426181","0.0-67.0-5.0-0.0","0","0","JGdx6","Scenes","","12309","{""Q0"":""the purple hues of the sky and the shooting star""}","","","","","","11","108","135","","","","","","","","","","","{""Q0"":""the purple hues of the sky and the shooting star""}","","","","","","","","","","","","","","","","","","","","","","","","","","",""
"","practice_deliberation_again","","html-keyboard-response","100","430953","0.0-67.0-6.0-0.0","0","0","JGdx6","Scenes","","4770","","","78","","","","","","","","","","","","","","","","","","","","","","","","","","","","","","","","","","","","","","","","","","","",""
"","fixation","","html-keyboard-response","101","431959","0.0-68.0-0.0","0","0","JGdx6","Scenes","","null","","","null","","","","","","","","","","","","","","","","","","","","","","","","","","","","","","","","","","","","","","","","","","","",""
"","deliberation","","html-keyboard-response","102","433643","0.0-68.0-1.0","0","0","JGdx6","Scenes","","1681","","","75","","","","12","116","123","1","1","38","39","david-marcu-W5MhJ6cy1So-unsplash.jpg","joel-jasmin-forestbird-efuwb5eBDrI-unsplash.jpg","2","0","123","116","","","","","","","","","","","","","","","","","","","","","","","","","","","",""
"","choice_confirmation","","html-keyboard-response","103","434148","0.0-68.0-2.0-0.0","0","0","JGdx6","Scenes","","null","","","null","","","","12","116","123","","","","","","","","","","","","","","","","","","","","","","","","","","","","","","","","","","","","","",""
"","explain_trial","","survey-text","104","445943","0.0-68.0-5.0-0.0","0","0","JGdx6","Scenes","","11793","{""Q0"":""the snow makes the photo beautiful""}","","","","","","12","116","123","","","","","","","","","","","{""Q0"":""the snow makes the photo beautiful""}","","","","","","","","","","","","","","","","","","","","","","","","","","",""
"","fixation","","html-keyboard-response","105","446949","0.0-69.0-0.0","0","0","JGdx6","Scenes","","null","","","null","","","","","","","","","","","","","","","","","","","","","","","","","","","","","","","","","","","","","","","","","","","",""
"","deliberation","","html-keyboard-response","106","447848","0.0-69.0-1.0","0","0","JGdx6","Scenes","","898","","","68","","","","13","108","135","0","-1","80","33","benjamin-voros-phIFdC6lA4E-unsplash.jpg","mohammad-alizade-4wzRuAb-KWs-unsplash.jpg","2","1","108","135","","","","","","","","","","","","","","","","","","","","","","","","","","","",""
"","choice_confirmation","","html-keyboard-response","107","448352","0.0-69.0-2.0-0.0","0","0","JGdx6","Scenes","","null","","","null","","","","13","108","135","","","","","","","","","","","","","","","","","","","","","","","","","","","","","","","","","","","","","",""
"","fixation","","html-keyboard-response","108","449357","0.0-70.0-0.0","0","0","JGdx6","Scenes","","null","","","null","","","","","","","","","","","","","","","","","","","","","","","","","","","","","","","","","","","","","","","","","","","",""
"","deliberation","","html-keyboard-response","109","451161","0.0-70.0-1.0","0","0","JGdx6","Scenes","","1803","","","75","","","","14","147","103","0","-1","62","88","tobias-keller-73F4pKoUkM0-unsplash.jpg","anton-darius-FBJugtbHsWU-unsplash.jpg","2","0","103","147","","","","","","","","","","","","","","","","","","","","","","","","","","","",""
"","choice_confirmation","","html-keyboard-response","110","451667","0.0-70.0-2.0-0.0","0","0","JGdx6","Scenes","","null","","","null","","","","14","147","103","","","","","","","","","","","","","","","","","","","","","","","","","","","","","","","","","","","","","",""
"","fixation","","html-keyboard-response","111","452674","0.0-71.0-0.0","0","0","JGdx6","Scenes","","null","","","null","","","","","","","","","","","","","","","","","","","","","","","","","","","","","","","","","","","","","","","","","","","",""
"","deliberation","","html-keyboard-response","112","453269","0.0-71.0-1.0","0","0","JGdx6","Scenes","","593","","","75","","","","15","145","120","0","1","32","77","stephen-leonardi-gyIRjKPXupE-unsplash.jpg","jarrett-kow-1ZOyYPOBn7I-unsplash.jpg","2","0","120","145","","","","","","","","","","","","","","","","","","","","","","","","","","","",""
"","choice_confirmation","","html-keyboard-response","113","453774","0.0-71.0-2.0-0.0","0","0","JGdx6","Scenes","","null","","","null","","","","15","145","120","","","","","","","","","","","","","","","","","","","","","","","","","","","","","","","","","","","","","",""
"","fixation","","html-keyboard-response","114","454778","0.0-72.0-0.0","0","0","JGdx6","Scenes","","null","","","null","","","","","","","","","","","","","","","","","","","","","","","","","","","","","","","","","","","","","","","","","","","",""
"","deliberation","","html-keyboard-response","115","455493","0.0-72.0-1.0","0","0","JGdx6","Scenes","","714","","","68","","","","16","117","107","0","1","61","29","frank-mckenna-OD9EOzfSOh0-unsplash.jpg","benjamin-davies-Zm2n2O7Fph4-unsplash.jpg","2","1","117","107","","","","","","","","","","","","","","","","","","","","","","","","","","","",""
"","choice_confirmation","","html-keyboard-response","116","455998","0.0-72.0-2.0-0.0","0","0","JGdx6","Scenes","","null","","","null","","","","16","117","107","","","","","","","","","","","","","","","","","","","","","","","","","","","","","","","","","","","","","",""
"","fixation","","html-keyboard-response","117","457000","0.0-73.0-0.0","0","0","JGdx6","Scenes","","null","","","null","","","","","","","","","","","","","","","","","","","","","","","","","","","","","","","","","","","","","","","","","","","",""
"","deliberation","","html-keyboard-response","118","457826","0.0-73.0-1.0","0","0","JGdx6","Scenes","","824","","","75","","","","17","111","125","0","-1","43","88","claudio-testa-U3F2o6vz3bs-unsplash.jpg","john-lee-oMneOBYhJxY-unsplash.jpg","2","0","125","111","","","","","","","","","","","","","","","","","","","","","","","","","","","",""
"","choice_confirmation","","html-keyboard-response","119","458329","0.0-73.0-2.0-0.0","0","0","JGdx6","Scenes","","null","","","null","","","","17","111","125","","","","","","","","","","","","","","","","","","","","","","","","","","","","","","","","","","","","","",""
"","fixation","","html-keyboard-response","120","459334","0.0-74.0-0.0","0","0","JGdx6","Scenes","","null","","","null","","","","","","","","","","","","","","","","","","","","","","","","","","","","","","","","","","","","","","","","","","","",""
"","deliberation","","html-keyboard-response","121","460537","0.0-74.0-1.0","0","0","JGdx6","Scenes","","1201","","","75","","","","18","143","146","0","1","81","69","sigurdur-fjalar-jonsson-1KxBabIntpE-unsplash.jpg","thomas-morse-cuKKa0vWZSY-unsplash.jpg","2","0","146","143","","","","","","","","","","","","","","","","","","","","","","","","","","","",""
"","choice_confirmation","","html-keyboard-response","122","461040","0.0-74.0-2.0-0.0","0","0","JGdx6","Scenes","","null","","","null","","","","18","143","146","","","","","","","","","","","","","","","","","","","","","","","","","","","","","","","","","","","","","",""
"","fixation","","html-keyboard-response","123","462044","0.0-75.0-0.0","0","0","JGdx6","Scenes","","null","","","null","","","","","","","","","","","","","","","","","","","","","","","","","","","","","","","","","","","","","","","","","","","",""
"","deliberation","","html-keyboard-response","124","463310","0.0-75.0-1.0","0","0","JGdx6","Scenes","","1264","","","68","","","","19","139","127","1","-1","79","61","samsommer-vddccTqwal8-unsplash.jpg","kace-rodriguez-p3OzJuT_Dks-unsplash.jpg","2","1","139","127","","","","","","","","","","","","","","","","","","","","","","","","","","","",""
"","choice_confirmation","","html-keyboard-response","125","463815","0.0-75.0-2.0-0.0","0","0","JGdx6","Scenes","","null","","","null","","","","19","139","127","","","","","","","","","","","","","","","","","","","","","","","","","","","","","","","","","","","","","",""
"","explain_trial","","survey-text","126","474457","0.0-75.0-5.0-0.0","0","0","JGdx6","Scenes","","10639","{""Q0"":""seeing the view above the clouds""}","","","","","","19","139","127","","","","","","","","","","","{""Q0"":""seeing the view above the clouds""}","","","","","","","","","","","","","","","","","","","","","","","","","","",""
"","fixation","","html-keyboard-response","127","475463","0.0-76.0-0.0","0","0","JGdx6","Scenes","","null","","","null","","","","","","","","","","","","","","","","","","","","","","","","","","","","","","","","","","","","","","","","","","","",""
"","deliberation","","html-keyboard-response","128","476806","0.0-76.0-1.0","0","0","JGdx6","Scenes","","1341","","","68","","","","20","110","100","1","1","74","80","bruno-van-der-kraan-qez8mNJ3ilU-unsplash.jpg","aleksandra-boguslawska-MS7KD9Ti7FQ-unsplash.jpg","2","1","110","100","","","","","","","","","","","","","","","","","","","","","","","","","","","",""
"","choice_confirmation","","html-keyboard-response","129","477310","0.0-76.0-2.0-0.0","0","0","JGdx6","Scenes","","null","","","null","","","","20","110","100","","","","","","","","","","","","","","","","","","","","","","","","","","","","","","","","","","","","","",""
"","explain_trial","","survey-text","130","489357","0.0-76.0-5.0-0.0","0","0","JGdx6","Scenes","","12045","{""Q0"":""the mountains and the water and the lighting""}","","","","","","20","110","100","","","","","","","","","","","{""Q0"":""the mountains and the water and the lighting""}","","","","","","","","","","","","","","","","","","","","","","","","","","",""
"","fixation","","html-keyboard-response","131","490364","0.0-77.0-0.0","0","0","JGdx6","Scenes","","null","","","null","","","","","","","","","","","","","","","","","","","","","","","","","","","","","","","","","","","","","","","","","","","",""
"","deliberation","","html-keyboard-response","132","491395","0.0-77.0-1.0","0","0","JGdx6","Scenes","","1028","","","75","","","","21","109","122","1","1","77","37","brigitta-schneiter-hXXRLtTxXCU-unsplash.jpg","jeff-king-bJHWJeiHfHc-unsplash.jpg","2","0","122","109","","","","","","","","","","","","","","","","","","","","","","","","","","","",""
"","choice_confirmation","","html-keyboard-response","133","491898","0.0-77.0-2.0-0.0","0","0","JGdx6","Scenes","","null","","","null","","","","21","109","122","","","","","","","","","","","","","","","","","","","","","","","","","","","","","","","","","","","","","",""
"","explain_trial","","survey-text","134","507677","0.0-77.0-5.0-0.0","0","0","JGdx6","Scenes","","15775","{""Q0"":""there seems to be meaning behind the single tree""}","","","","","","21","109","122","","","","","","","","","","","{""Q0"":""there seems to be meaning behind the single tree""}","","","","","","","","","","","","","","","","","","","","","","","","","","",""
"","fixation","","html-keyboard-response","135","508679","0.0-78.0-0.0","0","0","JGdx6","Scenes","","null","","","null","","","","","","","","","","","","","","","","","","","","","","","","","","","","","","","","","","","","","","","","","","","",""
"","deliberation","","html-keyboard-response","136","510577","0.0-78.0-1.0","0","0","JGdx6","Scenes","","1896","","","75","","","","22","144","115","1","-1","72","80","solotravelgoals-7kLufxYoqWk-unsplash.jpg","darrell-cassell-hoCXpPUMCoE-unsplash.jpg","2","0","115","144","","","","","","","","","","","","","","","","","","","","","","","","","","","",""
"","choice_confirmation","","html-keyboard-response","137","511083","0.0-78.0-2.0-0.0","0","0","JGdx6","Scenes","","null","","","null","","","","22","144","115","","","","","","","","","","","","","","","","","","","","","","","","","","","","","","","","","","","","","",""
"","explain_trial","","survey-text","138","516662","0.0-78.0-5.0-0.0","0","0","JGdx6","Scenes","","5578","{""Q0"":""I like seeing the beach""}","","","","","","22","144","115","","","","","","","","","","","{""Q0"":""I like seeing the beach""}","","","","","","","","","","","","","","","","","","","","","","","","","","",""
"","fixation","","html-keyboard-response","139","517674","0.0-79.0-0.0","0","0","JGdx6","Scenes","","null","","","null","","","","","","","","","","","","","","","","","","","","","","","","","","","","","","","","","","","","","","","","","","","",""
"","deliberation","","html-keyboard-response","140","519345","0.0-79.0-1.0","0","0","JGdx6","Scenes","","1670","","","68","","","","23","124","133","1","-1","42","36","johannes-plenio-sPt5RIjKfpk-unsplash.jpg","mickey-o-neil-xL66l--msXU-unsplash.jpg","2","1","124","133","","","","","","","","","","","","","","","","","","","","","","","","","","","",""
"","choice_confirmation","","html-keyboard-response","141","519847","0.0-79.0-2.0-0.0","0","0","JGdx6","Scenes","","null","","","null","","","","23","124","133","","","","","","","","","","","","","","","","","","","","","","","","","","","","","","","","","","","","","",""
"","explain_trial","","survey-text","142","529942","0.0-79.0-5.0-0.0","0","0","JGdx6","Scenes","","10092","{""Q0"":""the lighting makes it look like heaven""}","","","","","","23","124","133","","","","","","","","","","","{""Q0"":""the lighting makes it look like heaven""}","","","","","","","","","","","","","","","","","","","","","","","","","","",""
"","start_critical_deliberation_block","","html-keyboard-response","143","533100","0.0-79.0-7.0-0.0","0","0","JGdx6","Scenes","","3156","","","78","","","","","","","","","","","","","","","","","","","","","","","","","","","","","","","","","","","","","","","","","","","",""
"","fixation","","html-keyboard-response","144","534104","0.0-80.0-0.0","0","0","JGdx6","Scenes","","null","","","null","","","","","","","","","","","","","","","","","","","","","","","","","","","","","","","","","","","","","","","","","","","",""
"","deliberation","","html-keyboard-response","145","536643","0.0-80.0-1.0","0","0","JGdx6","Scenes","","2537","","","68","","","","24","124","133","0","-1","42","36","johannes-plenio-sPt5RIjKfpk-unsplash.jpg","mickey-o-neil-xL66l--msXU-unsplash.jpg","3","1","124","133","","","","","","","","","","","","","","","","","","","","","","","","","","","",""
"","choice_confirmation","","html-keyboard-response","146","537146","0.0-80.0-2.0-0.0","0","0","JGdx6","Scenes","","null","","","null","","","","24","124","133","","","","","","","","","","","","","","","","","","","","","","","","","","","","","","","","","","","","","",""
"","fixation","","html-keyboard-response","147","538152","0.0-81.0-0.0","0","0","JGdx6","Scenes","","null","","","null","","","","","","","","","","","","","","","","","","","","","","","","","","","","","","","","","","","","","","","","","","","",""
"","deliberation","","html-keyboard-response","148","538956","0.0-81.0-1.0","0","0","JGdx6","Scenes","","802","","","75","","","","25","145","120","0","1","32","77","stephen-leonardi-gyIRjKPXupE-unsplash.jpg","jarrett-kow-1ZOyYPOBn7I-unsplash.jpg","3","0","120","145","","","","","","","","","","","","","","","","","","","","","","","","","","","",""
"","choice_confirmation","","html-keyboard-response","149","539461","0.0-81.0-2.0-0.0","0","0","JGdx6","Scenes","","null","","","null","","","","25","145","120","","","","","","","","","","","","","","","","","","","","","","","","","","","","","","","","","","","","","",""
"","fixation","","html-keyboard-response","150","540467","0.0-82.0-0.0","0","0","JGdx6","Scenes","","null","","","null","","","","","","","","","","","","","","","","","","","","","","","","","","","","","","","","","","","","","","","","","","","",""
"","deliberation","","html-keyboard-response","151","541181","0.0-82.0-1.0","0","0","JGdx6","Scenes","","712","","","68","","","","26","139","127","0","-1","79","61","samsommer-vddccTqwal8-unsplash.jpg","kace-rodriguez-p3OzJuT_Dks-unsplash.jpg","3","1","139","127","","","","","","","","","","","","","","","","","","","","","","","","","","","",""
"","choice_confirmation","","html-keyboard-response","152","541684","0.0-82.0-2.0-0.0","0","0","JGdx6","Scenes","","null","","","null","","","","26","139","127","","","","","","","","","","","","","","","","","","","","","","","","","","","","","","","","","","","","","",""
"","fixation","","html-keyboard-response","153","542686","0.0-83.0-0.0","0","0","JGdx6","Scenes","","null","","","null","","","","","","","","","","","","","","","","","","","","","","","","","","","","","","","","","","","","","","","","","","","",""
"","deliberation","","html-keyboard-response","154","543760","0.0-83.0-1.0","0","0","JGdx6","Scenes","","1071","","","68","","","","27","110","100","0","1","74","80","bruno-van-der-kraan-qez8mNJ3ilU-unsplash.jpg","aleksandra-boguslawska-MS7KD9Ti7FQ-unsplash.jpg","3","1","110","100","","","","","","","","","","","","","","","","","","","","","","","","","","","",""
"","choice_confirmation","","html-keyboard-response","155","544266","0.0-83.0-2.0-0.0","0","0","JGdx6","Scenes","","null","","","null","","","","27","110","100","","","","","","","","","","","","","","","","","","","","","","","","","","","","","","","","","","","","","",""
"","fixation","","html-keyboard-response","156","545273","0.0-84.0-0.0","0","0","JGdx6","Scenes","","null","","","null","","","","","","","","","","","","","","","","","","","","","","","","","","","","","","","","","","","","","","","","","","","",""
"","deliberation","","html-keyboard-response","157","545985","0.0-84.0-1.0","0","0","JGdx6","Scenes","","710","","","75","","","","28","116","123","0","1","38","39","david-marcu-W5MhJ6cy1So-unsplash.jpg","joel-jasmin-forestbird-efuwb5eBDrI-unsplash.jpg","3","0","123","116","","","","","","","","","","","","","","","","","","","","","","","","","","","",""
"","choice_confirmation","","html-keyboard-response","158","546488","0.0-84.0-2.0-0.0","0","0","JGdx6","Scenes","","null","","","null","","","","28","116","123","","","","","","","","","","","","","","","","","","","","","","","","","","","","","","","","","","","","","",""
"","fixation","","html-keyboard-response","159","547495","0.0-85.0-0.0","0","0","JGdx6","Scenes","","null","","","null","","","","","","","","","","","","","","","","","","","","","","","","","","","","","","","","","","","","","","","","","","","",""
"","deliberation","","html-keyboard-response","160","548096","0.0-85.0-1.0","0","0","JGdx6","Scenes","","599","","","75","","","","29","144","115","0","-1","72","80","solotravelgoals-7kLufxYoqWk-unsplash.jpg","darrell-cassell-hoCXpPUMCoE-unsplash.jpg","3","0","115","144","","","","","","","","","","","","","","","","","","","","","","","","","","","",""
"","choice_confirmation","","html-keyboard-response","161","548601","0.0-85.0-2.0-0.0","0","0","JGdx6","Scenes","","null","","","null","","","","29","144","115","","","","","","","","","","","","","","","","","","","","","","","","","","","","","","","","","","","","","",""
"","fixation","","html-keyboard-response","162","549607","0.0-86.0-0.0","0","0","JGdx6","Scenes","","null","","","null","","","","","","","","","","","","","","","","","","","","","","","","","","","","","","","","","","","","","","","","","","","",""
"","deliberation","","html-keyboard-response","163","550503","0.0-86.0-1.0","0","0","JGdx6","Scenes","","895","","","75","","","","30","111","125","0","-1","43","88","claudio-testa-U3F2o6vz3bs-unsplash.jpg","john-lee-oMneOBYhJxY-unsplash.jpg","3","0","125","111","","","","","","","","","","","","","","","","","","","","","","","","","","","",""
"","choice_confirmation","","html-keyboard-response","164","551010","0.0-86.0-2.0-0.0","0","0","JGdx6","Scenes","","null","","","null","","","","30","111","125","","","","","","","","","","","","","","","","","","","","","","","","","","","","","","","","","","","","","",""
"","fixation","","html-keyboard-response","165","552016","0.0-87.0-0.0","0","0","JGdx6","Scenes","","null","","","null","","","","","","","","","","","","","","","","","","","","","","","","","","","","","","","","","","","","","","","","","","","",""
"","deliberation","","html-keyboard-response","166","553205","0.0-87.0-1.0","0","0","JGdx6","Scenes","","1187","","","68","","","","31","147","103","0","-1","62","88","tobias-keller-73F4pKoUkM0-unsplash.jpg","anton-darius-FBJugtbHsWU-unsplash.jpg","3","1","147","103","","","","","","","","","","","","","","","","","","","","","","","","","","","",""
"","choice_confirmation","","html-keyboard-response","167","553710","0.0-87.0-2.0-0.0","0","0","JGdx6","Scenes","","null","","","null","","","","31","147","103","","","","","","","","","","","","","","","","","","","","","","","","","","","","","","","","","","","","","",""
"","fixation","","html-keyboard-response","168","554716","0.0-88.0-0.0","0","0","JGdx6","Scenes","","null","","","null","","","","","","","","","","","","","","","","","","","","","","","","","","","","","","","","","","","","","","","","","","","",""
"","deliberation","","html-keyboard-response","169","555734","0.0-88.0-1.0","0","0","JGdx6","Scenes","","1016","","","75","","","","32","109","122","0","1","77","37","brigitta-schneiter-hXXRLtTxXCU-unsplash.jpg","jeff-king-bJHWJeiHfHc-unsplash.jpg","3","0","122","109","","","","","","","","","","","","","","","","","","","","","","","","","","","",""
"","choice_confirmation","","html-keyboard-response","170","556238","0.0-88.0-2.0-0.0","0","0","JGdx6","Scenes","","null","","","null","","","","32","109","122","","","","","","","","","","","","","","","","","","","","","","","","","","","","","","","","","","","","","",""
"","fixation","","html-keyboard-response","171","557242","0.0-89.0-0.0","0","0","JGdx6","Scenes","","null","","","null","","","","","","","","","","","","","","","","","","","","","","","","","","","","","","","","","","","","","","","","","","","",""
"","deliberation","","html-keyboard-response","172","558173","0.0-89.0-1.0","0","0","JGdx6","Scenes","","929","","","75","","","","33","143","146","0","1","81","69","sigurdur-fjalar-jonsson-1KxBabIntpE-unsplash.jpg","thomas-morse-cuKKa0vWZSY-unsplash.jpg","3","0","146","143","","","","","","","","","","","","","","","","","","","","","","","","","","","",""
"","choice_confirmation","","html-keyboard-response","173","558679","0.0-89.0-2.0-0.0","0","0","JGdx6","Scenes","","null","","","null","","","","33","143","146","","","","","","","","","","","","","","","","","","","","","","","","","","","","","","","","","","","","","",""
"","fixation","","html-keyboard-response","174","559684","0.0-90.0-0.0","0","0","JGdx6","Scenes","","null","","","null","","","","","","","","","","","","","","","","","","","","","","","","","","","","","","","","","","","","","","","","","","","",""
"","deliberation","","html-keyboard-response","175","560414","0.0-90.0-1.0","0","0","JGdx6","Scenes","","728","","","68","","","","34","117","107","0","1","61","29","frank-mckenna-OD9EOzfSOh0-unsplash.jpg","benjamin-davies-Zm2n2O7Fph4-unsplash.jpg","3","1","117","107","","","","","","","","","","","","","","","","","","","","","","","","","","","",""
"","choice_confirmation","","html-keyboard-response","176","560918","0.0-90.0-2.0-0.0","0","0","JGdx6","Scenes","","null","","","null","","","","34","117","107","","","","","","","","","","","","","","","","","","","","","","","","","","","","","","","","","","","","","",""
"","fixation","","html-keyboard-response","177","561924","0.0-91.0-0.0","0","0","JGdx6","Scenes","","null","","","null","","","","","","","","","","","","","","","","","","","","","","","","","","","","","","","","","","","","","","","","","","","",""
"","deliberation","","html-keyboard-response","178","562540","0.0-91.0-1.0","0","0","JGdx6","Scenes","","614","","","68","","","","35","108","135","0","-1","80","33","benjamin-voros-phIFdC6lA4E-unsplash.jpg","mohammad-alizade-4wzRuAb-KWs-unsplash.jpg","3","1","108","135","","","","","","","","","","","","","","","","","","","","","","","","","","","",""
"","choice_confirmation","","html-keyboard-response","179","563051","0.0-91.0-2.0-0.0","0","0","JGdx6","Scenes","","null","","","null","","","","35","108","135","","","","","","","","","","","","","","","","","","","","","","","","","","","","","","","","","","","","","",""
"","reward_learning_instructions","","instructions","180","597983","0.0-92.0-0.0","0","0","JGdx6","Scenes","[{""page_index"":0,""viewing_time"":13766},{""page_index"":1,""viewing_time"":19797},{""page_index"":2,""viewing_time"":1367}]","34930","","","","","","","","","","","","","","","","","","","","","","","","","","","","","","","","","","","","","","","","","","","","","","",""
"","reward_comprehension_check","","survey-multi-choice","181","609473","0.0-92.0-1.0","0","0","JGdx6","Scenes","","11487","{""Q0"":""True"",""Q1"":""True"",""Q2"":""Press the space bar to see its outcome"",""Q3"":""Press the relevant key while the outcome is presented""}","0","","","","","","","","","","","","","","","","","","","","","","","","","","","","","","","","","","","","","","","","","","","","",""
"","start_phase","","html-keyboard-response","182","611675","0.0-93.0","0","0","JGdx6","Scenes","","2198","","","78","","","","","","","","","","","","","","","","","","","","","","","","","","","","","","","","","","","","","","","","","","","",""
"","fixation","","html-keyboard-response","183","612681","0.0-94.0","0","0","JGdx6","Scenes","","null","","","null","","","","","","","","","","","","","","","","","","","","","","","","","","","","","","","","","","","","","","","","","","","",""
"","see_reward","","html-keyboard-response","184","613750","0.0-95.0","0","0","JGdx6","Scenes","","1067","","","32","","117","","0","","","","1","","","","","1","","","","","156","1067","","","","","","","","","","","","","","","","","","","","","","","","",""
"","reward_outcome","","html-keyboard-response","185","615752","0.0-96.0","0","0","JGdx6","Scenes","","1378","","","38","","117","","0","","","","","","","","","","","","","","","","1","1378","","","","","","","","","","","","","","","","","","","","","","",""
"","fixation","","html-keyboard-response","186","616756","0.0-99.0","0","0","JGdx6","Scenes","","null","","","null","","","","","","","","","","","","","","","","","","","","","","","","","","","","","","","","","","","","","","","","","","","",""
"","see_reward","","html-keyboard-response","187","617880","0.0-100.0","0","0","JGdx6","Scenes","","1122","","","32","","139","","1","","","","-1","","","","","1","","","","","0","1122","","","","","","","","","","","","","","","","","","","","","","","","",""
"","reward_outcome","","html-keyboard-response","188","619885","0.0-101.0","0","0","JGdx6","Scenes","","1070","","","40","","139","","1","","","","","","","","","","","","","","","","-1","1070","","","","","","","","","","","","","","","","","","","","","","",""
"","fixation","","html-keyboard-response","189","620888","0.0-104.0","0","0","JGdx6","Scenes","","null","","","null","","","","","","","","","","","","","","","","","","","","","","","","","","","","","","","","","","","","","","","","","","","",""
"","see_reward","","html-keyboard-response","190","621670","0.0-105.0","0","0","JGdx6","Scenes","","780","","","32","","120","","2","","","","1","","","","","1","","","","","150","780","","","","","","","","","","","","","","","","","","","","","","","","",""
"","reward_outcome","","html-keyboard-response","191","623675","0.0-106.0","0","0","JGdx6","Scenes","","888","","","38","","120","","2","","","","","","","","","","","","","","","","1","888","","","","","","","","","","","","","","","","","","","","","","",""
"","fixation","","html-keyboard-response","192","624680","0.0-109.0","0","0","JGdx6","Scenes","","null","","","null","","","","","","","","","","","","","","","","","","","","","","","","","","","","","","","","","","","","","","","","","","","",""
"","see_reward","","html-keyboard-response","193","625334","0.0-110.0","0","0","JGdx6","Scenes","","652","","","32","","110","","3","","","","1","","","","","1","","","","","142","652","","","","","","","","","","","","","","","","","","","","","","","","",""
"","reward_outcome","","html-keyboard-response","194","627346","0.0-111.0","0","0","JGdx6","Scenes","","660","","","38","","110","","3","","","","","","","","","","","","","","","","1","660","","","","","","","","","","","","","","","","","","","","","","",""
"","fixation","","html-keyboard-response","195","628347","0.0-114.0","0","0","JGdx6","Scenes","","null","","","null","","","","","","","","","","","","","","","","","","","","","","","","","","","","","","","","","","","","","","","","","","","",""
"","see_reward","","html-keyboard-response","196","628963","0.0-115.0","0","0","JGdx6","Scenes","","615","","","32","","147","","4","","","","-1","","","","","1","","","","","0","615","","","","","","","","","","","","","","","","","","","","","","","","",""
"","reward_outcome","","html-keyboard-response","197","630970","0.0-116.0","0","0","JGdx6","Scenes","","926","","","40","","147","","4","","","","","","","","","","","","","","","","-1","926","","","","","","","","","","","","","","","","","","","","","","",""
"","fixation","","html-keyboard-response","198","631976","0.0-119.0","0","0","JGdx6","Scenes","","null","","","null","","","","","","","","","","","","","","","","","","","","","","","","","","","","","","","","","","","","","","","","","","","",""
"","see_reward","","html-keyboard-response","199","632577","0.0-120.0","0","0","JGdx6","Scenes","","598","","","32","","124","","5","","","","-1","","","","","1","","","","","0","598","","","","","","","","","","","","","","","","","","","","","","","","",""
"","reward_outcome","","html-keyboard-response","200","634584","0.0-121.0","0","0","JGdx6","Scenes","","900","","","40","","124","","5","","","","","","","","","","","","","","","","-1","900","","","","","","","","","","","","","","","","","","","","","","",""
"","fixation","","html-keyboard-response","201","635590","0.0-124.0","0","0","JGdx6","Scenes","","null","","","null","","","","","","","","","","","","","","","","","","","","","","","","","","","","","","","","","","","","","","","","","","","",""
"","see_reward","","html-keyboard-response","202","635928","0.0-125.0","0","0","JGdx6","Scenes","","336","","","32","","122","","6","","","","1","","","","","1","","","","","146","336","","","","","","","","","","","","","","","","","","","","","","","","",""
"","reward_outcome","","html-keyboard-response","203","637935","0.0-126.0","0","0","JGdx6","Scenes","","1000","","","38","","122","","6","","","","","","","","","","","","","","","","1","1000","","","","","","","","","","","","","","","","","","","","","","",""
"","fixation","","html-keyboard-response","204","638941","0.0-129.0","0","0","JGdx6","Scenes","","null","","","null","","","","","","","","","","","","","","","","","","","","","","","","","","","","","","","","","","","","","","","","","","","",""
"","see_reward","","html-keyboard-response","205","639498","0.0-130.0","0","0","JGdx6","Scenes","","556","","","32","","123","","7","","","","1","","","","","1","","","","","159","556","","","","","","","","","","","","","","","","","","","","","","","","",""
"","reward_outcome","","html-keyboard-response","206","641503","0.0-131.0","0","0","JGdx6","Scenes","","1249","","","38","","123","","7","","","","","","","","","","","","","","","","1","1249","","","","","","","","","","","","","","","","","","","","","","",""
"","fixation","","html-keyboard-response","207","642510","0.0-134.0","0","0","JGdx6","Scenes","","null","","","null","","","","","","","","","","","","","","","","","","","","","","","","","","","","","","","","","","","","","","","","","","","",""
"","see_reward","","html-keyboard-response","208","643118","0.0-135.0","0","0","JGdx6","Scenes","","607","","","32","","122","","8","","","","1","","","","","1","","","","","146","607","","","","","","","","","","","","","","","","","","","","","","","","",""
"","reward_outcome","","html-keyboard-response","209","645123","0.0-136.0","0","0","JGdx6","Scenes","","750","","","38","","122","","8","","","","","","","","","","","","","","","","1","750","","","","","","","","","","","","","","","","","","","","","","",""
"","fixation","","html-keyboard-response","210","646129","0.0-139.0","0","0","JGdx6","Scenes","","null","","","null","","","","","","","","","","","","","","","","","","","","","","","","","","","","","","","","","","","","","","","","","","","",""
"","see_reward","","html-keyboard-response","211","646542","0.0-140.0","0","0","JGdx6","Scenes","","411","","","32","","147","","9","","","","-1","","","","","1","","","","","0","411","","","","","","","","","","","","","","","","","","","","","","","","",""
"","reward_outcome","","html-keyboard-response","212","648548","0.0-141.0","0","0","JGdx6","Scenes","","1102","","","40","","147","","9","","","","","","","","","","","","","","","","-1","1102","","","","","","","","","","","","","","","","","","","","","","",""
"","fixation","","html-keyboard-response","213","649555","0.0-144.0","0","0","JGdx6","Scenes","","null","","","null","","","","","","","","","","","","","","","","","","","","","","","","","","","","","","","","","","","","","","","","","","","",""
"","see_reward","","html-keyboard-response","214","650260","0.0-145.0","0","0","JGdx6","Scenes","","703","","","32","","146","","10","","","","1","","","","","1","","","","","159","703","","","","","","","","","","","","","","","","","","","","","","","","",""
"","reward_outcome","","html-keyboard-response","215","652266","0.0-146.0","0","0","JGdx6","Scenes","","552","","","38","","146","","10","","","","","","","","","","","","","","","","1","552","","","","","","","","","","","","","","","","","","","","","","",""
"","fixation","","html-keyboard-response","216","653273","0.0-149.0","0","0","JGdx6","Scenes","","null","","","null","","","","","","","","","","","","","","","","","","","","","","","","","","","","","","","","","","","","","","","","","","","",""
"","see_reward","","html-keyboard-response","217","653766","0.0-150.0","0","0","JGdx6","Scenes","","490","","","32","","117","","11","","","","1","","","","","1","","","","","156","490","","","","","","","","","","","","","","","","","","","","","","","","",""
"","reward_outcome","","html-keyboard-response","218","655770","0.0-151.0","0","0","JGdx6","Scenes","","610","","","38","","117","","11","","","","","","","","","","","","","","","","1","610","","","","","","","","","","","","","","","","","","","","","","",""
"","fixation","","html-keyboard-response","219","656773","0.0-154.0","0","0","JGdx6","Scenes","","null","","","null","","","","","","","","","","","","","","","","","","","","","","","","","","","","","","","","","","","","","","","","","","","",""
"","see_reward","","html-keyboard-response","220","657251","0.0-155.0","0","0","JGdx6","Scenes","","476","","","32","","125","","12","","","","-1","","","","","1","","","","","0","476","","","","","","","","","","","","","","","","","","","","","","","","",""
"","reward_outcome","","html-keyboard-response","221","659257","0.0-156.0","0","0","JGdx6","Scenes","","951","","","40","","125","","12","","","","","","","","","","","","","","","","-1","951","","","","","","","","","","","","","","","","","","","","","","",""
"","fixation","","html-keyboard-response","222","660264","0.0-159.0","0","0","JGdx6","Scenes","","null","","","null","","","","","","","","","","","","","","","","","","","","","","","","","","","","","","","","","","","","","","","","","","","",""
"","see_reward","","html-keyboard-response","223","660914","0.0-160.0","0","0","JGdx6","Scenes","","647","","","32","","110","","13","","","","1","","","","","1","","","","","142","647","","","","","","","","","","","","","","","","","","","","","","","","",""
"","reward_outcome","","html-keyboard-response","224","662920","0.0-161.0","0","0","JGdx6","Scenes","","959","","","38","","110","","13","","","","","","","","","","","","","","","","1","959","","","","","","","","","","","","","","","","","","","","","","",""
"","fixation","","html-keyboard-response","225","663927","0.0-164.0","0","0","JGdx6","Scenes","","null","","","null","","","","","","","","","","","","","","","","","","","","","","","","","","","","","","","","","","","","","","","","","","","",""
"","see_reward","","html-keyboard-response","226","664415","0.0-165.0","0","0","JGdx6","Scenes","","486","","","32","","120","","14","","","","1","","","","","1","","","","","150","486","","","","","","","","","","","","","","","","","","","","","","","","",""
"","reward_outcome","","html-keyboard-response","227","666421","0.0-166.0","0","0","JGdx6","Scenes","","1051","","","38","","120","","14","","","","","","","","","","","","","","","","1","1051","","","","","","","","","","","","","","","","","","","","","","",""
"","fixation","","html-keyboard-response","228","667427","0.0-169.0","0","0","JGdx6","Scenes","","null","","","null","","","","","","","","","","","","","","","","","","","","","","","","","","","","","","","","","","","","","","","","","","","",""
"","see_reward","","html-keyboard-response","229","667707","0.0-170.0","0","0","JGdx6","Scenes","","277","","","32","","124","","15","","","","-1","","","","","1","","","","","0","277","","","","","","","","","","","","","","","","","","","","","","","","",""
"","reward_outcome","","html-keyboard-response","230","669714","0.0-171.0","0","0","JGdx6","Scenes","","836","","","40","","124","","15","","","","","","","","","","","","","","","","-1","836","","","","","","","","","","","","","","","","","","","","","","",""
"","fixation","","html-keyboard-response","231","670727","0.0-174.0","0","0","JGdx6","Scenes","","null","","","null","","","","","","","","","","","","","","","","","","","","","","","","","","","","","","","","","","","","","","","","","","","",""
"","see_reward","","html-keyboard-response","232","671026","0.0-175.0","0","0","JGdx6","Scenes","","297","","","32","","146","","16","","","","1","","","","","1","","","","","159","297","","","","","","","","","","","","","","","","","","","","","","","","",""
"","reward_outcome","","html-keyboard-response","233","673032","0.0-176.0","0","0","JGdx6","Scenes","","777","","","38","","146","","16","","","","","","","","","","","","","","","","1","777","","","","","","","","","","","","","","","","","","","","","","",""
"","fixation","","html-keyboard-response","234","674038","0.0-179.0","0","0","JGdx6","Scenes","","null","","","null","","","","","","","","","","","","","","","","","","","","","","","","","","","","","","","","","","","","","","","","","","","",""
"","see_reward","","html-keyboard-response","235","674528","0.0-180.0","0","0","JGdx6","Scenes","","489","","","32","","125","","17","","","","-1","","","","","1","","","","","0","489","","","","","","","","","","","","","","","","","","","","","","","","",""
"","reward_outcome","","html-keyboard-response","236","676534","0.0-181.0","0","0","JGdx6","Scenes","","761","","","40","","125","","17","","","","","","","","","","","","","","","","-1","761","","","","","","","","","","","","","","","","","","","","","","",""
"","fixation","","html-keyboard-response","237","677540","0.0-184.0","0","0","JGdx6","Scenes","","null","","","null","","","","","","","","","","","","","","","","","","","","","","","","","","","","","","","","","","","","","","","","","","","",""
"","see_reward","","html-keyboard-response","238","678193","0.0-185.0","0","0","JGdx6","Scenes","","652","","","32","","139","","18","","","","-1","","","","","1","","","","","0","652","","","","","","","","","","","","","","","","","","","","","","","","",""
"","reward_outcome","","html-keyboard-response","239","680198","0.0-186.0","0","0","JGdx6","Scenes","","1124","","","40","","139","","18","","","","","","","","","","","","","","","","-1","1124","","","","","","","","","","","","","","","","","","","","","","",""
"","fixation","","html-keyboard-response","240","681205","0.0-189.0","0","0","JGdx6","Scenes","","null","","","null","","","","","","","","","","","","","","","","","","","","","","","","","","","","","","","","","","","","","","","","","","","",""
"","see_reward","","html-keyboard-response","241","681600","0.0-190.0","0","0","JGdx6","Scenes","","393","","","32","","123","","19","","","","1","","","","","1","","","","","159","393","","","","","","","","","","","","","","","","","","","","","","","","",""
"","reward_outcome","","html-keyboard-response","242","683606","0.0-191.0","0","0","JGdx6","Scenes","","733","","","38","","123","","19","","","","","","","","","","","","","","","","1","733","","","","","","","","","","","","","","","","","","","","","","",""
"","fixation","","html-keyboard-response","243","684612","0.0-194.0","0","0","JGdx6","Scenes","","null","","","null","","","","","","","","","","","","","","","","","","","","","","","","","","","","","","","","","","","","","","","","","","","",""
"","see_reward","","html-keyboard-response","244","685130","0.0-195.0","0","0","JGdx6","Scenes","","515","","","32","","108","","20","","","","-1","","","","","1","","","","","0","515","","","","","","","","","","","","","","","","","","","","","","","","",""
"","reward_outcome","","html-keyboard-response","245","687135","0.0-196.0","0","0","JGdx6","Scenes","","773","","","40","","108","","20","","","","","","","","","","","","","","","","-1","773","","","","","","","","","","","","","","","","","","","","","","",""
"","fixation","","html-keyboard-response","246","688142","0.0-199.0","0","0","JGdx6","Scenes","","null","","","null","","","","","","","","","","","","","","","","","","","","","","","","","","","","","","","","","","","","","","","","","","","",""
"","see_reward","","html-keyboard-response","247","688567","0.0-200.0","0","0","JGdx6","Scenes","","424","","","32","","115","","21","","","","-1","","","","","1","","","","","0","424","","","","","","","","","","","","","","","","","","","","","","","","",""
"","reward_outcome","","html-keyboard-response","248","690573","0.0-201.0","0","0","JGdx6","Scenes","","691","","","40","","115","","21","","","","","","","","","","","","","","","","-1","691","","","","","","","","","","","","","","","","","","","","","","",""
"","fixation","","html-keyboard-response","249","691578","0.0-204.0","0","0","JGdx6","Scenes","","null","","","null","","","","","","","","","","","","","","","","","","","","","","","","","","","","","","","","","","","","","","","","","","","",""
"","see_reward","","html-keyboard-response","250","692051","0.0-205.0","0","0","JGdx6","Scenes","","471","","","32","","115","","22","","","","-1","","","","","1","","","","","0","471","","","","","","","","","","","","","","","","","","","","","","","","",""
"","reward_outcome","","html-keyboard-response","251","694059","0.0-206.0","0","0","JGdx6","Scenes","","1371","","","40","","115","","22","","","","","","","","","","","","","","","","-1","1371","","","","","","","","","","","","","","","","","","","","","","",""
"","fixation","","html-keyboard-response","252","695066","0.0-209.0","0","0","JGdx6","Scenes","","null","","","null","","","","","","","","","","","","","","","","","","","","","","","","","","","","","","","","","","","","","","","","","","","",""
"","see_reward","","html-keyboard-response","253","695392","0.0-210.0","0","0","JGdx6","Scenes","","324","","","32","","108","","23","","","","-1","","","","","1","","","","","0","324","","","","","","","","","","","","","","","","","","","","","","","","",""
"","reward_outcome","","html-keyboard-response","254","697398","0.0-211.0","0","0","JGdx6","Scenes","","731","","","40","","108","","23","","","","","","","","","","","","","","","","-1","731","","","","","","","","","","","","","","","","","","","","","","",""
"","block_over","","html-keyboard-response","255","699306","0.0-213.0-0.0","0","0","JGdx6","Scenes","","1906","","","78","","","","","","","","","","","","","","","","","","","","","","","","","","","","","","","","","","","","","","","","","","","",""
"","fixation","","html-keyboard-response","256","700309","0.0-214.0","0","0","JGdx6","Scenes","","null","","","null","","","","","","","","","","","","","","","","","","","","","","","","","","","","","","","","","","","","","","","","","","","",""
"","see_reward","","html-keyboard-response","257","701245","0.0-215.0","0","0","JGdx6","Scenes","","935","","","32","","125","","24","","","","-1","","","","","2","","","","","0","935","","","","","","","","","","","","","","","","","","","","","","","","",""
"","reward_outcome","","html-keyboard-response","258","703251","0.0-216.0","0","0","JGdx6","Scenes","","673","","","40","","125","","24","","","","","","","","","","","","","","","","-1","673","","","","","","","","","","","","","","","","","","","","","","",""
"","fixation","","html-keyboard-response","259","704256","0.0-219.0","0","0","JGdx6","Scenes","","null","","","null","","","","","","","","","","","","","","","","","","","","","","","","","","","","","","","","","","","","","","","","","","","",""
"","see_reward","","html-keyboard-response","260","704757","0.0-220.0","0","0","JGdx6","Scenes","","500","","","32","","123","","25","","","","1","","","","","2","","","","","159","500","","","","","","","","","","","","","","","","","","","","","","","","",""
"","reward_outcome","","html-keyboard-response","261","706764","0.0-221.0","0","0","JGdx6","Scenes","","597","","","38","","123","","25","","","","","","","","","","","","","","","","1","597","","","","","","","","","","","","","","","","","","","","","","",""
"","fixation","","html-keyboard-response","262","707770","0.0-224.0","0","0","JGdx6","Scenes","","null","","","null","","","","","","","","","","","","","","","","","","","","","","","","","","","","","","","","","","","","","","","","","","","",""
"","see_reward","","html-keyboard-response","263","708122","0.0-225.0","0","0","JGdx6","Scenes","","350","","","32","","146","","26","","","","1","","","","","2","","","","","159","350","","","","","","","","","","","","","","","","","","","","","","","","",""
"","reward_outcome","","html-keyboard-response","264","710129","0.0-226.0","0","0","JGdx6","Scenes","","458","","","38","","146","","26","","","","","","","","","","","","","","","","1","458","","","","","","","","","","","","","","","","","","","","","","",""
"","fixation","","html-keyboard-response","265","711133","0.0-229.0","0","0","JGdx6","Scenes","","null","","","null","","","","","","","","","","","","","","","","","","","","","","","","","","","","","","","","","","","","","","","","","","","",""
"","see_reward","","html-keyboard-response","266","711697","0.0-230.0","0","0","JGdx6","Scenes","","563","","","32","","139","","27","","","","-1","","","","","2","","","","","0","563","","","","","","","","","","","","","","","","","","","","","","","","",""
"","reward_outcome","","html-keyboard-response","267","713703","0.0-231.0","0","0","JGdx6","Scenes","","463","","","40","","139","","27","","","","","","","","","","","","","","","","-1","463","","","","","","","","","","","","","","","","","","","","","","",""
"","fixation","","html-keyboard-response","268","714709","0.0-234.0","0","0","JGdx6","Scenes","","null","","","null","","","","","","","","","","","","","","","","","","","","","","","","","","","","","","","","","","","","","","","","","","","",""
"","see_reward","","html-keyboard-response","269","715231","0.0-235.0","0","0","JGdx6","Scenes","","520","","","32","","108","","28","","","","-1","","","","","2","","","","","0","520","","","","","","","","","","","","","","","","","","","","","","","","",""
"","reward_outcome","","html-keyboard-response","270","717238","0.0-236.0","0","0","JGdx6","Scenes","","609","","","40","","108","","28","","","","","","","","","","","","","","","","-1","609","","","","","","","","","","","","","","","","","","","","","","",""
"","fixation","","html-keyboard-response","271","718245","0.0-239.0","0","0","JGdx6","Scenes","","null","","","null","","","","","","","","","","","","","","","","","","","","","","","","","","","","","","","","","","","","","","","","","","","",""
"","see_reward","","html-keyboard-response","272","718667","0.0-240.0","0","0","JGdx6","Scenes","","421","","","32","","110","","29","","","","1","","","","","2","","","","","142","421","","","","","","","","","","","","","","","","","","","","","","","","",""
"","reward_outcome","","html-keyboard-response","273","720671","0.0-241.0","0","0","JGdx6","Scenes","","440","","","38","","110","","29","","","","","","","","","","","","","","","","1","440","","","","","","","","","","","","","","","","","","","","","","",""
"","fixation","","html-keyboard-response","274","721677","0.0-244.0","0","0","JGdx6","Scenes","","null","","","null","","","","","","","","","","","","","","","","","","","","","","","","","","","","","","","","","","","","","","","","","","","",""
"","see_reward","","html-keyboard-response","275","722101","0.0-245.0","0","0","JGdx6","Scenes","","422","","","32","","123","","30","","","","1","","","","","2","","","","","159","422","","","","","","","","","","","","","","","","","","","","","","","","",""
"","reward_outcome","","html-keyboard-response","276","724107","0.0-246.0","0","0","JGdx6","Scenes","","421","","","38","","123","","30","","","","","","","","","","","","","","","","1","421","","","","","","","","","","","","","","","","","","","","","","",""
"","fixation","","html-keyboard-response","277","725114","0.0-249.0","0","0","JGdx6","Scenes","","null","","","null","","","","","","","","","","","","","","","","","","","","","","","","","","","","","","","","","","","","","","","","","","","",""
"","see_reward","","html-keyboard-response","278","725627","0.0-250.0","0","0","JGdx6","Scenes","","511","","","32","","120","","31","","","","1","","","","","2","","","","","150","511","","","","","","","","","","","","","","","","","","","","","","","","",""
"","reward_outcome","","html-keyboard-response","279","727630","0.0-251.0","0","0","JGdx6","Scenes","","496","","","38","","120","","31","","","","","","","","","","","","","","","","1","496","","","","","","","","","","","","","","","","","","","","","","",""
"","fixation","","html-keyboard-response","280","728636","0.0-254.0","0","0","JGdx6","Scenes","","null","","","null","","","","","","","","","","","","","","","","","","","","","","","","","","","","","","","","","","","","","","","","","","","",""
"","see_reward","","html-keyboard-response","281","729067","0.0-255.0","0","0","JGdx6","Scenes","","429","","","32","","120","","32","","","","1","","","","","2","","","","","150","429","","","","","","","","","","","","","","","","","","","","","","","","",""
"","reward_outcome","","html-keyboard-response","282","731074","0.0-256.0","0","0","JGdx6","Scenes","","618","","","38","","120","","32","","","","","","","","","","","","","","","","1","618","","","","","","","","","","","","","","","","","","","","","","",""
"","fixation","","html-keyboard-response","283","732079","0.0-259.0","0","0","JGdx6","Scenes","","null","","","null","","","","","","","","","","","","","","","","","","","","","","","","","","","","","","","","","","","","","","","","","","","",""
"","see_reward","","html-keyboard-response","284","732556","0.0-260.0","0","0","JGdx6","Scenes","","475","","","32","","117","","33","","","","1","","","","","2","","","","","156","475","","","","","","","","","","","","","","","","","","","","","","","","",""
"","reward_outcome","","html-keyboard-response","285","734561","0.0-261.0","0","0","JGdx6","Scenes","","489","","","38","","117","","33","","","","","","","","","","","","","","","","1","489","","","","","","","","","","","","","","","","","","","","","","",""
"","fixation","","html-keyboard-response","286","735565","0.0-264.0","0","0","JGdx6","Scenes","","null","","","null","","","","","","","","","","","","","","","","","","","","","","","","","","","","","","","","","","","","","","","","","","","",""
"","see_reward","","html-keyboard-response","287","736043","0.0-265.0","0","0","JGdx6","Scenes","","477","","","32","","122","","34","","","","1","","","","","2","","","","","146","477","","","","","","","","","","","","","","","","","","","","","","","","",""
"","reward_outcome","","html-keyboard-response","288","738050","0.0-266.0","0","0","JGdx6","Scenes","","662","","","38","","122","","34","","","","","","","","","","","","","","","","1","662","","","","","","","","","","","","","","","","","","","","","","",""
"","fixation","","html-keyboard-response","289","739056","0.0-269.0","0","0","JGdx6","Scenes","","null","","","null","","","","","","","","","","","","","","","","","","","","","","","","","","","","","","","","","","","","","","","","","","","",""
"","see_reward","","html-keyboard-response","290","739587","0.0-270.0","0","0","JGdx6","Scenes","","528","","","32","","115","","35","","","","-1","","","","","2","","","","","0","528","","","","","","","","","","","","","","","","","","","","","","","","",""
"","reward_outcome","","html-keyboard-response","291","741590","0.0-271.0","0","0","JGdx6","Scenes","","561","","","40","","115","","35","","","","","","","","","","","","","","","","-1","561","","","","","","","","","","","","","","","","","","","","","","",""
"","fixation","","html-keyboard-response","292","742595","0.0-274.0","0","0","JGdx6","Scenes","","null","","","null","","","","","","","","","","","","","","","","","","","","","","","","","","","","","","","","","","","","","","","","","","","",""
"","see_reward","","html-keyboard-response","293","742946","0.0-275.0","0","0","JGdx6","Scenes","","348","","","32","","146","","36","","","","1","","","","","2","","","","","159","348","","","","","","","","","","","","","","","","","","","","","","","","",""
"","reward_outcome","","html-keyboard-response","294","744952","0.0-276.0","0","0","JGdx6","Scenes","","944","","","38","","146","","36","","","","","","","","","","","","","","","","1","944","","","","","","","","","","","","","","","","","","","","","","",""
"","fixation","","html-keyboard-response","295","745958","0.0-279.0","0","0","JGdx6","Scenes","","null","","","null","","","","","","","","","","","","","","","","","","","","","","","","","","","","","","","","","","","","","","","","","","","",""
"","see_reward","","html-keyboard-response","296","746343","0.0-280.0","0","0","JGdx6","Scenes","","384","","","32","","124","","37","","","","-1","","","","","2","","","","","0","384","","","","","","","","","","","","","","","","","","","","","","","","",""
"","reward_outcome","","html-keyboard-response","297","748348","0.0-281.0","0","0","JGdx6","Scenes","","531","","","40","","124","","37","","","","","","","","","","","","","","","","-1","531","","","","","","","","","","","","","","","","","","","","","","",""
"","fixation","","html-keyboard-response","298","749356","0.0-284.0","0","0","JGdx6","Scenes","","null","","","null","","","","","","","","","","","","","","","","","","","","","","","","","","","","","","","","","","","","","","","","","","","",""
"","see_reward","","html-keyboard-response","299","749841","0.0-285.0","0","0","JGdx6","Scenes","","484","","","32","","124","","38","","","","-1","","","","","2","","","","","0","484","","","","","","","","","","","","","","","","","","","","","","","","",""
"","reward_outcome","","html-keyboard-response","300","751847","0.0-286.0","0","0","JGdx6","Scenes","","611","","","40","","124","","38","","","","","","","","","","","","","","","","-1","611","","","","","","","","","","","","","","","","","","","","","","",""
"","fixation","","html-keyboard-response","301","752852","0.0-289.0","0","0","JGdx6","Scenes","","null","","","null","","","","","","","","","","","","","","","","","","","","","","","","","","","","","","","","","","","","","","","","","","","",""
"","see_reward","","html-keyboard-response","302","753210","0.0-290.0","0","0","JGdx6","Scenes","","358","","","32","","147","","39","","","","-1","","","","","2","","","","","0","358","","","","","","","","","","","","","","","","","","","","","","","","",""
"","reward_outcome","","html-keyboard-response","303","755216","0.0-291.0","0","0","JGdx6","Scenes","","521","","","40","","147","","39","","","","","","","","","","","","","","","","-1","521","","","","","","","","","","","","","","","","","","","","","","",""
"","fixation","","html-keyboard-response","304","756222","0.0-294.0","0","0","JGdx6","Scenes","","null","","","null","","","","","","","","","","","","","","","","","","","","","","","","","","","","","","","","","","","","","","","","","","","",""
"","see_reward","","html-keyboard-response","305","756657","0.0-295.0","0","0","JGdx6","Scenes","","433","","","32","","125","","40","","","","-1","","","","","2","","","","","0","433","","","","","","","","","","","","","","","","","","","","","","","","",""
"","reward_outcome","","html-keyboard-response","306","758664","0.0-296.0","0","0","JGdx6","Scenes","","549","","","40","","125","","40","","","","","","","","","","","","","","","","-1","549","","","","","","","","","","","","","","","","","","","","","","",""
"","fixation","","html-keyboard-response","307","759674","0.0-299.0","0","0","JGdx6","Scenes","","null","","","null","","","","","","","","","","","","","","","","","","","","","","","","","","","","","","","","","","","","","","","","","","","",""
"","see_reward","","html-keyboard-response","308","759940","0.0-300.0","0","0","JGdx6","Scenes","","264","","","32","","108","","41","","","","-1","","","","","2","","","","","0","264","","","","","","","","","","","","","","","","","","","","","","","","",""
"","reward_outcome","","html-keyboard-response","309","761947","0.0-301.0","0","0","JGdx6","Scenes","","608","","","40","","108","","41","","","","","","","","","","","","","","","","-1","608","","","","","","","","","","","","","","","","","","","","","","",""
"","fixation","","html-keyboard-response","310","762953","0.0-304.0","0","0","JGdx6","Scenes","","null","","","null","","","","","","","","","","","","","","","","","","","","","","","","","","","","","","","","","","","","","","","","","","","",""
"","see_reward","","html-keyboard-response","311","763362","0.0-305.0","0","0","JGdx6","Scenes","","408","","","32","","115","","42","","","","-1","","","","","2","","","","","0","408","","","","","","","","","","","","","","","","","","","","","","","","",""
"","reward_outcome","","html-keyboard-response","312","765368","0.0-306.0","0","0","JGdx6","Scenes","","627","","","40","","115","","42","","","","","","","","","","","","","","","","-1","627","","","","","","","","","","","","","","","","","","","","","","",""
"","fixation","","html-keyboard-response","313","766374","0.0-309.0","0","0","JGdx6","Scenes","","null","","","null","","","","","","","","","","","","","","","","","","","","","","","","","","","","","","","","","","","","","","","","","","","",""
"","see_reward","","html-keyboard-response","314","766784","0.0-310.0","0","0","JGdx6","Scenes","","408","","","32","","110","","43","","","","1","","","","","2","","","","","142","408","","","","","","","","","","","","","","","","","","","","","","","","",""
"","reward_outcome","","html-keyboard-response","315","768791","0.0-311.0","0","0","JGdx6","Scenes","","702","","","38","","110","","43","","","","","","","","","","","","","","","","1","702","","","","","","","","","","","","","","","","","","","","","","",""
"","fixation","","html-keyboard-response","316","769795","0.0-314.0","0","0","JGdx6","Scenes","","null","","","null","","","","","","","","","","","","","","","","","","","","","","","","","","","","","","","","","","","","","","","","","","","",""
"","see_reward","","html-keyboard-response","317","770081","0.0-315.0","0","0","JGdx6","Scenes","","284","","","32","","122","","44","","","","1","","","","","2","","","","","146","284","","","","","","","","","","","","","","","","","","","","","","","","",""
"","reward_outcome","","html-keyboard-response","318","772088","0.0-316.0","0","0","JGdx6","Scenes","","468","","","38","","122","","44","","","","","","","","","","","","","","","","1","468","","","","","","","","","","","","","","","","","","","","","","",""
"","fixation","","html-keyboard-response","319","773092","0.0-319.0","0","0","JGdx6","Scenes","","null","","","null","","","","","","","","","","","","","","","","","","","","","","","","","","","","","","","","","","","","","","","","","","","",""
"","see_reward","","html-keyboard-response","320","773528","0.0-320.0","0","0","JGdx6","Scenes","","434","","","32","","147","","45","","","","-1","","","","","2","","","","","0","434","","","","","","","","","","","","","","","","","","","","","","","","",""
"","reward_outcome","","html-keyboard-response","321","775534","0.0-321.0","0","0","JGdx6","Scenes","","569","","","40","","147","","45","","","","","","","","","","","","","","","","-1","569","","","","","","","","","","","","","","","","","","","","","","",""
"","fixation","","html-keyboard-response","322","776540","0.0-324.0","0","0","JGdx6","Scenes","","null","","","null","","","","","","","","","","","","","","","","","","","","","","","","","","","","","","","","","","","","","","","","","","","",""
"","see_reward","","html-keyboard-response","323","777014","0.0-325.0","0","0","JGdx6","Scenes","","472","","","32","","139","","46","","","","-1","","","","","2","","","","","0","472","","","","","","","","","","","","","","","","","","","","","","","","",""
"","reward_outcome","","html-keyboard-response","324","779020","0.0-326.0","0","0","JGdx6","Scenes","","534","","","40","","139","","46","","","","","","","","","","","","","","","","-1","534","","","","","","","","","","","","","","","","","","","","","","",""
"","fixation","","html-keyboard-response","325","780025","0.0-329.0","0","0","JGdx6","Scenes","","null","","","null","","","","","","","","","","","","","","","","","","","","","","","","","","","","","","","","","","","","","","","","","","","",""
"","see_reward","","html-keyboard-response","326","780424","0.0-330.0","0","0","JGdx6","Scenes","","397","","","32","","117","","47","","","","1","","","","","2","","","","","156","397","","","","","","","","","","","","","","","","","","","","","","","","",""
"","reward_outcome","","html-keyboard-response","327","782430","0.0-331.0","0","0","JGdx6","Scenes","","599","","","38","","117","","47","","","","","","","","","","","","","","","","1","599","","","","","","","","","","","","","","","","","","","","","","",""
"","block_over","","html-keyboard-response","328","784236","0.0-333.0-0.0","0","0","JGdx6","Scenes","","1804","","","78","","","","","","","","","","","","","","","","","","","","","","","","","","","","","","","","","","","","","","","","","","","",""
"","fixation","","html-keyboard-response","329","785241","0.0-334.0","0","0","JGdx6","Scenes","","null","","","null","","","","","","","","","","","","","","","","","","","","","","","","","","","","","","","","","","","","","","","","","","","",""
"","see_reward","","html-keyboard-response","330","785860","0.0-335.0","0","0","JGdx6","Scenes","","616","","","32","","115","","48","","","","-1","","","","","3","","","","","0","616","","","","","","","","","","","","","","","","","","","","","","","","",""
"","reward_outcome","","html-keyboard-response","331","787865","0.0-336.0","0","0","JGdx6","Scenes","","655","","","40","","115","","48","","","","","","","","","","","","","","","","-1","655","","","","","","","","","","","","","","","","","","","","","","",""
"","fixation","","html-keyboard-response","332","788869","0.0-339.0","0","0","JGdx6","Scenes","","null","","","null","","","","","","","","","","","","","","","","","","","","","","","","","","","","","","","","","","","","","","","","","","","",""
"","see_reward","","html-keyboard-response","333","789182","0.0-340.0","0","0","JGdx6","Scenes","","311","","","32","","146","","49","","","","1","","","","","3","","","","","159","311","","","","","","","","","","","","","","","","","","","","","","","","",""
"","reward_outcome","","html-keyboard-response","334","791186","0.0-341.0","0","0","JGdx6","Scenes","","438","","","38","","146","","49","","","","","","","","","","","","","","","","1","438","","","","","","","","","","","","","","","","","","","","","","",""
"","fixation","","html-keyboard-response","335","792191","0.0-344.0","0","0","JGdx6","Scenes","","null","","","null","","","","","","","","","","","","","","","","","","","","","","","","","","","","","","","","","","","","","","","","","","","",""
"","see_reward","","html-keyboard-response","336","792861","0.0-345.0","0","0","JGdx6","Scenes","","668","","","32","","123","","50","","","","1","","","","","3","","","","","159","668","","","","","","","","","","","","","","","","","","","","","","","","",""
"","reward_outcome","","html-keyboard-response","337","794867","0.0-346.0","0","0","JGdx6","Scenes","","416","","","38","","123","","50","","","","","","","","","","","","","","","","1","416","","","","","","","","","","","","","","","","","","","","","","",""
"","fixation","","html-keyboard-response","338","795873","0.0-349.0","0","0","JGdx6","Scenes","","null","","","null","","","","","","","","","","","","","","","","","","","","","","","","","","","","","","","","","","","","","","","","","","","",""
"","see_reward","","html-keyboard-response","339","796339","0.0-350.0","0","0","JGdx6","Scenes","","464","","","32","","110","","51","","","","1","","","","","3","","","","","142","464","","","","","","","","","","","","","","","","","","","","","","","","",""
"","reward_outcome","","html-keyboard-response","340","798343","0.0-351.0","0","0","JGdx6","Scenes","","352","","","38","","110","","51","","","","","","","","","","","","","","","","1","352","","","","","","","","","","","","","","","","","","","","","","",""
"","fixation","","html-keyboard-response","341","799350","0.0-354.0","0","0","JGdx6","Scenes","","null","","","null","","","","","","","","","","","","","","","","","","","","","","","","","","","","","","","","","","","","","","","","","","","",""
"","see_reward","","html-keyboard-response","342","799692","0.0-355.0","0","0","JGdx6","Scenes","","341","","","32","","108","","52","","","","-1","","","","","3","","","","","0","341","","","","","","","","","","","","","","","","","","","","","","","","",""
"","reward_outcome","","html-keyboard-response","343","801697","0.0-356.0","0","0","JGdx6","Scenes","","507","","","40","","108","","52","","","","","","","","","","","","","","","","-1","507","","","","","","","","","","","","","","","","","","","","","","",""
"","fixation","","html-keyboard-response","344","802707","0.0-359.0","0","0","JGdx6","Scenes","","null","","","null","","","","","","","","","","","","","","","","","","","","","","","","","","","","","","","","","","","","","","","","","","","",""
"","see_reward","","html-keyboard-response","345","803054","0.0-360.0","0","0","JGdx6","Scenes","","345","","","32","","110","","53","","","","1","","","","","3","","","","","142","345","","","","","","","","","","","","","","","","","","","","","","","","",""
"","reward_outcome","","html-keyboard-response","346","805060","0.0-361.0","0","0","JGdx6","Scenes","","816","","","38","","110","","53","","","","","","","","","","","","","","","","1","816","","","","","","","","","","","","","","","","","","","","","","",""
"","fixation","","html-keyboard-response","347","806067","0.0-364.0","0","0","JGdx6","Scenes","","null","","","null","","","","","","","","","","","","","","","","","","","","","","","","","","","","","","","","","","","","","","","","","","","",""
"","see_reward","","html-keyboard-response","348","806564","0.0-365.0","0","0","JGdx6","Scenes","","496","","","32","","123","","54","","","","1","","","","","3","","","","","159","496","","","","","","","","","","","","","","","","","","","","","","","","",""
"","reward_outcome","","html-keyboard-response","349","808571","0.0-366.0","0","0","JGdx6","Scenes","","426","","","38","","123","","54","","","","","","","","","","","","","","","","1","426","","","","","","","","","","","","","","","","","","","","","","",""
"","fixation","","html-keyboard-response","350","809576","0.0-369.0","0","0","JGdx6","Scenes","","null","","","null","","","","","","","","","","","","","","","","","","","","","","","","","","","","","","","","","","","","","","","","","","","",""
"","see_reward","","html-keyboard-response","351","809877","0.0-370.0","0","0","JGdx6","Scenes","","299","","","32","","139","","55","","","","-1","","","","","3","","","","","0","299","","","","","","","","","","","","","","","","","","","","","","","","",""
"","reward_outcome","","html-keyboard-response","352","811883","0.0-371.0","0","0","JGdx6","Scenes","","568","","","40","","139","","55","","","","","","","","","","","","","","","","-1","568","","","","","","","","","","","","","","","","","","","","","","",""
"","fixation","","html-keyboard-response","353","812888","0.0-374.0","0","0","JGdx6","Scenes","","null","","","null","","","","","","","","","","","","","","","","","","","","","","","","","","","","","","","","","","","","","","","","","","","",""
"","see_reward","","html-keyboard-response","354","813196","0.0-375.0","0","0","JGdx6","Scenes","","306","","","32","","146","","56","","","","1","","","","","3","","","","","159","306","","","","","","","","","","","","","","","","","","","","","","","","",""
