"success","ttype","start_time","trial_type","trial_index","time_elapsed","internal_node_id","warning","missed_checkup","PID","stim_type","view_history","rt","responses","category","repeat_instructions","key_press","response","stimulus_id","painting","index","stimulus_left","stimulus_right","explain_trial","reward_type","rating_left","rating_right","painting_left","painting_right","block","left_chosen","chosen_obj","unchosen_obj","explain_response","reward_amount","see_reward_rt","register_reward_response","register_reward_rt","deliberation_reward_tally","stimulus_left_deliberation_ind","stimulus_right_deliberation_ind","chosen_trial","gain_left","higher_outcome_chosen","old_pair","chosen_object","rt_pairs","left_object_chosen","rt_object","old_response","new_rating","deliberated_stim","initial_rating","outcome_eval_rt","outcome_eval_response","outcome_eval_gain","outcome_eval_acc","preamble","outcome_eval_confidence","outcome_eval_confidence_rt","total_reward_tally"
"true","full_screen","d01182023hr1359","fullscreen","0","9470","0.0-0.0","0","0","qZmtG","People","","","","","","","","","","","","","","","","","","","","","","","","","","","","","","","","","","","","","","","","","","","","","","","","","",""
"","rating_instructions","","instructions","1","16543","0.0-1.0-0.0","0","0","qZmtG","People","[{""page_index"":0,""viewing_time"":5664},{""page_index"":1,""viewing_time"":1406}]","7070","","","","","","","","","","","","","","","","","","","","","","","","","","","","","","","","","","","","","","","","","","","","","","","",""
"","","","survey-multi-choice","2","22103","0.0-1.0-1.0","0","0","qZmtG","People","","5557","{""Q0"":""True"",""Q1"":""Mouse""}","rating_comprehension_check","0","","","","","","","","","","","","","","","","","","","","","","","","","","","","","","","","","","","","","","","","","","","","",""
"","start_phase","","html-keyboard-response","3","24186","0.0-2.0","0","0","qZmtG","People","","2079","","","","78","","","","","","","","","","","","","","","","","","","","","","","","","","","","","","","","","","","","","","","","","","","",""
"","rating","","html-slider-response","4","27716","0.0-3.0","0","0","qZmtG","People","","3526","","","","","75","18","good-faces-xmSWVeGEnJw-unsplash.jpg","0","","","","","","","","","","","","","","","","","","","","","","","","","","","","","","","","","","","","","","","",""
"","rating","","html-slider-response","5","30281","0.0-4.0","0","0","qZmtG","People","","2562","","","","","100","35","oliver-ragfelt-khV4fTy6-D8-unsplash.jpg","1","","","","","","","","","","","","","","","","","","","","","","","","","","","","","","","","","","","","","","","",""
"","rating","","html-slider-response","6","32879","0.0-5.0","0","0","qZmtG","People","","2597","","","","","42","29","leilani-angel-K84vnnzxmTQ-unsplash.jpg","2","","","","","","","","","","","","","","","","","","","","","","","","","","","","","","","","","","","","","","","",""
"","rating","","html-slider-response","7","35276","0.0-6.0","0","0","qZmtG","People","","2394","","","","","72","46","stefan-stefancik-QXevDflbl8A-unsplash.jpg","3","","","","","","","","","","","","","","","","","","","","","","","","","","","","","","","","","","","","","","","",""
"","rating","","html-slider-response","8","38910","0.0-7.0","0","0","qZmtG","People","","3632","","","","","76","27","jurica-koletic-7YVZYZeITc8-unsplash.jpg","4","","","","","","","","","","","","","","","","","","","","","","","","","","","","","","","","","","","","","","","",""
"","rating","","html-slider-response","9","41270","0.0-8.0","0","0","qZmtG","People","","2359","","","","","73","15","gabriel-silverio-u3WmDyKGsrY-unsplash.jpg","5","","","","","","","","","","","","","","","","","","","","","","","","","","","","","","","","","","","","","","","",""
"","rating","","html-slider-response","10","43758","0.0-9.0","0","0","qZmtG","People","","2486","","","","","41","6","ben-o-bro-C5XyLljkMrY-unsplash.jpg","6","","","","","","","","","","","","","","","","","","","","","","","","","","","","","","","","","","","","","","","",""
"","rating","","html-slider-response","11","46310","0.0-10.0","0","0","qZmtG","People","","2550","","","","","68","49","vicky-hladynets-_gDoyVv5F4c-unsplash.jpg","7","","","","","","","","","","","","","","","","","","","","","","","","","","","","","","","","","","","","","","","",""
"","rating","","html-slider-response","12","48820","0.0-11.0","0","0","qZmtG","People","","2507","","","","","52","2","arjunsyah-TBUA5KHJn6k-unsplash.jpg","8","","","","","","","","","","","","","","","","","","","","","","","","","","","","","","","","","","","","","","","",""
"","rating","","html-slider-response","13","51385","0.0-12.0","0","0","qZmtG","People","","2563","","","","","62","10","charles-etoroma-95UF6LXe-Lo-unsplash.jpg","9","","","","","","","","","","","","","","","","","","","","","","","","","","","","","","","","","","","","","","","",""
"","rating","","html-slider-response","14","53342","0.0-13.0","0","0","qZmtG","People","","1955","","","","","50","25","joseph-gonzalez-iFgRcqHznqg-unsplash.jpg","10","","","","","","","","","","","","","","","","","","","","","","","","","","","","","","","","","","","","","","","",""
"","rating","","html-slider-response","15","55839","0.0-14.0","0","0","qZmtG","People","","2495","","","","","80","43","raamin-ka-0qJBEzudn5E-unsplash.jpg","11","","","","","","","","","","","","","","","","","","","","","","","","","","","","","","","","","","","","","","","",""
"","rating","","html-slider-response","16","58505","0.0-15.0","0","0","qZmtG","People","","2665","","","","","74","21","jessica-felicio-_cvwXhGqG-o-unsplash.jpg","12","","","","","","","","","","","","","","","","","","","","","","","","","","","","","","","","","","","","","","","",""
"","rating","","html-slider-response","17","61858","0.0-16.0","0","0","qZmtG","People","","3351","","","","","36","31","mathilda-khoo-vLR0YP_otCo-unsplash.jpg","13","","","","","","","","","","","","","","","","","","","","","","","","","","","","","","","","","","","","","","","",""
"","rating","","html-slider-response","18","65009","0.0-17.0","0","0","qZmtG","People","","3149","","","","","61","33","olena-sergienko-0TSd6uCKTKc-unsplash.jpg","14","","","","","","","","","","","","","","","","","","","","","","","","","","","","","","","","","","","","","","","",""
"","rating","","html-slider-response","19","67414","0.0-18.0","0","0","qZmtG","People","","2403","","","","","67","17","gleb-lukomets-paBzWCPN23k-unsplash.jpg","15","","","","","","","","","","","","","","","","","","","","","","","","","","","","","","","","","","","","","","","",""
"","rating","","html-slider-response","20","69733","0.0-19.0","0","0","qZmtG","People","","2317","","","","","59","44","rikonavt-HQjfrvdTfak-unsplash.jpg","16","","","","","","","","","","","","","","","","","","","","","","","","","","","","","","","","","","","","","","","",""
"","rating","","html-slider-response","21","72657","0.0-20.0","0","0","qZmtG","People","","2922","","","","","100","8","bruce-dixon-3M9WJQVHzog-unsplash.jpg","17","","","","","","","","","","","","","","","","","","","","","","","","","","","","","","","","","","","","","","","",""
"","rating","","html-slider-response","22","74852","0.0-21.0","0","0","qZmtG","People","","2192","","","","","66","12","daniel-rigdon-dXmXKPP2L4E-unsplash.jpg","18","","","","","","","","","","","","","","","","","","","","","","","","","","","","","","","","","","","","","","","",""
"","rating","","html-slider-response","23","77417","0.0-22.0","0","0","qZmtG","People","","2563","","","","","30","0","abstral-official-cyOKLSgkgCE-unsplash.jpg","19","","","","","","","","","","","","","","","","","","","","","","","","","","","","","","","","","","","","","","","",""
"","rating","","html-slider-response","24","79870","0.0-23.0","0","0","qZmtG","People","","2451","","","","","73","36","ospan-ali-mGdA2fzjWLo-unsplash.jpg","20","","","","","","","","","","","","","","","","","","","","","","","","","","","","","","","","","","","","","","","",""
"","rating","","html-slider-response","25","82154","0.0-24.0","0","0","qZmtG","People","","2282","","","","","90","34","oliver-johnson-1TUIcKob7Zs-unsplash.jpg","21","","","","","","","","","","","","","","","","","","","","","","","","","","","","","","","","","","","","","","","",""
"","rating","","html-slider-response","26","84661","0.0-25.0","0","0","qZmtG","People","","2505","","","","","73","48","velizar-ivanov-7ktP9yZA1g4-unsplash.jpg","22","","","","","","","","","","","","","","","","","","","","","","","","","","","","","","","","","","","","","","","",""
"","rating","","html-slider-response","27","87329","0.0-26.0","0","0","qZmtG","People","","2666","","","","","62","41","prince-akachi-i2hoD-C2RUA-unsplash.jpg","23","","","","","","","","","","","","","","","","","","","","","","","","","","","","","","","","","","","","","","","",""
"","rating","","html-slider-response","28","89511","0.0-27.0","0","0","qZmtG","People","","2180","","","","","70","1","aiony-haust-jmATI5Q_YgY-unsplash.jpg","24","","","","","","","","","","","","","","","","","","","","","","","","","","","","","","","","","","","","","","","",""
"","rating","","html-slider-response","29","92065","0.0-28.0","0","0","qZmtG","People","","2552","","","","","22","37","pavel-anoshin-d0peGya6R5Y-unsplash.jpg","25","","","","","","","","","","","","","","","","","","","","","","","","","","","","","","","","","","","","","","","",""
"","rating","","html-slider-response","30","95134","0.0-29.0","0","0","qZmtG","People","","3069","","","","","89","45","sarah-noltner-pL5ZzPp1zqg-unsplash.jpg","26","","","","","","","","","","","","","","","","","","","","","","","","","","","","","","","","","","","","","","","",""
"","rating","","html-slider-response","31","98871","0.0-30.0","0","0","qZmtG","People","","3735","","","","","59","16","giano-currie-5-9YOsmf8IQ-unsplash.jpg","27","","","","","","","","","","","","","","","","","","","","","","","","","","","","","","","","","","","","","","","",""
"","rating","","html-slider-response","32","102089","0.0-31.0","0","0","qZmtG","People","","3216","","","","","15","39","philip-martin-5aGUyCW_PJw-unsplash.jpg","28","","","","","","","","","","","","","","","","","","","","","","","","","","","","","","","","","","","","","","","",""
"","rating","","html-slider-response","33","104609","0.0-32.0","0","0","qZmtG","People","","2518","","","","","72","11","christian-ferrer-8vT-DgHZDG4-unsplash.jpg","29","","","","","","","","","","","","","","","","","","","","","","","","","","","","","","","","","","","","","","","",""
"","rating","","html-slider-response","34","107026","0.0-33.0","0","0","qZmtG","People","","2415","","","","","32","42","prince-akachi-l3IHXOdMyHQ-unsplash.jpg","30","","","","","","","","","","","","","","","","","","","","","","","","","","","","","","","","","","","","","","","",""
"","rating","","html-slider-response","35","109449","0.0-34.0","0","0","qZmtG","People","","2420","","","","","45","19","ha-nguy-n-OFSQ6bHjFjs-unsplash.jpg","31","","","","","","","","","","","","","","","","","","","","","","","","","","","","","","","","","","","","","","","",""
"","rating","","html-slider-response","36","112059","0.0-35.0","0","0","qZmtG","People","","2609","","","","","39","7","brooke-cagle-HRZUzoX1e6w-unsplash.jpg","32","","","","","","","","","","","","","","","","","","","","","","","","","","","","","","","","","","","","","","","",""
"","rating","","html-slider-response","37","114826","0.0-36.0","0","0","qZmtG","People","","2764","","","","","67","32","nathan-dumlao-ger61_TX6oI-unsplash.jpg","33","","","","","","","","","","","","","","","","","","","","","","","","","","","","","","","","","","","","","","","",""
"","rating","","html-slider-response","38","117987","0.0-37.0","0","0","qZmtG","People","","3160","","","","","67","24","joel-mott-LaK153ghdig-unsplash.jpg","34","","","","","","","","","","","","","","","","","","","","","","","","","","","","","","","","","","","","","","","",""
"","rating","","html-slider-response","39","120563","0.0-38.0","0","0","qZmtG","People","","2574","","","","","14","3","art-hauntington-jzY0KRJopEI-unsplash.jpg","35","","","","","","","","","","","","","","","","","","","","","","","","","","","","","","","","","","","","","","","",""
"","rating","","html-slider-response","40","122847","0.0-39.0","0","0","qZmtG","People","","2282","","","","","31","4","barna-bartis-2x3vfVxwR7o-unsplash.jpg","36","","","","","","","","","","","","","","","","","","","","","","","","","","","","","","","","","","","","","","","",""
"","rating","","html-slider-response","41","125380","0.0-40.0","0","0","qZmtG","People","","2532","","","","","35","22","jessica-radanavong-mrYkTuAesKE-unsplash.jpg","37","","","","","","","","","","","","","","","","","","","","","","","","","","","","","","","","","","","","","","","",""
"","rating","","html-slider-response","42","127675","0.0-41.0","0","0","qZmtG","People","","2293","","","","","34","9","carlos-andres-gomez-vJuk8Y86mRw-unsplash.jpg","38","","","","","","","","","","","","","","","","","","","","","","","","","","","","","","","","","","","","","","","",""
"","rating","","html-slider-response","43","130350","0.0-42.0","0","0","qZmtG","People","","2674","","","","","41","30","matheus-ferrero-pg_WCHWSdT8-unsplash.jpg","39","","","","","","","","","","","","","","","","","","","","","","","","","","","","","","","","","","","","","","","",""
"","rating","","html-slider-response","44","132815","0.0-43.0","0","0","qZmtG","People","","2463","","","","","61","5","batel-studio-ttSRjiYG_WM-unsplash.jpg","40","","","","","","","","","","","","","","","","","","","","","","","","","","","","","","","","","","","","","","","",""
"","rating","","html-slider-response","45","135179","0.0-44.0","0","0","qZmtG","People","","2363","","","","","64","47","tyler-nix-ZGa9d1a_4tA-unsplash.jpg","41","","","","","","","","","","","","","","","","","","","","","","","","","","","","","","","","","","","","","","","",""
"","rating","","html-slider-response","46","137496","0.0-45.0","0","0","qZmtG","People","","2316","","","","","41","14","freddy-kearney-o-ioeoATbIM-unsplash.jpg","42","","","","","","","","","","","","","","","","","","","","","","","","","","","","","","","","","","","","","","","",""
"","rating","","html-slider-response","47","140758","0.0-46.0","0","0","qZmtG","People","","3259","","","","","84","28","justin-chen-J7Cf1Gch49E-unsplash.jpg","43","","","","","","","","","","","","","","","","","","","","","","","","","","","","","","","","","","","","","","","",""
"","rating","","html-slider-response","48","143502","0.0-47.0","0","0","qZmtG","People","","2743","","","","","40","40","prince-akachi-4Yv84VgQkRM-unsplash.jpg","44","","","","","","","","","","","","","","","","","","","","","","","","","","","","","","","","","","","","","","","",""
"","rating","","html-slider-response","49","145912","0.0-48.0","0","0","qZmtG","People","","2407","","","","","77","26","juri-gianfrancesco-9EZadYaMzk4-unsplash.jpg","45","","","","","","","","","","","","","","","","","","","","","","","","","","","","","","","","","","","","","","","",""
"","rating","","html-slider-response","50","148161","0.0-49.0","0","0","qZmtG","People","","2248","","","","","62","20","houcine-ncib-B4TjXnI0Y2c-unsplash.jpg","46","","","","","","","","","","","","","","","","","","","","","","","","","","","","","","","","","","","","","","","",""
"","rating","","html-slider-response","51","150951","0.0-50.0","0","0","qZmtG","People","","2787","","","","","84","38","petr-sevcovic-HzDF-rxlSeM-unsplash.jpg","47","","","","","","","","","","","","","","","","","","","","","","","","","","","","","","","","","","","","","","","",""
"","rating","","html-slider-response","52","155148","0.0-51.0","0","0","qZmtG","People","","4194","","","","","92","13","erik-lucatero-d2MSDujJl2g-unsplash.jpg","48","","","","","","","","","","","","","","","","","","","","","","","","","","","","","","","","","","","","","","","",""
"","rating","","html-slider-response","53","160199","0.0-52.0","0","0","qZmtG","People","","5049","","","","","38","23","joanna-nix-walkup-H4fEMshfwTE-unsplash.jpg","49","","","","","","","","","","","","","","","","","","","","","","","","","","","","","","","","","","","","","","","",""
"","deliberation_instructions","","instructions","54","205430","0.0-53.0-0.0","0","0","qZmtG","People","[{""page_index"":0,""viewing_time"":15470},{""page_index"":1,""viewing_time"":9528},{""page_index"":2,""viewing_time"":8743},{""page_index"":3,""viewing_time"":10012},{""page_index"":4,""viewing_time"":1473}]","45227","","","","","","","","","","","","","","","","","","","","","","","","","","","","","","","","","","","","","","","","","","","","","","","",""
"","","","survey-multi-choice","55","224216","0.0-53.0-1.0","0","0","qZmtG","People","","18780","{""Q0"":""True"",""Q1"":""True"",""Q2"":""Consider carefully and take your time (up to 10 seconds)"",""Q3"":""True"",""Q4"":""D""}","deliberation_comprehension_check","0","","","","","","","","","","","","","","","","","","","","","","","","","","","","","","","","","","","","","","","","","","","","",""
"","start_phase","","html-keyboard-response","56","225972","0.0-54.0","0","0","qZmtG","People","","1753","","","","78","","","","","","","","","","","","","","","","","","","","","","","","","","","","","","","","","","","","","","","","","","","",""
"","first_deliberation_block","","html-keyboard-response","57","229468","0.0-55.0","0","0","qZmtG","People","","3494","","","","78","","","","","","","","","","","","","","","","","","","","","","","","","","","","","","","","","","","","","","","","","","","",""
"","fixation","","html-keyboard-response","58","230482","0.0-56.0-0.0","0","0","qZmtG","People","","null","","","","null","","","","","","","","","","","","","","","","","","","","","","","","","","","","","","","","","","","","","","","","","","","",""
"","deliberation","","html-keyboard-response","59","236012","0.0-56.0-1.0","0","0","qZmtG","People","","5524","","","","75","","","","0","36","44","0","-1","73","59","ospan-ali-mGdA2fzjWLo-unsplash.jpg","rikonavt-HQjfrvdTfak-unsplash.jpg","1","0","44","36","","","","","","","","","","","","","","","","","","","","","","","","","","","",""
"","choice_confirmation","","html-keyboard-response","60","236525","0.0-56.0-2.0-0.0","0","0","qZmtG","People","","null","","","","null","","","","0","36","44","","","","","","","","","","","","","","","","","","","","","","","","","","","","","","","","","","","","","",""
"","fixation","","html-keyboard-response","61","237540","0.0-57.0-0.0","0","0","qZmtG","People","","null","","","","null","","","","","","","","","","","","","","","","","","","","","","","","","","","","","","","","","","","","","","","","","","","",""
"","deliberation","","html-keyboard-response","62","239364","0.0-57.0-1.0","0","0","qZmtG","People","","1820","","","","68","","","","1","32","19","0","1","67","45","nathan-dumlao-ger61_TX6oI-unsplash.jpg","ha-nguy-n-OFSQ6bHjFjs-unsplash.jpg","1","1","32","19","","","","","","","","","","","","","","","","","","","","","","","","","","","",""
"","choice_confirmation","","html-keyboard-response","63","239871","0.0-57.0-2.0-0.0","0","0","qZmtG","People","","null","","","","null","","","","1","32","19","","","","","","","","","","","","","","","","","","","","","","","","","","","","","","","","","","","","","",""
"","fixation","","html-keyboard-response","64","240881","0.0-58.0-0.0","0","0","qZmtG","People","","null","","","","null","","","","","","","","","","","","","","","","","","","","","","","","","","","","","","","","","","","","","","","","","","","",""
"","deliberation","","html-keyboard-response","65","244854","0.0-58.0-1.0","0","0","qZmtG","People","","3968","","","","75","","","","2","10","33","0","-1","62","61","charles-etoroma-95UF6LXe-Lo-unsplash.jpg","olena-sergienko-0TSd6uCKTKc-unsplash.jpg","1","0","33","10","","","","","","","","","","","","","","","","","","","","","","","","","","","",""
"","choice_confirmation","","html-keyboard-response","66","245373","0.0-58.0-2.0-0.0","0","0","qZmtG","People","","null","","","","null","","","","2","10","33","","","","","","","","","","","","","","","","","","","","","","","","","","","","","","","","","","","","","",""
"","fixation","","html-keyboard-response","67","246394","0.0-59.0-0.0","0","0","qZmtG","People","","null","","","","null","","","","","","","","","","","","","","","","","","","","","","","","","","","","","","","","","","","","","","","","","","","",""
"","deliberation","","html-keyboard-response","68","248882","0.0-59.0-1.0","0","0","qZmtG","People","","2484","","","","68","","","","3","14","30","0","-1","41","41","freddy-kearney-o-ioeoATbIM-unsplash.jpg","matheus-ferrero-pg_WCHWSdT8-unsplash.jpg","1","1","14","30","","","","","","","","","","","","","","","","","","","","","","","","","","","",""
"","choice_confirmation","","html-keyboard-response","69","249396","0.0-59.0-2.0-0.0","0","0","qZmtG","People","","null","","","","null","","","","3","14","30","","","","","","","","","","","","","","","","","","","","","","","","","","","","","","","","","","","","","",""
"","fixation","","html-keyboard-response","70","250408","0.0-60.0-0.0","0","0","qZmtG","People","","null","","","","null","","","","","","","","","","","","","","","","","","","","","","","","","","","","","","","","","","","","","","","","","","","",""
"","deliberation","","html-keyboard-response","71","255810","0.0-60.0-1.0","0","0","qZmtG","People","","5399","","","","75","","","","4","1","47","0","1","70","64","aiony-haust-jmATI5Q_YgY-unsplash.jpg","tyler-nix-ZGa9d1a_4tA-unsplash.jpg","1","0","47","1","","","","","","","","","","","","","","","","","","","","","","","","","","","",""
"","choice_confirmation","","html-keyboard-response","72","256329","0.0-60.0-2.0-0.0","0","0","qZmtG","People","","null","","","","null","","","","4","1","47","","","","","","","","","","","","","","","","","","","","","","","","","","","","","","","","","","","","","",""
"","fixation","","html-keyboard-response","73","257350","0.0-61.0-0.0","0","0","qZmtG","People","","null","","","","null","","","","","","","","","","","","","","","","","","","","","","","","","","","","","","","","","","","","","","","","","","","",""
"","deliberation","","html-keyboard-response","74","260288","0.0-61.0-1.0","0","0","qZmtG","People","","2936","","","","75","","","","5","41","11","1","-1","62","72","prince-akachi-i2hoD-C2RUA-unsplash.jpg","christian-ferrer-8vT-DgHZDG4-unsplash.jpg","1","0","11","41","","","","","","","","","","","","","","","","","","","","","","","","","","","",""
"","choice_confirmation","","html-keyboard-response","75","260808","0.0-61.0-2.0-0.0","0","0","qZmtG","People","","null","","","","null","","","","5","41","11","","","","","","","","","","","","","","","","","","","","","","","","","","","","","","","","","","","","","",""
"","explain_trial","","survey-text","76","279150","0.0-61.0-5.0-0.0","0","0","qZmtG","People","","18337","{""Q0"":""Her look is more confident and interesting.""}","","","","","","","5","41","11","","","","","","","","","","","{""Q0"":""Her look is more confident and interesting.""}","","","","","","","","","","","","","","","","","","","","","","","","","","",""
"","fixation","","html-keyboard-response","77","280161","0.0-62.0-0.0","0","0","qZmtG","People","","null","","","","null","","","","","","","","","","","","","","","","","","","","","","","","","","","","","","","","","","","","","","","","","","","",""
"","deliberation","","html-keyboard-response","78","283377","0.0-62.0-1.0","0","0","qZmtG","People","","3212","","","","68","","","","6","20","16","1","-1","62","59","houcine-ncib-B4TjXnI0Y2c-unsplash.jpg","giano-currie-5-9YOsmf8IQ-unsplash.jpg","1","1","20","16","","","","","","","","","","","","","","","","","","","","","","","","","","","",""
"","choice_confirmation","","html-keyboard-response","79","283892","0.0-62.0-2.0-0.0","0","0","qZmtG","People","","null","","","","null","","","","6","20","16","","","","","","","","","","","","","","","","","","","","","","","","","","","","","","","","","","","","","",""
"","explain_trial","","survey-text","80","299687","0.0-62.0-5.0-0.0","0","0","qZmtG","People","","15792","{""Q0"":""Her gaze at the camera is very intense.""}","","","","","","","6","20","16","","","","","","","","","","","{""Q0"":""Her gaze at the camera is very intense.""}","","","","","","","","","","","","","","","","","","","","","","","","","","",""
"","fixation","","html-keyboard-response","81","300697","0.0-63.0-0.0","0","0","qZmtG","People","","null","","","","null","","","","","","","","","","","","","","","","","","","","","","","","","","","","","","","","","","","","","","","","","","","",""
"","deliberation","","html-keyboard-response","82","305454","0.0-63.0-1.0","0","0","qZmtG","People","","4752","","","","68","","","","7","17","29","1","1","67","42","gleb-lukomets-paBzWCPN23k-unsplash.jpg","leilani-angel-K84vnnzxmTQ-unsplash.jpg","1","1","17","29","","","","","","","","","","","","","","","","","","","","","","","","","","","",""
"","choice_confirmation","","html-keyboard-response","83","305962","0.0-63.0-2.0-0.0","0","0","qZmtG","People","","null","","","","null","","","","7","17","29","","","","","","","","","","","","","","","","","","","","","","","","","","","","","","","","","","","","","",""
"","explain_trial","","survey-text","84","318127","0.0-63.0-5.0-0.0","0","0","qZmtG","People","","12160","{""Q0"":""I think the woman will be more desirable.""}","","","","","","","7","17","29","","","","","","","","","","","{""Q0"":""I think the woman will be more desirable.""}","","","","","","","","","","","","","","","","","","","","","","","","","","",""
"","fixation","","html-keyboard-response","85","319142","0.0-64.0-0.0","0","0","qZmtG","People","","null","","","","null","","","","","","","","","","","","","","","","","","","","","","","","","","","","","","","","","","","","","","","","","","","",""
"","deliberation","","html-keyboard-response","86","321608","0.0-64.0-1.0","0","0","qZmtG","People","","2463","","","","75","","","","8","46","15","1","1","72","73","stefan-stefancik-QXevDflbl8A-unsplash.jpg","gabriel-silverio-u3WmDyKGsrY-unsplash.jpg","1","0","15","46","","","","","","","","","","","","","","","","","","","","","","","","","","","",""
"","choice_confirmation","","html-keyboard-response","87","322120","0.0-64.0-2.0-0.0","0","0","qZmtG","People","","null","","","","null","","","","8","46","15","","","","","","","","","","","","","","","","","","","","","","","","","","","","","","","","","","","","","",""
"","explain_trial","","survey-text","88","335024","0.0-64.0-5.0-0.0","0","0","qZmtG","People","","12901","{""Q0"":""Her smile in this picture is infectious and the colors are nice.""}","","","","","","","8","46","15","","","","","","","","","","","{""Q0"":""Her smile in this picture is infectious and the colors are nice.""}","","","","","","","","","","","","","","","","","","","","","","","","","","",""
"","fixation","","html-keyboard-response","89","336040","0.0-65.0-0.0","0","0","qZmtG","People","","null","","","","null","","","","","","","","","","","","","","","","","","","","","","","","","","","","","","","","","","","","","","","","","","","",""
"","deliberation","","html-keyboard-response","90","337857","0.0-65.0-1.0","0","0","qZmtG","People","","1812","","","","75","","","","9","5","49","1","1","61","68","batel-studio-ttSRjiYG_WM-unsplash.jpg","vicky-hladynets-_gDoyVv5F4c-unsplash.jpg","1","0","49","5","","","","","","","","","","","","","","","","","","","","","","","","","","","",""
"","choice_confirmation","","html-keyboard-response","91","338362","0.0-65.0-2.0-0.0","0","0","qZmtG","People","","null","","","","null","","","","9","5","49","","","","","","","","","","","","","","","","","","","","","","","","","","","","","","","","","","","","","",""
"","explain_trial","","survey-text","92","345847","0.0-65.0-5.0-0.0","0","0","qZmtG","People","","7482","{""Q0"":""He looks very confident.""}","","","","","","","9","5","49","","","","","","","","","","","{""Q0"":""He looks very confident.""}","","","","","","","","","","","","","","","","","","","","","","","","","","",""
"","fixation","","html-keyboard-response","93","346862","0.0-66.0-0.0","0","0","qZmtG","People","","null","","","","null","","","","","","","","","","","","","","","","","","","","","","","","","","","","","","","","","","","","","","","","","","","",""
"","deliberation","","html-keyboard-response","94","348882","0.0-66.0-1.0","0","0","qZmtG","People","","2016","","","","75","","","","10","12","24","1","-1","66","67","daniel-rigdon-dXmXKPP2L4E-unsplash.jpg","joel-mott-LaK153ghdig-unsplash.jpg","1","0","24","12","","","","","","","","","","","","","","","","","","","","","","","","","","","",""
"","choice_confirmation","","html-keyboard-response","95","349388","0.0-66.0-2.0-0.0","0","0","qZmtG","People","","null","","","","null","","","","10","12","24","","","","","","","","","","","","","","","","","","","","","","","","","","","","","","","","","","","","","",""
"","explain_trial","","survey-text","96","359984","0.0-66.0-5.0-0.0","0","0","qZmtG","People","","10595","{""Q0"":""She has a great smile and the background is compelling.""}","","","","","","","10","12","24","","","","","","","","","","","{""Q0"":""She has a great smile and the background is compelling.""}","","","","","","","","","","","","","","","","","","","","","","","","","","",""
"","fixation","","html-keyboard-response","97","361006","0.0-67.0-0.0","0","0","qZmtG","People","","null","","","","null","","","","","","","","","","","","","","","","","","","","","","","","","","","","","","","","","","","","","","","","","","","",""
"","deliberation","","html-keyboard-response","98","362635","0.0-67.0-1.0","0","0","qZmtG","People","","1624","","","","68","","","","11","25","2","0","1","50","52","joseph-gonzalez-iFgRcqHznqg-unsplash.jpg","arjunsyah-TBUA5KHJn6k-unsplash.jpg","1","1","25","2","","","","","","","","","","","","","","","","","","","","","","","","","","","",""
"","choice_confirmation","","html-keyboard-response","99","363149","0.0-67.0-2.0-0.0","0","0","qZmtG","People","","null","","","","null","","","","11","25","2","","","","","","","","","","","","","","","","","","","","","","","","","","","","","","","","","","","","","",""
"","practice_deliberation_again","","html-keyboard-response","100","366051","0.0-67.0-6.0-0.0","0","0","qZmtG","People","","2901","","","","78","","","","","","","","","","","","","","","","","","","","","","","","","","","","","","","","","","","","","","","","","","","",""
"","fixation","","html-keyboard-response","101","367077","0.0-68.0-0.0","0","0","qZmtG","People","","null","","","","null","","","","","","","","","","","","","","","","","","","","","","","","","","","","","","","","","","","","","","","","","","","",""
"","deliberation","","html-keyboard-response","102","368527","0.0-68.0-1.0","0","0","qZmtG","People","","1448","","","","68","","","","12","32","19","1","1","67","45","nathan-dumlao-ger61_TX6oI-unsplash.jpg","ha-nguy-n-OFSQ6bHjFjs-unsplash.jpg","2","1","32","19","","","","","","","","","","","","","","","","","","","","","","","","","","","",""
"","choice_confirmation","","html-keyboard-response","103","369035","0.0-68.0-2.0-0.0","0","0","qZmtG","People","","null","","","","null","","","","12","32","19","","","","","","","","","","","","","","","","","","","","","","","","","","","","","","","","","","","","","",""
"","explain_trial","","survey-text","104","383472","0.0-68.0-5.0-0.0","0","0","qZmtG","People","","14436","{""Q0"":""It's a much more interesting shot and his skin tone is unique.""}","","","","","","","12","32","19","","","","","","","","","","","{""Q0"":""It's a much more interesting shot and his skin tone is unique.""}","","","","","","","","","","","","","","","","","","","","","","","","","","",""
"","fixation","","html-keyboard-response","105","384490","0.0-69.0-0.0","0","0","qZmtG","People","","null","","","","null","","","","","","","","","","","","","","","","","","","","","","","","","","","","","","","","","","","","","","","","","","","",""
"","deliberation","","html-keyboard-response","106","389162","0.0-69.0-1.0","0","0","qZmtG","People","","4668","","","","75","","","","13","41","11","0","-1","62","72","prince-akachi-i2hoD-C2RUA-unsplash.jpg","christian-ferrer-8vT-DgHZDG4-unsplash.jpg","2","0","11","41","","","","","","","","","","","","","","","","","","","","","","","","","","","",""
"","choice_confirmation","","html-keyboard-response","107","389675","0.0-69.0-2.0-0.0","0","0","qZmtG","People","","null","","","","null","","","","13","41","11","","","","","","","","","","","","","","","","","","","","","","","","","","","","","","","","","","","","","",""
"","fixation","","html-keyboard-response","108","390700","0.0-70.0-0.0","0","0","qZmtG","People","","null","","","","null","","","","","","","","","","","","","","","","","","","","","","","","","","","","","","","","","","","","","","","","","","","",""
"","deliberation","","html-keyboard-response","109","391773","0.0-70.0-1.0","0","0","qZmtG","People","","1069","","","","68","","","","14","14","30","1","-1","41","41","freddy-kearney-o-ioeoATbIM-unsplash.jpg","matheus-ferrero-pg_WCHWSdT8-unsplash.jpg","2","1","14","30","","","","","","","","","","","","","","","","","","","","","","","","","","","",""
"","choice_confirmation","","html-keyboard-response","110","392288","0.0-70.0-2.0-0.0","0","0","qZmtG","People","","null","","","","null","","","","14","14","30","","","","","","","","","","","","","","","","","","","","","","","","","","","","","","","","","","","","","",""
"","explain_trial","","survey-text","111","406471","0.0-70.0-5.0-0.0","0","0","qZmtG","People","","14180","{""Q0"":""The detail on his face is much more pronounced than hers.""}","","","","","","","14","14","30","","","","","","","","","","","{""Q0"":""The detail on his face is much more pronounced than hers.""}","","","","","","","","","","","","","","","","","","","","","","","","","","",""
"","fixation","","html-keyboard-response","112","407483","0.0-71.0-0.0","0","0","qZmtG","People","","null","","","","null","","","","","","","","","","","","","","","","","","","","","","","","","","","","","","","","","","","","","","","","","","","",""
"","deliberation","","html-keyboard-response","113","408982","0.0-71.0-1.0","0","0","qZmtG","People","","1497","","","","75","","","","15","10","33","1","-1","62","61","charles-etoroma-95UF6LXe-Lo-unsplash.jpg","olena-sergienko-0TSd6uCKTKc-unsplash.jpg","2","0","33","10","","","","","","","","","","","","","","","","","","","","","","","","","","","",""
"","choice_confirmation","","html-keyboard-response","114","409500","0.0-71.0-2.0-0.0","0","0","qZmtG","People","","null","","","","null","","","","15","10","33","","","","","","","","","","","","","","","","","","","","","","","","","","","","","","","","","","","","","",""
"","explain_trial","","survey-text","115","423706","0.0-71.0-5.0-0.0","0","0","qZmtG","People","","14205","{""Q0"":""The darker background is compelling.""}","","","","","","","15","10","33","","","","","","","","","","","{""Q0"":""The darker background is compelling.""}","","","","","","","","","","","","","","","","","","","","","","","","","","",""
"","fixation","","html-keyboard-response","116","424714","0.0-72.0-0.0","0","0","qZmtG","People","","null","","","","null","","","","","","","","","","","","","","","","","","","","","","","","","","","","","","","","","","","","","","","","","","","",""
"","deliberation","","html-keyboard-response","117","426040","0.0-72.0-1.0","0","0","qZmtG","People","","1322","","","","75","","","","16","12","24","0","-1","66","67","daniel-rigdon-dXmXKPP2L4E-unsplash.jpg","joel-mott-LaK153ghdig-unsplash.jpg","2","0","24","12","","","","","","","","","","","","","","","","","","","","","","","","","","","",""
"","choice_confirmation","","html-keyboard-response","118","426552","0.0-72.0-2.0-0.0","0","0","qZmtG","People","","null","","","","null","","","","16","12","24","","","","","","","","","","","","","","","","","","","","","","","","","","","","","","","","","","","","","",""
"","fixation","","html-keyboard-response","119","427569","0.0-73.0-0.0","0","0","qZmtG","People","","null","","","","null","","","","","","","","","","","","","","","","","","","","","","","","","","","","","","","","","","","","","","","","","","","",""
"","deliberation","","html-keyboard-response","120","428382","0.0-73.0-1.0","0","0","qZmtG","People","","809","","","","75","","","","17","5","49","0","1","61","68","batel-studio-ttSRjiYG_WM-unsplash.jpg","vicky-hladynets-_gDoyVv5F4c-unsplash.jpg","2","0","49","5","","","","","","","","","","","","","","","","","","","","","","","","","","","",""
"","choice_confirmation","","html-keyboard-response","121","428899","0.0-73.0-2.0-0.0","0","0","qZmtG","People","","null","","","","null","","","","17","5","49","","","","","","","","","","","","","","","","","","","","","","","","","","","","","","","","","","","","","",""
"","fixation","","html-keyboard-response","122","429914","0.0-74.0-0.0","0","0","qZmtG","People","","null","","","","null","","","","","","","","","","","","","","","","","","","","","","","","","","","","","","","","","","","","","","","","","","","",""
"","deliberation","","html-keyboard-response","123","430700","0.0-74.0-1.0","0","0","qZmtG","People","","784","","","","75","","","","18","46","15","0","1","72","73","stefan-stefancik-QXevDflbl8A-unsplash.jpg","gabriel-silverio-u3WmDyKGsrY-unsplash.jpg","2","0","15","46","","","","","","","","","","","","","","","","","","","","","","","","","","","",""
"","choice_confirmation","","html-keyboard-response","124","431205","0.0-74.0-2.0-0.0","0","0","qZmtG","People","","null","","","","null","","","","18","46","15","","","","","","","","","","","","","","","","","","","","","","","","","","","","","","","","","","","","","",""
"","fixation","","html-keyboard-response","125","432217","0.0-75.0-0.0","0","0","qZmtG","People","","null","","","","null","","","","","","","","","","","","","","","","","","","","","","","","","","","","","","","","","","","","","","","","","","","",""
"","deliberation","","html-keyboard-response","126","433694","0.0-75.0-1.0","0","0","qZmtG","People","","1473","","","","68","","","","19","20","16","0","-1","62","59","houcine-ncib-B4TjXnI0Y2c-unsplash.jpg","giano-currie-5-9YOsmf8IQ-unsplash.jpg","2","1","20","16","","","","","","","","","","","","","","","","","","","","","","","","","","","",""
"","choice_confirmation","","html-keyboard-response","127","434215","0.0-75.0-2.0-0.0","0","0","qZmtG","People","","null","","","","null","","","","19","20","16","","","","","","","","","","","","","","","","","","","","","","","","","","","","","","","","","","","","","",""
"","fixation","","html-keyboard-response","128","435228","0.0-76.0-0.0","0","0","qZmtG","People","","null","","","","null","","","","","","","","","","","","","","","","","","","","","","","","","","","","","","","","","","","","","","","","","","","",""
"","deliberation","","html-keyboard-response","129","436053","0.0-76.0-1.0","0","0","qZmtG","People","","822","","","","68","","","","20","25","2","1","1","50","52","joseph-gonzalez-iFgRcqHznqg-unsplash.jpg","arjunsyah-TBUA5KHJn6k-unsplash.jpg","2","1","25","2","","","","","","","","","","","","","","","","","","","","","","","","","","","",""
"","choice_confirmation","","html-keyboard-response","130","436568","0.0-76.0-2.0-0.0","0","0","qZmtG","People","","null","","","","null","","","","20","25","2","","","","","","","","","","","","","","","","","","","","","","","","","","","","","","","","","","","","","",""
"","explain_trial","","survey-text","131","450707","0.0-76.0-5.0-0.0","0","0","qZmtG","People","","14135","{""Q0"":""The picture is in greater focus and features a more attractive man.""}","","","","","","","20","25","2","","","","","","","","","","","{""Q0"":""The picture is in greater focus and features a more attractive man.""}","","","","","","","","","","","","","","","","","","","","","","","","","","",""
"","fixation","","html-keyboard-response","132","451721","0.0-77.0-0.0","0","0","qZmtG","People","","null","","","","null","","","","","","","","","","","","","","","","","","","","","","","","","","","","","","","","","","","","","","","","","","","",""
"","deliberation","","html-keyboard-response","133","453290","0.0-77.0-1.0","0","0","qZmtG","People","","1566","","","","75","","","","21","36","44","1","-1","73","59","ospan-ali-mGdA2fzjWLo-unsplash.jpg","rikonavt-HQjfrvdTfak-unsplash.jpg","2","0","44","36","","","","","","","","","","","","","","","","","","","","","","","","","","","",""
"","choice_confirmation","","html-keyboard-response","134","453807","0.0-77.0-2.0-0.0","0","0","qZmtG","People","","null","","","","null","","","","21","36","44","","","","","","","","","","","","","","","","","","","","","","","","","","","","","","","","","","","","","",""
"","explain_trial","","survey-text","135","460741","0.0-77.0-5.0-0.0","0","0","qZmtG","People","","6933","{""Q0"":""Her pose is more interesting.""}","","","","","","","21","36","44","","","","","","","","","","","{""Q0"":""Her pose is more interesting.""}","","","","","","","","","","","","","","","","","","","","","","","","","","",""
"","fixation","","html-keyboard-response","136","461744","0.0-78.0-0.0","0","0","qZmtG","People","","null","","","","null","","","","","","","","","","","","","","","","","","","","","","","","","","","","","","","","","","","","","","","","","","","",""
"","deliberation","","html-keyboard-response","137","463326","0.0-78.0-1.0","0","0","qZmtG","People","","1578","","","","75","","","","22","1","47","1","1","70","64","aiony-haust-jmATI5Q_YgY-unsplash.jpg","tyler-nix-ZGa9d1a_4tA-unsplash.jpg","2","0","47","1","","","","","","","","","","","","","","","","","","","","","","","","","","","",""
"","choice_confirmation","","html-keyboard-response","138","463841","0.0-78.0-2.0-0.0","0","0","qZmtG","People","","null","","","","null","","","","22","1","47","","","","","","","","","","","","","","","","","","","","","","","","","","","","","","","","","","","","","",""
"","explain_trial","","survey-text","139","473883","0.0-78.0-5.0-0.0","0","0","qZmtG","People","","10039","{""Q0"":""The photo is sharp.""}","","","","","","","22","1","47","","","","","","","","","","","{""Q0"":""The photo is sharp.""}","","","","","","","","","","","","","","","","","","","","","","","","","","",""
"","fixation","","html-keyboard-response","140","474902","0.0-79.0-0.0","0","0","qZmtG","People","","null","","","","null","","","","","","","","","","","","","","","","","","","","","","","","","","","","","","","","","","","","","","","","","","","",""
"","deliberation","","html-keyboard-response","141","476644","0.0-79.0-1.0","0","0","qZmtG","People","","1740","","","","68","","","","23","17","29","0","1","67","42","gleb-lukomets-paBzWCPN23k-unsplash.jpg","leilani-angel-K84vnnzxmTQ-unsplash.jpg","2","1","17","29","","","","","","","","","","","","","","","","","","","","","","","","","","","",""
"","choice_confirmation","","html-keyboard-response","142","477155","0.0-79.0-2.0-0.0","0","0","qZmtG","People","","null","","","","null","","","","23","17","29","","","","","","","","","","","","","","","","","","","","","","","","","","","","","","","","","","","","","",""
"","start_critical_deliberation_block","","html-keyboard-response","143","478826","0.0-79.0-7.0-0.0","0","0","qZmtG","People","","1669","","","","78","","","","","","","","","","","","","","","","","","","","","","","","","","","","","","","","","","","","","","","","","","","",""
"","fixation","","html-keyboard-response","144","479837","0.0-80.0-0.0","0","0","qZmtG","People","","null","","","","null","","","","","","","","","","","","","","","","","","","","","","","","","","","","","","","","","","","","","","","","","","","",""
"","deliberation","","html-keyboard-response","145","482022","0.0-80.0-1.0","0","0","qZmtG","People","","2184","","","","75","","","","24","36","44","0","-1","73","59","ospan-ali-mGdA2fzjWLo-unsplash.jpg","rikonavt-HQjfrvdTfak-unsplash.jpg","3","0","44","36","","","","","","","","","","","","","","","","","","","","","","","","","","","",""
"","choice_confirmation","","html-keyboard-response","146","482533","0.0-80.0-2.0-0.0","0","0","qZmtG","People","","null","","","","null","","","","24","36","44","","","","","","","","","","","","","","","","","","","","","","","","","","","","","","","","","","","","","",""
"","fixation","","html-keyboard-response","147","483545","0.0-81.0-0.0","0","0","qZmtG","People","","null","","","","null","","","","","","","","","","","","","","","","","","","","","","","","","","","","","","","","","","","","","","","","","","","",""
"","deliberation","","html-keyboard-response","148","484364","0.0-81.0-1.0","0","0","qZmtG","People","","815","","","","68","","","","25","14","30","0","-1","41","41","freddy-kearney-o-ioeoATbIM-unsplash.jpg","matheus-ferrero-pg_WCHWSdT8-unsplash.jpg","3","1","14","30","","","","","","","","","","","","","","","","","","","","","","","","","","","",""
"","choice_confirmation","","html-keyboard-response","149","484869","0.0-81.0-2.0-0.0","0","0","qZmtG","People","","null","","","","null","","","","25","14","30","","","","","","","","","","","","","","","","","","","","","","","","","","","","","","","","","","","","","",""
"","fixation","","html-keyboard-response","150","485882","0.0-82.0-0.0","0","0","qZmtG","People","","null","","","","null","","","","","","","","","","","","","","","","","","","","","","","","","","","","","","","","","","","","","","","","","","","",""
"","deliberation","","html-keyboard-response","151","486634","0.0-82.0-1.0","0","0","qZmtG","People","","751","","","","75","","","","26","10","33","0","-1","62","61","charles-etoroma-95UF6LXe-Lo-unsplash.jpg","olena-sergienko-0TSd6uCKTKc-unsplash.jpg","3","0","33","10","","","","","","","","","","","","","","","","","","","","","","","","","","","",""
"","choice_confirmation","","html-keyboard-response","152","487146","0.0-82.0-2.0-0.0","0","0","qZmtG","People","","null","","","","null","","","","26","10","33","","","","","","","","","","","","","","","","","","","","","","","","","","","","","","","","","","","","","",""
"","fixation","","html-keyboard-response","153","488157","0.0-83.0-0.0","0","0","qZmtG","People","","null","","","","null","","","","","","","","","","","","","","","","","","","","","","","","","","","","","","","","","","","","","","","","","","","",""
"","deliberation","","html-keyboard-response","154","488931","0.0-83.0-1.0","0","0","qZmtG","People","","770","","","","68","","","","27","17","29","0","1","67","42","gleb-lukomets-paBzWCPN23k-unsplash.jpg","leilani-angel-K84vnnzxmTQ-unsplash.jpg","3","1","17","29","","","","","","","","","","","","","","","","","","","","","","","","","","","",""
"","choice_confirmation","","html-keyboard-response","155","489437","0.0-83.0-2.0-0.0","0","0","qZmtG","People","","null","","","","null","","","","27","17","29","","","","","","","","","","","","","","","","","","","","","","","","","","","","","","","","","","","","","",""
"","fixation","","html-keyboard-response","156","490448","0.0-84.0-0.0","0","0","qZmtG","People","","null","","","","null","","","","","","","","","","","","","","","","","","","","","","","","","","","","","","","","","","","","","","","","","","","",""
"","deliberation","","html-keyboard-response","157","491224","0.0-84.0-1.0","0","0","qZmtG","People","","775","","","","75","","","","28","12","24","0","-1","66","67","daniel-rigdon-dXmXKPP2L4E-unsplash.jpg","joel-mott-LaK153ghdig-unsplash.jpg","3","0","24","12","","","","","","","","","","","","","","","","","","","","","","","","","","","",""
"","choice_confirmation","","html-keyboard-response","158","491732","0.0-84.0-2.0-0.0","0","0","qZmtG","People","","null","","","","null","","","","28","12","24","","","","","","","","","","","","","","","","","","","","","","","","","","","","","","","","","","","","","",""
"","fixation","","html-keyboard-response","159","492739","0.0-85.0-0.0","0","0","qZmtG","People","","null","","","","null","","","","","","","","","","","","","","","","","","","","","","","","","","","","","","","","","","","","","","","","","","","",""
"","deliberation","","html-keyboard-response","160","493586","0.0-85.0-1.0","0","0","qZmtG","People","","846","","","","75","","","","29","46","15","0","1","72","73","stefan-stefancik-QXevDflbl8A-unsplash.jpg","gabriel-silverio-u3WmDyKGsrY-unsplash.jpg","3","0","15","46","","","","","","","","","","","","","","","","","","","","","","","","","","","",""
"","choice_confirmation","","html-keyboard-response","161","494110","0.0-85.0-2.0-0.0","0","0","qZmtG","People","","null","","","","null","","","","29","46","15","","","","","","","","","","","","","","","","","","","","","","","","","","","","","","","","","","","","","",""
"","fixation","","html-keyboard-response","162","495122","0.0-86.0-0.0","0","0","qZmtG","People","","null","","","","null","","","","","","","","","","","","","","","","","","","","","","","","","","","","","","","","","","","","","","","","","","","",""
"","deliberation","","html-keyboard-response","163","495972","0.0-86.0-1.0","0","0","qZmtG","People","","848","","","","68","","","","30","32","19","0","1","67","45","nathan-dumlao-ger61_TX6oI-unsplash.jpg","ha-nguy-n-OFSQ6bHjFjs-unsplash.jpg","3","1","32","19","","","","","","","","","","","","","","","","","","","","","","","","","","","",""
"","choice_confirmation","","html-keyboard-response","164","496494","0.0-86.0-2.0-0.0","0","0","qZmtG","People","","null","","","","null","","","","30","32","19","","","","","","","","","","","","","","","","","","","","","","","","","","","","","","","","","","","","","",""
"","fixation","","html-keyboard-response","165","497512","0.0-87.0-0.0","0","0","qZmtG","People","","null","","","","null","","","","","","","","","","","","","","","","","","","","","","","","","","","","","","","","","","","","","","","","","","","",""
"","deliberation","","html-keyboard-response","166","498312","0.0-87.0-1.0","0","0","qZmtG","People","","798","","","","75","","","","31","41","11","0","-1","62","72","prince-akachi-i2hoD-C2RUA-unsplash.jpg","christian-ferrer-8vT-DgHZDG4-unsplash.jpg","3","0","11","41","","","","","","","","","","","","","","","","","","","","","","","","","","","",""
"","choice_confirmation","","html-keyboard-response","167","498821","0.0-87.0-2.0-0.0","0","0","qZmtG","People","","null","","","","null","","","","31","41","11","","","","","","","","","","","","","","","","","","","","","","","","","","","","","","","","","","","","","",""
"","fixation","","html-keyboard-response","168","499845","0.0-88.0-0.0","0","0","qZmtG","People","","null","","","","null","","","","","","","","","","","","","","","","","","","","","","","","","","","","","","","","","","","","","","","","","","","",""
"","deliberation","","html-keyboard-response","169","500674","0.0-88.0-1.0","0","0","qZmtG","People","","827","","","","68","","","","32","25","2","0","1","50","52","joseph-gonzalez-iFgRcqHznqg-unsplash.jpg","arjunsyah-TBUA5KHJn6k-unsplash.jpg","3","1","25","2","","","","","","","","","","","","","","","","","","","","","","","","","","","",""
"","choice_confirmation","","html-keyboard-response","170","501186","0.0-88.0-2.0-0.0","0","0","qZmtG","People","","null","","","","null","","","","32","25","2","","","","","","","","","","","","","","","","","","","","","","","","","","","","","","","","","","","","","",""
"","fixation","","html-keyboard-response","171","502197","0.0-89.0-0.0","0","0","qZmtG","People","","null","","","","null","","","","","","","","","","","","","","","","","","","","","","","","","","","","","","","","","","","","","","","","","","","",""
"","deliberation","","html-keyboard-response","172","503039","0.0-89.0-1.0","0","0","qZmtG","People","","838","","","","75","","","","33","1","47","0","1","70","64","aiony-haust-jmATI5Q_YgY-unsplash.jpg","tyler-nix-ZGa9d1a_4tA-unsplash.jpg","3","0","47","1","","","","","","","","","","","","","","","","","","","","","","","","","","","",""
"","choice_confirmation","","html-keyboard-response","173","503550","0.0-89.0-2.0-0.0","0","0","qZmtG","People","","null","","","","null","","","","33","1","47","","","","","","","","","","","","","","","","","","","","","","","","","","","","","","","","","","","","","",""
"","fixation","","html-keyboard-response","174","504567","0.0-90.0-0.0","0","0","qZmtG","People","","null","","","","null","","","","","","","","","","","","","","","","","","","","","","","","","","","","","","","","","","","","","","","","","","","",""
"","deliberation","","html-keyboard-response","175","505447","0.0-90.0-1.0","0","0","qZmtG","People","","876","","","","75","","","","34","5","49","0","1","61","68","batel-studio-ttSRjiYG_WM-unsplash.jpg","vicky-hladynets-_gDoyVv5F4c-unsplash.jpg","3","0","49","5","","","","","","","","","","","","","","","","","","","","","","","","","","","",""
"","choice_confirmation","","html-keyboard-response","176","505959","0.0-90.0-2.0-0.0","0","0","qZmtG","People","","null","","","","null","","","","34","5","49","","","","","","","","","","","","","","","","","","","","","","","","","","","","","","","","","","","","","",""
"","fixation","","html-keyboard-response","177","506977","0.0-91.0-0.0","0","0","qZmtG","People","","null","","","","null","","","","","","","","","","","","","","","","","","","","","","","","","","","","","","","","","","","","","","","","","","","",""
"","deliberation","","html-keyboard-response","178","508256","0.0-91.0-1.0","0","0","qZmtG","People","","1277","","","","68","","","","35","20","16","0","-1","62","59","houcine-ncib-B4TjXnI0Y2c-unsplash.jpg","giano-currie-5-9YOsmf8IQ-unsplash.jpg","3","1","20","16","","","","","","","","","","","","","","","","","","","","","","","","","","","",""
"","choice_confirmation","","html-keyboard-response","179","508778","0.0-91.0-2.0-0.0","0","0","qZmtG","People","","null","","","","null","","","","35","20","16","","","","","","","","","","","","","","","","","","","","","","","","","","","","","","","","","","","","","",""
"","reward_learning_instructions","","instructions","180","543374","0.0-92.0-0.0","0","0","qZmtG","People","[{""page_index"":0,""viewing_time"":17530},{""page_index"":1,""viewing_time"":14928},{""page_index"":2,""viewing_time"":2137}]","34595","","","","","","","","","","","","","","","","","","","","","","","","","","","","","","","","","","","","","","","","","","","","","","","",""
"","","","survey-multi-choice","181","553074","0.0-92.0-1.0","0","0","qZmtG","People","","9697","{""Q0"":""True"",""Q1"":""True"",""Q2"":""Press the space bar to see its outcome"",""Q3"":""Press the relevant key while the outcome is presented""}","reward_comprehension_check","0","","","","","","","","","","","","","","","","","","","","","","","","","","","","","","","","","","","","","","","","","","","","",""
"","start_phase","","html-keyboard-response","182","554951","0.0-93.0","0","0","qZmtG","People","","1875","","","","78","","","","","","","","","","","","","","","","","","","","","","","","","","","","","","","","","","","","","","","","","","","",""
"","fixation","","html-keyboard-response","183","555960","0.0-94.0","0","0","qZmtG","People","","null","","","","null","","","","","","","","","","","","","","","","","","","","","","","","","","","","","","","","","","","","","","","","","","","",""
"","see_reward","","html-keyboard-response","184","556821","0.0-95.0","0","0","qZmtG","People","","856","","","","32","","14","","0","","","","-1","","","","","1","","","","","0","856","","","","","","","","","","","","","","","","","","","","","","","","",""
"","reward_outcome","","html-keyboard-response","185","558844","0.0-96.0","0","0","qZmtG","People","","896","","","","40","","14","","0","","","","","","","","","","","","","","","","-1","896","","","","","","","","","","","","","","","","","","","","","","",""
"","fixation","","html-keyboard-response","186","559868","0.0-99.0","0","0","qZmtG","People","","null","","","","null","","","","","","","","","","","","","","","","","","","","","","","","","","","","","","","","","","","","","","","","","","","",""
"","see_reward","","html-keyboard-response","187","560036","0.0-100.0","0","0","qZmtG","People","","166","","","","32","","25","","1","","","","1","","","","","1","","","","","140","166","","","","","","","","","","","","","","","","","","","","","","","","",""
"","reward_outcome","","html-keyboard-response","188","562052","0.0-101.0","0","0","qZmtG","People","","785","","","","38","","25","","1","","","","","","","","","","","","","","","","1","785","","","","","","","","","","","","","","","","","","","","","","",""
"","fixation","","html-keyboard-response","189","563064","0.0-104.0","0","0","qZmtG","People","","null","","","","null","","","","","","","","","","","","","","","","","","","","","","","","","","","","","","","","","","","","","","","","","","","",""
"","see_reward","","html-keyboard-response","190","563678","0.0-105.0","0","0","qZmtG","People","","612","","","","32","","33","","2","","","","-1","","","","","1","","","","","0","612","","","","","","","","","","","","","","","","","","","","","","","","",""
"","reward_outcome","","html-keyboard-response","191","565701","0.0-106.0","0","0","qZmtG","People","","587","","","","40","","33","","2","","","","","","","","","","","","","","","","-1","587","","","","","","","","","","","","","","","","","","","","","","",""
"","fixation","","html-keyboard-response","192","566716","0.0-109.0","0","0","qZmtG","People","","null","","","","null","","","","","","","","","","","","","","","","","","","","","","","","","","","","","","","","","","","","","","","","","","","",""
"","see_reward","","html-keyboard-response","193","567261","0.0-110.0","0","0","qZmtG","People","","541","","","","32","","32","","3","","","","1","","","","","1","","","","","148","541","","","","","","","","","","","","","","","","","","","","","","","","",""
"","reward_outcome","","html-keyboard-response","194","569278","0.0-111.0","0","0","qZmtG","People","","692","","","","38","","32","","3","","","","","","","","","","","","","","","","1","692","","","","","","","","","","","","","","","","","","","","","","",""
"","fixation","","html-keyboard-response","195","570289","0.0-114.0","0","0","qZmtG","People","","null","","","","null","","","","","","","","","","","","","","","","","","","","","","","","","","","","","","","","","","","","","","","","","","","",""
"","see_reward","","html-keyboard-response","196","571149","0.0-115.0","0","0","qZmtG","People","","857","","","","32","","11","","4","","","","-1","","","","","1","","","","","0","857","","","","","","","","","","","","","","","","","","","","","","","","",""
"","reward_outcome","","html-keyboard-response","197","573162","0.0-116.0","0","0","qZmtG","People","","1216","","","","40","","11","","4","","","","","","","","","","","","","","","","-1","1216","","","","","","","","","","","","","","","","","","","","","","",""
"","fixation","","html-keyboard-response","198","574176","0.0-119.0","0","0","qZmtG","People","","null","","","","null","","","","","","","","","","","","","","","","","","","","","","","","","","","","","","","","","","","","","","","","","","","",""
"","see_reward","","html-keyboard-response","199","574701","0.0-120.0","0","0","qZmtG","People","","523","","","","32","","20","","5","","","","-1","","","","","1","","","","","0","523","","","","","","","","","","","","","","","","","","","","","","","","",""
"","reward_outcome","","html-keyboard-response","200","576715","0.0-121.0","0","0","qZmtG","People","","658","","","","40","","20","","5","","","","","","","","","","","","","","","","-1","658","","","","","","","","","","","","","","","","","","","","","","",""
"","fixation","","html-keyboard-response","201","577734","0.0-124.0","0","0","qZmtG","People","","null","","","","null","","","","","","","","","","","","","","","","","","","","","","","","","","","","","","","","","","","","","","","","","","","",""
"","see_reward","","html-keyboard-response","202","578256","0.0-125.0","0","0","qZmtG","People","","521","","","","32","","25","","6","","","","1","","","","","1","","","","","140","521","","","","","","","","","","","","","","","","","","","","","","","","",""
"","reward_outcome","","html-keyboard-response","203","580265","0.0-126.0","0","0","qZmtG","People","","635","","","","38","","25","","6","","","","","","","","","","","","","","","","1","635","","","","","","","","","","","","","","","","","","","","","","",""
"","fixation","","html-keyboard-response","204","581277","0.0-129.0","0","0","qZmtG","People","","null","","","","null","","","","","","","","","","","","","","","","","","","","","","","","","","","","","","","","","","","","","","","","","","","",""
"","see_reward","","html-keyboard-response","205","581835","0.0-130.0","0","0","qZmtG","People","","555","","","","32","","24","","7","","","","-1","","","","","1","","","","","0","555","","","","","","","","","","","","","","","","","","","","","","","","",""
"","reward_outcome","","html-keyboard-response","206","583851","0.0-131.0","0","0","qZmtG","People","","612","","","","40","","24","","7","","","","","","","","","","","","","","","","-1","612","","","","","","","","","","","","","","","","","","","","","","",""
"","fixation","","html-keyboard-response","207","584861","0.0-134.0","0","0","qZmtG","People","","null","","","","null","","","","","","","","","","","","","","","","","","","","","","","","","","","","","","","","","","","","","","","","","","","",""
"","see_reward","","html-keyboard-response","208","585414","0.0-135.0","0","0","qZmtG","People","","550","","","","32","","32","","8","","","","1","","","","","1","","","","","148","550","","","","","","","","","","","","","","","","","","","","","","","","",""
"","reward_outcome","","html-keyboard-response","209","587434","0.0-136.0","0","0","qZmtG","People","","699","","","","38","","32","","8","","","","","","","","","","","","","","","","1","699","","","","","","","","","","","","","","","","","","","","","","",""
"","fixation","","html-keyboard-response","210","588447","0.0-139.0","0","0","qZmtG","People","","null","","","","null","","","","","","","","","","","","","","","","","","","","","","","","","","","","","","","","","","","","","","","","","","","",""
"","see_reward","","html-keyboard-response","211","588902","0.0-140.0","0","0","qZmtG","People","","450","","","","32","","49","","9","","","","1","","","","","1","","","","","154","450","","","","","","","","","","","","","","","","","","","","","","","","",""
"","reward_outcome","","html-keyboard-response","212","590920","0.0-141.0","0","0","qZmtG","People","","678","","","","38","","49","","9","","","","","","","","","","","","","","","","1","678","","","","","","","","","","","","","","","","","","","","","","",""
"","fixation","","html-keyboard-response","213","591939","0.0-144.0","0","0","qZmtG","People","","null","","","","null","","","","","","","","","","","","","","","","","","","","","","","","","","","","","","","","","","","","","","","","","","","",""
"","see_reward","","html-keyboard-response","214","592480","0.0-145.0","0","0","qZmtG","People","","538","","","","32","","15","","10","","","","1","","","","","1","","","","","140","538","","","","","","","","","","","","","","","","","","","","","","","","",""
"","reward_outcome","","html-keyboard-response","215","594501","0.0-146.0","0","0","qZmtG","People","","563","","","","38","","15","","10","","","","","","","","","","","","","","","","1","563","","","","","","","","","","","","","","","","","","","","","","",""
"","fixation","","html-keyboard-response","216","595515","0.0-149.0","0","0","qZmtG","People","","null","","","","null","","","","","","","","","","","","","","","","","","","","","","","","","","","","","","","","","","","","","","","","","","","",""
"","see_reward","","html-keyboard-response","217","595950","0.0-150.0","0","0","qZmtG","People","","433","","","","32","","14","","11","","","","-1","","","","","1","","","","","0","433","","","","","","","","","","","","","","","","","","","","","","","","",""
"","reward_outcome","","html-keyboard-response","218","597974","0.0-151.0","0","0","qZmtG","People","","715","","","","40","","14","","11","","","","","","","","","","","","","","","","-1","715","","","","","","","","","","","","","","","","","","","","","","",""
"","fixation","","html-keyboard-response","219","598989","0.0-154.0","0","0","qZmtG","People","","null","","","","null","","","","","","","","","","","","","","","","","","","","","","","","","","","","","","","","","","","","","","","","","","","",""
"","see_reward","","html-keyboard-response","220","599635","0.0-155.0","0","0","qZmtG","People","","643","","","","32","","47","","12","","","","1","","","","","1","","","","","156","643","","","","","","","","","","","","","","","","","","","","","","","","",""
"","reward_outcome","","html-keyboard-response","221","601639","0.0-156.0","0","0","qZmtG","People","","609","","","","38","","47","","12","","","","","","","","","","","","","","","","1","609","","","","","","","","","","","","","","","","","","","","","","",""
"","fixation","","html-keyboard-response","222","602650","0.0-159.0","0","0","qZmtG","People","","null","","","","null","","","","","","","","","","","","","","","","","","","","","","","","","","","","","","","","","","","","","","","","","","","",""
"","see_reward","","html-keyboard-response","223","603187","0.0-160.0","0","0","qZmtG","People","","534","","","","32","","17","","13","","","","1","","","","","1","","","","","150","534","","","","","","","","","","","","","","","","","","","","","","","","",""
"","reward_outcome","","html-keyboard-response","224","605198","0.0-161.0","0","0","qZmtG","People","","568","","","","38","","17","","13","","","","","","","","","","","","","","","","1","568","","","","","","","","","","","","","","","","","","","","","","",""
"","fixation","","html-keyboard-response","225","606213","0.0-164.0","0","0","qZmtG","People","","null","","","","null","","","","","","","","","","","","","","","","","","","","","","","","","","","","","","","","","","","","","","","","","","","",""
"","see_reward","","html-keyboard-response","226","606676","0.0-165.0","0","0","qZmtG","People","","460","","","","32","","20","","14","","","","-1","","","","","1","","","","","0","460","","","","","","","","","","","","","","","","","","","","","","","","",""
"","reward_outcome","","html-keyboard-response","227","608695","0.0-166.0","0","0","qZmtG","People","","609","","","","40","","20","","14","","","","","","","","","","","","","","","","-1","609","","","","","","","","","","","","","","","","","","","","","","",""
"","fixation","","html-keyboard-response","228","609709","0.0-169.0","0","0","qZmtG","People","","null","","","","null","","","","","","","","","","","","","","","","","","","","","","","","","","","","","","","","","","","","","","","","","","","",""
"","see_reward","","html-keyboard-response","229","610095","0.0-170.0","0","0","qZmtG","People","","384","","","","32","","44","","15","","","","-1","","","","","1","","","","","0","384","","","","","","","","","","","","","","","","","","","","","","","","",""
"","reward_outcome","","html-keyboard-response","230","612111","0.0-171.0","0","0","qZmtG","People","","612","","","","40","","44","","15","","","","","","","","","","","","","","","","-1","612","","","","","","","","","","","","","","","","","","","","","","",""
"","fixation","","html-keyboard-response","231","613127","0.0-174.0","0","0","qZmtG","People","","null","","","","null","","","","","","","","","","","","","","","","","","","","","","","","","","","","","","","","","","","","","","","","","","","",""
"","see_reward","","html-keyboard-response","232","613676","0.0-175.0","0","0","qZmtG","People","","545","","","","32","","15","","16","","","","1","","","","","1","","","","","140","545","","","","","","","","","","","","","","","","","","","","","","","","",""
"","reward_outcome","","html-keyboard-response","233","615683","0.0-176.0","0","0","qZmtG","People","","520","","","","38","","15","","16","","","","","","","","","","","","","","","","1","520","","","","","","","","","","","","","","","","","","","","","","",""
"","fixation","","html-keyboard-response","234","616699","0.0-179.0","0","0","qZmtG","People","","null","","","","null","","","","","","","","","","","","","","","","","","","","","","","","","","","","","","","","","","","","","","","","","","","",""
"","see_reward","","html-keyboard-response","235","617253","0.0-180.0","0","0","qZmtG","People","","550","","","","32","","47","","17","","","","1","","","","","1","","","","","156","550","","","","","","","","","","","","","","","","","","","","","","","","",""
"","reward_outcome","","html-keyboard-response","236","619270","0.0-181.0","0","0","qZmtG","People","","586","","","","38","","47","","17","","","","","","","","","","","","","","","","1","586","","","","","","","","","","","","","","","","","","","","","","",""
"","fixation","","html-keyboard-response","237","620292","0.0-184.0","0","0","qZmtG","People","","null","","","","null","","","","","","","","","","","","","","","","","","","","","","","","","","","","","","","","","","","","","","","","","","","",""
"","see_reward","","html-keyboard-response","238","620831","0.0-185.0","0","0","qZmtG","People","","536","","","","32","","49","","18","","","","1","","","","","1","","","","","154","536","","","","","","","","","","","","","","","","","","","","","","","","",""
"","reward_outcome","","html-keyboard-response","239","622856","0.0-186.0","0","0","qZmtG","People","","429","","","","38","","49","","18","","","","","","","","","","","","","","","","1","429","","","","","","","","","","","","","","","","","","","","","","",""
"","fixation","","html-keyboard-response","240","623867","0.0-189.0","0","0","qZmtG","People","","null","","","","null","","","","","","","","","","","","","","","","","","","","","","","","","","","","","","","","","","","","","","","","","","","",""
"","see_reward","","html-keyboard-response","241","624319","0.0-190.0","0","0","qZmtG","People","","448","","","","32","","17","","19","","","","1","","","","","1","","","","","150","448","","","","","","","","","","","","","","","","","","","","","","","","",""
"","reward_outcome","","html-keyboard-response","242","626333","0.0-191.0","0","0","qZmtG","People","","743","","","","38","","17","","19","","","","","","","","","","","","","","","","1","743","","","","","","","","","","","","","","","","","","","","","","",""
"","fixation","","html-keyboard-response","243","627348","0.0-194.0","0","0","qZmtG","People","","null","","","","null","","","","","","","","","","","","","","","","","","","","","","","","","","","","","","","","","","","","","","","","","","","",""
"","see_reward","","html-keyboard-response","244","627806","0.0-195.0","0","0","qZmtG","People","","453","","","","32","","24","","20","","","","-1","","","","","1","","","","","0","453","","","","","","","","","","","","","","","","","","","","","","","","",""
"","reward_outcome","","html-keyboard-response","245","629825","0.0-196.0","0","0","qZmtG","People","","542","","","","40","","24","","20","","","","","","","","","","","","","","","","-1","542","","","","","","","","","","","","","","","","","","","","","","",""
"","fixation","","html-keyboard-response","246","630840","0.0-199.0","0","0","qZmtG","People","","null","","","","null","","","","","","","","","","","","","","","","","","","","","","","","","","","","","","","","","","","","","","","","","","","",""
"","see_reward","","html-keyboard-response","247","631315","0.0-200.0","0","0","qZmtG","People","","471","","","","32","","33","","21","","","","-1","","","","","1","","","","","0","471","","","","","","","","","","","","","","","","","","","","","","","","",""
"","reward_outcome","","html-keyboard-response","248","633332","0.0-201.0","0","0","qZmtG","People","","587","","","","40","","33","","21","","","","","","","","","","","","","","","","-1","587","","","","","","","","","","","","","","","","","","","","","","",""
"","fixation","","html-keyboard-response","249","634346","0.0-204.0","0","0","qZmtG","People","","null","","","","null","","","","","","","","","","","","","","","","","","","","","","","","","","","","","","","","","","","","","","","","","","","",""
"","see_reward","","html-keyboard-response","250","634736","0.0-205.0","0","0","qZmtG","People","","386","","","","32","","11","","22","","","","-1","","","","","1","","","","","0","386","","","","","","","","","","","","","","","","","","","","","","","","",""
"","reward_outcome","","html-keyboard-response","251","636745","0.0-206.0","0","0","qZmtG","People","","496","","","","40","","11","","22","","","","","","","","","","","","","","","","-1","496","","","","","","","","","","","","","","","","","","","","","","",""
"","fixation","","html-keyboard-response","252","637756","0.0-209.0","0","0","qZmtG","People","","null","","","","null","","","","","","","","","","","","","","","","","","","","","","","","","","","","","","","","","","","","","","","","","","","",""
"","see_reward","","html-keyboard-response","253","638243","0.0-210.0","0","0","qZmtG","People","","485","","","","32","","44","","23","","","","-1","","","","","1","","","","","0","485","","","","","","","","","","","","","","","","","","","","","","","","",""
"","reward_outcome","","html-keyboard-response","254","640260","0.0-211.0","0","0","qZmtG","People","","613","","","","40","","44","","23","","","","","","","","","","","","","","","","-1","613","","","","","","","","","","","","","","","","","","","","","","",""
"","block_over","","html-keyboard-response","255","642544","0.0-213.0-0.0","0","0","qZmtG","People","","2281","","","","78","","","","","","","","","","","","","","","","","","","","","","","","","","","","","","","","","","","","","","","","","","","",""
"","fixation","","html-keyboard-response","256","643564","0.0-214.0","0","0","qZmtG","People","","null","","","","null","","","","","","","","","","","","","","","","","","","","","","","","","","","","","","","","","","","","","","","","","","","",""
"","see_reward","","html-keyboard-response","257","644416","0.0-215.0","0","0","qZmtG","People","","848","","","","32","","33","","24","","","","-1","","","","","2","","","","","0","848","","","","","","","","","","","","","","","","","","","","","","","","",""
"","reward_outcome","","html-keyboard-response","258","646426","0.0-216.0","0","0","qZmtG","People","","761","","","","40","","33","","24","","","","","","","","","","","","","","","","-1","761","","","","","","","","","","","","","","","","","","","","","","",""
"","fixation","","html-keyboard-response","259","647439","0.0-219.0","0","0","qZmtG","People","","null","","","","null","","","","","","","","","","","","","","","","","","","","","","","","","","","","","","","","","","","","","","","","","","","",""
"","see_reward","","html-keyboard-response","260","647943","0.0-220.0","0","0","qZmtG","People","","501","","","","32","","47","","25","","","","1","","","","","2","","","","","156","501","","","","","","","","","","","","","","","","","","","","","","","","",""
"","reward_outcome","","html-keyboard-response","261","649963","0.0-221.0","0","0","qZmtG","People","","498","","","","38","","47","","25","","","","","","","","","","","","","","","","1","498","","","","","","","","","","","","","","","","","","","","","","",""
"","fixation","","html-keyboard-response","262","650975","0.0-224.0","0","0","qZmtG","People","","null","","","","null","","","","","","","","","","","","","","","","","","","","","","","","","","","","","","","","","","","","","","","","","","","",""
"","see_reward","","html-keyboard-response","263","651901","0.0-225.0","0","0","qZmtG","People","","924","","","","32","","14","","26","","","","-1","","","","","2","","","","","0","924","","","","","","","","","","","","","","","","","","","","","","","","",""
"","reward_outcome","","html-keyboard-response","264","653915","0.0-226.0","0","0","qZmtG","People","","342","","","","40","","14","","26","","","","","","","","","","","","","","","","-1","342","","","","","","","","","","","","","","","","","","","","","","",""
"","fixation","","html-keyboard-response","265","654929","0.0-229.0","0","0","qZmtG","People","","null","","","","null","","","","","","","","","","","","","","","","","","","","","","","","","","","","","","","","","","","","","","","","","","","",""
"","see_reward","","html-keyboard-response","266","655681","0.0-230.0","0","0","qZmtG","People","","751","","","","32","","15","","27","","","","1","","","","","2","","","","","140","751","","","","","","","","","","","","","","","","","","","","","","","","",""
"","reward_outcome","","html-keyboard-response","267","657690","0.0-231.0","0","0","qZmtG","People","","477","","","","38","","15","","27","","","","","","","","","","","","","","","","1","477","","","","","","","","","","","","","","","","","","","","","","",""
"","fixation","","html-keyboard-response","268","658710","0.0-234.0","0","0","qZmtG","People","","null","","","","null","","","","","","","","","","","","","","","","","","","","","","","","","","","","","","","","","","","","","","","","","","","",""
"","see_reward","","html-keyboard-response","269","659148","0.0-235.0","0","0","qZmtG","People","","436","","","","32","","17","","28","","","","1","","","","","2","","","","","150","436","","","","","","","","","","","","","","","","","","","","","","","","",""
"","reward_outcome","","html-keyboard-response","270","661158","0.0-236.0","0","0","qZmtG","People","","363","","","","38","","17","","28","","","","","","","","","","","","","","","","1","363","","","","","","","","","","","","","","","","","","","","","","",""
"","fixation","","html-keyboard-response","271","662183","0.0-239.0","0","0","qZmtG","People","","null","","","","null","","","","","","","","","","","","","","","","","","","","","","","","","","","","","","","","","","","","","","","","","","","",""
"","see_reward","","html-keyboard-response","272","662706","0.0-240.0","0","0","qZmtG","People","","520","","","","32","","24","","29","","","","-1","","","","","2","","","","","0","520","","","","","","","","","","","","","","","","","","","","","","","","",""
"","reward_outcome","","html-keyboard-response","273","664718","0.0-241.0","0","0","qZmtG","People","","406","","","","40","","24","","29","","","","","","","","","","","","","","","","-1","406","","","","","","","","","","","","","","","","","","","","","","",""
"","fixation","","html-keyboard-response","274","665730","0.0-244.0","0","0","qZmtG","People","","null","","","","null","","","","","","","","","","","","","","","","","","","","","","","","","","","","","","","","","","","","","","","","","","","",""
"","see_reward","","html-keyboard-response","275","666211","0.0-245.0","0","0","qZmtG","People","","479","","","","32","","20","","30","","","","-1","","","","","2","","","","","0","479","","","","","","","","","","","","","","","","","","","","","","","","",""
"","reward_outcome","","html-keyboard-response","276","668224","0.0-246.0","0","0","qZmtG","People","","524","","","","40","","20","","30","","","","","","","","","","","","","","","","-1","524","","","","","","","","","","","","","","","","","","","","","","",""
"","fixation","","html-keyboard-response","277","669237","0.0-249.0","0","0","qZmtG","People","","null","","","","null","","","","","","","","","","","","","","","","","","","","","","","","","","","","","","","","","","","","","","","","","","","",""
"","see_reward","","html-keyboard-response","278","669724","0.0-250.0","0","0","qZmtG","People","","484","","","","32","","24","","31","","","","-1","","","","","2","","","","","0","484","","","","","","","","","","","","","","","","","","","","","","","","",""
"","reward_outcome","","html-keyboard-response","279","671747","0.0-251.0","0","0","qZmtG","People","","428","","","","40","","24","","31","","","","","","","","","","","","","","","","-1","428","","","","","","","","","","","","","","","","","","","","","","",""
"","fixation","","html-keyboard-response","280","672763","0.0-254.0","0","0","qZmtG","People","","null","","","","null","","","","","","","","","","","","","","","","","","","","","","","","","","","","","","","","","","","","","","","","","","","",""
"","see_reward","","html-keyboard-response","281","673298","0.0-255.0","0","0","qZmtG","People","","532","","","","32","","32","","32","","","","1","","","","","2","","","","","148","532","","","","","","","","","","","","","","","","","","","","","","","","",""
"","reward_outcome","","html-keyboard-response","282","675308","0.0-256.0","0","0","qZmtG","People","","411","","","","38","","32","","32","","","","","","","","","","","","","","","","1","411","","","","","","","","","","","","","","","","","","","","","","",""
"","fixation","","html-keyboard-response","283","676318","0.0-259.0","0","0","qZmtG","People","","null","","","","null","","","","","","","","","","","","","","","","","","","","","","","","","","","","","","","","","","","","","","","","","","","",""
"","see_reward","","html-keyboard-response","284","676810","0.0-260.0","0","0","qZmtG","People","","490","","","","32","","49","","33","","","","1","","","","","2","","","","","154","490","","","","","","","","","","","","","","","","","","","","","","","","",""
"","reward_outcome","","html-keyboard-response","285","678819","0.0-261.0","0","0","qZmtG","People","","386","","","","38","","49","","33","","","","","","","","","","","","","","","","1","386","","","","","","","","","","","","","","","","","","","","","","",""
"","fixation","","html-keyboard-response","286","679833","0.0-264.0","0","0","qZmtG","People","","null","","","","null","","","","","","","","","","","","","","","","","","","","","","","","","","","","","","","","","","","","","","","","","","","",""
"","see_reward","","html-keyboard-response","287","680408","0.0-265.0","0","0","qZmtG","People","","573","","","","32","","33","","34","","","","-1","","","","","2","","","","","0","573","","","","","","","","","","","","","","","","","","","","","","","","",""
"","reward_outcome","","html-keyboard-response","288","682419","0.0-266.0","0","0","qZmtG","People","","635","","","","40","","33","","34","","","","","","","","","","","","","","","","-1","635","","","","","","","","","","","","","","","","","","","","","","",""
"","fixation","","html-keyboard-response","289","683430","0.0-269.0","0","0","qZmtG","People","","null","","","","null","","","","","","","","","","","","","","","","","","","","","","","","","","","","","","","","","","","","","","","","","","","",""
"","see_reward","","html-keyboard-response","290","683967","0.0-270.0","0","0","qZmtG","People","","532","","","","32","","11","","35","","","","-1","","","","","2","","","","","0","532","","","","","","","","","","","","","","","","","","","","","","","","",""
"","reward_outcome","","html-keyboard-response","291","685977","0.0-271.0","0","0","qZmtG","People","","407","","","","40","","11","","35","","","","","","","","","","","","","","","","-1","407","","","","","","","","","","","","","","","","","","","","","","",""
"","fixation","","html-keyboard-response","292","686991","0.0-274.0","0","0","qZmtG","People","","null","","","","null","","","","","","","","","","","","","","","","","","","","","","","","","","","","","","","","","","","","","","","","","","","",""
"","see_reward","","html-keyboard-response","293","687524","0.0-275.0","0","0","qZmtG","People","","529","","","","32","","25","","36","","","","1","","","","","2","","","","","140","529","","","","","","","","","","","","","","","","","","","","","","","","",""
"","reward_outcome","","html-keyboard-response","294","689531","0.0-276.0","0","0","qZmtG","People","","473","","","","38","","25","","36","","","","","","","","","","","","","","","","1","473","","","","","","","","","","","","","","","","","","","","","","",""
"","fixation","","html-keyboard-response","295","690544","0.0-279.0","0","0","qZmtG","People","","null","","","","null","","","","","","","","","","","","","","","","","","","","","","","","","","","","","","","","","","","","","","","","","","","",""
"","see_reward","","html-keyboard-response","296","691077","0.0-280.0","0","0","qZmtG","People","","529","","","","32","","47","","37","","","","1","","","","","2","","","","","156","529","","","","","","","","","","","","","","","","","","","","","","","","",""
"","reward_outcome","","html-keyboard-response","297","693084","0.0-281.0","0","0","qZmtG","People","","453","","","","38","","47","","37","","","","","","","","","","","","","","","","1","453","","","","","","","","","","","","","","","","","","","","","","",""
"","fixation","","html-keyboard-response","298","694098","0.0-284.0","0","0","qZmtG","People","","null","","","","null","","","","","","","","","","","","","","","","","","","","","","","","","","","","","","","","","","","","","","","","","","","",""
"","see_reward","","html-keyboard-response","299","694811","0.0-285.0","0","0","qZmtG","People","","711","","","","32","","49","","38","","","","1","","","","","2","","","","","154","711","","","","","","","","","","","","","","","","","","","","","","","","",""
"","reward_outcome","","html-keyboard-response","300","696829","0.0-286.0","0","0","qZmtG","People","","498","","","","38","","49","","38","","","","","","","","","","","","","","","","1","498","","","","","","","","","","","","","","","","","","","","","","",""
"","fixation","","html-keyboard-response","301","697841","0.0-289.0","0","0","qZmtG","People","","null","","","","null","","","","","","","","","","","","","","","","","","","","","","","","","","","","","","","","","","","","","","","","","","","",""
"","see_reward","","html-keyboard-response","302","698342","0.0-290.0","0","0","qZmtG","People","","498","","","","32","","20","","39","","","","-1","","","","","2","","","","","0","498","","","","","","","","","","","","","","","","","","","","","","","","",""
"","reward_outcome","","html-keyboard-response","303","700365","0.0-291.0","0","0","qZmtG","People","","433","","","","40","","20","","39","","","","","","","","","","","","","","","","-1","433","","","","","","","","","","","","","","","","","","","","","","",""
"","fixation","","html-keyboard-response","304","701377","0.0-294.0","0","0","qZmtG","People","","null","","","","null","","","","","","","","","","","","","","","","","","","","","","","","","","","","","","","","","","","","","","","","","","","",""
"","see_reward","","html-keyboard-response","305","701833","0.0-295.0","0","0","qZmtG","People","","453","","","","32","","11","","40","","","","-1","","","","","2","","","","","0","453","","","","","","","","","","","","","","","","","","","","","","","","",""
"","reward_outcome","","html-keyboard-response","306","703845","0.0-296.0","0","0","qZmtG","People","","563","","","","40","","11","","40","","","","","","","","","","","","","","","","-1","563","","","","","","","","","","","","","","","","","","","","","","",""
"","fixation","","html-keyboard-response","307","704856","0.0-299.0","0","0","qZmtG","People","","null","","","","null","","","","","","","","","","","","","","","","","","","","","","","","","","","","","","","","","","","","","","","","","","","",""
"","see_reward","","html-keyboard-response","308","705389","0.0-300.0","0","0","qZmtG","People","","529","","","","32","","44","","41","","","","-1","","","","","2","","","","","0","529","","","","","","","","","","","","","","","","","","","","","","","","",""
"","reward_outcome","","html-keyboard-response","309","707409","0.0-301.0","0","0","qZmtG","People","","540","","","","40","","44","","41","","","","","","","","","","","","","","","","-1","540","","","","","","","","","","","","","","","","","","","","","","",""
"","fixation","","html-keyboard-response","310","708425","0.0-304.0","0","0","qZmtG","People","","null","","","","null","","","","","","","","","","","","","","","","","","","","","","","","","","","","","","","","","","","","","","","","","","","",""
"","see_reward","","html-keyboard-response","311","708943","0.0-305.0","0","0","qZmtG","People","","515","","","","32","","44","","42","","","","-1","","","","","2","","","","","0","515","","","","","","","","","","","","","","","","","","","","","","","","",""
"","reward_outcome","","html-keyboard-response","312","710953","0.0-306.0","0","0","qZmtG","People","","519","","","","40","","44","","42","","","","","","","","","","","","","","","","-1","519","","","","","","","","","","","","","","","","","","","","","","",""
"","fixation","","html-keyboard-response","313","711969","0.0-309.0","0","0","qZmtG","People","","null","","","","null","","","","","","","","","","","","","","","","","","","","","","","","","","","","","","","","","","","","","","","","","","","",""
"","see_reward","","html-keyboard-response","314","712476","0.0-310.0","0","0","qZmtG","People","","503","","","","32","","17","","43","","","","1","","","","","2","","","","","150","503","","","","","","","","","","","","","","","","","","","","","","","","",""
"","reward_outcome","","html-keyboard-response","315","714487","0.0-311.0","0","0","qZmtG","People","","541","","","","38","","17","","43","","","","","","","","","","","","","","","","1","541","","","","","","","","","","","","","","","","","","","","","","",""
"","fixation","","html-keyboard-response","316","715511","0.0-314.0","0","0","qZmtG","People","","null","","","","null","","","","","","","","","","","","","","","","","","","","","","","","","","","","","","","","","","","","","","","","","","","",""
"","see_reward","","html-keyboard-response","317","715963","0.0-315.0","0","0","qZmtG","People","","450","","","","32","","15","","44","","","","1","","","","","2","","","","","140","450","","","","","","","","","","","","","","","","","","","","","","","","",""
"","reward_outcome","","html-keyboard-response","318","717976","0.0-316.0","0","0","qZmtG","People","","407","","","","38","","15","","44","","","","","","","","","","","","","","","","1","407","","","","","","","","","","","","","","","","","","","","","","",""
"","fixation","","html-keyboard-response","319","718987","0.0-319.0","0","0","qZmtG","People","","null","","","","null","","","","","","","","","","","","","","","","","","","","","","","","","","","","","","","","","","","","","","","","","","","",""
"","see_reward","","html-keyboard-response","320","719630","0.0-320.0","0","0","qZmtG","People","","640","","","","32","","32","","45","","","","1","","","","","2","","","","","148","640","","","","","","","","","","","","","","","","","","","","","","","","",""
"","reward_outcome","","html-keyboard-response","321","721655","0.0-321.0","0","0","qZmtG","People","","409","","","","38","","32","","45","","","","","","","","","","","","","","","","1","409","","","","","","","","","","","","","","","","","","","","","","",""
"","fixation","","html-keyboard-response","322","722666","0.0-324.0","0","0","qZmtG","People","","null","","","","null","","","","","","","","","","","","","","","","","","","","","","","","","","","","","","","","","","","","","","","","","","","",""
"","see_reward","","html-keyboard-response","323","723501","0.0-325.0","0","0","qZmtG","People","","833","","","","32","","14","","46","","","","-1","","","","","2","","","","","0","833","","","","","","","","","","","","","","","","","","","","","","","","",""
"","reward_outcome","","html-keyboard-response","324","725521","0.0-326.0","0","0","qZmtG","People","","609","","","","40","","14","","46","","","","","","","","","","","","","","","","-1","609","","","","","","","","","","","","","","","","","","","","","","",""
"","fixation","","html-keyboard-response","325","726533","0.0-329.0","0","0","qZmtG","People","","null","","","","null","","","","","","","","","","","","","","","","","","","","","","","","","","","","","","","","","","","","","","","","","","","",""
"","see_reward","","html-keyboard-response","326","728474","0.0-330.0","0","0","qZmtG","People","","1937","","","","32","","25","","47","","","","1","","","","","2","","","","","140","1937","","","","","","","","","","","","","","","","","","","","","","","","",""
"","reward_outcome","","html-keyboard-response","327","730495","0.0-331.0","0","0","qZmtG","People","","453","","","","38","","25","","47","","","","","","","","","","","","","","","","1","453","","","","","","","","","","","","","","","","","","","","","","",""
"","block_over","","html-keyboard-response","328","732296","0.0-333.0-0.0","0","0","qZmtG","People","","1800","","","","78","","","","","","","","","","","","","","","","","","","","","","","","","","","","","","","","","","","","","","","","","","","",""
"","fixation","","html-keyboard-response","329","733318","0.0-334.0","0","0","qZmtG","People","","null","","","","null","","","","","","","","","","","","","","","","","","","","","","","","","","","","","","","","","","","","","","","","","","","",""
"","see_reward","","html-keyboard-response","330","734060","0.0-335.0","0","0","qZmtG","People","","739","","","","32","","33","","48","","","","-1","","","","","3","","","","","0","739","","","","","","","","","","","","","","","","","","","","","","","","",""
"","reward_outcome","","html-keyboard-response","331","736075","0.0-336.0","0","0","qZmtG","People","","536","","","","40","","33","","48","","","","","","","","","","","","","","","","-1","536","","","","","","","","","","","","","","","","","","","","","","",""
"","fixation","","html-keyboard-response","332","737086","0.0-339.0","0","0","qZmtG","People","","null","","","","null","","","","","","","","","","","","","","","","","","","","","","","","","","","","","","","","","","","","","","","","","","","",""
"","see_reward","","html-keyboard-response","333","737609","0.0-340.0","0","0","qZmtG","People","","521","","","","32","","20","","49","","","","-1","","","","","3","","","","","0","521","","","","","","","","","","","","","","","","","","","","","","","","",""
"","reward_outcome","","html-keyboard-response","334","739625","0.0-341.0","0","0","qZmtG","People","","405","","","","40","","20","","49","","","","","","","","","","","","","","","","-1","405","","","","","","","","","","","","","","","","","","","","","","",""
"","fixation","","html-keyboard-response","335","740637","0.0-344.0","0","0","qZmtG","People","","null","","","","null","","","","","","","","","","","","","","","","","","","","","","","","","","","","","","","","","","","","","","","","","","","",""
"","see_reward","","html-keyboard-response","336","741187","0.0-345.0","0","0","qZmtG","People","","547","","","","32","","17","","50","","","","1","","","","","3","","","","","150","547","","","","","","","","","","","","","","","","","","","","","","","","",""
"","reward_outcome","","html-keyboard-response","337","743194","0.0-346.0","0","0","qZmtG","People","","475","","","","38","","17","","50","","","","","","","","","","","","","","","","1","475","","","","","","","","","","","","","","","","","","","","","","",""
"","fixation","","html-keyboard-response","338","744209","0.0-349.0","0","0","qZmtG","People","","null","","","","null","","","","","","","","","","","","","","","","","","","","","","","","","","","","","","","","","","","","","","","","","","","",""
"","see_reward","","html-keyboard-response","339","744810","0.0-350.0","0","0","qZmtG","People","","598","","","","32","","24","","51","","","","-1","","","","","3","","","","","0","598","","","","","","","","","","","","","","","","","","","","","","","","",""
"","reward_outcome","","html-keyboard-response","340","746821","0.0-351.0","0","0","qZmtG","People","","430","","","","40","","24","","51","","","","","","","","","","","","","","","","-1","430","","","","","","","","","","","","","","","","","","","","","","",""
"","fixation","","html-keyboard-response","341","747835","0.0-354.0","0","0","qZmtG","People","","null","","","","null","","","","","","","","","","","","","","","","","","","","","","","","","","","","","","","","","","","","","","","","","","","",""
"","see_reward","","html-keyboard-response","342","748343","0.0-355.0","0","0","qZmtG","People","","504","","","","32","","14","","52","","","","-1","","","","","3","","","","","0","504","","","","","","","","","","","","","","","","","","","","","","","","",""
"","reward_outcome","","html-keyboard-response","343","750361","0.0-356.0","0","0","qZmtG","People","","607","","","","40","","14","","52","","","","","","","","","","","","","","","","-1","607","","","","","","","","","","","","","","","","","","","","","","",""
"","fixation","","html-keyboard-response","344","751372","0.0-359.0","0","0","qZmtG","People","","null","","","","null","","","","","","","","","","","","","","","","","","","","","","","","","","","","","","","","","","","","","","","","","","","",""
"","see_reward","","html-keyboard-response","345","752007","0.0-360.0","0","0","qZmtG","People","","632","","","","32","","44","","53","","","","-1","","","","","3","","","","","0","632","","","","","","","","","","","","","","","","","","","","","","","","",""
"","reward_outcome","","html-keyboard-response","346","754028","0.0-361.0","0","0","qZmtG","People","","680","","","","40","","44","","53","","","","","","","","","","","","","","","","-1","680","","","","","","","","","","","","","","","","","","","","","","",""
"","fixation","","html-keyboard-response","347","755044","0.0-364.0","0","0","qZmtG","People","","null","","","","null","","","","","","","","","","","","","","","","","","","","","","","","","","","","","","","","","","","","","","","","","","","",""
"","see_reward","","html-keyboard-response","348","755677","0.0-365.0","0","0","qZmtG","People","","630","","","","32","","49","","54","","","","1","","","","","3","","","","","154","630","","","","","","","","","","","","","","","","","","","","","","","","",""
"","reward_outcome","","html-keyboard-response","349","757693","0.0-366.0","0","0","qZmtG","People","","497","","","","38","","49","","54","","","","","","","","","","","","","","","","1","497","","","","","","","","","","","","","","","","","","","","","","",""
"","fixation","","html-keyboard-response","350","758705","0.0-369.0","0","0","qZmtG","People","","null","","","","null","","","","","","","","","","","","","","","","","","","","","","","","","","","","","","","","","","","","","","","","","","","",""
"","see_reward","","html-keyboard-response","351","759319","0.0-370.0","0","0","qZmtG","People","","613","","","","32","","44","","55","","","","-1","","","","","3","","","","","0","613","","","","","","","","","","","","","","","","","","","","","","","","",""
"","reward_outcome","","html-keyboard-response","352","761329","0.0-371.0","0","0","qZmtG","People","","613","","","","40","","44","","55","","","","","","","","","","","","","","","","-1","613","","","","","","","","","","","","","","","","","","","","","","",""
