"success","ttype","start_time","trial_type","trial_index","time_elapsed","internal_node_id","warning","missed_checkup","PID","stim_type","view_history","rt","responses","category","repeat_instructions","key_press","response","stimulus_id","painting","index","stimulus_left","stimulus_right","explain_trial","reward_type","rating_left","rating_right","painting_left","painting_right","block","left_chosen","chosen_obj","unchosen_obj","explain_response","reward_amount","see_reward_rt","register_reward_response","register_reward_rt","deliberation_reward_tally","stimulus_left_deliberation_ind","stimulus_right_deliberation_ind","chosen_trial","gain_left","higher_outcome_chosen","old_pair","chosen_object","rt_pairs","left_object_chosen","rt_object","old_response","new_rating","deliberated_stim","initial_rating","outcome_eval_rt","outcome_eval_response","outcome_eval_gain","outcome_eval_acc","preamble","outcome_eval_confidence","outcome_eval_confidence_rt","total_reward_tally"
"true","full_screen","d01182023hr1406","fullscreen","0","15748","0.0-0.0","0","0","CvY1u","People","","","","","","","","","","","","","","","","","","","","","","","","","","","","","","","","","","","","","","","","","","","","","","","","","",""
"","rating_instructions","","instructions","1","30405","0.0-1.0-0.0","0","0","CvY1u","People","[{""page_index"":0,""viewing_time"":11849},{""page_index"":1,""viewing_time"":2805}]","14655","","","","","","","","","","","","","","","","","","","","","","","","","","","","","","","","","","","","","","","","","","","","","","","",""
"","","","survey-multi-choice","2","39517","0.0-1.0-1.0","0","0","CvY1u","People","","9108","{""Q0"":""True"",""Q1"":""Mouse""}","rating_comprehension_check","0","","","","","","","","","","","","","","","","","","","","","","","","","","","","","","","","","","","","","","","","","","","","",""
"","start_phase","","html-keyboard-response","3","42353","0.0-2.0","0","0","CvY1u","People","","2833","","","","78","","","","","","","","","","","","","","","","","","","","","","","","","","","","","","","","","","","","","","","","","","","",""
"","rating","","html-slider-response","4","45991","0.0-3.0","0","0","CvY1u","People","","3635","","","","","83","10","charles-etoroma-95UF6LXe-Lo-unsplash.jpg","0","","","","","","","","","","","","","","","","","","","","","","","","","","","","","","","","","","","","","","","",""
"","rating","","html-slider-response","5","49613","0.0-4.0","0","0","CvY1u","People","","3620","","","","","97","25","joseph-gonzalez-iFgRcqHznqg-unsplash.jpg","1","","","","","","","","","","","","","","","","","","","","","","","","","","","","","","","","","","","","","","","",""
"","rating","","html-slider-response","6","53260","0.0-5.0","0","0","CvY1u","People","","3646","","","","","68","16","giano-currie-5-9YOsmf8IQ-unsplash.jpg","2","","","","","","","","","","","","","","","","","","","","","","","","","","","","","","","","","","","","","","","",""
"","rating","","html-slider-response","7","59165","0.0-6.0","0","0","CvY1u","People","","5902","","","","","21","48","velizar-ivanov-7ktP9yZA1g4-unsplash.jpg","3","","","","","","","","","","","","","","","","","","","","","","","","","","","","","","","","","","","","","","","",""
"","rating","","html-slider-response","8","68477","0.0-7.0","0","0","CvY1u","People","","9310","","","","","87","30","matheus-ferrero-pg_WCHWSdT8-unsplash.jpg","4","","","","","","","","","","","","","","","","","","","","","","","","","","","","","","","","","","","","","","","",""
"","rating","","html-slider-response","9","83299","0.0-8.0","0","0","CvY1u","People","","14820","","","","","43","22","jessica-radanavong-mrYkTuAesKE-unsplash.jpg","5","","","","","","","","","","","","","","","","","","","","","","","","","","","","","","","","","","","","","","","",""
"","rating","","html-slider-response","10","87307","0.0-9.0","0","0","CvY1u","People","","4006","","","","","66","39","philip-martin-5aGUyCW_PJw-unsplash.jpg","6","","","","","","","","","","","","","","","","","","","","","","","","","","","","","","","","","","","","","","","",""
"","rating","","html-slider-response","11","92667","0.0-10.0","0","0","CvY1u","People","","5358","","","","","34","23","joanna-nix-walkup-H4fEMshfwTE-unsplash.jpg","7","","","","","","","","","","","","","","","","","","","","","","","","","","","","","","","","","","","","","","","",""
"","rating","","html-slider-response","12","97763","0.0-11.0","0","0","CvY1u","People","","5094","","","","","13","37","pavel-anoshin-d0peGya6R5Y-unsplash.jpg","8","","","","","","","","","","","","","","","","","","","","","","","","","","","","","","","","","","","","","","","",""
"","rating","","html-slider-response","13","102123","0.0-12.0","0","0","CvY1u","People","","4358","","","","","84","3","art-hauntington-jzY0KRJopEI-unsplash.jpg","9","","","","","","","","","","","","","","","","","","","","","","","","","","","","","","","","","","","","","","","",""
"","rating","","html-slider-response","14","107307","0.0-13.0","0","0","CvY1u","People","","5182","","","","","100","38","petr-sevcovic-HzDF-rxlSeM-unsplash.jpg","10","","","","","","","","","","","","","","","","","","","","","","","","","","","","","","","","","","","","","","","",""
"","rating","","html-slider-response","15","112116","0.0-14.0","0","0","CvY1u","People","","4806","","","","","100","47","tyler-nix-ZGa9d1a_4tA-unsplash.jpg","11","","","","","","","","","","","","","","","","","","","","","","","","","","","","","","","","","","","","","","","",""
"","rating","","html-slider-response","16","117595","0.0-15.0","0","0","CvY1u","People","","5476","","","","","37","27","jurica-koletic-7YVZYZeITc8-unsplash.jpg","12","","","","","","","","","","","","","","","","","","","","","","","","","","","","","","","","","","","","","","","",""
"","rating","","html-slider-response","17","122363","0.0-16.0","0","0","CvY1u","People","","4766","","","","","68","21","jessica-felicio-_cvwXhGqG-o-unsplash.jpg","13","","","","","","","","","","","","","","","","","","","","","","","","","","","","","","","","","","","","","","","",""
"","rating","","html-slider-response","18","127667","0.0-17.0","0","0","CvY1u","People","","5302","","","","","78","34","oliver-johnson-1TUIcKob7Zs-unsplash.jpg","14","","","","","","","","","","","","","","","","","","","","","","","","","","","","","","","","","","","","","","","",""
"","rating","","html-slider-response","19","134811","0.0-18.0","0","0","CvY1u","People","","7142","","","","","100","24","joel-mott-LaK153ghdig-unsplash.jpg","15","","","","","","","","","","","","","","","","","","","","","","","","","","","","","","","","","","","","","","","",""
"","rating","","html-slider-response","20","153117","0.0-19.0","0","0","CvY1u","People","","18303","","","","","23","42","prince-akachi-l3IHXOdMyHQ-unsplash.jpg","16","","","","","","","","","","","","","","","","","","","","","","","","","","","","","","","","","","","","","","","",""
"","rating","","html-slider-response","21","159763","0.0-20.0","0","0","CvY1u","People","","6643","","","","","66","1","aiony-haust-jmATI5Q_YgY-unsplash.jpg","17","","","","","","","","","","","","","","","","","","","","","","","","","","","","","","","","","","","","","","","",""
"","rating","","html-slider-response","22","166077","0.0-21.0","0","0","CvY1u","People","","6312","","","","","61","35","oliver-ragfelt-khV4fTy6-D8-unsplash.jpg","18","","","","","","","","","","","","","","","","","","","","","","","","","","","","","","","","","","","","","","","",""
"","rating","","html-slider-response","23","170866","0.0-22.0","0","0","CvY1u","People","","4788","","","","","100","6","ben-o-bro-C5XyLljkMrY-unsplash.jpg","19","","","","","","","","","","","","","","","","","","","","","","","","","","","","","","","","","","","","","","","",""
"","rating","","html-slider-response","24","175650","0.0-23.0","0","0","CvY1u","People","","4782","","","","","66","49","vicky-hladynets-_gDoyVv5F4c-unsplash.jpg","20","","","","","","","","","","","","","","","","","","","","","","","","","","","","","","","","","","","","","","","",""
"","rating","","html-slider-response","25","179897","0.0-24.0","0","0","CvY1u","People","","4244","","","","","89","43","raamin-ka-0qJBEzudn5E-unsplash.jpg","21","","","","","","","","","","","","","","","","","","","","","","","","","","","","","","","","","","","","","","","",""
"","rating","","html-slider-response","26","185426","0.0-25.0","0","0","CvY1u","People","","5527","","","","","59","44","rikonavt-HQjfrvdTfak-unsplash.jpg","22","","","","","","","","","","","","","","","","","","","","","","","","","","","","","","","","","","","","","","","",""
"","rating","","html-slider-response","27","190689","0.0-26.0","0","0","CvY1u","People","","5261","","","","","96","19","ha-nguy-n-OFSQ6bHjFjs-unsplash.jpg","23","","","","","","","","","","","","","","","","","","","","","","","","","","","","","","","","","","","","","","","",""
"","rating","","html-slider-response","28","196426","0.0-27.0","0","0","CvY1u","People","","5735","","","","","61","45","sarah-noltner-pL5ZzPp1zqg-unsplash.jpg","24","","","","","","","","","","","","","","","","","","","","","","","","","","","","","","","","","","","","","","","",""
"","rating","","html-slider-response","29","203625","0.0-28.0","0","0","CvY1u","People","","7197","","","","","64","26","juri-gianfrancesco-9EZadYaMzk4-unsplash.jpg","25","","","","","","","","","","","","","","","","","","","","","","","","","","","","","","","","","","","","","","","",""
"","rating","","html-slider-response","30","209537","0.0-29.0","0","0","CvY1u","People","","5909","","","","","85","14","freddy-kearney-o-ioeoATbIM-unsplash.jpg","26","","","","","","","","","","","","","","","","","","","","","","","","","","","","","","","","","","","","","","","",""
"","rating","","html-slider-response","31","214436","0.0-30.0","0","0","CvY1u","People","","4897","","","","","84","4","barna-bartis-2x3vfVxwR7o-unsplash.jpg","27","","","","","","","","","","","","","","","","","","","","","","","","","","","","","","","","","","","","","","","",""
"","rating","","html-slider-response","32","218866","0.0-31.0","0","0","CvY1u","People","","4428","","","","","86","41","prince-akachi-i2hoD-C2RUA-unsplash.jpg","28","","","","","","","","","","","","","","","","","","","","","","","","","","","","","","","","","","","","","","","",""
"","rating","","html-slider-response","33","223266","0.0-32.0","0","0","CvY1u","People","","4398","","","","","73","33","olena-sergienko-0TSd6uCKTKc-unsplash.jpg","29","","","","","","","","","","","","","","","","","","","","","","","","","","","","","","","","","","","","","","","",""
"","rating","","html-slider-response","34","227682","0.0-33.0","0","0","CvY1u","People","","4414","","","","","50","7","brooke-cagle-HRZUzoX1e6w-unsplash.jpg","30","","","","","","","","","","","","","","","","","","","","","","","","","","","","","","","","","","","","","","","",""
"","rating","","html-slider-response","35","232219","0.0-34.0","0","0","CvY1u","People","","4535","","","","","73","8","bruce-dixon-3M9WJQVHzog-unsplash.jpg","31","","","","","","","","","","","","","","","","","","","","","","","","","","","","","","","","","","","","","","","",""
"","rating","","html-slider-response","36","236474","0.0-35.0","0","0","CvY1u","People","","4253","","","","","28","17","gleb-lukomets-paBzWCPN23k-unsplash.jpg","32","","","","","","","","","","","","","","","","","","","","","","","","","","","","","","","","","","","","","","","",""
"","rating","","html-slider-response","37","240520","0.0-36.0","0","0","CvY1u","People","","4045","","","","","86","46","stefan-stefancik-QXevDflbl8A-unsplash.jpg","33","","","","","","","","","","","","","","","","","","","","","","","","","","","","","","","","","","","","","","","",""
"","rating","","html-slider-response","38","245481","0.0-37.0","0","0","CvY1u","People","","4958","","","","","71","9","carlos-andres-gomez-vJuk8Y86mRw-unsplash.jpg","34","","","","","","","","","","","","","","","","","","","","","","","","","","","","","","","","","","","","","","","",""
"","rating","","html-slider-response","39","250497","0.0-38.0","0","0","CvY1u","People","","5013","","","","","29","31","mathilda-khoo-vLR0YP_otCo-unsplash.jpg","35","","","","","","","","","","","","","","","","","","","","","","","","","","","","","","","","","","","","","","","",""
"","rating","","html-slider-response","40","256809","0.0-39.0","0","0","CvY1u","People","","6309","","","","","20","13","erik-lucatero-d2MSDujJl2g-unsplash.jpg","36","","","","","","","","","","","","","","","","","","","","","","","","","","","","","","","","","","","","","","","",""
"","rating","","html-slider-response","41","262529","0.0-40.0","0","0","CvY1u","People","","5718","","","","","39","2","arjunsyah-TBUA5KHJn6k-unsplash.jpg","37","","","","","","","","","","","","","","","","","","","","","","","","","","","","","","","","","","","","","","","",""
"","rating","","html-slider-response","42","267121","0.0-41.0","0","0","CvY1u","People","","4590","","","","","94","40","prince-akachi-4Yv84VgQkRM-unsplash.jpg","38","","","","","","","","","","","","","","","","","","","","","","","","","","","","","","","","","","","","","","","",""
"","rating","","html-slider-response","43","271456","0.0-42.0","0","0","CvY1u","People","","4333","","","","","79","29","leilani-angel-K84vnnzxmTQ-unsplash.jpg","39","","","","","","","","","","","","","","","","","","","","","","","","","","","","","","","","","","","","","","","",""
"","rating","","html-slider-response","44","275752","0.0-43.0","0","0","CvY1u","People","","4294","","","","","62","11","christian-ferrer-8vT-DgHZDG4-unsplash.jpg","40","","","","","","","","","","","","","","","","","","","","","","","","","","","","","","","","","","","","","","","",""
"","rating","","html-slider-response","45","279824","0.0-44.0","0","0","CvY1u","People","","4070","","","","","76","36","ospan-ali-mGdA2fzjWLo-unsplash.jpg","41","","","","","","","","","","","","","","","","","","","","","","","","","","","","","","","","","","","","","","","",""
"","rating","","html-slider-response","46","285832","0.0-45.0","0","0","CvY1u","People","","6006","","","","","43","20","houcine-ncib-B4TjXnI0Y2c-unsplash.jpg","42","","","","","","","","","","","","","","","","","","","","","","","","","","","","","","","","","","","","","","","",""
"","rating","","html-slider-response","47","290993","0.0-46.0","0","0","CvY1u","People","","5159","","","","","74","28","justin-chen-J7Cf1Gch49E-unsplash.jpg","43","","","","","","","","","","","","","","","","","","","","","","","","","","","","","","","","","","","","","","","",""
"","rating","","html-slider-response","48","293904","0.0-47.0","0","0","CvY1u","People","","2909","","","","","66","0","abstral-official-cyOKLSgkgCE-unsplash.jpg","44","","","","","","","","","","","","","","","","","","","","","","","","","","","","","","","","","","","","","","","",""
"","rating","","html-slider-response","49","299672","0.0-48.0","0","0","CvY1u","People","","5766","","","","","100","5","batel-studio-ttSRjiYG_WM-unsplash.jpg","45","","","","","","","","","","","","","","","","","","","","","","","","","","","","","","","","","","","","","","","",""
"","rating","","html-slider-response","50","305000","0.0-49.0","0","0","CvY1u","People","","5326","","","","","68","12","daniel-rigdon-dXmXKPP2L4E-unsplash.jpg","46","","","","","","","","","","","","","","","","","","","","","","","","","","","","","","","","","","","","","","","",""
"","rating","","html-slider-response","51","310328","0.0-50.0","0","0","CvY1u","People","","5326","","","","","88","18","good-faces-xmSWVeGEnJw-unsplash.jpg","47","","","","","","","","","","","","","","","","","","","","","","","","","","","","","","","","","","","","","","","",""
"","rating","","html-slider-response","52","314872","0.0-51.0","0","0","CvY1u","People","","4542","","","","","35","32","nathan-dumlao-ger61_TX6oI-unsplash.jpg","48","","","","","","","","","","","","","","","","","","","","","","","","","","","","","","","","","","","","","","","",""
"","rating","","html-slider-response","53","319656","0.0-52.0","0","0","CvY1u","People","","4782","","","","","21","15","gabriel-silverio-u3WmDyKGsrY-unsplash.jpg","49","","","","","","","","","","","","","","","","","","","","","","","","","","","","","","","","","","","","","","","",""
"","deliberation_instructions","","instructions","54","404214","0.0-53.0-0.0","0","0","CvY1u","People","[{""page_index"":0,""viewing_time"":40853},{""page_index"":1,""viewing_time"":14166},{""page_index"":2,""viewing_time"":10623},{""page_index"":3,""viewing_time"":16960},{""page_index"":4,""viewing_time"":1952}]","84555","","","","","","","","","","","","","","","","","","","","","","","","","","","","","","","","","","","","","","","","","","","","","","","",""
"","","","survey-multi-choice","55","530540","0.0-53.0-1.0","0","0","CvY1u","People","","126316","{""Q0"":""True"",""Q1"":""True"",""Q2"":""Consider carefully and take your time (up to 10 seconds)"",""Q3"":""True"",""Q4"":""D""}","deliberation_comprehension_check","0","","","","","","","","","","","","","","","","","","","","","","","","","","","","","","","","","","","","","","","","","","","","",""
"","start_phase","","html-keyboard-response","56","533787","0.0-54.0","0","0","CvY1u","People","","3246","","","","78","","","","","","","","","","","","","","","","","","","","","","","","","","","","","","","","","","","","","","","","","","","",""
"","first_deliberation_block","","html-keyboard-response","57","536662","0.0-55.0","0","0","CvY1u","People","","2873","","","","78","","","","","","","","","","","","","","","","","","","","","","","","","","","","","","","","","","","","","","","","","","","",""
"","fixation","","html-keyboard-response","58","537666","0.0-56.0-0.0","0","0","CvY1u","People","","null","","","","null","","","","","","","","","","","","","","","","","","","","","","","","","","","","","","","","","","","","","","","","","","","",""
"","deliberation","","html-keyboard-response","59","540956","0.0-56.0-1.0","0","0","CvY1u","People","","3288","","","","75","","","","0","26","16","1","-1","64","68","juri-gianfrancesco-9EZadYaMzk4-unsplash.jpg","giano-currie-5-9YOsmf8IQ-unsplash.jpg","1","0","16","26","","","","","","","","","","","","","","","","","","","","","","","","","","","",""
"","choice_confirmation","","html-keyboard-response","60","541458","0.0-56.0-2.0-0.0","0","0","CvY1u","People","","null","","","","null","","","","0","26","16","","","","","","","","","","","","","","","","","","","","","","","","","","","","","","","","","","","","","",""
"","explain_trial","","survey-text","61","559196","0.0-56.0-5.0-0.0","0","0","CvY1u","People","","17735","{""Q0"":""This photograph is more attractive than other.""}","","","","","","","0","26","16","","","","","","","","","","","{""Q0"":""This photograph is more attractive than other.""}","","","","","","","","","","","","","","","","","","","","","","","","","","",""
"","fixation","","html-keyboard-response","62","560203","0.0-57.0-0.0","0","0","CvY1u","People","","null","","","","null","","","","","","","","","","","","","","","","","","","","","","","","","","","","","","","","","","","","","","","","","","","",""
"","deliberation","","html-keyboard-response","63","564737","0.0-57.0-1.0","0","0","CvY1u","People","","4533","","","","68","","","","1","33","9","1","1","73","71","olena-sergienko-0TSd6uCKTKc-unsplash.jpg","carlos-andres-gomez-vJuk8Y86mRw-unsplash.jpg","1","1","33","9","","","","","","","","","","","","","","","","","","","","","","","","","","","",""
"","choice_confirmation","","html-keyboard-response","64","565398","0.0-57.0-2.0-0.0","0","0","CvY1u","People","","null","","","","null","","","","1","33","9","","","","","","","","","","","","","","","","","","","","","","","","","","","","","","","","","","","","","",""
"","explain_trial","","survey-text","65","567914","0.0-57.0-5.0-0.0","0","0","CvY1u","People","","2514","{""Q0"":""This photograph is more attractive than other.""}","","","","","","","1","33","9","","","","","","","","","","","{""Q0"":""This photograph is more attractive than other.""}","","","","","","","","","","","","","","","","","","","","","","","","","","",""
"","fixation","","html-keyboard-response","66","568924","0.0-58.0-0.0","0","0","CvY1u","People","","null","","","","null","","","","","","","","","","","","","","","","","","","","","","","","","","","","","","","","","","","","","","","","","","","",""
"","deliberation","","html-keyboard-response","67","572986","0.0-58.0-1.0","0","0","CvY1u","People","","4060","","","","68","","","","2","21","49","1","-1","68","66","jessica-felicio-_cvwXhGqG-o-unsplash.jpg","vicky-hladynets-_gDoyVv5F4c-unsplash.jpg","1","1","21","49","","","","","","","","","","","","","","","","","","","","","","","","","","","",""
"","choice_confirmation","","html-keyboard-response","68","573490","0.0-58.0-2.0-0.0","0","0","CvY1u","People","","null","","","","null","","","","2","21","49","","","","","","","","","","","","","","","","","","","","","","","","","","","","","","","","","","","","","",""
"","explain_trial","","survey-text","69","575578","0.0-58.0-5.0-0.0","0","0","CvY1u","People","","2085","{""Q0"":""This photograph is more attractive than other.""}","","","","","","","2","21","49","","","","","","","","","","","{""Q0"":""This photograph is more attractive than other.""}","","","","","","","","","","","","","","","","","","","","","","","","","","",""
"","fixation","","html-keyboard-response","70","576586","0.0-59.0-0.0","0","0","CvY1u","People","","null","","","","null","","","","","","","","","","","","","","","","","","","","","","","","","","","","","","","","","","","","","","","","","","","",""
"","deliberation","","html-keyboard-response","71","580779","0.0-59.0-1.0","0","0","CvY1u","People","","4191","","","","68","","","","3","11","7","0","1","62","50","christian-ferrer-8vT-DgHZDG4-unsplash.jpg","brooke-cagle-HRZUzoX1e6w-unsplash.jpg","1","1","11","7","","","","","","","","","","","","","","","","","","","","","","","","","","","",""
"","choice_confirmation","","html-keyboard-response","72","581282","0.0-59.0-2.0-0.0","0","0","CvY1u","People","","null","","","","null","","","","3","11","7","","","","","","","","","","","","","","","","","","","","","","","","","","","","","","","","","","","","","",""
"","fixation","","html-keyboard-response","73","582290","0.0-60.0-0.0","0","0","CvY1u","People","","null","","","","null","","","","","","","","","","","","","","","","","","","","","","","","","","","","","","","","","","","","","","","","","","","",""
"","deliberation","","html-keyboard-response","74","587323","0.0-60.0-1.0","0","0","CvY1u","People","","5031","","","","75","","","","4","8","4","0","-1","73","84","bruce-dixon-3M9WJQVHzog-unsplash.jpg","barna-bartis-2x3vfVxwR7o-unsplash.jpg","1","0","4","8","","","","","","","","","","","","","","","","","","","","","","","","","","","",""
"","choice_confirmation","","html-keyboard-response","75","587826","0.0-60.0-2.0-0.0","0","0","CvY1u","People","","null","","","","null","","","","4","8","4","","","","","","","","","","","","","","","","","","","","","","","","","","","","","","","","","","","","","",""
"","fixation","","html-keyboard-response","76","588834","0.0-61.0-0.0","0","0","CvY1u","People","","null","","","","null","","","","","","","","","","","","","","","","","","","","","","","","","","","","","","","","","","","","","","","","","","","",""
"","deliberation","","html-keyboard-response","77","592188","0.0-61.0-1.0","0","0","CvY1u","People","","3353","","","","75","","","","5","39","14","1","1","66","85","philip-martin-5aGUyCW_PJw-unsplash.jpg","freddy-kearney-o-ioeoATbIM-unsplash.jpg","1","0","14","39","","","","","","","","","","","","","","","","","","","","","","","","","","","",""
"","choice_confirmation","","html-keyboard-response","78","592691","0.0-61.0-2.0-0.0","0","0","CvY1u","People","","null","","","","null","","","","5","39","14","","","","","","","","","","","","","","","","","","","","","","","","","","","","","","","","","","","","","",""
"","explain_trial","","survey-text","79","619810","0.0-61.0-5.0-0.0","0","0","CvY1u","People","","27117","{""Q0"":""The editing of the photograph is attractive.""}","","","","","","","5","39","14","","","","","","","","","","","{""Q0"":""The editing of the photograph is attractive.""}","","","","","","","","","","","","","","","","","","","","","","","","","","",""
"","fixation","","html-keyboard-response","80","620819","0.0-62.0-0.0","0","0","CvY1u","People","","null","","","","null","","","","","","","","","","","","","","","","","","","","","","","","","","","","","","","","","","","","","","","","","","","",""
"","deliberation","","html-keyboard-response","81","625627","0.0-62.0-1.0","0","0","CvY1u","People","","4806","","","","68","","","","6","44","12","0","1","59","68","rikonavt-HQjfrvdTfak-unsplash.jpg","daniel-rigdon-dXmXKPP2L4E-unsplash.jpg","1","1","44","12","","","","","","","","","","","","","","","","","","","","","","","","","","","",""
"","choice_confirmation","","html-keyboard-response","82","626182","0.0-62.0-2.0-0.0","0","0","CvY1u","People","","null","","","","null","","","","6","44","12","","","","","","","","","","","","","","","","","","","","","","","","","","","","","","","","","","","","","",""
"","fixation","","html-keyboard-response","83","627187","0.0-63.0-0.0","0","0","CvY1u","People","","null","","","","null","","","","","","","","","","","","","","","","","","","","","","","","","","","","","","","","","","","","","","","","","","","",""
"","deliberation","","html-keyboard-response","84","631347","0.0-63.0-1.0","0","0","CvY1u","People","","4158","","","","68","","","","7","45","10","1","-1","61","83","sarah-noltner-pL5ZzPp1zqg-unsplash.jpg","charles-etoroma-95UF6LXe-Lo-unsplash.jpg","1","1","45","10","","","","","","","","","","","","","","","","","","","","","","","","","","","",""
"","choice_confirmation","","html-keyboard-response","85","631850","0.0-63.0-2.0-0.0","0","0","CvY1u","People","","null","","","","null","","","","7","45","10","","","","","","","","","","","","","","","","","","","","","","","","","","","","","","","","","","","","","",""
"","explain_trial","","survey-text","86","663401","0.0-63.0-5.0-0.0","0","0","CvY1u","People","","31549","{""Q0"":""The photographer give his full effort to take this photo.""}","","","","","","","7","45","10","","","","","","","","","","","{""Q0"":""The photographer give his full effort to take this photo.""}","","","","","","","","","","","","","","","","","","","","","","","","","","",""
"","fixation","","html-keyboard-response","87","664491","0.0-64.0-0.0","0","0","CvY1u","People","","null","","","","null","","","","","","","","","","","","","","","","","","","","","","","","","","","","","","","","","","","","","","","","","","","",""
"","deliberation","","html-keyboard-response","88","667881","0.0-64.0-1.0","0","0","CvY1u","People","","3389","","","","75","","","","8","29","35","0","1","79","61","leilani-angel-K84vnnzxmTQ-unsplash.jpg","oliver-ragfelt-khV4fTy6-D8-unsplash.jpg","1","0","35","29","","","","","","","","","","","","","","","","","","","","","","","","","","","",""
"","choice_confirmation","","html-keyboard-response","89","668387","0.0-64.0-2.0-0.0","0","0","CvY1u","People","","null","","","","null","","","","8","29","35","","","","","","","","","","","","","","","","","","","","","","","","","","","","","","","","","","","","","",""
"","fixation","","html-keyboard-response","90","669432","0.0-65.0-0.0","0","0","CvY1u","People","","null","","","","null","","","","","","","","","","","","","","","","","","","","","","","","","","","","","","","","","","","","","","","","","","","",""
"","deliberation","","html-keyboard-response","91","672313","0.0-65.0-1.0","0","0","CvY1u","People","","2879","","","","68","","","","9","1","0","0","1","66","66","aiony-haust-jmATI5Q_YgY-unsplash.jpg","abstral-official-cyOKLSgkgCE-unsplash.jpg","1","1","1","0","","","","","","","","","","","","","","","","","","","","","","","","","","","",""
"","choice_confirmation","","html-keyboard-response","92","672818","0.0-65.0-2.0-0.0","0","0","CvY1u","People","","null","","","","null","","","","9","1","0","","","","","","","","","","","","","","","","","","","","","","","","","","","","","","","","","","","","","",""
"","fixation","","html-keyboard-response","93","673827","0.0-66.0-0.0","0","0","CvY1u","People","","null","","","","null","","","","","","","","","","","","","","","","","","","","","","","","","","","","","","","","","","","","","","","","","","","",""
"","deliberation","","html-keyboard-response","94","676802","0.0-66.0-1.0","0","0","CvY1u","People","","2973","","","","68","","","","10","34","28","1","-1","78","74","oliver-johnson-1TUIcKob7Zs-unsplash.jpg","justin-chen-J7Cf1Gch49E-unsplash.jpg","1","1","34","28","","","","","","","","","","","","","","","","","","","","","","","","","","","",""
"","choice_confirmation","","html-keyboard-response","95","677307","0.0-66.0-2.0-0.0","0","0","CvY1u","People","","null","","","","null","","","","10","34","28","","","","","","","","","","","","","","","","","","","","","","","","","","","","","","","","","","","","","",""
"","explain_trial","","survey-text","96","680737","0.0-66.0-5.0-0.0","0","0","CvY1u","People","","3428","{""Q0"":""This photograph is more attractive than other.""}","","","","","","","10","34","28","","","","","","","","","","","{""Q0"":""This photograph is more attractive than other.""}","","","","","","","","","","","","","","","","","","","","","","","","","","",""
"","fixation","","html-keyboard-response","97","681747","0.0-67.0-0.0","0","0","CvY1u","People","","null","","","","null","","","","","","","","","","","","","","","","","","","","","","","","","","","","","","","","","","","","","","","","","","","",""
"","deliberation","","html-keyboard-response","98","684394","0.0-67.0-1.0","0","0","CvY1u","People","","2645","","","","68","","","","11","3","36","0","-1","84","76","art-hauntington-jzY0KRJopEI-unsplash.jpg","ospan-ali-mGdA2fzjWLo-unsplash.jpg","1","1","3","36","","","","","","","","","","","","","","","","","","","","","","","","","","","",""
"","choice_confirmation","","html-keyboard-response","99","684899","0.0-67.0-2.0-0.0","0","0","CvY1u","People","","null","","","","null","","","","11","3","36","","","","","","","","","","","","","","","","","","","","","","","","","","","","","","","","","","","","","",""
"","practice_deliberation_again","","html-keyboard-response","100","688561","0.0-67.0-6.0-0.0","0","0","CvY1u","People","","3660","","","","78","","","","","","","","","","","","","","","","","","","","","","","","","","","","","","","","","","","","","","","","","","","",""
"","fixation","","html-keyboard-response","101","689570","0.0-68.0-0.0","0","0","CvY1u","People","","null","","","","null","","","","","","","","","","","","","","","","","","","","","","","","","","","","","","","","","","","","","","","","","","","",""
"","deliberation","","html-keyboard-response","102","692082","0.0-68.0-1.0","0","0","CvY1u","People","","2510","","","","68","","","","12","11","7","1","1","62","50","christian-ferrer-8vT-DgHZDG4-unsplash.jpg","brooke-cagle-HRZUzoX1e6w-unsplash.jpg","2","1","11","7","","","","","","","","","","","","","","","","","","","","","","","","","","","",""
"","choice_confirmation","","html-keyboard-response","103","692587","0.0-68.0-2.0-0.0","0","0","CvY1u","People","","null","","","","null","","","","12","11","7","","","","","","","","","","","","","","","","","","","","","","","","","","","","","","","","","","","","","",""
"","explain_trial","","survey-text","104","694993","0.0-68.0-5.0-0.0","0","0","CvY1u","People","","2404","{""Q0"":""This photograph is more attractive than other.""}","","","","","","","12","11","7","","","","","","","","","","","{""Q0"":""This photograph is more attractive than other.""}","","","","","","","","","","","","","","","","","","","","","","","","","","",""
"","fixation","","html-keyboard-response","105","696142","0.0-69.0-0.0","0","0","CvY1u","People","","null","","","","null","","","","","","","","","","","","","","","","","","","","","","","","","","","","","","","","","","","","","","","","","","","",""
"","deliberation","","html-keyboard-response","106","699553","0.0-69.0-1.0","0","0","CvY1u","People","","3410","","","","75","","","","13","26","16","0","-1","64","68","juri-gianfrancesco-9EZadYaMzk4-unsplash.jpg","giano-currie-5-9YOsmf8IQ-unsplash.jpg","2","0","16","26","","","","","","","","","","","","","","","","","","","","","","","","","","","",""
"","choice_confirmation","","html-keyboard-response","107","700058","0.0-69.0-2.0-0.0","0","0","CvY1u","People","","null","","","","null","","","","13","26","16","","","","","","","","","","","","","","","","","","","","","","","","","","","","","","","","","","","","","",""
"","fixation","","html-keyboard-response","108","701066","0.0-70.0-0.0","0","0","CvY1u","People","","null","","","","null","","","","","","","","","","","","","","","","","","","","","","","","","","","","","","","","","","","","","","","","","","","",""
"","deliberation","","html-keyboard-response","109","704093","0.0-70.0-1.0","0","0","CvY1u","People","","3025","","","","68","","","","14","44","12","1","1","59","68","rikonavt-HQjfrvdTfak-unsplash.jpg","daniel-rigdon-dXmXKPP2L4E-unsplash.jpg","2","1","44","12","","","","","","","","","","","","","","","","","","","","","","","","","","","",""
"","choice_confirmation","","html-keyboard-response","110","704595","0.0-70.0-2.0-0.0","0","0","CvY1u","People","","null","","","","null","","","","14","44","12","","","","","","","","","","","","","","","","","","","","","","","","","","","","","","","","","","","","","",""
"","explain_trial","","survey-text","111","707537","0.0-70.0-5.0-0.0","0","0","CvY1u","People","","2938","{""Q0"":""This photograph is more attractive than other.""}","","","","","","","14","44","12","","","","","","","","","","","{""Q0"":""This photograph is more attractive than other.""}","","","","","","","","","","","","","","","","","","","","","","","","","","",""
"","fixation","","html-keyboard-response","112","708544","0.0-71.0-0.0","0","0","CvY1u","People","","null","","","","null","","","","","","","","","","","","","","","","","","","","","","","","","","","","","","","","","","","","","","","","","","","",""
"","deliberation","","html-keyboard-response","113","712312","0.0-71.0-1.0","0","0","CvY1u","People","","3766","","","","75","","","","15","29","35","1","1","79","61","leilani-angel-K84vnnzxmTQ-unsplash.jpg","oliver-ragfelt-khV4fTy6-D8-unsplash.jpg","2","0","35","29","","","","","","","","","","","","","","","","","","","","","","","","","","","",""
"","choice_confirmation","","html-keyboard-response","114","712819","0.0-71.0-2.0-0.0","0","0","CvY1u","People","","null","","","","null","","","","15","29","35","","","","","","","","","","","","","","","","","","","","","","","","","","","","","","","","","","","","","",""
"","explain_trial","","survey-text","115","725944","0.0-71.0-5.0-0.0","0","0","CvY1u","People","","13123","{""Q0"":""The photo background is amazing.""}","","","","","","","15","29","35","","","","","","","","","","","{""Q0"":""The photo background is amazing.""}","","","","","","","","","","","","","","","","","","","","","","","","","","",""
"","fixation","","html-keyboard-response","116","726947","0.0-72.0-0.0","0","0","CvY1u","People","","null","","","","null","","","","","","","","","","","","","","","","","","","","","","","","","","","","","","","","","","","","","","","","","","","",""
"","deliberation","","html-keyboard-response","117","731751","0.0-72.0-1.0","0","0","CvY1u","People","","4802","","","","68","","","","16","21","49","0","-1","68","66","jessica-felicio-_cvwXhGqG-o-unsplash.jpg","vicky-hladynets-_gDoyVv5F4c-unsplash.jpg","2","1","21","49","","","","","","","","","","","","","","","","","","","","","","","","","","","",""
"","choice_confirmation","","html-keyboard-response","118","732258","0.0-72.0-2.0-0.0","0","0","CvY1u","People","","null","","","","null","","","","16","21","49","","","","","","","","","","","","","","","","","","","","","","","","","","","","","","","","","","","","","",""
"","fixation","","html-keyboard-response","119","733266","0.0-73.0-0.0","0","0","CvY1u","People","","null","","","","null","","","","","","","","","","","","","","","","","","","","","","","","","","","","","","","","","","","","","","","","","","","",""
"","deliberation","","html-keyboard-response","120","738311","0.0-73.0-1.0","0","0","CvY1u","People","","5043","","","","75","","","","17","33","9","0","1","73","71","olena-sergienko-0TSd6uCKTKc-unsplash.jpg","carlos-andres-gomez-vJuk8Y86mRw-unsplash.jpg","2","0","9","33","","","","","","","","","","","","","","","","","","","","","","","","","","","",""
"","choice_confirmation","","html-keyboard-response","121","738818","0.0-73.0-2.0-0.0","0","0","CvY1u","People","","null","","","","null","","","","17","33","9","","","","","","","","","","","","","","","","","","","","","","","","","","","","","","","","","","","","","",""
"","fixation","","html-keyboard-response","122","739827","0.0-74.0-0.0","0","0","CvY1u","People","","null","","","","null","","","","","","","","","","","","","","","","","","","","","","","","","","","","","","","","","","","","","","","","","","","",""
"","deliberation","","html-keyboard-response","123","745087","0.0-74.0-1.0","0","0","CvY1u","People","","5258","","","","75","","","","18","39","14","0","1","66","85","philip-martin-5aGUyCW_PJw-unsplash.jpg","freddy-kearney-o-ioeoATbIM-unsplash.jpg","2","0","14","39","","","","","","","","","","","","","","","","","","","","","","","","","","","",""
"","choice_confirmation","","html-keyboard-response","124","745594","0.0-74.0-2.0-0.0","0","0","CvY1u","People","","null","","","","null","","","","18","39","14","","","","","","","","","","","","","","","","","","","","","","","","","","","","","","","","","","","","","",""
"","fixation","","html-keyboard-response","125","746602","0.0-75.0-0.0","0","0","CvY1u","People","","null","","","","null","","","","","","","","","","","","","","","","","","","","","","","","","","","","","","","","","","","","","","","","","","","",""
"","deliberation","","html-keyboard-response","126","749808","0.0-75.0-1.0","0","0","CvY1u","People","","3204","","","","75","","","","19","8","4","1","-1","73","84","bruce-dixon-3M9WJQVHzog-unsplash.jpg","barna-bartis-2x3vfVxwR7o-unsplash.jpg","2","0","4","8","","","","","","","","","","","","","","","","","","","","","","","","","","","",""
"","choice_confirmation","","html-keyboard-response","127","750312","0.0-75.0-2.0-0.0","0","0","CvY1u","People","","null","","","","null","","","","19","8","4","","","","","","","","","","","","","","","","","","","","","","","","","","","","","","","","","","","","","",""
"","explain_trial","","survey-text","128","812391","0.0-75.0-5.0-0.0","0","0","CvY1u","People","","62077","{""Q0"":""The photographer absolutely despel the background""}","","","","","","","19","8","4","","","","","","","","","","","{""Q0"":""The photographer absolutely despel the background""}","","","","","","","","","","","","","","","","","","","","","","","","","","",""
"","fixation","","html-keyboard-response","129","813396","0.0-76.0-0.0","0","0","CvY1u","People","","null","","","","null","","","","","","","","","","","","","","","","","","","","","","","","","","","","","","","","","","","","","","","","","","","",""
"","deliberation","","html-keyboard-response","130","815823","0.0-76.0-1.0","0","0","CvY1u","People","","2426","","","","68","","","","20","34","28","0","-1","78","74","oliver-johnson-1TUIcKob7Zs-unsplash.jpg","justin-chen-J7Cf1Gch49E-unsplash.jpg","2","1","34","28","","","","","","","","","","","","","","","","","","","","","","","","","","","",""
"","choice_confirmation","","html-keyboard-response","131","816510","0.0-76.0-2.0-0.0","0","0","CvY1u","People","","null","","","","null","","","","20","34","28","","","","","","","","","","","","","","","","","","","","","","","","","","","","","","","","","","","","","",""
"","fixation","","html-keyboard-response","132","817515","0.0-77.0-0.0","0","0","CvY1u","People","","null","","","","null","","","","","","","","","","","","","","","","","","","","","","","","","","","","","","","","","","","","","","","","","","","",""
"","deliberation","","html-keyboard-response","133","819591","0.0-77.0-1.0","0","0","CvY1u","People","","2074","","","","68","","","","21","3","36","1","-1","84","76","art-hauntington-jzY0KRJopEI-unsplash.jpg","ospan-ali-mGdA2fzjWLo-unsplash.jpg","2","1","3","36","","","","","","","","","","","","","","","","","","","","","","","","","","","",""
"","choice_confirmation","","html-keyboard-response","134","820098","0.0-77.0-2.0-0.0","0","0","CvY1u","People","","null","","","","null","","","","21","3","36","","","","","","","","","","","","","","","","","","","","","","","","","","","","","","","","","","","","","",""
"","explain_trial","","survey-text","135","840958","0.0-77.0-5.0-0.0","0","0","CvY1u","People","","20857","{""Q0"":""She looks more attractive than another person.""}","","","","","","","21","3","36","","","","","","","","","","","{""Q0"":""She looks more attractive than another person.""}","","","","","","","","","","","","","","","","","","","","","","","","","","",""
"","fixation","","html-keyboard-response","136","841962","0.0-78.0-0.0","0","0","CvY1u","People","","null","","","","null","","","","","","","","","","","","","","","","","","","","","","","","","","","","","","","","","","","","","","","","","","","",""
"","deliberation","","html-keyboard-response","137","844207","0.0-78.0-1.0","0","0","CvY1u","People","","2243","","","","68","","","","22","45","10","0","-1","61","83","sarah-noltner-pL5ZzPp1zqg-unsplash.jpg","charles-etoroma-95UF6LXe-Lo-unsplash.jpg","2","1","45","10","","","","","","","","","","","","","","","","","","","","","","","","","","","",""
"","choice_confirmation","","html-keyboard-response","138","844714","0.0-78.0-2.0-0.0","0","0","CvY1u","People","","null","","","","null","","","","22","45","10","","","","","","","","","","","","","","","","","","","","","","","","","","","","","","","","","","","","","",""
"","fixation","","html-keyboard-response","139","845723","0.0-79.0-0.0","0","0","CvY1u","People","","null","","","","null","","","","","","","","","","","","","","","","","","","","","","","","","","","","","","","","","","","","","","","","","","","",""
"","deliberation","","html-keyboard-response","140","847741","0.0-79.0-1.0","0","0","CvY1u","People","","2017","","","","68","","","","23","1","0","1","1","66","66","aiony-haust-jmATI5Q_YgY-unsplash.jpg","abstral-official-cyOKLSgkgCE-unsplash.jpg","2","1","1","0","","","","","","","","","","","","","","","","","","","","","","","","","","","",""
"","choice_confirmation","","html-keyboard-response","141","848243","0.0-79.0-2.0-0.0","0","0","CvY1u","People","","null","","","","null","","","","23","1","0","","","","","","","","","","","","","","","","","","","","","","","","","","","","","","","","","","","","","",""
"","explain_trial","","survey-text","142","850366","0.0-79.0-5.0-0.0","0","0","CvY1u","People","","2121","{""Q0"":""This photograph is more attractive than other.""}","","","","","","","23","1","0","","","","","","","","","","","{""Q0"":""This photograph is more attractive than other.""}","","","","","","","","","","","","","","","","","","","","","","","","","","",""
"","start_critical_deliberation_block","","html-keyboard-response","143","853431","0.0-79.0-7.0-0.0","0","0","CvY1u","People","","3063","","","","78","","","","","","","","","","","","","","","","","","","","","","","","","","","","","","","","","","","","","","","","","","","",""
"","fixation","","html-keyboard-response","144","854436","0.0-80.0-0.0","0","0","CvY1u","People","","null","","","","null","","","","","","","","","","","","","","","","","","","","","","","","","","","","","","","","","","","","","","","","","","","",""
"","deliberation","","html-keyboard-response","145","857306","0.0-80.0-1.0","0","0","CvY1u","People","","2867","","","","68","","","","24","44","12","0","1","59","68","rikonavt-HQjfrvdTfak-unsplash.jpg","daniel-rigdon-dXmXKPP2L4E-unsplash.jpg","3","1","44","12","","","","","","","","","","","","","","","","","","","","","","","","","","","",""
"","choice_confirmation","","html-keyboard-response","146","857811","0.0-80.0-2.0-0.0","0","0","CvY1u","People","","null","","","","null","","","","24","44","12","","","","","","","","","","","","","","","","","","","","","","","","","","","","","","","","","","","","","",""
"","fixation","","html-keyboard-response","147","858818","0.0-81.0-0.0","0","0","CvY1u","People","","null","","","","null","","","","","","","","","","","","","","","","","","","","","","","","","","","","","","","","","","","","","","","","","","","",""
"","deliberation","","html-keyboard-response","148","860982","0.0-81.0-1.0","0","0","CvY1u","People","","2162","","","","68","","","","25","3","36","0","-1","84","76","art-hauntington-jzY0KRJopEI-unsplash.jpg","ospan-ali-mGdA2fzjWLo-unsplash.jpg","3","1","3","36","","","","","","","","","","","","","","","","","","","","","","","","","","","",""
"","choice_confirmation","","html-keyboard-response","149","861491","0.0-81.0-2.0-0.0","0","0","CvY1u","People","","null","","","","null","","","","25","3","36","","","","","","","","","","","","","","","","","","","","","","","","","","","","","","","","","","","","","",""
"","fixation","","html-keyboard-response","150","862499","0.0-82.0-0.0","0","0","CvY1u","People","","null","","","","null","","","","","","","","","","","","","","","","","","","","","","","","","","","","","","","","","","","","","","","","","","","",""
"","deliberation","","html-keyboard-response","151","864081","0.0-82.0-1.0","0","0","CvY1u","People","","1580","","","","68","","","","26","21","49","0","-1","68","66","jessica-felicio-_cvwXhGqG-o-unsplash.jpg","vicky-hladynets-_gDoyVv5F4c-unsplash.jpg","3","1","21","49","","","","","","","","","","","","","","","","","","","","","","","","","","","",""
"","choice_confirmation","","html-keyboard-response","152","864586","0.0-82.0-2.0-0.0","0","0","CvY1u","People","","null","","","","null","","","","26","21","49","","","","","","","","","","","","","","","","","","","","","","","","","","","","","","","","","","","","","",""
"","fixation","","html-keyboard-response","153","865594","0.0-83.0-0.0","0","0","CvY1u","People","","null","","","","null","","","","","","","","","","","","","","","","","","","","","","","","","","","","","","","","","","","","","","","","","","","",""
"","deliberation","","html-keyboard-response","154","867990","0.0-83.0-1.0","0","0","CvY1u","People","","2394","","","","68","","","","27","33","9","0","1","73","71","olena-sergienko-0TSd6uCKTKc-unsplash.jpg","carlos-andres-gomez-vJuk8Y86mRw-unsplash.jpg","3","1","33","9","","","","","","","","","","","","","","","","","","","","","","","","","","","",""
"","choice_confirmation","","html-keyboard-response","155","868498","0.0-83.0-2.0-0.0","0","0","CvY1u","People","","null","","","","null","","","","27","33","9","","","","","","","","","","","","","","","","","","","","","","","","","","","","","","","","","","","","","",""
"","fixation","","html-keyboard-response","156","869507","0.0-84.0-0.0","0","0","CvY1u","People","","null","","","","null","","","","","","","","","","","","","","","","","","","","","","","","","","","","","","","","","","","","","","","","","","","",""
"","deliberation","","html-keyboard-response","157","871094","0.0-84.0-1.0","0","0","CvY1u","People","","1585","","","","75","","","","28","8","4","0","-1","73","84","bruce-dixon-3M9WJQVHzog-unsplash.jpg","barna-bartis-2x3vfVxwR7o-unsplash.jpg","3","0","4","8","","","","","","","","","","","","","","","","","","","","","","","","","","","",""
"","choice_confirmation","","html-keyboard-response","158","871603","0.0-84.0-2.0-0.0","0","0","CvY1u","People","","null","","","","null","","","","28","8","4","","","","","","","","","","","","","","","","","","","","","","","","","","","","","","","","","","","","","",""
"","fixation","","html-keyboard-response","159","872610","0.0-85.0-0.0","0","0","CvY1u","People","","null","","","","null","","","","","","","","","","","","","","","","","","","","","","","","","","","","","","","","","","","","","","","","","","","",""
"","deliberation","","html-keyboard-response","160","874527","0.0-85.0-1.0","0","0","CvY1u","People","","1915","","","","68","","","","29","45","10","0","-1","61","83","sarah-noltner-pL5ZzPp1zqg-unsplash.jpg","charles-etoroma-95UF6LXe-Lo-unsplash.jpg","3","1","45","10","","","","","","","","","","","","","","","","","","","","","","","","","","","",""
"","choice_confirmation","","html-keyboard-response","161","875035","0.0-85.0-2.0-0.0","0","0","CvY1u","People","","null","","","","null","","","","29","45","10","","","","","","","","","","","","","","","","","","","","","","","","","","","","","","","","","","","","","",""
"","fixation","","html-keyboard-response","162","876042","0.0-86.0-0.0","0","0","CvY1u","People","","null","","","","null","","","","","","","","","","","","","","","","","","","","","","","","","","","","","","","","","","","","","","","","","","","",""
"","deliberation","","html-keyboard-response","163","877646","0.0-86.0-1.0","0","0","CvY1u","People","","1602","","","","75","","","","30","29","35","0","1","79","61","leilani-angel-K84vnnzxmTQ-unsplash.jpg","oliver-ragfelt-khV4fTy6-D8-unsplash.jpg","3","0","35","29","","","","","","","","","","","","","","","","","","","","","","","","","","","",""
"","choice_confirmation","","html-keyboard-response","164","878155","0.0-86.0-2.0-0.0","0","0","CvY1u","People","","null","","","","null","","","","30","29","35","","","","","","","","","","","","","","","","","","","","","","","","","","","","","","","","","","","","","",""
"","fixation","","html-keyboard-response","165","879162","0.0-87.0-0.0","0","0","CvY1u","People","","null","","","","null","","","","","","","","","","","","","","","","","","","","","","","","","","","","","","","","","","","","","","","","","","","",""
"","deliberation","","html-keyboard-response","166","881182","0.0-87.0-1.0","0","0","CvY1u","People","","2018","","","","68","","","","31","11","7","0","1","62","50","christian-ferrer-8vT-DgHZDG4-unsplash.jpg","brooke-cagle-HRZUzoX1e6w-unsplash.jpg","3","1","11","7","","","","","","","","","","","","","","","","","","","","","","","","","","","",""
"","choice_confirmation","","html-keyboard-response","167","881691","0.0-87.0-2.0-0.0","0","0","CvY1u","People","","null","","","","null","","","","31","11","7","","","","","","","","","","","","","","","","","","","","","","","","","","","","","","","","","","","","","",""
"","fixation","","html-keyboard-response","168","882698","0.0-88.0-0.0","0","0","CvY1u","People","","null","","","","null","","","","","","","","","","","","","","","","","","","","","","","","","","","","","","","","","","","","","","","","","","","",""
"","deliberation","","html-keyboard-response","169","884358","0.0-88.0-1.0","0","0","CvY1u","People","","1658","","","","75","","","","32","26","16","0","-1","64","68","juri-gianfrancesco-9EZadYaMzk4-unsplash.jpg","giano-currie-5-9YOsmf8IQ-unsplash.jpg","3","0","16","26","","","","","","","","","","","","","","","","","","","","","","","","","","","",""
"","choice_confirmation","","html-keyboard-response","170","884867","0.0-88.0-2.0-0.0","0","0","CvY1u","People","","null","","","","null","","","","32","26","16","","","","","","","","","","","","","","","","","","","","","","","","","","","","","","","","","","","","","",""
"","fixation","","html-keyboard-response","171","885874","0.0-89.0-0.0","0","0","CvY1u","People","","null","","","","null","","","","","","","","","","","","","","","","","","","","","","","","","","","","","","","","","","","","","","","","","","","",""
"","deliberation","","html-keyboard-response","172","887134","0.0-89.0-1.0","0","0","CvY1u","People","","1259","","","","75","","","","33","39","14","0","1","66","85","philip-martin-5aGUyCW_PJw-unsplash.jpg","freddy-kearney-o-ioeoATbIM-unsplash.jpg","3","0","14","39","","","","","","","","","","","","","","","","","","","","","","","","","","","",""
"","choice_confirmation","","html-keyboard-response","173","887778","0.0-89.0-2.0-0.0","0","0","CvY1u","People","","null","","","","null","","","","33","39","14","","","","","","","","","","","","","","","","","","","","","","","","","","","","","","","","","","","","","",""
"","fixation","","html-keyboard-response","174","888786","0.0-90.0-0.0","0","0","CvY1u","People","","null","","","","null","","","","","","","","","","","","","","","","","","","","","","","","","","","","","","","","","","","","","","","","","","","",""
"","deliberation","","html-keyboard-response","175","890701","0.0-90.0-1.0","0","0","CvY1u","People","","1913","","","","68","","","","34","34","28","0","-1","78","74","oliver-johnson-1TUIcKob7Zs-unsplash.jpg","justin-chen-J7Cf1Gch49E-unsplash.jpg","3","1","34","28","","","","","","","","","","","","","","","","","","","","","","","","","","","",""
"","choice_confirmation","","html-keyboard-response","176","891203","0.0-90.0-2.0-0.0","0","0","CvY1u","People","","null","","","","null","","","","34","34","28","","","","","","","","","","","","","","","","","","","","","","","","","","","","","","","","","","","","","",""
"","fixation","","html-keyboard-response","177","892210","0.0-91.0-0.0","0","0","CvY1u","People","","null","","","","null","","","","","","","","","","","","","","","","","","","","","","","","","","","","","","","","","","","","","","","","","","","",""
"","deliberation","","html-keyboard-response","178","894301","0.0-91.0-1.0","0","0","CvY1u","People","","2089","","","","68","","","","35","1","0","0","1","66","66","aiony-haust-jmATI5Q_YgY-unsplash.jpg","abstral-official-cyOKLSgkgCE-unsplash.jpg","3","1","1","0","","","","","","","","","","","","","","","","","","","","","","","","","","","",""
"","choice_confirmation","","html-keyboard-response","179","894818","0.0-91.0-2.0-0.0","0","0","CvY1u","People","","null","","","","null","","","","35","1","0","","","","","","","","","","","","","","","","","","","","","","","","","","","","","","","","","","","","","",""
"","reward_learning_instructions","","instructions","180","970060","0.0-92.0-0.0","0","0","CvY1u","People","[{""page_index"":0,""viewing_time"":29921},{""page_index"":1,""viewing_time"":43174},{""page_index"":2,""viewing_time"":2145}]","75240","","","","","","","","","","","","","","","","","","","","","","","","","","","","","","","","","","","","","","","","","","","","","","","",""
"","","","survey-multi-choice","181","1009731","0.0-92.0-1.0","0","0","CvY1u","People","","39665","{""Q0"":""True"",""Q1"":""True"",""Q2"":""Press the space bar to see its outcome"",""Q3"":""Press the relevant key while the outcome is presented""}","reward_comprehension_check","0","","","","","","","","","","","","","","","","","","","","","","","","","","","","","","","","","","","","","","","","","","","","",""
"","start_phase","","html-keyboard-response","182","1012956","0.0-93.0","0","0","CvY1u","People","","3222","","","","78","","","","","","","","","","","","","","","","","","","","","","","","","","","","","","","","","","","","","","","","","","","",""
"","fixation","","html-keyboard-response","183","1013963","0.0-94.0","0","0","CvY1u","People","","null","","","","null","","","","","","","","","","","","","","","","","","","","","","","","","","","","","","","","","","","","","","","","","","","",""
"","see_reward","","html-keyboard-response","184","1015108","0.0-95.0","0","0","CvY1u","People","","1143","","","","32","","11","","0","","","","1","","","","","1","","","","","149","1143","","","","","","","","","","","","","","","","","","","","","","","","",""
"","reward_outcome","","html-keyboard-response","185","1017115","0.0-96.0","0","0","CvY1u","People","","null","","","","null","","11","","0","","","","","","","","","","","","","","","","NaN","null","","","","","","","","","","","","","","","","","","","","","","",""
"","respond_faster","","html-keyboard-response","186","1018618","0.0-97.0-0.0","1","0","CvY1u","People","","null","","","","null","","","","","","","","","","","","","","","","","","","","","","","","","","","","","","","","","","","","","","","","","","","",""
"","fixation","","html-keyboard-response","187","1019626","0.0-99.0","0","0","CvY1u","People","","null","","","","null","","","","","","","","","","","","","","","","","","","","","","","","","","","","","","","","","","","","","","","","","","","",""
"","see_reward","","html-keyboard-response","188","1020619","0.0-100.0","0","0","CvY1u","People","","992","","","","32","","21","","1","","","","-1","","","","","1","","","","","0","992","","","","","","","","","","","","","","","","","","","","","","","","",""
"","reward_outcome","","html-keyboard-response","189","1022626","0.0-101.0","0","0","CvY1u","People","","686","","","","40","","21","","1","","","","","","","","","","","","","","","","-1","686","","","","","","","","","","","","","","","","","","","","","","",""
"","fixation","","html-keyboard-response","190","1023635","0.0-104.0","0","0","CvY1u","People","","null","","","","null","","","","","","","","","","","","","","","","","","","","","","","","","","","","","","","","","","","","","","","","","","","",""
"","see_reward","","html-keyboard-response","191","1025320","0.0-105.0","0","0","CvY1u","People","","1674","","","","32","","33","","2","","","","1","","","","","1","","","","","149","1674","","","","","","","","","","","","","","","","","","","","","","","","",""
"","reward_outcome","","html-keyboard-response","192","1027322","0.0-106.0","0","0","CvY1u","People","","874","","","","38","","33","","2","","","","","","","","","","","","","","","","1","874","","","","","","","","","","","","","","","","","","","","","","",""
"","fixation","","html-keyboard-response","193","1028343","0.0-109.0","0","0","CvY1u","People","","null","","","","null","","","","","","","","","","","","","","","","","","","","","","","","","","","","","","","","","","","","","","","","","","","",""
"","see_reward","","html-keyboard-response","194","1029292","0.0-110.0","0","0","CvY1u","People","","947","","","","32","","44","","3","","","","1","","","","","1","","","","","150","947","","","","","","","","","","","","","","","","","","","","","","","","",""
"","reward_outcome","","html-keyboard-response","195","1031299","0.0-111.0","0","0","CvY1u","People","","1086","","","","38","","44","","3","","","","","","","","","","","","","","","","1","1086","","","","","","","","","","","","","","","","","","","","","","",""
"","fixation","","html-keyboard-response","196","1032307","0.0-114.0","0","0","CvY1u","People","","null","","","","null","","","","","","","","","","","","","","","","","","","","","","","","","","","","","","","","","","","","","","","","","","","",""
"","see_reward","","html-keyboard-response","197","1033156","0.0-115.0","0","0","CvY1u","People","","847","","","","32","","4","","4","","","","-1","","","","","1","","","","","0","847","","","","","","","","","","","","","","","","","","","","","","","","",""
"","reward_outcome","","html-keyboard-response","198","1035163","0.0-116.0","0","0","CvY1u","People","","750","","","","40","","4","","4","","","","","","","","","","","","","","","","-1","750","","","","","","","","","","","","","","","","","","","","","","",""
"","fixation","","html-keyboard-response","199","1036316","0.0-119.0","0","0","CvY1u","People","","null","","","","null","","","","","","","","","","","","","","","","","","","","","","","","","","","","","","","","","","","","","","","","","","","",""
"","see_reward","","html-keyboard-response","200","1037108","0.0-120.0","0","0","CvY1u","People","","791","","","","32","","35","","5","","","","1","","","","","1","","","","","141","791","","","","","","","","","","","","","","","","","","","","","","","","",""
"","reward_outcome","","html-keyboard-response","201","1039117","0.0-121.0","0","0","CvY1u","People","","773","","","","38","","35","","5","","","","","","","","","","","","","","","","1","773","","","","","","","","","","","","","","","","","","","","","","",""
"","fixation","","html-keyboard-response","202","1040337","0.0-124.0","0","0","CvY1u","People","","null","","","","null","","","","","","","","","","","","","","","","","","","","","","","","","","","","","","","","","","","","","","","","","","","",""
"","see_reward","","html-keyboard-response","203","1041244","0.0-125.0","0","0","CvY1u","People","","905","","","","32","","16","","6","","","","-1","","","","","1","","","","","0","905","","","","","","","","","","","","","","","","","","","","","","","","",""
"","reward_outcome","","html-keyboard-response","204","1043251","0.0-126.0","0","0","CvY1u","People","","835","","","","40","","16","","6","","","","","","","","","","","","","","","","-1","835","","","","","","","","","","","","","","","","","","","","","","",""
"","fixation","","html-keyboard-response","205","1044259","0.0-129.0","0","0","CvY1u","People","","null","","","","null","","","","","","","","","","","","","","","","","","","","","","","","","","","","","","","","","","","","","","","","","","","",""
"","see_reward","","html-keyboard-response","206","1045203","0.0-130.0","0","0","CvY1u","People","","942","","","","32","","14","","7","","","","1","","","","","1","","","","","140","942","","","","","","","","","","","","","","","","","","","","","","","","",""
"","reward_outcome","","html-keyboard-response","207","1047212","0.0-131.0","0","0","CvY1u","People","","710","","","","38","","14","","7","","","","","","","","","","","","","","","","1","710","","","","","","","","","","","","","","","","","","","","","","",""
"","fixation","","html-keyboard-response","208","1048219","0.0-134.0","0","0","CvY1u","People","","null","","","","null","","","","","","","","","","","","","","","","","","","","","","","","","","","","","","","","","","","","","","","","","","","",""
"","see_reward","","html-keyboard-response","209","1048900","0.0-135.0","0","0","CvY1u","People","","679","","","","32","","35","","8","","","","1","","","","","1","","","","","141","679","","","","","","","","","","","","","","","","","","","","","","","","",""
"","reward_outcome","","html-keyboard-response","210","1050907","0.0-136.0","0","0","CvY1u","People","","886","","","","38","","35","","8","","","","","","","","","","","","","","","","1","886","","","","","","","","","","","","","","","","","","","","","","",""
"","fixation","","html-keyboard-response","211","1051917","0.0-139.0","0","0","CvY1u","People","","null","","","","null","","","","","","","","","","","","","","","","","","","","","","","","","","","","","","","","","","","","","","","","","","","",""
"","see_reward","","html-keyboard-response","212","1052706","0.0-140.0","0","0","CvY1u","People","","788","","","","32","","4","","9","","","","-1","","","","","1","","","","","0","788","","","","","","","","","","","","","","","","","","","","","","","","",""
"","reward_outcome","","html-keyboard-response","213","1054716","0.0-141.0","0","0","CvY1u","People","","727","","","","40","","4","","9","","","","","","","","","","","","","","","","-1","727","","","","","","","","","","","","","","","","","","","","","","",""
"","fixation","","html-keyboard-response","214","1055723","0.0-144.0","0","0","CvY1u","People","","null","","","","null","","","","","","","","","","","","","","","","","","","","","","","","","","","","","","","","","","","","","","","","","","","",""
"","see_reward","","html-keyboard-response","215","1056484","0.0-145.0","0","0","CvY1u","People","","759","","","","32","","45","","10","","","","-1","","","","","1","","","","","0","759","","","","","","","","","","","","","","","","","","","","","","","","",""
"","reward_outcome","","html-keyboard-response","216","1058492","0.0-146.0","0","0","CvY1u","People","","967","","","","40","","45","","10","","","","","","","","","","","","","","","","-1","967","","","","","","","","","","","","","","","","","","","","","","",""
"","fixation","","html-keyboard-response","217","1059500","0.0-149.0","0","0","CvY1u","People","","null","","","","null","","","","","","","","","","","","","","","","","","","","","","","","","","","","","","","","","","","","","","","","","","","",""
"","see_reward","","html-keyboard-response","218","1060259","0.0-150.0","0","0","CvY1u","People","","757","","","","32","","44","","11","","","","1","","","","","1","","","","","150","757","","","","","","","","","","","","","","","","","","","","","","","","",""
"","reward_outcome","","html-keyboard-response","219","1062268","0.0-151.0","0","0","CvY1u","People","","766","","","","38","","44","","11","","","","","","","","","","","","","","","","1","766","","","","","","","","","","","","","","","","","","","","","","",""
"","fixation","","html-keyboard-response","220","1063276","0.0-154.0","0","0","CvY1u","People","","null","","","","null","","","","","","","","","","","","","","","","","","","","","","","","","","","","","","","","","","","","","","","","","","","",""
"","see_reward","","html-keyboard-response","221","1064107","0.0-155.0","0","0","CvY1u","People","","829","","","","32","","34","","12","","","","-1","","","","","1","","","","","0","829","","","","","","","","","","","","","","","","","","","","","","","","",""
"","reward_outcome","","html-keyboard-response","222","1066116","0.0-156.0","0","0","CvY1u","People","","854","","","","40","","34","","12","","","","","","","","","","","","","","","","-1","854","","","","","","","","","","","","","","","","","","","","","","",""
"","fixation","","html-keyboard-response","223","1067123","0.0-159.0","0","0","CvY1u","People","","null","","","","null","","","","","","","","","","","","","","","","","","","","","","","","","","","","","","","","","","","","","","","","","","","",""
"","see_reward","","html-keyboard-response","224","1067771","0.0-160.0","0","0","CvY1u","People","","646","","","","32","","11","","13","","","","1","","","","","1","","","","","149","646","","","","","","","","","","","","","","","","","","","","","","","","",""
"","reward_outcome","","html-keyboard-response","225","1069780","0.0-161.0","0","0","CvY1u","People","","806","","","","38","","11","","13","","","","","","","","","","","","","","","","1","806","","","","","","","","","","","","","","","","","","","","","","",""
"","fixation","","html-keyboard-response","226","1070796","0.0-164.0","0","0","CvY1u","People","","null","","","","null","","","","","","","","","","","","","","","","","","","","","","","","","","","","","","","","","","","","","","","","","","","",""
"","see_reward","","html-keyboard-response","227","1071371","0.0-165.0","0","0","CvY1u","People","","573","","","","32","","1","","14","","","","1","","","","","1","","","","","152","573","","","","","","","","","","","","","","","","","","","","","","","","",""
"","reward_outcome","","html-keyboard-response","228","1073379","0.0-166.0","0","0","CvY1u","People","","845","","","","38","","1","","14","","","","","","","","","","","","","","","","1","845","","","","","","","","","","","","","","","","","","","","","","",""
"","fixation","","html-keyboard-response","229","1074387","0.0-169.0","0","0","CvY1u","People","","null","","","","null","","","","","","","","","","","","","","","","","","","","","","","","","","","","","","","","","","","","","","","","","","","",""
"","see_reward","","html-keyboard-response","230","1075027","0.0-170.0","0","0","CvY1u","People","","638","","","","32","","45","","15","","","","-1","","","","","1","","","","","0","638","","","","","","","","","","","","","","","","","","","","","","","","",""
"","reward_outcome","","html-keyboard-response","231","1077035","0.0-171.0","0","0","CvY1u","People","","910","","","","40","","45","","15","","","","","","","","","","","","","","","","-1","910","","","","","","","","","","","","","","","","","","","","","","",""
"","fixation","","html-keyboard-response","232","1078043","0.0-174.0","0","0","CvY1u","People","","null","","","","null","","","","","","","","","","","","","","","","","","","","","","","","","","","","","","","","","","","","","","","","","","","",""
"","see_reward","","html-keyboard-response","233","1078714","0.0-175.0","0","0","CvY1u","People","","669","","","","32","","16","","16","","","","-1","","","","","1","","","","","0","669","","","","","","","","","","","","","","","","","","","","","","","","",""
"","reward_outcome","","html-keyboard-response","234","1080724","0.0-176.0","0","0","CvY1u","People","","846","","","","40","","16","","16","","","","","","","","","","","","","","","","-1","846","","","","","","","","","","","","","","","","","","","","","","",""
"","fixation","","html-keyboard-response","235","1081731","0.0-179.0","0","0","CvY1u","People","","null","","","","null","","","","","","","","","","","","","","","","","","","","","","","","","","","","","","","","","","","","","","","","","","","",""
"","see_reward","","html-keyboard-response","236","1082499","0.0-180.0","0","0","CvY1u","People","","766","","","","32","","3","","17","","","","-1","","","","","1","","","","","0","766","","","","","","","","","","","","","","","","","","","","","","","","",""
"","reward_outcome","","html-keyboard-response","237","1084507","0.0-181.0","0","0","CvY1u","People","","902","","","","40","","3","","17","","","","","","","","","","","","","","","","-1","902","","","","","","","","","","","","","","","","","","","","","","",""
"","fixation","","html-keyboard-response","238","1085615","0.0-184.0","0","0","CvY1u","People","","null","","","","null","","","","","","","","","","","","","","","","","","","","","","","","","","","","","","","","","","","","","","","","","","","",""
"","see_reward","","html-keyboard-response","239","1086379","0.0-185.0","0","0","CvY1u","People","","763","","","","32","","21","","18","","","","-1","","","","","1","","","","","0","763","","","","","","","","","","","","","","","","","","","","","","","","",""
"","reward_outcome","","html-keyboard-response","240","1088386","0.0-186.0","0","0","CvY1u","People","","933","","","","40","","21","","18","","","","","","","","","","","","","","","","-1","933","","","","","","","","","","","","","","","","","","","","","","",""
"","fixation","","html-keyboard-response","241","1089394","0.0-189.0","0","0","CvY1u","People","","null","","","","null","","","","","","","","","","","","","","","","","","","","","","","","","","","","","","","","","","","","","","","","","","","",""
"","see_reward","","html-keyboard-response","242","1090594","0.0-190.0","0","0","CvY1u","People","","1198","","","","32","","34","","19","","","","-1","","","","","1","","","","","0","1198","","","","","","","","","","","","","","","","","","","","","","","","",""
"","reward_outcome","","html-keyboard-response","243","1092603","0.0-191.0","0","0","CvY1u","People","","854","","","","40","","34","","19","","","","","","","","","","","","","","","","-1","854","","","","","","","","","","","","","","","","","","","","","","",""
"","fixation","","html-keyboard-response","244","1093610","0.0-194.0","0","0","CvY1u","People","","null","","","","null","","","","","","","","","","","","","","","","","","","","","","","","","","","","","","","","","","","","","","","","","","","",""
"","see_reward","","html-keyboard-response","245","1094250","0.0-195.0","0","0","CvY1u","People","","638","","","","32","","1","","20","","","","1","","","","","1","","","","","152","638","","","","","","","","","","","","","","","","","","","","","","","","",""
"","reward_outcome","","html-keyboard-response","246","1096420","0.0-196.0","0","0","CvY1u","People","","734","","","","38","","1","","20","","","","","","","","","","","","","","","","1","734","","","","","","","","","","","","","","","","","","","","","","",""
"","fixation","","html-keyboard-response","247","1097426","0.0-199.0","0","0","CvY1u","People","","null","","","","null","","","","","","","","","","","","","","","","","","","","","","","","","","","","","","","","","","","","","","","","","","","",""
"","see_reward","","html-keyboard-response","248","1098081","0.0-200.0","0","0","CvY1u","People","","653","","","","32","","14","","21","","","","1","","","","","1","","","","","140","653","","","","","","","","","","","","","","","","","","","","","","","","",""
"","reward_outcome","","html-keyboard-response","249","1100090","0.0-201.0","0","0","CvY1u","People","","751","","","","38","","14","","21","","","","","","","","","","","","","","","","1","751","","","","","","","","","","","","","","","","","","","","","","",""
"","fixation","","html-keyboard-response","250","1101099","0.0-204.0","0","0","CvY1u","People","","null","","","","null","","","","","","","","","","","","","","","","","","","","","","","","","","","","","","","","","","","","","","","","","","","",""
"","see_reward","","html-keyboard-response","251","1101658","0.0-205.0","0","0","CvY1u","People","","557","","","","32","","33","","22","","","","1","","","","","1","","","","","149","557","","","","","","","","","","","","","","","","","","","","","","","","",""
"","reward_outcome","","html-keyboard-response","252","1103666","0.0-206.0","0","0","CvY1u","People","","855","","","","38","","33","","22","","","","","","","","","","","","","","","","1","855","","","","","","","","","","","","","","","","","","","","","","",""
"","fixation","","html-keyboard-response","253","1104674","0.0-209.0","0","0","CvY1u","People","","null","","","","null","","","","","","","","","","","","","","","","","","","","","","","","","","","","","","","","","","","","","","","","","","","",""
"","see_reward","","html-keyboard-response","254","1105298","0.0-210.0","0","0","CvY1u","People","","622","","","","32","","3","","23","","","","-1","","","","","1","","","","","0","622","","","","","","","","","","","","","","","","","","","","","","","","",""
"","reward_outcome","","html-keyboard-response","255","1107306","0.0-211.0","0","0","CvY1u","People","","710","","","","40","","3","","23","","","","","","","","","","","","","","","","-1","710","","","","","","","","","","","","","","","","","","","","","","",""
"","block_over","","html-keyboard-response","256","1110569","0.0-213.0-0.0","0","0","CvY1u","People","","3261","","","","78","","","","","","","","","","","","","","","","","","","","","","","","","","","","","","","","","","","","","","","","","","","",""
"","fixation","","html-keyboard-response","257","1111579","0.0-214.0","0","0","CvY1u","People","","null","","","","null","","","","","","","","","","","","","","","","","","","","","","","","","","","","","","","","","","","","","","","","","","","",""
"","see_reward","","html-keyboard-response","258","1112433","0.0-215.0","0","0","CvY1u","People","","852","","","","32","","34","","24","","","","-1","","","","","2","","","","","0","852","","","","","","","","","","","","","","","","","","","","","","","","",""
"","reward_outcome","","html-keyboard-response","259","1114443","0.0-216.0","0","0","CvY1u","People","","797","","","","40","","34","","24","","","","","","","","","","","","","","","","-1","797","","","","","","","","","","","","","","","","","","","","","","",""
"","fixation","","html-keyboard-response","260","1115451","0.0-219.0","0","0","CvY1u","People","","null","","","","null","","","","","","","","","","","","","","","","","","","","","","","","","","","","","","","","","","","","","","","","","","","",""
"","see_reward","","html-keyboard-response","261","1116370","0.0-220.0","0","0","CvY1u","People","","671","","","","32","","35","","25","","","","1","","","","","2","","","","","141","671","","","","","","","","","","","","","","","","","","","","","","","","",""
"","reward_outcome","","html-keyboard-response","262","1118379","0.0-221.0","0","0","CvY1u","People","","910","","","","38","","35","","25","","","","","","","","","","","","","","","","1","910","","","","","","","","","","","","","","","","","","","","","","",""
"","fixation","","html-keyboard-response","263","1119387","0.0-224.0","0","0","CvY1u","People","","null","","","","null","","","","","","","","","","","","","","","","","","","","","","","","","","","","","","","","","","","","","","","","","","","",""
"","see_reward","","html-keyboard-response","264","1120146","0.0-225.0","0","0","CvY1u","People","","757","","","","32","","1","","26","","","","1","","","","","2","","","","","152","757","","","","","","","","","","","","","","","","","","","","","","","","",""
"","reward_outcome","","html-keyboard-response","265","1122155","0.0-226.0","0","0","CvY1u","People","","831","","","","38","","1","","26","","","","","","","","","","","","","","","","1","831","","","","","","","","","","","","","","","","","","","","","","",""
"","fixation","","html-keyboard-response","266","1123264","0.0-229.0","0","0","CvY1u","People","","null","","","","null","","","","","","","","","","","","","","","","","","","","","","","","","","","","","","","","","","","","","","","","","","","",""
"","see_reward","","html-keyboard-response","267","1123881","0.0-230.0","0","0","CvY1u","People","","615","","","","32","","4","","27","","","","-1","","","","","2","","","","","0","615","","","","","","","","","","","","","","","","","","","","","","","","",""
"","reward_outcome","","html-keyboard-response","268","1125890","0.0-231.0","0","0","CvY1u","People","","694","","","","40","","4","","27","","","","","","","","","","","","","","","","-1","694","","","","","","","","","","","","","","","","","","","","","","",""
"","fixation","","html-keyboard-response","269","1126898","0.0-234.0","0","0","CvY1u","People","","null","","","","null","","","","","","","","","","","","","","","","","","","","","","","","","","","","","","","","","","","","","","","","","","","",""
"","see_reward","","html-keyboard-response","270","1127698","0.0-235.0","0","0","CvY1u","People","","798","","","","32","","21","","28","","","","-1","","","","","2","","","","","0","798","","","","","","","","","","","","","","","","","","","","","","","","",""
"","reward_outcome","","html-keyboard-response","271","1129707","0.0-236.0","0","0","CvY1u","People","","750","","","","40","","21","","28","","","","","","","","","","","","","","","","-1","750","","","","","","","","","","","","","","","","","","","","","","",""
"","fixation","","html-keyboard-response","272","1130714","0.0-239.0","0","0","CvY1u","People","","null","","","","null","","","","","","","","","","","","","","","","","","","","","","","","","","","","","","","","","","","","","","","","","","","",""
"","see_reward","","html-keyboard-response","273","1131370","0.0-240.0","0","0","CvY1u","People","","654","","","","32","","21","","29","","","","-1","","","","","2","","","","","0","654","","","","","","","","","","","","","","","","","","","","","","","","",""
"","reward_outcome","","html-keyboard-response","274","1133379","0.0-241.0","0","0","CvY1u","People","","702","","","","40","","21","","29","","","","","","","","","","","","","","","","-1","702","","","","","","","","","","","","","","","","","","","","","","",""
"","fixation","","html-keyboard-response","275","1134386","0.0-244.0","0","0","CvY1u","People","","null","","","","null","","","","","","","","","","","","","","","","","","","","","","","","","","","","","","","","","","","","","","","","","","","",""
"","see_reward","","html-keyboard-response","276","1135113","0.0-245.0","0","0","CvY1u","People","","725","","","","32","","34","","30","","","","-1","","","","","2","","","","","0","725","","","","","","","","","","","","","","","","","","","","","","","","",""
"","reward_outcome","","html-keyboard-response","277","1137123","0.0-246.0","0","0","CvY1u","People","","837","","","","40","","34","","30","","","","","","","","","","","","","","","","-1","837","","","","","","","","","","","","","","","","","","","","","","",""
"","fixation","","html-keyboard-response","278","1138131","0.0-249.0","0","0","CvY1u","People","","null","","","","null","","","","","","","","","","","","","","","","","","","","","","","","","","","","","","","","","","","","","","","","","","","",""
"","see_reward","","html-keyboard-response","279","1138985","0.0-250.0","0","0","CvY1u","People","","852","","","","32","","3","","31","","","","-1","","","","","2","","","","","0","852","","","","","","","","","","","","","","","","","","","","","","","","",""
"","reward_outcome","","html-keyboard-response","280","1140995","0.0-251.0","0","0","CvY1u","People","","638","","","","40","","3","","31","","","","","","","","","","","","","","","","-1","638","","","","","","","","","","","","","","","","","","","","","","",""
"","fixation","","html-keyboard-response","281","1142003","0.0-254.0","0","0","CvY1u","People","","null","","","","null","","","","","","","","","","","","","","","","","","","","","","","","","","","","","","","","","","","","","","","","","","","",""
"","see_reward","","html-keyboard-response","282","1142585","0.0-255.0","0","0","CvY1u","People","","580","","","","32","","45","","32","","","","-1","","","","","2","","","","","0","580","","","","","","","","","","","","","","","","","","","","","","","","",""
"","reward_outcome","","html-keyboard-response","283","1144594","0.0-256.0","0","0","CvY1u","People","","670","","","","40","","45","","32","","","","","","","","","","","","","","","","-1","670","","","","","","","","","","","","","","","","","","","","","","",""
"","fixation","","html-keyboard-response","284","1145602","0.0-259.0","0","0","CvY1u","People","","null","","","","null","","","","","","","","","","","","","","","","","","","","","","","","","","","","","","","","","","","","","","","","","","","",""
"","see_reward","","html-keyboard-response","285","1146234","0.0-260.0","0","0","CvY1u","People","","630","","","","32","","44","","33","","","","1","","","","","2","","","","","150","630","","","","","","","","","","","","","","","","","","","","","","","","",""
"","reward_outcome","","html-keyboard-response","286","1148243","0.0-261.0","0","0","CvY1u","People","","677","","","","38","","44","","33","","","","","","","","","","","","","","","","1","677","","","","","","","","","","","","","","","","","","","","","","",""
"","fixation","","html-keyboard-response","287","1149251","0.0-264.0","0","0","CvY1u","People","","null","","","","null","","","","","","","","","","","","","","","","","","","","","","","","","","","","","","","","","","","","","","","","","","","",""
"","see_reward","","html-keyboard-response","288","1149784","0.0-265.0","0","0","CvY1u","People","","531","","","","32","","1","","34","","","","1","","","","","2","","","","","152","531","","","","","","","","","","","","","","","","","","","","","","","","",""
"","reward_outcome","","html-keyboard-response","289","1151786","0.0-266.0","0","0","CvY1u","People","","741","","","","38","","1","","34","","","","","","","","","","","","","","","","1","741","","","","","","","","","","","","","","","","","","","","","","",""
"","fixation","","html-keyboard-response","290","1152795","0.0-269.0","0","0","CvY1u","People","","null","","","","null","","","","","","","","","","","","","","","","","","","","","","","","","","","","","","","","","","","","","","","","","","","",""
"","see_reward","","html-keyboard-response","291","1153353","0.0-270.0","0","0","CvY1u","People","","556","","","","32","","33","","35","","","","1","","","","","2","","","","","149","556","","","","","","","","","","","","","","","","","","","","","","","","",""
"","reward_outcome","","html-keyboard-response","292","1155362","0.0-271.0","0","0","CvY1u","People","","677","","","","38","","33","","35","","","","","","","","","","","","","","","","1","677","","","","","","","","","","","","","","","","","","","","","","",""
"","fixation","","html-keyboard-response","293","1156370","0.0-274.0","0","0","CvY1u","People","","null","","","","null","","","","","","","","","","","","","","","","","","","","","","","","","","","","","","","","","","","","","","","","","","","",""
"","see_reward","","html-keyboard-response","294","1156956","0.0-275.0","0","0","CvY1u","People","","584","","","","32","","44","","36","","","","1","","","","","2","","","","","150","584","","","","","","","","","","","","","","","","","","","","","","","","",""
"","reward_outcome","","html-keyboard-response","295","1158963","0.0-276.0","0","0","CvY1u","People","","588","","","","38","","44","","36","","","","","","","","","","","","","","","","1","588","","","","","","","","","","","","","","","","","","","","","","",""
"","fixation","","html-keyboard-response","296","1159970","0.0-279.0","0","0","CvY1u","People","","null","","","","null","","","","","","","","","","","","","","","","","","","","","","","","","","","","","","","","","","","","","","","","","","","",""
"","see_reward","","html-keyboard-response","297","1160543","0.0-280.0","0","0","CvY1u","People","","572","","","","32","","33","","37","","","","1","","","","","2","","","","","149","572","","","","","","","","","","","","","","","","","","","","","","","","",""
"","reward_outcome","","html-keyboard-response","298","1162546","0.0-281.0","0","0","CvY1u","People","","881","","","","38","","33","","37","","","","","","","","","","","","","","","","1","881","","","","","","","","","","","","","","","","","","","","","","",""
"","fixation","","html-keyboard-response","299","1163554","0.0-284.0","0","0","CvY1u","People","","null","","","","null","","","","","","","","","","","","","","","","","","","","","","","","","","","","","","","","","","","","","","","","","","","",""
"","see_reward","","html-keyboard-response","300","1164164","0.0-285.0","0","0","CvY1u","People","","608","","","","32","","45","","38","","","","-1","","","","","2","","","","","0","608","","","","","","","","","","","","","","","","","","","","","","","","",""
"","reward_outcome","","html-keyboard-response","301","1166170","0.0-286.0","0","0","CvY1u","People","","690","","","","40","","45","","38","","","","","","","","","","","","","","","","-1","690","","","","","","","","","","","","","","","","","","","","","","",""
"","fixation","","html-keyboard-response","302","1167179","0.0-289.0","0","0","CvY1u","People","","null","","","","null","","","","","","","","","","","","","","","","","","","","","","","","","","","","","","","","","","","","","","","","","","","",""
"","see_reward","","html-keyboard-response","303","1167864","0.0-290.0","0","0","CvY1u","People","","684","","","","32","","11","","39","","","","1","","","","","2","","","","","149","684","","","","","","","","","","","","","","","","","","","","","","","","",""
"","reward_outcome","","html-keyboard-response","304","1169875","0.0-291.0","0","0","CvY1u","People","","735","","","","38","","11","","39","","","","","","","","","","","","","","","","1","735","","","","","","","","","","","","","","","","","","","","","","",""
"","fixation","","html-keyboard-response","305","1170883","0.0-294.0","0","0","CvY1u","People","","null","","","","null","","","","","","","","","","","","","","","","","","","","","","","","","","","","","","","","","","","","","","","","","","","",""
"","see_reward","","html-keyboard-response","306","1171433","0.0-295.0","0","0","CvY1u","People","","549","","","","32","","3","","40","","","","-1","","","","","2","","","","","0","549","","","","","","","","","","","","","","","","","","","","","","","","",""
"","reward_outcome","","html-keyboard-response","307","1173442","0.0-296.0","0","0","CvY1u","People","","693","","","","40","","3","","40","","","","","","","","","","","","","","","","-1","693","","","","","","","","","","","","","","","","","","","","","","",""
"","fixation","","html-keyboard-response","308","1174450","0.0-299.0","0","0","CvY1u","People","","null","","","","null","","","","","","","","","","","","","","","","","","","","","","","","","","","","","","","","","","","","","","","","","","","",""
"","see_reward","","html-keyboard-response","309","1175024","0.0-300.0","0","0","CvY1u","People","","573","","","","32","","14","","41","","","","1","","","","","2","","","","","140","573","","","","","","","","","","","","","","","","","","","","","","","","",""
"","reward_outcome","","html-keyboard-response","310","1177034","0.0-301.0","0","0","CvY1u","People","","678","","","","38","","14","","41","","","","","","","","","","","","","","","","1","678","","","","","","","","","","","","","","","","","","","","","","",""
"","fixation","","html-keyboard-response","311","1178043","0.0-304.0","0","0","CvY1u","People","","null","","","","null","","","","","","","","","","","","","","","","","","","","","","","","","","","","","","","","","","","","","","","","","","","",""
"","see_reward","","html-keyboard-response","312","1178632","0.0-305.0","0","0","CvY1u","People","","588","","","","32","","16","","42","","","","-1","","","","","2","","","","","0","588","","","","","","","","","","","","","","","","","","","","","","","","",""
"","reward_outcome","","html-keyboard-response","313","1180643","0.0-306.0","0","0","CvY1u","People","","728","","","","40","","16","","42","","","","","","","","","","","","","","","","-1","728","","","","","","","","","","","","","","","","","","","","","","",""
"","fixation","","html-keyboard-response","314","1181651","0.0-309.0","0","0","CvY1u","People","","null","","","","null","","","","","","","","","","","","","","","","","","","","","","","","","","","","","","","","","","","","","","","","","","","",""
"","see_reward","","html-keyboard-response","315","1182513","0.0-310.0","0","0","CvY1u","People","","860","","","","32","","11","","43","","","","1","","","","","2","","","","","149","860","","","","","","","","","","","","","","","","","","","","","","","","",""
"","reward_outcome","","html-keyboard-response","316","1184523","0.0-311.0","0","0","CvY1u","People","","654","","","","38","","11","","43","","","","","","","","","","","","","","","","1","654","","","","","","","","","","","","","","","","","","","","","","",""
"","fixation","","html-keyboard-response","317","1185530","0.0-314.0","0","0","CvY1u","People","","null","","","","null","","","","","","","","","","","","","","","","","","","","","","","","","","","","","","","","","","","","","","","","","","","",""
"","see_reward","","html-keyboard-response","318","1186119","0.0-315.0","0","0","CvY1u","People","","588","","","","32","","14","","44","","","","1","","","","","2","","","","","140","588","","","","","","","","","","","","","","","","","","","","","","","","",""
"","reward_outcome","","html-keyboard-response","319","1188214","0.0-316.0","0","0","CvY1u","People","","911","","","","38","","14","","44","","","","","","","","","","","","","","","","1","911","","","","","","","","","","","","","","","","","","","","","","",""
"","fixation","","html-keyboard-response","320","1189219","0.0-319.0","0","0","CvY1u","People","","null","","","","null","","","","","","","","","","","","","","","","","","","","","","","","","","","","","","","","","","","","","","","","","","","",""
"","see_reward","","html-keyboard-response","321","1189913","0.0-320.0","0","0","CvY1u","People","","692","","","","32","","35","","45","","","","1","","","","","2","","","","","141","692","","","","","","","","","","","","","","","","","","","","","","","","",""
"","reward_outcome","","html-keyboard-response","322","1191923","0.0-321.0","0","0","CvY1u","People","","669","","","","38","","35","","45","","","","","","","","","","","","","","","","1","669","","","","","","","","","","","","","","","","","","","","","","",""
"","fixation","","html-keyboard-response","323","1192931","0.0-324.0","0","0","CvY1u","People","","null","","","","null","","","","","","","","","","","","","","","","","","","","","","","","","","","","","","","","","","","","","","","","","","","",""
"","see_reward","","html-keyboard-response","324","1193529","0.0-325.0","0","0","CvY1u","People","","596","","","","32","","16","","46","","","","-1","","","","","2","","","","","0","596","","","","","","","","","","","","","","","","","","","","","","","","",""
"","reward_outcome","","html-keyboard-response","325","1195539","0.0-326.0","0","0","CvY1u","People","","899","","","","40","","16","","46","","","","","","","","","","","","","","","","-1","899","","","","","","","","","","","","","","","","","","","","","","",""
"","fixation","","html-keyboard-response","326","1196546","0.0-329.0","0","0","CvY1u","People","","null","","","","null","","","","","","","","","","","","","","","","","","","","","","","","","","","","","","","","","","","","","","","","","","","",""
"","see_reward","","html-keyboard-response","327","1197576","0.0-330.0","0","0","CvY1u","People","","1028","","","","32","","4","","47","","","","-1","","","","","2","","","","","0","1028","","","","","","","","","","","","","","","","","","","","","","","","",""
"","reward_outcome","","html-keyboard-response","328","1199586","0.0-331.0","0","0","CvY1u","People","","575","","","","40","","4","","47","","","","","","","","","","","","","","","","-1","575","","","","","","","","","","","","","","","","","","","","","","",""
"","block_over","","html-keyboard-response","329","1203391","0.0-333.0-0.0","0","0","CvY1u","People","","3804","","","","78","","","","","","","","","","","","","","","","","","","","","","","","","","","","","","","","","","","","","","","","","","","",""
"","fixation","","html-keyboard-response","330","1204396","0.0-334.0","0","0","CvY1u","People","","null","","","","null","","","","","","","","","","","","","","","","","","","","","","","","","","","","","","","","","","","","","","","","","","","",""
"","see_reward","","html-keyboard-response","331","1205431","0.0-335.0","0","0","CvY1u","People","","1034","","","","32","","34","","48","","","","-1","","","","","3","","","","","0","1034","","","","","","","","","","","","","","","","","","","","","","","","",""
"","reward_outcome","","html-keyboard-response","332","1207434","0.0-336.0","0","0","CvY1u","People","","838","","","","40","","34","","48","","","","","","","","","","","","","","","","-1","838","","","","","","","","","","","","","","","","","","","","","","",""
"","fixation","","html-keyboard-response","333","1208469","0.0-339.0","0","0","CvY1u","People","","null","","","","null","","","","","","","","","","","","","","","","","","","","","","","","","","","","","","","","","","","","","","","","","","","",""
"","see_reward","","html-keyboard-response","334","1209423","0.0-340.0","0","0","CvY1u","People","","953","","","","32","","3","","49","","","","-1","","","","","3","","","","","0","953","","","","","","","","","","","","","","","","","","","","","","","","",""
"","reward_outcome","","html-keyboard-response","335","1211428","0.0-341.0","0","0","CvY1u","People","","479","","","","40","","3","","49","","","","","","","","","","","","","","","","-1","479","","","","","","","","","","","","","","","","","","","","","","",""
"","fixation","","html-keyboard-response","336","1212436","0.0-344.0","0","0","CvY1u","People","","null","","","","null","","","","","","","","","","","","","","","","","","","","","","","","","","","","","","","","","","","","","","","","","","","",""
"","see_reward","","html-keyboard-response","337","1213167","0.0-345.0","0","0","CvY1u","People","","729","","","","32","","14","","50","","","","1","","","","","3","","","","","140","729","","","","","","","","","","","","","","","","","","","","","","","","",""
"","reward_outcome","","html-keyboard-response","338","1215171","0.0-346.0","0","0","CvY1u","People","","494","","","","38","","14","","50","","","","","","","","","","","","","","","","1","494","","","","","","","","","","","","","","","","","","","","","","",""
"","fixation","","html-keyboard-response","339","1216179","0.0-349.0","0","0","CvY1u","People","","null","","","","null","","","","","","","","","","","","","","","","","","","","","","","","","","","","","","","","","","","","","","","","","","","",""
"","see_reward","","html-keyboard-response","340","1217072","0.0-350.0","0","0","CvY1u","People","","891","","","","32","","16","","51","","","","-1","","","","","3","","","","","0","891","","","","","","","","","","","","","","","","","","","","","","","","",""
"","reward_outcome","","html-keyboard-response","341","1219075","0.0-351.0","0","0","CvY1u","People","","439","","","","40","","16","","51","","","","","","","","","","","","","","","","-1","439","","","","","","","","","","","","","","","","","","","","","","",""
"","fixation","","html-keyboard-response","342","1220083","0.0-354.0","0","0","CvY1u","People","","null","","","","null","","","","","","","","","","","","","","","","","","","","","","","","","","","","","","","","","","","","","","","","","","","",""
"","see_reward","","html-keyboard-response","343","1220815","0.0-355.0","0","0","CvY1u","People","","730","","","","32","","35","","52","","","","1","","","","","3","","","","","141","730","","","","","","","","","","","","","","","","","","","","","","","","",""
"","reward_outcome","","html-keyboard-response","344","1222819","0.0-356.0","0","0","CvY1u","People","","871","","","","38","","35","","52","","","","","","","","","","","","","","","","1","871","","","","","","","","","","","","","","","","","","","","","","",""
"","fixation","","html-keyboard-response","345","1223828","0.0-359.0","0","0","CvY1u","People","","null","","","","null","","","","","","","","","","","","","","","","","","","","","","","","","","","","","","","","","","","","","","","","","","","",""
"","see_reward","","html-keyboard-response","346","1224448","0.0-360.0","0","0","CvY1u","People","","618","","","","32","","3","","53","","","","-1","","","","","3","","","","","0","618","","","","","","","","","","","","","","","","","","","","","","","","",""
"","reward_outcome","","html-keyboard-response","347","1226451","0.0-361.0","0","0","CvY1u","People","","550","","","","40","","3","","53","","","","","","","","","","","","","","","","-1","550","","","","","","","","","","","","","","","","","","","","","","",""
"","fixation","","html-keyboard-response","348","1227535","0.0-364.0","0","0","CvY1u","People","","null","","","","null","","","","","","","","","","","","","","","","","","","","","","","","","","","","","","","","","","","","","","","","","","","",""
"","see_reward","","html-keyboard-response","349","1228264","0.0-365.0","0","0","CvY1u","People","","727","","","","32","","16","","54","","","","-1","","","","","3","","","","","0","727","","","","","","","","","","","","","","","","","","","","","","","","",""
"","reward_outcome","","html-keyboard-response","350","1230268","0.0-366.0","0","0","CvY1u","People","","502","","","","40","","16","","54","","","","","","","","","","","","","","","","-1","502","","","","","","","","","","","","","","","","","","","","","","",""
"","fixation","","html-keyboard-response","351","1231276","0.0-369.0","0","0","CvY1u","People","","null","","","","null","","","","","","","","","","","","","","","","","","","","","","","","","","","","","","","","","","","","","","","","","","","",""
