"success","ttype","start_time","trial_type","trial_index","time_elapsed","internal_node_id","warning","missed_checkup","PID","stim_type","view_history","rt","responses","category","repeat_instructions","key_press","response","stimulus_id","painting","index","stimulus_left","stimulus_right","explain_trial","reward_type","rating_left","rating_right","painting_left","painting_right","block","left_chosen","chosen_obj","unchosen_obj","explain_response","reward_amount","see_reward_rt","register_reward_response","register_reward_rt","deliberation_reward_tally","stimulus_left_deliberation_ind","stimulus_right_deliberation_ind","chosen_trial","gain_left","higher_outcome_chosen","old_pair","chosen_object","rt_pairs","left_object_chosen","rt_object","old_response","new_rating","deliberated_stim","initial_rating","outcome_eval_rt","outcome_eval_response","outcome_eval_gain","outcome_eval_acc","preamble","outcome_eval_confidence","outcome_eval_confidence_rt","total_reward_tally"
"true","full_screen","d01182023hr1422","fullscreen","0","2654","0.0-0.0","0","0","y72qN","People","","","","","","","","","","","","","","","","","","","","","","","","","","","","","","","","","","","","","","","","","","","","","","","","","",""
"","rating_instructions","","instructions","1","8353","0.0-1.0-0.0","0","0","y72qN","People","[{""page_index"":0,""viewing_time"":2290},{""page_index"":1,""viewing_time"":3394}]","5684","","","","","","","","","","","","","","","","","","","","","","","","","","","","","","","","","","","","","","","","","","","","","","","",""
"","","","survey-multi-choice","2","24783","0.0-1.0-1.0","0","0","y72qN","People","","16421","{""Q0"":""True"",""Q1"":""Mouse""}","rating_comprehension_check","0","","","","","","","","","","","","","","","","","","","","","","","","","","","","","","","","","","","","","","","","","","","","",""
"","start_phase","","html-keyboard-response","3","27650","0.0-2.0","0","0","y72qN","People","","2860","","","","78","","","","","","","","","","","","","","","","","","","","","","","","","","","","","","","","","","","","","","","","","","","",""
"","rating","","html-slider-response","4","37737","0.0-3.0","0","0","y72qN","People","","10081","","","","","42","3","art-hauntington-jzY0KRJopEI-unsplash.jpg","0","","","","","","","","","","","","","","","","","","","","","","","","","","","","","","","","","","","","","","","",""
"","rating","","html-slider-response","5","40191","0.0-4.0","0","0","y72qN","People","","2448","","","","","79","18","good-faces-xmSWVeGEnJw-unsplash.jpg","1","","","","","","","","","","","","","","","","","","","","","","","","","","","","","","","","","","","","","","","",""
"","rating","","html-slider-response","6","42846","0.0-5.0","0","0","y72qN","People","","2649","","","","","80","40","prince-akachi-4Yv84VgQkRM-unsplash.jpg","2","","","","","","","","","","","","","","","","","","","","","","","","","","","","","","","","","","","","","","","",""
"","rating","","html-slider-response","7","45771","0.0-6.0","0","0","y72qN","People","","2920","","","","","83","20","houcine-ncib-B4TjXnI0Y2c-unsplash.jpg","3","","","","","","","","","","","","","","","","","","","","","","","","","","","","","","","","","","","","","","","",""
"","rating","","html-slider-response","8","48357","0.0-7.0","0","0","y72qN","People","","2581","","","","","26","9","carlos-andres-gomez-vJuk8Y86mRw-unsplash.jpg","4","","","","","","","","","","","","","","","","","","","","","","","","","","","","","","","","","","","","","","","",""
"","rating","","html-slider-response","9","51885","0.0-8.0","0","0","y72qN","People","","3524","","","","","25","16","giano-currie-5-9YOsmf8IQ-unsplash.jpg","5","","","","","","","","","","","","","","","","","","","","","","","","","","","","","","","","","","","","","","","",""
"","rating","","html-slider-response","10","54207","0.0-9.0","0","0","y72qN","People","","2318","","","","","27","49","vicky-hladynets-_gDoyVv5F4c-unsplash.jpg","6","","","","","","","","","","","","","","","","","","","","","","","","","","","","","","","","","","","","","","","",""
"","rating","","html-slider-response","11","56571","0.0-10.0","0","0","y72qN","People","","2358","","","","","16","8","bruce-dixon-3M9WJQVHzog-unsplash.jpg","7","","","","","","","","","","","","","","","","","","","","","","","","","","","","","","","","","","","","","","","",""
"","rating","","html-slider-response","12","59157","0.0-11.0","0","0","y72qN","People","","2581","","","","","72","26","juri-gianfrancesco-9EZadYaMzk4-unsplash.jpg","8","","","","","","","","","","","","","","","","","","","","","","","","","","","","","","","","","","","","","","","",""
"","rating","","html-slider-response","13","61893","0.0-12.0","0","0","y72qN","People","","2732","","","","","78","29","leilani-angel-K84vnnzxmTQ-unsplash.jpg","9","","","","","","","","","","","","","","","","","","","","","","","","","","","","","","","","","","","","","","","",""
"","rating","","html-slider-response","14","64687","0.0-13.0","0","0","y72qN","People","","2789","","","","","32","35","oliver-ragfelt-khV4fTy6-D8-unsplash.jpg","10","","","","","","","","","","","","","","","","","","","","","","","","","","","","","","","","","","","","","","","",""
"","rating","","html-slider-response","15","67051","0.0-14.0","0","0","y72qN","People","","2359","","","","","26","28","justin-chen-J7Cf1Gch49E-unsplash.jpg","11","","","","","","","","","","","","","","","","","","","","","","","","","","","","","","","","","","","","","","","",""
"","rating","","html-slider-response","16","70067","0.0-15.0","0","0","y72qN","People","","3012","","","","","64","41","prince-akachi-i2hoD-C2RUA-unsplash.jpg","12","","","","","","","","","","","","","","","","","","","","","","","","","","","","","","","","","","","","","","","",""
"","rating","","html-slider-response","17","73665","0.0-16.0","0","0","y72qN","People","","3592","","","","","65","1","aiony-haust-jmATI5Q_YgY-unsplash.jpg","13","","","","","","","","","","","","","","","","","","","","","","","","","","","","","","","","","","","","","","","",""
"","rating","","html-slider-response","18","75948","0.0-17.0","0","0","y72qN","People","","2278","","","","","28","22","jessica-radanavong-mrYkTuAesKE-unsplash.jpg","14","","","","","","","","","","","","","","","","","","","","","","","","","","","","","","","","","","","","","","","",""
"","rating","","html-slider-response","19","78519","0.0-18.0","0","0","y72qN","People","","2566","","","","","95","17","gleb-lukomets-paBzWCPN23k-unsplash.jpg","15","","","","","","","","","","","","","","","","","","","","","","","","","","","","","","","","","","","","","","","",""
"","rating","","html-slider-response","20","81352","0.0-19.0","0","0","y72qN","People","","2828","","","","","73","37","pavel-anoshin-d0peGya6R5Y-unsplash.jpg","16","","","","","","","","","","","","","","","","","","","","","","","","","","","","","","","","","","","","","","","",""
"","rating","","html-slider-response","21","83989","0.0-20.0","0","0","y72qN","People","","2633","","","","","55","48","velizar-ivanov-7ktP9yZA1g4-unsplash.jpg","17","","","","","","","","","","","","","","","","","","","","","","","","","","","","","","","","","","","","","","","",""
"","rating","","html-slider-response","22","87977","0.0-21.0","0","0","y72qN","People","","3982","","","","","78","30","matheus-ferrero-pg_WCHWSdT8-unsplash.jpg","18","","","","","","","","","","","","","","","","","","","","","","","","","","","","","","","","","","","","","","","",""
"","rating","","html-slider-response","23","90432","0.0-22.0","0","0","y72qN","People","","2449","","","","","63","12","daniel-rigdon-dXmXKPP2L4E-unsplash.jpg","19","","","","","","","","","","","","","","","","","","","","","","","","","","","","","","","","","","","","","","","",""
"","rating","","html-slider-response","24","92751","0.0-23.0","0","0","y72qN","People","","2314","","","","","97","42","prince-akachi-l3IHXOdMyHQ-unsplash.jpg","20","","","","","","","","","","","","","","","","","","","","","","","","","","","","","","","","","","","","","","","",""
"","rating","","html-slider-response","25","95903","0.0-24.0","0","0","y72qN","People","","3147","","","","","80","36","ospan-ali-mGdA2fzjWLo-unsplash.jpg","21","","","","","","","","","","","","","","","","","","","","","","","","","","","","","","","","","","","","","","","",""
"","rating","","html-slider-response","26","99347","0.0-25.0","0","0","y72qN","People","","3436","","","","","49","38","petr-sevcovic-HzDF-rxlSeM-unsplash.jpg","22","","","","","","","","","","","","","","","","","","","","","","","","","","","","","","","","","","","","","","","",""
"","rating","","html-slider-response","27","102023","0.0-26.0","0","0","y72qN","People","","2672","","","","","39","33","olena-sergienko-0TSd6uCKTKc-unsplash.jpg","23","","","","","","","","","","","","","","","","","","","","","","","","","","","","","","","","","","","","","","","",""
"","rating","","html-slider-response","28","104937","0.0-27.0","0","0","y72qN","People","","2909","","","","","39","45","sarah-noltner-pL5ZzPp1zqg-unsplash.jpg","24","","","","","","","","","","","","","","","","","","","","","","","","","","","","","","","","","","","","","","","",""
"","rating","","html-slider-response","29","107401","0.0-28.0","0","0","y72qN","People","","2458","","","","","32","5","batel-studio-ttSRjiYG_WM-unsplash.jpg","25","","","","","","","","","","","","","","","","","","","","","","","","","","","","","","","","","","","","","","","",""
"","rating","","html-slider-response","30","109467","0.0-29.0","0","0","y72qN","People","","2061","","","","","26","19","ha-nguy-n-OFSQ6bHjFjs-unsplash.jpg","26","","","","","","","","","","","","","","","","","","","","","","","","","","","","","","","","","","","","","","","",""
"","rating","","html-slider-response","31","111741","0.0-30.0","0","0","y72qN","People","","2269","","","","","25","27","jurica-koletic-7YVZYZeITc8-unsplash.jpg","27","","","","","","","","","","","","","","","","","","","","","","","","","","","","","","","","","","","","","","","",""
"","rating","","html-slider-response","32","114085","0.0-31.0","0","0","y72qN","People","","2338","","","","","59","43","raamin-ka-0qJBEzudn5E-unsplash.jpg","28","","","","","","","","","","","","","","","","","","","","","","","","","","","","","","","","","","","","","","","",""
"","rating","","html-slider-response","33","116666","0.0-32.0","0","0","y72qN","People","","2575","","","","","32","13","erik-lucatero-d2MSDujJl2g-unsplash.jpg","29","","","","","","","","","","","","","","","","","","","","","","","","","","","","","","","","","","","","","","","",""
"","rating","","html-slider-response","34","118896","0.0-33.0","0","0","y72qN","People","","2223","","","","","67","25","joseph-gonzalez-iFgRcqHznqg-unsplash.jpg","30","","","","","","","","","","","","","","","","","","","","","","","","","","","","","","","","","","","","","","","",""
"","rating","","html-slider-response","35","121237","0.0-34.0","0","0","y72qN","People","","2335","","","","","89","7","brooke-cagle-HRZUzoX1e6w-unsplash.jpg","31","","","","","","","","","","","","","","","","","","","","","","","","","","","","","","","","","","","","","","","",""
"","rating","","html-slider-response","36","123737","0.0-35.0","0","0","y72qN","People","","2495","","","","","29","2","arjunsyah-TBUA5KHJn6k-unsplash.jpg","32","","","","","","","","","","","","","","","","","","","","","","","","","","","","","","","","","","","","","","","",""
"","rating","","html-slider-response","37","127854","0.0-36.0","0","0","y72qN","People","","4113","","","","","28","21","jessica-felicio-_cvwXhGqG-o-unsplash.jpg","33","","","","","","","","","","","","","","","","","","","","","","","","","","","","","","","","","","","","","","","",""
"","rating","","html-slider-response","38","130280","0.0-37.0","0","0","y72qN","People","","2419","","","","","98","14","freddy-kearney-o-ioeoATbIM-unsplash.jpg","34","","","","","","","","","","","","","","","","","","","","","","","","","","","","","","","","","","","","","","","",""
"","rating","","html-slider-response","39","133237","0.0-38.0","0","0","y72qN","People","","2952","","","","","34","11","christian-ferrer-8vT-DgHZDG4-unsplash.jpg","35","","","","","","","","","","","","","","","","","","","","","","","","","","","","","","","","","","","","","","","",""
"","rating","","html-slider-response","40","136178","0.0-39.0","0","0","y72qN","People","","2935","","","","","95","39","philip-martin-5aGUyCW_PJw-unsplash.jpg","36","","","","","","","","","","","","","","","","","","","","","","","","","","","","","","","","","","","","","","","",""
"","rating","","html-slider-response","41","138365","0.0-40.0","0","0","y72qN","People","","2182","","","","","94","24","joel-mott-LaK153ghdig-unsplash.jpg","37","","","","","","","","","","","","","","","","","","","","","","","","","","","","","","","","","","","","","","","",""
"","rating","","html-slider-response","42","140415","0.0-41.0","0","0","y72qN","People","","2045","","","","","35","4","barna-bartis-2x3vfVxwR7o-unsplash.jpg","38","","","","","","","","","","","","","","","","","","","","","","","","","","","","","","","","","","","","","","","",""
"","rating","","html-slider-response","43","142539","0.0-42.0","0","0","y72qN","People","","2119","","","","","29","10","charles-etoroma-95UF6LXe-Lo-unsplash.jpg","39","","","","","","","","","","","","","","","","","","","","","","","","","","","","","","","","","","","","","","","",""
"","rating","","html-slider-response","44","145735","0.0-43.0","0","0","y72qN","People","","3191","","","","","79","15","gabriel-silverio-u3WmDyKGsrY-unsplash.jpg","40","","","","","","","","","","","","","","","","","","","","","","","","","","","","","","","","","","","","","","","",""
"","rating","","html-slider-response","45","147915","0.0-44.0","0","0","y72qN","People","","2174","","","","","69","23","joanna-nix-walkup-H4fEMshfwTE-unsplash.jpg","41","","","","","","","","","","","","","","","","","","","","","","","","","","","","","","","","","","","","","","","",""
"","rating","","html-slider-response","46","152823","0.0-45.0","0","0","y72qN","People","","4902","","","","","76","46","stefan-stefancik-QXevDflbl8A-unsplash.jpg","42","","","","","","","","","","","","","","","","","","","","","","","","","","","","","","","","","","","","","","","",""
"","rating","","html-slider-response","47","156887","0.0-46.0","0","0","y72qN","People","","4057","","","","","78","31","mathilda-khoo-vLR0YP_otCo-unsplash.jpg","43","","","","","","","","","","","","","","","","","","","","","","","","","","","","","","","","","","","","","","","",""
"","rating","","html-slider-response","48","159363","0.0-47.0","0","0","y72qN","People","","2470","","","","","67","47","tyler-nix-ZGa9d1a_4tA-unsplash.jpg","44","","","","","","","","","","","","","","","","","","","","","","","","","","","","","","","","","","","","","","","",""
"","rating","","html-slider-response","49","165255","0.0-48.0","0","0","y72qN","People","","5887","","","","","33","0","abstral-official-cyOKLSgkgCE-unsplash.jpg","45","","","","","","","","","","","","","","","","","","","","","","","","","","","","","","","","","","","","","","","",""
"","rating","","html-slider-response","50","167905","0.0-49.0","0","0","y72qN","People","","2644","","","","","99","44","rikonavt-HQjfrvdTfak-unsplash.jpg","46","","","","","","","","","","","","","","","","","","","","","","","","","","","","","","","","","","","","","","","",""
"","rating","","html-slider-response","51","170239","0.0-50.0","0","0","y72qN","People","","2328","","","","","26","32","nathan-dumlao-ger61_TX6oI-unsplash.jpg","47","","","","","","","","","","","","","","","","","","","","","","","","","","","","","","","","","","","","","","","",""
"","rating","","html-slider-response","52","174744","0.0-51.0","0","0","y72qN","People","","4496","","","","","46","6","ben-o-bro-C5XyLljkMrY-unsplash.jpg","48","","","","","","","","","","","","","","","","","","","","","","","","","","","","","","","","","","","","","","","",""
"","rating","","html-slider-response","53","178701","0.0-52.0","0","0","y72qN","People","","3951","","","","","31","34","oliver-johnson-1TUIcKob7Zs-unsplash.jpg","49","","","","","","","","","","","","","","","","","","","","","","","","","","","","","","","","","","","","","","","",""
"","deliberation_instructions","","instructions","54","195184","0.0-53.0-0.0","0","0","y72qN","People","[{""page_index"":0,""viewing_time"":2942},{""page_index"":1,""viewing_time"":2396},{""page_index"":2,""viewing_time"":6200},{""page_index"":3,""viewing_time"":2626},{""page_index"":4,""viewing_time"":2306}]","16472","","","","","","","","","","","","","","","","","","","","","","","","","","","","","","","","","","","","","","","","","","","","","","","",""
"","","","survey-multi-choice","55","224576","0.0-53.0-1.0","0","0","y72qN","People","","29376","{""Q0"":""True"",""Q1"":""True"",""Q2"":""Consider carefully and take your time (up to 10 seconds)"",""Q3"":""False"",""Q4"":""D""}","deliberation_comprehension_check","1","","","","","","","","","","","","","","","","","","","","","","","","","","","","","","","","","","","","","","","","","","","","",""
"","missed_instruction_checkup","","html-keyboard-response","56","227524","0.0-53.0-2.0-0.0","0","1","y72qN","People","","2941","","","","78","","","","","","","","","","","","","","","","","","","","","","","","","","","","","","","","","","","","","","","","","","","",""
"","deliberation_instructions","","instructions","57","411551","0.0-53.1-0.1","0","0","y72qN","People","[{""page_index"":0,""viewing_time"":13956},{""page_index"":1,""viewing_time"":64640},{""page_index"":0,""viewing_time"":34450},{""page_index"":1,""viewing_time"":53798},{""page_index"":2,""viewing_time"":10596},{""page_index"":3,""viewing_time"":4784},{""page_index"":4,""viewing_time"":1798}]","184023","","","","","","","","","","","","","","","","","","","","","","","","","","","","","","","","","","","","","","","","","","","","","","","",""
"","","","survey-multi-choice","58","427426","0.0-53.1-1.1","0","0","y72qN","People","","15861","{""Q0"":""True"",""Q1"":""True"",""Q2"":""Consider carefully and take your time (up to 10 seconds)"",""Q3"":""True"",""Q4"":""D""}","deliberation_comprehension_check","0","","","","","","","","","","","","","","","","","","","","","","","","","","","","","","","","","","","","","","","","","","","","",""
"","start_phase","","html-keyboard-response","59","429888","0.0-54.0","0","0","y72qN","People","","2454","","","","78","","","","","","","","","","","","","","","","","","","","","","","","","","","","","","","","","","","","","","","","","","","",""
"","first_deliberation_block","","html-keyboard-response","60","435271","0.0-55.0","0","0","y72qN","People","","5378","","","","78","","","","","","","","","","","","","","","","","","","","","","","","","","","","","","","","","","","","","","","","","","","",""
"","fixation","","html-keyboard-response","61","436286","0.0-56.0-0.0","0","0","y72qN","People","","null","","","","null","","","","","","","","","","","","","","","","","","","","","","","","","","","","","","","","","","","","","","","","","","","",""
"","deliberation","","html-keyboard-response","62","443667","0.0-56.0-1.0","0","0","y72qN","People","","7374","","","","68","","","","0","6","43","1","-1","46","59","ben-o-bro-C5XyLljkMrY-unsplash.jpg","raamin-ka-0qJBEzudn5E-unsplash.jpg","1","1","6","43","","","","","","","","","","","","","","","","","","","","","","","","","","","",""
"","choice_confirmation","","html-keyboard-response","63","444187","0.0-56.0-2.0-0.0","0","0","y72qN","People","","null","","","","null","","","","0","6","43","","","","","","","","","","","","","","","","","","","","","","","","","","","","","","","","","","","","","",""
"","explain_trial","","survey-text","64","486069","0.0-56.0-5.0-0.0","0","0","y72qN","People","","41873","{""Q0"":""The lighting and highlight of his features, it is also cheerful.""}","","","","","","","0","6","43","","","","","","","","","","","{""Q0"":""The lighting and highlight of his features, it is also cheerful.""}","","","","","","","","","","","","","","","","","","","","","","","","","","",""
"","fixation","","html-keyboard-response","65","487080","0.0-57.0-0.0","0","0","y72qN","People","","null","","","","null","","","","","","","","","","","","","","","","","","","","","","","","","","","","","","","","","","","","","","","","","","","",""
"","deliberation","","html-keyboard-response","66","497101","0.0-57.0-1.0","0","0","y72qN","People","","null","","","","null","","","","1","23","48","0","1","69","55","joanna-nix-walkup-H4fEMshfwTE-unsplash.jpg","velizar-ivanov-7ktP9yZA1g4-unsplash.jpg","1","","","","","","","","","","","","","","","","","","","","","","","","","","","","","","",""
"","deliberation_too_slow","","html-keyboard-response","67","498612","0.0-57.0-4.0-0.0","1","0","y72qN","People","","null","","","","null","","","","1","","","","","","","","","","","","","","","","","","","","","","","","","","","","","","","","","","","","","","","",""
"","fixation","","html-keyboard-response","68","499621","0.0-57.1-0.1","0","0","y72qN","People","","null","","","","null","","","","","","","","","","","","","","","","","","","","","","","","","","","","","","","","","","","","","","","","","","","",""
"","deliberation","","html-keyboard-response","69","500873","0.0-57.1-1.1","0","0","y72qN","People","","1247","","","","75","","","","1","23","48","0","1","69","55","joanna-nix-walkup-H4fEMshfwTE-unsplash.jpg","velizar-ivanov-7ktP9yZA1g4-unsplash.jpg","1","0","48","23","","","","","","","","","","","","","","","","","","","","","","","","","","","",""
"","choice_confirmation","","html-keyboard-response","70","501382","0.0-57.1-2.1-0.1","0","0","y72qN","People","","null","","","","null","","","","1","23","48","","","","","","","","","","","","","","","","","","","","","","","","","","","","","","","","","","","","","",""
"","fixation","","html-keyboard-response","71","502397","0.0-58.0-0.0","0","0","y72qN","People","","null","","","","null","","","","","","","","","","","","","","","","","","","","","","","","","","","","","","","","","","","","","","","","","","","",""
"","deliberation","","html-keyboard-response","72","507250","0.0-58.0-1.0","0","0","y72qN","People","","4849","","","","75","","","","2","1","46","0","-1","65","76","aiony-haust-jmATI5Q_YgY-unsplash.jpg","stefan-stefancik-QXevDflbl8A-unsplash.jpg","1","0","46","1","","","","","","","","","","","","","","","","","","","","","","","","","","","",""
"","choice_confirmation","","html-keyboard-response","73","507763","0.0-58.0-2.0-0.0","0","0","y72qN","People","","null","","","","null","","","","2","1","46","","","","","","","","","","","","","","","","","","","","","","","","","","","","","","","","","","","","","",""
"","fixation","","html-keyboard-response","74","508781","0.0-59.0-0.0","0","0","y72qN","People","","null","","","","null","","","","","","","","","","","","","","","","","","","","","","","","","","","","","","","","","","","","","","","","","","","",""
"","deliberation","","html-keyboard-response","75","515570","0.0-59.0-1.0","0","0","y72qN","People","","6786","","","","75","","","","3","0","4","1","1","33","35","abstral-official-cyOKLSgkgCE-unsplash.jpg","barna-bartis-2x3vfVxwR7o-unsplash.jpg","1","0","4","0","","","","","","","","","","","","","","","","","","","","","","","","","","","",""
"","choice_confirmation","","html-keyboard-response","76","516080","0.0-59.0-2.0-0.0","0","0","y72qN","People","","null","","","","null","","","","3","0","4","","","","","","","","","","","","","","","","","","","","","","","","","","","","","","","","","","","","","",""
"","explain_trial","","survey-text","77","615543","0.0-59.0-5.0-0.0","0","0","y72qN","People","","99459","{""Q0"":""I could see this photograph used for a variety of purposes. I see it used in presentations or for business trainings.""}","","","","","","","3","0","4","","","","","","","","","","","{""Q0"":""I could see this photograph used for a variety of purposes. I see it used in presentations or for business trainings.""}","","","","","","","","","","","","","","","","","","","","","","","","","","",""
"","fixation","","html-keyboard-response","78","616554","0.0-60.0-0.0","0","0","y72qN","People","","null","","","","null","","","","","","","","","","","","","","","","","","","","","","","","","","","","","","","","","","","","","","","","","","","",""
"","deliberation","","html-keyboard-response","79","623266","0.0-60.0-1.0","0","0","y72qN","People","","6706","","","","68","","","","4","47","35","1","1","67","32","tyler-nix-ZGa9d1a_4tA-unsplash.jpg","oliver-ragfelt-khV4fTy6-D8-unsplash.jpg","1","1","47","35","","","","","","","","","","","","","","","","","","","","","","","","","","","",""
"","choice_confirmation","","html-keyboard-response","80","623781","0.0-60.0-2.0-0.0","0","0","y72qN","People","","null","","","","null","","","","4","47","35","","","","","","","","","","","","","","","","","","","","","","","","","","","","","","","","","","","","","",""
"","explain_trial","","survey-text","81","640638","0.0-60.0-5.0-0.0","0","0","y72qN","People","","16852","{""Q0"":""It has charisma.""}","","","","","","","4","47","35","","","","","","","","","","","{""Q0"":""It has charisma.""}","","","","","","","","","","","","","","","","","","","","","","","","","","",""
"","fixation","","html-keyboard-response","82","641654","0.0-61.0-0.0","0","0","y72qN","People","","null","","","","null","","","","","","","","","","","","","","","","","","","","","","","","","","","","","","","","","","","","","","","","","","","",""
"","deliberation","","html-keyboard-response","83","647813","0.0-61.0-1.0","0","0","y72qN","People","","6153","","","","75","","","","5","37","11","1","-1","73","34","pavel-anoshin-d0peGya6R5Y-unsplash.jpg","christian-ferrer-8vT-DgHZDG4-unsplash.jpg","1","0","11","37","","","","","","","","","","","","","","","","","","","","","","","","","","","",""
"","choice_confirmation","","html-keyboard-response","84","648326","0.0-61.0-2.0-0.0","0","0","y72qN","People","","null","","","","null","","","","5","37","11","","","","","","","","","","","","","","","","","","","","","","","","","","","","","","","","","","","","","",""
"","explain_trial","","survey-text","85","670437","0.0-61.0-5.0-0.0","0","0","y72qN","People","","22104","{""Q0"":""I could see it used for ecommerce purposes.""}","","","","","","","5","37","11","","","","","","","","","","","{""Q0"":""I could see it used for ecommerce purposes.""}","","","","","","","","","","","","","","","","","","","","","","","","","","",""
"","fixation","","html-keyboard-response","86","671459","0.0-62.0-0.0","0","0","y72qN","People","","null","","","","null","","","","","","","","","","","","","","","","","","","","","","","","","","","","","","","","","","","","","","","","","","","",""
"","deliberation","","html-keyboard-response","87","676813","0.0-62.0-1.0","0","0","y72qN","People","","5348","","","","75","","","","6","38","25","0","-1","49","67","petr-sevcovic-HzDF-rxlSeM-unsplash.jpg","joseph-gonzalez-iFgRcqHznqg-unsplash.jpg","1","0","25","38","","","","","","","","","","","","","","","","","","","","","","","","","","","",""
"","choice_confirmation","","html-keyboard-response","88","677323","0.0-62.0-2.0-0.0","0","0","y72qN","People","","null","","","","null","","","","6","38","25","","","","","","","","","","","","","","","","","","","","","","","","","","","","","","","","","","","","","",""
"","fixation","","html-keyboard-response","89","678340","0.0-63.0-0.0","0","0","y72qN","People","","null","","","","null","","","","","","","","","","","","","","","","","","","","","","","","","","","","","","","","","","","","","","","","","","","",""
"","deliberation","","html-keyboard-response","90","683221","0.0-63.0-1.0","0","0","y72qN","People","","4875","","","","68","","","","7","45","41","1","1","39","64","sarah-noltner-pL5ZzPp1zqg-unsplash.jpg","prince-akachi-i2hoD-C2RUA-unsplash.jpg","1","1","45","41","","","","","","","","","","","","","","","","","","","","","","","","","","","",""
"","choice_confirmation","","html-keyboard-response","91","683741","0.0-63.0-2.0-0.0","0","0","y72qN","People","","null","","","","null","","","","7","45","41","","","","","","","","","","","","","","","","","","","","","","","","","","","","","","","","","","","","","",""
"","explain_trial","","survey-text","92","744681","0.0-63.0-5.0-0.0","0","0","y72qN","People","","60933","{""Q0"":""The portrait view allows you to focus on the model. It commands the attention, as it is mystique.""}","","","","","","","7","45","41","","","","","","","","","","","{""Q0"":""The portrait view allows you to focus on the model. It commands the attention, as it is mystique.""}","","","","","","","","","","","","","","","","","","","","","","","","","","",""
"","fixation","","html-keyboard-response","93","745694","0.0-64.0-0.0","0","0","y72qN","People","","null","","","","null","","","","","","","","","","","","","","","","","","","","","","","","","","","","","","","","","","","","","","","","","","","",""
"","deliberation","","html-keyboard-response","94","750075","0.0-64.0-1.0","0","0","y72qN","People","","4375","","","","68","","","","8","29","3","0","1","78","42","leilani-angel-K84vnnzxmTQ-unsplash.jpg","art-hauntington-jzY0KRJopEI-unsplash.jpg","1","1","29","3","","","","","","","","","","","","","","","","","","","","","","","","","","","",""
"","choice_confirmation","","html-keyboard-response","95","750586","0.0-64.0-2.0-0.0","0","0","y72qN","People","","null","","","","null","","","","8","29","3","","","","","","","","","","","","","","","","","","","","","","","","","","","","","","","","","","","","","",""
"","fixation","","html-keyboard-response","96","751602","0.0-65.0-0.0","0","0","y72qN","People","","null","","","","null","","","","","","","","","","","","","","","","","","","","","","","","","","","","","","","","","","","","","","","","","","","",""
"","deliberation","","html-keyboard-response","97","756822","0.0-65.0-1.0","0","0","y72qN","People","","5214","","","","68","","","","9","13","5","1","1","32","32","erik-lucatero-d2MSDujJl2g-unsplash.jpg","batel-studio-ttSRjiYG_WM-unsplash.jpg","1","1","13","5","","","","","","","","","","","","","","","","","","","","","","","","","","","",""
"","choice_confirmation","","html-keyboard-response","98","757336","0.0-65.0-2.0-0.0","0","0","y72qN","People","","null","","","","null","","","","9","13","5","","","","","","","","","","","","","","","","","","","","","","","","","","","","","","","","","","","","","",""
"","explain_trial","","survey-text","99","805286","0.0-65.0-5.0-0.0","0","0","y72qN","People","","47944","{""Q0"":""The model stands out from the background. There is a level of intimacy with it.""}","","","","","","","9","13","5","","","","","","","","","","","{""Q0"":""The model stands out from the background. There is a level of intimacy with it.""}","","","","","","","","","","","","","","","","","","","","","","","","","","",""
"","fixation","","html-keyboard-response","100","806300","0.0-66.0-0.0","0","0","y72qN","People","","null","","","","null","","","","","","","","","","","","","","","","","","","","","","","","","","","","","","","","","","","","","","","","","","","",""
"","deliberation","","html-keyboard-response","101","809488","0.0-66.0-1.0","0","0","y72qN","People","","3182","","","","68","","","","10","26","12","0","-1","72","63","juri-gianfrancesco-9EZadYaMzk4-unsplash.jpg","daniel-rigdon-dXmXKPP2L4E-unsplash.jpg","1","1","26","12","","","","","","","","","","","","","","","","","","","","","","","","","","","",""
"","choice_confirmation","","html-keyboard-response","102","810001","0.0-66.0-2.0-0.0","0","0","y72qN","People","","null","","","","null","","","","10","26","12","","","","","","","","","","","","","","","","","","","","","","","","","","","","","","","","","","","","","",""
"","fixation","","html-keyboard-response","103","811017","0.0-67.0-0.0","0","0","y72qN","People","","null","","","","null","","","","","","","","","","","","","","","","","","","","","","","","","","","","","","","","","","","","","","","","","","","",""
"","deliberation","","html-keyboard-response","104","816911","0.0-67.0-1.0","0","0","y72qN","People","","5886","","","","68","","","","11","33","30","0","-1","39","78","olena-sergienko-0TSd6uCKTKc-unsplash.jpg","matheus-ferrero-pg_WCHWSdT8-unsplash.jpg","1","1","33","30","","","","","","","","","","","","","","","","","","","","","","","","","","","",""
"","choice_confirmation","","html-keyboard-response","105","817433","0.0-67.0-2.0-0.0","0","0","y72qN","People","","null","","","","null","","","","11","33","30","","","","","","","","","","","","","","","","","","","","","","","","","","","","","","","","","","","","","",""
"","practice_deliberation_again","","html-keyboard-response","106","823167","0.0-67.0-6.0-0.0","0","0","y72qN","People","","5728","","","","78","","","","","","","","","","","","","","","","","","","","","","","","","","","","","","","","","","","","","","","","","","","",""
"","fixation","","html-keyboard-response","107","824182","0.0-68.0-0.0","0","0","y72qN","People","","null","","","","null","","","","","","","","","","","","","","","","","","","","","","","","","","","","","","","","","","","","","","","","","","","",""
"","deliberation","","html-keyboard-response","108","829594","0.0-68.0-1.0","0","0","y72qN","People","","5405","","","","68","","","","12","47","35","0","1","67","32","tyler-nix-ZGa9d1a_4tA-unsplash.jpg","oliver-ragfelt-khV4fTy6-D8-unsplash.jpg","2","1","47","35","","","","","","","","","","","","","","","","","","","","","","","","","","","",""
"","choice_confirmation","","html-keyboard-response","109","830115","0.0-68.0-2.0-0.0","0","0","y72qN","People","","null","","","","null","","","","12","47","35","","","","","","","","","","","","","","","","","","","","","","","","","","","","","","","","","","","","","",""
"","fixation","","html-keyboard-response","110","831128","0.0-69.0-0.0","0","0","y72qN","People","","null","","","","null","","","","","","","","","","","","","","","","","","","","","","","","","","","","","","","","","","","","","","","","","","","",""
"","deliberation","","html-keyboard-response","111","833423","0.0-69.0-1.0","0","0","y72qN","People","","2289","","","","75","","","","13","0","4","0","1","33","35","abstral-official-cyOKLSgkgCE-unsplash.jpg","barna-bartis-2x3vfVxwR7o-unsplash.jpg","2","0","4","0","","","","","","","","","","","","","","","","","","","","","","","","","","","",""
"","choice_confirmation","","html-keyboard-response","112","833933","0.0-69.0-2.0-0.0","0","0","y72qN","People","","null","","","","null","","","","13","0","4","","","","","","","","","","","","","","","","","","","","","","","","","","","","","","","","","","","","","",""
"","fixation","","html-keyboard-response","113","834951","0.0-70.0-0.0","0","0","y72qN","People","","null","","","","null","","","","","","","","","","","","","","","","","","","","","","","","","","","","","","","","","","","","","","","","","","","",""
"","deliberation","","html-keyboard-response","114","839348","0.0-70.0-1.0","0","0","y72qN","People","","4391","","","","75","","","","14","1","46","1","-1","65","76","aiony-haust-jmATI5Q_YgY-unsplash.jpg","stefan-stefancik-QXevDflbl8A-unsplash.jpg","2","0","46","1","","","","","","","","","","","","","","","","","","","","","","","","","","","",""
"","choice_confirmation","","html-keyboard-response","115","839867","0.0-70.0-2.0-0.0","0","0","y72qN","People","","null","","","","null","","","","14","1","46","","","","","","","","","","","","","","","","","","","","","","","","","","","","","","","","","","","","","",""
"","explain_trial","","survey-text","116","872343","0.0-70.0-5.0-0.0","0","0","y72qN","People","","32469","{""Q0"":""The photo creates a connection between the model and the person viewing it.""}","","","","","","","14","1","46","","","","","","","","","","","{""Q0"":""The photo creates a connection between the model and the person viewing it.""}","","","","","","","","","","","","","","","","","","","","","","","","","","",""
"","fixation","","html-keyboard-response","117","873358","0.0-71.0-0.0","0","0","y72qN","People","","null","","","","null","","","","","","","","","","","","","","","","","","","","","","","","","","","","","","","","","","","","","","","","","","","",""
"","deliberation","","html-keyboard-response","118","875947","0.0-71.0-1.0","0","0","y72qN","People","","2584","","","","68","","","","15","6","43","0","-1","46","59","ben-o-bro-C5XyLljkMrY-unsplash.jpg","raamin-ka-0qJBEzudn5E-unsplash.jpg","2","1","6","43","","","","","","","","","","","","","","","","","","","","","","","","","","","",""
"","choice_confirmation","","html-keyboard-response","119","876464","0.0-71.0-2.0-0.0","0","0","y72qN","People","","null","","","","null","","","","15","6","43","","","","","","","","","","","","","","","","","","","","","","","","","","","","","","","","","","","","","",""
"","fixation","","html-keyboard-response","120","877481","0.0-72.0-0.0","0","0","y72qN","People","","null","","","","null","","","","","","","","","","","","","","","","","","","","","","","","","","","","","","","","","","","","","","","","","","","",""
"","deliberation","","html-keyboard-response","121","882073","0.0-72.0-1.0","0","0","y72qN","People","","4586","","","","68","","","","16","29","3","1","1","78","42","leilani-angel-K84vnnzxmTQ-unsplash.jpg","art-hauntington-jzY0KRJopEI-unsplash.jpg","2","1","29","3","","","","","","","","","","","","","","","","","","","","","","","","","","","",""
"","choice_confirmation","","html-keyboard-response","122","882580","0.0-72.0-2.0-0.0","0","0","y72qN","People","","null","","","","null","","","","16","29","3","","","","","","","","","","","","","","","","","","","","","","","","","","","","","","","","","","","","","",""
"","explain_trial","","survey-text","123","894194","0.0-72.0-5.0-0.0","0","0","y72qN","People","","11607","{""Q0"":""It looks natural.""}","","","","","","","16","29","3","","","","","","","","","","","{""Q0"":""It looks natural.""}","","","","","","","","","","","","","","","","","","","","","","","","","","",""
"","fixation","","html-keyboard-response","124","895213","0.0-73.0-0.0","0","0","y72qN","People","","null","","","","null","","","","","","","","","","","","","","","","","","","","","","","","","","","","","","","","","","","","","","","","","","","",""
"","deliberation","","html-keyboard-response","125","901561","0.0-73.0-1.0","0","0","y72qN","People","","6342","","","","68","","","","17","38","25","1","-1","49","67","petr-sevcovic-HzDF-rxlSeM-unsplash.jpg","joseph-gonzalez-iFgRcqHznqg-unsplash.jpg","2","1","38","25","","","","","","","","","","","","","","","","","","","","","","","","","","","",""
"","choice_confirmation","","html-keyboard-response","126","902086","0.0-73.0-2.0-0.0","0","0","y72qN","People","","null","","","","null","","","","17","38","25","","","","","","","","","","","","","","","","","","","","","","","","","","","","","","","","","","","","","",""
"","explain_trial","","survey-text","127","945127","0.0-73.0-5.0-0.0","0","0","y72qN","People","","43035","{""Q0"":""It looks natural. Though the lighting looks dim there is no intense effort put into making this photo perfect.""}","","","","","","","17","38","25","","","","","","","","","","","{""Q0"":""It looks natural. Though the lighting looks dim there is no intense effort put into making this photo perfect.""}","","","","","","","","","","","","","","","","","","","","","","","","","","",""
"","fixation","","html-keyboard-response","128","946138","0.0-74.0-0.0","0","0","y72qN","People","","null","","","","null","","","","","","","","","","","","","","","","","","","","","","","","","","","","","","","","","","","","","","","","","","","",""
"","deliberation","","html-keyboard-response","129","950394","0.0-74.0-1.0","0","0","y72qN","People","","4250","","","","68","","","","18","33","30","1","-1","39","78","olena-sergienko-0TSd6uCKTKc-unsplash.jpg","matheus-ferrero-pg_WCHWSdT8-unsplash.jpg","2","1","33","30","","","","","","","","","","","","","","","","","","","","","","","","","","","",""
"","choice_confirmation","","html-keyboard-response","130","950911","0.0-74.0-2.0-0.0","0","0","y72qN","People","","null","","","","null","","","","18","33","30","","","","","","","","","","","","","","","","","","","","","","","","","","","","","","","","","","","","","",""
"","explain_trial","","survey-text","131","969475","0.0-74.0-5.0-0.0","0","0","y72qN","People","","18558","{""Q0"":""Can be used for ecommerce purposes.""}","","","","","","","18","33","30","","","","","","","","","","","{""Q0"":""Can be used for ecommerce purposes.""}","","","","","","","","","","","","","","","","","","","","","","","","","","",""
"","fixation","","html-keyboard-response","132","970497","0.0-75.0-0.0","0","0","y72qN","People","","null","","","","null","","","","","","","","","","","","","","","","","","","","","","","","","","","","","","","","","","","","","","","","","","","",""
"","deliberation","","html-keyboard-response","133","972545","0.0-75.0-1.0","0","0","y72qN","People","","2043","","","","75","","","","19","37","11","0","-1","73","34","pavel-anoshin-d0peGya6R5Y-unsplash.jpg","christian-ferrer-8vT-DgHZDG4-unsplash.jpg","2","0","11","37","","","","","","","","","","","","","","","","","","","","","","","","","","","",""
"","choice_confirmation","","html-keyboard-response","134","973061","0.0-75.0-2.0-0.0","0","0","y72qN","People","","null","","","","null","","","","19","37","11","","","","","","","","","","","","","","","","","","","","","","","","","","","","","","","","","","","","","",""
"","fixation","","html-keyboard-response","135","974076","0.0-76.0-0.0","0","0","y72qN","People","","null","","","","null","","","","","","","","","","","","","","","","","","","","","","","","","","","","","","","","","","","","","","","","","","","",""
"","deliberation","","html-keyboard-response","136","976105","0.0-76.0-1.0","0","0","y72qN","People","","2023","","","","68","","","","20","13","5","0","1","32","32","erik-lucatero-d2MSDujJl2g-unsplash.jpg","batel-studio-ttSRjiYG_WM-unsplash.jpg","2","1","13","5","","","","","","","","","","","","","","","","","","","","","","","","","","","",""
"","choice_confirmation","","html-keyboard-response","137","976626","0.0-76.0-2.0-0.0","0","0","y72qN","People","","null","","","","null","","","","20","13","5","","","","","","","","","","","","","","","","","","","","","","","","","","","","","","","","","","","","","",""
"","fixation","","html-keyboard-response","138","977635","0.0-77.0-0.0","0","0","y72qN","People","","null","","","","null","","","","","","","","","","","","","","","","","","","","","","","","","","","","","","","","","","","","","","","","","","","",""
"","deliberation","","html-keyboard-response","139","979999","0.0-77.0-1.0","0","0","y72qN","People","","2357","","","","68","","","","21","26","12","1","-1","72","63","juri-gianfrancesco-9EZadYaMzk4-unsplash.jpg","daniel-rigdon-dXmXKPP2L4E-unsplash.jpg","2","1","26","12","","","","","","","","","","","","","","","","","","","","","","","","","","","",""
"","choice_confirmation","","html-keyboard-response","140","980509","0.0-77.0-2.0-0.0","0","0","y72qN","People","","null","","","","null","","","","21","26","12","","","","","","","","","","","","","","","","","","","","","","","","","","","","","","","","","","","","","",""
"","explain_trial","","survey-text","141","1009495","0.0-77.0-5.0-0.0","0","0","y72qN","People","","28980","{""Q0"":""It is mysterious. A moment in time we just stop to appreciate nature. ""}","","","","","","","21","26","12","","","","","","","","","","","{""Q0"":""It is mysterious. A moment in time we just stop to appreciate nature. ""}","","","","","","","","","","","","","","","","","","","","","","","","","","",""
"","fixation","","html-keyboard-response","142","1010505","0.0-78.0-0.0","0","0","y72qN","People","","null","","","","null","","","","","","","","","","","","","","","","","","","","","","","","","","","","","","","","","","","","","","","","","","","",""
"","deliberation","","html-keyboard-response","143","1012631","0.0-78.0-1.0","0","0","y72qN","People","","2120","","","","75","","","","22","23","48","1","1","69","55","joanna-nix-walkup-H4fEMshfwTE-unsplash.jpg","velizar-ivanov-7ktP9yZA1g4-unsplash.jpg","2","0","48","23","","","","","","","","","","","","","","","","","","","","","","","","","","","",""
"","choice_confirmation","","html-keyboard-response","144","1013142","0.0-78.0-2.0-0.0","0","0","y72qN","People","","null","","","","null","","","","22","23","48","","","","","","","","","","","","","","","","","","","","","","","","","","","","","","","","","","","","","",""
"","explain_trial","","survey-text","145","1040161","0.0-78.0-5.0-0.0","0","0","y72qN","People","","27014","{""Q0"":""The connection with the model and her eyes. The eyes are the window to the soul. ""}","","","","","","","22","23","48","","","","","","","","","","","{""Q0"":""The connection with the model and her eyes. The eyes are the window to the soul. ""}","","","","","","","","","","","","","","","","","","","","","","","","","","",""
"","fixation","","html-keyboard-response","146","1041172","0.0-79.0-0.0","0","0","y72qN","People","","null","","","","null","","","","","","","","","","","","","","","","","","","","","","","","","","","","","","","","","","","","","","","","","","","",""
"","deliberation","","html-keyboard-response","147","1043408","0.0-79.0-1.0","0","0","y72qN","People","","2230","","","","68","","","","23","45","41","0","1","39","64","sarah-noltner-pL5ZzPp1zqg-unsplash.jpg","prince-akachi-i2hoD-C2RUA-unsplash.jpg","2","1","45","41","","","","","","","","","","","","","","","","","","","","","","","","","","","",""
"","choice_confirmation","","html-keyboard-response","148","1043923","0.0-79.0-2.0-0.0","0","0","y72qN","People","","null","","","","null","","","","23","45","41","","","","","","","","","","","","","","","","","","","","","","","","","","","","","","","","","","","","","",""
"","start_critical_deliberation_block","","html-keyboard-response","149","1050680","0.0-79.0-7.0-0.0","0","0","y72qN","People","","6750","","","","78","","","","","","","","","","","","","","","","","","","","","","","","","","","","","","","","","","","","","","","","","","","",""
"","fixation","","html-keyboard-response","150","1051688","0.0-80.0-0.0","0","0","y72qN","People","","null","","","","null","","","","","","","","","","","","","","","","","","","","","","","","","","","","","","","","","","","","","","","","","","","",""
"","deliberation","","html-keyboard-response","151","1054186","0.0-80.0-1.0","0","0","y72qN","People","","2491","","","","68","","","","24","33","30","0","-1","39","78","olena-sergienko-0TSd6uCKTKc-unsplash.jpg","matheus-ferrero-pg_WCHWSdT8-unsplash.jpg","3","1","33","30","","","","","","","","","","","","","","","","","","","","","","","","","","","",""
"","choice_confirmation","","html-keyboard-response","152","1054705","0.0-80.0-2.0-0.0","0","0","y72qN","People","","null","","","","null","","","","24","33","30","","","","","","","","","","","","","","","","","","","","","","","","","","","","","","","","","","","","","",""
"","fixation","","html-keyboard-response","153","1055723","0.0-81.0-0.0","0","0","y72qN","People","","null","","","","null","","","","","","","","","","","","","","","","","","","","","","","","","","","","","","","","","","","","","","","","","","","",""
"","deliberation","","html-keyboard-response","154","1057488","0.0-81.0-1.0","0","0","y72qN","People","","1760","","","","68","","","","25","13","5","0","1","32","32","erik-lucatero-d2MSDujJl2g-unsplash.jpg","batel-studio-ttSRjiYG_WM-unsplash.jpg","3","1","13","5","","","","","","","","","","","","","","","","","","","","","","","","","","","",""
"","choice_confirmation","","html-keyboard-response","155","1058006","0.0-81.0-2.0-0.0","0","0","y72qN","People","","null","","","","null","","","","25","13","5","","","","","","","","","","","","","","","","","","","","","","","","","","","","","","","","","","","","","",""
"","fixation","","html-keyboard-response","156","1059022","0.0-82.0-0.0","0","0","y72qN","People","","null","","","","null","","","","","","","","","","","","","","","","","","","","","","","","","","","","","","","","","","","","","","","","","","","",""
"","deliberation","","html-keyboard-response","157","1061517","0.0-82.0-1.0","0","0","y72qN","People","","2489","","","","68","","","","26","38","25","0","-1","49","67","petr-sevcovic-HzDF-rxlSeM-unsplash.jpg","joseph-gonzalez-iFgRcqHznqg-unsplash.jpg","3","1","38","25","","","","","","","","","","","","","","","","","","","","","","","","","","","",""
"","choice_confirmation","","html-keyboard-response","158","1062039","0.0-82.0-2.0-0.0","0","0","y72qN","People","","null","","","","null","","","","26","38","25","","","","","","","","","","","","","","","","","","","","","","","","","","","","","","","","","","","","","",""
"","fixation","","html-keyboard-response","159","1063066","0.0-83.0-0.0","0","0","y72qN","People","","null","","","","null","","","","","","","","","","","","","","","","","","","","","","","","","","","","","","","","","","","","","","","","","","","",""
"","deliberation","","html-keyboard-response","160","1064927","0.0-83.0-1.0","0","0","y72qN","People","","1855","","","","75","","","","27","37","11","0","-1","73","34","pavel-anoshin-d0peGya6R5Y-unsplash.jpg","christian-ferrer-8vT-DgHZDG4-unsplash.jpg","3","0","11","37","","","","","","","","","","","","","","","","","","","","","","","","","","","",""
"","choice_confirmation","","html-keyboard-response","161","1065440","0.0-83.0-2.0-0.0","0","0","y72qN","People","","null","","","","null","","","","27","37","11","","","","","","","","","","","","","","","","","","","","","","","","","","","","","","","","","","","","","",""
"","fixation","","html-keyboard-response","162","1066452","0.0-84.0-0.0","0","0","y72qN","People","","null","","","","null","","","","","","","","","","","","","","","","","","","","","","","","","","","","","","","","","","","","","","","","","","","",""
"","deliberation","","html-keyboard-response","163","1068595","0.0-84.0-1.0","0","0","y72qN","People","","2137","","","","75","","","","28","1","46","0","-1","65","76","aiony-haust-jmATI5Q_YgY-unsplash.jpg","stefan-stefancik-QXevDflbl8A-unsplash.jpg","3","0","46","1","","","","","","","","","","","","","","","","","","","","","","","","","","","",""
"","choice_confirmation","","html-keyboard-response","164","1069105","0.0-84.0-2.0-0.0","0","0","y72qN","People","","null","","","","null","","","","28","1","46","","","","","","","","","","","","","","","","","","","","","","","","","","","","","","","","","","","","","",""
"","fixation","","html-keyboard-response","165","1070130","0.0-85.0-0.0","0","0","y72qN","People","","null","","","","null","","","","","","","","","","","","","","","","","","","","","","","","","","","","","","","","","","","","","","","","","","","",""
"","deliberation","","html-keyboard-response","166","1071973","0.0-85.0-1.0","0","0","y72qN","People","","1837","","","","68","","","","29","47","35","0","1","67","32","tyler-nix-ZGa9d1a_4tA-unsplash.jpg","oliver-ragfelt-khV4fTy6-D8-unsplash.jpg","3","1","47","35","","","","","","","","","","","","","","","","","","","","","","","","","","","",""
"","choice_confirmation","","html-keyboard-response","167","1072489","0.0-85.0-2.0-0.0","0","0","y72qN","People","","null","","","","null","","","","29","47","35","","","","","","","","","","","","","","","","","","","","","","","","","","","","","","","","","","","","","",""
"","fixation","","html-keyboard-response","168","1073504","0.0-86.0-0.0","0","0","y72qN","People","","null","","","","null","","","","","","","","","","","","","","","","","","","","","","","","","","","","","","","","","","","","","","","","","","","",""
"","deliberation","","html-keyboard-response","169","1075419","0.0-86.0-1.0","0","0","y72qN","People","","1908","","","","68","","","","30","29","3","0","1","78","42","leilani-angel-K84vnnzxmTQ-unsplash.jpg","art-hauntington-jzY0KRJopEI-unsplash.jpg","3","1","29","3","","","","","","","","","","","","","","","","","","","","","","","","","","","",""
"","choice_confirmation","","html-keyboard-response","170","1075939","0.0-86.0-2.0-0.0","0","0","y72qN","People","","null","","","","null","","","","30","29","3","","","","","","","","","","","","","","","","","","","","","","","","","","","","","","","","","","","","","",""
"","fixation","","html-keyboard-response","171","1076952","0.0-87.0-0.0","0","0","y72qN","People","","null","","","","null","","","","","","","","","","","","","","","","","","","","","","","","","","","","","","","","","","","","","","","","","","","",""
"","deliberation","","html-keyboard-response","172","1078910","0.0-87.0-1.0","0","0","y72qN","People","","1952","","","","68","","","","31","6","43","0","-1","46","59","ben-o-bro-C5XyLljkMrY-unsplash.jpg","raamin-ka-0qJBEzudn5E-unsplash.jpg","3","1","6","43","","","","","","","","","","","","","","","","","","","","","","","","","","","",""
"","choice_confirmation","","html-keyboard-response","173","1079422","0.0-87.0-2.0-0.0","0","0","y72qN","People","","null","","","","null","","","","31","6","43","","","","","","","","","","","","","","","","","","","","","","","","","","","","","","","","","","","","","",""
"","fixation","","html-keyboard-response","174","1080439","0.0-88.0-0.0","0","0","y72qN","People","","null","","","","null","","","","","","","","","","","","","","","","","","","","","","","","","","","","","","","","","","","","","","","","","","","",""
"","deliberation","","html-keyboard-response","175","1082448","0.0-88.0-1.0","0","0","y72qN","People","","2003","","","","75","","","","32","0","4","0","1","33","35","abstral-official-cyOKLSgkgCE-unsplash.jpg","barna-bartis-2x3vfVxwR7o-unsplash.jpg","3","0","4","0","","","","","","","","","","","","","","","","","","","","","","","","","","","",""
"","choice_confirmation","","html-keyboard-response","176","1082970","0.0-88.0-2.0-0.0","0","0","y72qN","People","","null","","","","null","","","","32","0","4","","","","","","","","","","","","","","","","","","","","","","","","","","","","","","","","","","","","","",""
"","fixation","","html-keyboard-response","177","1083987","0.0-89.0-0.0","0","0","y72qN","People","","null","","","","null","","","","","","","","","","","","","","","","","","","","","","","","","","","","","","","","","","","","","","","","","","","",""
"","deliberation","","html-keyboard-response","178","1085442","0.0-89.0-1.0","0","0","y72qN","People","","1448","","","","68","","","","33","45","41","0","1","39","64","sarah-noltner-pL5ZzPp1zqg-unsplash.jpg","prince-akachi-i2hoD-C2RUA-unsplash.jpg","3","1","45","41","","","","","","","","","","","","","","","","","","","","","","","","","","","",""
"","choice_confirmation","","html-keyboard-response","179","1085955","0.0-89.0-2.0-0.0","0","0","y72qN","People","","null","","","","null","","","","33","45","41","","","","","","","","","","","","","","","","","","","","","","","","","","","","","","","","","","","","","",""
"","fixation","","html-keyboard-response","180","1086972","0.0-90.0-0.0","0","0","y72qN","People","","null","","","","null","","","","","","","","","","","","","","","","","","","","","","","","","","","","","","","","","","","","","","","","","","","",""
"","deliberation","","html-keyboard-response","181","1088745","0.0-90.0-1.0","0","0","y72qN","People","","1766","","","","68","","","","34","26","12","0","-1","72","63","juri-gianfrancesco-9EZadYaMzk4-unsplash.jpg","daniel-rigdon-dXmXKPP2L4E-unsplash.jpg","3","1","26","12","","","","","","","","","","","","","","","","","","","","","","","","","","","",""
"","choice_confirmation","","html-keyboard-response","182","1089254","0.0-90.0-2.0-0.0","0","0","y72qN","People","","null","","","","null","","","","34","26","12","","","","","","","","","","","","","","","","","","","","","","","","","","","","","","","","","","","","","",""
"","fixation","","html-keyboard-response","183","1090270","0.0-91.0-0.0","0","0","y72qN","People","","null","","","","null","","","","","","","","","","","","","","","","","","","","","","","","","","","","","","","","","","","","","","","","","","","",""
"","deliberation","","html-keyboard-response","184","1092013","0.0-91.0-1.0","0","0","y72qN","People","","1736","","","","75","","","","35","23","48","0","1","69","55","joanna-nix-walkup-H4fEMshfwTE-unsplash.jpg","velizar-ivanov-7ktP9yZA1g4-unsplash.jpg","3","0","48","23","","","","","","","","","","","","","","","","","","","","","","","","","","","",""
"","choice_confirmation","","html-keyboard-response","185","1092555","0.0-91.0-2.0-0.0","0","0","y72qN","People","","null","","","","null","","","","35","23","48","","","","","","","","","","","","","","","","","","","","","","","","","","","","","","","","","","","","","",""
"","reward_learning_instructions","","instructions","186","1206065","0.0-92.0-0.0","0","0","y72qN","People","[{""page_index"":0,""viewing_time"":19455},{""page_index"":1,""viewing_time"":11709},{""page_index"":0,""viewing_time"":31526},{""page_index"":1,""viewing_time"":48830},{""page_index"":2,""viewing_time"":1984}]","113505","","","","","","","","","","","","","","","","","","","","","","","","","","","","","","","","","","","","","","","","","","","","","","","",""
"","","","survey-multi-choice","187","1219421","0.0-92.0-1.0","0","0","y72qN","People","","13342","{""Q0"":""True"",""Q1"":""True"",""Q2"":""Press the space bar to see its outcome"",""Q3"":""Press the relevant key while the outcome is presented""}","reward_comprehension_check","0","","","","","","","","","","","","","","","","","","","","","","","","","","","","","","","","","","","","","","","","","","","","",""
"","start_phase","","html-keyboard-response","188","1227853","0.0-93.0","0","0","y72qN","People","","8426","","","","78","","","","","","","","","","","","","","","","","","","","","","","","","","","","","","","","","","","","","","","","","","","",""
"","fixation","","html-keyboard-response","189","1228861","0.0-94.0","0","0","y72qN","People","","null","","","","null","","","","","","","","","","","","","","","","","","","","","","","","","","","","","","","","","","","","","","","","","","","",""
"","see_reward","","html-keyboard-response","190","1230660","0.0-95.0","0","0","y72qN","People","","1793","","","","32","","46","","0","","","","-1","","","","","1","","","","","0","1793","","","","","","","","","","","","","","","","","","","","","","","","",""
"","reward_outcome","","html-keyboard-response","191","1232666","0.0-96.0","0","0","y72qN","People","","null","","","","null","","46","","0","","","","","","","","","","","","","","","","NaN","null","","","","","","","","","","","","","","","","","","","","","","",""
"","respond_faster","","html-keyboard-response","192","1234180","0.0-97.0-0.0","1","0","y72qN","People","","null","","","","null","","","","","","","","","","","","","","","","","","","","","","","","","","","","","","","","","","","","","","","","","","","",""
"","fixation","","html-keyboard-response","193","1235198","0.0-99.0","0","0","y72qN","People","","null","","","","null","","","","","","","","","","","","","","","","","","","","","","","","","","","","","","","","","","","","","","","","","","","",""
"","see_reward","","html-keyboard-response","194","1236083","0.0-100.0","0","0","y72qN","People","","879","","","","32","","48","","1","","","","1","","","","","1","","","","","141","879","","","","","","","","","","","","","","","","","","","","","","","","",""
"","reward_outcome","","html-keyboard-response","195","1238099","0.0-101.0","0","0","y72qN","People","","1573","","","","38","","48","","1","","","","","","","","","","","","","","","","1","1573","","","","","","","","","","","","","","","","","","","","","","",""
"","fixation","","html-keyboard-response","196","1239114","0.0-104.0","0","0","y72qN","People","","null","","","","null","","","","","","","","","","","","","","","","","","","","","","","","","","","","","","","","","","","","","","","","","","","",""
"","see_reward","","html-keyboard-response","197","1239946","0.0-105.0","0","0","y72qN","People","","826","","","","32","","33","","2","","","","-1","","","","","1","","","","","0","826","","","","","","","","","","","","","","","","","","","","","","","","",""
"","reward_outcome","","html-keyboard-response","198","1241963","0.0-106.0","0","0","y72qN","People","","1370","","","","40","","33","","2","","","","","","","","","","","","","","","","-1","1370","","","","","","","","","","","","","","","","","","","","","","",""
"","fixation","","html-keyboard-response","199","1242981","0.0-109.0","0","0","y72qN","People","","null","","","","null","","","","","","","","","","","","","","","","","","","","","","","","","","","","","","","","","","","","","","","","","","","",""
"","see_reward","","html-keyboard-response","200","1243682","0.0-110.0","0","0","y72qN","People","","694","","","","32","","13","","3","","","","1","","","","","1","","","","","150","694","","","","","","","","","","","","","","","","","","","","","","","","",""
"","reward_outcome","","html-keyboard-response","201","1245696","0.0-111.0","0","0","y72qN","People","","1113","","","","38","","13","","3","","","","","","","","","","","","","","","","1","1113","","","","","","","","","","","","","","","","","","","","","","",""
"","fixation","","html-keyboard-response","202","1246714","0.0-114.0","0","0","y72qN","People","","null","","","","null","","","","","","","","","","","","","","","","","","","","","","","","","","","","","","","","","","","","","","","","","","","",""
"","see_reward","","html-keyboard-response","203","1247219","0.0-115.0","0","0","y72qN","People","","500","","","","32","","48","","4","","","","1","","","","","1","","","","","141","500","","","","","","","","","","","","","","","","","","","","","","","","",""
"","reward_outcome","","html-keyboard-response","204","1249230","0.0-116.0","0","0","y72qN","People","","1097","","","","38","","48","","4","","","","","","","","","","","","","","","","1","1097","","","","","","","","","","","","","","","","","","","","","","",""
"","fixation","","html-keyboard-response","205","1250246","0.0-119.0","0","0","y72qN","People","","null","","","","null","","","","","","","","","","","","","","","","","","","","","","","","","","","","","","","","","","","","","","","","","","","",""
"","see_reward","","html-keyboard-response","206","1250767","0.0-120.0","0","0","y72qN","People","","515","","","","32","","4","","5","","","","1","","","","","1","","","","","152","515","","","","","","","","","","","","","","","","","","","","","","","","",""
"","reward_outcome","","html-keyboard-response","207","1252780","0.0-121.0","0","0","y72qN","People","","1067","","","","38","","4","","5","","","","","","","","","","","","","","","","1","1067","","","","","","","","","","","","","","","","","","","","","","",""
"","fixation","","html-keyboard-response","208","1253795","0.0-124.0","0","0","y72qN","People","","null","","","","null","","","","","","","","","","","","","","","","","","","","","","","","","","","","","","","","","","","","","","","","","","","",""
"","see_reward","","html-keyboard-response","209","1254389","0.0-125.0","0","0","y72qN","People","","588","","","","32","","11","","6","","","","-1","","","","","1","","","","","0","588","","","","","","","","","","","","","","","","","","","","","","","","",""
"","reward_outcome","","html-keyboard-response","210","1256412","0.0-126.0","0","0","y72qN","People","","933","","","","40","","11","","6","","","","","","","","","","","","","","","","-1","933","","","","","","","","","","","","","","","","","","","","","","",""
"","fixation","","html-keyboard-response","211","1257429","0.0-129.0","0","0","y72qN","People","","null","","","","null","","","","","","","","","","","","","","","","","","","","","","","","","","","","","","","","","","","","","","","","","","","",""
"","see_reward","","html-keyboard-response","212","1257903","0.0-130.0","0","0","y72qN","People","","468","","","","32","","46","","7","","","","-1","","","","","1","","","","","0","468","","","","","","","","","","","","","","","","","","","","","","","","",""
"","reward_outcome","","html-keyboard-response","213","1259928","0.0-131.0","0","0","y72qN","People","","955","","","","40","","46","","7","","","","","","","","","","","","","","","","-1","955","","","","","","","","","","","","","","","","","","","","","","",""
"","fixation","","html-keyboard-response","214","1260944","0.0-134.0","0","0","y72qN","People","","null","","","","null","","","","","","","","","","","","","","","","","","","","","","","","","","","","","","","","","","","","","","","","","","","",""
"","see_reward","","html-keyboard-response","215","1261527","0.0-135.0","0","0","y72qN","People","","577","","","","32","","47","","8","","","","1","","","","","1","","","","","152","577","","","","","","","","","","","","","","","","","","","","","","","","",""
"","reward_outcome","","html-keyboard-response","216","1263545","0.0-136.0","0","0","y72qN","People","","973","","","","38","","47","","8","","","","","","","","","","","","","","","","1","973","","","","","","","","","","","","","","","","","","","","","","",""
"","fixation","","html-keyboard-response","217","1264561","0.0-139.0","0","0","y72qN","People","","null","","","","null","","","","","","","","","","","","","","","","","","","","","","","","","","","","","","","","","","","","","","","","","","","",""
"","see_reward","","html-keyboard-response","218","1264974","0.0-140.0","0","0","y72qN","People","","407","","","","32","","13","","9","","","","1","","","","","1","","","","","150","407","","","","","","","","","","","","","","","","","","","","","","","","",""
"","reward_outcome","","html-keyboard-response","219","1266996","0.0-141.0","0","0","y72qN","People","","999","","","","38","","13","","9","","","","","","","","","","","","","","","","1","999","","","","","","","","","","","","","","","","","","","","","","",""
"","fixation","","html-keyboard-response","220","1268012","0.0-144.0","0","0","y72qN","People","","null","","","","null","","","","","","","","","","","","","","","","","","","","","","","","","","","","","","","","","","","","","","","","","","","",""
"","see_reward","","html-keyboard-response","221","1268584","0.0-145.0","0","0","y72qN","People","","564","","","","32","","45","","10","","","","1","","","","","1","","","","","146","564","","","","","","","","","","","","","","","","","","","","","","","","",""
"","reward_outcome","","html-keyboard-response","222","1270596","0.0-146.0","0","0","y72qN","People","","991","","","","38","","45","","10","","","","","","","","","","","","","","","","1","991","","","","","","","","","","","","","","","","","","","","","","",""
"","fixation","","html-keyboard-response","223","1271611","0.0-149.0","0","0","y72qN","People","","null","","","","null","","","","","","","","","","","","","","","","","","","","","","","","","","","","","","","","","","","","","","","","","","","",""
"","see_reward","","html-keyboard-response","224","1272136","0.0-150.0","0","0","y72qN","People","","520","","","","32","","38","","11","","","","-1","","","","","1","","","","","0","520","","","","","","","","","","","","","","","","","","","","","","","","",""
"","reward_outcome","","html-keyboard-response","225","1274161","0.0-151.0","0","0","y72qN","People","","949","","","","40","","38","","11","","","","","","","","","","","","","","","","-1","949","","","","","","","","","","","","","","","","","","","","","","",""
"","fixation","","html-keyboard-response","226","1275177","0.0-154.0","0","0","y72qN","People","","null","","","","null","","","","","","","","","","","","","","","","","","","","","","","","","","","","","","","","","","","","","","","","","","","",""
"","see_reward","","html-keyboard-response","227","1275559","0.0-155.0","0","0","y72qN","People","","375","","","","32","","47","","12","","","","1","","","","","1","","","","","152","375","","","","","","","","","","","","","","","","","","","","","","","","",""
"","reward_outcome","","html-keyboard-response","228","1277576","0.0-156.0","0","0","y72qN","People","","1006","","","","38","","47","","12","","","","","","","","","","","","","","","","1","1006","","","","","","","","","","","","","","","","","","","","","","",""
"","fixation","","html-keyboard-response","229","1278593","0.0-159.0","0","0","y72qN","People","","null","","","","null","","","","","","","","","","","","","","","","","","","","","","","","","","","","","","","","","","","","","","","","","","","",""
"","see_reward","","html-keyboard-response","230","1278996","0.0-160.0","0","0","y72qN","People","","396","","","","32","","45","","13","","","","1","","","","","1","","","","","146","396","","","","","","","","","","","","","","","","","","","","","","","","",""
"","reward_outcome","","html-keyboard-response","231","1281013","0.0-161.0","0","0","y72qN","People","","921","","","","38","","45","","13","","","","","","","","","","","","","","","","1","921","","","","","","","","","","","","","","","","","","","","","","",""
"","fixation","","html-keyboard-response","232","1282029","0.0-164.0","0","0","y72qN","People","","null","","","","null","","","","","","","","","","","","","","","","","","","","","","","","","","","","","","","","","","","","","","","","","","","",""
"","see_reward","","html-keyboard-response","233","1282363","0.0-165.0","0","0","y72qN","People","","328","","","","32","","26","","14","","","","-1","","","","","1","","","","","0","328","","","","","","","","","","","","","","","","","","","","","","","","",""
"","reward_outcome","","html-keyboard-response","234","1284378","0.0-166.0","0","0","y72qN","People","","882","","","","40","","26","","14","","","","","","","","","","","","","","","","-1","882","","","","","","","","","","","","","","","","","","","","","","",""
"","fixation","","html-keyboard-response","235","1285393","0.0-169.0","0","0","y72qN","People","","null","","","","null","","","","","","","","","","","","","","","","","","","","","","","","","","","","","","","","","","","","","","","","","","","",""
"","see_reward","","html-keyboard-response","236","1285722","0.0-170.0","0","0","y72qN","People","","322","","","","32","","6","","15","","","","-1","","","","","1","","","","","0","322","","","","","","","","","","","","","","","","","","","","","","","","",""
"","reward_outcome","","html-keyboard-response","237","1287745","0.0-171.0","0","0","y72qN","People","","994","","","","40","","6","","15","","","","","","","","","","","","","","","","-1","994","","","","","","","","","","","","","","","","","","","","","","",""
"","fixation","","html-keyboard-response","238","1288761","0.0-174.0","0","0","y72qN","People","","null","","","","null","","","","","","","","","","","","","","","","","","","","","","","","","","","","","","","","","","","","","","","","","","","",""
"","see_reward","","html-keyboard-response","239","1289208","0.0-175.0","0","0","y72qN","People","","440","","","","32","","4","","16","","","","1","","","","","1","","","","","152","440","","","","","","","","","","","","","","","","","","","","","","","","",""
"","reward_outcome","","html-keyboard-response","240","1291227","0.0-176.0","0","0","y72qN","People","","905","","","","38","","4","","16","","","","","","","","","","","","","","","","1","905","","","","","","","","","","","","","","","","","","","","","","",""
"","fixation","","html-keyboard-response","241","1292244","0.0-179.0","0","0","y72qN","People","","null","","","","null","","","","","","","","","","","","","","","","","","","","","","","","","","","","","","","","","","","","","","","","","","","",""
"","see_reward","","html-keyboard-response","242","1292655","0.0-180.0","0","0","y72qN","People","","404","","","","32","","33","","17","","","","-1","","","","","1","","","","","0","404","","","","","","","","","","","","","","","","","","","","","","","","",""
"","reward_outcome","","html-keyboard-response","243","1294678","0.0-181.0","0","0","y72qN","People","","812","","","","40","","33","","17","","","","","","","","","","","","","","","","-1","812","","","","","","","","","","","","","","","","","","","","","","",""
"","fixation","","html-keyboard-response","244","1295694","0.0-184.0","0","0","y72qN","People","","null","","","","null","","","","","","","","","","","","","","","","","","","","","","","","","","","","","","","","","","","","","","","","","","","",""
"","see_reward","","html-keyboard-response","245","1296099","0.0-185.0","0","0","y72qN","People","","399","","","","32","","29","","18","","","","1","","","","","1","","","","","155","399","","","","","","","","","","","","","","","","","","","","","","","","",""
"","reward_outcome","","html-keyboard-response","246","1298127","0.0-186.0","0","0","y72qN","People","","915","","","","38","","29","","18","","","","","","","","","","","","","","","","1","915","","","","","","","","","","","","","","","","","","","","","","",""
"","fixation","","html-keyboard-response","247","1299145","0.0-189.0","0","0","y72qN","People","","null","","","","null","","","","","","","","","","","","","","","","","","","","","","","","","","","","","","","","","","","","","","","","","","","",""
"","see_reward","","html-keyboard-response","248","1299452","0.0-190.0","0","0","y72qN","People","","301","","","","32","","6","","19","","","","-1","","","","","1","","","","","0","301","","","","","","","","","","","","","","","","","","","","","","","","",""
"","reward_outcome","","html-keyboard-response","249","1301461","0.0-191.0","0","0","y72qN","People","","878","","","","40","","6","","19","","","","","","","","","","","","","","","","-1","878","","","","","","","","","","","","","","","","","","","","","","",""
"","fixation","","html-keyboard-response","250","1302477","0.0-194.0","0","0","y72qN","People","","null","","","","null","","","","","","","","","","","","","","","","","","","","","","","","","","","","","","","","","","","","","","","","","","","",""
"","see_reward","","html-keyboard-response","251","1302823","0.0-195.0","0","0","y72qN","People","","340","","","","32","","11","","20","","","","-1","","","","","1","","","","","0","340","","","","","","","","","","","","","","","","","","","","","","","","",""
"","reward_outcome","","html-keyboard-response","252","1304844","0.0-196.0","0","0","y72qN","People","","1126","","","","40","","11","","20","","","","","","","","","","","","","","","","-1","1126","","","","","","","","","","","","","","","","","","","","","","",""
"","fixation","","html-keyboard-response","253","1305859","0.0-199.0","0","0","y72qN","People","","null","","","","null","","","","","","","","","","","","","","","","","","","","","","","","","","","","","","","","","","","","","","","","","","","",""
"","see_reward","","html-keyboard-response","254","1306387","0.0-200.0","0","0","y72qN","People","","521","","","","32","","38","","21","","","","-1","","","","","1","","","","","0","521","","","","","","","","","","","","","","","","","","","","","","","","",""
"","reward_outcome","","html-keyboard-response","255","1308409","0.0-201.0","0","0","y72qN","People","","659","","","","40","","38","","21","","","","","","","","","","","","","","","","-1","659","","","","","","","","","","","","","","","","","","","","","","",""
"","fixation","","html-keyboard-response","256","1309427","0.0-204.0","0","0","y72qN","People","","null","","","","null","","","","","","","","","","","","","","","","","","","","","","","","","","","","","","","","","","","","","","","","","","","",""
"","see_reward","","html-keyboard-response","257","1309841","0.0-205.0","0","0","y72qN","People","","407","","","","32","","29","","22","","","","1","","","","","1","","","","","155","407","","","","","","","","","","","","","","","","","","","","","","","","",""
"","reward_outcome","","html-keyboard-response","258","1311859","0.0-206.0","0","0","y72qN","People","","453","","","","38","","29","","22","","","","","","","","","","","","","","","","1","453","","","","","","","","","","","","","","","","","","","","","","",""
"","fixation","","html-keyboard-response","259","1312877","0.0-209.0","0","0","y72qN","People","","null","","","","null","","","","","","","","","","","","","","","","","","","","","","","","","","","","","","","","","","","","","","","","","","","",""
"","see_reward","","html-keyboard-response","260","1313284","0.0-210.0","0","0","y72qN","People","","401","","","","32","","26","","23","","","","-1","","","","","1","","","","","0","401","","","","","","","","","","","","","","","","","","","","","","","","",""
"","reward_outcome","","html-keyboard-response","261","1315294","0.0-211.0","0","0","y72qN","People","","408","","","","40","","26","","23","","","","","","","","","","","","","","","","-1","408","","","","","","","","","","","","","","","","","","","","","","",""
"","block_over","","html-keyboard-response","262","1318715","0.0-213.0-0.0","0","0","y72qN","People","","3417","","","","78","","","","","","","","","","","","","","","","","","","","","","","","","","","","","","","","","","","","","","","","","","","",""
"","fixation","","html-keyboard-response","263","1319728","0.0-214.0","0","0","y72qN","People","","null","","","","null","","","","","","","","","","","","","","","","","","","","","","","","","","","","","","","","","","","","","","","","","","","",""
"","see_reward","","html-keyboard-response","264","1320970","0.0-215.0","0","0","y72qN","People","","1234","","","","32","","4","","24","","","","1","","","","","2","","","","","152","1234","","","","","","","","","","","","","","","","","","","","","","","","",""
"","reward_outcome","","html-keyboard-response","265","1322992","0.0-216.0","0","0","y72qN","People","","476","","","","40","","4","","24","","","","","","","","","","","","","","","","-1","476","","","","","","","","","","","","","","","","","","","","","","",""
"","fixation","","html-keyboard-response","266","1324011","0.0-219.0","0","0","y72qN","People","","null","","","","null","","","","","","","","","","","","","","","","","","","","","","","","","","","","","","","","","","","","","","","","","","","",""
"","see_reward","","html-keyboard-response","267","1324662","0.0-220.0","0","0","y72qN","People","","645","","","","32","","26","","25","","","","-1","","","","","2","","","","","0","645","","","","","","","","","","","","","","","","","","","","","","","","",""
"","reward_outcome","","html-keyboard-response","268","1326675","0.0-221.0","0","0","y72qN","People","","693","","","","40","","26","","25","","","","","","","","","","","","","","","","-1","693","","","","","","","","","","","","","","","","","","","","","","",""
"","fixation","","html-keyboard-response","269","1327693","0.0-224.0","0","0","y72qN","People","","null","","","","null","","","","","","","","","","","","","","","","","","","","","","","","","","","","","","","","","","","","","","","","","","","",""
"","see_reward","","html-keyboard-response","270","1328228","0.0-225.0","0","0","y72qN","People","","529","","","","32","","29","","26","","","","1","","","","","2","","","","","155","529","","","","","","","","","","","","","","","","","","","","","","","","",""
"","reward_outcome","","html-keyboard-response","271","1330243","0.0-226.0","0","0","y72qN","People","","439","","","","38","","29","","26","","","","","","","","","","","","","","","","1","439","","","","","","","","","","","","","","","","","","","","","","",""
"","fixation","","html-keyboard-response","272","1331259","0.0-229.0","0","0","y72qN","People","","null","","","","null","","","","","","","","","","","","","","","","","","","","","","","","","","","","","","","","","","","","","","","","","","","",""
"","see_reward","","html-keyboard-response","273","1331844","0.0-230.0","0","0","y72qN","People","","579","","","","32","","11","","27","","","","-1","","","","","2","","","","","0","579","","","","","","","","","","","","","","","","","","","","","","","","",""
"","reward_outcome","","html-keyboard-response","274","1333860","0.0-231.0","0","0","y72qN","People","","480","","","","40","","11","","27","","","","","","","","","","","","","","","","-1","480","","","","","","","","","","","","","","","","","","","","","","",""
"","fixation","","html-keyboard-response","275","1334877","0.0-234.0","0","0","y72qN","People","","null","","","","null","","","","","","","","","","","","","","","","","","","","","","","","","","","","","","","","","","","","","","","","","","","",""
"","see_reward","","html-keyboard-response","276","1335434","0.0-235.0","0","0","y72qN","People","","551","","","","32","","33","","28","","","","-1","","","","","2","","","","","0","551","","","","","","","","","","","","","","","","","","","","","","","","",""
"","reward_outcome","","html-keyboard-response","277","1337458","0.0-236.0","0","0","y72qN","People","","704","","","","40","","33","","28","","","","","","","","","","","","","","","","-1","704","","","","","","","","","","","","","","","","","","","","","","",""
"","fixation","","html-keyboard-response","278","1338475","0.0-239.0","0","0","y72qN","People","","null","","","","null","","","","","","","","","","","","","","","","","","","","","","","","","","","","","","","","","","","","","","","","","","","",""
"","see_reward","","html-keyboard-response","279","1338804","0.0-240.0","0","0","y72qN","People","","323","","","","32","","48","","29","","","","1","","","","","2","","","","","141","323","","","","","","","","","","","","","","","","","","","","","","","","",""
"","reward_outcome","","html-keyboard-response","280","1340826","0.0-241.0","0","0","y72qN","People","","529","","","","38","","48","","29","","","","","","","","","","","","","","","","1","529","","","","","","","","","","","","","","","","","","","","","","",""
"","fixation","","html-keyboard-response","281","1341842","0.0-244.0","0","0","y72qN","People","","null","","","","null","","","","","","","","","","","","","","","","","","","","","","","","","","","","","","","","","","","","","","","","","","","",""
"","see_reward","","html-keyboard-response","282","1342248","0.0-245.0","0","0","y72qN","People","","401","","","","32","","47","","30","","","","1","","","","","2","","","","","152","401","","","","","","","","","","","","","","","","","","","","","","","","",""
"","reward_outcome","","html-keyboard-response","283","1344260","0.0-246.0","0","0","y72qN","People","","699","","","","38","","47","","30","","","","","","","","","","","","","","","","1","699","","","","","","","","","","","","","","","","","","","","","","",""
"","fixation","","html-keyboard-response","284","1345277","0.0-249.0","0","0","y72qN","People","","null","","","","null","","","","","","","","","","","","","","","","","","","","","","","","","","","","","","","","","","","","","","","","","","","",""
"","see_reward","","html-keyboard-response","285","1345770","0.0-250.0","0","0","y72qN","People","","488","","","","32","","6","","31","","","","-1","","","","","2","","","","","0","488","","","","","","","","","","","","","","","","","","","","","","","","",""
"","reward_outcome","","html-keyboard-response","286","1347793","0.0-251.0","0","0","y72qN","People","","1192","","","","40","","6","","31","","","","","","","","","","","","","","","","-1","1192","","","","","","","","","","","","","","","","","","","","","","",""
"","fixation","","html-keyboard-response","287","1348808","0.0-254.0","0","0","y72qN","People","","null","","","","null","","","","","","","","","","","","","","","","","","","","","","","","","","","","","","","","","","","","","","","","","","","",""
"","see_reward","","html-keyboard-response","288","1349336","0.0-255.0","0","0","y72qN","People","","521","","","","32","","29","","32","","","","1","","","","","2","","","","","155","521","","","","","","","","","","","","","","","","","","","","","","","","",""
"","reward_outcome","","html-keyboard-response","289","1351359","0.0-256.0","0","0","y72qN","People","","478","","","","38","","29","","32","","","","","","","","","","","","","","","","1","478","","","","","","","","","","","","","","","","","","","","","","",""
"","fixation","","html-keyboard-response","290","1352375","0.0-259.0","0","0","y72qN","People","","null","","","","null","","","","","","","","","","","","","","","","","","","","","","","","","","","","","","","","","","","","","","","","","","","",""
"","see_reward","","html-keyboard-response","291","1353003","0.0-260.0","0","0","y72qN","People","","622","","","","32","","4","","33","","","","1","","","","","2","","","","","152","622","","","","","","","","","","","","","","","","","","","","","","","","",""
"","reward_outcome","","html-keyboard-response","292","1355025","0.0-261.0","0","0","y72qN","People","","530","","","","38","","4","","33","","","","","","","","","","","","","","","","1","530","","","","","","","","","","","","","","","","","","","","","","",""
"","fixation","","html-keyboard-response","293","1356042","0.0-264.0","0","0","y72qN","People","","null","","","","null","","","","","","","","","","","","","","","","","","","","","","","","","","","","","","","","","","","","","","","","","","","",""
"","see_reward","","html-keyboard-response","294","1356601","0.0-265.0","0","0","y72qN","People","","553","","","","32","","45","","34","","","","1","","","","","2","","","","","146","553","","","","","","","","","","","","","","","","","","","","","","","","",""
"","reward_outcome","","html-keyboard-response","295","1358625","0.0-266.0","0","0","y72qN","People","","550","","","","38","","45","","34","","","","","","","","","","","","","","","","1","550","","","","","","","","","","","","","","","","","","","","","","",""
"","fixation","","html-keyboard-response","296","1359640","0.0-269.0","0","0","y72qN","People","","null","","","","null","","","","","","","","","","","","","","","","","","","","","","","","","","","","","","","","","","","","","","","","","","","",""
"","see_reward","","html-keyboard-response","297","1360287","0.0-270.0","0","0","y72qN","People","","641","","","","32","","38","","35","","","","-1","","","","","2","","","","","0","641","","","","","","","","","","","","","","","","","","","","","","","","",""
"","reward_outcome","","html-keyboard-response","298","1362306","0.0-271.0","0","0","y72qN","People","","582","","","","40","","38","","35","","","","","","","","","","","","","","","","-1","582","","","","","","","","","","","","","","","","","","","","","","",""
"","fixation","","html-keyboard-response","299","1363323","0.0-274.0","0","0","y72qN","People","","null","","","","null","","","","","","","","","","","","","","","","","","","","","","","","","","","","","","","","","","","","","","","","","","","",""
"","see_reward","","html-keyboard-response","300","1363835","0.0-275.0","0","0","y72qN","People","","506","","","","32","","46","","36","","","","-1","","","","","2","","","","","0","506","","","","","","","","","","","","","","","","","","","","","","","","",""
"","reward_outcome","","html-keyboard-response","301","1365856","0.0-276.0","0","0","y72qN","People","","646","","","","40","","46","","36","","","","","","","","","","","","","","","","-1","646","","","","","","","","","","","","","","","","","","","","","","",""
"","fixation","","html-keyboard-response","302","1366873","0.0-279.0","0","0","y72qN","People","","null","","","","null","","","","","","","","","","","","","","","","","","","","","","","","","","","","","","","","","","","","","","","","","","","",""
"","see_reward","","html-keyboard-response","303","1367355","0.0-280.0","0","0","y72qN","People","","477","","","","32","","45","","37","","","","1","","","","","2","","","","","146","477","","","","","","","","","","","","","","","","","","","","","","","","",""
"","reward_outcome","","html-keyboard-response","304","1369374","0.0-281.0","0","0","y72qN","People","","577","","","","38","","45","","37","","","","","","","","","","","","","","","","1","577","","","","","","","","","","","","","","","","","","","","","","",""
"","fixation","","html-keyboard-response","305","1370389","0.0-284.0","0","0","y72qN","People","","null","","","","null","","","","","","","","","","","","","","","","","","","","","","","","","","","","","","","","","","","","","","","","","","","",""
"","see_reward","","html-keyboard-response","306","1371006","0.0-285.0","0","0","y72qN","People","","612","","","","32","","33","","38","","","","-1","","","","","2","","","","","0","612","","","","","","","","","","","","","","","","","","","","","","","","",""
"","reward_outcome","","html-keyboard-response","307","1373023","0.0-286.0","0","0","y72qN","People","","602","","","","40","","33","","38","","","","","","","","","","","","","","","","-1","602","","","","","","","","","","","","","","","","","","","","","","",""
"","fixation","","html-keyboard-response","308","1374039","0.0-289.0","0","0","y72qN","People","","null","","","","null","","","","","","","","","","","","","","","","","","","","","","","","","","","","","","","","","","","","","","","","","","","",""
"","see_reward","","html-keyboard-response","309","1374425","0.0-290.0","0","0","y72qN","People","","380","","","","32","","47","","39","","","","1","","","","","2","","","","","152","380","","","","","","","","","","","","","","","","","","","","","","","","",""
"","reward_outcome","","html-keyboard-response","310","1376439","0.0-291.0","0","0","y72qN","People","","627","","","","38","","47","","39","","","","","","","","","","","","","","","","1","627","","","","","","","","","","","","","","","","","","","","","","",""
"","fixation","","html-keyboard-response","311","1377456","0.0-294.0","0","0","y72qN","People","","null","","","","null","","","","","","","","","","","","","","","","","","","","","","","","","","","","","","","","","","","","","","","","","","","",""
"","see_reward","","html-keyboard-response","312","1378017","0.0-295.0","0","0","y72qN","People","","556","","","","32","","38","","40","","","","-1","","","","","2","","","","","0","556","","","","","","","","","","","","","","","","","","","","","","","","",""
"","reward_outcome","","html-keyboard-response","313","1380039","0.0-296.0","0","0","y72qN","People","","null","","","","null","","38","","40","","","","","","","","","","","","","","","","NaN","null","","","","","","","","","","","","","","","","","","","","","","",""
"","respond_faster","","html-keyboard-response","314","1381556","0.0-297.0-0.0","1","0","y72qN","People","","null","","","","null","","","","","","","","","","","","","","","","","","","","","","","","","","","","","","","","","","","","","","","","","","","",""
"","fixation","","html-keyboard-response","315","1382573","0.0-299.0","0","0","y72qN","People","","null","","","","null","","","","","","","","","","","","","","","","","","","","","","","","","","","","","","","","","","","","","","","","","","","",""
"","see_reward","","html-keyboard-response","316","1383008","0.0-300.0","0","0","y72qN","People","","429","","","","32","","48","","41","","","","1","","","","","2","","","","","141","429","","","","","","","","","","","","","","","","","","","","","","","","",""
"","reward_outcome","","html-keyboard-response","317","1385025","0.0-301.0","0","0","y72qN","People","","455","","","","38","","48","","41","","","","","","","","","","","","","","","","1","455","","","","","","","","","","","","","","","","","","","","","","",""
"","fixation","","html-keyboard-response","318","1386040","0.0-304.0","0","0","y72qN","People","","null","","","","null","","","","","","","","","","","","","","","","","","","","","","","","","","","","","","","","","","","","","","","","","","","",""
"","see_reward","","html-keyboard-response","319","1386495","0.0-305.0","0","0","y72qN","People","","449","","","","32","","13","","42","","","","1","","","","","2","","","","","150","449","","","","","","","","","","","","","","","","","","","","","","","","",""
"","reward_outcome","","html-keyboard-response","320","1388508","0.0-306.0","0","0","y72qN","People","","742","","","","38","","13","","42","","","","","","","","","","","","","","","","1","742","","","","","","","","","","","","","","","","","","","","","","",""
"","fixation","","html-keyboard-response","321","1389522","0.0-309.0","0","0","y72qN","People","","null","","","","null","","","","","","","","","","","","","","","","","","","","","","","","","","","","","","","","","","","","","","","","","","","",""
"","see_reward","","html-keyboard-response","322","1389844","0.0-310.0","0","0","y72qN","People","","316","","","","32","","46","","43","","","","-1","","","","","2","","","","","0","316","","","","","","","","","","","","","","","","","","","","","","","","",""
"","reward_outcome","","html-keyboard-response","323","1391856","0.0-311.0","0","0","y72qN","People","","504","","","","40","","46","","43","","","","","","","","","","","","","","","","-1","504","","","","","","","","","","","","","","","","","","","","","","",""
"","fixation","","html-keyboard-response","324","1392872","0.0-314.0","0","0","y72qN","People","","null","","","","null","","","","","","","","","","","","","","","","","","","","","","","","","","","","","","","","","","","","","","","","","","","",""
"","see_reward","","html-keyboard-response","325","1393277","0.0-315.0","0","0","y72qN","People","","400","","","","32","","26","","44","","","","-1","","","","","2","","","","","0","400","","","","","","","","","","","","","","","","","","","","","","","","",""
"","reward_outcome","","html-keyboard-response","326","1395305","0.0-316.0","0","0","y72qN","People","","590","","","","40","","26","","44","","","","","","","","","","","","","","","","-1","590","","","","","","","","","","","","","","","","","","","","","","",""
"","fixation","","html-keyboard-response","327","1396321","0.0-319.0","0","0","y72qN","People","","null","","","","null","","","","","","","","","","","","","","","","","","","","","","","","","","","","","","","","","","","","","","","","","","","",""
"","see_reward","","html-keyboard-response","328","1396966","0.0-320.0","0","0","y72qN","People","","639","","","","32","","6","","45","","","","-1","","","","","2","","","","","0","639","","","","","","","","","","","","","","","","","","","","","","","","",""
"","reward_outcome","","html-keyboard-response","329","1398988","0.0-321.0","0","0","y72qN","People","","395","","","","40","","6","","45","","","","","","","","","","","","","","","","-1","395","","","","","","","","","","","","","","","","","","","","","","",""
"","fixation","","html-keyboard-response","330","1400004","0.0-324.0","0","0","y72qN","People","","null","","","","null","","","","","","","","","","","","","","","","","","","","","","","","","","","","","","","","","","","","","","","","","","","",""
"","see_reward","","html-keyboard-response","331","1400552","0.0-325.0","0","0","y72qN","People","","543","","","","32","","13","","46","","","","1","","","","","2","","","","","150","543","","","","","","","","","","","","","","","","","","","","","","","","",""
"","reward_outcome","","html-keyboard-response","332","1402571","0.0-326.0","0","0","y72qN","People","","477","","","","38","","13","","46","","","","","","","","","","","","","","","","1","477","","","","","","","","","","","","","","","","","","","","","","",""
"","fixation","","html-keyboard-response","333","1403589","0.0-329.0","0","0","y72qN","People","","null","","","","null","","","","","","","","","","","","","","","","","","","","","","","","","","","","","","","","","","","","","","","","","","","",""
"","see_reward","","html-keyboard-response","334","1404299","0.0-330.0","0","0","y72qN","People","","705","","","","32","","11","","47","","","","-1","","","","","2","","","","","0","705","","","","","","","","","","","","","","","","","","","","","","","","",""
"","reward_outcome","","html-keyboard-response","335","1406321","0.0-331.0","0","0","y72qN","People","","288","","","","40","","11","","47","","","","","","","","","","","","","","","","-1","288","","","","","","","","","","","","","","","","","","","","","","",""
"","block_over","","html-keyboard-response","336","1408698","0.0-333.0-0.0","0","0","y72qN","People","","2371","","","","78","","","","","","","","","","","","","","","","","","","","","","","","","","","","","","","","","","","","","","","","","","","",""
"","fixation","","html-keyboard-response","337","1409722","0.0-334.0","0","0","y72qN","People","","null","","","","null","","","","","","","","","","","","","","","","","","","","","","","","","","","","","","","","","","","","","","","","","","","",""
"","see_reward","","html-keyboard-response","338","1410438","0.0-335.0","0","0","y72qN","People","","711","","","","32","","33","","48","","","","-1","","","","","3","","","","","0","711","","","","","","","","","","","","","","","","","","","","","","","","",""
"","reward_outcome","","html-keyboard-response","339","1412456","0.0-336.0","0","0","y72qN","People","","301","","","","40","","33","","48","","","","","","","","","","","","","","","","-1","301","","","","","","","","","","","","","","","","","","","","","","",""
"","fixation","","html-keyboard-response","340","1413473","0.0-339.0","0","0","y72qN","People","","null","","","","null","","","","","","","","","","","","","","","","","","","","","","","","","","","","","","","","","","","","","","","","","","","",""
"","see_reward","","html-keyboard-response","341","1413796","0.0-340.0","0","0","y72qN","People","","318","","","","32","","6","","49","","","","-1","","","","","3","","","","","0","318","","","","","","","","","","","","","","","","","","","","","","","","",""
"","reward_outcome","","html-keyboard-response","342","1415807","0.0-341.0","0","0","y72qN","People","","425","","","","40","","6","","49","","","","","","","","","","","","","","","","-1","425","","","","","","","","","","","","","","","","","","","","","","",""
"","fixation","","html-keyboard-response","343","1416824","0.0-344.0","0","0","y72qN","People","","null","","","","null","","","","","","","","","","","","","","","","","","","","","","","","","","","","","","","","","","","","","","","","","","","",""
"","see_reward","","html-keyboard-response","344","1417315","0.0-345.0","0","0","y72qN","People","","484","","","","32","","48","","50","","","","1","","","","","3","","","","","141","484","","","","","","","","","","","","","","","","","","","","","","","","",""
"","reward_outcome","","html-keyboard-response","345","1419339","0.0-346.0","0","0","y72qN","People","","288","","","","38","","48","","50","","","","","","","","","","","","","","","","1","288","","","","","","","","","","","","","","","","","","","","","","",""
"","fixation","","html-keyboard-response","346","1420356","0.0-349.0","0","0","y72qN","People","","null","","","","null","","","","","","","","","","","","","","","","","","","","","","","","","","","","","","","","","","","","","","","","","","","",""
"","see_reward","","html-keyboard-response","347","1420784","0.0-350.0","0","0","y72qN","People","","421","","","","32","","6","","51","","","","-1","","","","","3","","","","","0","421","","","","","","","","","","","","","","","","","","","","","","","","",""
