"success","ttype","start_time","trial_type","trial_index","time_elapsed","internal_node_id","warning","missed_checkup","PID","stim_type","view_history","rt","responses","category","repeat_instructions","key_press","response","stimulus_id","painting","index","stimulus_left","stimulus_right","explain_trial","reward_type","rating_left","rating_right","painting_left","painting_right","block","left_chosen","chosen_obj","unchosen_obj","explain_response","reward_amount","see_reward_rt","register_reward_response","register_reward_rt","deliberation_reward_tally","stimulus_left_deliberation_ind","stimulus_right_deliberation_ind","chosen_trial","gain_left","higher_outcome_chosen","old_pair","chosen_object","rt_pairs","left_object_chosen","rt_object","old_response","new_rating","deliberated_stim","initial_rating","outcome_eval_rt","outcome_eval_response","outcome_eval_gain","outcome_eval_acc","preamble","outcome_eval_confidence","outcome_eval_confidence_rt","total_reward_tally"
"true","full_screen","d01182023hr1400","fullscreen","0","300225","0.0-0.0","0","0","PKUhO","People","","","","","","","","","","","","","","","","","","","","","","","","","","","","","","","","","","","","","","","","","","","","","","","","","",""
"","rating_instructions","","instructions","1","324308","0.0-1.0-0.0","0","0","PKUhO","People","[{""page_index"":0,""viewing_time"":20815},{""page_index"":1,""viewing_time"":3266}]","24081","","","","","","","","","","","","","","","","","","","","","","","","","","","","","","","","","","","","","","","","","","","","","","","",""
"","","","survey-multi-choice","2","332707","0.0-1.0-1.0","0","0","PKUhO","People","","8395","{""Q0"":""True"",""Q1"":""Mouse""}","rating_comprehension_check","0","","","","","","","","","","","","","","","","","","","","","","","","","","","","","","","","","","","","","","","","","","","","",""
"","start_phase","","html-keyboard-response","3","336988","0.0-2.0","0","0","PKUhO","People","","4278","","","","78","","","","","","","","","","","","","","","","","","","","","","","","","","","","","","","","","","","","","","","","","","","",""
"","rating","","html-slider-response","4","343966","0.0-3.0","0","0","PKUhO","People","","6976","","","","","68","11","christian-ferrer-8vT-DgHZDG4-unsplash.jpg","0","","","","","","","","","","","","","","","","","","","","","","","","","","","","","","","","","","","","","","","",""
"","rating","","html-slider-response","5","349037","0.0-4.0","0","0","PKUhO","People","","5061","","","","","71","41","prince-akachi-i2hoD-C2RUA-unsplash.jpg","1","","","","","","","","","","","","","","","","","","","","","","","","","","","","","","","","","","","","","","","",""
"","rating","","html-slider-response","6","355573","0.0-5.0","0","0","PKUhO","People","","6525","","","","","84","17","gleb-lukomets-paBzWCPN23k-unsplash.jpg","2","","","","","","","","","","","","","","","","","","","","","","","","","","","","","","","","","","","","","","","",""
"","rating","","html-slider-response","7","361014","0.0-6.0","0","0","PKUhO","People","","5433","","","","","32","29","leilani-angel-K84vnnzxmTQ-unsplash.jpg","3","","","","","","","","","","","","","","","","","","","","","","","","","","","","","","","","","","","","","","","",""
"","rating","","html-slider-response","8","366168","0.0-7.0","0","0","PKUhO","People","","5151","","","","","13","39","philip-martin-5aGUyCW_PJw-unsplash.jpg","4","","","","","","","","","","","","","","","","","","","","","","","","","","","","","","","","","","","","","","","",""
"","rating","","html-slider-response","9","370262","0.0-8.0","0","0","PKUhO","People","","4092","","","","","16","27","jurica-koletic-7YVZYZeITc8-unsplash.jpg","5","","","","","","","","","","","","","","","","","","","","","","","","","","","","","","","","","","","","","","","",""
"","rating","","html-slider-response","10","373886","0.0-9.0","0","0","PKUhO","People","","3623","","","","","21","48","velizar-ivanov-7ktP9yZA1g4-unsplash.jpg","6","","","","","","","","","","","","","","","","","","","","","","","","","","","","","","","","","","","","","","","",""
"","rating","","html-slider-response","11","379616","0.0-10.0","0","0","PKUhO","People","","5728","","","","","62","36","ospan-ali-mGdA2fzjWLo-unsplash.jpg","7","","","","","","","","","","","","","","","","","","","","","","","","","","","","","","","","","","","","","","","",""
"","rating","","html-slider-response","12","384874","0.0-11.0","0","0","PKUhO","People","","5256","","","","","12","10","charles-etoroma-95UF6LXe-Lo-unsplash.jpg","8","","","","","","","","","","","","","","","","","","","","","","","","","","","","","","","","","","","","","","","",""
"","rating","","html-slider-response","13","390768","0.0-12.0","0","0","PKUhO","People","","5892","","","","","64","12","daniel-rigdon-dXmXKPP2L4E-unsplash.jpg","9","","","","","","","","","","","","","","","","","","","","","","","","","","","","","","","","","","","","","","","",""
"","rating","","html-slider-response","14","395406","0.0-13.0","0","0","PKUhO","People","","4636","","","","","74","24","joel-mott-LaK153ghdig-unsplash.jpg","10","","","","","","","","","","","","","","","","","","","","","","","","","","","","","","","","","","","","","","","",""
"","rating","","html-slider-response","15","400038","0.0-14.0","0","0","PKUhO","People","","4630","","","","","29","44","rikonavt-HQjfrvdTfak-unsplash.jpg","11","","","","","","","","","","","","","","","","","","","","","","","","","","","","","","","","","","","","","","","",""
"","rating","","html-slider-response","16","405052","0.0-15.0","0","0","PKUhO","People","","5012","","","","","55","4","barna-bartis-2x3vfVxwR7o-unsplash.jpg","12","","","","","","","","","","","","","","","","","","","","","","","","","","","","","","","","","","","","","","","",""
"","rating","","html-slider-response","17","410473","0.0-16.0","0","0","PKUhO","People","","5421","","","","","28","3","art-hauntington-jzY0KRJopEI-unsplash.jpg","13","","","","","","","","","","","","","","","","","","","","","","","","","","","","","","","","","","","","","","","",""
"","rating","","html-slider-response","18","413877","0.0-17.0","0","0","PKUhO","People","","3402","","","","","1","32","nathan-dumlao-ger61_TX6oI-unsplash.jpg","14","","","","","","","","","","","","","","","","","","","","","","","","","","","","","","","","","","","","","","","",""
"","rating","","html-slider-response","19","419755","0.0-18.0","0","0","PKUhO","People","","5876","","","","","82","40","prince-akachi-4Yv84VgQkRM-unsplash.jpg","15","","","","","","","","","","","","","","","","","","","","","","","","","","","","","","","","","","","","","","","",""
"","rating","","html-slider-response","20","424634","0.0-19.0","0","0","PKUhO","People","","4877","","","","","16","37","pavel-anoshin-d0peGya6R5Y-unsplash.jpg","16","","","","","","","","","","","","","","","","","","","","","","","","","","","","","","","","","","","","","","","",""
"","rating","","html-slider-response","21","428507","0.0-20.0","0","0","PKUhO","People","","3872","","","","","52","21","jessica-felicio-_cvwXhGqG-o-unsplash.jpg","17","","","","","","","","","","","","","","","","","","","","","","","","","","","","","","","","","","","","","","","",""
"","rating","","html-slider-response","22","434006","0.0-21.0","0","0","PKUhO","People","","5496","","","","","23","15","gabriel-silverio-u3WmDyKGsrY-unsplash.jpg","18","","","","","","","","","","","","","","","","","","","","","","","","","","","","","","","","","","","","","","","",""
"","rating","","html-slider-response","23","442287","0.0-22.0","0","0","PKUhO","People","","8279","","","","","51","35","oliver-ragfelt-khV4fTy6-D8-unsplash.jpg","19","","","","","","","","","","","","","","","","","","","","","","","","","","","","","","","","","","","","","","","",""
"","rating","","html-slider-response","24","448382","0.0-23.0","0","0","PKUhO","People","","6093","","","","","60","5","batel-studio-ttSRjiYG_WM-unsplash.jpg","20","","","","","","","","","","","","","","","","","","","","","","","","","","","","","","","","","","","","","","","",""
"","rating","","html-slider-response","25","453907","0.0-24.0","0","0","PKUhO","People","","5523","","","","","65","26","juri-gianfrancesco-9EZadYaMzk4-unsplash.jpg","21","","","","","","","","","","","","","","","","","","","","","","","","","","","","","","","","","","","","","","","",""
"","rating","","html-slider-response","26","461317","0.0-25.0","0","0","PKUhO","People","","7409","","","","","26","23","joanna-nix-walkup-H4fEMshfwTE-unsplash.jpg","22","","","","","","","","","","","","","","","","","","","","","","","","","","","","","","","","","","","","","","","",""
"","rating","","html-slider-response","27","469648","0.0-26.0","0","0","PKUhO","People","","8325","","","","","9","9","carlos-andres-gomez-vJuk8Y86mRw-unsplash.jpg","23","","","","","","","","","","","","","","","","","","","","","","","","","","","","","","","","","","","","","","","",""
"","rating","","html-slider-response","28","480928","0.0-27.0","0","0","PKUhO","People","","11273","","","","","60","42","prince-akachi-l3IHXOdMyHQ-unsplash.jpg","24","","","","","","","","","","","","","","","","","","","","","","","","","","","","","","","","","","","","","","","",""
"","rating","","html-slider-response","29","490105","0.0-28.0","0","0","PKUhO","People","","9176","","","","","79","45","sarah-noltner-pL5ZzPp1zqg-unsplash.jpg","25","","","","","","","","","","","","","","","","","","","","","","","","","","","","","","","","","","","","","","","",""
"","rating","","html-slider-response","30","499306","0.0-29.0","0","0","PKUhO","People","","9199","","","","","28","2","arjunsyah-TBUA5KHJn6k-unsplash.jpg","26","","","","","","","","","","","","","","","","","","","","","","","","","","","","","","","","","","","","","","","",""
"","rating","","html-slider-response","31","507765","0.0-30.0","0","0","PKUhO","People","","8456","","","","","35","31","mathilda-khoo-vLR0YP_otCo-unsplash.jpg","27","","","","","","","","","","","","","","","","","","","","","","","","","","","","","","","","","","","","","","","",""
"","rating","","html-slider-response","32","513246","0.0-31.0","0","0","PKUhO","People","","5479","","","","","28","0","abstral-official-cyOKLSgkgCE-unsplash.jpg","28","","","","","","","","","","","","","","","","","","","","","","","","","","","","","","","","","","","","","","","",""
"","rating","","html-slider-response","33","519356","0.0-32.0","0","0","PKUhO","People","","6107","","","","","72","25","joseph-gonzalez-iFgRcqHznqg-unsplash.jpg","29","","","","","","","","","","","","","","","","","","","","","","","","","","","","","","","","","","","","","","","",""
"","rating","","html-slider-response","34","524042","0.0-33.0","0","0","PKUhO","People","","4684","","","","","69","7","brooke-cagle-HRZUzoX1e6w-unsplash.jpg","30","","","","","","","","","","","","","","","","","","","","","","","","","","","","","","","","","","","","","","","",""
"","rating","","html-slider-response","35","531187","0.0-34.0","0","0","PKUhO","People","","7144","","","","","29","19","ha-nguy-n-OFSQ6bHjFjs-unsplash.jpg","31","","","","","","","","","","","","","","","","","","","","","","","","","","","","","","","","","","","","","","","",""
"","rating","","html-slider-response","36","538722","0.0-35.0","0","0","PKUhO","People","","7533","","","","","100","28","justin-chen-J7Cf1Gch49E-unsplash.jpg","32","","","","","","","","","","","","","","","","","","","","","","","","","","","","","","","","","","","","","","","",""
"","rating","","html-slider-response","37","544335","0.0-36.0","0","0","PKUhO","People","","5612","","","","","15","38","petr-sevcovic-HzDF-rxlSeM-unsplash.jpg","33","","","","","","","","","","","","","","","","","","","","","","","","","","","","","","","","","","","","","","","",""
"","rating","","html-slider-response","38","550913","0.0-37.0","0","0","PKUhO","People","","6577","","","","","70","16","giano-currie-5-9YOsmf8IQ-unsplash.jpg","34","","","","","","","","","","","","","","","","","","","","","","","","","","","","","","","","","","","","","","","",""
"","rating","","html-slider-response","39","556088","0.0-38.0","0","0","PKUhO","People","","5173","","","","","72","43","raamin-ka-0qJBEzudn5E-unsplash.jpg","35","","","","","","","","","","","","","","","","","","","","","","","","","","","","","","","","","","","","","","","",""
"","rating","","html-slider-response","40","565262","0.0-39.0","0","0","PKUhO","People","","9172","","","","","79","46","stefan-stefancik-QXevDflbl8A-unsplash.jpg","36","","","","","","","","","","","","","","","","","","","","","","","","","","","","","","","","","","","","","","","",""
"","rating","","html-slider-response","41","573748","0.0-40.0","0","0","PKUhO","People","","8484","","","","","50","6","ben-o-bro-C5XyLljkMrY-unsplash.jpg","37","","","","","","","","","","","","","","","","","","","","","","","","","","","","","","","","","","","","","","","",""
"","rating","","html-slider-response","42","580946","0.0-41.0","0","0","PKUhO","People","","7196","","","","","56","14","freddy-kearney-o-ioeoATbIM-unsplash.jpg","38","","","","","","","","","","","","","","","","","","","","","","","","","","","","","","","","","","","","","","","",""
"","rating","","html-slider-response","43","597879","0.0-42.0","0","0","PKUhO","People","","16930","","","","","15","13","erik-lucatero-d2MSDujJl2g-unsplash.jpg","39","","","","","","","","","","","","","","","","","","","","","","","","","","","","","","","","","","","","","","","",""
"","rating","","html-slider-response","44","605649","0.0-43.0","0","0","PKUhO","People","","7768","","","","","45","33","olena-sergienko-0TSd6uCKTKc-unsplash.jpg","40","","","","","","","","","","","","","","","","","","","","","","","","","","","","","","","","","","","","","","","",""
"","rating","","html-slider-response","45","611759","0.0-44.0","0","0","PKUhO","People","","6108","","","","","55","34","oliver-johnson-1TUIcKob7Zs-unsplash.jpg","41","","","","","","","","","","","","","","","","","","","","","","","","","","","","","","","","","","","","","","","",""
"","rating","","html-slider-response","46","620023","0.0-45.0","0","0","PKUhO","People","","8262","","","","","58","1","aiony-haust-jmATI5Q_YgY-unsplash.jpg","42","","","","","","","","","","","","","","","","","","","","","","","","","","","","","","","","","","","","","","","",""
"","rating","","html-slider-response","47","626794","0.0-46.0","0","0","PKUhO","People","","6768","","","","","83","18","good-faces-xmSWVeGEnJw-unsplash.jpg","43","","","","","","","","","","","","","","","","","","","","","","","","","","","","","","","","","","","","","","","",""
"","rating","","html-slider-response","48","633368","0.0-47.0","0","0","PKUhO","People","","6572","","","","","82","20","houcine-ncib-B4TjXnI0Y2c-unsplash.jpg","44","","","","","","","","","","","","","","","","","","","","","","","","","","","","","","","","","","","","","","","",""
"","rating","","html-slider-response","49","638869","0.0-48.0","0","0","PKUhO","People","","5498","","","","","59","47","tyler-nix-ZGa9d1a_4tA-unsplash.jpg","45","","","","","","","","","","","","","","","","","","","","","","","","","","","","","","","","","","","","","","","",""
"","rating","","html-slider-response","50","644005","0.0-49.0","0","0","PKUhO","People","","5134","","","","","72","49","vicky-hladynets-_gDoyVv5F4c-unsplash.jpg","46","","","","","","","","","","","","","","","","","","","","","","","","","","","","","","","","","","","","","","","",""
"","rating","","html-slider-response","51","649824","0.0-50.0","0","0","PKUhO","People","","5817","","","","","28","22","jessica-radanavong-mrYkTuAesKE-unsplash.jpg","47","","","","","","","","","","","","","","","","","","","","","","","","","","","","","","","","","","","","","","","",""
"","rating","","html-slider-response","52","663061","0.0-51.0","0","0","PKUhO","People","","13234","","","","","78","30","matheus-ferrero-pg_WCHWSdT8-unsplash.jpg","48","","","","","","","","","","","","","","","","","","","","","","","","","","","","","","","","","","","","","","","",""
"","rating","","html-slider-response","53","672960","0.0-52.0","0","0","PKUhO","People","","9896","","","","","53","8","bruce-dixon-3M9WJQVHzog-unsplash.jpg","49","","","","","","","","","","","","","","","","","","","","","","","","","","","","","","","","","","","","","","","",""
"","deliberation_instructions","","instructions","54","995910","0.0-53.0-0.0","0","0","PKUhO","People","[{""page_index"":0,""viewing_time"":200876},{""page_index"":1,""viewing_time"":41739},{""page_index"":2,""viewing_time"":31059},{""page_index"":3,""viewing_time"":44650},{""page_index"":4,""viewing_time"":4619}]","322944","","","","","","","","","","","","","","","","","","","","","","","","","","","","","","","","","","","","","","","","","","","","","","","",""
"","","","survey-multi-choice","55","1023948","0.0-53.0-1.0","0","0","PKUhO","People","","28031","{""Q0"":""True"",""Q1"":""True"",""Q2"":""Consider carefully and take your time (up to 10 seconds)"",""Q3"":""True"",""Q4"":""D""}","deliberation_comprehension_check","0","","","","","","","","","","","","","","","","","","","","","","","","","","","","","","","","","","","","","","","","","","","","",""
"","start_phase","","html-keyboard-response","56","1028129","0.0-54.0","0","0","PKUhO","People","","4179","","","","78","","","","","","","","","","","","","","","","","","","","","","","","","","","","","","","","","","","","","","","","","","","",""
"","first_deliberation_block","","html-keyboard-response","57","1036347","0.0-55.0","0","0","PKUhO","People","","8217","","","","78","","","","","","","","","","","","","","","","","","","","","","","","","","","","","","","","","","","","","","","","","","","",""
"","fixation","","html-keyboard-response","58","1037361","0.0-56.0-0.0","0","0","PKUhO","People","","null","","","","null","","","","","","","","","","","","","","","","","","","","","","","","","","","","","","","","","","","","","","","","","","","",""
"","deliberation","","html-keyboard-response","59","1040905","0.0-56.0-1.0","0","0","PKUhO","People","","3542","","","","75","","","","0","12","14","1","-1","64","56","daniel-rigdon-dXmXKPP2L4E-unsplash.jpg","freddy-kearney-o-ioeoATbIM-unsplash.jpg","1","0","14","12","","","","","","","","","","","","","","","","","","","","","","","","","","","",""
"","choice_confirmation","","html-keyboard-response","60","1041410","0.0-56.0-2.0-0.0","0","0","PKUhO","People","","null","","","","null","","","","0","12","14","","","","","","","","","","","","","","","","","","","","","","","","","","","","","","","","","","","","","",""
"","explain_trial","","survey-text","61","1123263","0.0-56.0-5.0-0.0","0","0","PKUhO","People","","81851","{""Q0"":""Old man in the picture has some symbolic aspect to it plus more feeling can be depicted from the picture.""}","","","","","","","0","12","14","","","","","","","","","","","{""Q0"":""Old man in the picture has some symbolic aspect to it plus more feeling can be depicted from the picture.""}","","","","","","","","","","","","","","","","","","","","","","","","","","",""
"","fixation","","html-keyboard-response","62","1124276","0.0-57.0-0.0","0","0","PKUhO","People","","null","","","","null","","","","","","","","","","","","","","","","","","","","","","","","","","","","","","","","","","","","","","","","","","","",""
"","deliberation","","html-keyboard-response","63","1126258","0.0-57.0-1.0","0","0","PKUhO","People","","1980","","","","68","","","","1","7","1","0","1","69","58","brooke-cagle-HRZUzoX1e6w-unsplash.jpg","aiony-haust-jmATI5Q_YgY-unsplash.jpg","1","1","7","1","","","","","","","","","","","","","","","","","","","","","","","","","","","",""
"","choice_confirmation","","html-keyboard-response","64","1126768","0.0-57.0-2.0-0.0","0","0","PKUhO","People","","null","","","","null","","","","1","7","1","","","","","","","","","","","","","","","","","","","","","","","","","","","","","","","","","","","","","",""
"","fixation","","html-keyboard-response","65","1127777","0.0-58.0-0.0","0","0","PKUhO","People","","null","","","","null","","","","","","","","","","","","","","","","","","","","","","","","","","","","","","","","","","","","","","","","","","","",""
"","deliberation","","html-keyboard-response","66","1129983","0.0-58.0-1.0","0","0","PKUhO","People","","2204","","","","68","","","","2","31","42","0","-1","35","60","mathilda-khoo-vLR0YP_otCo-unsplash.jpg","prince-akachi-l3IHXOdMyHQ-unsplash.jpg","1","1","31","42","","","","","","","","","","","","","","","","","","","","","","","","","","","",""
"","choice_confirmation","","html-keyboard-response","67","1130493","0.0-58.0-2.0-0.0","0","0","PKUhO","People","","null","","","","null","","","","2","31","42","","","","","","","","","","","","","","","","","","","","","","","","","","","","","","","","","","","","","",""
"","fixation","","html-keyboard-response","68","1131504","0.0-59.0-0.0","0","0","PKUhO","People","","null","","","","null","","","","","","","","","","","","","","","","","","","","","","","","","","","","","","","","","","","","","","","","","","","",""
"","deliberation","","html-keyboard-response","69","1133468","0.0-59.0-1.0","0","0","PKUhO","People","","1962","","","","75","","","","3","35","11","1","1","51","68","oliver-ragfelt-khV4fTy6-D8-unsplash.jpg","christian-ferrer-8vT-DgHZDG4-unsplash.jpg","1","0","11","35","","","","","","","","","","","","","","","","","","","","","","","","","","","",""
"","choice_confirmation","","html-keyboard-response","70","1133975","0.0-59.0-2.0-0.0","0","0","PKUhO","People","","null","","","","null","","","","3","35","11","","","","","","","","","","","","","","","","","","","","","","","","","","","","","","","","","","","","","",""
"","explain_trial","","survey-text","71","1186454","0.0-59.0-5.0-0.0","0","0","PKUhO","People","","52478","{""Q0"":""I love how the red background coincides with the head gear she has on her.""}","","","","","","","3","35","11","","","","","","","","","","","{""Q0"":""I love how the red background coincides with the head gear she has on her.""}","","","","","","","","","","","","","","","","","","","","","","","","","","",""
"","fixation","","html-keyboard-response","72","1187472","0.0-60.0-0.0","0","0","PKUhO","People","","null","","","","null","","","","","","","","","","","","","","","","","","","","","","","","","","","","","","","","","","","","","","","","","","","",""
"","deliberation","","html-keyboard-response","73","1188926","0.0-60.0-1.0","0","0","PKUhO","People","","1451","","","","75","","","","4","29","26","0","-1","32","65","leilani-angel-K84vnnzxmTQ-unsplash.jpg","juri-gianfrancesco-9EZadYaMzk4-unsplash.jpg","1","0","26","29","","","","","","","","","","","","","","","","","","","","","","","","","","","",""
"","choice_confirmation","","html-keyboard-response","74","1189432","0.0-60.0-2.0-0.0","0","0","PKUhO","People","","null","","","","null","","","","4","29","26","","","","","","","","","","","","","","","","","","","","","","","","","","","","","","","","","","","","","",""
"","fixation","","html-keyboard-response","75","1190441","0.0-61.0-0.0","0","0","PKUhO","People","","null","","","","null","","","","","","","","","","","","","","","","","","","","","","","","","","","","","","","","","","","","","","","","","","","",""
"","deliberation","","html-keyboard-response","76","1192185","0.0-61.0-1.0","0","0","PKUhO","People","","1742","","","","68","","","","5","4","44","1","1","55","29","barna-bartis-2x3vfVxwR7o-unsplash.jpg","rikonavt-HQjfrvdTfak-unsplash.jpg","1","1","4","44","","","","","","","","","","","","","","","","","","","","","","","","","","","",""
"","choice_confirmation","","html-keyboard-response","77","1192708","0.0-61.0-2.0-0.0","0","0","PKUhO","People","","null","","","","null","","","","5","4","44","","","","","","","","","","","","","","","","","","","","","","","","","","","","","","","","","","","","","",""
"","explain_trial","","survey-text","78","1228936","0.0-61.0-5.0-0.0","0","0","PKUhO","People","","36225","{""Q0"":""The facial features shout out a lot especially because of the dark black background.""}","","","","","","","5","4","44","","","","","","","","","","","{""Q0"":""The facial features shout out a lot especially because of the dark black background.""}","","","","","","","","","","","","","","","","","","","","","","","","","","",""
"","fixation","","html-keyboard-response","79","1229954","0.0-62.0-0.0","0","0","PKUhO","People","","null","","","","null","","","","","","","","","","","","","","","","","","","","","","","","","","","","","","","","","","","","","","","","","","","",""
"","deliberation","","html-keyboard-response","80","1231884","0.0-62.0-1.0","0","0","PKUhO","People","","1927","","","","75","","","","6","6","5","0","-1","50","60","ben-o-bro-C5XyLljkMrY-unsplash.jpg","batel-studio-ttSRjiYG_WM-unsplash.jpg","1","0","5","6","","","","","","","","","","","","","","","","","","","","","","","","","","","",""
"","choice_confirmation","","html-keyboard-response","81","1232416","0.0-62.0-2.0-0.0","0","0","PKUhO","People","","null","","","","null","","","","6","6","5","","","","","","","","","","","","","","","","","","","","","","","","","","","","","","","","","","","","","",""
"","fixation","","html-keyboard-response","82","1233426","0.0-63.0-0.0","0","0","PKUhO","People","","null","","","","null","","","","","","","","","","","","","","","","","","","","","","","","","","","","","","","","","","","","","","","","","","","",""
"","deliberation","","html-keyboard-response","83","1234884","0.0-63.0-1.0","0","0","PKUhO","People","","1455","","","","75","","","","7","34","36","1","-1","55","62","oliver-johnson-1TUIcKob7Zs-unsplash.jpg","ospan-ali-mGdA2fzjWLo-unsplash.jpg","1","0","36","34","","","","","","","","","","","","","","","","","","","","","","","","","","","",""
"","choice_confirmation","","html-keyboard-response","84","1235400","0.0-63.0-2.0-0.0","0","0","PKUhO","People","","null","","","","null","","","","7","34","36","","","","","","","","","","","","","","","","","","","","","","","","","","","","","","","","","","","","","",""
"","explain_trial","","survey-text","85","1304147","0.0-63.0-5.0-0.0","0","0","PKUhO","People","","68745","{""Q0"":""I love to see more to a picture other than the facial representation. The type of clothing and necklace reflects upon an interesting culture.""}","","","","","","","7","34","36","","","","","","","","","","","{""Q0"":""I love to see more to a picture other than the facial representation. The type of clothing and necklace reflects upon an interesting culture.""}","","","","","","","","","","","","","","","","","","","","","","","","","","",""
"","fixation","","html-keyboard-response","86","1305163","0.0-64.0-0.0","0","0","PKUhO","People","","null","","","","null","","","","","","","","","","","","","","","","","","","","","","","","","","","","","","","","","","","","","","","","","","","",""
"","deliberation","","html-keyboard-response","87","1306376","0.0-64.0-1.0","0","0","PKUhO","People","","1212","","","","75","","","","8","47","8","0","1","59","53","tyler-nix-ZGa9d1a_4tA-unsplash.jpg","bruce-dixon-3M9WJQVHzog-unsplash.jpg","1","0","8","47","","","","","","","","","","","","","","","","","","","","","","","","","","","",""
"","choice_confirmation","","html-keyboard-response","88","1306889","0.0-64.0-2.0-0.0","0","0","PKUhO","People","","null","","","","null","","","","8","47","8","","","","","","","","","","","","","","","","","","","","","","","","","","","","","","","","","","","","","",""
"","fixation","","html-keyboard-response","89","1307894","0.0-65.0-0.0","0","0","PKUhO","People","","null","","","","null","","","","","","","","","","","","","","","","","","","","","","","","","","","","","","","","","","","","","","","","","","","",""
"","deliberation","","html-keyboard-response","90","1309380","0.0-65.0-1.0","0","0","PKUhO","People","","1483","","","","68","","","","9","22","19","1","-1","28","29","jessica-radanavong-mrYkTuAesKE-unsplash.jpg","ha-nguy-n-OFSQ6bHjFjs-unsplash.jpg","1","1","22","19","","","","","","","","","","","","","","","","","","","","","","","","","","","",""
"","choice_confirmation","","html-keyboard-response","91","1309887","0.0-65.0-2.0-0.0","0","0","PKUhO","People","","null","","","","null","","","","9","22","19","","","","","","","","","","","","","","","","","","","","","","","","","","","","","","","","","","","","","",""
"","explain_trial","","survey-text","92","1370039","0.0-65.0-5.0-0.0","0","0","PKUhO","People","","60150","{""Q0"":""He has a gangster look to him and the background for me is more appealing compared to the other picture.""}","","","","","","","9","22","19","","","","","","","","","","","{""Q0"":""He has a gangster look to him and the background for me is more appealing compared to the other picture.""}","","","","","","","","","","","","","","","","","","","","","","","","","","",""
"","fixation","","html-keyboard-response","93","1371050","0.0-66.0-0.0","0","0","PKUhO","People","","null","","","","null","","","","","","","","","","","","","","","","","","","","","","","","","","","","","","","","","","","","","","","","","","","",""
"","deliberation","","html-keyboard-response","94","1372745","0.0-66.0-1.0","0","0","PKUhO","People","","1694","","","","75","","","","10","16","0","0","1","70","28","giano-currie-5-9YOsmf8IQ-unsplash.jpg","abstral-official-cyOKLSgkgCE-unsplash.jpg","1","0","0","16","","","","","","","","","","","","","","","","","","","","","","","","","","","",""
"","choice_confirmation","","html-keyboard-response","95","1373258","0.0-66.0-2.0-0.0","0","0","PKUhO","People","","null","","","","null","","","","10","16","0","","","","","","","","","","","","","","","","","","","","","","","","","","","","","","","","","","","","","",""
"","fixation","","html-keyboard-response","96","1374266","0.0-67.0-0.0","0","0","PKUhO","People","","null","","","","null","","","","","","","","","","","","","","","","","","","","","","","","","","","","","","","","","","","","","","","","","","","",""
"","deliberation","","html-keyboard-response","97","1375757","0.0-67.0-1.0","0","0","PKUhO","People","","1489","","","","75","","","","11","21","33","1","1","52","45","jessica-felicio-_cvwXhGqG-o-unsplash.jpg","olena-sergienko-0TSd6uCKTKc-unsplash.jpg","1","0","33","21","","","","","","","","","","","","","","","","","","","","","","","","","","","",""
"","choice_confirmation","","html-keyboard-response","98","1376269","0.0-67.0-2.0-0.0","0","0","PKUhO","People","","null","","","","null","","","","11","21","33","","","","","","","","","","","","","","","","","","","","","","","","","","","","","","","","","","","","","",""
"","explain_trial","","survey-text","99","1430967","0.0-67.0-5.0-0.0","0","0","PKUhO","People","","54696","{""Q0"":""The female depicted in the picture has an innocent look to her, the gaze in her eyes is one that you could look at and dive into thoughts.""}","","","","","","","11","21","33","","","","","","","","","","","{""Q0"":""The female depicted in the picture has an innocent look to her, the gaze in her eyes is one that you could look at and dive into thoughts.""}","","","","","","","","","","","","","","","","","","","","","","","","","","",""
"","practice_deliberation_again","","html-keyboard-response","100","1440465","0.0-67.0-6.0-0.0","0","0","PKUhO","People","","9496","","","","78","","","","","","","","","","","","","","","","","","","","","","","","","","","","","","","","","","","","","","","","","","","",""
"","fixation","","html-keyboard-response","101","1441482","0.0-68.0-0.0","0","0","PKUhO","People","","null","","","","null","","","","","","","","","","","","","","","","","","","","","","","","","","","","","","","","","","","","","","","","","","","",""
"","deliberation","","html-keyboard-response","102","1443192","0.0-68.0-1.0","0","0","PKUhO","People","","1708","","","","75","","","","12","16","0","1","1","70","28","giano-currie-5-9YOsmf8IQ-unsplash.jpg","abstral-official-cyOKLSgkgCE-unsplash.jpg","2","0","0","16","","","","","","","","","","","","","","","","","","","","","","","","","","","",""
"","choice_confirmation","","html-keyboard-response","103","1443694","0.0-68.0-2.0-0.0","0","0","PKUhO","People","","null","","","","null","","","","12","16","0","","","","","","","","","","","","","","","","","","","","","","","","","","","","","","","","","","","","","",""
"","explain_trial","","survey-text","104","1527057","0.0-68.0-5.0-0.0","0","0","PKUhO","People","","83361","{""Q0"":""There is more thoughts and emotions that go into looking at the face and sunken eyes of an old man who has lived a good life and has gone through a lot of things during that period.""}","","","","","","","12","16","0","","","","","","","","","","","{""Q0"":""There is more thoughts and emotions that go into looking at the face and sunken eyes of an old man who has lived a good life and has gone through a lot of things during that period.""}","","","","","","","","","","","","","","","","","","","","","","","","","","",""
"","fixation","","html-keyboard-response","105","1528069","0.0-69.0-0.0","0","0","PKUhO","People","","null","","","","null","","","","","","","","","","","","","","","","","","","","","","","","","","","","","","","","","","","","","","","","","","","",""
"","deliberation","","html-keyboard-response","106","1529693","0.0-69.0-1.0","0","0","PKUhO","People","","1622","","","","75","","","","13","47","8","1","1","59","53","tyler-nix-ZGa9d1a_4tA-unsplash.jpg","bruce-dixon-3M9WJQVHzog-unsplash.jpg","2","0","8","47","","","","","","","","","","","","","","","","","","","","","","","","","","","",""
"","choice_confirmation","","html-keyboard-response","107","1530197","0.0-69.0-2.0-0.0","0","0","PKUhO","People","","null","","","","null","","","","13","47","8","","","","","","","","","","","","","","","","","","","","","","","","","","","","","","","","","","","","","",""
"","explain_trial","","survey-text","108","1597695","0.0-69.0-5.0-0.0","0","0","PKUhO","People","","67495","{""Q0"":""I love the cool dark seat setting in the background and how the person in the photo gels well with it.""}","","","","","","","13","47","8","","","","","","","","","","","{""Q0"":""I love the cool dark seat setting in the background and how the person in the photo gels well with it.""}","","","","","","","","","","","","","","","","","","","","","","","","","","",""
"","fixation","","html-keyboard-response","109","1598710","0.0-70.0-0.0","0","0","PKUhO","People","","null","","","","null","","","","","","","","","","","","","","","","","","","","","","","","","","","","","","","","","","","","","","","","","","","",""
"","deliberation","","html-keyboard-response","110","1600066","0.0-70.0-1.0","0","0","PKUhO","People","","1354","","","","68","","","","14","22","19","0","-1","28","29","jessica-radanavong-mrYkTuAesKE-unsplash.jpg","ha-nguy-n-OFSQ6bHjFjs-unsplash.jpg","2","1","22","19","","","","","","","","","","","","","","","","","","","","","","","","","","","",""
"","choice_confirmation","","html-keyboard-response","111","1600574","0.0-70.0-2.0-0.0","0","0","PKUhO","People","","null","","","","null","","","","14","22","19","","","","","","","","","","","","","","","","","","","","","","","","","","","","","","","","","","","","","",""
"","fixation","","html-keyboard-response","112","1601584","0.0-71.0-0.0","0","0","PKUhO","People","","null","","","","null","","","","","","","","","","","","","","","","","","","","","","","","","","","","","","","","","","","","","","","","","","","",""
"","deliberation","","html-keyboard-response","113","1602993","0.0-71.0-1.0","0","0","PKUhO","People","","1407","","","","75","","","","15","12","14","0","-1","64","56","daniel-rigdon-dXmXKPP2L4E-unsplash.jpg","freddy-kearney-o-ioeoATbIM-unsplash.jpg","2","0","14","12","","","","","","","","","","","","","","","","","","","","","","","","","","","",""
"","choice_confirmation","","html-keyboard-response","114","1603498","0.0-71.0-2.0-0.0","0","0","PKUhO","People","","null","","","","null","","","","15","12","14","","","","","","","","","","","","","","","","","","","","","","","","","","","","","","","","","","","","","",""
"","fixation","","html-keyboard-response","115","1604508","0.0-72.0-0.0","0","0","PKUhO","People","","null","","","","null","","","","","","","","","","","","","","","","","","","","","","","","","","","","","","","","","","","","","","","","","","","",""
"","deliberation","","html-keyboard-response","116","1605739","0.0-72.0-1.0","0","0","PKUhO","People","","1229","","","","68","","","","16","4","44","0","1","55","29","barna-bartis-2x3vfVxwR7o-unsplash.jpg","rikonavt-HQjfrvdTfak-unsplash.jpg","2","1","4","44","","","","","","","","","","","","","","","","","","","","","","","","","","","",""
"","choice_confirmation","","html-keyboard-response","117","1606250","0.0-72.0-2.0-0.0","0","0","PKUhO","People","","null","","","","null","","","","16","4","44","","","","","","","","","","","","","","","","","","","","","","","","","","","","","","","","","","","","","",""
"","fixation","","html-keyboard-response","118","1607257","0.0-73.0-0.0","0","0","PKUhO","People","","null","","","","null","","","","","","","","","","","","","","","","","","","","","","","","","","","","","","","","","","","","","","","","","","","",""
"","deliberation","","html-keyboard-response","119","1608416","0.0-73.0-1.0","0","0","PKUhO","People","","1157","","","","75","","","","17","35","11","0","1","51","68","oliver-ragfelt-khV4fTy6-D8-unsplash.jpg","christian-ferrer-8vT-DgHZDG4-unsplash.jpg","2","0","11","35","","","","","","","","","","","","","","","","","","","","","","","","","","","",""
"","choice_confirmation","","html-keyboard-response","120","1608921","0.0-73.0-2.0-0.0","0","0","PKUhO","People","","null","","","","null","","","","17","35","11","","","","","","","","","","","","","","","","","","","","","","","","","","","","","","","","","","","","","",""
"","fixation","","html-keyboard-response","121","1609941","0.0-74.0-0.0","0","0","PKUhO","People","","null","","","","null","","","","","","","","","","","","","","","","","","","","","","","","","","","","","","","","","","","","","","","","","","","",""
"","deliberation","","html-keyboard-response","122","1611504","0.0-74.0-1.0","0","0","PKUhO","People","","1562","","","","75","","","","18","6","5","1","-1","50","60","ben-o-bro-C5XyLljkMrY-unsplash.jpg","batel-studio-ttSRjiYG_WM-unsplash.jpg","2","0","5","6","","","","","","","","","","","","","","","","","","","","","","","","","","","",""
"","choice_confirmation","","html-keyboard-response","123","1612018","0.0-74.0-2.0-0.0","0","0","PKUhO","People","","null","","","","null","","","","18","6","5","","","","","","","","","","","","","","","","","","","","","","","","","","","","","","","","","","","","","",""
"","explain_trial","","survey-text","124","1668669","0.0-74.0-5.0-0.0","0","0","PKUhO","People","","56648","{""Q0"":""The authentic smile and how whatever she has on mixes well the the color background.""}","","","","","","","18","6","5","","","","","","","","","","","{""Q0"":""The authentic smile and how whatever she has on mixes well the the color background.""}","","","","","","","","","","","","","","","","","","","","","","","","","","",""
"","fixation","","html-keyboard-response","125","1669678","0.0-75.0-0.0","0","0","PKUhO","People","","null","","","","null","","","","","","","","","","","","","","","","","","","","","","","","","","","","","","","","","","","","","","","","","","","",""
"","deliberation","","html-keyboard-response","126","1670686","0.0-75.0-1.0","0","0","PKUhO","People","","1006","","","","75","","","","19","29","26","1","-1","32","65","leilani-angel-K84vnnzxmTQ-unsplash.jpg","juri-gianfrancesco-9EZadYaMzk4-unsplash.jpg","2","0","26","29","","","","","","","","","","","","","","","","","","","","","","","","","","","",""
"","choice_confirmation","","html-keyboard-response","127","1671190","0.0-75.0-2.0-0.0","0","0","PKUhO","People","","null","","","","null","","","","19","29","26","","","","","","","","","","","","","","","","","","","","","","","","","","","","","","","","","","","","","",""
"","explain_trial","","survey-text","128","1745572","0.0-75.0-5.0-0.0","0","0","PKUhO","People","","74380","{""Q0"":""I love how the photo depicts a dude interacting with nature reaching out touching the plant and how his hair nicely falls by his side.""}","","","","","","","19","29","26","","","","","","","","","","","{""Q0"":""I love how the photo depicts a dude interacting with nature reaching out touching the plant and how his hair nicely falls by his side.""}","","","","","","","","","","","","","","","","","","","","","","","","","","",""
"","fixation","","html-keyboard-response","129","1746589","0.0-76.0-0.0","0","0","PKUhO","People","","null","","","","null","","","","","","","","","","","","","","","","","","","","","","","","","","","","","","","","","","","","","","","","","","","",""
"","deliberation","","html-keyboard-response","130","1747905","0.0-76.0-1.0","0","0","PKUhO","People","","1314","","","","68","","","","20","7","1","1","1","69","58","brooke-cagle-HRZUzoX1e6w-unsplash.jpg","aiony-haust-jmATI5Q_YgY-unsplash.jpg","2","1","7","1","","","","","","","","","","","","","","","","","","","","","","","","","","","",""
"","choice_confirmation","","html-keyboard-response","131","1748427","0.0-76.0-2.0-0.0","0","0","PKUhO","People","","null","","","","null","","","","20","7","1","","","","","","","","","","","","","","","","","","","","","","","","","","","","","","","","","","","","","",""
"","explain_trial","","survey-text","132","1808564","0.0-76.0-5.0-0.0","0","0","PKUhO","People","","60135","{""Q0"":""A moment captured of genuine happiness and a smile that speaks a thousand words.""}","","","","","","","20","7","1","","","","","","","","","","","{""Q0"":""A moment captured of genuine happiness and a smile that speaks a thousand words.""}","","","","","","","","","","","","","","","","","","","","","","","","","","",""
"","fixation","","html-keyboard-response","133","1809573","0.0-77.0-0.0","0","0","PKUhO","People","","null","","","","null","","","","","","","","","","","","","","","","","","","","","","","","","","","","","","","","","","","","","","","","","","","",""
"","deliberation","","html-keyboard-response","134","1810697","0.0-77.0-1.0","0","0","PKUhO","People","","1122","","","","68","","","","21","31","42","1","-1","35","60","mathilda-khoo-vLR0YP_otCo-unsplash.jpg","prince-akachi-l3IHXOdMyHQ-unsplash.jpg","2","1","31","42","","","","","","","","","","","","","","","","","","","","","","","","","","","",""
"","choice_confirmation","","html-keyboard-response","135","1811206","0.0-77.0-2.0-0.0","0","0","PKUhO","People","","null","","","","null","","","","21","31","42","","","","","","","","","","","","","","","","","","","","","","","","","","","","","","","","","","","","","",""
"","explain_trial","","survey-text","136","1868178","0.0-77.0-5.0-0.0","0","0","PKUhO","People","","56970","{""Q0"":""A sense of hope after years of suffering was what I felt while looking at this picture hence sure a lot of people will feel the same.""}","","","","","","","21","31","42","","","","","","","","","","","{""Q0"":""A sense of hope after years of suffering was what I felt while looking at this picture hence sure a lot of people will feel the same.""}","","","","","","","","","","","","","","","","","","","","","","","","","","",""
"","fixation","","html-keyboard-response","137","1869194","0.0-78.0-0.0","0","0","PKUhO","People","","null","","","","null","","","","","","","","","","","","","","","","","","","","","","","","","","","","","","","","","","","","","","","","","","","",""
"","deliberation","","html-keyboard-response","138","1870216","0.0-78.0-1.0","0","0","PKUhO","People","","1020","","","","75","","","","22","21","33","0","1","52","45","jessica-felicio-_cvwXhGqG-o-unsplash.jpg","olena-sergienko-0TSd6uCKTKc-unsplash.jpg","2","0","33","21","","","","","","","","","","","","","","","","","","","","","","","","","","","",""
"","choice_confirmation","","html-keyboard-response","139","1870725","0.0-78.0-2.0-0.0","0","0","PKUhO","People","","null","","","","null","","","","22","21","33","","","","","","","","","","","","","","","","","","","","","","","","","","","","","","","","","","","","","",""
"","fixation","","html-keyboard-response","140","1871735","0.0-79.0-0.0","0","0","PKUhO","People","","null","","","","null","","","","","","","","","","","","","","","","","","","","","","","","","","","","","","","","","","","","","","","","","","","",""
"","deliberation","","html-keyboard-response","141","1872673","0.0-79.0-1.0","0","0","PKUhO","People","","937","","","","75","","","","23","34","36","0","-1","55","62","oliver-johnson-1TUIcKob7Zs-unsplash.jpg","ospan-ali-mGdA2fzjWLo-unsplash.jpg","2","0","36","34","","","","","","","","","","","","","","","","","","","","","","","","","","","",""
"","choice_confirmation","","html-keyboard-response","142","1873185","0.0-79.0-2.0-0.0","0","0","PKUhO","People","","null","","","","null","","","","23","34","36","","","","","","","","","","","","","","","","","","","","","","","","","","","","","","","","","","","","","",""
"","start_critical_deliberation_block","","html-keyboard-response","143","1879542","0.0-79.0-7.0-0.0","0","0","PKUhO","People","","6356","","","","78","","","","","","","","","","","","","","","","","","","","","","","","","","","","","","","","","","","","","","","","","","","",""
"","fixation","","html-keyboard-response","144","1880554","0.0-80.0-0.0","0","0","PKUhO","People","","null","","","","null","","","","","","","","","","","","","","","","","","","","","","","","","","","","","","","","","","","","","","","","","","","",""
"","deliberation","","html-keyboard-response","145","1881427","0.0-80.0-1.0","0","0","PKUhO","People","","870","","","","75","","","","24","16","0","0","1","70","28","giano-currie-5-9YOsmf8IQ-unsplash.jpg","abstral-official-cyOKLSgkgCE-unsplash.jpg","3","0","0","16","","","","","","","","","","","","","","","","","","","","","","","","","","","",""
"","choice_confirmation","","html-keyboard-response","146","1881937","0.0-80.0-2.0-0.0","0","0","PKUhO","People","","null","","","","null","","","","24","16","0","","","","","","","","","","","","","","","","","","","","","","","","","","","","","","","","","","","","","",""
"","fixation","","html-keyboard-response","147","1882944","0.0-81.0-0.0","0","0","PKUhO","People","","null","","","","null","","","","","","","","","","","","","","","","","","","","","","","","","","","","","","","","","","","","","","","","","","","",""
"","deliberation","","html-keyboard-response","148","1884136","0.0-81.0-1.0","0","0","PKUhO","People","","1190","","","","68","","","","25","4","44","0","1","55","29","barna-bartis-2x3vfVxwR7o-unsplash.jpg","rikonavt-HQjfrvdTfak-unsplash.jpg","3","1","4","44","","","","","","","","","","","","","","","","","","","","","","","","","","","",""
"","choice_confirmation","","html-keyboard-response","149","1884653","0.0-81.0-2.0-0.0","0","0","PKUhO","People","","null","","","","null","","","","25","4","44","","","","","","","","","","","","","","","","","","","","","","","","","","","","","","","","","","","","","",""
"","fixation","","html-keyboard-response","150","1885663","0.0-82.0-0.0","0","0","PKUhO","People","","null","","","","null","","","","","","","","","","","","","","","","","","","","","","","","","","","","","","","","","","","","","","","","","","","",""
"","deliberation","","html-keyboard-response","151","1886531","0.0-82.0-1.0","0","0","PKUhO","People","","866","","","","68","","","","26","22","19","0","-1","28","29","jessica-radanavong-mrYkTuAesKE-unsplash.jpg","ha-nguy-n-OFSQ6bHjFjs-unsplash.jpg","3","1","22","19","","","","","","","","","","","","","","","","","","","","","","","","","","","",""
"","choice_confirmation","","html-keyboard-response","152","1887037","0.0-82.0-2.0-0.0","0","0","PKUhO","People","","null","","","","null","","","","26","22","19","","","","","","","","","","","","","","","","","","","","","","","","","","","","","","","","","","","","","",""
"","fixation","","html-keyboard-response","153","1888048","0.0-83.0-0.0","0","0","PKUhO","People","","null","","","","null","","","","","","","","","","","","","","","","","","","","","","","","","","","","","","","","","","","","","","","","","","","",""
"","deliberation","","html-keyboard-response","154","1888723","0.0-83.0-1.0","0","0","PKUhO","People","","673","","","","75","","","","27","29","26","0","-1","32","65","leilani-angel-K84vnnzxmTQ-unsplash.jpg","juri-gianfrancesco-9EZadYaMzk4-unsplash.jpg","3","0","26","29","","","","","","","","","","","","","","","","","","","","","","","","","","","",""
"","choice_confirmation","","html-keyboard-response","155","1889243","0.0-83.0-2.0-0.0","0","0","PKUhO","People","","null","","","","null","","","","27","29","26","","","","","","","","","","","","","","","","","","","","","","","","","","","","","","","","","","","","","",""
"","fixation","","html-keyboard-response","156","1890256","0.0-84.0-0.0","0","0","PKUhO","People","","null","","","","null","","","","","","","","","","","","","","","","","","","","","","","","","","","","","","","","","","","","","","","","","","","",""
"","deliberation","","html-keyboard-response","157","1890975","0.0-84.0-1.0","0","0","PKUhO","People","","717","","","","68","","","","28","31","42","0","-1","35","60","mathilda-khoo-vLR0YP_otCo-unsplash.jpg","prince-akachi-l3IHXOdMyHQ-unsplash.jpg","3","1","31","42","","","","","","","","","","","","","","","","","","","","","","","","","","","",""
"","choice_confirmation","","html-keyboard-response","158","1891483","0.0-84.0-2.0-0.0","0","0","PKUhO","People","","null","","","","null","","","","28","31","42","","","","","","","","","","","","","","","","","","","","","","","","","","","","","","","","","","","","","",""
"","fixation","","html-keyboard-response","159","1892495","0.0-85.0-0.0","0","0","PKUhO","People","","null","","","","null","","","","","","","","","","","","","","","","","","","","","","","","","","","","","","","","","","","","","","","","","","","",""
"","deliberation","","html-keyboard-response","160","1893125","0.0-85.0-1.0","0","0","PKUhO","People","","628","","","","75","","","","29","21","33","0","1","52","45","jessica-felicio-_cvwXhGqG-o-unsplash.jpg","olena-sergienko-0TSd6uCKTKc-unsplash.jpg","3","0","33","21","","","","","","","","","","","","","","","","","","","","","","","","","","","",""
"","choice_confirmation","","html-keyboard-response","161","1893630","0.0-85.0-2.0-0.0","0","0","PKUhO","People","","null","","","","null","","","","29","21","33","","","","","","","","","","","","","","","","","","","","","","","","","","","","","","","","","","","","","",""
"","fixation","","html-keyboard-response","162","1894640","0.0-86.0-0.0","0","0","PKUhO","People","","null","","","","null","","","","","","","","","","","","","","","","","","","","","","","","","","","","","","","","","","","","","","","","","","","",""
"","deliberation","","html-keyboard-response","163","1895325","0.0-86.0-1.0","0","0","PKUhO","People","","684","","","","75","","","","30","34","36","0","-1","55","62","oliver-johnson-1TUIcKob7Zs-unsplash.jpg","ospan-ali-mGdA2fzjWLo-unsplash.jpg","3","0","36","34","","","","","","","","","","","","","","","","","","","","","","","","","","","",""
"","choice_confirmation","","html-keyboard-response","164","1895840","0.0-86.0-2.0-0.0","0","0","PKUhO","People","","null","","","","null","","","","30","34","36","","","","","","","","","","","","","","","","","","","","","","","","","","","","","","","","","","","","","",""
"","fixation","","html-keyboard-response","165","1896855","0.0-87.0-0.0","0","0","PKUhO","People","","null","","","","null","","","","","","","","","","","","","","","","","","","","","","","","","","","","","","","","","","","","","","","","","","","",""
"","deliberation","","html-keyboard-response","166","1897559","0.0-87.0-1.0","0","0","PKUhO","People","","702","","","","75","","","","31","6","5","0","-1","50","60","ben-o-bro-C5XyLljkMrY-unsplash.jpg","batel-studio-ttSRjiYG_WM-unsplash.jpg","3","0","5","6","","","","","","","","","","","","","","","","","","","","","","","","","","","",""
"","choice_confirmation","","html-keyboard-response","167","1898070","0.0-87.0-2.0-0.0","0","0","PKUhO","People","","null","","","","null","","","","31","6","5","","","","","","","","","","","","","","","","","","","","","","","","","","","","","","","","","","","","","",""
"","fixation","","html-keyboard-response","168","1899079","0.0-88.0-0.0","0","0","PKUhO","People","","null","","","","null","","","","","","","","","","","","","","","","","","","","","","","","","","","","","","","","","","","","","","","","","","","",""
"","deliberation","","html-keyboard-response","169","1899833","0.0-88.0-1.0","0","0","PKUhO","People","","752","","","","75","","","","32","47","8","0","1","59","53","tyler-nix-ZGa9d1a_4tA-unsplash.jpg","bruce-dixon-3M9WJQVHzog-unsplash.jpg","3","0","8","47","","","","","","","","","","","","","","","","","","","","","","","","","","","",""
"","choice_confirmation","","html-keyboard-response","170","1900355","0.0-88.0-2.0-0.0","0","0","PKUhO","People","","null","","","","null","","","","32","47","8","","","","","","","","","","","","","","","","","","","","","","","","","","","","","","","","","","","","","",""
"","fixation","","html-keyboard-response","171","1901380","0.0-89.0-0.0","0","0","PKUhO","People","","null","","","","null","","","","","","","","","","","","","","","","","","","","","","","","","","","","","","","","","","","","","","","","","","","",""
"","deliberation","","html-keyboard-response","172","1902165","0.0-89.0-1.0","0","0","PKUhO","People","","784","","","","75","","","","33","12","14","0","-1","64","56","daniel-rigdon-dXmXKPP2L4E-unsplash.jpg","freddy-kearney-o-ioeoATbIM-unsplash.jpg","3","0","14","12","","","","","","","","","","","","","","","","","","","","","","","","","","","",""
"","choice_confirmation","","html-keyboard-response","173","1902680","0.0-89.0-2.0-0.0","0","0","PKUhO","People","","null","","","","null","","","","33","12","14","","","","","","","","","","","","","","","","","","","","","","","","","","","","","","","","","","","","","",""
"","fixation","","html-keyboard-response","174","1903688","0.0-90.0-0.0","0","0","PKUhO","People","","null","","","","null","","","","","","","","","","","","","","","","","","","","","","","","","","","","","","","","","","","","","","","","","","","",""
"","deliberation","","html-keyboard-response","175","1904544","0.0-90.0-1.0","0","0","PKUhO","People","","854","","","","68","","","","34","7","1","0","1","69","58","brooke-cagle-HRZUzoX1e6w-unsplash.jpg","aiony-haust-jmATI5Q_YgY-unsplash.jpg","3","1","7","1","","","","","","","","","","","","","","","","","","","","","","","","","","","",""
"","choice_confirmation","","html-keyboard-response","176","1905052","0.0-90.0-2.0-0.0","0","0","PKUhO","People","","null","","","","null","","","","34","7","1","","","","","","","","","","","","","","","","","","","","","","","","","","","","","","","","","","","","","",""
"","fixation","","html-keyboard-response","177","1906064","0.0-91.0-0.0","0","0","PKUhO","People","","null","","","","null","","","","","","","","","","","","","","","","","","","","","","","","","","","","","","","","","","","","","","","","","","","",""
"","deliberation","","html-keyboard-response","178","1906889","0.0-91.0-1.0","0","0","PKUhO","People","","823","","","","75","","","","35","35","11","0","1","51","68","oliver-ragfelt-khV4fTy6-D8-unsplash.jpg","christian-ferrer-8vT-DgHZDG4-unsplash.jpg","3","0","11","35","","","","","","","","","","","","","","","","","","","","","","","","","","","",""
"","choice_confirmation","","html-keyboard-response","179","1907400","0.0-91.0-2.0-0.0","0","0","PKUhO","People","","null","","","","null","","","","35","35","11","","","","","","","","","","","","","","","","","","","","","","","","","","","","","","","","","","","","","",""
"","reward_learning_instructions","","instructions","180","2000416","0.0-92.0-0.0","0","0","PKUhO","People","[{""page_index"":0,""viewing_time"":38073},{""page_index"":1,""viewing_time"":50004},{""page_index"":2,""viewing_time"":4938}]","93016","","","","","","","","","","","","","","","","","","","","","","","","","","","","","","","","","","","","","","","","","","","","","","","",""
"","","","survey-multi-choice","181","2017989","0.0-92.0-1.0","0","0","PKUhO","People","","17566","{""Q0"":""True"",""Q1"":""True"",""Q2"":""Press the space bar to see its outcome"",""Q3"":""Press the relevant key while the outcome is presented""}","reward_comprehension_check","0","","","","","","","","","","","","","","","","","","","","","","","","","","","","","","","","","","","","","","","","","","","","",""
"","start_phase","","html-keyboard-response","182","2021204","0.0-93.0","0","0","PKUhO","People","","3214","","","","78","","","","","","","","","","","","","","","","","","","","","","","","","","","","","","","","","","","","","","","","","","","",""
"","fixation","","html-keyboard-response","183","2022225","0.0-94.0","0","0","PKUhO","People","","null","","","","null","","","","","","","","","","","","","","","","","","","","","","","","","","","","","","","","","","","","","","","","","","","",""
"","see_reward","","html-keyboard-response","184","2023436","0.0-95.0","0","0","PKUhO","People","","1208","","","","32","","14","","0","","","","-1","","","","","1","","","","","0","1208","","","","","","","","","","","","","","","","","","","","","","","","",""
"","reward_outcome","","html-keyboard-response","185","2025444","0.0-96.0","0","0","PKUhO","People","","2006","","","","40","","14","","0","","","","","","","","","","","","","","","","-1","2006","","","","","","","","","","","","","","","","","","","","","","",""
"","fixation","","html-keyboard-response","186","2026455","0.0-99.0","0","0","PKUhO","People","","null","","","","null","","","","","","","","","","","","","","","","","","","","","","","","","","","","","","","","","","","","","","","","","","","",""
"","see_reward","","html-keyboard-response","187","2027334","0.0-100.0","0","0","PKUhO","People","","878","","","","32","","22","","1","","","","-1","","","","","1","","","","","0","878","","","","","","","","","","","","","","","","","","","","","","","","",""
"","reward_outcome","","html-keyboard-response","188","2029352","0.0-101.0","0","0","PKUhO","People","","1534","","","","40","","22","","1","","","","","","","","","","","","","","","","-1","1534","","","","","","","","","","","","","","","","","","","","","","",""
"","fixation","","html-keyboard-response","189","2030366","0.0-104.0","0","0","PKUhO","People","","null","","","","null","","","","","","","","","","","","","","","","","","","","","","","","","","","","","","","","","","","","","","","","","","","",""
"","see_reward","","html-keyboard-response","190","2030930","0.0-105.0","0","0","PKUhO","People","","562","","","","32","","26","","2","","","","-1","","","","","1","","","","","0","562","","","","","","","","","","","","","","","","","","","","","","","","",""
"","reward_outcome","","html-keyboard-response","191","2032933","0.0-106.0","0","0","PKUhO","People","","null","","","","null","","26","","2","","","","","","","","","","","","","","","","NaN","null","","","","","","","","","","","","","","","","","","","","","","",""
"","respond_faster","","html-keyboard-response","192","2034442","0.0-107.0-0.0","1","0","PKUhO","People","","null","","","","null","","","","","","","","","","","","","","","","","","","","","","","","","","","","","","","","","","","","","","","","","","","",""
"","fixation","","html-keyboard-response","193","2035453","0.0-109.0","0","0","PKUhO","People","","null","","","","null","","","","","","","","","","","","","","","","","","","","","","","","","","","","","","","","","","","","","","","","","","","",""
"","see_reward","","html-keyboard-response","194","2036354","0.0-110.0","0","0","PKUhO","People","","899","","","","32","","4","","3","","","","1","","","","","1","","","","","150","899","","","","","","","","","","","","","","","","","","","","","","","","",""
"","reward_outcome","","html-keyboard-response","195","2038362","0.0-111.0","0","0","PKUhO","People","","1061","","","","38","","4","","3","","","","","","","","","","","","","","","","1","1061","","","","","","","","","","","","","","","","","","","","","","",""
"","fixation","","html-keyboard-response","196","2039378","0.0-114.0","0","0","PKUhO","People","","null","","","","null","","","","","","","","","","","","","","","","","","","","","","","","","","","","","","","","","","","","","","","","","","","",""
"","see_reward","","html-keyboard-response","197","2040012","0.0-115.0","0","0","PKUhO","People","","633","","","","32","","0","","4","","","","1","","","","","1","","","","","152","633","","","","","","","","","","","","","","","","","","","","","","","","",""
"","reward_outcome","","html-keyboard-response","198","2042022","0.0-116.0","0","0","PKUhO","People","","644","","","","38","","0","","4","","","","","","","","","","","","","","","","1","644","","","","","","","","","","","","","","","","","","","","","","",""
"","fixation","","html-keyboard-response","199","2043040","0.0-119.0","0","0","PKUhO","People","","null","","","","null","","","","","","","","","","","","","","","","","","","","","","","","","","","","","","","","","","","","","","","","","","","",""
"","see_reward","","html-keyboard-response","200","2043652","0.0-120.0","0","0","PKUhO","People","","611","","","","32","","31","","5","","","","-1","","","","","1","","","","","0","611","","","","","","","","","","","","","","","","","","","","","","","","",""
"","reward_outcome","","html-keyboard-response","201","2045674","0.0-121.0","0","0","PKUhO","People","","695","","","","40","","31","","5","","","","","","","","","","","","","","","","-1","695","","","","","","","","","","","","","","","","","","","","","","",""
"","fixation","","html-keyboard-response","202","2046681","0.0-124.0","0","0","PKUhO","People","","null","","","","null","","","","","","","","","","","","","","","","","","","","","","","","","","","","","","","","","","","","","","","","","","","",""
"","see_reward","","html-keyboard-response","203","2047197","0.0-125.0","0","0","PKUhO","People","","515","","","","32","","4","","6","","","","1","","","","","1","","","","","150","515","","","","","","","","","","","","","","","","","","","","","","","","",""
"","reward_outcome","","html-keyboard-response","204","2049212","0.0-126.0","0","0","PKUhO","People","","692","","","","38","","4","","6","","","","","","","","","","","","","","","","1","692","","","","","","","","","","","","","","","","","","","","","","",""
"","fixation","","html-keyboard-response","205","2050235","0.0-129.0","0","0","PKUhO","People","","null","","","","null","","","","","","","","","","","","","","","","","","","","","","","","","","","","","","","","","","","","","","","","","","","",""
"","see_reward","","html-keyboard-response","206","2050896","0.0-130.0","0","0","PKUhO","People","","659","","","","32","","36","","7","","","","-1","","","","","1","","","","","0","659","","","","","","","","","","","","","","","","","","","","","","","","",""
"","reward_outcome","","html-keyboard-response","207","2052909","0.0-131.0","0","0","PKUhO","People","","618","","","","40","","36","","7","","","","","","","","","","","","","","","","-1","618","","","","","","","","","","","","","","","","","","","","","","",""
"","fixation","","html-keyboard-response","208","2053930","0.0-134.0","0","0","PKUhO","People","","null","","","","null","","","","","","","","","","","","","","","","","","","","","","","","","","","","","","","","","","","","","","","","","","","",""
"","see_reward","","html-keyboard-response","209","2054471","0.0-135.0","0","0","PKUhO","People","","539","","","","32","","7","","8","","","","1","","","","","1","","","","","147","539","","","","","","","","","","","","","","","","","","","","","","","","",""
"","reward_outcome","","html-keyboard-response","210","2056485","0.0-136.0","0","0","PKUhO","People","","493","","","","38","","7","","8","","","","","","","","","","","","","","","","1","493","","","","","","","","","","","","","","","","","","","","","","",""
"","fixation","","html-keyboard-response","211","2057495","0.0-139.0","0","0","PKUhO","People","","null","","","","null","","","","","","","","","","","","","","","","","","","","","","","","","","","","","","","","","","","","","","","","","","","",""
"","see_reward","","html-keyboard-response","212","2058039","0.0-140.0","0","0","PKUhO","People","","542","","","","32","","26","","9","","","","-1","","","","","1","","","","","0","542","","","","","","","","","","","","","","","","","","","","","","","","",""
"","reward_outcome","","html-keyboard-response","213","2060059","0.0-141.0","0","0","PKUhO","People","","712","","","","40","","26","","9","","","","","","","","","","","","","","","","-1","712","","","","","","","","","","","","","","","","","","","","","","",""
"","fixation","","html-keyboard-response","214","2061068","0.0-144.0","0","0","PKUhO","People","","null","","","","null","","","","","","","","","","","","","","","","","","","","","","","","","","","","","","","","","","","","","","","","","","","",""
"","see_reward","","html-keyboard-response","215","2061524","0.0-145.0","0","0","PKUhO","People","","454","","","","32","","14","","10","","","","-1","","","","","1","","","","","0","454","","","","","","","","","","","","","","","","","","","","","","","","",""
"","reward_outcome","","html-keyboard-response","216","2063541","0.0-146.0","0","0","PKUhO","People","","570","","","","40","","14","","10","","","","","","","","","","","","","","","","-1","570","","","","","","","","","","","","","","","","","","","","","","",""
"","fixation","","html-keyboard-response","217","2064550","0.0-149.0","0","0","PKUhO","People","","null","","","","null","","","","","","","","","","","","","","","","","","","","","","","","","","","","","","","","","","","","","","","","","","","",""
"","see_reward","","html-keyboard-response","218","2065051","0.0-150.0","0","0","PKUhO","People","","500","","","","32","","33","","11","","","","1","","","","","1","","","","","151","500","","","","","","","","","","","","","","","","","","","","","","","","",""
"","reward_outcome","","html-keyboard-response","219","2067062","0.0-151.0","0","0","PKUhO","People","","1149","","","","38","","33","","11","","","","","","","","","","","","","","","","1","1149","","","","","","","","","","","","","","","","","","","","","","",""
"","fixation","","html-keyboard-response","220","2068075","0.0-154.0","0","0","PKUhO","People","","null","","","","null","","","","","","","","","","","","","","","","","","","","","","","","","","","","","","","","","","","","","","","","","","","",""
"","see_reward","","html-keyboard-response","221","2068606","0.0-155.0","0","0","PKUhO","People","","529","","","","32","","11","","12","","","","1","","","","","1","","","","","155","529","","","","","","","","","","","","","","","","","","","","","","","","",""
"","reward_outcome","","html-keyboard-response","222","2070617","0.0-156.0","0","0","PKUhO","People","","470","","","","38","","11","","12","","","","","","","","","","","","","","","","1","470","","","","","","","","","","","","","","","","","","","","","","",""
"","fixation","","html-keyboard-response","223","2071626","0.0-159.0","0","0","PKUhO","People","","null","","","","null","","","","","","","","","","","","","","","","","","","","","","","","","","","","","","","","","","","","","","","","","","","",""
"","see_reward","","html-keyboard-response","224","2072011","0.0-160.0","0","0","PKUhO","People","","383","","","","32","","22","","13","","","","-1","","","","","1","","","","","0","383","","","","","","","","","","","","","","","","","","","","","","","","",""
"","reward_outcome","","html-keyboard-response","225","2074031","0.0-161.0","0","0","PKUhO","People","","512","","","","40","","22","","13","","","","","","","","","","","","","","","","-1","512","","","","","","","","","","","","","","","","","","","","","","",""
"","fixation","","html-keyboard-response","226","2075042","0.0-164.0","0","0","PKUhO","People","","null","","","","null","","","","","","","","","","","","","","","","","","","","","","","","","","","","","","","","","","","","","","","","","","","",""
"","see_reward","","html-keyboard-response","227","2075488","0.0-165.0","0","0","PKUhO","People","","443","","","","32","","5","","14","","","","-1","","","","","1","","","","","0","443","","","","","","","","","","","","","","","","","","","","","","","","",""
"","reward_outcome","","html-keyboard-response","228","2077495","0.0-166.0","0","0","PKUhO","People","","620","","","","40","","5","","14","","","","","","","","","","","","","","","","-1","620","","","","","","","","","","","","","","","","","","","","","","",""
"","fixation","","html-keyboard-response","229","2078512","0.0-169.0","0","0","PKUhO","People","","null","","","","null","","","","","","","","","","","","","","","","","","","","","","","","","","","","","","","","","","","","","","","","","","","",""
"","see_reward","","html-keyboard-response","230","2078905","0.0-170.0","0","0","PKUhO","People","","392","","","","32","","33","","15","","","","1","","","","","1","","","","","151","392","","","","","","","","","","","","","","","","","","","","","","","","",""
"","reward_outcome","","html-keyboard-response","231","2080914","0.0-171.0","0","0","PKUhO","People","","643","","","","38","","33","","15","","","","","","","","","","","","","","","","1","643","","","","","","","","","","","","","","","","","","","","","","",""
"","fixation","","html-keyboard-response","232","2081929","0.0-174.0","0","0","PKUhO","People","","null","","","","null","","","","","","","","","","","","","","","","","","","","","","","","","","","","","","","","","","","","","","","","","","","",""
"","see_reward","","html-keyboard-response","233","2082353","0.0-175.0","0","0","PKUhO","People","","422","","","","32","","8","","16","","","","1","","","","","1","","","","","152","422","","","","","","","","","","","","","","","","","","","","","","","","",""
"","reward_outcome","","html-keyboard-response","234","2084359","0.0-176.0","0","0","PKUhO","People","","501","","","","38","","8","","16","","","","","","","","","","","","","","","","1","501","","","","","","","","","","","","","","","","","","","","","","",""
"","fixation","","html-keyboard-response","235","2085367","0.0-179.0","0","0","PKUhO","People","","null","","","","null","","","","","","","","","","","","","","","","","","","","","","","","","","","","","","","","","","","","","","","","","","","",""
"","see_reward","","html-keyboard-response","236","2085772","0.0-180.0","0","0","PKUhO","People","","403","","","","32","","0","","17","","","","1","","","","","1","","","","","152","403","","","","","","","","","","","","","","","","","","","","","","","","",""
"","reward_outcome","","html-keyboard-response","237","2087784","0.0-181.0","0","0","PKUhO","People","","484","","","","38","","0","","17","","","","","","","","","","","","","","","","1","484","","","","","","","","","","","","","","","","","","","","","","",""
"","fixation","","html-keyboard-response","238","2088792","0.0-184.0","0","0","PKUhO","People","","null","","","","null","","","","","","","","","","","","","","","","","","","","","","","","","","","","","","","","","","","","","","","","","","","",""
"","see_reward","","html-keyboard-response","239","2089285","0.0-185.0","0","0","PKUhO","People","","490","","","","32","","7","","18","","","","1","","","","","1","","","","","147","490","","","","","","","","","","","","","","","","","","","","","","","","",""
"","reward_outcome","","html-keyboard-response","240","2091310","0.0-186.0","0","0","PKUhO","People","","497","","","","38","","7","","18","","","","","","","","","","","","","","","","1","497","","","","","","","","","","","","","","","","","","","","","","",""
"","fixation","","html-keyboard-response","241","2092323","0.0-189.0","0","0","PKUhO","People","","null","","","","null","","","","","","","","","","","","","","","","","","","","","","","","","","","","","","","","","","","","","","","","","","","",""
"","see_reward","","html-keyboard-response","242","2092773","0.0-190.0","0","0","PKUhO","People","","449","","","","32","","5","","19","","","","-1","","","","","1","","","","","0","449","","","","","","","","","","","","","","","","","","","","","","","","",""
"","reward_outcome","","html-keyboard-response","243","2094789","0.0-191.0","0","0","PKUhO","People","","572","","","","40","","5","","19","","","","","","","","","","","","","","","","-1","572","","","","","","","","","","","","","","","","","","","","","","",""
"","fixation","","html-keyboard-response","244","2095801","0.0-194.0","0","0","PKUhO","People","","null","","","","null","","","","","","","","","","","","","","","","","","","","","","","","","","","","","","","","","","","","","","","","","","","",""
"","see_reward","","html-keyboard-response","245","2096334","0.0-195.0","0","0","PKUhO","People","","532","","","","32","","36","","20","","","","-1","","","","","1","","","","","0","532","","","","","","","","","","","","","","","","","","","","","","","","",""
"","reward_outcome","","html-keyboard-response","246","2098345","0.0-196.0","0","0","PKUhO","People","","696","","","","40","","36","","20","","","","","","","","","","","","","","","","-1","696","","","","","","","","","","","","","","","","","","","","","","",""
"","fixation","","html-keyboard-response","247","2099361","0.0-199.0","0","0","PKUhO","People","","null","","","","null","","","","","","","","","","","","","","","","","","","","","","","","","","","","","","","","","","","","","","","","","","","",""
"","see_reward","","html-keyboard-response","248","2099890","0.0-200.0","0","0","PKUhO","People","","527","","","","32","","11","","21","","","","1","","","","","1","","","","","155","527","","","","","","","","","","","","","","","","","","","","","","","","",""
"","reward_outcome","","html-keyboard-response","249","2101896","0.0-201.0","0","0","PKUhO","People","","603","","","","38","","11","","21","","","","","","","","","","","","","","","","1","603","","","","","","","","","","","","","","","","","","","","","","",""
"","fixation","","html-keyboard-response","250","2102904","0.0-204.0","0","0","PKUhO","People","","null","","","","null","","","","","","","","","","","","","","","","","","","","","","","","","","","","","","","","","","","","","","","","","","","",""
"","see_reward","","html-keyboard-response","251","2103454","0.0-205.0","0","0","PKUhO","People","","548","","","","32","","31","","22","","","","-1","","","","","1","","","","","0","548","","","","","","","","","","","","","","","","","","","","","","","","",""
"","reward_outcome","","html-keyboard-response","252","2105469","0.0-206.0","0","0","PKUhO","People","","622","","","","40","","31","","22","","","","","","","","","","","","","","","","-1","622","","","","","","","","","","","","","","","","","","","","","","",""
"","fixation","","html-keyboard-response","253","2106480","0.0-209.0","0","0","PKUhO","People","","null","","","","null","","","","","","","","","","","","","","","","","","","","","","","","","","","","","","","","","","","","","","","","","","","",""
"","see_reward","","html-keyboard-response","254","2106934","0.0-210.0","0","0","PKUhO","People","","452","","","","32","","8","","23","","","","1","","","","","1","","","","","152","452","","","","","","","","","","","","","","","","","","","","","","","","",""
"","reward_outcome","","html-keyboard-response","255","2108942","0.0-211.0","0","0","PKUhO","People","","394","","","","38","","8","","23","","","","","","","","","","","","","","","","1","394","","","","","","","","","","","","","","","","","","","","","","",""
"","block_over","","html-keyboard-response","256","2112983","0.0-213.0-0.0","0","0","PKUhO","People","","4039","","","","78","","","","","","","","","","","","","","","","","","","","","","","","","","","","","","","","","","","","","","","","","","","",""
"","fixation","","html-keyboard-response","257","2113990","0.0-214.0","0","0","PKUhO","People","","null","","","","null","","","","","","","","","","","","","","","","","","","","","","","","","","","","","","","","","","","","","","","","","","","",""
"","see_reward","","html-keyboard-response","258","2115030","0.0-215.0","0","0","PKUhO","People","","1038","","","","32","","26","","24","","","","-1","","","","","2","","","","","0","1038","","","","","","","","","","","","","","","","","","","","","","","","",""
"","reward_outcome","","html-keyboard-response","259","2117041","0.0-216.0","0","0","PKUhO","People","","748","","","","40","","26","","24","","","","","","","","","","","","","","","","-1","748","","","","","","","","","","","","","","","","","","","","","","",""
"","fixation","","html-keyboard-response","260","2118052","0.0-219.0","0","0","PKUhO","People","","null","","","","null","","","","","","","","","","","","","","","","","","","","","","","","","","","","","","","","","","","","","","","","","","","",""
"","see_reward","","html-keyboard-response","261","2118542","0.0-220.0","0","0","PKUhO","People","","488","","","","32","","33","","25","","","","1","","","","","2","","","","","151","488","","","","","","","","","","","","","","","","","","","","","","","","",""
"","reward_outcome","","html-keyboard-response","262","2120550","0.0-221.0","0","0","PKUhO","People","","717","","","","38","","33","","25","","","","","","","","","","","","","","","","1","717","","","","","","","","","","","","","","","","","","","","","","",""
"","fixation","","html-keyboard-response","263","2121563","0.0-224.0","0","0","PKUhO","People","","null","","","","null","","","","","","","","","","","","","","","","","","","","","","","","","","","","","","","","","","","","","","","","","","","",""
"","see_reward","","html-keyboard-response","264","2122061","0.0-225.0","0","0","PKUhO","People","","498","","","","32","","14","","26","","","","-1","","","","","2","","","","","0","498","","","","","","","","","","","","","","","","","","","","","","","","",""
"","reward_outcome","","html-keyboard-response","265","2124078","0.0-226.0","0","0","PKUhO","People","","617","","","","40","","14","","26","","","","","","","","","","","","","","","","-1","617","","","","","","","","","","","","","","","","","","","","","","",""
"","fixation","","html-keyboard-response","266","2125093","0.0-229.0","0","0","PKUhO","People","","null","","","","null","","","","","","","","","","","","","","","","","","","","","","","","","","","","","","","","","","","","","","","","","","","",""
"","see_reward","","html-keyboard-response","267","2125510","0.0-230.0","0","0","PKUhO","People","","415","","","","32","","33","","27","","","","1","","","","","2","","","","","151","415","","","","","","","","","","","","","","","","","","","","","","","","",""
"","reward_outcome","","html-keyboard-response","268","2127527","0.0-231.0","0","0","PKUhO","People","","655","","","","38","","33","","27","","","","","","","","","","","","","","","","1","655","","","","","","","","","","","","","","","","","","","","","","",""
"","fixation","","html-keyboard-response","269","2128541","0.0-234.0","0","0","PKUhO","People","","null","","","","null","","","","","","","","","","","","","","","","","","","","","","","","","","","","","","","","","","","","","","","","","","","",""
"","see_reward","","html-keyboard-response","270","2128983","0.0-235.0","0","0","PKUhO","People","","440","","","","32","","31","","28","","","","-1","","","","","2","","","","","0","440","","","","","","","","","","","","","","","","","","","","","","","","",""
"","reward_outcome","","html-keyboard-response","271","2131003","0.0-236.0","0","0","PKUhO","People","","623","","","","40","","31","","28","","","","","","","","","","","","","","","","-1","623","","","","","","","","","","","","","","","","","","","","","","",""
"","fixation","","html-keyboard-response","272","2132012","0.0-239.0","0","0","PKUhO","People","","null","","","","null","","","","","","","","","","","","","","","","","","","","","","","","","","","","","","","","","","","","","","","","","","","",""
"","see_reward","","html-keyboard-response","273","2132635","0.0-240.0","0","0","PKUhO","People","","621","","","","32","","31","","29","","","","-1","","","","","2","","","","","0","621","","","","","","","","","","","","","","","","","","","","","","","","",""
"","reward_outcome","","html-keyboard-response","274","2134643","0.0-241.0","0","0","PKUhO","People","","582","","","","40","","31","","29","","","","","","","","","","","","","","","","-1","582","","","","","","","","","","","","","","","","","","","","","","",""
"","fixation","","html-keyboard-response","275","2135653","0.0-244.0","0","0","PKUhO","People","","null","","","","null","","","","","","","","","","","","","","","","","","","","","","","","","","","","","","","","","","","","","","","","","","","",""
"","see_reward","","html-keyboard-response","276","2136109","0.0-245.0","0","0","PKUhO","People","","455","","","","32","","7","","30","","","","1","","","","","2","","","","","147","455","","","","","","","","","","","","","","","","","","","","","","","","",""
"","reward_outcome","","html-keyboard-response","277","2138130","0.0-246.0","0","0","PKUhO","People","","571","","","","38","","7","","30","","","","","","","","","","","","","","","","1","571","","","","","","","","","","","","","","","","","","","","","","",""
"","fixation","","html-keyboard-response","278","2139159","0.0-249.0","0","0","PKUhO","People","","null","","","","null","","","","","","","","","","","","","","","","","","","","","","","","","","","","","","","","","","","","","","","","","","","",""
"","see_reward","","html-keyboard-response","279","2139590","0.0-250.0","0","0","PKUhO","People","","429","","","","32","","0","","31","","","","1","","","","","2","","","","","152","429","","","","","","","","","","","","","","","","","","","","","","","","",""
"","reward_outcome","","html-keyboard-response","280","2141609","0.0-251.0","0","0","PKUhO","People","","564","","","","38","","0","","31","","","","","","","","","","","","","","","","1","564","","","","","","","","","","","","","","","","","","","","","","",""
"","fixation","","html-keyboard-response","281","2142618","0.0-254.0","0","0","PKUhO","People","","null","","","","null","","","","","","","","","","","","","","","","","","","","","","","","","","","","","","","","","","","","","","","","","","","",""
"","see_reward","","html-keyboard-response","282","2143057","0.0-255.0","0","0","PKUhO","People","","436","","","","32","","11","","32","","","","1","","","","","2","","","","","155","436","","","","","","","","","","","","","","","","","","","","","","","","",""
"","reward_outcome","","html-keyboard-response","283","2145074","0.0-256.0","0","0","PKUhO","People","","611","","","","38","","11","","32","","","","","","","","","","","","","","","","1","611","","","","","","","","","","","","","","","","","","","","","","",""
"","fixation","","html-keyboard-response","284","2146088","0.0-259.0","0","0","PKUhO","People","","null","","","","null","","","","","","","","","","","","","","","","","","","","","","","","","","","","","","","","","","","","","","","","","","","",""
"","see_reward","","html-keyboard-response","285","2146656","0.0-260.0","0","0","PKUhO","People","","567","","","","32","","4","","33","","","","1","","","","","2","","","","","150","567","","","","","","","","","","","","","","","","","","","","","","","","",""
"","reward_outcome","","html-keyboard-response","286","2148663","0.0-261.0","0","0","PKUhO","People","","614","","","","38","","4","","33","","","","","","","","","","","","","","","","1","614","","","","","","","","","","","","","","","","","","","","","","",""
"","fixation","","html-keyboard-response","287","2149672","0.0-264.0","0","0","PKUhO","People","","null","","","","null","","","","","","","","","","","","","","","","","","","","","","","","","","","","","","","","","","","","","","","","","","","",""
"","see_reward","","html-keyboard-response","288","2150175","0.0-265.0","0","0","PKUhO","People","","502","","","","32","","8","","34","","","","1","","","","","2","","","","","152","502","","","","","","","","","","","","","","","","","","","","","","","","",""
"","reward_outcome","","html-keyboard-response","289","2152182","0.0-266.0","0","0","PKUhO","People","","671","","","","38","","8","","34","","","","","","","","","","","","","","","","1","671","","","","","","","","","","","","","","","","","","","","","","",""
"","fixation","","html-keyboard-response","290","2153195","0.0-269.0","0","0","PKUhO","People","","null","","","","null","","","","","","","","","","","","","","","","","","","","","","","","","","","","","","","","","","","","","","","","","","","",""
"","see_reward","","html-keyboard-response","291","2153673","0.0-270.0","0","0","PKUhO","People","","477","","","","32","","5","","35","","","","-1","","","","","2","","","","","0","477","","","","","","","","","","","","","","","","","","","","","","","","",""
"","reward_outcome","","html-keyboard-response","292","2155678","0.0-271.0","0","0","PKUhO","People","","634","","","","40","","5","","35","","","","","","","","","","","","","","","","-1","634","","","","","","","","","","","","","","","","","","","","","","",""
"","fixation","","html-keyboard-response","293","2156688","0.0-274.0","0","0","PKUhO","People","","null","","","","null","","","","","","","","","","","","","","","","","","","","","","","","","","","","","","","","","","","","","","","","","","","",""
"","see_reward","","html-keyboard-response","294","2157174","0.0-275.0","0","0","PKUhO","People","","486","","","","32","","4","","36","","","","1","","","","","2","","","","","150","486","","","","","","","","","","","","","","","","","","","","","","","","",""
"","reward_outcome","","html-keyboard-response","295","2159195","0.0-276.0","0","0","PKUhO","People","","628","","","","38","","4","","36","","","","","","","","","","","","","","","","1","628","","","","","","","","","","","","","","","","","","","","","","",""
"","fixation","","html-keyboard-response","296","2160210","0.0-279.0","0","0","PKUhO","People","","null","","","","null","","","","","","","","","","","","","","","","","","","","","","","","","","","","","","","","","","","","","","","","","","","",""
"","see_reward","","html-keyboard-response","297","2160617","0.0-280.0","0","0","PKUhO","People","","405","","","","32","","36","","37","","","","-1","","","","","2","","","","","0","405","","","","","","","","","","","","","","","","","","","","","","","","",""
"","reward_outcome","","html-keyboard-response","298","2162629","0.0-281.0","0","0","PKUhO","People","","568","","","","40","","36","","37","","","","","","","","","","","","","","","","-1","568","","","","","","","","","","","","","","","","","","","","","","",""
"","fixation","","html-keyboard-response","299","2163643","0.0-284.0","0","0","PKUhO","People","","null","","","","null","","","","","","","","","","","","","","","","","","","","","","","","","","","","","","","","","","","","","","","","","","","",""
"","see_reward","","html-keyboard-response","300","2164052","0.0-285.0","0","0","PKUhO","People","","407","","","","32","","36","","38","","","","-1","","","","","2","","","","","0","407","","","","","","","","","","","","","","","","","","","","","","","","",""
"","reward_outcome","","html-keyboard-response","301","2166072","0.0-286.0","0","0","PKUhO","People","","726","","","","40","","36","","38","","","","","","","","","","","","","","","","-1","726","","","","","","","","","","","","","","","","","","","","","","",""
"","fixation","","html-keyboard-response","302","2167081","0.0-289.0","0","0","PKUhO","People","","null","","","","null","","","","","","","","","","","","","","","","","","","","","","","","","","","","","","","","","","","","","","","","","","","",""
"","see_reward","","html-keyboard-response","303","2167685","0.0-290.0","0","0","PKUhO","People","","602","","","","32","","5","","39","","","","-1","","","","","2","","","","","0","602","","","","","","","","","","","","","","","","","","","","","","","","",""
"","reward_outcome","","html-keyboard-response","304","2169694","0.0-291.0","0","0","PKUhO","People","","750","","","","40","","5","","39","","","","","","","","","","","","","","","","-1","750","","","","","","","","","","","","","","","","","","","","","","",""
"","fixation","","html-keyboard-response","305","2170708","0.0-294.0","0","0","PKUhO","People","","null","","","","null","","","","","","","","","","","","","","","","","","","","","","","","","","","","","","","","","","","","","","","","","","","",""
"","see_reward","","html-keyboard-response","306","2171338","0.0-295.0","0","0","PKUhO","People","","629","","","","32","","22","","40","","","","-1","","","","","2","","","","","0","629","","","","","","","","","","","","","","","","","","","","","","","","",""
"","reward_outcome","","html-keyboard-response","307","2173350","0.0-296.0","0","0","PKUhO","People","","679","","","","40","","22","","40","","","","","","","","","","","","","","","","-1","679","","","","","","","","","","","","","","","","","","","","","","",""
"","fixation","","html-keyboard-response","308","2174362","0.0-299.0","0","0","PKUhO","People","","null","","","","null","","","","","","","","","","","","","","","","","","","","","","","","","","","","","","","","","","","","","","","","","","","",""
"","see_reward","","html-keyboard-response","309","2174850","0.0-300.0","0","0","PKUhO","People","","486","","","","32","","26","","41","","","","-1","","","","","2","","","","","0","486","","","","","","","","","","","","","","","","","","","","","","","","",""
"","reward_outcome","","html-keyboard-response","310","2176863","0.0-301.0","0","0","PKUhO","People","","737","","","","40","","26","","41","","","","","","","","","","","","","","","","-1","737","","","","","","","","","","","","","","","","","","","","","","",""
"","fixation","","html-keyboard-response","311","2177876","0.0-304.0","0","0","PKUhO","People","","null","","","","null","","","","","","","","","","","","","","","","","","","","","","","","","","","","","","","","","","","","","","","","","","","",""
"","see_reward","","html-keyboard-response","312","2178400","0.0-305.0","0","0","PKUhO","People","","522","","","","32","","11","","42","","","","1","","","","","2","","","","","155","522","","","","","","","","","","","","","","","","","","","","","","","","",""
"","reward_outcome","","html-keyboard-response","313","2180411","0.0-306.0","0","0","PKUhO","People","","655","","","","38","","11","","42","","","","","","","","","","","","","","","","1","655","","","","","","","","","","","","","","","","","","","","","","",""
"","fixation","","html-keyboard-response","314","2181421","0.0-309.0","0","0","PKUhO","People","","null","","","","null","","","","","","","","","","","","","","","","","","","","","","","","","","","","","","","","","","","","","","","","","","","",""
"","see_reward","","html-keyboard-response","315","2181859","0.0-310.0","0","0","PKUhO","People","","435","","","","32","","22","","43","","","","-1","","","","","2","","","","","0","435","","","","","","","","","","","","","","","","","","","","","","","","",""
"","reward_outcome","","html-keyboard-response","316","2183866","0.0-311.0","0","0","PKUhO","People","","577","","","","40","","22","","43","","","","","","","","","","","","","","","","-1","577","","","","","","","","","","","","","","","","","","","","","","",""
"","fixation","","html-keyboard-response","317","2184870","0.0-314.0","0","0","PKUhO","People","","null","","","","null","","","","","","","","","","","","","","","","","","","","","","","","","","","","","","","","","","","","","","","","","","","",""
"","see_reward","","html-keyboard-response","318","2185289","0.0-315.0","0","0","PKUhO","People","","418","","","","32","","8","","44","","","","1","","","","","2","","","","","152","418","","","","","","","","","","","","","","","","","","","","","","","","",""
"","reward_outcome","","html-keyboard-response","319","2187294","0.0-316.0","0","0","PKUhO","People","","691","","","","38","","8","","44","","","","","","","","","","","","","","","","1","691","","","","","","","","","","","","","","","","","","","","","","",""
"","fixation","","html-keyboard-response","320","2188304","0.0-319.0","0","0","PKUhO","People","","null","","","","null","","","","","","","","","","","","","","","","","","","","","","","","","","","","","","","","","","","","","","","","","","","",""
"","see_reward","","html-keyboard-response","321","2188758","0.0-320.0","0","0","PKUhO","People","","452","","","","32","","0","","45","","","","1","","","","","2","","","","","152","452","","","","","","","","","","","","","","","","","","","","","","","","",""
"","reward_outcome","","html-keyboard-response","322","2190780","0.0-321.0","0","0","PKUhO","People","","604","","","","38","","0","","45","","","","","","","","","","","","","","","","1","604","","","","","","","","","","","","","","","","","","","","","","",""
"","fixation","","html-keyboard-response","323","2191798","0.0-324.0","0","0","PKUhO","People","","null","","","","null","","","","","","","","","","","","","","","","","","","","","","","","","","","","","","","","","","","","","","","","","","","",""
"","see_reward","","html-keyboard-response","324","2192278","0.0-325.0","0","0","PKUhO","People","","478","","","","32","","14","","46","","","","-1","","","","","2","","","","","0","478","","","","","","","","","","","","","","","","","","","","","","","","",""
"","reward_outcome","","html-keyboard-response","325","2194292","0.0-326.0","0","0","PKUhO","People","","628","","","","40","","14","","46","","","","","","","","","","","","","","","","-1","628","","","","","","","","","","","","","","","","","","","","","","",""
"","fixation","","html-keyboard-response","326","2195298","0.0-329.0","0","0","PKUhO","People","","null","","","","null","","","","","","","","","","","","","","","","","","","","","","","","","","","","","","","","","","","","","","","","","","","",""
"","see_reward","","html-keyboard-response","327","2195882","0.0-330.0","0","0","PKUhO","People","","582","","","","32","","7","","47","","","","1","","","","","2","","","","","147","582","","","","","","","","","","","","","","","","","","","","","","","","",""
"","reward_outcome","","html-keyboard-response","328","2197888","0.0-331.0","0","0","PKUhO","People","","585","","","","38","","7","","47","","","","","","","","","","","","","","","","1","585","","","","","","","","","","","","","","","","","","","","","","",""
"","block_over","","html-keyboard-response","329","2199439","0.0-333.0-0.0","0","0","PKUhO","People","","1549","","","","78","","","","","","","","","","","","","","","","","","","","","","","","","","","","","","","","","","","","","","","","","","","",""
"","fixation","","html-keyboard-response","330","2200457","0.0-334.0","0","0","PKUhO","People","","null","","","","null","","","","","","","","","","","","","","","","","","","","","","","","","","","","","","","","","","","","","","","","","","","",""
"","see_reward","","html-keyboard-response","331","2201006","0.0-335.0","0","0","PKUhO","People","","547","","","","32","","7","","48","","","","1","","","","","3","","","","","147","547","","","","","","","","","","","","","","","","","","","","","","","","",""
"","reward_outcome","","html-keyboard-response","332","2203022","0.0-336.0","0","0","PKUhO","People","","675","","","","38","","7","","48","","","","","","","","","","","","","","","","1","675","","","","","","","","","","","","","","","","","","","","","","",""
"","fixation","","html-keyboard-response","333","2204038","0.0-339.0","0","0","PKUhO","People","","null","","","","null","","","","","","","","","","","","","","","","","","","","","","","","","","","","","","","","","","","","","","","","","","","",""
"","see_reward","","html-keyboard-response","334","2204442","0.0-340.0","0","0","PKUhO","People","","402","","","","32","","36","","49","","","","-1","","","","","3","","","","","0","402","","","","","","","","","","","","","","","","","","","","","","","","",""
"","reward_outcome","","html-keyboard-response","335","2206448","0.0-341.0","0","0","PKUhO","People","","607","","","","40","","36","","49","","","","","","","","","","","","","","","","-1","607","","","","","","","","","","","","","","","","","","","","","","",""
"","fixation","","html-keyboard-response","336","2207461","0.0-344.0","0","0","PKUhO","People","","null","","","","null","","","","","","","","","","","","","","","","","","","","","","","","","","","","","","","","","","","","","","","","","","","",""
"","see_reward","","html-keyboard-response","337","2207889","0.0-345.0","0","0","PKUhO","People","","426","","","","32","","26","","50","","","","-1","","","","","3","","","","","0","426","","","","","","","","","","","","","","","","","","","","","","","","",""
"","reward_outcome","","html-keyboard-response","338","2209899","0.0-346.0","0","0","PKUhO","People","","602","","","","40","","26","","50","","","","","","","","","","","","","","","","-1","602","","","","","","","","","","","","","","","","","","","","","","",""
"","fixation","","html-keyboard-response","339","2210913","0.0-349.0","0","0","PKUhO","People","","null","","","","null","","","","","","","","","","","","","","","","","","","","","","","","","","","","","","","","","","","","","","","","","","","",""
"","see_reward","","html-keyboard-response","340","2211333","0.0-350.0","0","0","PKUhO","People","","418","","","","32","","5","","51","","","","-1","","","","","3","","","","","0","418","","","","","","","","","","","","","","","","","","","","","","","","",""
"","reward_outcome","","html-keyboard-response","341","2213351","0.0-351.0","0","0","PKUhO","People","","591","","","","40","","5","","51","","","","","","","","","","","","","","","","-1","591","","","","","","","","","","","","","","","","","","","","","","",""
"","fixation","","html-keyboard-response","342","2214359","0.0-354.0","0","0","PKUhO","People","","null","","","","null","","","","","","","","","","","","","","","","","","","","","","","","","","","","","","","","","","","","","","","","","","","",""
"","see_reward","","html-keyboard-response","343","2214787","0.0-355.0","0","0","PKUhO","People","","426","","","","32","","22","","52","","","","-1","","","","","3","","","","","0","426","","","","","","","","","","","","","","","","","","","","","","","","",""
"","reward_outcome","","html-keyboard-response","344","2216802","0.0-356.0","0","0","PKUhO","People","","575","","","","40","","22","","52","","","","","","","","","","","","","","","","-1","575","","","","","","","","","","","","","","","","","","","","","","",""
"","fixation","","html-keyboard-response","345","2217813","0.0-359.0","0","0","PKUhO","People","","null","","","","null","","","","","","","","","","","","","","","","","","","","","","","","","","","","","","","","","","","","","","","","","","","",""
