"success","ttype","start_time","trial_type","trial_index","time_elapsed","internal_node_id","warning","missed_checkup","PID","stim_type","view_history","rt","responses","repeat_instructions","key_press","response","stimulus_id","painting","index","stimulus_left","stimulus_right","explain_trial","reward_type","rating_left","rating_right","painting_left","painting_right","block","left_chosen","chosen_obj","unchosen_obj","explain_response","reward_amount","see_reward_rt","register_reward_response","register_reward_rt","deliberation_reward_tally","stimulus_left_deliberation_ind","stimulus_right_deliberation_ind","chosen_trial","gain_left","higher_outcome_chosen","old_pair","chosen_object","rt_pairs","left_object_chosen","rt_object","old_response","new_rating","deliberated_stim","initial_rating","outcome_eval_rt","outcome_eval_response","outcome_eval_gain","outcome_eval_acc","preamble","outcome_eval_confidence","outcome_eval_confidence_rt","total_reward_tally"
"true","full_screen","d01202023hr0213","fullscreen","0","12341","0.0-0.0","0","0","xLFBC","Scenes","","","","","","","","","","","","","","","","","","","","","","","","","","","","","","","","","","","","","","","","","","","","","","","","",""
"","rating_instructions","","instructions","1","19131","0.0-1.0-0.0","0","0","xLFBC","Scenes","[{""page_index"":0,""viewing_time"":5204},{""page_index"":1,""viewing_time"":1582}]","6787","","","","","","","","","","","","","","","","","","","","","","","","","","","","","","","","","","","","","","","","","","","","","","",""
"","rating_comprehension_check","","survey-multi-choice","2","27281","0.0-1.0-1.0","0","0","xLFBC","Scenes","","8144","{""Q0"":""True"",""Q1"":""Mouse""}","0","","","","","","","","","","","","","","","","","","","","","","","","","","","","","","","","","","","","","","","","","","","","",""
"","start_phase","","html-keyboard-response","3","29923","0.0-2.0","0","0","xLFBC","Scenes","","2639","","","78","","","","","","","","","","","","","","","","","","","","","","","","","","","","","","","","","","","","","","","","","","","",""
"","rating","","html-slider-response","4","34704","0.0-3.0","0","0","xLFBC","Scenes","","4778","","","","80","102","anisur-rahman-K2b7UDed6uQ-unsplash.jpg","0","","","","","","","","","","","","","","","","","","","","","","","","","","","","","","","","","","","","","","","",""
"","rating","","html-slider-response","5","38234","0.0-4.0","0","0","xLFBC","Scenes","","3526","","","","79","138","petr-vysohlid-9fqwGqGLUxc-unsplash.jpg","1","","","","","","","","","","","","","","","","","","","","","","","","","","","","","","","","","","","","","","","",""
"","rating","","html-slider-response","6","41432","0.0-5.0","0","0","xLFBC","Scenes","","3195","","","","86","137","olga-stalska-QaWRyEdlffY-unsplash.jpg","2","","","","","","","","","","","","","","","","","","","","","","","","","","","","","","","","","","","","","","","",""
"","rating","","html-slider-response","7","44960","0.0-6.0","0","0","xLFBC","Scenes","","3526","","","","90","131","luca-bravo-hFzIoD0F_i8-unsplash.jpg","3","","","","","","","","","","","","","","","","","","","","","","","","","","","","","","","","","","","","","","","",""
"","rating","","html-slider-response","8","48130","0.0-7.0","0","0","xLFBC","Scenes","","3168","","","","92","125","john-lee-oMneOBYhJxY-unsplash.jpg","4","","","","","","","","","","","","","","","","","","","","","","","","","","","","","","","","","","","","","","","",""
"","rating","","html-slider-response","9","51856","0.0-8.0","0","0","xLFBC","Scenes","","3723","","","","89","129","kurt-cotoaga-cqbLg3lZEpk-unsplash.jpg","5","","","","","","","","","","","","","","","","","","","","","","","","","","","","","","","","","","","","","","","",""
"","rating","","html-slider-response","10","55497","0.0-9.0","0","0","xLFBC","Scenes","","3637","","","","87","140","samuele-errico-piccarini-JEBqFu2AOOA-unsplash.jpg","6","","","","","","","","","","","","","","","","","","","","","","","","","","","","","","","","","","","","","","","",""
"","rating","","html-slider-response","11","58513","0.0-10.0","0","0","xLFBC","Scenes","","3013","","","","87","109","brigitta-schneiter-hXXRLtTxXCU-unsplash.jpg","7","","","","","","","","","","","","","","","","","","","","","","","","","","","","","","","","","","","","","","","",""
"","rating","","html-slider-response","12","61264","0.0-11.0","0","0","xLFBC","Scenes","","2749","","","","87","132","meng-ji-8BH_M-53CyA-unsplash.jpg","8","","","","","","","","","","","","","","","","","","","","","","","","","","","","","","","","","","","","","","","",""
"","rating","","html-slider-response","13","65084","0.0-12.0","0","0","xLFBC","Scenes","","3817","","","","84","136","nicolas-jehly-LzVB84KkZOE-unsplash.jpg","9","","","","","","","","","","","","","","","","","","","","","","","","","","","","","","","","","","","","","","","",""
"","rating","","html-slider-response","14","68277","0.0-13.0","0","0","xLFBC","Scenes","","3191","","","","93","127","kace-rodriguez-p3OzJuT_Dks-unsplash.jpg","10","","","","","","","","","","","","","","","","","","","","","","","","","","","","","","","","","","","","","","","",""
"","rating","","html-slider-response","15","72535","0.0-14.0","0","0","xLFBC","Scenes","","4256","","","","73","105","ashim-d-silva-S2Q5mdOrrVc-unsplash.jpg","11","","","","","","","","","","","","","","","","","","","","","","","","","","","","","","","","","","","","","","","",""
"","rating","","html-slider-response","16","80225","0.0-15.0","0","0","xLFBC","Scenes","","7687","","","","86","110","bruno-van-der-kraan-qez8mNJ3ilU-unsplash.jpg","12","","","","","","","","","","","","","","","","","","","","","","","","","","","","","","","","","","","","","","","",""
"","rating","","html-slider-response","17","84195","0.0-16.0","0","0","xLFBC","Scenes","","3966","","","","90","116","david-marcu-W5MhJ6cy1So-unsplash.jpg","13","","","","","","","","","","","","","","","","","","","","","","","","","","","","","","","","","","","","","","","",""
"","rating","","html-slider-response","18","87608","0.0-17.0","0","0","xLFBC","Scenes","","3410","","","","89","103","anton-darius-FBJugtbHsWU-unsplash.jpg","14","","","","","","","","","","","","","","","","","","","","","","","","","","","","","","","","","","","","","","","",""
"","rating","","html-slider-response","19","92210","0.0-18.0","0","0","xLFBC","Scenes","","4599","","","","90","134","milada-vigerova-pQMM63GE7fo-unsplash.jpg","15","","","","","","","","","","","","","","","","","","","","","","","","","","","","","","","","","","","","","","","",""
"","rating","","html-slider-response","20","95668","0.0-19.0","0","0","xLFBC","Scenes","","3455","","","","61","149","yuriy-bogdanov-W51VK3Obcj0-unsplash.jpg","16","","","","","","","","","","","","","","","","","","","","","","","","","","","","","","","","","","","","","","","",""
"","rating","","html-slider-response","21","98954","0.0-20.0","0","0","xLFBC","Scenes","","3283","","","","87","123","joel-jasmin-forestbird-efuwb5eBDrI-unsplash.jpg","17","","","","","","","","","","","","","","","","","","","","","","","","","","","","","","","","","","","","","","","",""
"","rating","","html-slider-response","22","102823","0.0-21.0","0","0","xLFBC","Scenes","","3866","","","","91","139","samsommer-vddccTqwal8-unsplash.jpg","18","","","","","","","","","","","","","","","","","","","","","","","","","","","","","","","","","","","","","","","",""
"","rating","","html-slider-response","23","106361","0.0-22.0","0","0","xLFBC","Scenes","","3535","","","","100","112","cosmic-timetraveler-pYyOZ8q7AII-unsplash.jpg","19","","","","","","","","","","","","","","","","","","","","","","","","","","","","","","","","","","","","","","","",""
"","rating","","html-slider-response","24","109687","0.0-23.0","0","0","xLFBC","Scenes","","3323","","","","87","114","daniel-sessler-z_9VmsxR8hs-unsplash.jpg","20","","","","","","","","","","","","","","","","","","","","","","","","","","","","","","","","","","","","","","","",""
"","rating","","html-slider-response","25","112881","0.0-24.0","0","0","xLFBC","Scenes","","3192","","","","81","130","lina-loos-04-C1NZk1hE-unsplash.jpg","21","","","","","","","","","","","","","","","","","","","","","","","","","","","","","","","","","","","","","","","",""
"","rating","","html-slider-response","26","115360","0.0-25.0","0","0","xLFBC","Scenes","","2475","","","","89","120","jarrett-kow-1ZOyYPOBn7I-unsplash.jpg","22","","","","","","","","","","","","","","","","","","","","","","","","","","","","","","","","","","","","","","","",""
"","rating","","html-slider-response","27","117818","0.0-26.0","0","0","xLFBC","Scenes","","2455","","","","90","146","thomas-morse-cuKKa0vWZSY-unsplash.jpg","23","","","","","","","","","","","","","","","","","","","","","","","","","","","","","","","","","","","","","","","",""
"","rating","","html-slider-response","28","120633","0.0-27.0","0","0","xLFBC","Scenes","","2812","","","","93","119","james-wheeler-AFC0XvICMgs-unsplash.jpg","24","","","","","","","","","","","","","","","","","","","","","","","","","","","","","","","","","","","","","","","",""
"","rating","","html-slider-response","29","124406","0.0-28.0","0","0","xLFBC","Scenes","","3770","","","","70","121","jean-pierre-brungs-qxCqkbF7tUc-unsplash.jpg","25","","","","","","","","","","","","","","","","","","","","","","","","","","","","","","","","","","","","","","","",""
"","rating","","html-slider-response","30","128088","0.0-29.0","0","0","xLFBC","Scenes","","3679","","","","95","142","sergey-pesterev-y-b_FOmJXdg-unsplash.jpg","26","","","","","","","","","","","","","","","","","","","","","","","","","","","","","","","","","","","","","","","",""
"","rating","","html-slider-response","31","130759","0.0-30.0","0","0","xLFBC","Scenes","","2669","","","","93","106","ashim-d-silva-WeYamle9fDM-unsplash.jpg","27","","","","","","","","","","","","","","","","","","","","","","","","","","","","","","","","","","","","","","","",""
"","rating","","html-slider-response","32","133482","0.0-31.0","0","0","xLFBC","Scenes","","2719","","","","87","147","tobias-keller-73F4pKoUkM0-unsplash.jpg","28","","","","","","","","","","","","","","","","","","","","","","","","","","","","","","","","","","","","","","","",""
"","rating","","html-slider-response","33","135520","0.0-32.0","0","0","xLFBC","Scenes","","2036","","","","90","117","frank-mckenna-OD9EOzfSOh0-unsplash.jpg","29","","","","","","","","","","","","","","","","","","","","","","","","","","","","","","","","","","","","","","","",""
"","rating","","html-slider-response","34","140173","0.0-33.0","0","0","xLFBC","Scenes","","4650","","","","79","104","artem-sapegin-XGDBdSQ70O0-unsplash.jpg","30","","","","","","","","","","","","","","","","","","","","","","","","","","","","","","","","","","","","","","","",""
"","rating","","html-slider-response","35","142716","0.0-34.0","0","0","xLFBC","Scenes","","2540","","","","84","143","sigurdur-fjalar-jonsson-1KxBabIntpE-unsplash.jpg","31","","","","","","","","","","","","","","","","","","","","","","","","","","","","","","","","","","","","","","","",""
"","rating","","html-slider-response","36","146829","0.0-35.0","0","0","xLFBC","Scenes","","4111","","","","72","133","mickey-o-neil-xL66l--msXU-unsplash.jpg","32","","","","","","","","","","","","","","","","","","","","","","","","","","","","","","","","","","","","","","","",""
"","rating","","html-slider-response","37","150175","0.0-36.0","0","0","xLFBC","Scenes","","3343","","","","60","111","claudio-testa-U3F2o6vz3bs-unsplash.jpg","33","","","","","","","","","","","","","","","","","","","","","","","","","","","","","","","","","","","","","","","",""
"","rating","","html-slider-response","38","152406","0.0-37.0","0","0","xLFBC","Scenes","","2228","","","","70","122","jeff-king-bJHWJeiHfHc-unsplash.jpg","34","","","","","","","","","","","","","","","","","","","","","","","","","","","","","","","","","","","","","","","",""
"","rating","","html-slider-response","39","155123","0.0-38.0","0","0","xLFBC","Scenes","","2715","","","","74","115","darrell-cassell-hoCXpPUMCoE-unsplash.jpg","35","","","","","","","","","","","","","","","","","","","","","","","","","","","","","","","","","","","","","","","",""
"","rating","","html-slider-response","40","157834","0.0-39.0","0","0","xLFBC","Scenes","","2707","","","","87","141","sebastian-unrau-v4e3JI7DDHI-unsplash.jpg","36","","","","","","","","","","","","","","","","","","","","","","","","","","","","","","","","","","","","","","","",""
"","rating","","html-slider-response","41","160460","0.0-40.0","0","0","xLFBC","Scenes","","2624","","","","97","148","tom-gainor-ZqLeQDjY6fY-unsplash.jpg","37","","","","","","","","","","","","","","","","","","","","","","","","","","","","","","","","","","","","","","","",""
"","rating","","html-slider-response","42","162922","0.0-41.0","0","0","xLFBC","Scenes","","2460","","","","99","108","benjamin-voros-phIFdC6lA4E-unsplash.jpg","38","","","","","","","","","","","","","","","","","","","","","","","","","","","","","","","","","","","","","","","",""
"","rating","","html-slider-response","43","165913","0.0-42.0","0","0","xLFBC","Scenes","","2989","","","","87","101","aniket-deole-T-tOgjWZ0fQ-unsplash.jpg","39","","","","","","","","","","","","","","","","","","","","","","","","","","","","","","","","","","","","","","","",""
"","rating","","html-slider-response","44","170117","0.0-43.0","0","0","xLFBC","Scenes","","4202","","","","62","135","mohammad-alizade-4wzRuAb-KWs-unsplash.jpg","40","","","","","","","","","","","","","","","","","","","","","","","","","","","","","","","","","","","","","","","",""
"","rating","","html-slider-response","45","172345","0.0-44.0","0","0","xLFBC","Scenes","","2224","","","","79","144","solotravelgoals-7kLufxYoqWk-unsplash.jpg","41","","","","","","","","","","","","","","","","","","","","","","","","","","","","","","","","","","","","","","","",""
"","rating","","html-slider-response","46","174535","0.0-45.0","0","0","xLFBC","Scenes","","2188","","","","67","100","aleksandra-boguslawska-MS7KD9Ti7FQ-unsplash.jpg","42","","","","","","","","","","","","","","","","","","","","","","","","","","","","","","","","","","","","","","","",""
"","rating","","html-slider-response","47","177884","0.0-46.0","0","0","xLFBC","Scenes","","3347","","","","66","126","jordan-mcqueen-PJCZOWuOxbU-unsplash.jpg","43","","","","","","","","","","","","","","","","","","","","","","","","","","","","","","","","","","","","","","","",""
"","rating","","html-slider-response","48","180095","0.0-47.0","0","0","xLFBC","Scenes","","2208","","","","68","118","henry-be-NLF6hTe4PAg-unsplash.jpg","44","","","","","","","","","","","","","","","","","","","","","","","","","","","","","","","","","","","","","","","",""
"","rating","","html-slider-response","49","184021","0.0-48.0","0","0","xLFBC","Scenes","","3922","","","","66","145","stephen-leonardi-gyIRjKPXupE-unsplash.jpg","45","","","","","","","","","","","","","","","","","","","","","","","","","","","","","","","","","","","","","","","",""
"","rating","","html-slider-response","50","187043","0.0-49.0","0","0","xLFBC","Scenes","","3019","","","","71","113","damian-denis-D8R_txR_0PE-unsplash.jpg","46","","","","","","","","","","","","","","","","","","","","","","","","","","","","","","","","","","","","","","","",""
"","rating","","html-slider-response","51","189178","0.0-50.0","0","0","xLFBC","Scenes","","2132","","","","78","128","karsten-wurth-jS0zC2PJ17A-unsplash.jpg","47","","","","","","","","","","","","","","","","","","","","","","","","","","","","","","","","","","","","","","","",""
"","rating","","html-slider-response","52","193028","0.0-51.0","0","0","xLFBC","Scenes","","3847","","","","47","107","benjamin-davies-Zm2n2O7Fph4-unsplash.jpg","48","","","","","","","","","","","","","","","","","","","","","","","","","","","","","","","","","","","","","","","",""
"","rating","","html-slider-response","53","195826","0.0-52.0","0","0","xLFBC","Scenes","","2796","","","","90","124","johannes-plenio-sPt5RIjKfpk-unsplash.jpg","49","","","","","","","","","","","","","","","","","","","","","","","","","","","","","","","","","","","","","","","",""
"","deliberation_instructions","","instructions","54","249393","0.0-53.0-0.0","0","0","xLFBC","Scenes","[{""page_index"":0,""viewing_time"":15122},{""page_index"":1,""viewing_time"":14224},{""page_index"":2,""viewing_time"":7482},{""page_index"":3,""viewing_time"":14105},{""page_index"":4,""viewing_time"":2629}]","53562","","","","","","","","","","","","","","","","","","","","","","","","","","","","","","","","","","","","","","","","","","","","","","",""
"","deliberation_comprehension_check","","survey-multi-choice","55","275310","0.0-53.0-1.0","0","0","xLFBC","Scenes","","25907","{""Q0"":""True"",""Q1"":""True"",""Q2"":""Consider carefully and take your time (up to 10 seconds)"",""Q3"":""False"",""Q4"":""D""}","1","","","","","","","","","","","","","","","","","","","","","","","","","","","","","","","","","","","","","","","","","","","","",""
"","missed_instruction_checkup","","html-keyboard-response","56","280146","0.0-53.0-2.0-0.0","0","1","xLFBC","Scenes","","4832","","","78","","","","","","","","","","","","","","","","","","","","","","","","","","","","","","","","","","","","","","","","","","","",""
"","deliberation_instructions","","instructions","57","306483","0.0-53.1-0.1","0","0","xLFBC","Scenes","[{""page_index"":0,""viewing_time"":13085},{""page_index"":1,""viewing_time"":3798},{""page_index"":2,""viewing_time"":3573},{""page_index"":3,""viewing_time"":4697},{""page_index"":4,""viewing_time"":1180}]","26334","","","","","","","","","","","","","","","","","","","","","","","","","","","","","","","","","","","","","","","","","","","","","","",""
"","deliberation_comprehension_check","","survey-multi-choice","58","367564","0.0-53.1-1.1","0","0","xLFBC","Scenes","","61065","{""Q0"":""False"",""Q1"":""True"",""Q2"":""Consider carefully and take your time (up to 10 seconds)"",""Q3"":""False"",""Q4"":""D""}","1","","","","","","","","","","","","","","","","","","","","","","","","","","","","","","","","","","","","","","","","","","","","",""
"","missed_instruction_checkup","","html-keyboard-response","59","369998","0.0-53.1-2.1-0.1","0","1","xLFBC","Scenes","","2431","","","78","","","","","","","","","","","","","","","","","","","","","","","","","","","","","","","","","","","","","","","","","","","",""
"","deliberation_instructions","","instructions","60","384310","0.0-53.2-0.2","0","0","xLFBC","Scenes","[{""page_index"":0,""viewing_time"":2338},{""page_index"":1,""viewing_time"":696},{""page_index"":2,""viewing_time"":8772},{""page_index"":3,""viewing_time"":1312},{""page_index"":4,""viewing_time"":1192}]","14310","","","","","","","","","","","","","","","","","","","","","","","","","","","","","","","","","","","","","","","","","","","","","","",""
"","deliberation_comprehension_check","","survey-multi-choice","61","397108","0.0-53.2-1.2","0","0","xLFBC","Scenes","","12790","{""Q0"":""False"",""Q1"":""True"",""Q2"":""Consider carefully and take your time (up to 10 seconds)"",""Q3"":""True"",""Q4"":""D""}","1","","","","","","","","","","","","","","","","","","","","","","","","","","","","","","","","","","","","","","","","","","","","",""
"","missed_instruction_checkup","","html-keyboard-response","62","398599","0.0-53.2-2.2-0.2","0","1","xLFBC","Scenes","","1488","","","78","","","","","","","","","","","","","","","","","","","","","","","","","","","","","","","","","","","","","","","","","","","",""
"","deliberation_instructions","","instructions","63","404063","0.0-53.3-0.3","0","0","xLFBC","Scenes","[{""page_index"":0,""viewing_time"":1290},{""page_index"":1,""viewing_time"":823},{""page_index"":2,""viewing_time"":592},{""page_index"":3,""viewing_time"":1375},{""page_index"":4,""viewing_time"":1383}]","5463","","","","","","","","","","","","","","","","","","","","","","","","","","","","","","","","","","","","","","","","","","","","","","",""
"","deliberation_comprehension_check","","survey-multi-choice","64","419570","0.0-53.3-1.3","0","0","xLFBC","Scenes","","15493","{""Q0"":""True"",""Q1"":""True"",""Q2"":""Consider carefully and take your time (up to 10 seconds)"",""Q3"":""True"",""Q4"":""D""}","0","","","","","","","","","","","","","","","","","","","","","","","","","","","","","","","","","","","","","","","","","","","","",""
"","start_phase","","html-keyboard-response","65","428034","0.0-54.0","0","0","xLFBC","Scenes","","8462","","","78","","","","","","","","","","","","","","","","","","","","","","","","","","","","","","","","","","","","","","","","","","","",""
"","first_deliberation_block","","html-keyboard-response","66","429769","0.0-55.0","0","0","xLFBC","Scenes","","1734","","","78","","","","","","","","","","","","","","","","","","","","","","","","","","","","","","","","","","","","","","","","","","","",""
"","fixation","","html-keyboard-response","67","430780","0.0-56.0-0.0","0","0","xLFBC","Scenes","","null","","","null","","","","","","","","","","","","","","","","","","","","","","","","","","","","","","","","","","","","","","","","","","","",""
"","deliberation","","html-keyboard-response","68","433485","0.0-56.0-1.0","0","0","xLFBC","Scenes","","2703","","","75","","","","0","102","123","1","1","80","87","anisur-rahman-K2b7UDed6uQ-unsplash.jpg","joel-jasmin-forestbird-efuwb5eBDrI-unsplash.jpg","1","0","123","102","","","","","","","","","","","","","","","","","","","","","","","","","","","",""
"","choice_confirmation","","html-keyboard-response","69","433993","0.0-56.0-2.0-0.0","0","0","xLFBC","Scenes","","null","","","null","","","","0","102","123","","","","","","","","","","","","","","","","","","","","","","","","","","","","","","","","","","","","","",""
"","explain_trial","","survey-text","70","456060","0.0-56.0-5.0-0.0","0","0","xLFBC","Scenes","","22063","{""Q0"":""It looks more majestic than the left picture""}","","","","","","0","102","123","","","","","","","","","","","{""Q0"":""It looks more majestic than the left picture""}","","","","","","","","","","","","","","","","","","","","","","","","","","",""
"","fixation","","html-keyboard-response","71","457065","0.0-57.0-0.0","0","0","xLFBC","Scenes","","null","","","null","","","","","","","","","","","","","","","","","","","","","","","","","","","","","","","","","","","","","","","","","","","",""
"","deliberation","","html-keyboard-response","72","463834","0.0-57.0-1.0","0","0","xLFBC","Scenes","","6767","","","75","","","","1","144","137","0","-1","79","86","solotravelgoals-7kLufxYoqWk-unsplash.jpg","olga-stalska-QaWRyEdlffY-unsplash.jpg","1","0","137","144","","","","","","","","","","","","","","","","","","","","","","","","","","","",""
"","choice_confirmation","","html-keyboard-response","73","464338","0.0-57.0-2.0-0.0","0","0","xLFBC","Scenes","","null","","","null","","","","1","144","137","","","","","","","","","","","","","","","","","","","","","","","","","","","","","","","","","","","","","",""
"","fixation","","html-keyboard-response","74","465346","0.0-58.0-0.0","0","0","xLFBC","Scenes","","null","","","null","","","","","","","","","","","","","","","","","","","","","","","","","","","","","","","","","","","","","","","","","","","",""
"","deliberation","","html-keyboard-response","75","468447","0.0-58.0-1.0","0","0","xLFBC","Scenes","","3099","","","68","","","","2","132","143","1","-1","87","84","meng-ji-8BH_M-53CyA-unsplash.jpg","sigurdur-fjalar-jonsson-1KxBabIntpE-unsplash.jpg","1","1","132","143","","","","","","","","","","","","","","","","","","","","","","","","","","","",""
"","choice_confirmation","","html-keyboard-response","76","468956","0.0-58.0-2.0-0.0","0","0","xLFBC","Scenes","","null","","","null","","","","2","132","143","","","","","","","","","","","","","","","","","","","","","","","","","","","","","","","","","","","","","",""
"","explain_trial","","survey-text","77","492609","0.0-58.0-5.0-0.0","0","0","xLFBC","Scenes","","23651","{""Q0"":""The blue color schematic looks more beautfiul""}","","","","","","2","132","143","","","","","","","","","","","{""Q0"":""The blue color schematic looks more beautfiul""}","","","","","","","","","","","","","","","","","","","","","","","","","","",""
"","fixation","","html-keyboard-response","78","493617","0.0-59.0-0.0","0","0","xLFBC","Scenes","","null","","","null","","","","","","","","","","","","","","","","","","","","","","","","","","","","","","","","","","","","","","","","","","","",""
"","deliberation","","html-keyboard-response","79","496944","0.0-59.0-1.0","0","0","xLFBC","Scenes","","3323","","","68","","","","3","109","104","0","1","87","79","brigitta-schneiter-hXXRLtTxXCU-unsplash.jpg","artem-sapegin-XGDBdSQ70O0-unsplash.jpg","1","1","109","104","","","","","","","","","","","","","","","","","","","","","","","","","","","",""
"","choice_confirmation","","html-keyboard-response","80","497455","0.0-59.0-2.0-0.0","0","0","xLFBC","Scenes","","null","","","null","","","","3","109","104","","","","","","","","","","","","","","","","","","","","","","","","","","","","","","","","","","","","","",""
"","fixation","","html-keyboard-response","81","498461","0.0-60.0-0.0","0","0","xLFBC","Scenes","","null","","","null","","","","","","","","","","","","","","","","","","","","","","","","","","","","","","","","","","","","","","","","","","","",""
"","deliberation","","html-keyboard-response","82","502032","0.0-60.0-1.0","0","0","xLFBC","Scenes","","3569","","","68","","","","4","101","129","1","-1","87","89","aniket-deole-T-tOgjWZ0fQ-unsplash.jpg","kurt-cotoaga-cqbLg3lZEpk-unsplash.jpg","1","1","101","129","","","","","","","","","","","","","","","","","","","","","","","","","","","",""
"","choice_confirmation","","html-keyboard-response","83","502543","0.0-60.0-2.0-0.0","0","0","xLFBC","Scenes","","null","","","null","","","","4","101","129","","","","","","","","","","","","","","","","","","","","","","","","","","","","","","","","","","","","","",""
"","explain_trial","","survey-text","84","520081","0.0-60.0-5.0-0.0","0","0","xLFBC","Scenes","","17535","{""Q0"":""Contains beautiful foliage""}","","","","","","4","101","129","","","","","","","","","","","{""Q0"":""Contains beautiful foliage""}","","","","","","","","","","","","","","","","","","","","","","","","","","",""
"","fixation","","html-keyboard-response","85","521092","0.0-61.0-0.0","0","0","xLFBC","Scenes","","null","","","null","","","","","","","","","","","","","","","","","","","","","","","","","","","","","","","","","","","","","","","","","","","",""
"","deliberation","","html-keyboard-response","86","524611","0.0-61.0-1.0","0","0","xLFBC","Scenes","","3516","","","75","","","","5","131","136","0","-1","90","84","luca-bravo-hFzIoD0F_i8-unsplash.jpg","nicolas-jehly-LzVB84KkZOE-unsplash.jpg","1","0","136","131","","","","","","","","","","","","","","","","","","","","","","","","","","","",""
"","choice_confirmation","","html-keyboard-response","87","525116","0.0-61.0-2.0-0.0","0","0","xLFBC","Scenes","","null","","","null","","","","5","131","136","","","","","","","","","","","","","","","","","","","","","","","","","","","","","","","","","","","","","",""
"","fixation","","html-keyboard-response","88","526127","0.0-62.0-0.0","0","0","xLFBC","Scenes","","null","","","null","","","","","","","","","","","","","","","","","","","","","","","","","","","","","","","","","","","","","","","","","","","",""
"","deliberation","","html-keyboard-response","89","528750","0.0-62.0-1.0","0","0","xLFBC","Scenes","","2621","","","75","","","","6","141","140","0","1","87","87","sebastian-unrau-v4e3JI7DDHI-unsplash.jpg","samuele-errico-piccarini-JEBqFu2AOOA-unsplash.jpg","1","0","140","141","","","","","","","","","","","","","","","","","","","","","","","","","","","",""
"","choice_confirmation","","html-keyboard-response","90","529256","0.0-62.0-2.0-0.0","0","0","xLFBC","Scenes","","null","","","null","","","","6","141","140","","","","","","","","","","","","","","","","","","","","","","","","","","","","","","","","","","","","","",""
"","fixation","","html-keyboard-response","91","530261","0.0-63.0-0.0","0","0","xLFBC","Scenes","","null","","","null","","","","","","","","","","","","","","","","","","","","","","","","","","","","","","","","","","","","","","","","","","","",""
"","deliberation","","html-keyboard-response","92","532093","0.0-63.0-1.0","0","0","xLFBC","Scenes","","1829","","","68","","","","7","128","110","1","-1","78","86","karsten-wurth-jS0zC2PJ17A-unsplash.jpg","bruno-van-der-kraan-qez8mNJ3ilU-unsplash.jpg","1","1","128","110","","","","","","","","","","","","","","","","","","","","","","","","","","","",""
"","choice_confirmation","","html-keyboard-response","93","532600","0.0-63.0-2.0-0.0","0","0","xLFBC","Scenes","","null","","","null","","","","7","128","110","","","","","","","","","","","","","","","","","","","","","","","","","","","","","","","","","","","","","",""
"","explain_trial","","survey-text","94","565069","0.0-63.0-5.0-0.0","0","0","xLFBC","Scenes","","32467","{""Q0"":""Vibrant beautiful colors. The purple skies are beautiful""}","","","","","","7","128","110","","","","","","","","","","","{""Q0"":""Vibrant beautiful colors. The purple skies are beautiful""}","","","","","","","","","","","","","","","","","","","","","","","","","","",""
"","fixation","","html-keyboard-response","95","566081","0.0-64.0-0.0","0","0","xLFBC","Scenes","","null","","","null","","","","","","","","","","","","","","","","","","","","","","","","","","","","","","","","","","","","","","","","","","","",""
"","deliberation","","html-keyboard-response","96","567720","0.0-64.0-1.0","0","0","xLFBC","Scenes","","1636","","","75","","","","8","114","130","1","1","87","81","daniel-sessler-z_9VmsxR8hs-unsplash.jpg","lina-loos-04-C1NZk1hE-unsplash.jpg","1","0","130","114","","","","","","","","","","","","","","","","","","","","","","","","","","","",""
"","choice_confirmation","","html-keyboard-response","97","568225","0.0-64.0-2.0-0.0","0","0","xLFBC","Scenes","","null","","","null","","","","8","114","130","","","","","","","","","","","","","","","","","","","","","","","","","","","","","","","","","","","","","",""
"","explain_trial","","survey-text","98","584598","0.0-64.0-5.0-0.0","0","0","xLFBC","Scenes","","16369","{""Q0"":""A lot more going on in the right picture""}","","","","","","8","114","130","","","","","","","","","","","{""Q0"":""A lot more going on in the right picture""}","","","","","","","","","","","","","","","","","","","","","","","","","","",""
"","fixation","","html-keyboard-response","99","585608","0.0-65.0-0.0","0","0","xLFBC","Scenes","","null","","","null","","","","","","","","","","","","","","","","","","","","","","","","","","","","","","","","","","","","","","","","","","","",""
"","deliberation","","html-keyboard-response","100","588094","0.0-65.0-1.0","0","0","xLFBC","Scenes","","2483","","","75","","","","9","138","103","0","1","79","89","petr-vysohlid-9fqwGqGLUxc-unsplash.jpg","anton-darius-FBJugtbHsWU-unsplash.jpg","1","0","103","138","","","","","","","","","","","","","","","","","","","","","","","","","","","",""
"","choice_confirmation","","html-keyboard-response","101","588597","0.0-65.0-2.0-0.0","0","0","xLFBC","Scenes","","null","","","null","","","","9","138","103","","","","","","","","","","","","","","","","","","","","","","","","","","","","","","","","","","","","","",""
"","fixation","","html-keyboard-response","102","589606","0.0-66.0-0.0","0","0","xLFBC","Scenes","","null","","","null","","","","","","","","","","","","","","","","","","","","","","","","","","","","","","","","","","","","","","","","","","","",""
"","deliberation","","html-keyboard-response","103","591709","0.0-66.0-1.0","0","0","xLFBC","Scenes","","2101","","","75","","","","10","116","147","1","1","90","87","david-marcu-W5MhJ6cy1So-unsplash.jpg","tobias-keller-73F4pKoUkM0-unsplash.jpg","1","0","147","116","","","","","","","","","","","","","","","","","","","","","","","","","","","",""
"","choice_confirmation","","html-keyboard-response","104","592218","0.0-66.0-2.0-0.0","0","0","xLFBC","Scenes","","null","","","null","","","","10","116","147","","","","","","","","","","","","","","","","","","","","","","","","","","","","","","","","","","","","","",""
"","explain_trial","","survey-text","105","609366","0.0-66.0-5.0-0.0","0","0","xLFBC","Scenes","","17146","{""Q0"":""Mountains with a body of water is more interesting""}","","","","","","10","116","147","","","","","","","","","","","{""Q0"":""Mountains with a body of water is more interesting""}","","","","","","","","","","","","","","","","","","","","","","","","","","",""
"","fixation","","html-keyboard-response","106","610378","0.0-67.0-0.0","0","0","xLFBC","Scenes","","null","","","null","","","","","","","","","","","","","","","","","","","","","","","","","","","","","","","","","","","","","","","","","","","",""
"","deliberation","","html-keyboard-response","107","612865","0.0-67.0-1.0","0","0","xLFBC","Scenes","","2484","","","75","","","","11","115","120","0","-1","74","89","darrell-cassell-hoCXpPUMCoE-unsplash.jpg","jarrett-kow-1ZOyYPOBn7I-unsplash.jpg","1","0","120","115","","","","","","","","","","","","","","","","","","","","","","","","","","","",""
"","choice_confirmation","","html-keyboard-response","108","613374","0.0-67.0-2.0-0.0","0","0","xLFBC","Scenes","","null","","","null","","","","11","115","120","","","","","","","","","","","","","","","","","","","","","","","","","","","","","","","","","","","","","",""
"","practice_deliberation_again","","html-keyboard-response","109","617912","0.0-67.0-6.0-0.0","0","0","xLFBC","Scenes","","4536","","","78","","","","","","","","","","","","","","","","","","","","","","","","","","","","","","","","","","","","","","","","","","","",""
"","fixation","","html-keyboard-response","110","618921","0.0-68.0-0.0","0","0","xLFBC","Scenes","","null","","","null","","","","","","","","","","","","","","","","","","","","","","","","","","","","","","","","","","","","","","","","","","","",""
"","deliberation","","html-keyboard-response","111","621144","0.0-68.0-1.0","0","0","xLFBC","Scenes","","2221","","","68","","","","12","132","143","0","-1","87","84","meng-ji-8BH_M-53CyA-unsplash.jpg","sigurdur-fjalar-jonsson-1KxBabIntpE-unsplash.jpg","2","1","132","143","","","","","","","","","","","","","","","","","","","","","","","","","","","",""
"","choice_confirmation","","html-keyboard-response","112","621654","0.0-68.0-2.0-0.0","0","0","xLFBC","Scenes","","null","","","null","","","","12","132","143","","","","","","","","","","","","","","","","","","","","","","","","","","","","","","","","","","","","","",""
"","fixation","","html-keyboard-response","113","622667","0.0-69.0-0.0","0","0","xLFBC","Scenes","","null","","","null","","","","","","","","","","","","","","","","","","","","","","","","","","","","","","","","","","","","","","","","","","","",""
"","deliberation","","html-keyboard-response","114","623965","0.0-69.0-1.0","0","0","xLFBC","Scenes","","1296","","","75","","","","13","131","136","1","-1","90","84","luca-bravo-hFzIoD0F_i8-unsplash.jpg","nicolas-jehly-LzVB84KkZOE-unsplash.jpg","2","0","136","131","","","","","","","","","","","","","","","","","","","","","","","","","","","",""
"","choice_confirmation","","html-keyboard-response","115","624475","0.0-69.0-2.0-0.0","0","0","xLFBC","Scenes","","null","","","null","","","","13","131","136","","","","","","","","","","","","","","","","","","","","","","","","","","","","","","","","","","","","","",""
"","explain_trial","","survey-text","116","656511","0.0-69.0-5.0-0.0","0","0","xLFBC","Scenes","","32034","{""Q0"":""Sand desert is quite the scenery ""}","","","","","","13","131","136","","","","","","","","","","","{""Q0"":""Sand desert is quite the scenery ""}","","","","","","","","","","","","","","","","","","","","","","","","","","",""
"","fixation","","html-keyboard-response","117","657518","0.0-70.0-0.0","0","0","xLFBC","Scenes","","null","","","null","","","","","","","","","","","","","","","","","","","","","","","","","","","","","","","","","","","","","","","","","","","",""
"","deliberation","","html-keyboard-response","118","659080","0.0-70.0-1.0","0","0","xLFBC","Scenes","","1560","","","75","","","","14","102","123","0","1","80","87","anisur-rahman-K2b7UDed6uQ-unsplash.jpg","joel-jasmin-forestbird-efuwb5eBDrI-unsplash.jpg","2","0","123","102","","","","","","","","","","","","","","","","","","","","","","","","","","","",""
"","choice_confirmation","","html-keyboard-response","119","659588","0.0-70.0-2.0-0.0","0","0","xLFBC","Scenes","","null","","","null","","","","14","102","123","","","","","","","","","","","","","","","","","","","","","","","","","","","","","","","","","","","","","",""
"","fixation","","html-keyboard-response","120","660596","0.0-71.0-0.0","0","0","xLFBC","Scenes","","null","","","null","","","","","","","","","","","","","","","","","","","","","","","","","","","","","","","","","","","","","","","","","","","",""
"","deliberation","","html-keyboard-response","121","663272","0.0-71.0-1.0","0","0","xLFBC","Scenes","","2673","","","75","","","","15","144","137","1","-1","79","86","solotravelgoals-7kLufxYoqWk-unsplash.jpg","olga-stalska-QaWRyEdlffY-unsplash.jpg","2","0","137","144","","","","","","","","","","","","","","","","","","","","","","","","","","","",""
"","choice_confirmation","","html-keyboard-response","122","663780","0.0-71.0-2.0-0.0","0","0","xLFBC","Scenes","","null","","","null","","","","15","144","137","","","","","","","","","","","","","","","","","","","","","","","","","","","","","","","","","","","","","",""
"","explain_trial","","survey-text","123","682343","0.0-71.0-5.0-0.0","0","0","xLFBC","Scenes","","18560","{""Q0"":""Mountains with a beautiful body of water""}","","","","","","15","144","137","","","","","","","","","","","{""Q0"":""Mountains with a beautiful body of water""}","","","","","","","","","","","","","","","","","","","","","","","","","","",""
"","fixation","","html-keyboard-response","124","683353","0.0-72.0-0.0","0","0","xLFBC","Scenes","","null","","","null","","","","","","","","","","","","","","","","","","","","","","","","","","","","","","","","","","","","","","","","","","","",""
"","deliberation","","html-keyboard-response","125","685507","0.0-72.0-1.0","0","0","xLFBC","Scenes","","2151","","","75","","","","16","114","130","0","1","87","81","daniel-sessler-z_9VmsxR8hs-unsplash.jpg","lina-loos-04-C1NZk1hE-unsplash.jpg","2","0","130","114","","","","","","","","","","","","","","","","","","","","","","","","","","","",""
"","choice_confirmation","","html-keyboard-response","126","686013","0.0-72.0-2.0-0.0","0","0","xLFBC","Scenes","","null","","","null","","","","16","114","130","","","","","","","","","","","","","","","","","","","","","","","","","","","","","","","","","","","","","",""
"","fixation","","html-keyboard-response","127","687026","0.0-73.0-0.0","0","0","xLFBC","Scenes","","null","","","null","","","","","","","","","","","","","","","","","","","","","","","","","","","","","","","","","","","","","","","","","","","",""
"","deliberation","","html-keyboard-response","128","688659","0.0-73.0-1.0","0","0","xLFBC","Scenes","","1631","","","75","","","","17","141","140","1","1","87","87","sebastian-unrau-v4e3JI7DDHI-unsplash.jpg","samuele-errico-piccarini-JEBqFu2AOOA-unsplash.jpg","2","0","140","141","","","","","","","","","","","","","","","","","","","","","","","","","","","",""
"","choice_confirmation","","html-keyboard-response","129","689170","0.0-73.0-2.0-0.0","0","0","xLFBC","Scenes","","null","","","null","","","","17","141","140","","","","","","","","","","","","","","","","","","","","","","","","","","","","","","","","","","","","","",""
"","explain_trial","","survey-text","130","704169","0.0-73.0-5.0-0.0","0","0","xLFBC","Scenes","","14997","{""Q0"":""Right photo looks more majestic ""}","","","","","","17","141","140","","","","","","","","","","","{""Q0"":""Right photo looks more majestic ""}","","","","","","","","","","","","","","","","","","","","","","","","","","",""
"","fixation","","html-keyboard-response","131","705174","0.0-74.0-0.0","0","0","xLFBC","Scenes","","null","","","null","","","","","","","","","","","","","","","","","","","","","","","","","","","","","","","","","","","","","","","","","","","",""
"","deliberation","","html-keyboard-response","132","706900","0.0-74.0-1.0","0","0","xLFBC","Scenes","","1723","","","75","","","","18","116","147","0","1","90","87","david-marcu-W5MhJ6cy1So-unsplash.jpg","tobias-keller-73F4pKoUkM0-unsplash.jpg","2","0","147","116","","","","","","","","","","","","","","","","","","","","","","","","","","","",""
"","choice_confirmation","","html-keyboard-response","133","707405","0.0-74.0-2.0-0.0","0","0","xLFBC","Scenes","","null","","","null","","","","18","116","147","","","","","","","","","","","","","","","","","","","","","","","","","","","","","","","","","","","","","",""
"","fixation","","html-keyboard-response","134","708408","0.0-75.0-0.0","0","0","xLFBC","Scenes","","null","","","null","","","","","","","","","","","","","","","","","","","","","","","","","","","","","","","","","","","","","","","","","","","",""
"","deliberation","","html-keyboard-response","135","709598","0.0-75.0-1.0","0","0","xLFBC","Scenes","","1188","","","75","","","","19","115","120","1","-1","74","89","darrell-cassell-hoCXpPUMCoE-unsplash.jpg","jarrett-kow-1ZOyYPOBn7I-unsplash.jpg","2","0","120","115","","","","","","","","","","","","","","","","","","","","","","","","","","","",""
"","choice_confirmation","","html-keyboard-response","136","710106","0.0-75.0-2.0-0.0","0","0","xLFBC","Scenes","","null","","","null","","","","19","115","120","","","","","","","","","","","","","","","","","","","","","","","","","","","","","","","","","","","","","",""
"","explain_trial","","survey-text","137","732931","0.0-75.0-5.0-0.0","0","0","xLFBC","Scenes","","22823","{""Q0"":""Red foliage against water is very beautiful""}","","","","","","19","115","120","","","","","","","","","","","{""Q0"":""Red foliage against water is very beautiful""}","","","","","","","","","","","","","","","","","","","","","","","","","","",""
"","fixation","","html-keyboard-response","138","733938","0.0-76.0-0.0","0","0","xLFBC","Scenes","","null","","","null","","","","","","","","","","","","","","","","","","","","","","","","","","","","","","","","","","","","","","","","","","","",""
"","deliberation","","html-keyboard-response","139","735213","0.0-76.0-1.0","0","0","xLFBC","Scenes","","1273","","","68","","","","20","128","110","0","-1","78","86","karsten-wurth-jS0zC2PJ17A-unsplash.jpg","bruno-van-der-kraan-qez8mNJ3ilU-unsplash.jpg","2","1","128","110","","","","","","","","","","","","","","","","","","","","","","","","","","","",""
"","choice_confirmation","","html-keyboard-response","140","735718","0.0-76.0-2.0-0.0","0","0","xLFBC","Scenes","","null","","","null","","","","20","128","110","","","","","","","","","","","","","","","","","","","","","","","","","","","","","","","","","","","","","",""
"","fixation","","html-keyboard-response","141","736725","0.0-77.0-0.0","0","0","xLFBC","Scenes","","null","","","null","","","","","","","","","","","","","","","","","","","","","","","","","","","","","","","","","","","","","","","","","","","",""
"","deliberation","","html-keyboard-response","142","738466","0.0-77.0-1.0","0","0","xLFBC","Scenes","","1739","","","68","","","","21","101","129","0","-1","87","89","aniket-deole-T-tOgjWZ0fQ-unsplash.jpg","kurt-cotoaga-cqbLg3lZEpk-unsplash.jpg","2","1","101","129","","","","","","","","","","","","","","","","","","","","","","","","","","","",""
"","choice_confirmation","","html-keyboard-response","143","738970","0.0-77.0-2.0-0.0","0","0","xLFBC","Scenes","","null","","","null","","","","21","101","129","","","","","","","","","","","","","","","","","","","","","","","","","","","","","","","","","","","","","",""
"","fixation","","html-keyboard-response","144","739977","0.0-78.0-0.0","0","0","xLFBC","Scenes","","null","","","null","","","","","","","","","","","","","","","","","","","","","","","","","","","","","","","","","","","","","","","","","","","",""
"","deliberation","","html-keyboard-response","145","741325","0.0-78.0-1.0","0","0","xLFBC","Scenes","","1345","","","68","","","","22","109","104","1","1","87","79","brigitta-schneiter-hXXRLtTxXCU-unsplash.jpg","artem-sapegin-XGDBdSQ70O0-unsplash.jpg","2","1","109","104","","","","","","","","","","","","","","","","","","","","","","","","","","","",""
"","choice_confirmation","","html-keyboard-response","146","741830","0.0-78.0-2.0-0.0","0","0","xLFBC","Scenes","","null","","","null","","","","22","109","104","","","","","","","","","","","","","","","","","","","","","","","","","","","","","","","","","","","","","",""
"","explain_trial","","survey-text","147","760321","0.0-78.0-5.0-0.0","0","0","xLFBC","Scenes","","18487","{""Q0"":""Mountains with clean blue water is more beautiful""}","","","","","","22","109","104","","","","","","","","","","","{""Q0"":""Mountains with clean blue water is more beautiful""}","","","","","","","","","","","","","","","","","","","","","","","","","","",""
"","fixation","","html-keyboard-response","148","761328","0.0-79.0-0.0","0","0","xLFBC","Scenes","","null","","","null","","","","","","","","","","","","","","","","","","","","","","","","","","","","","","","","","","","","","","","","","","","",""
"","deliberation","","html-keyboard-response","149","763831","0.0-79.0-1.0","0","0","xLFBC","Scenes","","2501","","","75","","","","23","138","103","1","1","79","89","petr-vysohlid-9fqwGqGLUxc-unsplash.jpg","anton-darius-FBJugtbHsWU-unsplash.jpg","2","0","103","138","","","","","","","","","","","","","","","","","","","","","","","","","","","",""
"","choice_confirmation","","html-keyboard-response","150","764342","0.0-79.0-2.0-0.0","0","0","xLFBC","Scenes","","null","","","null","","","","23","138","103","","","","","","","","","","","","","","","","","","","","","","","","","","","","","","","","","","","","","",""
"","explain_trial","","survey-text","151","782663","0.0-79.0-5.0-0.0","0","0","xLFBC","Scenes","","18317","{""Q0"":""Green mountains with depth is amazing""}","","","","","","23","138","103","","","","","","","","","","","{""Q0"":""Green mountains with depth is amazing""}","","","","","","","","","","","","","","","","","","","","","","","","","","",""
"","start_critical_deliberation_block","","html-keyboard-response","152","785772","0.0-79.0-7.0-0.0","0","0","xLFBC","Scenes","","3107","","","78","","","","","","","","","","","","","","","","","","","","","","","","","","","","","","","","","","","","","","","","","","","",""
"","fixation","","html-keyboard-response","153","786784","0.0-80.0-0.0","0","0","xLFBC","Scenes","","null","","","null","","","","","","","","","","","","","","","","","","","","","","","","","","","","","","","","","","","","","","","","","","","",""
"","deliberation","","html-keyboard-response","154","788023","0.0-80.0-1.0","0","0","xLFBC","Scenes","","1237","","","75","","","","24","116","147","0","1","90","87","david-marcu-W5MhJ6cy1So-unsplash.jpg","tobias-keller-73F4pKoUkM0-unsplash.jpg","3","0","147","116","","","","","","","","","","","","","","","","","","","","","","","","","","","",""
"","choice_confirmation","","html-keyboard-response","155","788531","0.0-80.0-2.0-0.0","0","0","xLFBC","Scenes","","null","","","null","","","","24","116","147","","","","","","","","","","","","","","","","","","","","","","","","","","","","","","","","","","","","","",""
"","fixation","","html-keyboard-response","156","789544","0.0-81.0-0.0","0","0","xLFBC","Scenes","","null","","","null","","","","","","","","","","","","","","","","","","","","","","","","","","","","","","","","","","","","","","","","","","","",""
"","deliberation","","html-keyboard-response","157","790265","0.0-81.0-1.0","0","0","xLFBC","Scenes","","719","","","75","","","","25","115","120","0","-1","74","89","darrell-cassell-hoCXpPUMCoE-unsplash.jpg","jarrett-kow-1ZOyYPOBn7I-unsplash.jpg","3","0","120","115","","","","","","","","","","","","","","","","","","","","","","","","","","","",""
"","choice_confirmation","","html-keyboard-response","158","790772","0.0-81.0-2.0-0.0","0","0","xLFBC","Scenes","","null","","","null","","","","25","115","120","","","","","","","","","","","","","","","","","","","","","","","","","","","","","","","","","","","","","",""
"","fixation","","html-keyboard-response","159","791779","0.0-82.0-0.0","0","0","xLFBC","Scenes","","null","","","null","","","","","","","","","","","","","","","","","","","","","","","","","","","","","","","","","","","","","","","","","","","",""
"","deliberation","","html-keyboard-response","160","792949","0.0-82.0-1.0","0","0","xLFBC","Scenes","","1168","","","68","","","","26","101","129","0","-1","87","89","aniket-deole-T-tOgjWZ0fQ-unsplash.jpg","kurt-cotoaga-cqbLg3lZEpk-unsplash.jpg","3","1","101","129","","","","","","","","","","","","","","","","","","","","","","","","","","","",""
"","choice_confirmation","","html-keyboard-response","161","793456","0.0-82.0-2.0-0.0","0","0","xLFBC","Scenes","","null","","","null","","","","26","101","129","","","","","","","","","","","","","","","","","","","","","","","","","","","","","","","","","","","","","",""
"","fixation","","html-keyboard-response","162","794464","0.0-83.0-0.0","0","0","xLFBC","Scenes","","null","","","null","","","","","","","","","","","","","","","","","","","","","","","","","","","","","","","","","","","","","","","","","","","",""
"","deliberation","","html-keyboard-response","163","795773","0.0-83.0-1.0","0","0","xLFBC","Scenes","","1307","","","75","","","","27","144","137","0","-1","79","86","solotravelgoals-7kLufxYoqWk-unsplash.jpg","olga-stalska-QaWRyEdlffY-unsplash.jpg","3","0","137","144","","","","","","","","","","","","","","","","","","","","","","","","","","","",""
"","choice_confirmation","","html-keyboard-response","164","796280","0.0-83.0-2.0-0.0","0","0","xLFBC","Scenes","","null","","","null","","","","27","144","137","","","","","","","","","","","","","","","","","","","","","","","","","","","","","","","","","","","","","",""
"","fixation","","html-keyboard-response","165","797287","0.0-84.0-0.0","0","0","xLFBC","Scenes","","null","","","null","","","","","","","","","","","","","","","","","","","","","","","","","","","","","","","","","","","","","","","","","","","",""
"","deliberation","","html-keyboard-response","166","798391","0.0-84.0-1.0","0","0","xLFBC","Scenes","","1102","","","75","","","","28","102","123","0","1","80","87","anisur-rahman-K2b7UDed6uQ-unsplash.jpg","joel-jasmin-forestbird-efuwb5eBDrI-unsplash.jpg","3","0","123","102","","","","","","","","","","","","","","","","","","","","","","","","","","","",""
"","choice_confirmation","","html-keyboard-response","167","798904","0.0-84.0-2.0-0.0","0","0","xLFBC","Scenes","","null","","","null","","","","28","102","123","","","","","","","","","","","","","","","","","","","","","","","","","","","","","","","","","","","","","",""
"","fixation","","html-keyboard-response","168","799912","0.0-85.0-0.0","0","0","xLFBC","Scenes","","null","","","null","","","","","","","","","","","","","","","","","","","","","","","","","","","","","","","","","","","","","","","","","","","",""
"","deliberation","","html-keyboard-response","169","800732","0.0-85.0-1.0","0","0","xLFBC","Scenes","","818","","","75","","","","29","114","130","0","1","87","81","daniel-sessler-z_9VmsxR8hs-unsplash.jpg","lina-loos-04-C1NZk1hE-unsplash.jpg","3","0","130","114","","","","","","","","","","","","","","","","","","","","","","","","","","","",""
"","choice_confirmation","","html-keyboard-response","170","801240","0.0-85.0-2.0-0.0","0","0","xLFBC","Scenes","","null","","","null","","","","29","114","130","","","","","","","","","","","","","","","","","","","","","","","","","","","","","","","","","","","","","",""
"","fixation","","html-keyboard-response","171","802248","0.0-86.0-0.0","0","0","xLFBC","Scenes","","null","","","null","","","","","","","","","","","","","","","","","","","","","","","","","","","","","","","","","","","","","","","","","","","",""
"","deliberation","","html-keyboard-response","172","803294","0.0-86.0-1.0","0","0","xLFBC","Scenes","","1043","","","75","","","","30","141","140","0","1","87","87","sebastian-unrau-v4e3JI7DDHI-unsplash.jpg","samuele-errico-piccarini-JEBqFu2AOOA-unsplash.jpg","3","0","140","141","","","","","","","","","","","","","","","","","","","","","","","","","","","",""
"","choice_confirmation","","html-keyboard-response","173","803800","0.0-86.0-2.0-0.0","0","0","xLFBC","Scenes","","null","","","null","","","","30","141","140","","","","","","","","","","","","","","","","","","","","","","","","","","","","","","","","","","","","","",""
"","fixation","","html-keyboard-response","174","804806","0.0-87.0-0.0","0","0","xLFBC","Scenes","","null","","","null","","","","","","","","","","","","","","","","","","","","","","","","","","","","","","","","","","","","","","","","","","","",""
"","deliberation","","html-keyboard-response","175","806092","0.0-87.0-1.0","0","0","xLFBC","Scenes","","1283","","","68","","","","31","132","143","0","-1","87","84","meng-ji-8BH_M-53CyA-unsplash.jpg","sigurdur-fjalar-jonsson-1KxBabIntpE-unsplash.jpg","3","1","132","143","","","","","","","","","","","","","","","","","","","","","","","","","","","",""
"","choice_confirmation","","html-keyboard-response","176","806600","0.0-87.0-2.0-0.0","0","0","xLFBC","Scenes","","null","","","null","","","","31","132","143","","","","","","","","","","","","","","","","","","","","","","","","","","","","","","","","","","","","","",""
"","fixation","","html-keyboard-response","177","807604","0.0-88.0-0.0","0","0","xLFBC","Scenes","","null","","","null","","","","","","","","","","","","","","","","","","","","","","","","","","","","","","","","","","","","","","","","","","","",""
"","deliberation","","html-keyboard-response","178","808378","0.0-88.0-1.0","0","0","xLFBC","Scenes","","770","","","68","","","","32","128","110","0","-1","78","86","karsten-wurth-jS0zC2PJ17A-unsplash.jpg","bruno-van-der-kraan-qez8mNJ3ilU-unsplash.jpg","3","1","128","110","","","","","","","","","","","","","","","","","","","","","","","","","","","",""
"","choice_confirmation","","html-keyboard-response","179","808888","0.0-88.0-2.0-0.0","0","0","xLFBC","Scenes","","null","","","null","","","","32","128","110","","","","","","","","","","","","","","","","","","","","","","","","","","","","","","","","","","","","","",""
"","fixation","","html-keyboard-response","180","809895","0.0-89.0-0.0","0","0","xLFBC","Scenes","","null","","","null","","","","","","","","","","","","","","","","","","","","","","","","","","","","","","","","","","","","","","","","","","","",""
"","deliberation","","html-keyboard-response","181","810988","0.0-89.0-1.0","0","0","xLFBC","Scenes","","1090","","","75","","","","33","138","103","0","1","79","89","petr-vysohlid-9fqwGqGLUxc-unsplash.jpg","anton-darius-FBJugtbHsWU-unsplash.jpg","3","0","103","138","","","","","","","","","","","","","","","","","","","","","","","","","","","",""
"","choice_confirmation","","html-keyboard-response","182","811496","0.0-89.0-2.0-0.0","0","0","xLFBC","Scenes","","null","","","null","","","","33","138","103","","","","","","","","","","","","","","","","","","","","","","","","","","","","","","","","","","","","","",""
"","fixation","","html-keyboard-response","183","812504","0.0-90.0-0.0","0","0","xLFBC","Scenes","","null","","","null","","","","","","","","","","","","","","","","","","","","","","","","","","","","","","","","","","","","","","","","","","","",""
"","deliberation","","html-keyboard-response","184","813305","0.0-90.0-1.0","0","0","xLFBC","Scenes","","798","","","68","","","","34","109","104","0","1","87","79","brigitta-schneiter-hXXRLtTxXCU-unsplash.jpg","artem-sapegin-XGDBdSQ70O0-unsplash.jpg","3","1","109","104","","","","","","","","","","","","","","","","","","","","","","","","","","","",""
"","choice_confirmation","","html-keyboard-response","185","813812","0.0-90.0-2.0-0.0","0","0","xLFBC","Scenes","","null","","","null","","","","34","109","104","","","","","","","","","","","","","","","","","","","","","","","","","","","","","","","","","","","","","",""
"","fixation","","html-keyboard-response","186","814824","0.0-91.0-0.0","0","0","xLFBC","Scenes","","null","","","null","","","","","","","","","","","","","","","","","","","","","","","","","","","","","","","","","","","","","","","","","","","",""
"","deliberation","","html-keyboard-response","187","816008","0.0-91.0-1.0","0","0","xLFBC","Scenes","","1182","","","75","","","","35","131","136","0","-1","90","84","luca-bravo-hFzIoD0F_i8-unsplash.jpg","nicolas-jehly-LzVB84KkZOE-unsplash.jpg","3","0","136","131","","","","","","","","","","","","","","","","","","","","","","","","","","","",""
"","choice_confirmation","","html-keyboard-response","188","816524","0.0-91.0-2.0-0.0","0","0","xLFBC","Scenes","","null","","","null","","","","35","131","136","","","","","","","","","","","","","","","","","","","","","","","","","","","","","","","","","","","","","",""
"","reward_learning_instructions","","instructions","189","851498","0.0-92.0-0.0","0","0","xLFBC","Scenes","[{""page_index"":0,""viewing_time"":14161},{""page_index"":1,""viewing_time"":18184},{""page_index"":2,""viewing_time"":2627}]","34972","","","","","","","","","","","","","","","","","","","","","","","","","","","","","","","","","","","","","","","","","","","","","","",""
"","reward_comprehension_check","","survey-multi-choice","190","866754","0.0-92.0-1.0","0","0","xLFBC","Scenes","","15246","{""Q0"":""True"",""Q1"":""True"",""Q2"":""Press the space bar to see its outcome"",""Q3"":""Press the relevant key while the outcome is presented""}","0","","","","","","","","","","","","","","","","","","","","","","","","","","","","","","","","","","","","","","","","","","","","",""
"","start_phase","","html-keyboard-response","191","869026","0.0-93.0","0","0","xLFBC","Scenes","","2269","","","78","","","","","","","","","","","","","","","","","","","","","","","","","","","","","","","","","","","","","","","","","","","",""
"","fixation","","html-keyboard-response","192","870030","0.0-94.0","0","0","xLFBC","Scenes","","null","","","null","","","","","","","","","","","","","","","","","","","","","","","","","","","","","","","","","","","","","","","","","","","",""
"","see_reward","","html-keyboard-response","193","871552","0.0-95.0","0","0","xLFBC","Scenes","","1519","","","32","","101","","0","","","","-1","","","","","1","","","","","0","1519","","","","","","","","","","","","","","","","","","","","","","","","",""
"","reward_outcome","","html-keyboard-response","194","873562","0.0-96.0","0","0","xLFBC","Scenes","","null","","","null","","101","","0","","","","","","","","","","","","","","","","NaN","null","","","","","","","","","","","","","","","","","","","","","","",""
"","respond_faster","","html-keyboard-response","195","875074","0.0-97.0-0.0","1","0","xLFBC","Scenes","","null","","","null","","","","","","","","","","","","","","","","","","","","","","","","","","","","","","","","","","","","","","","","","","","",""
"","fixation","","html-keyboard-response","196","876082","0.0-99.0","0","0","xLFBC","Scenes","","null","","","null","","","","","","","","","","","","","","","","","","","","","","","","","","","","","","","","","","","","","","","","","","","",""
"","see_reward","","html-keyboard-response","197","876873","0.0-100.0","0","0","xLFBC","Scenes","","788","","","32","","120","","1","","","","-1","","","","","1","","","","","0","788","","","","","","","","","","","","","","","","","","","","","","","","",""
"","reward_outcome","","html-keyboard-response","198","878882","0.0-101.0","0","0","xLFBC","Scenes","","784","","","40","","120","","1","","","","","","","","","","","","","","","","-1","784","","","","","","","","","","","","","","","","","","","","","","",""
"","fixation","","html-keyboard-response","199","879889","0.0-104.0","0","0","xLFBC","Scenes","","null","","","null","","","","","","","","","","","","","","","","","","","","","","","","","","","","","","","","","","","","","","","","","","","",""
"","see_reward","","html-keyboard-response","200","880676","0.0-105.0","0","0","xLFBC","Scenes","","785","","","32","","103","","2","","","","1","","","","","1","","","","","146","785","","","","","","","","","","","","","","","","","","","","","","","","",""
"","reward_outcome","","html-keyboard-response","201","882690","0.0-106.0","0","0","xLFBC","Scenes","","791","","","38","","103","","2","","","","","","","","","","","","","","","","1","791","","","","","","","","","","","","","","","","","","","","","","",""
"","fixation","","html-keyboard-response","202","883697","0.0-109.0","0","0","xLFBC","Scenes","","null","","","null","","","","","","","","","","","","","","","","","","","","","","","","","","","","","","","","","","","","","","","","","","","",""
"","see_reward","","html-keyboard-response","203","884358","0.0-110.0","0","0","xLFBC","Scenes","","659","","","32","","130","","3","","","","1","","","","","1","","","","","153","659","","","","","","","","","","","","","","","","","","","","","","","","",""
"","reward_outcome","","html-keyboard-response","204","886370","0.0-111.0","0","0","xLFBC","Scenes","","534","","","38","","130","","3","","","","","","","","","","","","","","","","1","534","","","","","","","","","","","","","","","","","","","","","","",""
"","fixation","","html-keyboard-response","205","887378","0.0-114.0","0","0","xLFBC","Scenes","","null","","","null","","","","","","","","","","","","","","","","","","","","","","","","","","","","","","","","","","","","","","","","","","","",""
"","see_reward","","html-keyboard-response","206","888006","0.0-115.0","0","0","xLFBC","Scenes","","626","","","32","","137","","4","","","","-1","","","","","1","","","","","0","626","","","","","","","","","","","","","","","","","","","","","","","","",""
"","reward_outcome","","html-keyboard-response","207","890019","0.0-116.0","0","0","xLFBC","Scenes","","588","","","40","","137","","4","","","","","","","","","","","","","","","","-1","588","","","","","","","","","","","","","","","","","","","","","","",""
"","fixation","","html-keyboard-response","208","891023","0.0-119.0","0","0","xLFBC","Scenes","","null","","","null","","","","","","","","","","","","","","","","","","","","","","","","","","","","","","","","","","","","","","","","","","","",""
"","see_reward","","html-keyboard-response","209","891648","0.0-120.0","0","0","xLFBC","Scenes","","622","","","32","","140","","5","","","","1","","","","","1","","","","","151","622","","","","","","","","","","","","","","","","","","","","","","","","",""
"","reward_outcome","","html-keyboard-response","210","893655","0.0-121.0","0","0","xLFBC","Scenes","","579","","","38","","140","","5","","","","","","","","","","","","","","","","1","579","","","","","","","","","","","","","","","","","","","","","","",""
"","fixation","","html-keyboard-response","211","894663","0.0-124.0","0","0","xLFBC","Scenes","","null","","","null","","","","","","","","","","","","","","","","","","","","","","","","","","","","","","","","","","","","","","","","","","","",""
"","see_reward","","html-keyboard-response","212","895113","0.0-125.0","0","0","xLFBC","Scenes","","448","","","32","","123","","6","","","","1","","","","","1","","","","","143","448","","","","","","","","","","","","","","","","","","","","","","","","",""
"","reward_outcome","","html-keyboard-response","213","897118","0.0-126.0","0","0","xLFBC","Scenes","","614","","","38","","123","","6","","","","","","","","","","","","","","","","1","614","","","","","","","","","","","","","","","","","","","","","","",""
"","fixation","","html-keyboard-response","214","898126","0.0-129.0","0","0","xLFBC","Scenes","","null","","","null","","","","","","","","","","","","","","","","","","","","","","","","","","","","","","","","","","","","","","","","","","","",""
"","see_reward","","html-keyboard-response","215","898558","0.0-130.0","0","0","xLFBC","Scenes","","430","","","32","","120","","7","","","","-1","","","","","1","","","","","0","430","","","","","","","","","","","","","","","","","","","","","","","","",""
"","reward_outcome","","html-keyboard-response","216","900571","0.0-131.0","0","0","xLFBC","Scenes","","598","","","40","","120","","7","","","","","","","","","","","","","","","","-1","598","","","","","","","","","","","","","","","","","","","","","","",""
"","fixation","","html-keyboard-response","217","901579","0.0-134.0","0","0","xLFBC","Scenes","","null","","","null","","","","","","","","","","","","","","","","","","","","","","","","","","","","","","","","","","","","","","","","","","","",""
"","see_reward","","html-keyboard-response","218","902190","0.0-135.0","0","0","xLFBC","Scenes","","609","","","32","","136","","8","","","","-1","","","","","1","","","","","0","609","","","","","","","","","","","","","","","","","","","","","","","","",""
"","reward_outcome","","html-keyboard-response","219","904203","0.0-136.0","0","0","xLFBC","Scenes","","732","","","40","","136","","8","","","","","","","","","","","","","","","","-1","732","","","","","","","","","","","","","","","","","","","","","","",""
"","fixation","","html-keyboard-response","220","905211","0.0-139.0","0","0","xLFBC","Scenes","","null","","","null","","","","","","","","","","","","","","","","","","","","","","","","","","","","","","","","","","","","","","","","","","","",""
"","see_reward","","html-keyboard-response","221","905895","0.0-140.0","0","0","xLFBC","Scenes","","683","","","32","","109","","9","","","","1","","","","","1","","","","","144","683","","","","","","","","","","","","","","","","","","","","","","","","",""
"","reward_outcome","","html-keyboard-response","222","907905","0.0-141.0","0","0","xLFBC","Scenes","","449","","","38","","109","","9","","","","","","","","","","","","","","","","1","449","","","","","","","","","","","","","","","","","","","","","","",""
"","fixation","","html-keyboard-response","223","908913","0.0-144.0","0","0","xLFBC","Scenes","","null","","","null","","","","","","","","","","","","","","","","","","","","","","","","","","","","","","","","","","","","","","","","","","","",""
"","see_reward","","html-keyboard-response","224","909502","0.0-145.0","0","0","xLFBC","Scenes","","587","","","32","","136","","10","","","","-1","","","","","1","","","","","0","587","","","","","","","","","","","","","","","","","","","","","","","","",""
"","reward_outcome","","html-keyboard-response","225","911515","0.0-146.0","0","0","xLFBC","Scenes","","691","","","40","","136","","10","","","","","","","","","","","","","","","","-1","691","","","","","","","","","","","","","","","","","","","","","","",""
"","fixation","","html-keyboard-response","226","912523","0.0-149.0","0","0","xLFBC","Scenes","","null","","","null","","","","","","","","","","","","","","","","","","","","","","","","","","","","","","","","","","","","","","","","","","","",""
"","see_reward","","html-keyboard-response","227","913127","0.0-150.0","0","0","xLFBC","Scenes","","602","","","32","","147","","11","","","","1","","","","","1","","","","","150","602","","","","","","","","","","","","","","","","","","","","","","","","",""
"","reward_outcome","","html-keyboard-response","228","915139","0.0-151.0","0","0","xLFBC","Scenes","","433","","","38","","147","","11","","","","","","","","","","","","","","","","1","433","","","","","","","","","","","","","","","","","","","","","","",""
"","fixation","","html-keyboard-response","229","916146","0.0-154.0","0","0","xLFBC","Scenes","","null","","","null","","","","","","","","","","","","","","","","","","","","","","","","","","","","","","","","","","","","","","","","","","","",""
"","see_reward","","html-keyboard-response","230","916635","0.0-155.0","0","0","xLFBC","Scenes","","487","","","32","","128","","12","","","","-1","","","","","1","","","","","0","487","","","","","","","","","","","","","","","","","","","","","","","","",""
"","reward_outcome","","html-keyboard-response","231","918644","0.0-156.0","0","0","xLFBC","Scenes","","504","","","40","","128","","12","","","","","","","","","","","","","","","","-1","504","","","","","","","","","","","","","","","","","","","","","","",""
"","fixation","","html-keyboard-response","232","919651","0.0-159.0","0","0","xLFBC","Scenes","","null","","","null","","","","","","","","","","","","","","","","","","","","","","","","","","","","","","","","","","","","","","","","","","","",""
"","see_reward","","html-keyboard-response","233","919985","0.0-160.0","0","0","xLFBC","Scenes","","332","","","32","","147","","13","","","","1","","","","","1","","","","","150","332","","","","","","","","","","","","","","","","","","","","","","","","",""
"","reward_outcome","","html-keyboard-response","234","921996","0.0-161.0","0","0","xLFBC","Scenes","","466","","","38","","147","","13","","","","","","","","","","","","","","","","1","466","","","","","","","","","","","","","","","","","","","","","","",""
"","fixation","","html-keyboard-response","235","923002","0.0-164.0","0","0","xLFBC","Scenes","","null","","","null","","","","","","","","","","","","","","","","","","","","","","","","","","","","","","","","","","","","","","","","","","","",""
"","see_reward","","html-keyboard-response","236","923396","0.0-165.0","0","0","xLFBC","Scenes","","392","","","32","","123","","14","","","","1","","","","","1","","","","","143","392","","","","","","","","","","","","","","","","","","","","","","","","",""
"","reward_outcome","","html-keyboard-response","237","925408","0.0-166.0","0","0","xLFBC","Scenes","","540","","","38","","123","","14","","","","","","","","","","","","","","","","1","540","","","","","","","","","","","","","","","","","","","","","","",""
"","fixation","","html-keyboard-response","238","926420","0.0-169.0","0","0","xLFBC","Scenes","","null","","","null","","","","","","","","","","","","","","","","","","","","","","","","","","","","","","","","","","","","","","","","","","","",""
"","see_reward","","html-keyboard-response","239","926762","0.0-170.0","0","0","xLFBC","Scenes","","340","","","32","","109","","15","","","","1","","","","","1","","","","","144","340","","","","","","","","","","","","","","","","","","","","","","","","",""
"","reward_outcome","","html-keyboard-response","240","928768","0.0-171.0","0","0","xLFBC","Scenes","","494","","","38","","109","","15","","","","","","","","","","","","","","","","1","494","","","","","","","","","","","","","","","","","","","","","","",""
"","fixation","","html-keyboard-response","241","929776","0.0-174.0","0","0","xLFBC","Scenes","","null","","","null","","","","","","","","","","","","","","","","","","","","","","","","","","","","","","","","","","","","","","","","","","","",""
"","see_reward","","html-keyboard-response","242","930213","0.0-175.0","0","0","xLFBC","Scenes","","435","","","32","","132","","16","","","","-1","","","","","1","","","","","0","435","","","","","","","","","","","","","","","","","","","","","","","","",""
"","reward_outcome","","html-keyboard-response","243","932228","0.0-176.0","0","0","xLFBC","Scenes","","535","","","40","","132","","16","","","","","","","","","","","","","","","","-1","535","","","","","","","","","","","","","","","","","","","","","","",""
"","fixation","","html-keyboard-response","244","933236","0.0-179.0","0","0","xLFBC","Scenes","","null","","","null","","","","","","","","","","","","","","","","","","","","","","","","","","","","","","","","","","","","","","","","","","","",""
"","see_reward","","html-keyboard-response","245","933560","0.0-180.0","0","0","xLFBC","Scenes","","322","","","32","","130","","17","","","","1","","","","","1","","","","","153","322","","","","","","","","","","","","","","","","","","","","","","","","",""
"","reward_outcome","","html-keyboard-response","246","935571","0.0-181.0","0","0","xLFBC","Scenes","","566","","","38","","130","","17","","","","","","","","","","","","","","","","1","566","","","","","","","","","","","","","","","","","","","","","","",""
"","fixation","","html-keyboard-response","247","936580","0.0-184.0","0","0","xLFBC","Scenes","","null","","","null","","","","","","","","","","","","","","","","","","","","","","","","","","","","","","","","","","","","","","","","","","","",""
"","see_reward","","html-keyboard-response","248","936996","0.0-185.0","0","0","xLFBC","Scenes","","413","","","32","","101","","18","","","","-1","","","","","1","","","","","0","413","","","","","","","","","","","","","","","","","","","","","","","","",""
"","reward_outcome","","html-keyboard-response","249","939004","0.0-186.0","0","0","xLFBC","Scenes","","545","","","40","","101","","18","","","","","","","","","","","","","","","","-1","545","","","","","","","","","","","","","","","","","","","","","","",""
"","fixation","","html-keyboard-response","250","940012","0.0-189.0","0","0","xLFBC","Scenes","","null","","","null","","","","","","","","","","","","","","","","","","","","","","","","","","","","","","","","","","","","","","","","","","","",""
"","see_reward","","html-keyboard-response","251","940312","0.0-190.0","0","0","xLFBC","Scenes","","298","","","32","","132","","19","","","","-1","","","","","1","","","","","0","298","","","","","","","","","","","","","","","","","","","","","","","","",""
"","reward_outcome","","html-keyboard-response","252","942321","0.0-191.0","0","0","xLFBC","Scenes","","497","","","40","","132","","19","","","","","","","","","","","","","","","","-1","497","","","","","","","","","","","","","","","","","","","","","","",""
"","fixation","","html-keyboard-response","253","943328","0.0-194.0","0","0","xLFBC","Scenes","","null","","","null","","","","","","","","","","","","","","","","","","","","","","","","","","","","","","","","","","","","","","","","","","","",""
"","see_reward","","html-keyboard-response","254","943674","0.0-195.0","0","0","xLFBC","Scenes","","344","","","32","","128","","20","","","","-1","","","","","1","","","","","0","344","","","","","","","","","","","","","","","","","","","","","","","","",""
"","reward_outcome","","html-keyboard-response","255","945684","0.0-196.0","0","0","xLFBC","Scenes","","676","","","40","","128","","20","","","","","","","","","","","","","","","","-1","676","","","","","","","","","","","","","","","","","","","","","","",""
"","fixation","","html-keyboard-response","256","946692","0.0-199.0","0","0","xLFBC","Scenes","","null","","","null","","","","","","","","","","","","","","","","","","","","","","","","","","","","","","","","","","","","","","","","","","","",""
"","see_reward","","html-keyboard-response","257","947024","0.0-200.0","0","0","xLFBC","Scenes","","330","","","32","","140","","21","","","","1","","","","","1","","","","","151","330","","","","","","","","","","","","","","","","","","","","","","","","",""
"","reward_outcome","","html-keyboard-response","258","949036","0.0-201.0","0","0","xLFBC","Scenes","","439","","","38","","140","","21","","","","","","","","","","","","","","","","1","439","","","","","","","","","","","","","","","","","","","","","","",""
"","fixation","","html-keyboard-response","259","950043","0.0-204.0","0","0","xLFBC","Scenes","","null","","","null","","","","","","","","","","","","","","","","","","","","","","","","","","","","","","","","","","","","","","","","","","","",""
"","see_reward","","html-keyboard-response","260","950498","0.0-205.0","0","0","xLFBC","Scenes","","452","","","32","","137","","22","","","","-1","","","","","1","","","","","0","452","","","","","","","","","","","","","","","","","","","","","","","","",""
"","reward_outcome","","html-keyboard-response","261","952509","0.0-206.0","0","0","xLFBC","Scenes","","526","","","40","","137","","22","","","","","","","","","","","","","","","","-1","526","","","","","","","","","","","","","","","","","","","","","","",""
"","fixation","","html-keyboard-response","262","953516","0.0-209.0","0","0","xLFBC","Scenes","","null","","","null","","","","","","","","","","","","","","","","","","","","","","","","","","","","","","","","","","","","","","","","","","","",""
"","see_reward","","html-keyboard-response","263","953947","0.0-210.0","0","0","xLFBC","Scenes","","428","","","32","","103","","23","","","","1","","","","","1","","","","","146","428","","","","","","","","","","","","","","","","","","","","","","","","",""
"","reward_outcome","","html-keyboard-response","264","955957","0.0-211.0","0","0","xLFBC","Scenes","","466","","","38","","103","","23","","","","","","","","","","","","","","","","1","466","","","","","","","","","","","","","","","","","","","","","","",""
"","block_over","","html-keyboard-response","265","958832","0.0-213.0-0.0","0","0","xLFBC","Scenes","","2872","","","78","","","","","","","","","","","","","","","","","","","","","","","","","","","","","","","","","","","","","","","","","","","",""
"","fixation","","html-keyboard-response","266","959844","0.0-214.0","0","0","xLFBC","Scenes","","null","","","null","","","","","","","","","","","","","","","","","","","","","","","","","","","","","","","","","","","","","","","","","","","",""
"","see_reward","","html-keyboard-response","267","961201","0.0-215.0","0","0","xLFBC","Scenes","","1355","","","32","","140","","24","","","","1","","","","","2","","","","","151","1355","","","","","","","","","","","","","","","","","","","","","","","","",""
"","reward_outcome","","html-keyboard-response","268","963213","0.0-216.0","0","0","xLFBC","Scenes","","786","","","38","","140","","24","","","","","","","","","","","","","","","","1","786","","","","","","","","","","","","","","","","","","","","","","",""
"","fixation","","html-keyboard-response","269","964219","0.0-219.0","0","0","xLFBC","Scenes","","null","","","null","","","","","","","","","","","","","","","","","","","","","","","","","","","","","","","","","","","","","","","","","","","",""
"","see_reward","","html-keyboard-response","270","964506","0.0-220.0","0","0","xLFBC","Scenes","","286","","","32","","101","","25","","","","-1","","","","","2","","","","","0","286","","","","","","","","","","","","","","","","","","","","","","","","",""
"","reward_outcome","","html-keyboard-response","271","966517","0.0-221.0","0","0","xLFBC","Scenes","","903","","","40","","101","","25","","","","","","","","","","","","","","","","-1","903","","","","","","","","","","","","","","","","","","","","","","",""
"","fixation","","html-keyboard-response","272","967525","0.0-224.0","0","0","xLFBC","Scenes","","null","","","null","","","","","","","","","","","","","","","","","","","","","","","","","","","","","","","","","","","","","","","","","","","",""
"","see_reward","","html-keyboard-response","273","967974","0.0-225.0","0","0","xLFBC","Scenes","","447","","","32","","147","","26","","","","1","","","","","2","","","","","150","447","","","","","","","","","","","","","","","","","","","","","","","","",""
"","reward_outcome","","html-keyboard-response","274","969981","0.0-226.0","0","0","xLFBC","Scenes","","826","","","38","","147","","26","","","","","","","","","","","","","","","","1","826","","","","","","","","","","","","","","","","","","","","","","",""
"","fixation","","html-keyboard-response","275","970985","0.0-229.0","0","0","xLFBC","Scenes","","null","","","null","","","","","","","","","","","","","","","","","","","","","","","","","","","","","","","","","","","","","","","","","","","",""
"","see_reward","","html-keyboard-response","276","971341","0.0-230.0","0","0","xLFBC","Scenes","","354","","","32","","103","","27","","","","1","","","","","2","","","","","146","354","","","","","","","","","","","","","","","","","","","","","","","","",""
"","reward_outcome","","html-keyboard-response","277","973349","0.0-231.0","0","0","xLFBC","Scenes","","734","","","38","","103","","27","","","","","","","","","","","","","","","","1","734","","","","","","","","","","","","","","","","","","","","","","",""
"","fixation","","html-keyboard-response","278","974356","0.0-234.0","0","0","xLFBC","Scenes","","null","","","null","","","","","","","","","","","","","","","","","","","","","","","","","","","","","","","","","","","","","","","","","","","",""
"","see_reward","","html-keyboard-response","279","974665","0.0-235.0","0","0","xLFBC","Scenes","","307","","","32","","130","","28","","","","1","","","","","2","","","","","153","307","","","","","","","","","","","","","","","","","","","","","","","","",""
"","reward_outcome","","html-keyboard-response","280","976673","0.0-236.0","0","0","xLFBC","Scenes","","1095","","","38","","130","","28","","","","","","","","","","","","","","","","1","1095","","","","","","","","","","","","","","","","","","","","","","",""
"","fixation","","html-keyboard-response","281","977681","0.0-239.0","0","0","xLFBC","Scenes","","null","","","null","","","","","","","","","","","","","","","","","","","","","","","","","","","","","","","","","","","","","","","","","","","",""
"","see_reward","","html-keyboard-response","282","978144","0.0-240.0","0","0","xLFBC","Scenes","","461","","","32","","132","","29","","","","-1","","","","","2","","","","","0","461","","","","","","","","","","","","","","","","","","","","","","","","",""
"","reward_outcome","","html-keyboard-response","283","980157","0.0-241.0","0","0","xLFBC","Scenes","","680","","","40","","132","","29","","","","","","","","","","","","","","","","-1","680","","","","","","","","","","","","","","","","","","","","","","",""
"","fixation","","html-keyboard-response","284","981164","0.0-244.0","0","0","xLFBC","Scenes","","null","","","null","","","","","","","","","","","","","","","","","","","","","","","","","","","","","","","","","","","","","","","","","","","",""
"","see_reward","","html-keyboard-response","285","981497","0.0-245.0","0","0","xLFBC","Scenes","","331","","","32","","103","","30","","","","1","","","","","2","","","","","146","331","","","","","","","","","","","","","","","","","","","","","","","","",""
"","reward_outcome","","html-keyboard-response","286","983509","0.0-246.0","0","0","xLFBC","Scenes","","526","","","38","","103","","30","","","","","","","","","","","","","","","","1","526","","","","","","","","","","","","","","","","","","","","","","",""
"","fixation","","html-keyboard-response","287","984517","0.0-249.0","0","0","xLFBC","Scenes","","null","","","null","","","","","","","","","","","","","","","","","","","","","","","","","","","","","","","","","","","","","","","","","","","",""
"","see_reward","","html-keyboard-response","288","984825","0.0-250.0","0","0","xLFBC","Scenes","","306","","","32","","132","","31","","","","-1","","","","","2","","","","","0","306","","","","","","","","","","","","","","","","","","","","","","","","",""
"","reward_outcome","","html-keyboard-response","289","986838","0.0-251.0","0","0","xLFBC","Scenes","","940","","","40","","132","","31","","","","","","","","","","","","","","","","-1","940","","","","","","","","","","","","","","","","","","","","","","",""
"","fixation","","html-keyboard-response","290","987844","0.0-254.0","0","0","xLFBC","Scenes","","null","","","null","","","","","","","","","","","","","","","","","","","","","","","","","","","","","","","","","","","","","","","","","","","",""
"","see_reward","","html-keyboard-response","291","988158","0.0-255.0","0","0","xLFBC","Scenes","","311","","","32","","101","","32","","","","-1","","","","","2","","","","","0","311","","","","","","","","","","","","","","","","","","","","","","","","",""
"","reward_outcome","","html-keyboard-response","292","990162","0.0-256.0","0","0","xLFBC","Scenes","","737","","","40","","101","","32","","","","","","","","","","","","","","","","-1","737","","","","","","","","","","","","","","","","","","","","","","",""
"","fixation","","html-keyboard-response","293","991173","0.0-259.0","0","0","xLFBC","Scenes","","null","","","null","","","","","","","","","","","","","","","","","","","","","","","","","","","","","","","","","","","","","","","","","","","",""
"","see_reward","","html-keyboard-response","294","991511","0.0-260.0","0","0","xLFBC","Scenes","","336","","","32","","128","","33","","","","-1","","","","","2","","","","","0","336","","","","","","","","","","","","","","","","","","","","","","","","",""
"","reward_outcome","","html-keyboard-response","295","993526","0.0-261.0","0","0","xLFBC","Scenes","","594","","","40","","128","","33","","","","","","","","","","","","","","","","-1","594","","","","","","","","","","","","","","","","","","","","","","",""
"","fixation","","html-keyboard-response","296","994529","0.0-264.0","0","0","xLFBC","Scenes","","null","","","null","","","","","","","","","","","","","","","","","","","","","","","","","","","","","","","","","","","","","","","","","","","",""
"","see_reward","","html-keyboard-response","297","994919","0.0-265.0","0","0","xLFBC","Scenes","","388","","","32","","130","","34","","","","1","","","","","2","","","","","153","388","","","","","","","","","","","","","","","","","","","","","","","","",""
"","reward_outcome","","html-keyboard-response","298","996930","0.0-266.0","0","0","xLFBC","Scenes","","594","","","38","","130","","34","","","","","","","","","","","","","","","","1","594","","","","","","","","","","","","","","","","","","","","","","",""
"","fixation","","html-keyboard-response","299","997942","0.0-269.0","0","0","xLFBC","Scenes","","null","","","null","","","","","","","","","","","","","","","","","","","","","","","","","","","","","","","","","","","","","","","","","","","",""
"","see_reward","","html-keyboard-response","300","998251","0.0-270.0","0","0","xLFBC","Scenes","","306","","","32","","137","","35","","","","-1","","","","","2","","","","","0","306","","","","","","","","","","","","","","","","","","","","","","","","",""
"","reward_outcome","","html-keyboard-response","301","1000257","0.0-271.0","0","0","xLFBC","Scenes","","746","","","40","","137","","35","","","","","","","","","","","","","","","","-1","746","","","","","","","","","","","","","","","","","","","","","","",""
"","fixation","","html-keyboard-response","302","1001270","0.0-274.0","0","0","xLFBC","Scenes","","null","","","null","","","","","","","","","","","","","","","","","","","","","","","","","","","","","","","","","","","","","","","","","","","",""
"","see_reward","","html-keyboard-response","303","1001583","0.0-275.0","0","0","xLFBC","Scenes","","311","","","32","","128","","36","","","","-1","","","","","2","","","","","0","311","","","","","","","","","","","","","","","","","","","","","","","","",""
"","reward_outcome","","html-keyboard-response","304","1003594","0.0-276.0","0","0","xLFBC","Scenes","","701","","","40","","128","","36","","","","","","","","","","","","","","","","-1","701","","","","","","","","","","","","","","","","","","","","","","",""
"","fixation","","html-keyboard-response","305","1004602","0.0-279.0","0","0","xLFBC","Scenes","","null","","","null","","","","","","","","","","","","","","","","","","","","","","","","","","","","","","","","","","","","","","","","","","","",""
"","see_reward","","html-keyboard-response","306","1004888","0.0-280.0","0","0","xLFBC","Scenes","","284","","","32","","147","","37","","","","1","","","","","2","","","","","150","284","","","","","","","","","","","","","","","","","","","","","","","","",""
"","reward_outcome","","html-keyboard-response","307","1006896","0.0-281.0","0","0","xLFBC","Scenes","","1001","","","38","","147","","37","","","","","","","","","","","","","","","","1","1001","","","","","","","","","","","","","","","","","","","","","","",""
"","fixation","","html-keyboard-response","308","1007906","0.0-284.0","0","0","xLFBC","Scenes","","null","","","null","","","","","","","","","","","","","","","","","","","","","","","","","","","","","","","","","","","","","","","","","","","",""
"","see_reward","","html-keyboard-response","309","1008197","0.0-285.0","0","0","xLFBC","Scenes","","288","","","32","","123","","38","","","","1","","","","","2","","","","","143","288","","","","","","","","","","","","","","","","","","","","","","","","",""
"","reward_outcome","","html-keyboard-response","310","1010206","0.0-286.0","0","0","xLFBC","Scenes","","533","","","38","","123","","38","","","","","","","","","","","","","","","","1","533","","","","","","","","","","","","","","","","","","","","","","",""
"","fixation","","html-keyboard-response","311","1011214","0.0-289.0","0","0","xLFBC","Scenes","","null","","","null","","","","","","","","","","","","","","","","","","","","","","","","","","","","","","","","","","","","","","","","","","","",""
"","see_reward","","html-keyboard-response","312","1011678","0.0-290.0","0","0","xLFBC","Scenes","","462","","","32","","120","","39","","","","-1","","","","","2","","","","","0","462","","","","","","","","","","","","","","","","","","","","","","","","",""
"","reward_outcome","","html-keyboard-response","313","1013686","0.0-291.0","0","0","xLFBC","Scenes","","1158","","","40","","120","","39","","","","","","","","","","","","","","","","-1","1158","","","","","","","","","","","","","","","","","","","","","","",""
"","fixation","","html-keyboard-response","314","1014693","0.0-294.0","0","0","xLFBC","Scenes","","null","","","null","","","","","","","","","","","","","","","","","","","","","","","","","","","","","","","","","","","","","","","","","","","",""
"","see_reward","","html-keyboard-response","315","1015059","0.0-295.0","0","0","xLFBC","Scenes","","363","","","32","","120","","40","","","","-1","","","","","2","","","","","0","363","","","","","","","","","","","","","","","","","","","","","","","","",""
"","reward_outcome","","html-keyboard-response","316","1017070","0.0-296.0","0","0","xLFBC","Scenes","","771","","","40","","120","","40","","","","","","","","","","","","","","","","-1","771","","","","","","","","","","","","","","","","","","","","","","",""
"","fixation","","html-keyboard-response","317","1018078","0.0-299.0","0","0","xLFBC","Scenes","","null","","","null","","","","","","","","","","","","","","","","","","","","","","","","","","","","","","","","","","","","","","","","","","","",""
"","see_reward","","html-keyboard-response","318","1018372","0.0-300.0","0","0","xLFBC","Scenes","","292","","","32","","109","","41","","","","1","","","","","2","","","","","144","292","","","","","","","","","","","","","","","","","","","","","","","","",""
"","reward_outcome","","html-keyboard-response","319","1020383","0.0-301.0","0","0","xLFBC","Scenes","","682","","","38","","109","","41","","","","","","","","","","","","","","","","1","682","","","","","","","","","","","","","","","","","","","","","","",""
"","fixation","","html-keyboard-response","320","1021387","0.0-304.0","0","0","xLFBC","Scenes","","null","","","null","","","","","","","","","","","","","","","","","","","","","","","","","","","","","","","","","","","","","","","","","","","",""
"","see_reward","","html-keyboard-response","321","1021732","0.0-305.0","0","0","xLFBC","Scenes","","342","","","32","","109","","42","","","","1","","","","","2","","","","","144","342","","","","","","","","","","","","","","","","","","","","","","","","",""
"","reward_outcome","","html-keyboard-response","322","1023738","0.0-306.0","0","0","xLFBC","Scenes","","481","","","38","","109","","42","","","","","","","","","","","","","","","","1","481","","","","","","","","","","","","","","","","","","","","","","",""
"","fixation","","html-keyboard-response","323","1024750","0.0-309.0","0","0","xLFBC","Scenes","","null","","","null","","","","","","","","","","","","","","","","","","","","","","","","","","","","","","","","","","","","","","","","","","","",""
"","see_reward","","html-keyboard-response","324","1025058","0.0-310.0","0","0","xLFBC","Scenes","","306","","","32","","140","","43","","","","1","","","","","2","","","","","151","306","","","","","","","","","","","","","","","","","","","","","","","","",""
"","reward_outcome","","html-keyboard-response","325","1027070","0.0-311.0","0","0","xLFBC","Scenes","","774","","","38","","140","","43","","","","","","","","","","","","","","","","1","774","","","","","","","","","","","","","","","","","","","","","","",""
"","fixation","","html-keyboard-response","326","1028078","0.0-314.0","0","0","xLFBC","Scenes","","null","","","null","","","","","","","","","","","","","","","","","","","","","","","","","","","","","","","","","","","","","","","","","","","",""
"","see_reward","","html-keyboard-response","327","1028442","0.0-315.0","0","0","xLFBC","Scenes","","362","","","32","","136","","44","","","","-1","","","","","2","","","","","0","362","","","","","","","","","","","","","","","","","","","","","","","","",""
"","reward_outcome","","html-keyboard-response","328","1030450","0.0-316.0","0","0","xLFBC","Scenes","","762","","","40","","136","","44","","","","","","","","","","","","","","","","-1","762","","","","","","","","","","","","","","","","","","","","","","",""
"","fixation","","html-keyboard-response","329","1031458","0.0-319.0","0","0","xLFBC","Scenes","","null","","","null","","","","","","","","","","","","","","","","","","","","","","","","","","","","","","","","","","","","","","","","","","","",""
"","see_reward","","html-keyboard-response","330","1031799","0.0-320.0","0","0","xLFBC","Scenes","","338","","","32","","136","","45","","","","-1","","","","","2","","","","","0","338","","","","","","","","","","","","","","","","","","","","","","","","",""
"","reward_outcome","","html-keyboard-response","331","1033807","0.0-321.0","0","0","xLFBC","Scenes","","698","","","40","","136","","45","","","","","","","","","","","","","","","","-1","698","","","","","","","","","","","","","","","","","","","","","","",""
"","fixation","","html-keyboard-response","332","1034815","0.0-324.0","0","0","xLFBC","Scenes","","null","","","null","","","","","","","","","","","","","","","","","","","","","","","","","","","","","","","","","","","","","","","","","","","",""
"","see_reward","","html-keyboard-response","333","1035123","0.0-325.0","0","0","xLFBC","Scenes","","306","","","32","","123","","46","","","","1","","","","","2","","","","","143","306","","","","","","","","","","","","","","","","","","","","","","","","",""
"","reward_outcome","","html-keyboard-response","334","1037135","0.0-326.0","0","0","xLFBC","Scenes","","518","","","38","","123","","46","","","","","","","","","","","","","","","","1","518","","","","","","","","","","","","","","","","","","","","","","",""
"","fixation","","html-keyboard-response","335","1038139","0.0-329.0","0","0","xLFBC","Scenes","","null","","","null","","","","","","","","","","","","","","","","","","","","","","","","","","","","","","","","","","","","","","","","","","","",""
"","see_reward","","html-keyboard-response","336","1038419","0.0-330.0","0","0","xLFBC","Scenes","","278","","","32","","137","","47","","","","-1","","","","","2","","","","","0","278","","","","","","","","","","","","","","","","","","","","","","","","",""
"","reward_outcome","","html-keyboard-response","337","1040431","0.0-331.0","0","0","xLFBC","Scenes","","522","","","40","","137","","47","","","","","","","","","","","","","","","","-1","522","","","","","","","","","","","","","","","","","","","","","","",""
"","block_over","","html-keyboard-response","338","1042378","0.0-333.0-0.0","0","0","xLFBC","Scenes","","1944","","","78","","","","","","","","","","","","","","","","","","","","","","","","","","","","","","","","","","","","","","","","","","","",""
"","fixation","","html-keyboard-response","339","1043388","0.0-334.0","0","0","xLFBC","Scenes","","null","","","null","","","","","","","","","","","","","","","","","","","","","","","","","","","","","","","","","","","","","","","","","","","",""
"","see_reward","","html-keyboard-response","340","1043876","0.0-335.0","0","0","xLFBC","Scenes","","486","","","32","","128","","48","","","","-1","","","","","3","","","","","0","486","","","","","","","","","","","","","","","","","","","","","","","","",""
"","reward_outcome","","html-keyboard-response","341","1045884","0.0-336.0","0","0","xLFBC","Scenes","","577","","","40","","128","","48","","","","","","","","","","","","","","","","-1","577","","","","","","","","","","","","","","","","","","","","","","",""
"","fixation","","html-keyboard-response","342","1046895","0.0-339.0","0","0","xLFBC","Scenes","","null","","","null","","","","","","","","","","","","","","","","","","","","","","","","","","","","","","","","","","","","","","","","","","","",""
"","see_reward","","html-keyboard-response","343","1047910","0.0-340.0","0","0","xLFBC","Scenes","","1012","","","32","","130","","49","","","","1","","","","","3","","","","","153","1012","","","","","","","","","","","","","","","","","","","","","","","","",""
"","reward_outcome","","html-keyboard-response","344","1049916","0.0-341.0","0","0","xLFBC","Scenes","","515","","","38","","130","","49","","","","","","","","","","","","","","","","1","515","","","","","","","","","","","","","","","","","","","","","","",""
"","fixation","","html-keyboard-response","345","1050923","0.0-344.0","0","0","xLFBC","Scenes","","null","","","null","","","","","","","","","","","","","","","","","","","","","","","","","","","","","","","","","","","","","","","","","","","",""
"","see_reward","","html-keyboard-response","346","1051249","0.0-345.0","0","0","xLFBC","Scenes","","323","","","32","","130","","50","","","","1","","","","","3","","","","","153","323","","","","","","","","","","","","","","","","","","","","","","","","",""
"","reward_outcome","","html-keyboard-response","347","1053260","0.0-346.0","0","0","xLFBC","Scenes","","666","","","38","","130","","50","","","","","","","","","","","","","","","","1","666","","","","","","","","","","","","","","","","","","","","","","",""
"","fixation","","html-keyboard-response","348","1054272","0.0-349.0","0","0","xLFBC","Scenes","","null","","","null","","","","","","","","","","","","","","","","","","","","","","","","","","","","","","","","","","","","","","","","","","","",""
"","see_reward","","html-keyboard-response","349","1054591","0.0-350.0","0","0","xLFBC","Scenes","","317","","","32","","120","","51","","","","-1","","","","","3","","","","","0","317","","","","","","","","","","","","","","","","","","","","","","","","",""
"","reward_outcome","","html-keyboard-response","350","1056595","0.0-351.0","0","0","xLFBC","Scenes","","534","","","40","","120","","51","","","","","","","","","","","","","","","","-1","534","","","","","","","","","","","","","","","","","","","","","","",""
