"success","ttype","start_time","trial_type","trial_index","time_elapsed","internal_node_id","warning","missed_checkup","PID","stim_type","view_history","rt","responses","repeat_instructions","key_press","response","stimulus_id","painting","index","stimulus_left","stimulus_right","explain_trial","reward_type","rating_left","rating_right","painting_left","painting_right","block","left_chosen","chosen_obj","unchosen_obj","explain_response","reward_amount","see_reward_rt","register_reward_response","register_reward_rt","deliberation_reward_tally","stimulus_left_deliberation_ind","stimulus_right_deliberation_ind","chosen_trial","gain_left","higher_outcome_chosen","old_pair","chosen_object","rt_pairs","left_object_chosen","rt_object","old_response","new_rating","deliberated_stim","initial_rating","outcome_eval_rt","outcome_eval_response","outcome_eval_gain","outcome_eval_acc","preamble","outcome_eval_confidence","outcome_eval_confidence_rt","total_reward_tally"
"true","full_screen","d01202023hr0014","fullscreen","0","22822","0.0-0.0","0","0","q3aSU","Scenes","","","","","","","","","","","","","","","","","","","","","","","","","","","","","","","","","","","","","","","","","","","","","","","","",""
"","rating_instructions","","instructions","1","41571","0.0-1.0-0.0","0","0","q3aSU","Scenes","[{""page_index"":0,""viewing_time"":15088},{""page_index"":1,""viewing_time"":3658}]","18746","","","","","","","","","","","","","","","","","","","","","","","","","","","","","","","","","","","","","","","","","","","","","","",""
"","rating_comprehension_check","","survey-multi-choice","2","51092","0.0-1.0-1.0","0","0","q3aSU","Scenes","","9516","{""Q0"":""True"",""Q1"":""Mouse""}","0","","","","","","","","","","","","","","","","","","","","","","","","","","","","","","","","","","","","","","","","","","","","",""
"","start_phase","","html-keyboard-response","3","54826","0.0-2.0","0","0","q3aSU","Scenes","","3731","","","78","","","","","","","","","","","","","","","","","","","","","","","","","","","","","","","","","","","","","","","","","","","",""
"","rating","","html-slider-response","4","59192","0.0-3.0","0","0","q3aSU","Scenes","","4361","","","","100","133","mickey-o-neil-xL66l--msXU-unsplash.jpg","0","","","","","","","","","","","","","","","","","","","","","","","","","","","","","","","","","","","","","","","",""
"","rating","","html-slider-response","5","63172","0.0-4.0","0","0","q3aSU","Scenes","","3976","","","","100","112","cosmic-timetraveler-pYyOZ8q7AII-unsplash.jpg","1","","","","","","","","","","","","","","","","","","","","","","","","","","","","","","","","","","","","","","","",""
"","rating","","html-slider-response","6","66430","0.0-5.0","0","0","q3aSU","Scenes","","3254","","","","100","136","nicolas-jehly-LzVB84KkZOE-unsplash.jpg","2","","","","","","","","","","","","","","","","","","","","","","","","","","","","","","","","","","","","","","","",""
"","rating","","html-slider-response","7","70453","0.0-6.0","0","0","q3aSU","Scenes","","4020","","","","100","119","james-wheeler-AFC0XvICMgs-unsplash.jpg","3","","","","","","","","","","","","","","","","","","","","","","","","","","","","","","","","","","","","","","","",""
"","rating","","html-slider-response","8","74726","0.0-7.0","0","0","q3aSU","Scenes","","4269","","","","100","118","henry-be-NLF6hTe4PAg-unsplash.jpg","4","","","","","","","","","","","","","","","","","","","","","","","","","","","","","","","","","","","","","","","",""
"","rating","","html-slider-response","9","78647","0.0-8.0","0","0","q3aSU","Scenes","","3918","","","","100","115","darrell-cassell-hoCXpPUMCoE-unsplash.jpg","5","","","","","","","","","","","","","","","","","","","","","","","","","","","","","","","","","","","","","","","",""
"","rating","","html-slider-response","10","82154","0.0-9.0","0","0","q3aSU","Scenes","","3503","","","","100","131","luca-bravo-hFzIoD0F_i8-unsplash.jpg","6","","","","","","","","","","","","","","","","","","","","","","","","","","","","","","","","","","","","","","","",""
"","rating","","html-slider-response","11","85453","0.0-10.0","0","0","q3aSU","Scenes","","3292","","","","83","109","brigitta-schneiter-hXXRLtTxXCU-unsplash.jpg","7","","","","","","","","","","","","","","","","","","","","","","","","","","","","","","","","","","","","","","","",""
"","rating","","html-slider-response","12","88586","0.0-11.0","0","0","q3aSU","Scenes","","3130","","","","91","135","mohammad-alizade-4wzRuAb-KWs-unsplash.jpg","8","","","","","","","","","","","","","","","","","","","","","","","","","","","","","","","","","","","","","","","",""
"","rating","","html-slider-response","13","91483","0.0-12.0","0","0","q3aSU","Scenes","","2895","","","","100","143","sigurdur-fjalar-jonsson-1KxBabIntpE-unsplash.jpg","9","","","","","","","","","","","","","","","","","","","","","","","","","","","","","","","","","","","","","","","",""
"","rating","","html-slider-response","14","99449","0.0-13.0","0","0","q3aSU","Scenes","","7963","","","","41","116","david-marcu-W5MhJ6cy1So-unsplash.jpg","10","","","","","","","","","","","","","","","","","","","","","","","","","","","","","","","","","","","","","","","",""
"","rating","","html-slider-response","15","102745","0.0-14.0","0","0","q3aSU","Scenes","","3293","","","","85","107","benjamin-davies-Zm2n2O7Fph4-unsplash.jpg","11","","","","","","","","","","","","","","","","","","","","","","","","","","","","","","","","","","","","","","","",""
"","rating","","html-slider-response","16","106116","0.0-15.0","0","0","q3aSU","Scenes","","3367","","","","53","122","jeff-king-bJHWJeiHfHc-unsplash.jpg","12","","","","","","","","","","","","","","","","","","","","","","","","","","","","","","","","","","","","","","","",""
"","rating","","html-slider-response","17","109277","0.0-16.0","0","0","q3aSU","Scenes","","3159","","","","84","144","solotravelgoals-7kLufxYoqWk-unsplash.jpg","13","","","","","","","","","","","","","","","","","","","","","","","","","","","","","","","","","","","","","","","",""
"","rating","","html-slider-response","18","113609","0.0-17.0","0","0","q3aSU","Scenes","","4330","","","","62","104","artem-sapegin-XGDBdSQ70O0-unsplash.jpg","14","","","","","","","","","","","","","","","","","","","","","","","","","","","","","","","","","","","","","","","",""
"","rating","","html-slider-response","19","116364","0.0-18.0","0","0","q3aSU","Scenes","","2751","","","","100","127","kace-rodriguez-p3OzJuT_Dks-unsplash.jpg","15","","","","","","","","","","","","","","","","","","","","","","","","","","","","","","","","","","","","","","","",""
"","rating","","html-slider-response","20","119502","0.0-19.0","0","0","q3aSU","Scenes","","3134","","","","100","146","thomas-morse-cuKKa0vWZSY-unsplash.jpg","16","","","","","","","","","","","","","","","","","","","","","","","","","","","","","","","","","","","","","","","",""
"","rating","","html-slider-response","21","123332","0.0-20.0","0","0","q3aSU","Scenes","","3827","","","","59","141","sebastian-unrau-v4e3JI7DDHI-unsplash.jpg","17","","","","","","","","","","","","","","","","","","","","","","","","","","","","","","","","","","","","","","","",""
"","rating","","html-slider-response","22","126366","0.0-21.0","0","0","q3aSU","Scenes","","3031","","","","79","121","jean-pierre-brungs-qxCqkbF7tUc-unsplash.jpg","18","","","","","","","","","","","","","","","","","","","","","","","","","","","","","","","","","","","","","","","",""
"","rating","","html-slider-response","23","131231","0.0-22.0","0","0","q3aSU","Scenes","","4861","","","","34","114","daniel-sessler-z_9VmsxR8hs-unsplash.jpg","19","","","","","","","","","","","","","","","","","","","","","","","","","","","","","","","","","","","","","","","",""
"","rating","","html-slider-response","24","133691","0.0-23.0","0","0","q3aSU","Scenes","","2457","","","","100","130","lina-loos-04-C1NZk1hE-unsplash.jpg","20","","","","","","","","","","","","","","","","","","","","","","","","","","","","","","","","","","","","","","","",""
"","rating","","html-slider-response","25","137273","0.0-24.0","0","0","q3aSU","Scenes","","3579","","","","14","105","ashim-d-silva-S2Q5mdOrrVc-unsplash.jpg","21","","","","","","","","","","","","","","","","","","","","","","","","","","","","","","","","","","","","","","","",""
"","rating","","html-slider-response","26","140472","0.0-25.0","0","0","q3aSU","Scenes","","3195","","","","34","120","jarrett-kow-1ZOyYPOBn7I-unsplash.jpg","22","","","","","","","","","","","","","","","","","","","","","","","","","","","","","","","","","","","","","","","",""
"","rating","","html-slider-response","27","144024","0.0-26.0","0","0","q3aSU","Scenes","","3549","","","","40","117","frank-mckenna-OD9EOzfSOh0-unsplash.jpg","23","","","","","","","","","","","","","","","","","","","","","","","","","","","","","","","","","","","","","","","",""
"","rating","","html-slider-response","28","147627","0.0-27.0","0","0","q3aSU","Scenes","","3601","","","","87","123","joel-jasmin-forestbird-efuwb5eBDrI-unsplash.jpg","24","","","","","","","","","","","","","","","","","","","","","","","","","","","","","","","","","","","","","","","",""
"","rating","","html-slider-response","29","149948","0.0-28.0","0","0","q3aSU","Scenes","","2317","","","","100","148","tom-gainor-ZqLeQDjY6fY-unsplash.jpg","25","","","","","","","","","","","","","","","","","","","","","","","","","","","","","","","","","","","","","","","",""
"","rating","","html-slider-response","30","152898","0.0-29.0","0","0","q3aSU","Scenes","","2947","","","","85","134","milada-vigerova-pQMM63GE7fo-unsplash.jpg","26","","","","","","","","","","","","","","","","","","","","","","","","","","","","","","","","","","","","","","","",""
"","rating","","html-slider-response","31","156515","0.0-30.0","0","0","q3aSU","Scenes","","3614","","","","76","111","claudio-testa-U3F2o6vz3bs-unsplash.jpg","27","","","","","","","","","","","","","","","","","","","","","","","","","","","","","","","","","","","","","","","",""
"","rating","","html-slider-response","32","160847","0.0-31.0","0","0","q3aSU","Scenes","","4328","","","","55","124","johannes-plenio-sPt5RIjKfpk-unsplash.jpg","28","","","","","","","","","","","","","","","","","","","","","","","","","","","","","","","","","","","","","","","",""
"","rating","","html-slider-response","33","163821","0.0-32.0","0","0","q3aSU","Scenes","","2971","","","","42","103","anton-darius-FBJugtbHsWU-unsplash.jpg","29","","","","","","","","","","","","","","","","","","","","","","","","","","","","","","","","","","","","","","","",""
"","rating","","html-slider-response","34","166419","0.0-33.0","0","0","q3aSU","Scenes","","2595","","","","86","139","samsommer-vddccTqwal8-unsplash.jpg","30","","","","","","","","","","","","","","","","","","","","","","","","","","","","","","","","","","","","","","","",""
"","rating","","html-slider-response","35","168778","0.0-34.0","0","0","q3aSU","Scenes","","2356","","","","100","147","tobias-keller-73F4pKoUkM0-unsplash.jpg","31","","","","","","","","","","","","","","","","","","","","","","","","","","","","","","","","","","","","","","","",""
"","rating","","html-slider-response","36","171600","0.0-35.0","0","0","q3aSU","Scenes","","2819","","","","100","101","aniket-deole-T-tOgjWZ0fQ-unsplash.jpg","32","","","","","","","","","","","","","","","","","","","","","","","","","","","","","","","","","","","","","","","",""
"","rating","","html-slider-response","37","175167","0.0-36.0","0","0","q3aSU","Scenes","","3564","","","","72","113","damian-denis-D8R_txR_0PE-unsplash.jpg","33","","","","","","","","","","","","","","","","","","","","","","","","","","","","","","","","","","","","","","","",""
"","rating","","html-slider-response","38","179723","0.0-37.0","0","0","q3aSU","Scenes","","4553","","","","64","137","olga-stalska-QaWRyEdlffY-unsplash.jpg","34","","","","","","","","","","","","","","","","","","","","","","","","","","","","","","","","","","","","","","","",""
"","rating","","html-slider-response","39","183093","0.0-38.0","0","0","q3aSU","Scenes","","3367","","","","53","129","kurt-cotoaga-cqbLg3lZEpk-unsplash.jpg","35","","","","","","","","","","","","","","","","","","","","","","","","","","","","","","","","","","","","","","","",""
"","rating","","html-slider-response","40","186059","0.0-39.0","0","0","q3aSU","Scenes","","2963","","","","100","125","john-lee-oMneOBYhJxY-unsplash.jpg","36","","","","","","","","","","","","","","","","","","","","","","","","","","","","","","","","","","","","","","","",""
"","rating","","html-slider-response","41","189274","0.0-40.0","0","0","q3aSU","Scenes","","3212","","","","100","142","sergey-pesterev-y-b_FOmJXdg-unsplash.jpg","37","","","","","","","","","","","","","","","","","","","","","","","","","","","","","","","","","","","","","","","",""
"","rating","","html-slider-response","42","193071","0.0-41.0","0","0","q3aSU","Scenes","","3794","","","","37","110","bruno-van-der-kraan-qez8mNJ3ilU-unsplash.jpg","38","","","","","","","","","","","","","","","","","","","","","","","","","","","","","","","","","","","","","","","",""
"","rating","","html-slider-response","43","196248","0.0-42.0","0","0","q3aSU","Scenes","","3173","","","","59","140","samuele-errico-piccarini-JEBqFu2AOOA-unsplash.jpg","39","","","","","","","","","","","","","","","","","","","","","","","","","","","","","","","","","","","","","","","",""
"","rating","","html-slider-response","44","199140","0.0-43.0","0","0","q3aSU","Scenes","","2889","","","","57","149","yuriy-bogdanov-W51VK3Obcj0-unsplash.jpg","40","","","","","","","","","","","","","","","","","","","","","","","","","","","","","","","","","","","","","","","",""
"","rating","","html-slider-response","45","202600","0.0-44.0","0","0","q3aSU","Scenes","","3458","","","","12","106","ashim-d-silva-WeYamle9fDM-unsplash.jpg","41","","","","","","","","","","","","","","","","","","","","","","","","","","","","","","","","","","","","","","","",""
"","rating","","html-slider-response","46","206045","0.0-45.0","0","0","q3aSU","Scenes","","3443","","","","73","128","karsten-wurth-jS0zC2PJ17A-unsplash.jpg","42","","","","","","","","","","","","","","","","","","","","","","","","","","","","","","","","","","","","","","","",""
"","rating","","html-slider-response","47","208448","0.0-46.0","0","0","q3aSU","Scenes","","2401","","","","100","102","anisur-rahman-K2b7UDed6uQ-unsplash.jpg","43","","","","","","","","","","","","","","","","","","","","","","","","","","","","","","","","","","","","","","","",""
"","rating","","html-slider-response","48","210671","0.0-47.0","0","0","q3aSU","Scenes","","2221","","","","100","132","meng-ji-8BH_M-53CyA-unsplash.jpg","44","","","","","","","","","","","","","","","","","","","","","","","","","","","","","","","","","","","","","","","",""
"","rating","","html-slider-response","49","213366","0.0-48.0","0","0","q3aSU","Scenes","","2691","","","","67","138","petr-vysohlid-9fqwGqGLUxc-unsplash.jpg","45","","","","","","","","","","","","","","","","","","","","","","","","","","","","","","","","","","","","","","","",""
"","rating","","html-slider-response","50","217269","0.0-49.0","0","0","q3aSU","Scenes","","3901","","","","37","145","stephen-leonardi-gyIRjKPXupE-unsplash.jpg","46","","","","","","","","","","","","","","","","","","","","","","","","","","","","","","","","","","","","","","","",""
"","rating","","html-slider-response","51","219666","0.0-50.0","0","0","q3aSU","Scenes","","2393","","","","100","126","jordan-mcqueen-PJCZOWuOxbU-unsplash.jpg","47","","","","","","","","","","","","","","","","","","","","","","","","","","","","","","","","","","","","","","","",""
"","rating","","html-slider-response","52","222894","0.0-51.0","0","0","q3aSU","Scenes","","3224","","","","37","100","aleksandra-boguslawska-MS7KD9Ti7FQ-unsplash.jpg","48","","","","","","","","","","","","","","","","","","","","","","","","","","","","","","","","","","","","","","","",""
"","rating","","html-slider-response","53","225408","0.0-52.0","0","0","q3aSU","Scenes","","2511","","","","100","108","benjamin-voros-phIFdC6lA4E-unsplash.jpg","49","","","","","","","","","","","","","","","","","","","","","","","","","","","","","","","","","","","","","","","",""
"","deliberation_instructions","","instructions","54","343741","0.0-53.0-0.0","0","0","q3aSU","Scenes","[{""page_index"":0,""viewing_time"":43029},{""page_index"":1,""viewing_time"":14935},{""page_index"":2,""viewing_time"":23275},{""page_index"":3,""viewing_time"":33383},{""page_index"":4,""viewing_time"":3704}]","118327","","","","","","","","","","","","","","","","","","","","","","","","","","","","","","","","","","","","","","","","","","","","","","",""
"","deliberation_comprehension_check","","survey-multi-choice","55","379600","0.0-53.0-1.0","0","0","q3aSU","Scenes","","35844","{""Q0"":""True"",""Q1"":""True"",""Q2"":""Consider carefully and take your time (up to 10 seconds)"",""Q3"":""True"",""Q4"":""D""}","0","","","","","","","","","","","","","","","","","","","","","","","","","","","","","","","","","","","","","","","","","","","","",""
"","start_phase","","html-keyboard-response","56","384696","0.0-54.0","0","0","q3aSU","Scenes","","5091","","","78","","","","","","","","","","","","","","","","","","","","","","","","","","","","","","","","","","","","","","","","","","","",""
"","first_deliberation_block","","html-keyboard-response","57","392975","0.0-55.0","0","0","q3aSU","Scenes","","8277","","","78","","","","","","","","","","","","","","","","","","","","","","","","","","","","","","","","","","","","","","","","","","","",""
"","fixation","","html-keyboard-response","58","393995","0.0-56.0-0.0","0","0","q3aSU","Scenes","","null","","","null","","","","","","","","","","","","","","","","","","","","","","","","","","","","","","","","","","","","","","","","","","","",""
"","deliberation","","html-keyboard-response","59","395822","0.0-56.0-1.0","0","0","q3aSU","Scenes","","1823","","","75","","","","0","134","137","0","1","85","64","milada-vigerova-pQMM63GE7fo-unsplash.jpg","olga-stalska-QaWRyEdlffY-unsplash.jpg","1","0","137","134","","","","","","","","","","","","","","","","","","","","","","","","","","","",""
"","choice_confirmation","","html-keyboard-response","60","396342","0.0-56.0-2.0-0.0","0","0","q3aSU","Scenes","","null","","","null","","","","0","134","137","","","","","","","","","","","","","","","","","","","","","","","","","","","","","","","","","","","","","",""
"","fixation","","html-keyboard-response","61","397359","0.0-57.0-0.0","0","0","q3aSU","Scenes","","null","","","null","","","","","","","","","","","","","","","","","","","","","","","","","","","","","","","","","","","","","","","","","","","",""
"","deliberation","","html-keyboard-response","62","399056","0.0-57.0-1.0","0","0","q3aSU","Scenes","","1693","","","68","","","","1","112","131","0","-1","100","100","cosmic-timetraveler-pYyOZ8q7AII-unsplash.jpg","luca-bravo-hFzIoD0F_i8-unsplash.jpg","1","1","112","131","","","","","","","","","","","","","","","","","","","","","","","","","","","",""
"","choice_confirmation","","html-keyboard-response","63","399568","0.0-57.0-2.0-0.0","0","0","q3aSU","Scenes","","null","","","null","","","","1","112","131","","","","","","","","","","","","","","","","","","","","","","","","","","","","","","","","","","","","","",""
"","fixation","","html-keyboard-response","64","400580","0.0-58.0-0.0","0","0","q3aSU","Scenes","","null","","","null","","","","","","","","","","","","","","","","","","","","","","","","","","","","","","","","","","","","","","","","","","","",""
"","deliberation","","html-keyboard-response","65","402639","0.0-58.0-1.0","0","0","q3aSU","Scenes","","2057","","","75","","","","2","128","141","1","1","73","59","karsten-wurth-jS0zC2PJ17A-unsplash.jpg","sebastian-unrau-v4e3JI7DDHI-unsplash.jpg","1","0","141","128","","","","","","","","","","","","","","","","","","","","","","","","","","","",""
"","choice_confirmation","","html-keyboard-response","66","403147","0.0-58.0-2.0-0.0","0","0","q3aSU","Scenes","","null","","","null","","","","2","128","141","","","","","","","","","","","","","","","","","","","","","","","","","","","","","","","","","","","","","",""
"","explain_trial","","survey-text","67","486857","0.0-58.0-5.0-0.0","0","0","q3aSU","Scenes","","83706","{""Q0"":""It's more visually appealing to me. The wet dark pavement covered with tiny leaves. The green grass mixing in with the orange unfallen leaves. It's odd, but in a good way.""}","","","","","","2","128","141","","","","","","","","","","","{""Q0"":""It's more visually appealing to me. The wet dark pavement covered with tiny leaves. The green grass mixing in with the orange unfallen leaves. It's odd, but in a good way.""}","","","","","","","","","","","","","","","","","","","","","","","","","","",""
"","fixation","","html-keyboard-response","68","487875","0.0-59.0-0.0","0","0","q3aSU","Scenes","","null","","","null","","","","","","","","","","","","","","","","","","","","","","","","","","","","","","","","","","","","","","","","","","","",""
"","deliberation","","html-keyboard-response","69","489648","0.0-59.0-1.0","0","0","q3aSU","Scenes","","1771","","","75","","","","3","121","133","0","-1","79","100","jean-pierre-brungs-qxCqkbF7tUc-unsplash.jpg","mickey-o-neil-xL66l--msXU-unsplash.jpg","1","0","133","121","","","","","","","","","","","","","","","","","","","","","","","","","","","",""
"","choice_confirmation","","html-keyboard-response","70","490152","0.0-59.0-2.0-0.0","0","0","q3aSU","Scenes","","null","","","null","","","","3","121","133","","","","","","","","","","","","","","","","","","","","","","","","","","","","","","","","","","","","","",""
"","fixation","","html-keyboard-response","71","491166","0.0-60.0-0.0","0","0","q3aSU","Scenes","","null","","","null","","","","","","","","","","","","","","","","","","","","","","","","","","","","","","","","","","","","","","","","","","","",""
"","deliberation","","html-keyboard-response","72","493362","0.0-60.0-1.0","0","0","q3aSU","Scenes","","2193","","","75","","","","4","104","111","0","-1","62","76","artem-sapegin-XGDBdSQ70O0-unsplash.jpg","claudio-testa-U3F2o6vz3bs-unsplash.jpg","1","0","111","104","","","","","","","","","","","","","","","","","","","","","","","","","","","",""
"","choice_confirmation","","html-keyboard-response","73","493881","0.0-60.0-2.0-0.0","0","0","q3aSU","Scenes","","null","","","null","","","","4","104","111","","","","","","","","","","","","","","","","","","","","","","","","","","","","","","","","","","","","","",""
"","fixation","","html-keyboard-response","74","494896","0.0-61.0-0.0","0","0","q3aSU","Scenes","","null","","","null","","","","","","","","","","","","","","","","","","","","","","","","","","","","","","","","","","","","","","","","","","","",""
"","deliberation","","html-keyboard-response","75","496254","0.0-61.0-1.0","0","0","q3aSU","Scenes","","1354","","","68","","","","5","118","109","0","-1","100","83","henry-be-NLF6hTe4PAg-unsplash.jpg","brigitta-schneiter-hXXRLtTxXCU-unsplash.jpg","1","1","118","109","","","","","","","","","","","","","","","","","","","","","","","","","","","",""
"","choice_confirmation","","html-keyboard-response","76","496761","0.0-61.0-2.0-0.0","0","0","q3aSU","Scenes","","null","","","null","","","","5","118","109","","","","","","","","","","","","","","","","","","","","","","","","","","","","","","","","","","","","","",""
"","fixation","","html-keyboard-response","77","497777","0.0-62.0-0.0","0","0","q3aSU","Scenes","","null","","","null","","","","","","","","","","","","","","","","","","","","","","","","","","","","","","","","","","","","","","","","","","","",""
"","deliberation","","html-keyboard-response","78","499294","0.0-62.0-1.0","0","0","q3aSU","Scenes","","1515","","","75","","","","6","115","139","1","-1","100","86","darrell-cassell-hoCXpPUMCoE-unsplash.jpg","samsommer-vddccTqwal8-unsplash.jpg","1","0","139","115","","","","","","","","","","","","","","","","","","","","","","","","","","","",""
"","choice_confirmation","","html-keyboard-response","79","499799","0.0-62.0-2.0-0.0","0","0","q3aSU","Scenes","","null","","","null","","","","6","115","139","","","","","","","","","","","","","","","","","","","","","","","","","","","","","","","","","","","","","",""
"","explain_trial","","survey-text","80","551105","0.0-62.0-5.0-0.0","0","0","q3aSU","Scenes","","51304","{""Q0"":""I really like the snow and it looks mystical when seen from above. These mountains are beautiful too!""}","","","","","","6","115","139","","","","","","","","","","","{""Q0"":""I really like the snow and it looks mystical when seen from above. These mountains are beautiful too!""}","","","","","","","","","","","","","","","","","","","","","","","","","","",""
"","fixation","","html-keyboard-response","81","552126","0.0-63.0-0.0","0","0","q3aSU","Scenes","","null","","","null","","","","","","","","","","","","","","","","","","","","","","","","","","","","","","","","","","","","","","","","","","","",""
"","deliberation","","html-keyboard-response","82","553295","0.0-63.0-1.0","0","0","q3aSU","Scenes","","1167","","","68","","","","7","140","135","1","-1","59","91","samuele-errico-piccarini-JEBqFu2AOOA-unsplash.jpg","mohammad-alizade-4wzRuAb-KWs-unsplash.jpg","1","1","140","135","","","","","","","","","","","","","","","","","","","","","","","","","","","",""
"","choice_confirmation","","html-keyboard-response","83","553818","0.0-63.0-2.0-0.0","0","0","q3aSU","Scenes","","null","","","null","","","","7","140","135","","","","","","","","","","","","","","","","","","","","","","","","","","","","","","","","","","","","","",""
"","explain_trial","","survey-text","84","609802","0.0-63.0-5.0-0.0","0","0","q3aSU","Scenes","","55982","{""Q0"":""It has a lot going on. It has something for the people who like solitude, the lake, the mountains, and/or boats.""}","","","","","","7","140","135","","","","","","","","","","","{""Q0"":""It has a lot going on. It has something for the people who like solitude, the lake, the mountains, and/or boats.""}","","","","","","","","","","","","","","","","","","","","","","","","","","",""
"","fixation","","html-keyboard-response","85","610821","0.0-64.0-0.0","0","0","q3aSU","Scenes","","null","","","null","","","","","","","","","","","","","","","","","","","","","","","","","","","","","","","","","","","","","","","","","","","",""
"","deliberation","","html-keyboard-response","86","611993","0.0-64.0-1.0","0","0","q3aSU","Scenes","","1170","","","68","","","","8","144","107","1","1","84","85","solotravelgoals-7kLufxYoqWk-unsplash.jpg","benjamin-davies-Zm2n2O7Fph4-unsplash.jpg","1","1","144","107","","","","","","","","","","","","","","","","","","","","","","","","","","","",""
"","choice_confirmation","","html-keyboard-response","87","612507","0.0-64.0-2.0-0.0","0","0","q3aSU","Scenes","","null","","","null","","","","8","144","107","","","","","","","","","","","","","","","","","","","","","","","","","","","","","","","","","","","","","",""
"","explain_trial","","survey-text","88","663552","0.0-64.0-5.0-0.0","0","0","q3aSU","Scenes","","51043","{""Q0"":""I think this picture will naturally sell better. People like their pictures with the arches in them.""}","","","","","","8","144","107","","","","","","","","","","","{""Q0"":""I think this picture will naturally sell better. People like their pictures with the arches in them.""}","","","","","","","","","","","","","","","","","","","","","","","","","","",""
"","fixation","","html-keyboard-response","89","664574","0.0-65.0-0.0","0","0","q3aSU","Scenes","","null","","","null","","","","","","","","","","","","","","","","","","","","","","","","","","","","","","","","","","","","","","","","","","","",""
"","deliberation","","html-keyboard-response","90","665540","0.0-65.0-1.0","0","0","q3aSU","Scenes","","964","","","68","","","","9","119","136","0","1","100","100","james-wheeler-AFC0XvICMgs-unsplash.jpg","nicolas-jehly-LzVB84KkZOE-unsplash.jpg","1","1","119","136","","","","","","","","","","","","","","","","","","","","","","","","","","","",""
"","choice_confirmation","","html-keyboard-response","91","666049","0.0-65.0-2.0-0.0","0","0","q3aSU","Scenes","","null","","","null","","","","9","119","136","","","","","","","","","","","","","","","","","","","","","","","","","","","","","","","","","","","","","",""
"","fixation","","html-keyboard-response","92","667056","0.0-66.0-0.0","0","0","q3aSU","Scenes","","null","","","null","","","","","","","","","","","","","","","","","","","","","","","","","","","","","","","","","","","","","","","","","","","",""
"","deliberation","","html-keyboard-response","93","668471","0.0-66.0-1.0","0","0","q3aSU","Scenes","","1412","","","68","","","","10","138","149","1","1","67","57","petr-vysohlid-9fqwGqGLUxc-unsplash.jpg","yuriy-bogdanov-W51VK3Obcj0-unsplash.jpg","1","1","138","149","","","","","","","","","","","","","","","","","","","","","","","","","","","",""
"","choice_confirmation","","html-keyboard-response","94","668989","0.0-66.0-2.0-0.0","0","0","q3aSU","Scenes","","null","","","null","","","","10","138","149","","","","","","","","","","","","","","","","","","","","","","","","","","","","","","","","","","","","","",""
"","explain_trial","","survey-text","95","732665","0.0-66.0-5.0-0.0","0","0","q3aSU","Scenes","","63672","{""Q0"":""This picture is way more interesting than the other one. A sunset and some high contrast is better.""}","","","","","","10","138","149","","","","","","","","","","","{""Q0"":""This picture is way more interesting than the other one. A sunset and some high contrast is better.""}","","","","","","","","","","","","","","","","","","","","","","","","","","",""
"","fixation","","html-keyboard-response","96","733679","0.0-67.0-0.0","0","0","q3aSU","Scenes","","null","","","null","","","","","","","","","","","","","","","","","","","","","","","","","","","","","","","","","","","","","","","","","","","",""
"","deliberation","","html-keyboard-response","97","735043","0.0-67.0-1.0","0","0","q3aSU","Scenes","","1361","","","75","","","","11","113","123","1","1","72","87","damian-denis-D8R_txR_0PE-unsplash.jpg","joel-jasmin-forestbird-efuwb5eBDrI-unsplash.jpg","1","0","123","113","","","","","","","","","","","","","","","","","","","","","","","","","","","",""
"","choice_confirmation","","html-keyboard-response","98","735555","0.0-67.0-2.0-0.0","0","0","q3aSU","Scenes","","null","","","null","","","","11","113","123","","","","","","","","","","","","","","","","","","","","","","","","","","","","","","","","","","","","","",""
"","explain_trial","","survey-text","99","799347","0.0-67.0-5.0-0.0","0","0","q3aSU","Scenes","","63790","{""Q0"":""This picture is way more interesting that the other as well. The other picture is odd. This picture looks more natural and it's like the viewer can get lost in it.""}","","","","","","11","113","123","","","","","","","","","","","{""Q0"":""This picture is way more interesting that the other as well. The other picture is odd. This picture looks more natural and it's like the viewer can get lost in it.""}","","","","","","","","","","","","","","","","","","","","","","","","","","",""
"","practice_deliberation_again","","html-keyboard-response","100","803351","0.0-67.0-6.0-0.0","0","0","q3aSU","Scenes","","4002","","","78","","","","","","","","","","","","","","","","","","","","","","","","","","","","","","","","","","","","","","","","","","","",""
"","fixation","","html-keyboard-response","101","804372","0.0-68.0-0.0","0","0","q3aSU","Scenes","","null","","","null","","","","","","","","","","","","","","","","","","","","","","","","","","","","","","","","","","","","","","","","","","","",""
"","deliberation","","html-keyboard-response","102","805675","0.0-68.0-1.0","0","0","q3aSU","Scenes","","1299","","","68","","","","12","140","135","0","-1","59","91","samuele-errico-piccarini-JEBqFu2AOOA-unsplash.jpg","mohammad-alizade-4wzRuAb-KWs-unsplash.jpg","2","1","140","135","","","","","","","","","","","","","","","","","","","","","","","","","","","",""
"","choice_confirmation","","html-keyboard-response","103","806190","0.0-68.0-2.0-0.0","0","0","q3aSU","Scenes","","null","","","null","","","","12","140","135","","","","","","","","","","","","","","","","","","","","","","","","","","","","","","","","","","","","","",""
"","fixation","","html-keyboard-response","104","807211","0.0-69.0-0.0","0","0","q3aSU","Scenes","","null","","","null","","","","","","","","","","","","","","","","","","","","","","","","","","","","","","","","","","","","","","","","","","","",""
"","deliberation","","html-keyboard-response","105","808258","0.0-69.0-1.0","0","0","q3aSU","Scenes","","1045","","","68","","","","13","119","136","1","1","100","100","james-wheeler-AFC0XvICMgs-unsplash.jpg","nicolas-jehly-LzVB84KkZOE-unsplash.jpg","2","1","119","136","","","","","","","","","","","","","","","","","","","","","","","","","","","",""
"","choice_confirmation","","html-keyboard-response","106","808777","0.0-69.0-2.0-0.0","0","0","q3aSU","Scenes","","null","","","null","","","","13","119","136","","","","","","","","","","","","","","","","","","","","","","","","","","","","","","","","","","","","","",""
"","explain_trial","","survey-text","107","929356","0.0-69.0-5.0-0.0","0","0","q3aSU","Scenes","","120575","{""Q0"":""This picture is visually impressive. It looks a little odd after watching it for a few seconds, but then it causes the viewer to look at each nice feature. The orange peaks, the clouds reflections, the river bank.""}","","","","","","13","119","136","","","","","","","","","","","{""Q0"":""This picture is visually impressive. It looks a little odd after watching it for a few seconds, but then it causes the viewer to look at each nice feature. The orange peaks, the clouds reflections, the river bank.""}","","","","","","","","","","","","","","","","","","","","","","","","","","",""
"","fixation","","html-keyboard-response","108","930365","0.0-70.0-0.0","0","0","q3aSU","Scenes","","null","","","null","","","","","","","","","","","","","","","","","","","","","","","","","","","","","","","","","","","","","","","","","","","",""
"","deliberation","","html-keyboard-response","109","932090","0.0-70.0-1.0","0","0","q3aSU","Scenes","","1723","","","68","","","","14","121","133","1","-1","79","100","jean-pierre-brungs-qxCqkbF7tUc-unsplash.jpg","mickey-o-neil-xL66l--msXU-unsplash.jpg","2","1","121","133","","","","","","","","","","","","","","","","","","","","","","","","","","","",""
"","choice_confirmation","","html-keyboard-response","110","932603","0.0-70.0-2.0-0.0","0","0","q3aSU","Scenes","","null","","","null","","","","14","121","133","","","","","","","","","","","","","","","","","","","","","","","","","","","","","","","","","","","","","",""
"","explain_trial","","survey-text","111","1023810","0.0-70.0-5.0-0.0","0","0","q3aSU","Scenes","","91203","{""Q0"":""This one is nice and the other pale compared to it. I think the view will like the color palette more combined with the open field.""}","","","","","","14","121","133","","","","","","","","","","","{""Q0"":""This one is nice and the other pale compared to it. I think the view will like the color palette more combined with the open field.""}","","","","","","","","","","","","","","","","","","","","","","","","","","",""
"","fixation","","html-keyboard-response","112","1024819","0.0-71.0-0.0","0","0","q3aSU","Scenes","","null","","","null","","","","","","","","","","","","","","","","","","","","","","","","","","","","","","","","","","","","","","","","","","","",""
"","deliberation","","html-keyboard-response","113","1026585","0.0-71.0-1.0","0","0","q3aSU","Scenes","","1764","","","68","","","","15","118","109","1","-1","100","83","henry-be-NLF6hTe4PAg-unsplash.jpg","brigitta-schneiter-hXXRLtTxXCU-unsplash.jpg","2","1","118","109","","","","","","","","","","","","","","","","","","","","","","","","","","","",""
"","choice_confirmation","","html-keyboard-response","114","1027092","0.0-71.0-2.0-0.0","0","0","q3aSU","Scenes","","null","","","null","","","","15","118","109","","","","","","","","","","","","","","","","","","","","","","","","","","","","","","","","","","","","","",""
"","explain_trial","","survey-text","115","1102330","0.0-71.0-5.0-0.0","0","0","q3aSU","Scenes","","75234","{""Q0"":""It is a weird-looking piece, but the flowers create some visual interest. I imagine some people will hang this in their rec room.""}","","","","","","15","118","109","","","","","","","","","","","{""Q0"":""It is a weird-looking piece, but the flowers create some visual interest. I imagine some people will hang this in their rec room.""}","","","","","","","","","","","","","","","","","","","","","","","","","","",""
"","fixation","","html-keyboard-response","116","1103347","0.0-72.0-0.0","0","0","q3aSU","Scenes","","null","","","null","","","","","","","","","","","","","","","","","","","","","","","","","","","","","","","","","","","","","","","","","","","",""
"","deliberation","","html-keyboard-response","117","1104478","0.0-72.0-1.0","0","0","q3aSU","Scenes","","1128","","","75","","","","16","115","139","0","-1","100","86","darrell-cassell-hoCXpPUMCoE-unsplash.jpg","samsommer-vddccTqwal8-unsplash.jpg","2","0","139","115","","","","","","","","","","","","","","","","","","","","","","","","","","","",""
"","choice_confirmation","","html-keyboard-response","118","1104982","0.0-72.0-2.0-0.0","0","0","q3aSU","Scenes","","null","","","null","","","","16","115","139","","","","","","","","","","","","","","","","","","","","","","","","","","","","","","","","","","","","","",""
"","fixation","","html-keyboard-response","119","1105991","0.0-73.0-0.0","0","0","q3aSU","Scenes","","null","","","null","","","","","","","","","","","","","","","","","","","","","","","","","","","","","","","","","","","","","","","","","","","",""
"","deliberation","","html-keyboard-response","120","1107009","0.0-73.0-1.0","0","0","q3aSU","Scenes","","1016","","","68","","","","17","134","137","1","1","85","64","milada-vigerova-pQMM63GE7fo-unsplash.jpg","olga-stalska-QaWRyEdlffY-unsplash.jpg","2","1","134","137","","","","","","","","","","","","","","","","","","","","","","","","","","","",""
"","choice_confirmation","","html-keyboard-response","121","1107527","0.0-73.0-2.0-0.0","0","0","q3aSU","Scenes","","null","","","null","","","","17","134","137","","","","","","","","","","","","","","","","","","","","","","","","","","","","","","","","","","","","","",""
"","explain_trial","","survey-text","122","1205154","0.0-73.0-5.0-0.0","0","0","q3aSU","Scenes","","97624","{""Q0"":""One thing. The waterfalls and clear water! The picture looks a little washed out, but I'd like this picture and I don't even hang pictures. The composition and forms are nice.""}","","","","","","17","134","137","","","","","","","","","","","{""Q0"":""One thing. The waterfalls and clear water! The picture looks a little washed out, but I'd like this picture and I don't even hang pictures. The composition and forms are nice.""}","","","","","","","","","","","","","","","","","","","","","","","","","","",""
"","fixation","","html-keyboard-response","123","1206175","0.0-74.0-0.0","0","0","q3aSU","Scenes","","null","","","null","","","","","","","","","","","","","","","","","","","","","","","","","","","","","","","","","","","","","","","","","","","",""
"","deliberation","","html-keyboard-response","124","1207596","0.0-74.0-1.0","0","0","q3aSU","Scenes","","1419","","","68","","","","18","112","131","1","-1","100","100","cosmic-timetraveler-pYyOZ8q7AII-unsplash.jpg","luca-bravo-hFzIoD0F_i8-unsplash.jpg","2","1","112","131","","","","","","","","","","","","","","","","","","","","","","","","","","","",""
"","choice_confirmation","","html-keyboard-response","125","1208109","0.0-74.0-2.0-0.0","0","0","q3aSU","Scenes","","null","","","null","","","","18","112","131","","","","","","","","","","","","","","","","","","","","","","","","","","","","","","","","","","","","","",""
"","explain_trial","","survey-text","126","1261706","0.0-74.0-5.0-0.0","0","0","q3aSU","Scenes","","53594","{""Q0"":""The odd colors in a painted style. I think the viewers will want this one simply from having such a painterly art style.""}","","","","","","18","112","131","","","","","","","","","","","{""Q0"":""The odd colors in a painted style. I think the viewers will want this one simply from having such a painterly art style.""}","","","","","","","","","","","","","","","","","","","","","","","","","","",""
"","fixation","","html-keyboard-response","127","1262715","0.0-75.0-0.0","0","0","q3aSU","Scenes","","null","","","null","","","","","","","","","","","","","","","","","","","","","","","","","","","","","","","","","","","","","","","","","","","",""
"","deliberation","","html-keyboard-response","128","1264100","0.0-75.0-1.0","0","0","q3aSU","Scenes","","1383","","","75","","","","19","128","141","0","1","73","59","karsten-wurth-jS0zC2PJ17A-unsplash.jpg","sebastian-unrau-v4e3JI7DDHI-unsplash.jpg","2","0","141","128","","","","","","","","","","","","","","","","","","","","","","","","","","","",""
"","choice_confirmation","","html-keyboard-response","129","1264621","0.0-75.0-2.0-0.0","0","0","q3aSU","Scenes","","null","","","null","","","","19","128","141","","","","","","","","","","","","","","","","","","","","","","","","","","","","","","","","","","","","","",""
"","fixation","","html-keyboard-response","130","1265638","0.0-76.0-0.0","0","0","q3aSU","Scenes","","null","","","null","","","","","","","","","","","","","","","","","","","","","","","","","","","","","","","","","","","","","","","","","","","",""
"","deliberation","","html-keyboard-response","131","1266879","0.0-76.0-1.0","0","0","q3aSU","Scenes","","1238","","","68","","","","20","138","149","0","1","67","57","petr-vysohlid-9fqwGqGLUxc-unsplash.jpg","yuriy-bogdanov-W51VK3Obcj0-unsplash.jpg","2","1","138","149","","","","","","","","","","","","","","","","","","","","","","","","","","","",""
"","choice_confirmation","","html-keyboard-response","132","1267394","0.0-76.0-2.0-0.0","0","0","q3aSU","Scenes","","null","","","null","","","","20","138","149","","","","","","","","","","","","","","","","","","","","","","","","","","","","","","","","","","","","","",""
"","fixation","","html-keyboard-response","133","1268411","0.0-77.0-0.0","0","0","q3aSU","Scenes","","null","","","null","","","","","","","","","","","","","","","","","","","","","","","","","","","","","","","","","","","","","","","","","","","",""
"","deliberation","","html-keyboard-response","134","1269510","0.0-77.0-1.0","0","0","q3aSU","Scenes","","1096","","","75","","","","21","113","123","0","1","72","87","damian-denis-D8R_txR_0PE-unsplash.jpg","joel-jasmin-forestbird-efuwb5eBDrI-unsplash.jpg","2","0","123","113","","","","","","","","","","","","","","","","","","","","","","","","","","","",""
"","choice_confirmation","","html-keyboard-response","135","1270018","0.0-77.0-2.0-0.0","0","0","q3aSU","Scenes","","null","","","null","","","","21","113","123","","","","","","","","","","","","","","","","","","","","","","","","","","","","","","","","","","","","","",""
"","fixation","","html-keyboard-response","136","1271031","0.0-78.0-0.0","0","0","q3aSU","Scenes","","null","","","null","","","","","","","","","","","","","","","","","","","","","","","","","","","","","","","","","","","","","","","","","","","",""
"","deliberation","","html-keyboard-response","137","1272107","0.0-78.0-1.0","0","0","q3aSU","Scenes","","1072","","","68","","","","22","144","107","0","1","84","85","solotravelgoals-7kLufxYoqWk-unsplash.jpg","benjamin-davies-Zm2n2O7Fph4-unsplash.jpg","2","1","144","107","","","","","","","","","","","","","","","","","","","","","","","","","","","",""
"","choice_confirmation","","html-keyboard-response","138","1272647","0.0-78.0-2.0-0.0","0","0","q3aSU","Scenes","","null","","","null","","","","22","144","107","","","","","","","","","","","","","","","","","","","","","","","","","","","","","","","","","","","","","",""
"","fixation","","html-keyboard-response","139","1273664","0.0-79.0-0.0","0","0","q3aSU","Scenes","","null","","","null","","","","","","","","","","","","","","","","","","","","","","","","","","","","","","","","","","","","","","","","","","","",""
"","deliberation","","html-keyboard-response","140","1275149","0.0-79.0-1.0","0","0","q3aSU","Scenes","","1482","","","75","","","","23","104","111","1","-1","62","76","artem-sapegin-XGDBdSQ70O0-unsplash.jpg","claudio-testa-U3F2o6vz3bs-unsplash.jpg","2","0","111","104","","","","","","","","","","","","","","","","","","","","","","","","","","","",""
"","choice_confirmation","","html-keyboard-response","141","1275672","0.0-79.0-2.0-0.0","0","0","q3aSU","Scenes","","null","","","null","","","","23","104","111","","","","","","","","","","","","","","","","","","","","","","","","","","","","","","","","","","","","","",""
"","explain_trial","","survey-text","142","1351230","0.0-79.0-5.0-0.0","0","0","q3aSU","Scenes","","75554","{""Q0"":""I actually change my mind now... but this one looks interesting with winding paths and a fresh pattern.""}","","","","","","23","104","111","","","","","","","","","","","{""Q0"":""I actually change my mind now... but this one looks interesting with winding paths and a fresh pattern.""}","","","","","","","","","","","","","","","","","","","","","","","","","","",""
"","start_critical_deliberation_block","","html-keyboard-response","143","1354779","0.0-79.0-7.0-0.0","0","0","q3aSU","Scenes","","3547","","","78","","","","","","","","","","","","","","","","","","","","","","","","","","","","","","","","","","","","","","","","","","","",""
"","fixation","","html-keyboard-response","144","1355789","0.0-80.0-0.0","0","0","q3aSU","Scenes","","null","","","null","","","","","","","","","","","","","","","","","","","","","","","","","","","","","","","","","","","","","","","","","","","",""
"","deliberation","","html-keyboard-response","145","1357011","0.0-80.0-1.0","0","0","q3aSU","Scenes","","1220","","","68","","","","24","118","109","0","-1","100","83","henry-be-NLF6hTe4PAg-unsplash.jpg","brigitta-schneiter-hXXRLtTxXCU-unsplash.jpg","3","1","118","109","","","","","","","","","","","","","","","","","","","","","","","","","","","",""
"","choice_confirmation","","html-keyboard-response","146","1357528","0.0-80.0-2.0-0.0","0","0","q3aSU","Scenes","","null","","","null","","","","24","118","109","","","","","","","","","","","","","","","","","","","","","","","","","","","","","","","","","","","","","",""
"","fixation","","html-keyboard-response","147","1358545","0.0-81.0-0.0","0","0","q3aSU","Scenes","","null","","","null","","","","","","","","","","","","","","","","","","","","","","","","","","","","","","","","","","","","","","","","","","","",""
"","deliberation","","html-keyboard-response","148","1359468","0.0-81.0-1.0","0","0","q3aSU","Scenes","","919","","","68","","","","25","134","137","0","1","85","64","milada-vigerova-pQMM63GE7fo-unsplash.jpg","olga-stalska-QaWRyEdlffY-unsplash.jpg","3","1","134","137","","","","","","","","","","","","","","","","","","","","","","","","","","","",""
"","choice_confirmation","","html-keyboard-response","149","1359981","0.0-81.0-2.0-0.0","0","0","q3aSU","Scenes","","null","","","null","","","","25","134","137","","","","","","","","","","","","","","","","","","","","","","","","","","","","","","","","","","","","","",""
"","fixation","","html-keyboard-response","150","1361004","0.0-82.0-0.0","0","0","q3aSU","Scenes","","null","","","null","","","","","","","","","","","","","","","","","","","","","","","","","","","","","","","","","","","","","","","","","","","",""
"","deliberation","","html-keyboard-response","151","1361732","0.0-82.0-1.0","0","0","q3aSU","Scenes","","725","","","68","","","","26","138","149","0","1","67","57","petr-vysohlid-9fqwGqGLUxc-unsplash.jpg","yuriy-bogdanov-W51VK3Obcj0-unsplash.jpg","3","1","138","149","","","","","","","","","","","","","","","","","","","","","","","","","","","",""
"","choice_confirmation","","html-keyboard-response","152","1362252","0.0-82.0-2.0-0.0","0","0","q3aSU","Scenes","","null","","","null","","","","26","138","149","","","","","","","","","","","","","","","","","","","","","","","","","","","","","","","","","","","","","",""
"","fixation","","html-keyboard-response","153","1363277","0.0-83.0-0.0","0","0","q3aSU","Scenes","","null","","","null","","","","","","","","","","","","","","","","","","","","","","","","","","","","","","","","","","","","","","","","","","","",""
"","deliberation","","html-keyboard-response","154","1364437","0.0-83.0-1.0","0","0","q3aSU","Scenes","","1156","","","68","","","","27","121","133","0","-1","79","100","jean-pierre-brungs-qxCqkbF7tUc-unsplash.jpg","mickey-o-neil-xL66l--msXU-unsplash.jpg","3","1","121","133","","","","","","","","","","","","","","","","","","","","","","","","","","","",""
"","choice_confirmation","","html-keyboard-response","155","1364951","0.0-83.0-2.0-0.0","0","0","q3aSU","Scenes","","null","","","null","","","","27","121","133","","","","","","","","","","","","","","","","","","","","","","","","","","","","","","","","","","","","","",""
"","fixation","","html-keyboard-response","156","1365959","0.0-84.0-0.0","0","0","q3aSU","Scenes","","null","","","null","","","","","","","","","","","","","","","","","","","","","","","","","","","","","","","","","","","","","","","","","","","",""
"","deliberation","","html-keyboard-response","157","1366931","0.0-84.0-1.0","0","0","q3aSU","Scenes","","969","","","68","","","","28","140","135","0","-1","59","91","samuele-errico-piccarini-JEBqFu2AOOA-unsplash.jpg","mohammad-alizade-4wzRuAb-KWs-unsplash.jpg","3","1","140","135","","","","","","","","","","","","","","","","","","","","","","","","","","","",""
"","choice_confirmation","","html-keyboard-response","158","1367451","0.0-84.0-2.0-0.0","0","0","q3aSU","Scenes","","null","","","null","","","","28","140","135","","","","","","","","","","","","","","","","","","","","","","","","","","","","","","","","","","","","","",""
"","fixation","","html-keyboard-response","159","1368477","0.0-85.0-0.0","0","0","q3aSU","Scenes","","null","","","null","","","","","","","","","","","","","","","","","","","","","","","","","","","","","","","","","","","","","","","","","","","",""
"","deliberation","","html-keyboard-response","160","1369358","0.0-85.0-1.0","0","0","q3aSU","Scenes","","878","","","75","","","","29","128","141","0","1","73","59","karsten-wurth-jS0zC2PJ17A-unsplash.jpg","sebastian-unrau-v4e3JI7DDHI-unsplash.jpg","3","0","141","128","","","","","","","","","","","","","","","","","","","","","","","","","","","",""
"","choice_confirmation","","html-keyboard-response","161","1369874","0.0-85.0-2.0-0.0","0","0","q3aSU","Scenes","","null","","","null","","","","29","128","141","","","","","","","","","","","","","","","","","","","","","","","","","","","","","","","","","","","","","",""
"","fixation","","html-keyboard-response","162","1370885","0.0-86.0-0.0","0","0","q3aSU","Scenes","","null","","","null","","","","","","","","","","","","","","","","","","","","","","","","","","","","","","","","","","","","","","","","","","","",""
"","deliberation","","html-keyboard-response","163","1371827","0.0-86.0-1.0","0","0","q3aSU","Scenes","","939","","","75","","","","30","115","139","0","-1","100","86","darrell-cassell-hoCXpPUMCoE-unsplash.jpg","samsommer-vddccTqwal8-unsplash.jpg","3","0","139","115","","","","","","","","","","","","","","","","","","","","","","","","","","","",""
"","choice_confirmation","","html-keyboard-response","164","1372335","0.0-86.0-2.0-0.0","0","0","q3aSU","Scenes","","null","","","null","","","","30","115","139","","","","","","","","","","","","","","","","","","","","","","","","","","","","","","","","","","","","","",""
"","fixation","","html-keyboard-response","165","1373343","0.0-87.0-0.0","0","0","q3aSU","Scenes","","null","","","null","","","","","","","","","","","","","","","","","","","","","","","","","","","","","","","","","","","","","","","","","","","",""
"","deliberation","","html-keyboard-response","166","1374038","0.0-87.0-1.0","0","0","q3aSU","Scenes","","692","","","68","","","","31","144","107","0","1","84","85","solotravelgoals-7kLufxYoqWk-unsplash.jpg","benjamin-davies-Zm2n2O7Fph4-unsplash.jpg","3","1","144","107","","","","","","","","","","","","","","","","","","","","","","","","","","","",""
"","choice_confirmation","","html-keyboard-response","167","1374556","0.0-87.0-2.0-0.0","0","0","q3aSU","Scenes","","null","","","null","","","","31","144","107","","","","","","","","","","","","","","","","","","","","","","","","","","","","","","","","","","","","","",""
"","fixation","","html-keyboard-response","168","1375587","0.0-88.0-0.0","0","0","q3aSU","Scenes","","null","","","null","","","","","","","","","","","","","","","","","","","","","","","","","","","","","","","","","","","","","","","","","","","",""
"","deliberation","","html-keyboard-response","169","1376505","0.0-88.0-1.0","0","0","q3aSU","Scenes","","916","","","68","","","","32","104","111","0","-1","62","76","artem-sapegin-XGDBdSQ70O0-unsplash.jpg","claudio-testa-U3F2o6vz3bs-unsplash.jpg","3","1","104","111","","","","","","","","","","","","","","","","","","","","","","","","","","","",""
"","choice_confirmation","","html-keyboard-response","170","1377018","0.0-88.0-2.0-0.0","0","0","q3aSU","Scenes","","null","","","null","","","","32","104","111","","","","","","","","","","","","","","","","","","","","","","","","","","","","","","","","","","","","","",""
"","fixation","","html-keyboard-response","171","1378032","0.0-89.0-0.0","0","0","q3aSU","Scenes","","null","","","null","","","","","","","","","","","","","","","","","","","","","","","","","","","","","","","","","","","","","","","","","","","",""
"","deliberation","","html-keyboard-response","172","1378758","0.0-89.0-1.0","0","0","q3aSU","Scenes","","723","","","68","","","","33","112","131","0","-1","100","100","cosmic-timetraveler-pYyOZ8q7AII-unsplash.jpg","luca-bravo-hFzIoD0F_i8-unsplash.jpg","3","1","112","131","","","","","","","","","","","","","","","","","","","","","","","","","","","",""
"","choice_confirmation","","html-keyboard-response","173","1379293","0.0-89.0-2.0-0.0","0","0","q3aSU","Scenes","","null","","","null","","","","33","112","131","","","","","","","","","","","","","","","","","","","","","","","","","","","","","","","","","","","","","",""
"","fixation","","html-keyboard-response","174","1380310","0.0-90.0-0.0","0","0","q3aSU","Scenes","","null","","","null","","","","","","","","","","","","","","","","","","","","","","","","","","","","","","","","","","","","","","","","","","","",""
"","deliberation","","html-keyboard-response","175","1381166","0.0-90.0-1.0","0","0","q3aSU","Scenes","","853","","","68","","","","34","119","136","0","1","100","100","james-wheeler-AFC0XvICMgs-unsplash.jpg","nicolas-jehly-LzVB84KkZOE-unsplash.jpg","3","1","119","136","","","","","","","","","","","","","","","","","","","","","","","","","","","",""
"","choice_confirmation","","html-keyboard-response","176","1381682","0.0-90.0-2.0-0.0","0","0","q3aSU","Scenes","","null","","","null","","","","34","119","136","","","","","","","","","","","","","","","","","","","","","","","","","","","","","","","","","","","","","",""
"","fixation","","html-keyboard-response","177","1382693","0.0-91.0-0.0","0","0","q3aSU","Scenes","","null","","","null","","","","","","","","","","","","","","","","","","","","","","","","","","","","","","","","","","","","","","","","","","","",""
"","deliberation","","html-keyboard-response","178","1383935","0.0-91.0-1.0","0","0","q3aSU","Scenes","","1240","","","75","","","","35","113","123","0","1","72","87","damian-denis-D8R_txR_0PE-unsplash.jpg","joel-jasmin-forestbird-efuwb5eBDrI-unsplash.jpg","3","0","123","113","","","","","","","","","","","","","","","","","","","","","","","","","","","",""
"","choice_confirmation","","html-keyboard-response","179","1384458","0.0-91.0-2.0-0.0","0","0","q3aSU","Scenes","","null","","","null","","","","35","113","123","","","","","","","","","","","","","","","","","","","","","","","","","","","","","","","","","","","","","",""
"","reward_learning_instructions","","instructions","180","1439799","0.0-92.0-0.0","0","0","q3aSU","Scenes","[{""page_index"":0,""viewing_time"":27437},{""page_index"":1,""viewing_time"":22601},{""page_index"":2,""viewing_time"":5300}]","55339","","","","","","","","","","","","","","","","","","","","","","","","","","","","","","","","","","","","","","","","","","","","","","",""
"","reward_comprehension_check","","survey-multi-choice","181","1460875","0.0-92.0-1.0","0","0","q3aSU","Scenes","","21069","{""Q0"":""True"",""Q1"":""True"",""Q2"":""Press the space bar to see its outcome"",""Q3"":""Press the relevant key while the outcome is presented""}","0","","","","","","","","","","","","","","","","","","","","","","","","","","","","","","","","","","","","","","","","","","","","",""
"","start_phase","","html-keyboard-response","182","1464419","0.0-93.0","0","0","q3aSU","Scenes","","3541","","","78","","","","","","","","","","","","","","","","","","","","","","","","","","","","","","","","","","","","","","","","","","","",""
"","fixation","","html-keyboard-response","183","1465428","0.0-94.0","0","0","q3aSU","Scenes","","null","","","null","","","","","","","","","","","","","","","","","","","","","","","","","","","","","","","","","","","","","","","","","","","",""
"","see_reward","","html-keyboard-response","184","1466305","0.0-95.0","0","0","q3aSU","Scenes","","874","","","32","","138","","0","","","","1","","","","","1","","","","","148","874","","","","","","","","","","","","","","","","","","","","","","","","",""
"","reward_outcome","","html-keyboard-response","185","1468322","0.0-96.0","0","0","q3aSU","Scenes","","972","","","38","","138","","0","","","","","","","","","","","","","","","","1","972","","","","","","","","","","","","","","","","","","","","","","",""
"","fixation","","html-keyboard-response","186","1469342","0.0-99.0","0","0","q3aSU","Scenes","","null","","","null","","","","","","","","","","","","","","","","","","","","","","","","","","","","","","","","","","","","","","","","","","","",""
"","see_reward","","html-keyboard-response","187","1470039","0.0-100.0","0","0","q3aSU","Scenes","","695","","","32","","144","","1","","","","1","","","","","1","","","","","146","695","","","","","","","","","","","","","","","","","","","","","","","","",""
"","reward_outcome","","html-keyboard-response","188","1472054","0.0-101.0","0","0","q3aSU","Scenes","","953","","","38","","144","","1","","","","","","","","","","","","","","","","1","953","","","","","","","","","","","","","","","","","","","","","","",""
"","fixation","","html-keyboard-response","189","1473073","0.0-104.0","0","0","q3aSU","Scenes","","null","","","null","","","","","","","","","","","","","","","","","","","","","","","","","","","","","","","","","","","","","","","","","","","",""
"","see_reward","","html-keyboard-response","190","1473958","0.0-105.0","0","0","q3aSU","Scenes","","883","","","32","","134","","2","","","","1","","","","","1","","","","","150","883","","","","","","","","","","","","","","","","","","","","","","","","",""
"","reward_outcome","","html-keyboard-response","191","1475972","0.0-106.0","0","0","q3aSU","Scenes","","1020","","","38","","134","","2","","","","","","","","","","","","","","","","1","1020","","","","","","","","","","","","","","","","","","","","","","",""
"","fixation","","html-keyboard-response","192","1476984","0.0-109.0","0","0","q3aSU","Scenes","","null","","","null","","","","","","","","","","","","","","","","","","","","","","","","","","","","","","","","","","","","","","","","","","","",""
"","see_reward","","html-keyboard-response","193","1477890","0.0-110.0","0","0","q3aSU","Scenes","","904","","","32","","134","","3","","","","1","","","","","1","","","","","150","904","","","","","","","","","","","","","","","","","","","","","","","","",""
"","reward_outcome","","html-keyboard-response","194","1479915","0.0-111.0","0","0","q3aSU","Scenes","","1057","","","38","","134","","3","","","","","","","","","","","","","","","","1","1057","","","","","","","","","","","","","","","","","","","","","","",""
"","fixation","","html-keyboard-response","195","1480931","0.0-114.0","0","0","q3aSU","Scenes","","null","","","null","","","","","","","","","","","","","","","","","","","","","","","","","","","","","","","","","","","","","","","","","","","",""
"","see_reward","","html-keyboard-response","196","1481878","0.0-115.0","0","0","q3aSU","Scenes","","944","","","32","","139","","4","","","","-1","","","","","1","","","","","0","944","","","","","","","","","","","","","","","","","","","","","","","","",""
"","reward_outcome","","html-keyboard-response","197","1483894","0.0-116.0","0","0","q3aSU","Scenes","","1009","","","40","","139","","4","","","","","","","","","","","","","","","","-1","1009","","","","","","","","","","","","","","","","","","","","","","",""
"","fixation","","html-keyboard-response","198","1484916","0.0-119.0","0","0","q3aSU","Scenes","","null","","","null","","","","","","","","","","","","","","","","","","","","","","","","","","","","","","","","","","","","","","","","","","","",""
"","see_reward","","html-keyboard-response","199","1485488","0.0-120.0","0","0","q3aSU","Scenes","","570","","","32","","119","","5","","","","1","","","","","1","","","","","147","570","","","","","","","","","","","","","","","","","","","","","","","","",""
"","reward_outcome","","html-keyboard-response","200","1487506","0.0-121.0","0","0","q3aSU","Scenes","","1065","","","38","","119","","5","","","","","","","","","","","","","","","","1","1065","","","","","","","","","","","","","","","","","","","","","","",""
"","fixation","","html-keyboard-response","201","1488513","0.0-124.0","0","0","q3aSU","Scenes","","null","","","null","","","","","","","","","","","","","","","","","","","","","","","","","","","","","","","","","","","","","","","","","","","",""
"","see_reward","","html-keyboard-response","202","1489260","0.0-125.0","0","0","q3aSU","Scenes","","743","","","32","","140","","6","","","","-1","","","","","1","","","","","0","743","","","","","","","","","","","","","","","","","","","","","","","","",""
"","reward_outcome","","html-keyboard-response","203","1491279","0.0-126.0","0","0","q3aSU","Scenes","","1020","","","40","","140","","6","","","","","","","","","","","","","","","","-1","1020","","","","","","","","","","","","","","","","","","","","","","",""
"","fixation","","html-keyboard-response","204","1492293","0.0-129.0","0","0","q3aSU","Scenes","","null","","","null","","","","","","","","","","","","","","","","","","","","","","","","","","","","","","","","","","","","","","","","","","","",""
"","see_reward","","html-keyboard-response","205","1492971","0.0-130.0","0","0","q3aSU","Scenes","","674","","","32","","119","","7","","","","1","","","","","1","","","","","147","674","","","","","","","","","","","","","","","","","","","","","","","","",""
"","reward_outcome","","html-keyboard-response","206","1494989","0.0-131.0","0","0","q3aSU","Scenes","","1040","","","38","","119","","7","","","","","","","","","","","","","","","","1","1040","","","","","","","","","","","","","","","","","","","","","","",""
"","fixation","","html-keyboard-response","207","1496012","0.0-134.0","0","0","q3aSU","Scenes","","null","","","null","","","","","","","","","","","","","","","","","","","","","","","","","","","","","","","","","","","","","","","","","","","",""
"","see_reward","","html-keyboard-response","208","1496711","0.0-135.0","0","0","q3aSU","Scenes","","696","","","32","","121","","8","","","","-1","","","","","1","","","","","0","696","","","","","","","","","","","","","","","","","","","","","","","","",""
"","reward_outcome","","html-keyboard-response","209","1498729","0.0-136.0","0","0","q3aSU","Scenes","","1447","","","40","","121","","8","","","","","","","","","","","","","","","","-1","1447","","","","","","","","","","","","","","","","","","","","","","",""
"","fixation","","html-keyboard-response","210","1499751","0.0-139.0","0","0","q3aSU","Scenes","","null","","","null","","","","","","","","","","","","","","","","","","","","","","","","","","","","","","","","","","","","","","","","","","","",""
"","see_reward","","html-keyboard-response","211","1500507","0.0-140.0","0","0","q3aSU","Scenes","","753","","","32","","112","","9","","","","-1","","","","","1","","","","","0","753","","","","","","","","","","","","","","","","","","","","","","","","",""
"","reward_outcome","","html-keyboard-response","212","1502531","0.0-141.0","0","0","q3aSU","Scenes","","1054","","","40","","112","","9","","","","","","","","","","","","","","","","-1","1054","","","","","","","","","","","","","","","","","","","","","","",""
"","fixation","","html-keyboard-response","213","1503553","0.0-144.0","0","0","q3aSU","Scenes","","null","","","null","","","","","","","","","","","","","","","","","","","","","","","","","","","","","","","","","","","","","","","","","","","",""
"","see_reward","","html-keyboard-response","214","1504195","0.0-145.0","0","0","q3aSU","Scenes","","639","","","32","","139","","10","","","","-1","","","","","1","","","","","0","639","","","","","","","","","","","","","","","","","","","","","","","","",""
"","reward_outcome","","html-keyboard-response","215","1506209","0.0-146.0","0","0","q3aSU","Scenes","","1465","","","40","","139","","10","","","","","","","","","","","","","","","","-1","1465","","","","","","","","","","","","","","","","","","","","","","",""
"","fixation","","html-keyboard-response","216","1507221","0.0-149.0","0","0","q3aSU","Scenes","","null","","","null","","","","","","","","","","","","","","","","","","","","","","","","","","","","","","","","","","","","","","","","","","","",""
"","see_reward","","html-keyboard-response","217","1507920","0.0-150.0","0","0","q3aSU","Scenes","","697","","","32","","121","","11","","","","-1","","","","","1","","","","","0","697","","","","","","","","","","","","","","","","","","","","","","","","",""
"","reward_outcome","","html-keyboard-response","218","1509935","0.0-151.0","0","0","q3aSU","Scenes","","null","","","null","","121","","11","","","","","","","","","","","","","","","","NaN","null","","","","","","","","","","","","","","","","","","","","","","",""
"","respond_faster","","html-keyboard-response","219","1511453","0.0-152.0-0.0","1","0","q3aSU","Scenes","","null","","","null","","","","","","","","","","","","","","","","","","","","","","","","","","","","","","","","","","","","","","","","","","","",""
"","fixation","","html-keyboard-response","220","1512459","0.0-154.0","0","0","q3aSU","Scenes","","null","","","null","","","","","","","","","","","","","","","","","","","","","","","","","","","","","","","","","","","","","","","","","","","",""
"","see_reward","","html-keyboard-response","221","1513773","0.0-155.0","0","0","q3aSU","Scenes","","1311","","","32","","118","","12","","","","-1","","","","","1","","","","","0","1311","","","","","","","","","","","","","","","","","","","","","","","","",""
"","reward_outcome","","html-keyboard-response","222","1515784","0.0-156.0","0","0","q3aSU","Scenes","","723","","","40","","118","","12","","","","","","","","","","","","","","","","-1","723","","","","","","","","","","","","","","","","","","","","","","",""
"","fixation","","html-keyboard-response","223","1516800","0.0-159.0","0","0","q3aSU","Scenes","","null","","","null","","","","","","","","","","","","","","","","","","","","","","","","","","","","","","","","","","","","","","","","","","","",""
"","see_reward","","html-keyboard-response","224","1517294","0.0-160.0","0","0","q3aSU","Scenes","","491","","","32","","118","","13","","","","-1","","","","","1","","","","","0","491","","","","","","","","","","","","","","","","","","","","","","","","",""
"","reward_outcome","","html-keyboard-response","225","1519306","0.0-161.0","0","0","q3aSU","Scenes","","452","","","40","","118","","13","","","","","","","","","","","","","","","","-1","452","","","","","","","","","","","","","","","","","","","","","","",""
"","fixation","","html-keyboard-response","226","1520325","0.0-164.0","0","0","q3aSU","Scenes","","null","","","null","","","","","","","","","","","","","","","","","","","","","","","","","","","","","","","","","","","","","","","","","","","",""
"","see_reward","","html-keyboard-response","227","1520875","0.0-165.0","0","0","q3aSU","Scenes","","546","","","32","","112","","14","","","","-1","","","","","1","","","","","0","546","","","","","","","","","","","","","","","","","","","","","","","","",""
"","reward_outcome","","html-keyboard-response","228","1522884","0.0-166.0","0","0","q3aSU","Scenes","","626","","","40","","112","","14","","","","","","","","","","","","","","","","-1","626","","","","","","","","","","","","","","","","","","","","","","",""
"","fixation","","html-keyboard-response","229","1523896","0.0-169.0","0","0","q3aSU","Scenes","","null","","","null","","","","","","","","","","","","","","","","","","","","","","","","","","","","","","","","","","","","","","","","","","","",""
"","see_reward","","html-keyboard-response","230","1524490","0.0-170.0","0","0","q3aSU","Scenes","","590","","","32","","104","","15","","","","-1","","","","","1","","","","","0","590","","","","","","","","","","","","","","","","","","","","","","","","",""
"","reward_outcome","","html-keyboard-response","231","1526502","0.0-171.0","0","0","q3aSU","Scenes","","785","","","40","","104","","15","","","","","","","","","","","","","","","","-1","785","","","","","","","","","","","","","","","","","","","","","","",""
"","fixation","","html-keyboard-response","232","1527508","0.0-174.0","0","0","q3aSU","Scenes","","null","","","null","","","","","","","","","","","","","","","","","","","","","","","","","","","","","","","","","","","","","","","","","","","",""
"","see_reward","","html-keyboard-response","233","1528106","0.0-175.0","0","0","q3aSU","Scenes","","596","","","32","","138","","16","","","","1","","","","","1","","","","","148","596","","","","","","","","","","","","","","","","","","","","","","","","",""
"","reward_outcome","","html-keyboard-response","234","1530123","0.0-176.0","0","0","q3aSU","Scenes","","929","","","38","","138","","16","","","","","","","","","","","","","","","","1","929","","","","","","","","","","","","","","","","","","","","","","",""
"","fixation","","html-keyboard-response","235","1531134","0.0-179.0","0","0","q3aSU","Scenes","","null","","","null","","","","","","","","","","","","","","","","","","","","","","","","","","","","","","","","","","","","","","","","","","","",""
"","see_reward","","html-keyboard-response","236","1531741","0.0-180.0","0","0","q3aSU","Scenes","","605","","","32","","144","","17","","","","1","","","","","1","","","","","146","605","","","","","","","","","","","","","","","","","","","","","","","","",""
"","reward_outcome","","html-keyboard-response","237","1533750","0.0-181.0","0","0","q3aSU","Scenes","","836","","","38","","144","","17","","","","","","","","","","","","","","","","1","836","","","","","","","","","","","","","","","","","","","","","","",""
"","fixation","","html-keyboard-response","238","1534763","0.0-184.0","0","0","q3aSU","Scenes","","null","","","null","","","","","","","","","","","","","","","","","","","","","","","","","","","","","","","","","","","","","","","","","","","",""
"","see_reward","","html-keyboard-response","239","1535342","0.0-185.0","0","0","q3aSU","Scenes","","576","","","32","","123","","18","","","","1","","","","","1","","","","","151","576","","","","","","","","","","","","","","","","","","","","","","","","",""
"","reward_outcome","","html-keyboard-response","240","1537363","0.0-186.0","0","0","q3aSU","Scenes","","1086","","","38","","123","","18","","","","","","","","","","","","","","","","1","1086","","","","","","","","","","","","","","","","","","","","","","",""
"","fixation","","html-keyboard-response","241","1538373","0.0-189.0","0","0","q3aSU","Scenes","","null","","","null","","","","","","","","","","","","","","","","","","","","","","","","","","","","","","","","","","","","","","","","","","","",""
"","see_reward","","html-keyboard-response","242","1539044","0.0-190.0","0","0","q3aSU","Scenes","","668","","","32","","141","","19","","","","1","","","","","1","","","","","146","668","","","","","","","","","","","","","","","","","","","","","","","","",""
"","reward_outcome","","html-keyboard-response","243","1541056","0.0-191.0","0","0","q3aSU","Scenes","","756","","","38","","141","","19","","","","","","","","","","","","","","","","1","756","","","","","","","","","","","","","","","","","","","","","","",""
"","fixation","","html-keyboard-response","244","1542069","0.0-194.0","0","0","q3aSU","Scenes","","null","","","null","","","","","","","","","","","","","","","","","","","","","","","","","","","","","","","","","","","","","","","","","","","",""
"","see_reward","","html-keyboard-response","245","1542560","0.0-195.0","0","0","q3aSU","Scenes","","487","","","32","","123","","20","","","","1","","","","","1","","","","","151","487","","","","","","","","","","","","","","","","","","","","","","","","",""
"","reward_outcome","","html-keyboard-response","246","1544580","0.0-196.0","0","0","q3aSU","Scenes","","637","","","38","","123","","20","","","","","","","","","","","","","","","","1","637","","","","","","","","","","","","","","","","","","","","","","",""
"","fixation","","html-keyboard-response","247","1545593","0.0-199.0","0","0","q3aSU","Scenes","","null","","","null","","","","","","","","","","","","","","","","","","","","","","","","","","","","","","","","","","","","","","","","","","","",""
"","see_reward","","html-keyboard-response","248","1546112","0.0-200.0","0","0","q3aSU","Scenes","","516","","","32","","104","","21","","","","-1","","","","","1","","","","","0","516","","","","","","","","","","","","","","","","","","","","","","","","",""
"","reward_outcome","","html-keyboard-response","249","1548120","0.0-201.0","0","0","q3aSU","Scenes","","705","","","40","","104","","21","","","","","","","","","","","","","","","","-1","705","","","","","","","","","","","","","","","","","","","","","","",""
"","fixation","","html-keyboard-response","250","1549124","0.0-204.0","0","0","q3aSU","Scenes","","null","","","null","","","","","","","","","","","","","","","","","","","","","","","","","","","","","","","","","","","","","","","","","","","",""
"","see_reward","","html-keyboard-response","251","1549605","0.0-205.0","0","0","q3aSU","Scenes","","478","","","32","","140","","22","","","","-1","","","","","1","","","","","0","478","","","","","","","","","","","","","","","","","","","","","","","","",""
"","reward_outcome","","html-keyboard-response","252","1551621","0.0-206.0","0","0","q3aSU","Scenes","","709","","","40","","140","","22","","","","","","","","","","","","","","","","-1","709","","","","","","","","","","","","","","","","","","","","","","",""
"","fixation","","html-keyboard-response","253","1552635","0.0-209.0","0","0","q3aSU","Scenes","","null","","","null","","","","","","","","","","","","","","","","","","","","","","","","","","","","","","","","","","","","","","","","","","","",""
"","see_reward","","html-keyboard-response","254","1553222","0.0-210.0","0","0","q3aSU","Scenes","","584","","","32","","141","","23","","","","1","","","","","1","","","","","146","584","","","","","","","","","","","","","","","","","","","","","","","","",""
"","reward_outcome","","html-keyboard-response","255","1555227","0.0-211.0","0","0","q3aSU","Scenes","","737","","","38","","141","","23","","","","","","","","","","","","","","","","1","737","","","","","","","","","","","","","","","","","","","","","","",""
"","block_over","","html-keyboard-response","256","1559099","0.0-213.0-0.0","0","0","q3aSU","Scenes","","3869","","","78","","","","","","","","","","","","","","","","","","","","","","","","","","","","","","","","","","","","","","","","","","","",""
"","fixation","","html-keyboard-response","257","1560120","0.0-214.0","0","0","q3aSU","Scenes","","null","","","null","","","","","","","","","","","","","","","","","","","","","","","","","","","","","","","","","","","","","","","","","","","",""
"","see_reward","","html-keyboard-response","258","1560694","0.0-215.0","0","0","q3aSU","Scenes","","572","","","32","","121","","24","","","","-1","","","","","2","","","","","0","572","","","","","","","","","","","","","","","","","","","","","","","","",""
"","reward_outcome","","html-keyboard-response","259","1562704","0.0-216.0","0","0","q3aSU","Scenes","","522","","","40","","121","","24","","","","","","","","","","","","","","","","-1","522","","","","","","","","","","","","","","","","","","","","","","",""
"","fixation","","html-keyboard-response","260","1563724","0.0-219.0","0","0","q3aSU","Scenes","","null","","","null","","","","","","","","","","","","","","","","","","","","","","","","","","","","","","","","","","","","","","","","","","","",""
"","see_reward","","html-keyboard-response","261","1564246","0.0-220.0","0","0","q3aSU","Scenes","","520","","","32","","140","","25","","","","-1","","","","","2","","","","","0","520","","","","","","","","","","","","","","","","","","","","","","","","",""
"","reward_outcome","","html-keyboard-response","262","1566262","0.0-221.0","0","0","q3aSU","Scenes","","587","","","40","","140","","25","","","","","","","","","","","","","","","","-1","587","","","","","","","","","","","","","","","","","","","","","","",""
"","fixation","","html-keyboard-response","263","1567266","0.0-224.0","0","0","q3aSU","Scenes","","null","","","null","","","","","","","","","","","","","","","","","","","","","","","","","","","","","","","","","","","","","","","","","","","",""
"","see_reward","","html-keyboard-response","264","1567835","0.0-225.0","0","0","q3aSU","Scenes","","566","","","32","","134","","26","","","","1","","","","","2","","","","","150","566","","","","","","","","","","","","","","","","","","","","","","","","",""
"","reward_outcome","","html-keyboard-response","265","1569848","0.0-226.0","0","0","q3aSU","Scenes","","710","","","38","","134","","26","","","","","","","","","","","","","","","","1","710","","","","","","","","","","","","","","","","","","","","","","",""
"","fixation","","html-keyboard-response","266","1570871","0.0-229.0","0","0","q3aSU","Scenes","","null","","","null","","","","","","","","","","","","","","","","","","","","","","","","","","","","","","","","","","","","","","","","","","","",""
"","see_reward","","html-keyboard-response","267","1571363","0.0-230.0","0","0","q3aSU","Scenes","","490","","","32","","139","","27","","","","-1","","","","","2","","","","","0","490","","","","","","","","","","","","","","","","","","","","","","","","",""
"","reward_outcome","","html-keyboard-response","268","1573377","0.0-231.0","0","0","q3aSU","Scenes","","597","","","40","","139","","27","","","","","","","","","","","","","","","","-1","597","","","","","","","","","","","","","","","","","","","","","","",""
"","fixation","","html-keyboard-response","269","1574395","0.0-234.0","0","0","q3aSU","Scenes","","null","","","null","","","","","","","","","","","","","","","","","","","","","","","","","","","","","","","","","","","","","","","","","","","",""
"","see_reward","","html-keyboard-response","270","1575032","0.0-235.0","0","0","q3aSU","Scenes","","634","","","32","","121","","28","","","","-1","","","","","2","","","","","0","634","","","","","","","","","","","","","","","","","","","","","","","","",""
"","reward_outcome","","html-keyboard-response","271","1577048","0.0-236.0","0","0","q3aSU","Scenes","","731","","","40","","121","","28","","","","","","","","","","","","","","","","-1","731","","","","","","","","","","","","","","","","","","","","","","",""
"","fixation","","html-keyboard-response","272","1578066","0.0-239.0","0","0","q3aSU","Scenes","","null","","","null","","","","","","","","","","","","","","","","","","","","","","","","","","","","","","","","","","","","","","","","","","","",""
"","see_reward","","html-keyboard-response","273","1578571","0.0-240.0","0","0","q3aSU","Scenes","","502","","","32","","119","","29","","","","1","","","","","2","","","","","147","502","","","","","","","","","","","","","","","","","","","","","","","","",""
"","reward_outcome","","html-keyboard-response","274","1580583","0.0-241.0","0","0","q3aSU","Scenes","","529","","","38","","119","","29","","","","","","","","","","","","","","","","1","529","","","","","","","","","","","","","","","","","","","","","","",""
"","fixation","","html-keyboard-response","275","1581586","0.0-244.0","0","0","q3aSU","Scenes","","null","","","null","","","","","","","","","","","","","","","","","","","","","","","","","","","","","","","","","","","","","","","","","","","",""
"","see_reward","","html-keyboard-response","276","1582163","0.0-245.0","0","0","q3aSU","Scenes","","575","","","32","","118","","30","","","","-1","","","","","2","","","","","0","575","","","","","","","","","","","","","","","","","","","","","","","","",""
"","reward_outcome","","html-keyboard-response","277","1584194","0.0-246.0","0","0","q3aSU","Scenes","","737","","","40","","118","","30","","","","","","","","","","","","","","","","-1","737","","","","","","","","","","","","","","","","","","","","","","",""
"","fixation","","html-keyboard-response","278","1585217","0.0-249.0","0","0","q3aSU","Scenes","","null","","","null","","","","","","","","","","","","","","","","","","","","","","","","","","","","","","","","","","","","","","","","","","","",""
"","see_reward","","html-keyboard-response","279","1585885","0.0-250.0","0","0","q3aSU","Scenes","","665","","","32","","134","","31","","","","1","","","","","2","","","","","150","665","","","","","","","","","","","","","","","","","","","","","","","","",""
"","reward_outcome","","html-keyboard-response","280","1587892","0.0-251.0","0","0","q3aSU","Scenes","","733","","","38","","134","","31","","","","","","","","","","","","","","","","1","733","","","","","","","","","","","","","","","","","","","","","","",""
"","fixation","","html-keyboard-response","281","1588899","0.0-254.0","0","0","q3aSU","Scenes","","null","","","null","","","","","","","","","","","","","","","","","","","","","","","","","","","","","","","","","","","","","","","","","","","",""
"","see_reward","","html-keyboard-response","282","1589551","0.0-255.0","0","0","q3aSU","Scenes","","650","","","32","","104","","32","","","","-1","","","","","2","","","","","0","650","","","","","","","","","","","","","","","","","","","","","","","","",""
"","reward_outcome","","html-keyboard-response","283","1591569","0.0-256.0","0","0","q3aSU","Scenes","","807","","","40","","104","","32","","","","","","","","","","","","","","","","-1","807","","","","","","","","","","","","","","","","","","","","","","",""
"","fixation","","html-keyboard-response","284","1592587","0.0-259.0","0","0","q3aSU","Scenes","","null","","","null","","","","","","","","","","","","","","","","","","","","","","","","","","","","","","","","","","","","","","","","","","","",""
"","see_reward","","html-keyboard-response","285","1593182","0.0-260.0","0","0","q3aSU","Scenes","","588","","","32","","141","","33","","","","1","","","","","2","","","","","146","588","","","","","","","","","","","","","","","","","","","","","","","","",""
"","reward_outcome","","html-keyboard-response","286","1595193","0.0-261.0","0","0","q3aSU","Scenes","","706","","","38","","141","","33","","","","","","","","","","","","","","","","1","706","","","","","","","","","","","","","","","","","","","","","","",""
"","fixation","","html-keyboard-response","287","1596204","0.0-264.0","0","0","q3aSU","Scenes","","null","","","null","","","","","","","","","","","","","","","","","","","","","","","","","","","","","","","","","","","","","","","","","","","",""
"","see_reward","","html-keyboard-response","288","1596679","0.0-265.0","0","0","q3aSU","Scenes","","473","","","32","","144","","34","","","","1","","","","","2","","","","","146","473","","","","","","","","","","","","","","","","","","","","","","","","",""
"","reward_outcome","","html-keyboard-response","289","1598700","0.0-266.0","0","0","q3aSU","Scenes","","676","","","38","","144","","34","","","","","","","","","","","","","","","","1","676","","","","","","","","","","","","","","","","","","","","","","",""
"","fixation","","html-keyboard-response","290","1599715","0.0-269.0","0","0","q3aSU","Scenes","","null","","","null","","","","","","","","","","","","","","","","","","","","","","","","","","","","","","","","","","","","","","","","","","","",""
"","see_reward","","html-keyboard-response","291","1600230","0.0-270.0","0","0","q3aSU","Scenes","","513","","","32","","141","","35","","","","1","","","","","2","","","","","146","513","","","","","","","","","","","","","","","","","","","","","","","","",""
"","reward_outcome","","html-keyboard-response","292","1602236","0.0-271.0","0","0","q3aSU","Scenes","","677","","","38","","141","","35","","","","","","","","","","","","","","","","1","677","","","","","","","","","","","","","","","","","","","","","","",""
"","fixation","","html-keyboard-response","293","1603251","0.0-274.0","0","0","q3aSU","Scenes","","null","","","null","","","","","","","","","","","","","","","","","","","","","","","","","","","","","","","","","","","","","","","","","","","",""
"","see_reward","","html-keyboard-response","294","1603747","0.0-275.0","0","0","q3aSU","Scenes","","494","","","32","","119","","36","","","","1","","","","","2","","","","","147","494","","","","","","","","","","","","","","","","","","","","","","","","",""
"","reward_outcome","","html-keyboard-response","295","1605763","0.0-276.0","0","0","q3aSU","Scenes","","593","","","38","","119","","36","","","","","","","","","","","","","","","","1","593","","","","","","","","","","","","","","","","","","","","","","",""
"","fixation","","html-keyboard-response","296","1606771","0.0-279.0","0","0","q3aSU","Scenes","","null","","","null","","","","","","","","","","","","","","","","","","","","","","","","","","","","","","","","","","","","","","","","","","","",""
"","see_reward","","html-keyboard-response","297","1607306","0.0-280.0","0","0","q3aSU","Scenes","","532","","","32","","138","","37","","","","1","","","","","2","","","","","148","532","","","","","","","","","","","","","","","","","","","","","","","","",""
"","reward_outcome","","html-keyboard-response","298","1609317","0.0-281.0","0","0","q3aSU","Scenes","","651","","","38","","138","","37","","","","","","","","","","","","","","","","1","651","","","","","","","","","","","","","","","","","","","","","","",""
"","fixation","","html-keyboard-response","299","1610324","0.0-284.0","0","0","q3aSU","Scenes","","null","","","null","","","","","","","","","","","","","","","","","","","","","","","","","","","","","","","","","","","","","","","","","","","",""
"","see_reward","","html-keyboard-response","300","1611033","0.0-285.0","0","0","q3aSU","Scenes","","706","","","32","","112","","38","","","","-1","","","","","2","","","","","0","706","","","","","","","","","","","","","","","","","","","","","","","","",""
"","reward_outcome","","html-keyboard-response","301","1613055","0.0-286.0","0","0","q3aSU","Scenes","","643","","","40","","112","","38","","","","","","","","","","","","","","","","-1","643","","","","","","","","","","","","","","","","","","","","","","",""
"","fixation","","html-keyboard-response","302","1614066","0.0-289.0","0","0","q3aSU","Scenes","","null","","","null","","","","","","","","","","","","","","","","","","","","","","","","","","","","","","","","","","","","","","","","","","","",""
"","see_reward","","html-keyboard-response","303","1614665","0.0-290.0","0","0","q3aSU","Scenes","","596","","","32","","123","","39","","","","1","","","","","2","","","","","151","596","","","","","","","","","","","","","","","","","","","","","","","","",""
"","reward_outcome","","html-keyboard-response","304","1616689","0.0-291.0","0","0","q3aSU","Scenes","","555","","","38","","123","","39","","","","","","","","","","","","","","","","1","555","","","","","","","","","","","","","","","","","","","","","","",""
"","fixation","","html-keyboard-response","305","1617710","0.0-294.0","0","0","q3aSU","Scenes","","null","","","null","","","","","","","","","","","","","","","","","","","","","","","","","","","","","","","","","","","","","","","","","","","",""
"","see_reward","","html-keyboard-response","306","1618292","0.0-295.0","0","0","q3aSU","Scenes","","579","","","32","","144","","40","","","","1","","","","","2","","","","","146","579","","","","","","","","","","","","","","","","","","","","","","","","",""
"","reward_outcome","","html-keyboard-response","307","1620325","0.0-296.0","0","0","q3aSU","Scenes","","788","","","38","","144","","40","","","","","","","","","","","","","","","","1","788","","","","","","","","","","","","","","","","","","","","","","",""
"","fixation","","html-keyboard-response","308","1621346","0.0-299.0","0","0","q3aSU","Scenes","","null","","","null","","","","","","","","","","","","","","","","","","","","","","","","","","","","","","","","","","","","","","","","","","","",""
"","see_reward","","html-keyboard-response","309","1621979","0.0-300.0","0","0","q3aSU","Scenes","","630","","","32","","118","","41","","","","-1","","","","","2","","","","","0","630","","","","","","","","","","","","","","","","","","","","","","","","",""
"","reward_outcome","","html-keyboard-response","310","1623998","0.0-301.0","0","0","q3aSU","Scenes","","524","","","40","","118","","41","","","","","","","","","","","","","","","","-1","524","","","","","","","","","","","","","","","","","","","","","","",""
"","fixation","","html-keyboard-response","311","1625017","0.0-304.0","0","0","q3aSU","Scenes","","null","","","null","","","","","","","","","","","","","","","","","","","","","","","","","","","","","","","","","","","","","","","","","","","",""
"","see_reward","","html-keyboard-response","312","1625645","0.0-305.0","0","0","q3aSU","Scenes","","625","","","32","","139","","42","","","","-1","","","","","2","","","","","0","625","","","","","","","","","","","","","","","","","","","","","","","","",""
"","reward_outcome","","html-keyboard-response","313","1627670","0.0-306.0","0","0","q3aSU","Scenes","","608","","","40","","139","","42","","","","","","","","","","","","","","","","-1","608","","","","","","","","","","","","","","","","","","","","","","",""
"","fixation","","html-keyboard-response","314","1628686","0.0-309.0","0","0","q3aSU","Scenes","","null","","","null","","","","","","","","","","","","","","","","","","","","","","","","","","","","","","","","","","","","","","","","","","","",""
"","see_reward","","html-keyboard-response","315","1629143","0.0-310.0","0","0","q3aSU","Scenes","","455","","","32","","104","","43","","","","-1","","","","","2","","","","","0","455","","","","","","","","","","","","","","","","","","","","","","","","",""
"","reward_outcome","","html-keyboard-response","316","1631162","0.0-311.0","0","0","q3aSU","Scenes","","754","","","40","","104","","43","","","","","","","","","","","","","","","","-1","754","","","","","","","","","","","","","","","","","","","","","","",""
"","fixation","","html-keyboard-response","317","1632178","0.0-314.0","0","0","q3aSU","Scenes","","null","","","null","","","","","","","","","","","","","","","","","","","","","","","","","","","","","","","","","","","","","","","","","","","",""
"","see_reward","","html-keyboard-response","318","1632792","0.0-315.0","0","0","q3aSU","Scenes","","612","","","32","","123","","44","","","","1","","","","","2","","","","","151","612","","","","","","","","","","","","","","","","","","","","","","","","",""
"","reward_outcome","","html-keyboard-response","319","1634805","0.0-316.0","0","0","q3aSU","Scenes","","628","","","38","","123","","44","","","","","","","","","","","","","","","","1","628","","","","","","","","","","","","","","","","","","","","","","",""
"","fixation","","html-keyboard-response","320","1635828","0.0-319.0","0","0","q3aSU","Scenes","","null","","","null","","","","","","","","","","","","","","","","","","","","","","","","","","","","","","","","","","","","","","","","","","","",""
"","see_reward","","html-keyboard-response","321","1636560","0.0-320.0","0","0","q3aSU","Scenes","","730","","","32","","140","","45","","","","-1","","","","","2","","","","","0","730","","","","","","","","","","","","","","","","","","","","","","","","",""
"","reward_outcome","","html-keyboard-response","322","1638575","0.0-321.0","0","0","q3aSU","Scenes","","687","","","40","","140","","45","","","","","","","","","","","","","","","","-1","687","","","","","","","","","","","","","","","","","","","","","","",""
"","fixation","","html-keyboard-response","323","1639585","0.0-324.0","0","0","q3aSU","Scenes","","null","","","null","","","","","","","","","","","","","","","","","","","","","","","","","","","","","","","","","","","","","","","","","","","",""
"","see_reward","","html-keyboard-response","324","1640190","0.0-325.0","0","0","q3aSU","Scenes","","604","","","32","","138","","46","","","","1","","","","","2","","","","","148","604","","","","","","","","","","","","","","","","","","","","","","","","",""
"","reward_outcome","","html-keyboard-response","325","1642200","0.0-326.0","0","0","q3aSU","Scenes","","490","","","38","","138","","46","","","","","","","","","","","","","","","","1","490","","","","","","","","","","","","","","","","","","","","","","",""
"","fixation","","html-keyboard-response","326","1643207","0.0-329.0","0","0","q3aSU","Scenes","","null","","","null","","","","","","","","","","","","","","","","","","","","","","","","","","","","","","","","","","","","","","","","","","","",""
"","see_reward","","html-keyboard-response","327","1643811","0.0-330.0","0","0","q3aSU","Scenes","","600","","","32","","112","","47","","","","-1","","","","","2","","","","","0","600","","","","","","","","","","","","","","","","","","","","","","","","",""
"","reward_outcome","","html-keyboard-response","328","1645827","0.0-331.0","0","0","q3aSU","Scenes","","578","","","40","","112","","47","","","","","","","","","","","","","","","","-1","578","","","","","","","","","","","","","","","","","","","","","","",""
"","block_over","","html-keyboard-response","329","1648299","0.0-333.0-0.0","0","0","q3aSU","Scenes","","2471","","","78","","","","","","","","","","","","","","","","","","","","","","","","","","","","","","","","","","","","","","","","","","","",""
"","fixation","","html-keyboard-response","330","1649311","0.0-334.0","0","0","q3aSU","Scenes","","null","","","null","","","","","","","","","","","","","","","","","","","","","","","","","","","","","","","","","","","","","","","","","","","",""
"","see_reward","","html-keyboard-response","331","1649858","0.0-335.0","0","0","q3aSU","Scenes","","545","","","32","","144","","48","","","","1","","","","","3","","","","","146","545","","","","","","","","","","","","","","","","","","","","","","","","",""
"","reward_outcome","","html-keyboard-response","332","1651863","0.0-336.0","0","0","q3aSU","Scenes","","541","","","38","","144","","48","","","","","","","","","","","","","","","","1","541","","","","","","","","","","","","","","","","","","","","","","",""
"","fixation","","html-keyboard-response","333","1652885","0.0-339.0","0","0","q3aSU","Scenes","","null","","","null","","","","","","","","","","","","","","","","","","","","","","","","","","","","","","","","","","","","","","","","","","","",""
"","see_reward","","html-keyboard-response","334","1653420","0.0-340.0","0","0","q3aSU","Scenes","","533","","","32","","119","","49","","","","1","","","","","3","","","","","147","533","","","","","","","","","","","","","","","","","","","","","","","","",""
"","reward_outcome","","html-keyboard-response","335","1655444","0.0-341.0","0","0","q3aSU","Scenes","","881","","","38","","119","","49","","","","","","","","","","","","","","","","1","881","","","","","","","","","","","","","","","","","","","","","","",""
"","fixation","","html-keyboard-response","336","1656469","0.0-344.0","0","0","q3aSU","Scenes","","null","","","null","","","","","","","","","","","","","","","","","","","","","","","","","","","","","","","","","","","","","","","","","","","",""
"","see_reward","","html-keyboard-response","337","1656994","0.0-345.0","0","0","q3aSU","Scenes","","522","","","32","","134","","50","","","","1","","","","","3","","","","","150","522","","","","","","","","","","","","","","","","","","","","","","","","",""
"","reward_outcome","","html-keyboard-response","338","1658999","0.0-346.0","0","0","q3aSU","Scenes","","648","","","38","","134","","50","","","","","","","","","","","","","","","","1","648","","","","","","","","","","","","","","","","","","","","","","",""
"","fixation","","html-keyboard-response","339","1660021","0.0-349.0","0","0","q3aSU","Scenes","","null","","","null","","","","","","","","","","","","","","","","","","","","","","","","","","","","","","","","","","","","","","","","","","","",""
"","see_reward","","html-keyboard-response","340","1660523","0.0-350.0","0","0","q3aSU","Scenes","","499","","","32","","104","","51","","","","-1","","","","","3","","","","","0","499","","","","","","","","","","","","","","","","","","","","","","","","",""
"","reward_outcome","","html-keyboard-response","341","1662532","0.0-351.0","0","0","q3aSU","Scenes","","448","","","40","","104","","51","","","","","","","","","","","","","","","","-1","448","","","","","","","","","","","","","","","","","","","","","","",""
"","fixation","","html-keyboard-response","342","1663540","0.0-354.0","0","0","q3aSU","Scenes","","null","","","null","","","","","","","","","","","","","","","","","","","","","","","","","","","","","","","","","","","","","","","","","","","",""
"","see_reward","","html-keyboard-response","343","1664113","0.0-355.0","0","0","q3aSU","Scenes","","571","","","32","","139","","52","","","","-1","","","","","3","","","","","0","571","","","","","","","","","","","","","","","","","","","","","","","","",""
"","reward_outcome","","html-keyboard-response","344","1666121","0.0-356.0","0","0","q3aSU","Scenes","","627","","","40","","139","","52","","","","","","","","","","","","","","","","-1","627","","","","","","","","","","","","","","","","","","","","","","",""
